SpectraSuite Data File
++++++++++++++++++++++++++++++++++++
Date: Mon Feb 25 17:03:27 EST 2013
User: group
Dark Spectrum Present: No
Reference Spectrum Present: No
Number of Sampled Component Spectra: 1
Spectrometers: USB2E7196
Integration Time (usec): 104000 (USB2E7196)
Spectra Averaged: 20 (USB2E7196)
Boxcar Smoothing: 10 (USB2E7196)
Correct for Electrical Dark: No (USB2E7196)
Strobe/Lamp Enabled: No (USB2E7196)
Correct for Detector Non-linearity: No (USB2E7196)
Correct for Stray Light: No (USB2E7196)
Number of Pixels in Processed Spectrum: 2048
>>>>>Begin Processed Spectral Data<<<<<
339.09	0.00
339.48	199.65
339.86	200.25
340.24	201.45
340.63	202.45
341.01	210.20
341.39	205.60
341.78	208.30
342.16	208.95
342.54	208.40
342.93	198.31
343.31	208.35
343.69	208.86
344.07	209.33
344.46	209.77
344.84	210.10
345.22	210.10
345.60	210.33
345.99	210.49
346.37	210.60
346.75	210.64
347.13	210.63
347.52	210.63
347.90	210.78
348.28	210.77
348.66	210.85
349.05	210.77
349.43	210.80
349.81	210.77
350.19	210.75
350.57	210.83
350.96	210.88
351.34	210.92
351.72	211.00
352.10	211.11
352.48	211.13
352.87	211.17
353.25	211.27
353.63	211.32
354.01	211.34
354.39	211.39
354.77	211.56
355.15	211.75
355.54	211.80
355.92	211.76
356.30	211.86
356.68	212.15
357.06	212.24
357.44	212.24
357.82	212.38
358.20	212.50
358.58	212.47
358.97	212.50
359.35	212.59
359.73	212.66
360.11	212.70
360.49	212.77
360.87	212.93
361.25	213.03
361.63	213.16
362.01	213.24
362.39	213.26
362.77	213.26
363.15	213.20
363.53	213.24
363.91	213.23
364.29	213.25
364.67	212.90
365.05	212.91
365.43	212.98
365.81	212.98
366.19	213.13
366.57	213.33
366.95	213.39
367.33	213.31
367.71	213.33
368.09	213.30
368.47	213.24
368.85	213.16
369.23	213.16
369.61	213.07
369.99	213.18
370.37	213.23
370.75	213.41
371.13	213.47
371.51	213.41
371.89	213.42
372.27	213.39
372.65	213.45
373.03	213.45
373.41	213.36
373.78	213.28
374.16	213.05
374.54	212.82
374.92	212.75
375.30	212.70
375.68	212.53
376.06	212.52
376.44	212.52
376.82	212.47
377.19	212.49
377.57	212.40
377.95	212.16
378.33	212.08
378.71	211.76
379.09	211.69
379.47	211.70
379.84	211.74
380.22	211.66
380.60	211.55
380.98	211.43
381.36	211.37
381.73	211.31
382.11	211.38
382.49	211.39
382.87	211.31
383.25	211.27
383.62	211.67
384.00	211.54
384.38	211.47
384.76	211.51
385.13	211.48
385.51	211.43
385.89	211.34
386.27	211.26
386.64	211.34
387.02	211.30
387.40	211.24
387.78	211.10
388.15	211.12
388.53	211.12
388.91	211.17
389.29	211.14
389.66	211.20
390.04	211.11
390.42	211.13
390.79	211.14
391.17	211.14
391.55	210.72
391.92	210.74
392.30	210.82
392.68	210.72
393.05	210.65
393.43	210.62
393.81	210.67
394.18	210.59
394.56	210.53
394.94	210.54
395.31	210.48
395.69	210.52
396.06	210.55
396.44	210.51
396.82	210.51
397.19	210.71
397.57	210.58
397.95	210.68
398.32	210.66
398.70	210.75
399.07	210.85
399.45	210.88
399.82	210.91
400.20	210.90
400.58	210.93
400.95	210.84
401.33	211.03
401.70	211.37
402.08	211.43
402.45	211.50
402.83	211.63
403.20	211.74
403.58	211.82
403.95	211.94
404.33	212.12
404.71	212.17
405.08	212.42
405.46	212.60
405.83	212.67
406.21	212.74
406.58	212.84
406.96	212.96
407.33	213.12
407.70	213.32
408.08	213.76
408.45	214.02
408.83	214.42
409.20	214.64
409.58	214.67
409.95	215.01
410.33	215.38
410.70	215.63
411.08	216.05
411.45	216.46
411.82	216.80
412.20	217.26
412.57	217.93
412.95	218.08
413.32	218.65
413.69	219.17
414.07	219.81
414.44	220.47
414.82	221.15
415.19	221.99
415.56	222.82
415.94	223.55
416.31	224.58
416.68	225.58
417.06	226.66
417.43	227.81
417.81	229.07
418.18	230.36
418.55	231.73
418.93	233.18
419.30	234.59
419.67	236.21
420.04	237.76
420.42	239.36
420.79	241.60
421.16	243.58
421.54	245.84
421.91	247.98
422.28	250.13
422.66	252.55
423.03	255.05
423.40	257.47
423.77	259.93
424.15	262.58
424.52	265.21
424.89	268.17
425.26	271.04
425.64	273.83
426.01	276.84
426.38	279.97
426.75	283.25
427.13	286.70
427.50	290.20
427.87	293.97
428.24	297.68
428.61	301.15
428.99	305.24
429.36	309.40
429.73	313.65
430.10	317.91
430.47	322.30
430.85	326.61
431.22	331.45
431.59	336.70
431.96	341.49
432.33	346.92
432.70	352.23
433.08	358.20
433.45	364.00
433.82	369.82
434.19	376.31
434.56	382.53
434.93	388.57
435.30	394.79
435.68	401.51
436.05	408.11
436.42	414.69
436.79	420.71
437.16	427.28
437.53	434.20
437.90	441.07
438.27	447.79
438.64	454.78
439.01	461.43
439.38	467.29
439.75	473.07
440.13	479.61
440.50	485.82
440.87	491.12
441.24	496.38
441.61	502.20
441.98	506.70
442.35	511.72
442.72	516.87
443.09	521.83
443.46	525.06
443.83	527.43
444.20	529.50
444.57	532.28
444.94	533.81
445.31	535.50
445.68	537.24
446.05	538.12
446.42	538.02
446.79	537.54
447.16	537.01
447.53	536.87
447.90	534.80
448.27	532.77
448.64	529.52
449.01	527.34
449.37	523.16
449.74	519.07
450.11	514.60
450.48	509.35
450.85	503.88
451.22	499.13
451.59	494.59
451.96	490.38
452.33	484.57
452.70	479.33
453.07	472.85
453.43	466.20
453.80	460.06
454.17	454.09
454.54	448.51
454.91	442.48
455.28	436.44
455.65	430.77
456.02	425.37
456.38	420.71
456.75	414.89
457.12	409.96
457.49	405.05
457.86	400.10
458.23	396.06
458.59	391.50
458.96	387.01
459.33	383.04
459.70	379.02
460.07	375.82
460.43	372.15
460.80	368.80
461.17	365.79
461.54	362.54
461.91	359.45
462.27	356.41
462.64	353.71
463.01	350.86
463.38	348.18
463.74	345.01
464.11	342.45
464.48	340.20
464.85	337.71
465.21	336.00
465.58	334.02
465.95	331.66
466.32	329.70
466.68	327.70
467.05	325.79
467.42	323.79
467.78	321.65
468.15	319.69
468.52	318.24
468.88	316.34
469.25	314.74
469.62	313.42
469.98	311.76
470.35	310.43
470.72	309.11
471.08	307.67
471.45	306.52
471.82	305.45
472.18	304.15
472.55	303.35
472.92	302.12
473.28	301.04
473.65	300.04
474.02	299.07
474.38	298.32
474.75	297.61
475.11	296.85
475.48	296.35
475.85	295.76
476.21	295.11
476.58	294.61
476.94	294.17
477.31	293.75
477.67	293.38
478.04	293.03
478.41	292.71
478.77	292.65
479.14	292.33
479.50	292.08
479.87	291.97
480.23	291.84
480.60	291.68
480.96	291.60
481.33	291.80
481.69	291.85
482.06	291.80
482.42	291.85
482.79	291.94
483.15	291.95
483.52	292.25
483.88	292.39
484.25	292.57
484.61	292.80
484.98	293.03
485.34	293.46
485.71	293.89
486.07	294.34
486.44	294.54
486.80	295.05
487.17	295.59
487.53	296.34
487.90	296.97
488.26	297.75
488.62	298.53
488.99	299.12
489.35	299.89
489.72	300.74
490.08	301.50
490.44	302.19
490.81	303.26
491.17	304.11
491.54	305.14
491.90	306.17
492.26	307.20
492.63	308.19
492.99	309.24
493.36	310.32
493.72	311.52
494.08	312.72
494.45	314.04
494.81	315.37
495.17	316.70
495.54	318.04
495.90	319.38
496.26	320.74
496.63	322.06
496.99	323.40
497.35	324.83
497.72	326.36
498.08	328.03
498.44	329.48
498.80	331.12
499.17	332.66
499.53	334.06
499.89	335.68
500.26	337.25
500.62	338.64
500.98	340.19
501.34	341.64
501.71	343.08
502.07	344.53
502.43	345.77
502.79	346.91
503.16	348.32
503.52	349.61
503.88	350.80
504.24	352.13
504.60	353.37
504.97	354.59
505.33	355.70
505.69	356.88
506.05	357.98
506.41	359.03
506.78	359.96
507.14	360.95
507.50	361.84
507.86	362.76
508.22	363.73
508.59	364.44
508.95	365.16
509.31	366.17
509.67	366.89
510.03	367.62
510.39	368.22
510.75	368.75
511.12	369.29
511.48	369.79
511.84	370.22
512.20	370.79
512.56	371.20
512.92	371.71
513.28	371.99
513.64	372.30
514.00	372.42
514.37	372.70
514.73	373.05
515.09	373.29
515.45	373.44
515.81	373.57
516.17	373.61
516.53	373.64
516.89	373.41
517.25	373.39
517.61	373.45
517.97	373.46
518.33	373.46
518.69	373.48
519.05	373.54
519.41	373.52
519.77	373.59
520.13	373.52
520.49	373.25
520.85	373.13
521.21	373.20
521.57	373.19
521.93	373.12
522.29	373.11
522.65	373.02
523.01	373.10
523.37	372.99
523.73	373.17
524.09	373.40
524.45	373.62
524.81	373.78
525.17	374.05
525.53	374.40
525.89	374.72
526.25	375.08
526.61	375.40
526.97	375.77
527.33	376.21
527.68	377.06
528.04	377.78
528.40	378.45
528.76	378.96
529.12	379.70
529.48	380.58
529.84	381.43
530.20	382.34
530.56	383.33
530.91	384.46
531.27	385.63
531.63	386.75
531.99	387.94
532.35	389.03
532.71	390.25
533.07	391.64
533.42	393.40
533.78	394.84
534.14	396.30
534.50	397.86
534.86	399.48
535.21	400.73
535.57	402.36
535.93	404.09
536.29	406.05
536.65	407.95
537.00	409.75
537.36	411.63
537.72	413.37
538.08	415.27
538.44	417.20
538.79	419.11
539.15	421.10
539.51	423.13
539.87	425.35
540.22	427.59
540.58	429.88
540.94	431.82
541.29	433.96
541.65	436.29
542.01	438.64
542.37	441.05
542.72	443.44
543.08	445.93
543.44	448.59
543.79	450.90
544.15	453.52
544.51	456.32
544.87	458.94
545.22	461.82
545.58	464.39
545.94	467.13
546.29	469.78
546.65	472.53
547.01	475.24
547.36	478.08
547.72	480.78
548.07	483.43
548.43	486.05
548.79	488.82
549.14	491.50
549.50	494.18
549.86	496.77
550.21	499.60
550.57	502.38
550.92	504.86
551.28	507.49
551.64	510.05
551.99	512.66
552.35	515.40
552.70	517.83
553.06	520.65
553.41	523.23
553.77	526.04
554.13	528.49
554.48	531.27
554.84	533.87
555.19	536.38
555.55	539.17
555.90	541.70
556.26	544.10
556.61	546.52
556.97	548.79
557.32	551.11
557.68	553.32
558.03	555.50
558.39	557.68
558.74	560.13
559.10	562.47
559.45	564.76
559.81	567.11
560.16	569.44
560.52	571.65
560.87	573.90
561.23	575.90
561.58	578.48
561.94	580.29
562.29	582.07
562.64	584.30
563.00	586.10
563.35	588.19
563.71	590.51
564.06	592.67
564.42	595.01
564.77	597.21
565.12	599.49
565.48	601.83
565.83	603.97
566.19	606.00
566.54	607.80
566.89	609.61
567.25	611.45
567.60	613.59
567.96	615.49
568.31	617.46
568.66	619.15
569.02	620.38
569.37	621.89
569.72	623.55
570.08	624.87
570.43	626.03
570.78	627.33
571.14	628.37
571.49	629.39
571.84	630.39
572.20	631.30
572.55	632.21
572.90	632.67
573.26	633.36
573.61	633.87
573.96	634.55
574.31	635.07
574.67	635.14
575.02	635.18
575.37	635.25
575.72	635.17
576.08	635.44
576.43	635.73
576.78	636.17
577.13	636.40
577.49	636.63
577.84	637.03
578.19	637.34
578.54	637.60
578.90	638.00
579.25	638.04
579.60	638.00
579.95	637.85
580.30	638.10
580.66	638.44
581.01	638.53
581.36	638.54
581.71	638.45
582.06	638.72
582.42	638.82
582.77	638.78
583.12	638.86
583.47	638.98
583.82	639.04
584.17	638.98
584.53	639.00
584.88	638.81
585.23	638.86
585.58	638.42
585.93	638.29
586.28	638.17
586.63	638.08
586.98	637.97
587.34	638.03
587.69	637.83
588.04	637.35
588.39	637.15
588.74	636.83
589.09	636.64
589.44	636.21
589.79	635.90
590.14	635.62
590.49	635.26
590.84	634.75
591.19	634.37
591.54	633.85
591.89	633.14
592.25	632.87
592.60	631.89
592.95	631.14
593.30	630.28
593.65	629.35
594.00	628.48
594.35	628.62
594.70	627.55
595.05	626.66
595.40	625.89
595.75	624.95
596.10	624.18
596.45	623.41
596.80	622.71
597.15	621.96
597.50	621.09
597.85	620.35
598.19	619.34
598.54	618.45
598.89	617.60
599.24	616.85
599.59	615.80
599.94	615.35
600.29	614.73
600.64	613.86
600.99	612.96
601.34	612.14
601.69	610.30
602.04	609.39
602.39	608.32
602.74	607.43
603.08	606.57
603.43	606.04
603.78	605.09
604.13	604.27
604.48	603.37
604.83	602.70
605.18	601.84
605.53	600.95
605.87	599.94
606.22	599.09
606.57	598.29
606.92	597.23
607.27	595.93
607.62	594.84
607.96	594.09
608.31	593.08
608.66	592.03
609.01	590.90
609.36	589.89
609.70	588.87
610.05	587.61
610.40	586.61
610.75	585.05
611.10	583.90
611.44	582.34
611.79	580.84
612.14	579.22
612.49	577.62
612.83	576.30
613.18	574.90
613.53	573.28
613.88	571.46
614.22	570.10
614.57	568.66
614.92	567.25
615.27	565.62
615.61	564.05
615.96	562.49
616.31	561.13
616.65	559.97
617.00	558.54
617.35	557.17
617.70	555.42
618.04	553.71
618.39	551.93
618.74	550.52
619.08	548.90
619.43	547.30
619.78	545.88
620.12	544.30
620.47	542.65
620.82	541.04
621.16	539.54
621.51	538.05
621.85	536.45
622.20	534.58
622.55	532.77
622.89	531.11
623.24	529.67
623.59	528.03
623.93	526.26
624.28	524.59
624.62	523.21
624.97	521.81
625.32	520.41
625.66	518.92
626.01	517.28
626.35	515.81
626.70	514.17
627.04	512.63
627.39	510.93
627.73	509.54
628.08	508.05
628.43	506.45
628.77	504.64
629.12	502.97
629.46	501.66
629.81	500.07
630.15	498.47
630.50	496.73
630.84	495.07
631.19	493.34
631.53	491.86
631.88	489.87
632.22	488.04
632.57	486.50
632.91	484.84
633.26	483.25
633.60	481.56
633.95	480.17
634.29	478.39
634.64	477.04
634.98	475.25
635.32	473.75
635.67	472.30
636.01	470.85
636.36	469.30
636.70	467.76
637.05	466.33
637.39	464.97
637.73	463.49
638.08	462.29
638.42	460.91
638.77	459.47
639.11	458.10
639.45	456.64
639.80	454.96
640.14	453.37
640.49	451.76
640.83	450.23
641.17	448.70
641.52	447.13
641.86	445.50
642.20	444.10
642.55	442.36
642.89	440.67
643.23	438.94
643.58	437.60
643.92	435.99
644.26	434.40
644.61	432.79
644.95	431.28
645.29	429.42
645.64	427.92
645.98	426.28
646.32	424.72
646.66	423.03
647.01	421.51
647.35	420.12
647.69	418.62
648.04	417.16
648.38	415.55
648.72	414.14
649.06	412.56
649.41	410.89
649.75	409.35
650.09	407.96
650.43	406.51
650.78	404.91
651.12	403.38
651.46	401.91
651.80	400.46
652.14	398.99
652.49	397.65
652.83	396.00
653.17	394.40
653.51	392.89
653.85	391.59
654.20	390.12
654.54	388.49
654.88	386.94
655.22	385.51
655.56	383.90
655.90	382.25
656.25	380.76
656.59	379.35
656.93	377.93
657.27	376.57
657.61	375.17
657.95	373.71
658.29	372.31
658.64	371.09
658.98	369.55
659.32	368.01
659.66	366.54
660.00	365.11
660.34	363.70
660.68	362.24
661.02	360.75
661.36	359.34
661.70	357.98
662.05	356.74
662.39	355.51
662.73	354.50
663.07	353.53
663.41	352.28
663.75	351.02
664.09	349.83
664.43	348.42
664.77	347.21
665.11	345.95
665.45	344.74
665.79	343.56
666.13	342.46
666.47	341.28
666.81	340.11
667.15	338.98
667.49	337.90
667.83	336.83
668.17	335.79
668.51	334.78
668.85	333.88
669.19	332.95
669.53	331.70
669.87	330.52
670.21	329.38
670.55	328.37
670.89	327.54
671.23	326.61
671.57	325.69
671.91	324.66
672.25	323.68
672.58	322.71
672.92	321.55
673.26	320.60
673.60	319.70
673.94	318.79
674.28	317.87
674.62	316.98
674.96	316.11
675.30	315.25
675.64	314.36
675.97	313.40
676.31	312.41
676.65	311.61
676.99	310.82
677.33	309.88
677.67	309.03
678.01	307.86
678.34	306.99
678.68	306.13
679.02	305.25
679.36	304.43
679.70	303.67
680.04	302.77
680.37	301.97
680.71	301.12
681.05	300.36
681.39	299.53
681.73	298.72
682.06	297.95
682.40	297.08
682.74	296.31
683.08	295.57
683.42	294.65
683.75	293.96
684.09	293.15
684.43	292.35
684.77	291.50
685.10	290.88
685.44	290.12
685.78	289.35
686.12	288.70
686.45	287.93
686.79	287.07
687.13	286.47
687.46	285.69
687.80	285.07
688.14	284.28
688.48	283.60
688.81	282.82
689.15	282.12
689.49	281.31
689.82	280.55
690.16	279.71
690.50	279.15
690.83	278.28
691.17	277.42
691.51	276.69
691.84	276.15
692.18	275.49
692.52	274.74
692.85	274.15
693.19	273.55
693.52	272.89
693.86	272.23
694.20	271.58
694.53	270.97
694.87	270.25
695.21	269.53
695.54	268.88
695.88	268.18
696.21	267.47
696.55	266.97
696.88	266.41
697.22	265.83
697.56	265.28
697.89	264.76
698.23	264.31
698.56	263.81
698.90	263.24
699.23	262.58
699.57	262.08
699.90	261.44
700.24	260.70
700.58	260.16
700.91	259.76
701.25	259.45
701.58	259.00
701.92	258.53
702.25	258.17
702.59	257.67
702.92	257.31
703.26	256.90
703.59	256.41
703.93	256.18
704.26	255.77
704.60	255.25
704.93	254.70
705.26	254.18
705.60	253.67
705.93	253.17
706.27	252.85
706.60	252.45
706.94	252.25
707.27	251.88
707.61	251.50
707.94	250.95
708.27	250.27
708.61	249.75
708.94	249.37
709.28	248.88
709.61	248.47
709.94	248.11
710.28	247.71
710.61	247.46
710.95	246.81
711.28	246.65
711.61	246.31
711.95	246.10
712.28	245.80
712.61	245.47
712.95	245.30
713.28	245.12
713.61	244.68
713.95	244.28
714.28	244.02
714.61	243.59
714.95	243.30
715.28	242.90
715.61	242.56
715.95	242.27
716.28	241.90
716.61	241.66
716.95	241.28
717.28	240.95
717.61	240.60
717.94	240.32
718.28	239.83
718.61	239.53
718.94	239.21
719.27	238.84
719.61	238.60
719.94	238.26
720.27	237.77
720.60	237.60
720.94	237.23
721.27	237.03
721.60	236.92
721.93	236.65
722.27	236.60
722.60	236.50
722.93	236.16
723.26	236.02
723.59	235.72
723.93	235.52
724.26	235.37
724.59	235.01
724.92	234.79
725.25	234.68
725.59	234.50
725.92	234.34
726.25	234.20
726.58	234.06
726.91	233.81
727.24	233.65
727.57	233.37
727.91	233.11
728.24	232.86
728.57	232.55
728.90	232.37
729.23	232.07
729.56	231.99
729.89	231.82
730.22	231.57
730.55	231.35
730.89	231.12
731.22	230.88
731.55	230.73
731.88	230.54
732.21	230.20
732.54	229.99
732.87	229.73
733.20	229.56
733.53	229.32
733.86	229.17
734.19	228.89
734.52	228.79
734.85	228.89
735.18	228.66
735.51	228.65
735.84	228.51
736.17	228.48
736.50	228.12
736.83	228.36
737.16	228.15
737.49	228.08
737.82	227.95
738.15	227.83
738.48	227.71
738.81	227.55
739.14	227.39
739.47	227.20
739.80	227.04
740.13	226.91
740.46	226.70
740.79	226.50
741.12	226.36
741.45	226.17
741.78	225.79
742.11	225.81
742.44	225.62
742.77	225.48
743.10	225.23
743.43	225.06
743.75	224.51
744.08	224.89
744.41	224.61
744.74	224.47
745.07	224.25
745.40	224.23
745.73	224.24
746.06	224.15
746.39	224.07
746.71	223.88
747.04	223.70
747.37	223.55
747.70	223.43
748.03	223.40
748.36	223.28
748.68	223.17
749.01	222.84
749.34	222.73
749.67	222.68
750.00	222.67
750.33	222.86
750.65	222.79
750.98	222.30
751.31	222.20
751.64	222.08
751.97	222.08
752.29	221.87
752.62	221.56
752.95	221.46
753.28	221.31
753.60	221.20
753.93	221.22
754.26	221.14
754.59	220.96
754.91	220.70
755.24	220.60
755.57	220.52
755.90	220.43
756.22	220.27
756.55	220.12
756.88	219.90
757.20	219.54
757.53	219.32
757.86	219.16
758.19	219.13
758.51	219.01
758.84	218.86
759.17	218.75
759.49	218.70
759.82	218.75
760.15	218.64
760.47	218.57
760.80	218.31
761.13	218.30
761.45	218.19
761.78	218.17
762.11	218.05
762.43	217.98
762.76	217.84
763.08	217.83
763.41	217.77
763.74	217.76
764.06	217.67
764.39	217.66
764.71	217.58
765.04	217.46
765.37	217.36
765.69	217.28
766.02	217.23
766.34	217.13
766.67	216.85
767.00	216.86
767.32	217.02
767.65	217.22
767.97	217.14
768.30	217.09
768.62	217.11
768.95	217.07
769.27	216.91
769.60	216.98
769.92	216.86
770.25	216.70
770.57	216.51
770.90	216.46
771.22	216.35
771.55	216.31
771.87	216.35
772.20	216.27
772.52	216.50
772.85	216.83
773.17	216.86
773.50	216.84
773.82	216.71
774.15	216.43
774.47	216.13
774.80	216.00
775.12	216.04
775.45	215.93
775.77	215.94
776.09	215.94
776.42	215.89
776.74	215.94
777.07	215.96
777.39	215.97
777.72	215.89
778.04	215.99
778.36	215.83
778.69	215.77
779.01	215.79
779.33	215.42
779.66	214.94
779.98	214.81
780.31	214.76
780.63	214.92
780.95	215.02
781.28	215.05
781.60	215.03
781.92	214.95
782.25	214.89
782.57	214.78
782.89	214.73
783.22	214.73
783.54	214.69
783.86	214.65
784.19	214.62
784.51	214.70
784.83	214.50
785.16	214.58
785.48	214.62
785.80	214.56
786.12	214.70
786.45	214.75
786.77	214.73
787.09	214.74
787.42	214.57
787.74	214.58
788.06	214.53
788.38	214.51
788.71	214.48
789.03	214.54
789.35	214.62
789.67	214.59
789.99	214.50
790.32	214.40
790.64	214.35
790.96	214.66
791.28	214.52
791.61	214.57
791.93	214.54
792.25	214.50
792.57	214.74
792.89	214.55
793.21	214.53
793.54	214.53
793.86	214.47
794.18	214.47
794.50	214.32
794.82	214.30
795.14	214.33
795.47	214.37
795.79	214.29
796.11	214.20
796.43	214.20
796.75	214.21
797.07	214.20
797.39	214.25
797.71	213.95
798.04	213.97
798.36	214.00
798.68	213.95
799.00	213.92
799.32	213.70
799.64	213.75
799.96	213.77
800.28	213.79
800.60	213.76
800.92	213.81
801.24	213.82
801.56	213.80
801.89	213.69
802.21	213.74
802.53	213.63
802.85	213.71
803.17	213.77
803.49	213.71
803.81	213.65
804.13	213.50
804.45	213.47
804.77	213.51
805.09	213.47
805.41	213.50
805.73	213.43
806.05	213.38
806.37	213.36
806.69	213.31
807.01	213.24
807.33	213.29
807.65	213.11
807.97	213.22
808.28	213.24
808.60	213.28
808.92	213.17
809.24	213.43
809.56	213.26
809.88	213.19
810.20	213.14
810.52	213.17
810.84	213.18
811.16	213.12
811.48	213.07
811.80	213.19
812.12	213.18
812.43	213.23
812.75	213.17
813.07	213.15
813.39	213.14
813.71	213.18
814.03	213.13
814.35	213.08
814.67	212.86
814.98	212.84
815.30	212.84
815.62	212.76
815.94	212.53
816.26	212.51
816.58	212.41
816.89	212.45
817.21	212.38
817.53	212.41
817.85	212.39
818.17	212.35
818.48	212.20
818.80	212.18
819.12	212.16
819.44	212.18
819.76	212.13
820.07	212.08
820.39	212.01
820.71	212.02
821.03	212.05
821.34	212.07
821.66	212.00
821.98	211.99
822.30	211.98
822.61	212.22
822.93	212.25
823.25	212.26
823.57	212.28
823.88	212.40
824.20	212.39
824.52	212.41
824.83	212.30
825.15	212.29
825.47	212.32
825.79	212.28
826.10	212.22
826.42	212.13
826.74	212.26
827.05	212.25
827.37	212.24
827.69	212.22
828.00	212.20
828.32	212.30
828.64	212.29
828.95	212.45
829.27	212.30
829.58	212.31
829.90	212.39
830.22	212.34
830.53	212.22
830.85	212.15
831.17	212.10
831.48	212.13
831.80	212.05
832.11	211.96
832.43	211.95
832.75	211.93
833.06	212.19
833.38	212.00
833.69	211.95
834.01	211.91
834.32	211.93
834.64	211.91
834.96	211.81
835.27	211.77
835.59	211.62
835.90	211.56
836.22	211.50
836.53	211.37
836.85	211.45
837.16	211.81
837.48	211.83
837.79	211.91
838.11	211.97
838.42	212.03
838.74	212.07
839.05	212.05
839.37	212.07
839.68	211.82
840.00	211.88
840.31	211.91
840.63	211.87
840.94	211.83
841.26	211.81
841.57	211.86
841.88	211.82
842.20	211.72
842.51	211.65
842.83	211.71
843.14	212.04
843.46	211.90
843.77	211.64
844.08	211.62
844.40	211.56
844.71	211.52
845.03	211.48
845.34	211.45
845.65	211.41
845.97	211.43
846.28	211.45
846.60	211.44
846.91	211.43
847.22	211.42
847.54	211.48
847.85	211.49
848.16	211.40
848.48	211.38
848.79	211.65
849.10	211.68
849.42	211.66
849.73	211.40
850.04	211.41
850.36	211.35
850.67	211.39
850.98	211.37
851.30	211.36
851.61	211.30
851.92	211.33
852.23	211.48
852.55	211.49
852.86	211.53
853.17	211.54
853.49	211.60
853.80	211.74
854.11	211.77
854.42	211.84
854.74	211.84
855.05	211.85
855.36	211.59
855.67	211.60
855.99	211.54
856.30	211.89
856.61	211.85
856.92	211.79
857.23	211.80
857.55	211.77
857.86	211.79
858.17	211.79
858.48	211.75
858.79	211.61
859.11	211.65
859.42	211.65
859.73	211.52
860.04	211.53
860.35	211.39
860.66	211.29
860.98	211.24
861.29	211.30
861.60	211.33
861.91	211.42
862.22	211.41
862.53	211.45
862.84	210.99
863.16	211.09
863.47	211.10
863.78	211.14
864.09	211.18
864.40	211.18
864.71	211.24
865.02	211.15
865.33	211.12
865.64	211.05
865.95	211.03
866.27	211.33
866.58	211.32
866.89	211.35
867.20	211.29
867.51	211.26
867.82	211.20
868.13	211.22
868.44	211.22
868.75	211.25
869.06	211.20
869.37	211.27
869.68	211.15
869.99	211.22
870.30	211.12
870.61	211.07
870.92	211.01
871.23	210.97
871.54	211.13
871.85	211.16
872.16	211.20
872.47	211.18
872.78	211.00
873.09	210.99
873.40	211.04
873.71	211.10
874.02	211.11
874.33	211.10
874.64	211.10
874.95	211.14
875.26	211.11
875.56	211.20
875.87	211.19
876.18	211.30
876.49	211.65
876.80	211.68
877.11	211.72
877.42	211.76
877.73	211.84
878.04	211.80
878.35	211.89
878.66	211.92
878.96	211.90
879.27	211.84
879.58	211.83
879.89	211.74
880.20	211.87
880.51	211.90
880.82	211.90
881.12	211.91
881.43	211.82
881.74	211.79
882.05	211.71
882.36	211.72
882.67	211.70
882.97	211.25
883.28	211.22
883.59	211.13
883.90	211.24
884.21	211.20
884.51	211.14
884.82	211.03
885.13	211.02
885.44	210.95
885.74	210.96
886.05	210.96
886.36	210.95
886.67	210.81
886.98	210.99
887.28	211.03
887.59	211.09
887.90	211.08
888.20	211.10
888.51	211.13
888.82	211.13
889.13	211.17
889.43	211.48
889.74	211.42
890.05	211.43
890.35	211.34
890.66	211.37
890.97	211.31
891.28	211.33
891.58	211.36
891.89	211.39
892.20	211.38
892.50	211.33
892.81	211.30
893.12	211.28
893.42	211.10
893.73	211.03
894.04	210.95
894.34	210.98
894.65	210.95
894.95	210.93
895.26	210.89
895.57	211.03
895.87	210.67
896.18	210.82
896.48	210.87
896.79	210.83
897.10	210.84
897.40	210.92
897.71	210.90
898.01	210.78
898.32	210.84
898.63	210.79
898.93	210.74
899.24	210.79
899.54	210.77
899.85	210.75
900.15	210.87
900.46	210.84
900.76	210.88
901.07	210.81
901.38	210.81
901.68	210.92
901.99	210.73
902.29	210.79
902.60	210.71
902.90	210.63
903.21	210.64
903.51	210.54
903.82	210.49
904.12	210.47
904.43	210.55
904.73	210.52
905.03	210.58
905.34	210.97
905.64	210.92
905.95	210.97
906.25	210.95
906.56	210.88
906.86	210.79
907.17	210.76
907.47	210.83
907.77	210.77
908.08	210.70
908.38	210.73
908.69	210.71
908.99	210.78
909.30	210.85
909.60	210.89
909.90	211.00
910.21	210.97
910.51	210.99
910.81	210.93
911.12	210.97
911.42	210.89
911.73	210.54
912.03	210.61
912.33	210.61
912.64	210.63
912.94	210.55
913.24	210.59
913.55	210.58
913.85	210.55
914.15	210.66
914.46	210.64
914.76	210.55
915.06	210.54
915.37	210.50
915.67	210.44
915.97	210.40
916.27	210.38
916.58	210.41
916.88	210.37
917.18	210.44
917.49	210.66
917.79	210.77
918.09	210.83
918.39	210.85
918.70	210.80
919.00	210.83
919.30	211.04
919.60	211.06
919.91	211.02
920.21	211.01
920.51	210.98
920.81	210.96
921.12	211.02
921.42	211.00
921.72	211.06
922.02	211.08
922.32	211.16
922.63	211.14
922.93	211.30
923.23	211.33
923.53	211.29
923.83	211.05
924.13	211.05
924.44	211.10
924.74	211.19
925.04	211.33
925.34	211.27
925.64	211.17
925.94	211.16
926.24	211.26
926.55	211.27
926.85	211.24
927.15	211.31
927.45	211.33
927.75	211.37
928.05	211.31
928.35	211.32
928.65	211.39
928.95	211.40
929.26	211.27
929.56	211.34
929.86	211.33
930.16	211.33
930.46	211.33
930.76	211.25
931.06	211.08
931.36	210.97
931.66	211.13
931.96	211.16
932.26	211.18
932.56	211.03
932.86	211.08
933.16	211.11
933.46	211.03
933.76	211.01
934.06	211.11
934.36	211.15
934.66	211.11
934.96	210.91
935.26	210.97
935.56	210.99
935.86	210.87
936.16	210.91
936.46	210.87
936.76	210.79
937.06	210.77
937.36	210.83
937.66	210.83
937.96	210.74
938.26	210.62
938.56	210.57
938.86	210.69
939.16	210.73
939.46	210.77
939.76	210.79
940.06	210.78
940.35	210.69
940.65	210.65
940.95	210.75
941.25	210.80
941.55	210.78
941.85	210.75
942.15	210.84
942.45	210.87
942.75	210.90
943.04	210.94
943.34	211.06
943.64	211.03
943.94	210.99
944.24	210.95
944.54	210.95
944.84	210.95
945.13	210.90
945.43	210.82
945.73	210.81
946.03	210.75
946.33	210.71
946.62	210.66
946.92	210.60
947.22	210.57
947.52	210.62
947.82	210.54
948.11	210.49
948.41	210.41
948.71	210.33
949.01	210.32
949.31	210.30
949.60	210.18
949.90	210.16
950.20	210.10
950.50	210.08
950.79	210.11
951.09	210.14
951.39	210.14
951.69	210.06
951.98	210.14
952.28	210.18
952.58	210.20
952.87	210.23
953.17	210.30
953.47	210.25
953.76	210.22
954.06	210.26
954.36	210.27
954.66	210.34
954.95	210.40
955.25	210.41
955.55	210.45
955.84	210.38
956.14	210.45
956.44	210.51
956.73	210.59
957.03	210.60
957.32	210.68
957.62	210.65
957.92	210.75
958.21	210.65
958.51	211.07
958.81	211.03
959.10	210.96
959.40	211.04
959.69	211.06
959.99	211.11
960.29	211.10
960.58	211.05
960.88	211.10
961.17	211.06
961.47	211.08
961.76	211.07
962.06	211.22
962.36	211.22
962.65	211.26
962.95	211.21
963.24	211.17
963.54	211.13
963.83	211.16
964.13	211.20
964.42	211.09
964.72	210.78
965.01	210.83
965.31	210.89
965.60	210.77
965.90	211.00
966.19	210.90
966.49	210.89
966.78	210.92
967.08	210.94
967.37	210.89
967.67	210.81
967.96	210.78
968.26	210.70
968.55	210.74
968.85	210.71
969.14	210.74
969.43	210.75
969.73	210.76
970.02	210.73
970.32	210.67
970.61	210.68
970.91	210.68
971.20	210.65
971.49	210.67
971.79	210.72
972.08	210.52
972.38	210.52
972.67	210.47
972.96	210.52
973.26	210.43
973.55	210.64
973.85	210.65
974.14	210.69
974.43	210.74
974.73	210.67
975.02	210.62
975.31	210.64
975.61	210.62
975.90	210.57
976.19	210.61
976.49	210.67
976.78	210.78
977.07	210.75
977.37	210.79
977.66	210.72
977.95	210.64
978.24	210.66
978.54	210.80
978.83	210.84
979.12	210.80
979.42	210.79
979.71	210.67
980.00	210.65
980.29	210.68
980.59	210.64
980.88	210.70
981.17	210.70
981.46	210.66
981.76	210.74
982.05	210.88
982.34	210.96
982.63	210.94
982.93	210.97
983.22	211.03
983.51	211.05
983.80	211.12
984.09	211.23
984.39	211.16
984.68	211.17
984.97	211.14
985.26	211.13
985.55	211.22
985.85	211.16
986.14	211.24
986.43	211.28
986.72	211.22
987.01	211.13
987.30	211.21
987.59	211.20
987.89	211.11
988.18	210.97
988.47	210.85
988.76	210.89
989.05	210.81
989.34	210.81
989.63	210.85
989.92	210.84
990.22	210.72
990.51	210.67
990.80	210.62
991.09	210.71
991.38	210.72
991.67	210.72
991.96	210.70
992.25	210.75
992.54	210.74
992.83	210.82
993.12	210.84
993.41	210.87
993.70	211.01
993.99	211.11
994.28	211.19
994.58	211.23
994.87	211.13
995.16	211.10
995.45	211.06
995.74	210.93
996.03	211.00
996.32	211.09
996.61	211.22
996.90	211.20
997.19	211.12
997.48	211.14
997.77	211.05
998.06	211.14
998.34	211.08
998.63	211.06
998.92	211.02
999.21	211.10
999.50	211.14
999.79	211.02
1000.08	211.04
1000.37	211.11
1000.66	211.05
1000.95	211.20
1001.24	211.28
1001.53	211.27
1001.82	211.33
1002.11	211.21
1002.40	211.27
1002.68	211.35
1002.97	211.56
1003.26	211.52
1003.55	211.52
1003.84	211.50
1004.13	211.59
1004.42	211.51
1004.71	211.52
1004.99	211.51
1005.28	211.55
1005.57	211.51
1005.86	211.49
1006.15	211.43
1006.44	211.31
1006.72	211.37
1007.01	211.24
1007.30	211.25
1007.59	211.21
1007.88	211.21
1008.17	211.29
1008.45	211.17
1008.74	211.07
1009.03	210.96
1009.32	210.94
1009.60	210.92
1009.89	210.93
1010.18	210.75
1010.47	210.81
1010.76	210.75
1011.04	210.72
1011.33	210.71
1011.62	210.67
1011.91	210.71
1012.19	210.74
1012.48	210.76
1012.77	210.78
1013.05	210.94
1013.34	210.91
1013.63	210.91
1013.92	210.93
1014.20	210.85
1014.49	210.95
1014.78	210.94
1015.06	210.82
1015.35	210.94
1015.64	210.89
1015.92	210.92
1016.21	211.01
1016.50	211.03
1016.78	211.12
1017.07	211.18
1017.36	211.06
1017.64	211.02
1017.93	210.99
1018.22	210.96
1018.50	210.97
1018.79	210.96
1019.08	210.86
1019.36	210.89
1019.65	210.82
1019.93	210.91
1020.22	211.01
1020.51	211.11
1020.79	211.05
1021.08	210.45
1021.36	211.15
1021.65	211.20
1021.94	211.55
1022.22	211.50
1022.51	209.25
1022.79	213.25
1023.08	211.80
1023.36	214.30
1023.65	209.40
>>>>>End Processed Spectral Data<<<<<
