SpectraSuite Data File
++++++++++++++++++++++++++++++++++++
Date: Mon Feb 25 17:11:32 EST 2013
User: group
Dark Spectrum Present: No
Reference Spectrum Present: No
Number of Sampled Component Spectra: 1
Spectrometers: USB2E7196
Integration Time (usec): 104000 (USB2E7196)
Spectra Averaged: 20 (USB2E7196)
Boxcar Smoothing: 10 (USB2E7196)
Correct for Electrical Dark: No (USB2E7196)
Strobe/Lamp Enabled: No (USB2E7196)
Correct for Detector Non-linearity: No (USB2E7196)
Correct for Stray Light: No (USB2E7196)
Number of Pixels in Processed Spectrum: 2048
>>>>>Begin Processed Spectral Data<<<<<
339.09	0.00
339.48	197.85
339.86	200.15
340.24	200.35
340.63	201.90
341.01	208.95
341.39	204.10
341.78	207.20
342.16	209.45
342.54	209.10
342.93	197.89
343.31	207.89
343.69	208.50
344.07	209.00
344.46	209.51
344.84	209.89
345.22	209.95
345.60	210.19
345.99	210.31
346.37	210.44
346.75	210.49
347.13	210.47
347.52	210.54
347.90	210.69
348.28	210.78
348.66	210.90
349.05	210.85
349.43	210.92
349.81	210.92
350.19	210.95
350.57	210.97
350.96	211.03
351.34	211.11
351.72	211.11
352.10	211.13
352.48	211.14
352.87	211.29
353.25	211.37
353.63	211.47
354.01	211.55
354.39	211.60
354.77	211.72
355.15	211.84
355.54	211.88
355.92	211.89
356.30	211.90
356.68	212.12
357.06	212.20
357.44	212.21
357.82	212.37
358.20	212.49
358.58	212.65
358.97	212.82
359.35	212.95
359.73	213.17
360.11	213.16
360.49	213.27
360.87	213.35
361.25	213.48
361.63	213.66
362.01	213.79
362.39	213.80
362.77	213.82
363.15	213.89
363.53	213.95
363.91	214.03
364.29	214.03
364.67	213.83
365.05	213.89
365.43	213.88
365.81	213.89
366.19	214.07
366.57	214.19
366.95	214.12
367.33	214.09
367.71	214.07
368.09	214.20
368.47	214.24
368.85	214.09
369.23	214.13
369.61	214.01
369.99	214.08
370.37	214.09
370.75	214.32
371.13	214.22
371.51	214.11
371.89	214.10
372.27	214.14
372.65	214.06
373.03	213.97
373.41	213.98
373.78	213.90
374.16	213.63
374.54	213.47
374.92	213.39
375.30	213.35
375.68	213.19
376.06	213.23
376.44	213.13
376.82	213.14
377.19	213.03
377.57	212.96
377.95	212.75
378.33	212.66
378.71	212.31
379.09	212.37
379.47	212.40
379.84	212.27
380.22	212.14
380.60	212.08
380.98	212.00
381.36	211.95
381.73	211.89
382.11	211.86
382.49	211.84
382.87	211.77
383.25	211.70
383.62	212.06
384.00	211.86
384.38	211.82
384.76	211.81
385.13	211.93
385.51	211.87
385.89	211.88
386.27	211.90
386.64	211.97
387.02	211.86
387.40	211.70
387.78	211.70
388.15	211.70
388.53	211.63
388.91	211.64
389.29	211.52
389.66	211.51
390.04	211.49
390.42	211.46
390.79	211.43
391.17	211.39
391.55	210.99
391.92	210.98
392.30	210.98
392.68	210.88
393.05	210.77
393.43	210.76
393.81	210.75
394.18	210.61
394.56	210.52
394.94	210.61
395.31	210.59
395.69	210.74
396.06	210.75
396.44	210.79
396.82	210.71
397.19	210.90
397.57	210.85
397.95	210.91
398.32	210.79
398.70	210.87
399.07	210.86
399.45	210.79
399.82	210.87
400.20	210.85
400.58	210.93
400.95	210.84
401.33	210.95
401.70	211.17
402.08	211.23
402.45	211.31
402.83	211.36
403.20	211.40
403.58	211.32
403.95	211.41
404.33	211.49
404.71	211.63
405.08	211.90
405.46	212.01
405.83	212.08
406.21	212.25
406.58	212.32
406.96	212.48
407.33	212.68
407.70	212.76
408.08	213.19
408.45	213.33
408.83	213.51
409.20	213.60
409.58	213.59
409.95	213.84
410.33	214.03
410.70	214.13
411.08	214.49
411.45	214.79
411.82	215.05
412.20	215.44
412.57	215.89
412.95	215.89
413.32	216.26
413.69	216.56
414.07	216.95
414.44	217.38
414.82	217.76
415.19	218.28
415.56	218.78
415.94	219.18
416.31	219.79
416.68	220.38
417.06	221.10
417.43	221.86
417.81	222.67
418.18	223.49
418.55	224.36
418.93	225.18
419.30	226.02
419.67	226.98
420.04	227.90
420.42	228.91
420.79	230.48
421.16	231.68
421.54	233.12
421.91	234.36
422.28	235.70
422.66	237.16
423.03	238.75
423.40	240.26
423.77	241.67
424.15	243.26
424.52	244.98
424.89	246.78
425.26	248.40
425.64	249.99
426.01	251.78
426.38	253.75
426.75	255.76
427.13	257.82
427.50	259.93
427.87	262.09
428.24	264.17
428.61	266.01
428.99	268.46
429.36	270.78
429.73	273.36
430.10	275.91
430.47	278.44
430.85	280.79
431.22	283.45
431.59	286.60
431.96	289.37
432.33	292.46
432.70	295.42
433.08	299.05
433.45	302.40
433.82	305.70
434.19	309.31
434.56	312.85
434.93	316.20
435.30	319.47
435.68	323.21
436.05	326.89
436.42	330.50
436.79	333.80
437.16	337.38
437.53	341.14
437.90	344.82
438.27	348.63
438.64	352.56
439.01	356.28
439.38	359.24
439.75	362.42
440.13	365.94
440.50	369.27
440.87	371.92
441.24	374.69
441.61	377.86
441.98	380.00
442.35	382.61
442.72	385.44
443.09	388.30
443.46	389.93
443.83	391.13
444.20	392.01
444.57	393.39
444.94	394.13
445.31	394.77
445.68	395.80
446.05	396.02
446.42	395.71
446.79	395.29
447.16	394.87
447.53	394.66
447.90	393.25
448.27	391.92
448.64	389.98
449.01	388.58
449.37	386.05
449.74	383.75
450.11	381.08
450.48	377.73
450.85	374.38
451.22	371.64
451.59	368.98
451.96	366.55
452.33	363.06
452.70	359.98
453.07	356.31
453.43	352.18
453.80	348.65
454.17	345.20
454.54	341.90
454.91	338.40
455.28	334.76
455.65	331.56
456.02	328.89
456.38	326.06
456.75	322.73
457.12	319.92
457.49	317.17
457.86	314.31
458.23	312.24
458.59	309.65
458.96	307.09
459.33	304.68
459.70	302.47
460.07	300.74
460.43	298.66
460.80	296.91
461.17	295.36
461.54	293.55
461.91	291.80
462.27	290.07
462.64	288.63
463.01	287.14
463.38	285.66
463.74	283.49
464.11	282.20
464.48	281.00
464.85	279.60
465.21	278.69
465.58	277.69
465.95	276.38
466.32	275.42
466.68	274.34
467.05	273.45
467.42	272.33
467.78	271.18
468.15	270.22
468.52	269.35
468.88	268.31
469.25	267.44
469.62	266.82
469.98	266.05
470.35	265.34
470.72	264.58
471.08	263.77
471.45	263.31
471.82	262.80
472.18	262.16
472.55	261.80
472.92	261.10
473.28	260.59
473.65	259.99
474.02	259.52
474.38	259.16
474.75	258.76
475.11	258.41
475.48	258.22
475.85	257.91
476.21	257.62
476.58	257.40
476.94	257.19
477.31	256.99
477.67	256.92
478.04	256.89
478.41	256.91
478.77	257.20
479.14	257.08
479.50	257.06
479.87	257.10
480.23	257.07
480.60	257.12
480.96	257.10
481.33	257.44
481.69	257.62
482.06	257.94
482.42	258.25
482.79	258.59
483.15	258.89
483.52	259.27
483.88	259.67
484.25	260.05
484.61	260.52
484.98	260.94
485.34	261.49
485.71	262.01
486.07	262.51
486.44	262.87
486.80	263.51
487.17	264.18
487.53	265.04
487.90	265.88
488.26	266.81
488.62	267.85
488.99	268.67
489.35	269.69
489.72	270.59
490.08	271.61
490.44	272.72
490.81	273.93
491.17	275.19
491.54	276.51
491.90	278.00
492.26	279.50
492.63	281.14
492.99	282.68
493.36	284.42
493.72	286.31
494.08	288.14
494.45	290.14
494.81	292.31
495.17	294.32
495.54	296.53
495.90	298.81
496.26	301.09
496.63	303.69
496.99	306.18
497.35	308.93
497.72	311.76
498.08	314.61
498.44	317.65
498.80	320.86
499.17	324.13
499.53	327.32
499.89	330.65
500.26	334.13
500.62	337.79
500.98	341.58
501.34	345.35
501.71	349.42
502.07	353.48
502.43	357.50
502.79	361.80
503.16	366.30
503.52	370.87
503.88	375.65
504.24	380.51
504.60	385.51
504.97	390.66
505.33	395.77
505.69	401.22
506.05	406.68
506.41	412.29
506.78	417.86
507.14	423.75
507.50	429.80
507.86	435.93
508.22	442.13
508.59	448.27
508.95	454.74
509.31	461.33
509.67	468.11
510.03	474.96
510.39	482.01
510.75	489.13
511.12	496.34
511.48	503.59
511.84	510.92
512.20	518.34
512.56	525.95
512.92	533.71
513.28	541.61
513.64	549.49
514.00	557.37
514.37	565.45
514.73	573.67
515.09	581.95
515.45	590.10
515.81	598.37
516.17	606.82
516.53	615.33
516.89	623.80
517.25	632.34
517.61	641.20
517.97	649.71
518.33	658.28
518.69	667.04
519.05	675.91
519.41	684.85
519.77	694.30
520.13	703.13
520.49	711.94
520.85	720.85
521.21	730.07
521.57	739.29
521.93	748.10
522.29	757.38
522.65	766.68
523.01	775.94
523.37	784.95
523.73	794.36
524.09	803.60
524.45	812.99
524.81	822.38
525.17	831.65
525.53	841.05
525.89	850.55
526.25	859.93
526.61	868.89
526.97	877.72
527.33	886.42
527.68	895.92
528.04	905.01
528.40	913.87
528.76	922.61
529.12	931.70
529.48	941.38
529.84	950.20
530.20	959.05
530.56	968.11
530.91	977.47
531.27	986.29
531.63	995.11
531.99	1003.71
532.35	1012.08
532.71	1020.41
533.07	1029.33
533.42	1037.93
533.78	1046.39
534.14	1054.75
534.50	1062.84
534.86	1071.15
535.21	1078.65
535.57	1086.77
535.93	1094.40
536.29	1102.19
536.65	1109.70
537.00	1116.67
537.36	1123.90
537.72	1130.83
538.08	1137.97
538.44	1144.73
538.79	1151.71
539.15	1158.52
539.51	1165.42
539.87	1172.39
540.22	1179.07
540.58	1185.55
540.94	1191.99
541.29	1197.95
541.65	1203.85
542.01	1209.94
542.37	1215.69
542.72	1221.50
543.08	1226.69
543.44	1232.82
543.79	1237.88
544.15	1242.68
544.51	1248.19
544.87	1253.31
545.22	1258.12
545.58	1262.33
545.94	1266.71
546.29	1270.42
546.65	1274.27
547.01	1277.98
547.36	1281.47
547.72	1284.90
548.07	1287.81
548.43	1290.53
548.79	1293.24
549.14	1296.04
549.50	1298.50
549.86	1301.05
550.21	1303.40
550.57	1306.27
550.92	1307.89
551.28	1309.86
551.64	1312.24
551.99	1314.17
552.35	1315.71
552.70	1317.21
553.06	1318.89
553.41	1320.34
553.77	1322.21
554.13	1323.51
554.48	1324.93
554.84	1326.35
555.19	1327.22
555.55	1328.15
555.90	1328.53
556.26	1329.21
556.61	1329.99
556.97	1330.27
557.32	1330.40
557.68	1330.27
558.03	1330.15
558.39	1330.26
558.74	1330.83
559.10	1330.86
559.45	1330.70
559.81	1330.89
560.16	1330.78
560.52	1330.60
560.87	1330.27
561.23	1329.44
561.58	1329.35
561.94	1328.27
562.29	1326.94
562.64	1326.38
563.00	1325.74
563.35	1325.51
563.71	1325.38
564.06	1324.75
564.42	1324.71
564.77	1324.39
565.12	1324.19
565.48	1323.84
565.83	1323.27
566.19	1322.68
566.54	1321.26
566.89	1319.84
567.25	1318.50
567.60	1317.59
567.96	1316.60
568.31	1315.36
568.66	1313.93
569.02	1312.07
569.37	1310.37
569.72	1309.16
570.08	1307.32
570.43	1305.49
570.78	1303.22
571.14	1300.64
571.49	1298.22
571.84	1296.22
572.20	1293.56
572.55	1291.39
572.90	1288.39
573.26	1285.37
573.61	1282.24
573.96	1279.87
574.31	1276.81
574.67	1273.75
575.02	1270.31
575.37	1266.77
575.72	1263.40
576.08	1260.61
576.43	1257.17
576.78	1254.25
577.13	1251.35
577.49	1248.31
577.84	1245.05
578.19	1242.53
578.54	1239.77
578.90	1237.23
579.25	1233.72
579.60	1230.38
579.95	1226.43
580.30	1223.60
580.66	1220.92
581.01	1217.51
581.36	1213.99
581.71	1210.77
582.06	1207.84
582.42	1205.03
582.77	1201.58
583.12	1198.61
583.47	1195.25
583.82	1192.32
584.17	1189.18
584.53	1185.90
584.88	1182.73
585.23	1179.44
585.58	1176.04
585.93	1172.84
586.28	1169.44
586.63	1166.22
586.98	1163.05
587.34	1160.50
587.69	1156.97
588.04	1153.58
588.39	1150.65
588.74	1147.28
589.09	1144.42
589.44	1140.81
589.79	1137.48
590.14	1134.75
590.49	1131.27
590.84	1128.02
591.19	1125.35
591.54	1122.18
591.89	1118.25
592.25	1115.02
592.60	1111.54
592.95	1107.59
593.30	1103.60
593.65	1099.74
594.00	1096.17
594.35	1093.84
594.70	1090.12
595.05	1086.85
595.40	1083.56
595.75	1079.58
596.10	1076.49
596.45	1073.11
596.80	1070.14
597.15	1067.06
597.50	1063.56
597.85	1060.55
598.19	1057.42
598.54	1053.96
598.89	1050.73
599.24	1048.18
599.59	1044.95
599.94	1042.27
600.29	1039.56
600.64	1036.70
600.99	1033.59
601.34	1030.68
601.69	1026.55
602.04	1023.31
602.39	1020.01
602.74	1016.71
603.08	1014.31
603.43	1011.55
603.78	1008.41
604.13	1005.26
604.48	1002.03
604.83	999.54
605.18	996.74
605.53	993.48
605.87	990.17
606.22	987.21
606.57	984.06
606.92	980.84
607.27	977.44
607.62	974.00
607.96	971.15
608.31	968.47
608.66	965.18
609.01	961.97
609.36	958.63
609.70	955.27
610.05	951.89
610.40	948.35
610.75	944.34
611.10	941.06
611.44	937.01
611.79	933.06
612.14	928.92
612.49	924.63
612.83	921.02
613.18	917.00
613.53	912.92
613.88	908.78
614.22	905.03
614.57	900.94
614.92	897.23
615.27	893.06
615.61	888.80
615.96	885.13
616.31	881.39
616.65	878.05
617.00	874.32
617.35	870.66
617.70	866.53
618.04	862.66
618.39	858.42
618.74	855.05
619.08	851.29
619.43	847.35
619.78	843.62
620.12	839.76
620.47	836.14
620.82	832.09
621.16	828.01
621.51	824.20
621.85	820.51
622.20	816.60
622.55	812.55
622.89	808.81
623.24	804.73
623.59	800.75
623.93	796.62
624.28	793.01
624.62	789.38
624.97	785.86
625.32	782.30
625.66	778.82
626.01	774.92
626.35	771.40
626.70	767.82
627.04	764.43
627.39	760.88
627.73	757.43
628.08	754.13
628.43	750.55
628.77	746.78
629.12	743.12
629.46	739.73
629.81	736.35
630.15	732.94
630.50	729.29
630.84	725.73
631.19	722.28
631.53	718.67
631.88	714.75
632.22	711.01
632.57	707.64
632.91	704.20
633.26	700.93
633.60	697.52
633.95	694.29
634.29	690.83
634.64	687.57
634.98	683.95
635.32	680.82
635.67	677.87
636.01	674.80
636.36	671.66
636.70	668.57
637.05	665.55
637.39	662.33
637.73	659.54
638.08	656.77
638.42	653.84
638.77	650.75
639.11	647.84
639.45	644.90
639.80	641.51
640.14	638.14
640.49	634.94
640.83	631.70
641.17	628.61
641.52	625.53
641.86	622.32
642.20	619.42
642.55	615.93
642.89	612.60
643.23	609.39
643.58	606.53
643.92	603.21
644.26	600.06
644.61	596.96
644.95	593.80
645.29	590.49
645.64	587.34
645.98	584.22
646.32	581.17
646.66	577.91
647.01	575.04
647.35	572.23
647.69	569.02
648.04	566.14
648.38	563.10
648.72	559.98
649.06	556.95
649.41	553.82
649.75	551.03
650.09	548.21
650.43	545.21
650.78	542.00
651.12	539.06
651.46	536.21
651.80	533.45
652.14	530.49
652.49	527.70
652.83	524.77
653.17	521.89
653.51	519.01
653.85	516.47
654.20	513.63
654.54	510.65
654.88	507.95
655.22	505.16
655.56	502.21
655.90	499.41
656.25	496.57
656.59	493.80
656.93	491.08
657.27	488.51
657.61	485.63
657.95	482.95
658.29	480.30
658.64	477.82
658.98	474.91
659.32	472.16
659.66	469.51
660.00	466.90
660.34	464.22
660.68	461.49
661.02	458.83
661.36	456.40
661.70	454.02
662.05	451.69
662.39	449.42
662.73	447.26
663.07	445.16
663.41	442.86
663.75	440.49
664.09	438.04
664.43	435.50
664.77	433.37
665.11	431.12
665.45	428.90
665.79	426.59
666.13	424.44
666.47	422.33
666.81	420.32
667.15	418.14
667.49	416.35
667.83	414.52
668.17	412.68
668.51	410.71
668.85	408.80
669.19	406.93
669.53	404.83
669.87	402.77
670.21	400.64
670.55	398.84
670.89	397.26
671.23	395.72
671.57	394.03
671.91	392.28
672.25	390.52
672.58	388.95
672.92	387.21
673.26	385.64
673.60	384.07
673.94	382.29
674.28	380.76
674.62	379.11
674.96	377.47
675.30	375.70
675.64	374.10
675.97	372.53
676.31	370.87
676.65	369.43
676.99	368.12
677.33	366.66
677.67	365.25
678.01	363.61
678.34	361.98
678.68	360.55
679.02	358.93
679.36	357.50
679.70	355.92
680.04	354.40
680.37	352.89
680.71	351.39
681.05	350.07
681.39	348.61
681.73	347.23
682.06	345.88
682.40	344.52
682.74	343.20
683.08	341.95
683.42	340.53
683.75	339.26
684.09	337.81
684.43	336.51
684.77	335.09
685.10	333.72
685.44	332.35
685.78	331.06
686.12	330.04
686.45	328.82
686.79	327.59
687.13	326.49
687.46	325.38
687.80	324.37
688.14	323.06
688.48	321.87
688.81	320.54
689.15	319.39
689.49	318.21
689.82	316.99
690.16	315.61
690.50	314.51
690.83	313.25
691.17	312.00
691.51	310.83
691.84	309.78
692.18	308.74
692.52	307.80
692.85	306.84
693.19	305.90
693.52	304.78
693.86	303.69
694.20	302.57
694.53	301.51
694.87	300.30
695.21	299.26
695.54	298.19
695.88	297.08
696.21	295.95
696.55	295.06
696.88	294.16
697.22	293.20
697.56	292.34
697.89	291.30
698.23	290.38
698.56	289.52
698.90	288.67
699.23	287.79
699.57	286.80
699.90	285.78
700.24	284.69
700.58	283.90
700.91	283.12
701.25	282.50
701.58	281.70
701.92	281.02
702.25	280.20
702.59	279.41
702.92	278.76
703.26	278.06
703.59	277.23
703.93	276.65
704.26	275.99
704.60	275.20
704.93	274.49
705.26	273.78
705.60	273.10
705.93	272.32
706.27	271.65
706.60	271.13
706.94	270.61
707.27	269.91
707.61	269.11
707.94	268.39
708.27	267.54
708.61	266.82
708.94	266.18
709.28	265.55
709.61	264.99
709.94	264.47
710.28	263.85
710.61	263.27
710.95	262.40
711.28	262.00
711.61	261.43
711.95	261.07
712.28	260.52
712.61	259.95
712.95	259.60
713.28	259.11
713.61	258.42
713.95	257.80
714.28	257.44
714.61	257.11
714.95	256.60
715.28	256.08
715.61	255.52
715.95	255.01
716.28	254.54
716.61	254.10
716.95	253.54
717.28	253.08
717.61	252.64
717.94	252.24
718.28	251.67
718.61	251.18
718.94	250.52
719.27	250.10
719.61	249.66
719.94	249.11
720.27	248.58
720.60	248.23
720.94	247.89
721.27	247.43
721.60	247.00
721.93	246.65
722.27	246.42
722.60	246.21
722.93	245.79
723.26	245.49
723.59	245.09
723.93	244.78
724.26	244.44
724.59	244.15
724.92	243.90
725.25	243.52
725.59	243.26
725.92	243.15
726.25	242.82
726.58	242.54
726.91	242.25
727.24	242.01
727.57	241.67
727.91	241.21
728.24	240.96
728.57	240.66
728.90	240.39
729.23	239.98
729.56	239.80
729.89	239.55
730.22	239.19
730.55	238.93
730.89	238.65
731.22	238.42
731.55	238.04
731.88	237.73
732.21	237.44
732.54	237.07
732.87	236.71
733.20	236.45
733.53	236.20
733.86	235.89
734.19	235.56
734.52	235.32
734.85	235.40
735.18	235.07
735.51	234.91
735.84	234.73
736.17	234.64
736.50	234.24
736.83	234.37
737.16	234.15
737.49	233.84
737.82	233.58
738.15	233.36
738.48	233.11
738.81	232.82
739.14	232.60
739.47	232.40
739.80	232.20
740.13	231.95
740.46	231.66
740.79	231.45
741.12	231.22
741.45	230.96
741.78	230.50
742.11	230.45
742.44	230.19
742.77	229.98
743.10	229.66
743.43	229.38
743.75	228.81
744.08	228.99
744.41	228.83
744.74	228.58
745.07	228.36
745.40	228.25
745.73	228.25
746.06	228.05
746.39	227.92
746.71	227.73
747.04	227.61
747.37	227.45
747.70	227.33
748.03	227.23
748.36	227.13
748.68	226.95
749.01	226.66
749.34	226.50
749.67	226.29
750.00	226.20
750.33	226.31
750.65	226.22
750.98	225.68
751.31	225.50
751.64	225.37
751.97	225.38
752.29	225.22
752.62	224.88
752.95	224.71
753.28	224.53
753.60	224.36
753.93	224.24
754.26	224.14
754.59	223.90
754.91	223.75
755.24	223.58
755.57	223.46
755.90	223.34
756.22	223.15
756.55	222.95
756.88	222.77
757.20	222.43
757.53	222.22
757.86	222.14
758.19	222.14
758.51	222.09
758.84	221.79
759.17	221.64
759.49	221.60
759.82	221.63
760.15	221.51
760.47	221.42
760.80	221.28
761.13	221.25
761.45	221.12
761.78	221.07
762.11	220.99
762.43	220.85
762.76	220.78
763.08	220.74
763.41	220.74
763.74	220.62
764.06	220.51
764.39	220.44
764.71	220.27
765.04	220.15
765.37	219.99
765.69	219.87
766.02	219.81
766.34	219.64
766.67	219.45
767.00	219.46
767.32	219.46
767.65	219.63
767.97	219.46
768.30	219.47
768.62	219.35
768.95	219.25
769.27	219.15
769.60	219.06
769.92	218.94
770.25	218.74
770.57	218.59
770.90	218.53
771.22	218.36
771.55	218.31
771.87	218.17
772.20	218.12
772.52	218.40
772.85	218.71
773.17	218.67
773.50	218.61
773.82	218.56
774.15	218.41
774.47	218.00
774.80	217.83
775.12	217.70
775.45	217.64
775.77	217.61
776.09	217.61
776.42	217.51
776.74	217.56
777.07	217.51
777.39	217.49
777.72	217.39
778.04	217.45
778.36	217.42
778.69	217.37
779.01	217.34
779.33	216.97
779.66	216.51
779.98	216.44
780.31	216.36
780.63	216.35
780.95	216.29
781.28	216.31
781.60	216.33
781.92	216.29
782.25	216.20
782.57	216.08
782.89	215.99
783.22	215.97
783.54	215.81
783.86	215.83
784.19	215.74
784.51	215.76
784.83	215.62
785.16	215.55
785.48	215.51
785.80	215.46
786.12	215.43
786.45	215.40
786.77	215.38
787.09	215.27
787.42	215.05
787.74	215.07
788.06	215.09
788.38	215.06
788.71	214.98
789.03	214.95
789.35	215.08
789.67	215.04
789.99	214.95
790.32	214.87
790.64	214.85
790.96	215.05
791.28	214.91
791.61	214.87
791.93	214.87
792.25	214.86
792.57	215.03
792.89	214.94
793.21	214.93
793.54	214.80
793.86	214.78
794.18	214.79
794.50	214.66
794.82	214.52
795.14	214.51
795.47	214.49
795.79	214.45
796.11	214.25
796.43	214.21
796.75	214.24
797.07	214.28
797.39	214.22
797.71	214.03
798.04	214.08
798.36	214.04
798.68	214.03
799.00	214.00
799.32	213.82
799.64	213.75
799.96	213.75
800.28	213.86
800.60	213.86
800.92	213.90
801.24	213.91
801.56	213.99
801.89	213.90
802.21	213.93
802.53	213.81
802.85	213.85
803.17	214.00
803.49	213.88
803.81	213.82
804.13	213.73
804.45	213.61
804.77	213.63
805.09	213.59
805.41	213.49
805.73	213.50
806.05	213.40
806.37	213.47
806.69	213.41
807.01	213.37
807.33	213.32
807.65	213.19
807.97	213.38
808.28	213.30
808.60	213.32
808.92	213.29
809.24	213.60
809.56	213.50
809.88	213.37
810.20	213.42
810.52	213.43
810.84	213.43
811.16	213.42
811.48	213.29
811.80	213.50
812.12	213.45
812.43	213.46
812.75	213.47
813.07	213.43
813.39	213.42
813.71	213.31
814.03	213.31
814.35	213.34
814.67	213.07
814.98	213.06
815.30	213.06
815.62	212.97
815.94	212.69
816.26	212.75
816.58	212.61
816.89	212.64
817.21	212.58
817.53	212.57
817.85	212.65
818.17	212.66
818.48	212.44
818.80	212.52
819.12	212.43
819.44	212.34
819.76	212.22
820.07	212.24
820.39	212.35
820.71	212.31
821.03	212.30
821.34	212.37
821.66	212.32
821.98	212.29
822.30	212.25
822.61	212.45
822.93	212.40
823.25	212.42
823.57	212.26
823.88	212.35
824.20	212.35
824.52	212.34
824.83	212.29
825.15	212.26
825.47	212.25
825.79	212.22
826.10	212.25
826.42	212.32
826.74	212.29
827.05	212.19
827.37	212.24
827.69	212.22
828.00	212.16
828.32	212.15
828.64	212.18
828.95	212.41
829.27	212.28
829.58	212.27
829.90	212.31
830.22	212.45
830.53	212.25
830.85	212.21
831.17	212.18
831.48	212.23
831.80	212.22
832.11	212.23
832.43	212.28
832.75	212.19
833.06	212.38
833.38	212.28
833.69	212.24
834.01	212.30
834.32	212.29
834.64	212.28
834.96	212.30
835.27	212.25
835.59	212.15
835.90	212.03
836.22	212.00
836.53	211.94
836.85	211.92
837.16	212.27
837.48	212.29
837.79	212.27
838.11	212.26
838.42	212.28
838.74	212.25
839.05	212.15
839.37	212.16
839.68	211.86
840.00	211.87
840.31	211.97
840.63	211.95
840.94	211.87
841.26	211.80
841.57	211.78
841.88	211.86
842.20	211.75
842.51	211.75
842.83	211.68
843.14	212.01
843.46	211.96
843.77	211.82
844.08	211.83
844.40	211.80
844.71	211.75
845.03	211.68
845.34	211.68
845.65	211.74
845.97	211.70
846.28	211.80
846.60	211.80
846.91	211.70
847.22	211.60
847.54	211.72
847.85	211.78
848.16	211.80
848.48	211.67
848.79	211.82
849.10	211.97
849.42	212.06
849.73	211.73
850.04	211.68
850.36	211.59
850.67	211.64
850.98	211.62
851.30	211.69
851.61	211.75
851.92	211.76
852.23	211.86
852.55	211.96
852.86	212.00
853.17	211.99
853.49	212.06
853.80	212.11
854.11	212.04
854.42	212.03
854.74	211.99
855.05	212.00
855.36	211.79
855.67	211.71
855.99	211.70
856.30	212.11
856.61	212.16
856.92	212.14
857.23	212.13
857.55	212.10
857.86	212.08
858.17	212.15
858.48	212.06
858.79	211.91
859.11	211.86
859.42	211.83
859.73	211.85
860.04	211.82
860.35	211.72
860.66	211.70
860.98	211.72
861.29	211.76
861.60	211.74
861.91	211.82
862.22	211.78
862.53	211.75
862.84	211.34
863.16	211.48
863.47	211.43
863.78	211.37
864.09	211.41
864.40	211.44
864.71	211.34
865.02	211.40
865.33	211.41
865.64	211.44
865.95	211.45
866.27	211.68
866.58	211.66
866.89	211.74
867.20	211.68
867.51	211.60
867.82	211.45
868.13	211.61
868.44	211.56
868.75	211.62
869.06	211.66
869.37	211.66
869.68	211.43
869.99	211.47
870.30	211.49
870.61	211.49
870.92	211.40
871.23	211.44
871.54	211.44
871.85	211.48
872.16	211.44
872.47	211.39
872.78	211.08
873.09	211.10
873.40	211.05
873.71	211.11
874.02	211.13
874.33	211.19
874.64	211.10
874.95	211.14
875.26	211.07
875.56	211.06
875.87	211.03
876.18	211.06
876.49	211.42
876.80	211.39
877.11	211.34
877.42	211.38
877.73	211.39
878.04	211.35
878.35	211.36
878.66	211.33
878.96	211.31
879.27	211.35
879.58	211.36
879.89	211.33
880.20	211.44
880.51	211.36
880.82	211.32
881.12	211.25
881.43	211.21
881.74	211.16
882.05	211.07
882.36	211.16
882.67	211.24
882.97	210.89
883.28	210.87
883.59	210.81
883.90	210.84
884.21	210.87
884.51	210.83
884.82	210.77
885.13	210.78
885.44	210.79
885.74	210.77
886.05	210.75
886.36	210.78
886.67	210.56
886.98	210.80
887.28	210.88
887.59	210.94
887.90	210.95
888.20	210.94
888.51	211.04
888.82	210.97
889.13	210.96
889.43	211.25
889.74	211.25
890.05	211.30
890.35	211.25
890.66	211.16
890.97	211.25
891.28	211.23
891.58	211.32
891.89	211.31
892.20	211.35
892.50	211.24
892.81	211.26
893.12	211.35
893.42	211.21
893.73	211.31
894.04	211.30
894.34	211.27
894.65	211.24
894.95	211.19
895.26	211.20
895.57	211.28
895.87	210.97
896.18	211.00
896.48	211.03
896.79	211.02
897.10	211.02
897.40	210.97
897.71	211.05
898.01	211.02
898.32	211.13
898.63	211.11
898.93	211.27
899.24	211.30
899.54	211.32
899.85	211.30
900.15	211.23
900.46	211.18
900.76	211.24
901.07	211.35
901.38	211.41
901.68	211.46
901.99	211.31
902.29	211.30
902.60	211.32
902.90	211.30
903.21	211.27
903.51	211.39
903.82	211.47
904.12	211.42
904.43	211.40
904.73	211.30
905.03	211.36
905.34	211.68
905.64	211.64
905.95	211.67
906.25	211.69
906.56	211.70
906.86	211.83
907.17	211.82
907.47	211.81
907.77	211.75
908.08	211.67
908.38	211.81
908.69	211.81
908.99	211.88
909.30	211.81
909.60	211.81
909.90	211.80
910.21	211.74
910.51	211.73
910.81	211.75
911.12	211.83
911.42	211.84
911.73	211.41
912.03	211.45
912.33	211.49
912.64	211.49
912.94	211.40
913.24	211.32
913.55	211.28
913.85	211.19
914.15	211.28
914.46	211.38
914.76	211.25
915.06	211.24
915.37	211.15
915.67	211.19
915.97	211.20
916.27	211.06
916.58	211.06
916.88	210.97
917.18	210.90
917.49	211.09
917.79	210.95
918.09	210.99
918.39	211.07
918.70	211.04
919.00	210.99
919.30	211.19
919.60	211.10
919.91	211.13
920.21	211.13
920.51	211.00
920.81	210.96
921.12	210.99
921.42	211.08
921.72	211.10
922.02	211.13
922.32	211.13
922.63	211.16
922.93	211.33
923.23	211.37
923.53	211.39
923.83	211.14
924.13	211.28
924.44	211.35
924.74	211.39
925.04	211.37
925.34	211.37
925.64	211.21
925.94	211.19
926.24	211.34
926.55	211.38
926.85	211.44
927.15	211.40
927.45	211.43
927.75	211.43
928.05	211.41
928.35	211.43
928.65	211.56
928.95	211.60
929.26	211.41
929.56	211.54
929.86	211.53
930.16	211.47
930.46	211.44
930.76	211.38
931.06	211.17
931.36	211.16
931.66	211.26
931.96	211.23
932.26	211.36
932.56	211.18
932.86	211.18
933.16	211.22
933.46	211.13
933.76	211.01
934.06	211.03
934.36	211.15
934.66	211.06
934.96	211.05
935.26	211.08
935.56	211.15
935.86	210.99
936.16	210.97
936.46	211.00
936.76	210.93
937.06	210.91
937.36	210.99
937.66	210.92
937.96	210.88
938.26	210.88
938.56	210.82
938.86	210.89
939.16	210.98
939.46	211.02
939.76	211.08
940.06	211.12
940.35	211.09
940.65	210.89
940.95	210.95
941.25	210.82
941.55	210.76
941.85	210.77
942.15	210.91
942.45	211.05
942.75	211.03
943.04	211.10
943.34	211.17
943.64	211.07
943.94	211.07
944.24	211.14
944.54	211.15
944.84	211.12
945.13	211.06
945.43	210.98
945.73	210.98
946.03	211.01
946.33	211.00
946.62	210.99
946.92	211.02
947.22	211.07
947.52	211.10
947.82	211.10
948.11	211.04
948.41	210.97
948.71	210.83
949.01	210.89
949.31	210.79
949.60	210.71
949.90	210.79
950.20	210.83
950.50	210.77
950.79	210.78
951.09	210.90
951.39	210.94
951.69	210.94
951.98	210.98
952.28	210.97
952.58	210.95
952.87	210.90
953.17	210.93
953.47	210.86
953.76	210.87
954.06	210.88
954.36	210.82
954.66	210.81
954.95	210.87
955.25	210.91
955.55	210.99
955.84	210.99
956.14	211.08
956.44	211.08
956.73	211.00
957.03	211.05
957.32	210.95
957.62	210.93
957.92	211.03
958.21	211.03
958.51	211.45
958.81	211.52
959.10	211.55
959.40	211.69
959.69	211.73
959.99	211.71
960.29	211.73
960.58	211.75
960.88	211.95
961.17	211.98
961.47	212.01
961.76	212.02
962.06	212.08
962.36	211.97
962.65	212.03
962.95	212.05
963.24	211.96
963.54	212.02
963.83	212.05
964.13	211.98
964.42	211.87
964.72	211.58
965.01	211.52
965.31	211.49
965.60	211.31
965.90	211.54
966.19	211.49
966.49	211.50
966.78	211.48
967.08	211.36
967.37	211.33
967.67	211.25
967.96	211.30
968.26	211.29
968.55	211.39
968.85	211.30
969.14	211.27
969.43	211.32
969.73	211.26
970.02	211.19
970.32	211.16
970.61	211.18
970.91	210.97
971.20	210.98
971.49	210.98
971.79	211.02
972.08	210.71
972.38	210.75
972.67	210.69
972.96	210.77
973.26	210.72
973.55	210.86
973.85	210.89
974.14	210.80
974.43	210.81
974.73	210.69
975.02	210.68
975.31	210.73
975.61	210.69
975.90	210.63
976.19	210.65
976.49	210.65
976.78	210.66
977.07	210.71
977.37	210.68
977.66	210.73
977.95	210.68
978.24	210.76
978.54	210.80
978.83	210.82
979.12	210.75
979.42	210.79
979.71	210.60
980.00	210.48
980.29	210.52
980.59	210.41
980.88	210.57
981.17	210.50
981.46	210.52
981.76	210.47
982.05	210.65
982.34	210.64
982.63	210.64
982.93	210.62
983.22	210.65
983.51	210.72
983.80	210.77
984.09	210.87
984.39	210.80
984.68	210.80
984.97	210.80
985.26	210.83
985.55	210.82
985.85	210.76
986.14	210.90
986.43	210.94
986.72	210.96
987.01	210.82
987.30	210.89
987.59	210.85
987.89	210.96
988.18	210.81
988.47	210.77
988.76	210.75
989.05	210.64
989.34	210.66
989.63	210.73
989.92	210.65
990.22	210.58
990.51	210.59
990.80	210.57
991.09	210.63
991.38	210.69
991.67	210.65
991.96	210.68
992.25	210.60
992.54	210.49
992.83	210.49
993.12	210.56
993.41	210.60
993.70	210.74
993.99	210.75
994.28	210.82
994.58	210.91
994.87	210.89
995.16	210.91
995.45	210.90
995.74	210.79
996.03	210.87
996.32	210.90
996.61	210.98
996.90	210.97
997.19	210.93
997.48	210.90
997.77	210.86
998.06	210.89
998.34	210.94
998.63	210.99
998.92	211.07
999.21	211.05
999.50	211.11
999.79	210.93
1000.08	210.87
1000.37	210.89
1000.66	210.86
1000.95	210.86
1001.24	210.89
1001.53	210.94
1001.82	210.93
1002.11	210.83
1002.40	210.89
1002.68	210.99
1002.97	211.27
1003.26	211.25
1003.55	211.12
1003.84	211.13
1004.13	211.30
1004.42	211.33
1004.71	211.30
1004.99	211.24
1005.28	211.34
1005.57	211.28
1005.86	211.33
1006.15	211.35
1006.44	211.21
1006.72	211.23
1007.01	211.21
1007.30	211.28
1007.59	211.23
1007.88	211.19
1008.17	211.25
1008.45	211.14
1008.74	210.97
1009.03	210.78
1009.32	210.76
1009.60	210.84
1009.89	210.85
1010.18	210.65
1010.47	210.59
1010.76	210.60
1011.04	210.60
1011.33	210.60
1011.62	210.57
1011.91	210.56
1012.19	210.54
1012.48	210.61
1012.77	210.62
1013.05	210.88
1013.34	210.86
1013.63	210.80
1013.92	210.81
1014.20	210.80
1014.49	210.82
1014.78	210.88
1015.06	210.72
1015.35	210.76
1015.64	210.78
1015.92	210.82
1016.21	210.85
1016.50	210.82
1016.78	210.83
1017.07	210.87
1017.36	210.80
1017.64	210.75
1017.93	210.82
1018.22	210.84
1018.50	210.86
1018.79	210.80
1019.08	210.53
1019.36	210.57
1019.65	210.60
1019.93	210.68
1020.22	210.61
1020.51	210.86
1020.79	210.79
1021.08	211.00
1021.36	210.85
1021.65	210.05
1021.94	209.60
1022.22	211.50
1022.51	210.00
1022.79	211.60
1023.08	209.65
1023.36	216.00
1023.65	209.40
>>>>>End Processed Spectral Data<<<<<
