SpectraSuite Data File
++++++++++++++++++++++++++++++++++++
Date: Mon Feb 25 17:16:01 EST 2013
User: group
Dark Spectrum Present: No
Reference Spectrum Present: No
Number of Sampled Component Spectra: 1
Spectrometers: USB2E7196
Integration Time (usec): 104000 (USB2E7196)
Spectra Averaged: 20 (USB2E7196)
Boxcar Smoothing: 10 (USB2E7196)
Correct for Electrical Dark: No (USB2E7196)
Strobe/Lamp Enabled: No (USB2E7196)
Correct for Detector Non-linearity: No (USB2E7196)
Correct for Stray Light: No (USB2E7196)
Number of Pixels in Processed Spectrum: 2048
>>>>>Begin Processed Spectral Data<<<<<
339.09	0.00
339.48	198.70
339.86	200.05
340.24	201.00
340.63	204.00
341.01	210.50
341.39	206.85
341.78	207.45
342.16	208.70
342.54	208.80
342.93	198.24
343.31	208.26
343.69	208.76
344.07	209.21
344.46	209.65
344.84	210.01
345.22	210.04
345.60	210.24
345.99	210.36
346.37	210.47
346.75	210.57
347.13	210.54
347.52	210.58
347.90	210.74
348.28	210.74
348.66	210.89
349.05	210.74
349.43	210.71
349.81	210.76
350.19	210.86
350.57	210.96
350.96	211.04
351.34	211.10
351.72	211.19
352.10	211.29
352.48	211.39
352.87	211.40
353.25	211.44
353.63	211.49
354.01	211.55
354.39	211.59
354.77	211.70
355.15	211.91
355.54	211.97
355.92	211.95
356.30	212.06
356.68	212.27
357.06	212.50
357.44	212.60
357.82	212.63
358.20	212.67
358.58	212.76
358.97	212.90
359.35	213.08
359.73	213.24
360.11	213.32
360.49	213.36
360.87	213.42
361.25	213.57
361.63	213.76
362.01	213.87
362.39	213.94
362.77	214.03
363.15	214.08
363.53	214.08
363.91	214.19
364.29	214.24
364.67	213.97
365.05	213.97
365.43	213.98
365.81	214.08
366.19	214.31
366.57	214.43
366.95	214.40
367.33	214.34
367.71	214.33
368.09	214.37
368.47	214.43
368.85	214.44
369.23	214.43
369.61	214.30
369.99	214.47
370.37	214.53
370.75	214.67
371.13	214.58
371.51	214.55
371.89	214.55
372.27	214.57
372.65	214.62
373.03	214.64
373.41	214.65
373.78	214.61
374.16	214.39
374.54	214.27
374.92	214.30
375.30	214.30
375.68	214.20
376.06	214.25
376.44	214.20
376.82	214.17
377.19	214.14
377.57	214.07
377.95	213.83
378.33	213.75
378.71	213.43
379.09	213.42
379.47	213.42
379.84	213.33
380.22	213.27
380.60	213.12
380.98	213.03
381.36	212.99
381.73	212.89
382.11	212.88
382.49	212.81
382.87	212.65
383.25	212.48
383.62	212.89
384.00	212.68
384.38	212.63
384.76	212.63
385.13	212.67
385.51	212.62
385.89	212.53
386.27	212.51
386.64	212.56
387.02	212.49
387.40	212.46
387.78	212.44
388.15	212.39
388.53	212.36
388.91	212.31
389.29	212.25
389.66	212.23
390.04	212.18
390.42	212.23
390.79	212.27
391.17	212.32
391.55	211.82
391.92	211.83
392.30	211.76
392.68	211.67
393.05	211.70
393.43	211.69
393.81	211.71
394.18	211.65
394.56	211.63
394.94	211.77
395.31	211.70
395.69	211.80
396.06	211.85
396.44	211.89
396.82	211.91
397.19	212.09
397.57	212.06
397.95	212.09
398.32	212.03
398.70	212.06
399.07	212.11
399.45	212.15
399.82	212.20
400.20	212.27
400.58	212.33
400.95	212.18
401.33	212.28
401.70	212.58
402.08	212.56
402.45	212.64
402.83	212.75
403.20	212.84
403.58	212.80
403.95	212.88
404.33	212.98
404.71	213.03
405.08	213.24
405.46	213.35
405.83	213.53
406.21	213.64
406.58	213.78
406.96	213.93
407.33	214.18
407.70	214.35
408.08	214.76
408.45	214.99
408.83	215.24
409.20	215.43
409.58	215.49
409.95	215.91
410.33	216.27
410.70	216.38
411.08	216.78
411.45	217.14
411.82	217.46
412.20	217.91
412.57	218.51
412.95	218.67
413.32	219.22
413.69	219.67
414.07	220.21
414.44	220.78
414.82	221.40
415.19	222.10
415.56	222.81
415.94	223.38
416.31	224.25
416.68	225.14
417.06	226.15
417.43	227.10
417.81	228.05
418.18	229.00
418.55	230.09
418.93	231.18
419.30	232.41
419.67	233.71
420.04	234.96
420.42	236.36
420.79	238.24
421.16	239.83
421.54	241.69
421.91	243.47
422.28	245.24
422.66	247.03
423.03	249.08
423.40	251.03
423.77	253.07
424.15	255.16
424.52	257.41
424.89	259.83
425.26	262.15
425.64	264.40
426.01	266.85
426.38	269.50
426.75	272.20
427.13	274.94
427.50	277.76
427.87	280.75
428.24	283.63
428.61	286.25
428.99	289.37
429.36	292.43
429.73	295.70
430.10	298.96
430.47	302.33
430.85	305.57
431.22	309.15
431.59	313.25
431.96	316.95
432.33	320.90
432.70	324.82
433.08	329.32
433.45	333.61
433.82	337.95
434.19	342.63
434.56	347.35
434.93	351.68
435.30	356.07
435.68	360.93
436.05	365.73
436.42	370.34
436.79	374.73
437.16	379.63
437.53	384.57
437.90	389.54
438.27	394.38
438.64	399.21
439.01	403.89
439.38	407.82
439.75	411.80
440.13	416.38
440.50	420.67
440.87	424.10
441.24	427.72
441.61	431.65
441.98	434.55
442.35	437.81
442.72	441.41
443.09	444.77
443.46	446.80
443.83	448.11
444.20	449.47
444.57	451.23
444.94	451.89
445.31	452.70
445.68	453.78
446.05	454.08
446.42	453.66
446.79	453.16
447.16	452.39
447.53	451.80
447.90	449.83
448.27	447.74
448.64	445.17
449.01	443.25
449.37	439.86
449.74	436.68
450.11	433.02
450.48	428.64
450.85	424.30
451.22	420.51
451.59	417.01
451.96	413.57
452.33	409.00
452.70	404.97
453.07	400.19
453.43	394.92
453.80	390.26
454.17	385.82
454.54	381.35
454.91	376.76
455.28	372.33
455.65	368.27
456.02	364.72
456.38	361.19
456.75	356.86
457.12	353.20
457.49	349.58
457.86	345.95
458.23	343.17
458.59	340.02
458.96	336.83
459.33	334.01
459.70	331.09
460.07	328.76
460.43	326.02
460.80	323.48
461.17	321.41
461.54	319.15
461.91	317.01
462.27	314.92
462.64	313.11
463.01	311.10
463.38	309.17
463.74	306.70
464.11	304.90
464.48	303.45
464.85	301.82
465.21	300.58
465.58	299.28
465.95	297.56
466.32	296.15
466.68	294.75
467.05	293.37
467.42	292.01
467.78	290.70
468.15	289.47
468.52	288.54
468.88	287.18
469.25	286.10
469.62	285.28
469.98	284.42
470.35	283.56
470.72	282.70
471.08	281.76
471.45	281.13
471.82	280.54
472.18	279.72
472.55	279.28
472.92	278.63
473.28	277.96
473.65	277.37
474.02	276.92
474.38	276.66
474.75	276.41
475.11	276.05
475.48	275.76
475.85	275.57
476.21	275.44
476.58	275.29
476.94	275.17
477.31	275.06
477.67	274.96
478.04	274.95
478.41	275.04
478.77	275.50
479.14	275.52
479.50	275.75
479.87	276.05
480.23	276.38
480.60	276.66
480.96	277.16
481.33	277.86
481.69	278.32
482.06	278.80
482.42	279.31
482.79	280.06
483.15	280.75
483.52	281.65
483.88	282.40
484.25	283.29
484.61	284.23
484.98	285.22
485.34	286.31
485.71	287.56
486.07	288.82
486.44	289.87
486.80	291.31
487.17	292.70
487.53	294.38
487.90	296.09
488.26	298.05
488.62	299.95
488.99	301.74
489.35	303.92
489.72	306.12
490.08	308.38
490.44	310.75
490.81	313.29
491.17	315.91
491.54	318.82
491.90	321.81
492.26	324.94
492.63	328.18
492.99	331.61
493.36	335.18
493.72	339.01
494.08	342.90
494.45	347.08
494.81	351.53
495.17	355.98
495.54	360.63
495.90	365.44
496.26	370.62
496.63	375.95
496.99	381.41
497.35	387.21
497.72	393.34
498.08	399.57
498.44	406.11
498.80	412.98
499.17	420.01
499.53	427.30
499.89	434.95
500.26	442.75
500.62	450.63
500.98	459.17
501.34	467.75
501.71	476.74
502.07	485.98
502.43	495.30
502.79	505.00
503.16	515.04
503.52	525.36
503.88	536.07
504.24	546.85
504.60	558.04
504.97	569.60
505.33	581.24
505.69	593.76
506.05	606.41
506.41	619.07
506.78	631.95
507.14	645.08
507.50	658.57
507.86	672.69
508.22	687.21
508.59	701.59
508.95	716.51
509.31	731.62
509.67	747.07
510.03	763.05
510.39	779.16
510.75	795.57
511.12	812.23
511.48	828.93
511.84	846.47
512.20	863.83
512.56	881.70
512.92	899.95
513.28	917.91
513.64	936.07
514.00	954.60
514.37	973.45
514.73	992.81
515.09	1012.07
515.45	1031.20
515.81	1050.64
516.17	1070.26
516.53	1089.96
516.89	1109.82
517.25	1129.72
517.61	1149.55
517.97	1169.54
518.33	1189.72
518.69	1210.01
519.05	1230.53
519.41	1250.86
519.77	1271.77
520.13	1291.95
520.49	1312.02
520.85	1332.69
521.21	1353.66
521.57	1374.66
521.93	1394.59
522.29	1415.45
522.65	1436.12
523.01	1456.49
523.37	1476.50
523.73	1496.93
524.09	1517.25
524.45	1537.72
524.81	1558.09
525.17	1578.81
525.53	1599.33
525.89	1619.54
526.25	1639.43
526.61	1658.59
526.97	1677.99
527.33	1697.15
527.68	1716.92
528.04	1735.90
528.40	1754.05
528.76	1772.18
529.12	1790.75
529.48	1810.26
529.84	1828.77
530.20	1847.14
530.56	1865.77
530.91	1884.80
531.27	1903.42
531.63	1921.14
531.99	1938.80
532.35	1955.70
532.71	1972.21
533.07	1989.52
533.42	2005.95
533.78	2022.76
534.14	2039.38
534.50	2054.91
534.86	2070.87
535.21	2085.51
535.57	2101.85
535.93	2117.13
536.29	2132.41
536.65	2146.82
537.00	2160.11
537.36	2173.04
537.72	2185.97
538.08	2198.79
538.44	2211.59
538.79	2223.90
539.15	2236.48
539.51	2248.64
539.87	2261.85
540.22	2274.06
540.58	2285.92
540.94	2297.85
541.29	2308.28
541.65	2318.40
542.01	2329.00
542.37	2339.15
542.72	2349.59
543.08	2358.15
543.44	2368.19
543.79	2376.43
544.15	2384.92
544.51	2394.17
544.87	2403.58
545.22	2411.38
545.58	2418.81
545.94	2424.90
546.29	2430.92
546.65	2436.69
547.01	2441.99
547.36	2446.80
547.72	2451.77
548.07	2455.57
548.43	2459.15
548.79	2462.88
549.14	2466.41
549.50	2470.09
549.86	2472.81
550.21	2474.97
550.57	2478.22
550.92	2479.42
551.28	2481.46
551.64	2483.26
551.99	2485.32
552.35	2485.73
552.70	2486.99
553.06	2487.88
553.41	2489.27
553.77	2490.33
554.13	2491.00
554.48	2491.99
554.84	2492.45
555.19	2492.32
555.55	2491.70
555.90	2490.90
556.26	2490.16
556.61	2489.41
556.97	2487.64
557.32	2486.25
557.68	2484.69
558.03	2482.47
558.39	2481.06
558.74	2479.99
559.10	2478.17
559.45	2475.78
559.81	2474.41
560.16	2471.78
560.52	2469.99
560.87	2467.34
561.23	2463.97
561.58	2461.45
561.94	2457.91
562.29	2453.94
562.64	2450.84
563.00	2448.19
563.35	2445.66
563.71	2443.24
564.06	2440.49
564.42	2438.14
564.77	2435.65
565.12	2433.35
565.48	2430.59
565.83	2427.76
566.19	2424.50
566.54	2420.55
566.89	2416.16
567.25	2411.90
567.60	2408.48
567.96	2403.99
568.31	2399.94
568.66	2395.90
569.02	2390.92
569.37	2386.15
569.72	2381.62
570.08	2376.43
570.43	2370.92
570.78	2365.25
571.14	2359.19
571.49	2353.34
571.84	2347.87
572.20	2341.06
572.55	2334.91
572.90	2327.99
573.26	2321.15
573.61	2314.17
573.96	2307.60
574.31	2300.46
574.67	2292.77
575.02	2284.62
575.37	2276.93
575.72	2268.72
576.08	2261.66
576.43	2253.89
576.78	2246.30
577.13	2239.43
577.49	2232.40
577.84	2225.26
578.19	2218.08
578.54	2211.71
578.90	2205.14
579.25	2197.25
579.60	2189.55
579.95	2181.50
580.30	2174.40
580.66	2167.44
581.01	2159.74
581.36	2151.73
581.71	2144.07
582.06	2136.53
582.42	2129.76
582.77	2121.88
583.12	2114.31
583.47	2106.90
583.82	2100.16
584.17	2092.93
584.53	2085.41
584.88	2077.65
585.23	2070.08
585.58	2062.52
585.93	2054.27
586.28	2046.52
586.63	2039.10
586.98	2031.94
587.34	2025.04
587.69	2017.60
588.04	2009.76
588.39	2002.33
588.74	1994.51
589.09	1987.63
589.44	1980.28
589.79	1972.91
590.14	1966.16
590.49	1959.27
590.84	1951.72
591.19	1945.04
591.54	1937.88
591.89	1929.60
592.25	1921.98
592.60	1913.81
592.95	1905.82
593.30	1897.46
593.65	1889.06
594.00	1881.28
594.35	1875.04
594.70	1867.20
595.05	1859.98
595.40	1852.45
595.75	1844.73
596.10	1838.07
596.45	1830.92
596.80	1824.67
597.15	1818.06
597.50	1810.53
597.85	1803.73
598.19	1796.43
598.54	1788.80
598.89	1782.00
599.24	1776.10
599.59	1769.68
599.94	1764.18
600.29	1757.83
600.64	1751.90
600.99	1745.11
601.34	1738.71
601.69	1730.80
602.04	1723.66
602.39	1716.59
602.74	1710.18
603.08	1704.66
603.43	1698.71
603.78	1691.91
604.13	1685.13
604.48	1678.29
604.83	1673.09
605.18	1667.27
605.53	1660.78
605.87	1654.30
606.22	1647.96
606.57	1641.15
606.92	1634.35
607.27	1627.22
607.62	1620.28
607.96	1613.99
608.31	1608.40
608.66	1601.43
609.01	1594.65
609.36	1587.99
609.70	1580.80
610.05	1573.55
610.40	1566.02
610.75	1558.50
611.10	1552.06
611.44	1543.78
611.79	1536.10
612.14	1527.61
612.49	1519.01
612.83	1511.53
613.18	1503.45
613.53	1495.26
613.88	1486.56
614.22	1478.92
614.57	1470.71
614.92	1463.28
615.27	1454.86
615.61	1446.50
615.96	1439.05
616.31	1431.81
616.65	1425.01
617.00	1418.21
617.35	1410.85
617.70	1403.06
618.04	1394.94
618.39	1386.46
618.74	1379.26
619.08	1371.52
619.43	1364.21
619.78	1357.04
620.12	1349.65
620.47	1342.45
620.82	1334.50
621.16	1327.20
621.51	1319.61
621.85	1312.42
622.20	1304.61
622.55	1297.31
622.89	1289.92
623.24	1282.30
623.59	1274.54
623.93	1266.57
624.28	1258.93
624.62	1251.64
624.97	1244.27
625.32	1237.62
625.66	1230.91
626.01	1223.86
626.35	1217.26
626.70	1210.08
627.04	1203.41
627.39	1196.69
627.73	1189.90
628.08	1183.80
628.43	1177.02
628.77	1170.06
629.12	1163.00
629.46	1156.95
629.81	1150.36
630.15	1143.75
630.50	1136.98
630.84	1130.18
631.19	1123.68
631.53	1117.12
631.88	1110.12
632.22	1103.34
632.57	1096.66
632.91	1089.85
633.26	1083.54
633.60	1077.04
633.95	1070.82
634.29	1064.30
634.64	1057.89
634.98	1051.26
635.32	1045.03
635.67	1039.31
636.01	1033.46
636.36	1027.44
636.70	1021.26
637.05	1015.35
637.39	1009.51
637.73	1003.89
638.08	998.70
638.42	993.26
638.77	987.37
639.11	981.59
639.45	975.95
639.80	969.93
640.14	964.07
640.49	958.25
640.83	952.33
641.17	946.52
641.52	940.43
641.86	934.33
642.20	928.75
642.55	922.40
642.89	916.05
643.23	909.86
643.58	904.43
643.92	898.35
644.26	892.46
644.61	886.56
644.95	880.73
645.29	874.60
645.64	868.47
645.98	862.76
646.32	857.42
646.66	851.90
647.01	846.45
647.35	841.00
647.69	834.86
648.04	829.22
648.38	823.60
648.72	818.14
649.06	812.57
649.41	806.89
649.75	801.81
650.09	796.63
650.43	791.30
650.78	785.44
651.12	779.71
651.46	774.20
651.80	768.97
652.14	763.60
652.49	758.36
652.83	752.97
653.17	747.20
653.51	741.63
653.85	736.30
654.20	731.02
654.54	725.58
654.88	720.61
655.22	715.51
655.56	710.22
655.90	705.09
656.25	699.96
656.59	694.92
656.93	689.78
657.27	684.81
657.61	679.58
657.95	674.83
658.29	670.26
658.64	665.58
658.98	660.74
659.32	655.91
659.66	651.14
660.00	646.57
660.34	642.14
660.68	637.49
661.02	632.78
661.36	628.36
661.70	624.00
662.05	619.74
662.39	615.61
662.73	611.52
663.07	607.64
663.41	603.75
663.75	599.65
664.09	595.50
664.43	591.38
664.77	587.50
665.11	583.58
665.45	579.60
665.79	575.77
666.13	571.84
666.47	567.91
666.81	564.02
667.15	560.14
667.49	556.65
667.83	553.28
668.17	549.75
668.51	546.19
668.85	542.75
669.19	539.37
669.53	535.74
669.87	532.37
670.21	528.76
670.55	525.27
670.89	522.20
671.23	519.12
671.57	515.99
671.91	512.88
672.25	509.71
672.58	506.77
672.92	503.63
673.26	500.75
673.60	497.94
673.94	495.04
674.28	492.16
674.62	489.27
674.96	486.30
675.30	483.49
675.64	480.61
675.97	477.80
676.31	475.05
676.65	472.35
676.99	469.77
677.33	467.05
677.67	464.42
678.01	461.57
678.34	458.77
678.68	456.15
679.02	453.50
679.36	450.87
679.70	448.26
680.04	445.71
680.37	442.95
680.71	440.34
681.05	438.01
681.39	435.63
681.73	433.10
682.06	430.70
682.40	428.41
682.74	426.16
683.08	423.90
683.42	421.44
683.75	419.10
684.09	416.70
684.43	414.38
684.77	411.96
685.10	409.74
685.44	407.52
685.78	405.21
686.12	403.13
686.45	400.92
686.79	398.74
687.13	396.65
687.46	394.72
687.80	392.76
688.14	390.54
688.48	388.46
688.81	386.39
689.15	384.38
689.49	382.21
689.82	380.22
690.16	378.00
690.50	375.95
690.83	374.01
691.17	372.01
691.51	369.99
691.84	368.34
692.18	366.50
692.52	364.66
692.85	363.13
693.19	361.45
693.52	359.74
693.86	358.00
694.20	356.28
694.53	354.55
694.87	352.74
695.21	351.02
695.54	349.24
695.88	347.51
696.21	345.91
696.55	344.42
696.88	342.76
697.22	341.30
697.56	339.89
697.89	338.36
698.23	336.79
698.56	335.30
698.90	333.72
699.23	332.21
699.57	330.74
699.90	329.13
700.24	327.60
700.58	326.18
700.91	324.80
701.25	323.62
701.58	322.30
701.92	321.04
702.25	319.64
702.59	318.41
702.92	317.16
703.26	315.76
703.59	314.55
703.93	313.53
704.26	312.33
704.60	311.05
704.93	309.78
705.26	308.57
705.60	307.46
705.93	306.27
706.27	305.26
706.60	304.29
706.94	303.33
707.27	302.22
707.61	301.14
707.94	299.97
708.27	298.62
708.61	297.41
708.94	296.29
709.28	295.38
709.61	294.29
709.94	293.30
710.28	292.41
710.61	291.45
710.95	290.22
711.28	289.43
711.61	288.44
711.95	287.73
712.28	286.86
712.61	285.95
712.95	285.25
713.28	284.43
713.61	283.56
713.95	282.64
714.28	281.83
714.61	281.01
714.95	280.29
715.28	279.47
715.61	278.72
715.95	278.06
716.28	277.13
716.61	276.42
716.95	275.72
717.28	274.99
717.61	274.15
717.94	273.50
718.28	272.64
718.61	271.97
718.94	271.18
719.27	270.57
719.61	269.94
719.94	269.19
720.27	268.30
720.60	267.51
720.94	266.81
721.27	266.15
721.60	265.53
721.93	264.89
722.27	264.46
722.60	263.99
722.93	263.30
723.26	262.92
723.59	262.36
723.93	261.78
724.26	261.15
724.59	260.64
724.92	260.10
725.25	259.69
725.59	259.21
725.92	258.72
726.25	258.12
726.58	257.62
726.91	257.03
727.24	256.60
727.57	256.19
727.91	255.58
728.24	255.13
728.57	254.64
728.90	254.21
729.23	253.60
729.56	253.24
729.89	252.78
730.22	252.33
730.55	251.92
730.89	251.45
731.22	251.09
731.55	250.68
731.88	250.16
732.21	249.70
732.54	249.21
732.87	248.73
733.20	248.38
733.53	247.95
733.86	247.63
734.19	247.19
734.52	246.88
734.85	246.92
735.18	246.51
735.51	246.16
735.84	245.75
736.17	245.51
736.50	244.97
736.83	245.04
737.16	244.64
737.49	244.22
737.82	243.76
738.15	243.40
738.48	243.03
738.81	242.76
739.14	242.30
739.47	241.92
739.80	241.57
740.13	241.21
740.46	240.88
740.79	240.48
741.12	240.14
741.45	239.63
741.78	239.08
742.11	238.90
742.44	238.57
742.77	238.36
743.10	237.96
743.43	237.67
743.75	236.88
744.08	237.00
744.41	236.64
744.74	236.45
745.07	236.09
745.40	235.85
745.73	235.67
746.06	235.45
746.39	235.21
746.71	235.02
747.04	234.67
747.37	234.38
747.70	234.16
748.03	233.92
748.36	233.82
748.68	233.52
749.01	233.10
749.34	232.89
749.67	232.63
750.00	232.41
750.33	232.41
750.65	232.29
750.98	231.61
751.31	231.45
751.64	231.25
751.97	231.31
752.29	231.00
752.62	230.68
752.95	230.35
753.28	230.13
753.60	229.81
753.93	229.78
754.26	229.63
754.59	229.32
754.91	229.10
755.24	228.82
755.57	228.54
755.90	228.39
756.22	228.17
756.55	227.94
756.88	227.70
757.20	227.31
757.53	226.97
757.86	226.77
758.19	226.63
758.51	226.40
758.84	225.97
759.17	225.81
759.49	225.69
759.82	225.71
760.15	225.55
760.47	225.30
760.80	224.98
761.13	224.88
761.45	224.74
761.78	224.58
762.11	224.45
762.43	224.25
762.76	224.10
763.08	223.93
763.41	223.77
763.74	223.69
764.06	223.47
764.39	223.44
764.71	223.35
765.04	223.13
765.37	223.07
765.69	222.90
766.02	222.78
766.34	222.60
766.67	222.37
767.00	222.37
767.32	222.57
767.65	222.61
767.97	222.38
768.30	222.21
768.62	222.08
768.95	221.87
769.27	221.85
769.60	221.82
769.92	221.60
770.25	221.35
770.57	221.17
770.90	221.12
771.22	220.95
771.55	220.80
771.87	220.75
772.20	220.54
772.52	220.80
772.85	221.12
773.17	221.01
773.50	220.93
773.82	220.76
774.15	220.48
774.47	220.23
774.80	220.09
775.12	220.04
775.45	219.98
775.77	219.99
776.09	219.97
776.42	219.86
776.74	219.88
777.07	219.91
777.39	219.82
777.72	219.70
778.04	219.69
778.36	219.53
778.69	219.46
779.01	219.50
779.33	219.07
779.66	218.58
779.98	218.49
780.31	218.35
780.63	218.41
780.95	218.42
781.28	218.34
781.60	218.31
781.92	218.26
782.25	218.17
782.57	218.03
782.89	217.89
783.22	217.82
783.54	217.71
783.86	217.64
784.19	217.63
784.51	217.68
784.83	217.53
785.16	217.54
785.48	217.44
785.80	217.37
786.12	217.47
786.45	217.41
786.77	217.38
787.09	217.38
787.42	217.18
787.74	217.07
788.06	217.04
788.38	216.96
788.71	216.81
789.03	216.85
789.35	216.88
789.67	216.83
789.99	216.78
790.32	216.78
790.64	216.80
790.96	217.01
791.28	216.81
791.61	216.76
791.93	216.74
792.25	216.73
792.57	216.86
792.89	216.67
793.21	216.67
793.54	216.67
793.86	216.58
794.18	216.54
794.50	216.50
794.82	216.38
795.14	216.42
795.47	216.46
795.79	216.27
796.11	216.16
796.43	216.06
796.75	216.03
797.07	215.99
797.39	215.90
797.71	215.66
798.04	215.69
798.36	215.75
798.68	215.78
799.00	215.68
799.32	215.49
799.64	215.52
799.96	215.53
800.28	215.50
800.60	215.45
800.92	215.46
801.24	215.36
801.56	215.35
801.89	215.31
802.21	215.40
802.53	215.42
802.85	215.48
803.17	215.63
803.49	215.48
803.81	215.33
804.13	215.23
804.45	215.08
804.77	215.07
805.09	214.97
805.41	214.88
805.73	214.85
806.05	214.76
806.37	214.70
806.69	214.62
807.01	214.57
807.33	214.55
807.65	214.43
807.97	214.62
808.28	214.63
808.60	214.57
808.92	214.48
809.24	214.61
809.56	214.50
809.88	214.34
810.20	214.35
810.52	214.46
810.84	214.42
811.16	214.38
811.48	214.27
811.80	214.42
812.12	214.36
812.43	214.39
812.75	214.41
813.07	214.29
813.39	214.30
813.71	214.23
814.03	214.20
814.35	214.15
814.67	213.97
814.98	213.83
815.30	213.78
815.62	213.62
815.94	213.39
816.26	213.35
816.58	213.27
816.89	213.28
817.21	213.20
817.53	213.28
817.85	213.28
818.17	213.28
818.48	213.06
818.80	213.11
819.12	213.04
819.44	212.91
819.76	212.85
820.07	212.75
820.39	212.63
820.71	212.64
821.03	212.62
821.34	212.54
821.66	212.64
821.98	212.68
822.30	212.64
822.61	212.85
822.93	212.84
823.25	212.81
823.57	212.76
823.88	212.74
824.20	212.67
824.52	212.77
824.83	212.77
825.15	212.83
825.47	212.80
825.79	212.81
826.10	212.83
826.42	212.91
826.74	212.98
827.05	213.01
827.37	213.01
827.69	212.99
828.00	212.98
828.32	212.95
828.64	212.90
828.95	213.11
829.27	212.99
829.58	212.95
829.90	213.04
830.22	213.10
830.53	213.02
830.85	213.00
831.17	212.87
831.48	212.92
831.80	212.83
832.11	212.76
832.43	212.69
832.75	212.63
833.06	212.79
833.38	212.65
833.69	212.69
834.01	212.68
834.32	212.68
834.64	212.67
834.96	212.70
835.27	212.73
835.59	212.65
835.90	212.55
836.22	212.55
836.53	212.45
836.85	212.30
837.16	212.67
837.48	212.68
837.79	212.72
838.11	212.64
838.42	212.74
838.74	212.72
839.05	212.69
839.37	212.69
839.68	212.56
840.00	212.62
840.31	212.64
840.63	212.62
840.94	212.55
841.26	212.56
841.57	212.53
841.88	212.53
842.20	212.50
842.51	212.50
842.83	212.42
843.14	212.74
843.46	212.74
843.77	212.56
844.08	212.49
844.40	212.37
844.71	212.31
845.03	212.11
845.34	212.10
845.65	212.05
845.97	212.03
846.28	212.00
846.60	211.93
846.91	211.86
847.22	211.84
847.54	211.95
847.85	211.92
848.16	211.91
848.48	211.85
848.79	211.93
849.10	212.02
849.42	212.09
849.73	211.76
850.04	211.83
850.36	211.68
850.67	211.79
850.98	211.85
851.30	211.91
851.61	212.03
851.92	212.06
852.23	212.22
852.55	212.25
852.86	212.18
853.17	212.25
853.49	212.33
853.80	212.40
854.11	212.36
854.42	212.33
854.74	212.18
855.05	212.22
855.36	212.07
855.67	212.11
855.99	212.16
856.30	212.59
856.61	212.53
856.92	212.56
857.23	212.46
857.55	212.46
857.86	212.46
858.17	212.50
858.48	212.50
858.79	212.40
859.11	212.51
859.42	212.53
859.73	212.45
860.04	212.45
860.35	212.32
860.66	212.23
860.98	212.29
861.29	212.46
861.60	212.39
861.91	212.51
862.22	212.31
862.53	212.28
862.84	211.88
863.16	211.99
863.47	211.94
863.78	212.02
864.09	212.02
864.40	212.04
864.71	212.04
865.02	212.00
865.33	212.06
865.64	211.90
865.95	211.91
866.27	212.20
866.58	212.17
866.89	212.31
867.20	212.34
867.51	212.27
867.82	212.23
868.13	212.32
868.44	212.23
868.75	212.38
869.06	212.35
869.37	212.36
869.68	212.23
869.99	212.23
870.30	212.24
870.61	212.24
870.92	212.15
871.23	212.07
871.54	212.16
871.85	212.18
872.16	212.33
872.47	212.30
872.78	212.00
873.09	212.03
873.40	211.98
873.71	212.00
874.02	212.04
874.33	212.00
874.64	211.94
874.95	211.96
875.26	211.82
875.56	211.77
875.87	211.70
876.18	211.73
876.49	212.08
876.80	212.00
877.11	211.93
877.42	211.94
877.73	212.02
878.04	211.91
878.35	211.91
878.66	211.85
878.96	211.82
879.27	211.85
879.58	211.81
879.89	211.73
880.20	211.90
880.51	211.82
880.82	211.82
881.12	211.79
881.43	211.70
881.74	211.68
882.05	211.69
882.36	211.80
882.67	211.85
882.97	211.49
883.28	211.49
883.59	211.57
883.90	211.63
884.21	211.57
884.51	211.55
884.82	211.54
885.13	211.52
885.44	211.51
885.74	211.50
886.05	211.51
886.36	211.57
886.67	211.43
886.98	211.70
887.28	211.73
887.59	211.78
887.90	211.82
888.20	211.85
888.51	211.97
888.82	211.84
889.13	211.88
889.43	212.13
889.74	212.15
890.05	212.13
890.35	212.13
890.66	212.13
890.97	212.14
891.28	212.08
891.58	212.18
891.89	212.22
892.20	212.17
892.50	212.13
892.81	212.12
893.12	212.07
893.42	211.89
893.73	211.85
894.04	211.80
894.34	211.83
894.65	211.84
894.95	211.82
895.26	211.89
895.57	212.00
895.87	211.77
896.18	211.87
896.48	211.85
896.79	211.86
897.10	211.91
897.40	211.93
897.71	211.97
898.01	211.89
898.32	211.91
898.63	211.97
898.93	211.97
899.24	211.94
899.54	211.90
899.85	211.90
900.15	211.93
900.46	212.00
900.76	211.96
901.07	211.98
901.38	211.90
901.68	211.92
901.99	211.76
902.29	211.81
902.60	211.73
902.90	211.70
903.21	211.66
903.51	211.68
903.82	211.75
904.12	211.71
904.43	211.68
904.73	211.64
905.03	211.66
905.34	212.01
905.64	212.05
905.95	212.05
906.25	212.01
906.56	212.03
906.86	211.95
907.17	211.96
907.47	211.94
907.77	211.89
908.08	211.83
908.38	211.86
908.69	211.82
908.99	211.81
909.30	211.75
909.60	211.67
909.90	211.61
910.21	211.50
910.51	211.46
910.81	211.46
911.12	211.54
911.42	211.49
911.73	211.17
912.03	211.15
912.33	211.29
912.64	211.28
912.94	211.27
913.24	211.26
913.55	211.23
913.85	211.26
914.15	211.38
914.46	211.42
914.76	211.37
915.06	211.30
915.37	211.21
915.67	211.25
915.97	211.29
916.27	211.23
916.58	211.19
916.88	211.17
917.18	211.22
917.49	211.37
917.79	211.32
918.09	211.33
918.39	211.35
918.70	211.32
919.00	211.34
919.30	211.43
919.60	211.39
919.91	211.42
920.21	211.41
920.51	211.31
920.81	211.30
921.12	211.35
921.42	211.39
921.72	211.44
922.02	211.43
922.32	211.42
922.63	211.49
922.93	211.75
923.23	211.75
923.53	211.62
923.83	211.40
924.13	211.41
924.44	211.45
924.74	211.50
925.04	211.50
925.34	211.50
925.64	211.36
925.94	211.37
926.24	211.50
926.55	211.41
926.85	211.46
927.15	211.49
927.45	211.50
927.75	211.53
928.05	211.55
928.35	211.55
928.65	211.70
928.95	211.71
929.26	211.48
929.56	211.55
929.86	211.67
930.16	211.66
930.46	211.71
930.76	211.64
931.06	211.53
931.36	211.43
931.66	211.42
931.96	211.46
932.26	211.49
932.56	211.35
932.86	211.40
933.16	211.34
933.46	211.29
933.76	211.21
934.06	211.23
934.36	211.38
934.66	211.35
934.96	211.28
935.26	211.23
935.56	211.32
935.86	211.29
936.16	211.26
936.46	211.22
936.76	211.15
937.06	211.10
937.36	211.06
937.66	211.09
937.96	211.06
938.26	211.03
938.56	210.99
938.86	211.03
939.16	211.13
939.46	211.14
939.76	211.16
940.06	211.13
940.35	211.06
940.65	210.84
940.95	210.92
941.25	210.79
941.55	210.81
941.85	210.82
942.15	210.85
942.45	210.95
942.75	210.95
943.04	211.08
943.34	211.17
943.64	211.15
943.94	211.14
944.24	211.10
944.54	211.09
944.84	211.05
945.13	210.92
945.43	210.85
945.73	210.88
946.03	210.87
946.33	210.86
946.62	210.83
946.92	210.86
947.22	210.88
947.52	210.99
947.82	210.91
948.11	210.90
948.41	210.91
948.71	210.74
949.01	210.76
949.31	210.62
949.60	210.64
949.90	210.83
950.20	210.81
950.50	210.89
950.79	210.94
951.09	210.99
951.39	211.10
951.69	211.10
951.98	211.20
952.28	211.23
952.58	211.24
952.87	211.25
953.17	211.31
953.47	211.25
953.76	211.20
954.06	211.27
954.36	211.22
954.66	211.17
954.95	211.29
955.25	211.35
955.55	211.39
955.84	211.34
956.14	211.24
956.44	211.23
956.73	211.16
957.03	211.13
957.32	211.21
957.62	211.13
957.92	211.14
958.21	211.11
958.51	211.49
958.81	211.57
959.10	211.70
959.40	211.81
959.69	211.87
959.99	211.91
960.29	211.83
960.58	211.78
960.88	211.95
961.17	211.91
961.47	211.96
961.76	211.90
962.06	211.87
962.36	211.92
962.65	211.94
962.95	211.97
963.24	211.99
963.54	211.98
963.83	212.06
964.13	212.06
964.42	211.95
964.72	211.56
965.01	211.54
965.31	211.45
965.60	211.28
965.90	211.44
966.19	211.38
966.49	211.52
966.78	211.52
967.08	211.45
967.37	211.48
967.67	211.36
967.96	211.45
968.26	211.48
968.55	211.49
968.85	211.54
969.14	211.53
969.43	211.51
969.73	211.45
970.02	211.41
970.32	211.35
970.61	211.36
970.91	211.34
971.20	211.32
971.49	211.26
971.79	211.36
972.08	211.15
972.38	211.20
972.67	211.07
972.96	211.14
973.26	211.12
973.55	211.20
973.85	211.20
974.14	211.17
974.43	211.23
974.73	211.19
975.02	211.16
975.31	211.16
975.61	211.09
975.90	211.08
976.19	211.01
976.49	211.02
976.78	211.05
977.07	211.05
977.37	211.05
977.66	211.09
977.95	210.95
978.24	211.02
978.54	211.08
978.83	211.10
979.12	211.07
979.42	210.98
979.71	210.80
980.00	210.77
980.29	210.77
980.59	210.67
980.88	210.73
981.17	210.70
981.46	210.65
981.76	210.72
982.05	210.88
982.34	211.00
982.63	211.00
982.93	210.96
983.22	211.04
983.51	210.99
983.80	211.02
984.09	211.12
984.39	211.05
984.68	210.93
984.97	210.93
985.26	210.86
985.55	210.95
985.85	210.99
986.14	211.03
986.43	211.05
986.72	211.08
987.01	210.97
987.30	211.00
987.59	211.01
987.89	210.98
988.18	210.81
988.47	210.71
988.76	210.70
989.05	210.68
989.34	210.64
989.63	210.75
989.92	210.71
990.22	210.69
990.51	210.66
990.80	210.68
991.09	210.75
991.38	210.79
991.67	210.66
991.96	210.63
992.25	210.65
992.54	210.61
992.83	210.65
993.12	210.60
993.41	210.61
993.70	210.77
993.99	210.81
994.28	210.86
994.58	210.95
994.87	210.88
995.16	210.87
995.45	210.82
995.74	210.78
996.03	210.84
996.32	210.81
996.61	210.92
996.90	210.89
997.19	210.89
997.48	210.85
997.77	210.91
998.06	210.91
998.34	210.85
998.63	210.90
998.92	210.87
999.21	210.93
999.50	210.95
999.79	210.85
1000.08	210.85
1000.37	210.87
1000.66	210.85
1000.95	211.00
1001.24	211.03
1001.53	211.10
1001.82	211.00
1002.11	210.92
1002.40	210.98
1002.68	211.08
1002.97	211.33
1003.26	211.24
1003.55	211.31
1003.84	211.29
1004.13	211.43
1004.42	211.52
1004.71	211.49
1004.99	211.44
1005.28	211.54
1005.57	211.54
1005.86	211.46
1006.15	211.43
1006.44	211.36
1006.72	211.38
1007.01	211.26
1007.30	211.27
1007.59	211.22
1007.88	211.18
1008.17	211.25
1008.45	211.17
1008.74	210.97
1009.03	210.85
1009.32	210.83
1009.60	210.80
1009.89	210.82
1010.18	210.66
1010.47	210.63
1010.76	210.66
1011.04	210.69
1011.33	211.05
1011.62	211.03
1011.91	211.14
1012.19	211.16
1012.48	211.13
1012.77	211.13
1013.05	211.27
1013.34	211.26
1013.63	211.19
1013.92	211.17
1014.20	211.09
1014.49	211.14
1014.78	211.24
1015.06	211.15
1015.35	211.22
1015.64	211.31
1015.92	211.30
1016.21	211.32
1016.50	211.32
1016.78	211.33
1017.07	211.33
1017.36	210.90
1017.64	210.91
1017.93	210.94
1018.22	210.90
1018.50	210.92
1018.79	210.90
1019.08	210.82
1019.36	210.94
1019.65	210.98
1019.93	211.20
1020.22	211.23
1020.51	211.44
1020.79	211.32
1021.08	209.90
1021.36	209.80
1021.65	211.05
1021.94	211.35
1022.22	213.20
1022.51	209.95
1022.79	213.25
1023.08	210.95
1023.36	215.50
1023.65	209.60
>>>>>End Processed Spectral Data<<<<<
