SpectraSuite Data File
++++++++++++++++++++++++++++++++++++
Date: Mon Feb 25 16:56:02 EST 2013
User: group
Dark Spectrum Present: No
Reference Spectrum Present: No
Number of Sampled Component Spectra: 1
Spectrometers: USB2E7196
Integration Time (usec): 104000 (USB2E7196)
Spectra Averaged: 20 (USB2E7196)
Boxcar Smoothing: 10 (USB2E7196)
Correct for Electrical Dark: No (USB2E7196)
Strobe/Lamp Enabled: No (USB2E7196)
Correct for Detector Non-linearity: No (USB2E7196)
Correct for Stray Light: No (USB2E7196)
Number of Pixels in Processed Spectrum: 2048
>>>>>Begin Processed Spectral Data<<<<<
339.09	0.00
339.48	197.85
339.86	200.95
340.24	201.30
340.63	204.25
341.01	209.90
341.39	205.85
341.78	208.75
342.16	210.20
342.54	210.85
342.93	198.99
343.31	209.11
343.69	209.76
344.07	210.25
344.46	210.80
344.84	211.21
345.22	211.33
345.60	211.67
345.99	211.83
346.37	211.92
346.75	211.96
347.13	212.05
347.52	212.14
347.90	212.37
348.28	212.48
348.66	212.59
349.05	212.40
349.43	212.44
349.81	212.57
350.19	212.55
350.57	212.67
350.96	212.74
351.34	212.80
351.72	212.85
352.10	212.96
352.48	213.01
352.87	213.03
353.25	213.05
353.63	212.95
354.01	213.00
354.39	213.10
354.77	213.12
355.15	213.28
355.54	213.25
355.92	213.16
356.30	213.15
356.68	213.43
357.06	213.58
357.44	213.48
357.82	213.44
358.20	213.54
358.58	213.56
358.97	213.62
359.35	213.68
359.73	213.74
360.11	213.70
360.49	213.66
360.87	213.63
361.25	213.69
361.63	213.90
362.01	213.91
362.39	213.83
362.77	213.91
363.15	213.82
363.53	213.80
363.91	213.80
364.29	213.71
364.67	213.35
365.05	213.29
365.43	213.39
365.81	213.48
366.19	213.57
366.57	213.67
366.95	213.58
367.33	213.42
367.71	213.32
368.09	213.40
368.47	213.33
368.85	213.25
369.23	213.28
369.61	213.14
369.99	213.18
370.37	213.19
370.75	213.26
371.13	213.17
371.51	213.11
371.89	213.05
372.27	213.03
372.65	213.03
373.03	213.01
373.41	212.93
373.78	212.89
374.16	212.76
374.54	212.63
374.92	212.61
375.30	212.56
375.68	212.52
376.06	212.52
376.44	212.54
376.82	212.53
377.19	212.45
377.57	212.39
377.95	212.29
378.33	212.31
378.71	212.11
379.09	212.10
379.47	212.15
379.84	212.09
380.22	212.07
380.60	211.98
380.98	211.96
381.36	211.96
381.73	211.84
382.11	211.82
382.49	211.83
382.87	211.78
383.25	211.85
383.62	212.30
384.00	212.08
384.38	212.08
384.76	212.19
385.13	212.39
385.51	212.35
385.89	212.28
386.27	212.24
386.64	212.28
387.02	212.24
387.40	212.22
387.78	212.26
388.15	212.24
388.53	212.22
388.91	212.18
389.29	212.12
389.66	212.18
390.04	212.15
390.42	212.25
390.79	212.24
391.17	212.24
391.55	211.81
391.92	211.87
392.30	211.87
392.68	211.74
393.05	211.69
393.43	211.77
393.81	211.91
394.18	211.83
394.56	211.86
394.94	211.99
395.31	212.01
395.69	212.16
396.06	212.23
396.44	212.33
396.82	212.35
397.19	212.58
397.57	212.57
397.95	212.64
398.32	212.56
398.70	212.61
399.07	212.74
399.45	212.86
399.82	212.96
400.20	212.98
400.58	213.10
400.95	213.06
401.33	213.18
401.70	213.47
402.08	213.68
402.45	213.79
402.83	213.99
403.20	214.14
403.58	214.29
403.95	214.55
404.33	214.78
404.71	215.10
405.08	215.55
405.46	215.90
405.83	216.21
406.21	216.57
406.58	217.03
406.96	217.27
407.33	217.73
407.70	218.28
408.08	219.10
408.45	219.70
408.83	220.35
409.20	220.96
409.58	221.44
409.95	222.22
410.33	223.05
410.70	223.87
411.08	224.81
411.45	225.74
411.82	226.71
412.20	227.93
412.57	229.28
412.95	230.22
413.32	231.60
413.69	233.07
414.07	234.60
414.44	236.33
414.82	238.18
415.19	240.14
415.56	242.16
415.94	244.24
416.31	246.79
416.68	249.21
417.06	252.04
417.43	254.75
417.81	257.81
418.18	260.95
418.55	264.37
418.93	268.12
419.30	271.96
419.67	275.98
420.04	280.10
420.42	284.47
420.79	289.49
421.16	294.61
421.54	299.93
421.91	305.37
422.28	311.01
422.66	317.11
423.03	323.15
423.40	329.35
423.77	335.96
424.15	342.69
424.52	349.70
424.89	357.46
425.26	364.90
425.64	372.12
426.01	380.09
426.38	388.36
426.75	396.52
427.13	405.16
427.50	414.34
427.87	423.80
428.24	433.43
428.61	442.68
428.99	452.67
429.36	463.50
429.73	474.34
430.10	485.10
430.47	496.15
430.85	507.52
431.22	519.76
431.59	532.69
431.96	545.09
432.33	558.96
432.70	572.27
433.08	587.96
433.45	602.68
433.82	617.32
434.19	633.71
434.56	650.19
434.93	665.94
435.30	681.68
435.68	699.20
436.05	716.45
436.42	733.94
436.79	749.74
437.16	766.92
437.53	784.87
437.90	803.04
438.27	820.92
438.64	839.67
439.01	857.17
439.38	872.93
439.75	888.21
440.13	905.55
440.50	921.85
440.87	935.65
441.24	949.88
441.61	965.75
441.98	977.68
442.35	991.37
442.72	1005.19
443.09	1018.37
443.46	1026.99
443.83	1033.18
444.20	1038.52
444.57	1046.49
444.94	1050.89
445.31	1055.71
445.68	1059.79
446.05	1062.55
446.42	1062.23
446.79	1061.33
447.16	1060.39
447.53	1060.05
447.90	1054.98
448.27	1049.90
448.64	1041.86
449.01	1036.29
449.37	1025.36
449.74	1015.25
450.11	1002.70
450.48	988.76
450.85	974.75
451.22	962.81
451.59	951.34
451.96	940.53
452.33	925.23
452.70	911.69
453.07	895.14
453.43	878.50
453.80	862.38
454.17	846.91
454.54	832.37
454.91	816.52
455.28	801.05
455.65	786.60
456.02	771.75
456.38	759.62
456.75	744.41
457.12	731.83
457.49	718.93
457.86	706.65
458.23	696.19
458.59	684.66
458.96	672.88
459.33	662.46
459.70	651.86
460.07	643.58
460.43	634.05
460.80	625.07
461.17	617.14
461.54	608.84
461.91	601.05
462.27	593.04
462.64	586.36
463.01	578.95
463.38	571.64
463.74	564.68
464.11	558.16
464.48	552.61
464.85	546.49
465.21	542.01
465.58	537.05
465.95	531.05
466.32	526.16
466.68	521.23
467.05	516.36
467.42	511.50
467.78	506.42
468.15	501.53
468.52	497.87
468.88	493.25
469.25	488.99
469.62	485.45
469.98	481.73
470.35	478.15
470.72	474.76
471.08	471.11
471.45	468.06
471.82	465.08
472.18	461.75
472.55	459.32
472.92	456.44
473.28	453.93
473.65	451.48
474.02	449.00
474.38	446.95
474.75	445.35
475.11	443.67
475.48	442.27
475.85	441.09
476.21	439.84
476.58	438.87
476.94	438.12
477.31	437.10
477.67	436.31
478.04	435.78
478.41	435.47
478.77	435.44
479.14	435.15
479.50	435.03
479.87	435.24
480.23	435.46
480.60	435.47
480.96	435.46
481.33	436.30
481.69	436.96
482.06	437.55
482.42	437.86
482.79	438.35
483.15	439.23
483.52	440.46
483.88	441.56
484.25	442.76
484.61	443.91
484.98	445.39
485.34	447.07
485.71	448.83
486.07	450.59
486.44	452.34
486.80	454.29
487.17	456.60
487.53	459.13
487.90	461.84
488.26	464.87
488.62	467.91
488.99	470.81
489.35	473.95
489.72	477.39
490.08	481.16
490.44	484.89
490.81	488.85
491.17	492.64
491.54	496.98
491.90	501.08
492.26	505.77
492.63	510.57
492.99	515.42
493.36	520.48
493.72	525.90
494.08	531.42
494.45	537.46
494.81	543.50
495.17	549.41
495.54	555.75
495.90	561.99
496.26	568.59
496.63	575.36
496.99	582.39
497.35	589.71
497.72	597.08
498.08	604.57
498.44	612.13
498.80	620.55
499.17	628.61
499.53	637.18
499.89	645.71
500.26	653.95
500.62	662.46
500.98	671.23
501.34	680.20
501.71	689.22
502.07	698.15
502.43	707.14
502.79	716.29
503.16	725.51
503.52	734.76
503.88	744.30
504.24	753.75
504.60	763.28
504.97	772.76
505.33	782.44
505.69	792.79
506.05	802.78
506.41	812.22
506.78	821.77
507.14	831.21
507.50	840.97
507.86	850.90
508.22	860.77
508.59	870.45
508.95	880.19
509.31	890.04
509.67	899.93
510.03	909.71
510.39	919.75
510.75	929.75
511.12	939.73
511.48	949.57
511.84	959.37
512.20	968.77
512.56	978.64
512.92	988.21
513.28	997.45
513.64	1006.76
514.00	1015.90
514.37	1025.18
514.73	1034.70
515.09	1044.02
515.45	1053.00
515.81	1061.92
516.17	1070.55
516.53	1079.06
516.89	1087.40
517.25	1095.26
517.61	1103.35
517.97	1111.23
518.33	1118.50
518.69	1125.90
519.05	1133.36
519.41	1140.83
519.77	1148.65
520.13	1155.40
520.49	1162.24
520.85	1168.88
521.21	1175.79
521.57	1182.66
521.93	1188.80
522.29	1195.46
522.65	1201.64
523.01	1208.06
523.37	1213.87
523.73	1219.76
524.09	1225.48
524.45	1231.13
524.81	1237.47
525.17	1243.25
525.53	1248.95
525.89	1254.93
526.25	1260.51
526.61	1265.28
526.97	1270.27
527.33	1275.21
527.68	1280.42
528.04	1285.43
528.40	1289.72
528.76	1294.13
529.12	1298.61
529.48	1303.83
529.84	1307.86
530.20	1311.96
530.56	1315.82
530.91	1320.35
531.27	1324.71
531.63	1328.66
531.99	1332.74
532.35	1336.29
532.71	1339.95
533.07	1343.93
533.42	1347.40
533.78	1351.21
534.14	1355.20
534.50	1358.35
534.86	1361.68
535.21	1364.47
535.57	1367.75
535.93	1371.08
536.29	1374.14
536.65	1377.11
537.00	1379.32
537.36	1381.72
537.72	1384.10
538.08	1386.71
538.44	1389.12
538.79	1391.70
539.15	1394.32
539.51	1397.08
539.87	1399.62
540.22	1402.17
540.58	1404.66
540.94	1407.09
541.29	1408.67
541.65	1410.20
542.01	1412.10
542.37	1413.85
542.72	1415.62
543.08	1416.83
543.44	1418.86
543.79	1419.73
544.15	1420.97
544.51	1422.95
544.87	1424.87
545.22	1426.27
545.58	1427.17
545.94	1427.90
546.29	1428.51
546.65	1428.91
547.01	1429.06
547.36	1429.36
547.72	1429.61
548.07	1429.21
548.43	1429.08
548.79	1429.20
549.14	1429.09
549.50	1429.10
549.86	1428.76
550.21	1428.83
550.57	1429.36
550.92	1428.88
551.28	1429.12
551.64	1429.00
551.99	1428.62
552.35	1427.94
552.70	1427.38
553.06	1427.18
553.41	1427.02
553.77	1427.04
554.13	1427.19
554.48	1426.97
554.84	1427.09
555.19	1426.79
555.55	1426.78
555.90	1426.17
556.26	1425.47
556.61	1424.76
556.97	1423.94
557.32	1423.31
557.68	1422.37
558.03	1421.08
558.39	1420.00
558.74	1419.18
559.10	1418.41
559.45	1417.63
559.81	1416.97
560.16	1416.03
560.52	1415.37
560.87	1414.62
561.23	1413.21
561.58	1412.12
561.94	1410.73
562.29	1408.68
562.64	1407.72
563.00	1406.42
563.35	1405.43
563.71	1405.00
564.06	1404.54
564.42	1404.13
564.77	1403.74
565.12	1403.27
565.48	1402.64
565.83	1401.90
566.19	1401.48
566.54	1400.11
566.89	1398.68
567.25	1397.96
567.60	1397.36
567.96	1396.59
568.31	1395.67
568.66	1394.67
569.02	1393.20
569.37	1391.57
569.72	1390.65
570.08	1388.82
570.43	1387.16
570.78	1385.49
571.14	1383.34
571.49	1381.14
571.84	1378.85
572.20	1376.40
572.55	1374.18
572.90	1371.66
573.26	1368.99
573.61	1366.07
573.96	1363.77
574.31	1360.73
574.67	1357.29
575.02	1353.75
575.37	1350.13
575.72	1346.21
576.08	1343.10
576.43	1339.48
576.78	1336.39
577.13	1333.15
577.49	1330.03
577.84	1326.56
578.19	1323.25
578.54	1320.41
578.90	1317.93
579.25	1314.82
579.60	1310.77
579.95	1306.74
580.30	1303.50
580.66	1300.29
581.01	1296.66
581.36	1292.97
581.71	1289.50
582.06	1285.88
582.42	1282.41
582.77	1278.54
583.12	1274.85
583.47	1270.91
583.82	1267.49
584.17	1263.75
584.53	1260.09
584.88	1255.95
585.23	1252.17
585.58	1248.06
585.93	1243.89
586.28	1239.35
586.63	1235.15
586.98	1231.58
587.34	1228.20
587.69	1224.05
588.04	1220.08
588.39	1216.23
588.74	1211.90
589.09	1208.27
589.44	1204.04
589.79	1200.36
590.14	1196.84
590.49	1192.99
590.84	1189.18
591.19	1185.51
591.54	1181.70
591.89	1176.90
592.25	1173.11
592.60	1168.68
592.95	1164.28
593.30	1159.65
593.65	1155.04
594.00	1150.45
594.35	1147.18
594.70	1142.61
595.05	1138.49
595.40	1134.19
595.75	1129.47
596.10	1125.64
596.45	1121.30
596.80	1117.51
597.15	1113.30
597.50	1108.50
597.85	1104.31
598.19	1099.59
598.54	1094.95
598.89	1090.78
599.24	1087.41
599.59	1083.03
599.94	1079.13
600.29	1074.94
600.64	1070.77
600.99	1066.65
601.34	1062.97
601.69	1057.66
602.04	1053.05
602.39	1048.29
602.74	1044.15
603.08	1040.50
603.43	1036.41
603.78	1032.16
604.13	1027.75
604.48	1023.54
604.83	1020.09
605.18	1016.34
605.53	1012.31
605.87	1008.10
606.22	1003.87
606.57	999.14
606.92	994.62
607.27	990.12
607.62	986.33
607.96	982.23
608.31	978.37
608.66	973.81
609.01	969.55
609.36	965.34
609.70	960.96
610.05	956.36
610.40	951.81
610.75	946.91
611.10	942.69
611.44	937.68
611.79	932.68
612.14	927.64
612.49	922.45
612.83	917.81
613.18	913.14
613.53	908.30
613.88	903.38
614.22	898.77
614.57	894.13
614.92	889.15
615.27	884.35
615.61	879.39
615.96	875.05
616.31	870.89
616.65	866.76
617.00	862.38
617.35	858.05
617.70	853.41
618.04	848.75
618.39	843.63
618.74	839.49
619.08	835.22
619.43	830.97
619.78	826.79
620.12	822.67
620.47	818.49
620.82	813.96
621.16	809.54
621.51	805.37
621.85	801.17
622.20	796.85
622.55	792.75
622.89	788.35
623.24	783.81
623.59	779.14
623.93	774.80
624.28	770.82
624.62	766.82
624.97	762.67
625.32	758.80
625.66	755.01
626.01	750.93
626.35	746.87
626.70	742.68
627.04	738.81
627.39	734.72
627.73	730.70
628.08	727.26
628.43	723.52
628.77	719.69
629.12	715.65
629.46	712.03
629.81	708.10
630.15	704.53
630.50	700.89
630.84	696.96
631.19	693.25
631.53	689.53
631.88	685.45
632.22	681.73
632.57	678.24
632.91	674.74
633.26	671.26
633.60	667.59
633.95	664.07
634.29	660.35
634.64	657.04
634.98	653.46
635.32	649.92
635.67	646.89
636.01	643.46
636.36	640.14
636.70	636.90
637.05	633.73
637.39	630.47
637.73	627.43
638.08	624.71
638.42	621.61
638.77	618.49
639.11	615.58
639.45	612.43
639.80	609.09
640.14	605.79
640.49	602.56
640.83	599.54
641.17	596.53
641.52	593.54
641.86	590.33
642.20	587.39
642.55	584.10
642.89	580.81
643.23	577.66
643.58	575.02
643.92	571.89
644.26	568.87
644.61	565.99
644.95	562.74
645.29	559.61
645.64	556.64
645.98	553.63
646.32	550.65
646.66	547.80
647.01	544.92
647.35	542.02
647.69	539.27
648.04	536.49
648.38	533.72
648.72	530.90
649.06	527.98
649.41	525.13
649.75	522.33
650.09	519.74
650.43	517.17
650.78	514.21
651.12	511.34
651.46	508.63
651.80	505.97
652.14	503.61
652.49	501.00
652.83	498.36
653.17	495.73
653.51	493.04
653.85	490.59
654.20	487.97
654.54	485.41
654.88	482.72
655.22	480.28
655.56	477.60
655.90	474.98
656.25	472.50
656.59	469.93
656.93	467.49
657.27	464.98
657.61	462.40
657.95	460.00
658.29	457.66
658.64	455.25
658.98	452.82
659.32	450.09
659.66	447.70
660.00	445.24
660.34	442.83
660.68	440.48
661.02	437.90
661.36	435.75
661.70	433.56
662.05	431.43
662.39	429.28
662.73	427.25
663.07	425.28
663.41	423.28
663.75	421.14
664.09	419.16
664.43	417.09
664.77	414.98
665.11	412.92
665.45	411.03
665.79	409.19
666.13	407.31
666.47	405.47
666.81	403.52
667.15	401.69
667.49	399.93
667.83	398.16
668.17	396.44
668.51	394.67
668.85	392.97
669.19	391.48
669.53	389.50
669.87	387.58
670.21	385.86
670.55	384.09
670.89	382.80
671.23	381.21
671.57	379.64
671.91	378.15
672.25	376.58
672.58	375.11
672.92	373.47
673.26	371.91
673.60	370.47
673.94	368.97
674.28	367.51
674.62	366.12
674.96	364.69
675.30	363.26
675.64	361.75
675.97	360.21
676.31	358.67
676.65	357.41
676.99	356.41
677.33	354.90
677.67	353.54
678.01	351.85
678.34	350.52
678.68	349.23
679.02	347.85
679.36	346.50
679.70	345.17
680.04	343.92
680.37	342.57
680.71	341.29
681.05	340.16
681.39	338.86
681.73	337.48
682.06	336.33
682.40	335.15
682.74	334.03
683.08	332.98
683.42	331.71
683.75	330.54
684.09	329.12
684.43	327.96
684.77	326.77
685.10	325.71
685.44	324.45
685.78	323.23
686.12	322.17
686.45	321.06
686.79	319.87
687.13	318.83
687.46	317.77
687.80	316.74
688.14	315.46
688.48	314.40
688.81	313.37
689.15	312.41
689.49	311.25
689.82	310.21
690.16	309.05
690.50	308.00
690.83	306.95
691.17	305.82
691.51	304.72
691.84	303.71
692.18	302.72
692.52	301.72
692.85	300.80
693.19	299.92
693.52	298.91
693.86	297.96
694.20	297.00
694.53	296.02
694.87	295.03
695.21	294.22
695.54	293.25
695.88	292.29
696.21	291.15
696.55	290.38
696.88	289.51
697.22	288.63
697.56	287.80
697.89	286.95
698.23	286.22
698.56	285.41
698.90	284.67
699.23	283.79
699.57	282.97
699.90	282.08
700.24	281.12
700.58	280.30
700.91	279.54
701.25	278.98
701.58	278.30
701.92	277.60
702.25	276.85
702.59	276.21
702.92	275.55
703.26	274.88
703.59	274.05
703.93	273.60
704.26	272.90
704.60	272.22
704.93	271.53
705.26	270.77
705.60	270.24
705.93	269.55
706.27	269.11
706.60	268.68
706.94	268.15
707.27	267.53
707.61	267.07
707.94	266.39
708.27	265.53
708.61	264.87
708.94	264.21
709.28	263.65
709.61	263.03
709.94	262.41
710.28	261.84
710.61	261.48
710.95	260.71
711.28	260.49
711.61	259.92
711.95	259.52
712.28	259.10
712.61	258.60
712.95	258.22
713.28	257.84
713.61	257.30
713.95	256.75
714.28	256.34
714.61	255.74
714.95	255.35
715.28	254.85
715.61	254.31
715.95	253.92
716.28	253.44
716.61	253.16
716.95	252.65
717.28	252.22
717.61	251.65
717.94	251.16
718.28	250.43
718.61	250.00
718.94	249.50
719.27	249.10
719.61	248.61
719.94	248.15
720.27	247.60
720.60	247.17
720.94	246.78
721.27	246.37
721.60	246.10
721.93	245.76
722.27	245.58
722.60	245.33
722.93	244.94
723.26	244.64
723.59	244.16
723.93	243.89
724.26	243.64
724.59	243.30
724.92	243.12
725.25	242.95
725.59	242.63
725.92	242.42
726.25	242.11
726.58	241.85
726.91	241.61
727.24	241.32
727.57	241.04
727.91	240.72
728.24	240.50
728.57	240.11
728.90	239.92
729.23	239.42
729.56	239.30
729.89	239.01
730.22	238.61
730.55	238.34
730.89	238.07
731.22	237.79
731.55	237.56
731.88	237.18
732.21	236.84
732.54	236.56
732.87	236.26
733.20	236.01
733.53	235.78
733.86	235.50
734.19	235.13
734.52	235.02
734.85	234.96
735.18	234.63
735.51	234.54
735.84	234.20
736.17	234.12
736.50	233.70
736.83	233.87
737.16	233.75
737.49	233.47
737.82	233.22
738.15	232.95
738.48	232.71
738.81	232.50
739.14	232.32
739.47	232.14
739.80	231.87
740.13	231.65
740.46	231.31
740.79	231.00
741.12	230.82
741.45	230.45
741.78	230.08
742.11	230.10
742.44	229.83
742.77	229.65
743.10	229.40
743.43	229.18
743.75	228.62
744.08	228.84
744.41	228.70
744.74	228.49
745.07	228.30
745.40	228.15
745.73	228.14
746.06	227.91
746.39	227.79
746.71	227.63
747.04	227.43
747.37	227.36
747.70	227.29
748.03	227.19
748.36	227.11
748.68	226.93
749.01	226.57
749.34	226.39
749.67	226.26
750.00	226.21
750.33	226.32
750.65	226.22
750.98	225.63
751.31	225.52
751.64	225.46
751.97	225.51
752.29	225.38
752.62	225.08
752.95	224.97
753.28	224.77
753.60	224.63
753.93	224.61
754.26	224.46
754.59	224.27
754.91	224.05
755.24	223.88
755.57	223.76
755.90	223.65
756.22	223.59
756.55	223.45
756.88	223.28
757.20	222.87
757.53	222.66
757.86	222.53
758.19	222.38
758.51	222.25
758.84	221.95
759.17	221.76
759.49	221.63
759.82	221.65
760.15	221.55
760.47	221.37
760.80	221.13
761.13	221.09
761.45	220.97
761.78	220.86
762.11	220.75
762.43	220.64
762.76	220.57
763.08	220.45
763.41	220.33
763.74	220.13
764.06	220.11
764.39	220.11
764.71	220.02
765.04	219.94
765.37	219.81
765.69	219.64
766.02	219.60
766.34	219.55
766.67	219.30
767.00	219.28
767.32	219.41
767.65	219.52
767.97	219.43
768.30	219.37
768.62	219.33
768.95	219.18
769.27	219.16
769.60	219.02
769.92	218.93
770.25	218.80
770.57	218.74
770.90	218.75
771.22	218.51
771.55	218.45
771.87	218.33
772.20	218.27
772.52	218.50
772.85	218.85
773.17	218.79
773.50	218.71
773.82	218.62
774.15	218.34
774.47	218.03
774.80	217.87
775.12	217.85
775.45	217.78
775.77	217.80
776.09	217.72
776.42	217.75
776.74	217.78
777.07	217.66
777.39	217.62
777.72	217.42
778.04	217.42
778.36	217.32
778.69	217.28
779.01	217.20
779.33	216.89
779.66	216.41
779.98	216.31
780.31	216.30
780.63	216.42
780.95	216.48
781.28	216.50
781.60	216.45
781.92	216.38
782.25	216.34
782.57	216.28
782.89	216.15
783.22	216.01
783.54	215.87
783.86	215.98
784.19	215.92
784.51	216.04
784.83	216.03
785.16	216.01
785.48	215.97
785.80	215.93
786.12	216.00
786.45	215.97
786.77	215.94
787.09	215.89
787.42	215.73
787.74	215.71
788.06	215.64
788.38	215.59
788.71	215.50
789.03	215.46
789.35	215.45
789.67	215.36
789.99	215.39
790.32	215.23
790.64	215.13
790.96	215.33
791.28	215.19
791.61	215.10
791.93	215.05
792.25	215.07
792.57	215.30
792.89	215.11
793.21	215.16
793.54	215.11
793.86	215.08
794.18	214.94
794.50	214.87
794.82	214.86
795.14	214.91
795.47	214.95
795.79	214.97
796.11	214.85
796.43	214.84
796.75	214.85
797.07	214.89
797.39	214.90
797.71	214.66
798.04	214.65
798.36	214.66
798.68	214.66
799.00	214.69
799.32	214.49
799.64	214.52
799.96	214.39
800.28	214.48
800.60	214.46
800.92	214.60
801.24	214.54
801.56	214.58
801.89	214.54
802.21	214.55
802.53	214.47
802.85	214.54
803.17	214.75
803.49	214.65
803.81	214.68
804.13	214.62
804.45	214.60
804.77	214.60
805.09	214.65
805.41	214.58
805.73	214.50
806.05	214.42
806.37	214.44
806.69	214.50
807.01	214.47
807.33	214.49
807.65	214.30
807.97	214.44
808.28	214.34
808.60	214.28
808.92	214.19
809.24	214.37
809.56	214.30
809.88	214.17
810.20	214.21
810.52	214.20
810.84	214.16
811.16	214.11
811.48	214.04
811.80	214.03
812.12	214.07
812.43	214.05
812.75	214.05
813.07	214.04
813.39	213.98
813.71	213.84
814.03	213.79
814.35	213.84
814.67	213.63
814.98	213.64
815.30	213.64
815.62	213.58
815.94	213.37
816.26	213.39
816.58	213.32
816.89	213.30
817.21	213.21
817.53	213.20
817.85	213.26
818.17	213.28
818.48	213.15
818.80	213.20
819.12	213.09
819.44	213.03
819.76	212.95
820.07	212.85
820.39	212.87
820.71	212.85
821.03	212.80
821.34	212.82
821.66	212.84
821.98	212.87
822.30	212.84
822.61	212.97
822.93	212.93
823.25	212.91
823.57	212.86
823.88	212.96
824.20	212.92
824.52	212.87
824.83	212.84
825.15	212.80
825.47	212.70
825.79	212.72
826.10	212.67
826.42	212.66
826.74	212.80
827.05	212.79
827.37	212.76
827.69	212.70
828.00	212.66
828.32	212.59
828.64	212.50
828.95	212.75
829.27	212.67
829.58	212.63
829.90	212.60
830.22	212.59
830.53	212.50
830.85	212.49
831.17	212.41
831.48	212.39
831.80	212.35
832.11	212.37
832.43	212.42
832.75	212.45
833.06	212.60
833.38	212.43
833.69	212.34
834.01	212.34
834.32	212.33
834.64	212.30
834.96	212.34
835.27	212.42
835.59	212.20
835.90	212.09
836.22	212.10
836.53	212.06
836.85	212.01
837.16	212.29
837.48	212.31
837.79	212.41
838.11	212.39
838.42	212.42
838.74	212.40
839.05	212.32
839.37	212.22
839.68	211.98
840.00	211.96
840.31	212.06
840.63	212.00
840.94	211.96
841.26	211.88
841.57	211.84
841.88	211.77
842.20	211.75
842.51	211.75
842.83	211.76
843.14	212.04
843.46	212.03
843.77	211.78
844.08	211.68
844.40	211.61
844.71	211.54
845.03	211.52
845.34	211.49
845.65	211.46
845.97	211.50
846.28	211.56
846.60	211.59
846.91	211.49
847.22	211.43
847.54	211.53
847.85	211.53
848.16	211.49
848.48	211.45
848.79	211.51
849.10	211.60
849.42	211.61
849.73	211.32
850.04	211.31
850.36	211.24
850.67	211.37
850.98	211.33
851.30	211.38
851.61	211.40
851.92	211.37
852.23	211.48
852.55	211.57
852.86	211.57
853.17	211.61
853.49	211.74
853.80	211.83
854.11	211.86
854.42	211.93
854.74	211.87
855.05	211.88
855.36	211.78
855.67	211.75
855.99	211.69
856.30	212.11
856.61	212.12
856.92	212.16
857.23	212.07
857.55	212.03
857.86	212.00
858.17	212.10
858.48	212.02
858.79	212.00
859.11	211.96
859.42	211.99
859.73	211.94
860.04	211.93
860.35	211.91
860.66	211.81
860.98	211.85
861.29	211.89
861.60	211.89
861.91	211.99
862.22	211.90
862.53	211.88
862.84	211.44
863.16	211.53
863.47	211.48
863.78	211.51
864.09	211.57
864.40	211.64
864.71	211.54
865.02	211.68
865.33	211.60
865.64	211.60
865.95	211.52
866.27	211.74
866.58	211.66
866.89	211.66
867.20	211.65
867.51	211.59
867.82	211.60
868.13	211.65
868.44	211.57
868.75	211.66
869.06	211.64
869.37	211.70
869.68	211.57
869.99	211.60
870.30	211.60
870.61	211.66
870.92	211.54
871.23	211.47
871.54	211.45
871.85	211.47
872.16	211.47
872.47	211.45
872.78	211.21
873.09	211.24
873.40	211.16
873.71	211.20
874.02	211.24
874.33	211.21
874.64	211.17
874.95	211.16
875.26	211.10
875.56	211.13
875.87	211.08
876.18	211.12
876.49	211.45
876.80	211.36
877.11	211.31
877.42	211.35
877.73	211.42
878.04	211.35
878.35	211.39
878.66	211.43
878.96	211.44
879.27	211.45
879.58	211.46
879.89	211.52
880.20	211.60
880.51	211.57
880.82	211.57
881.12	211.53
881.43	211.54
881.74	211.54
882.05	211.53
882.36	211.56
882.67	211.53
882.97	211.17
883.28	211.15
883.59	211.11
883.90	211.13
884.21	211.22
884.51	211.23
884.82	211.16
885.13	211.12
885.44	211.16
885.74	211.24
886.05	211.22
886.36	211.21
886.67	211.14
886.98	211.33
887.28	211.37
887.59	211.42
887.90	211.45
888.20	211.41
888.51	211.48
888.82	211.47
889.13	211.50
889.43	211.80
889.74	211.87
890.05	211.86
890.35	211.86
890.66	211.79
890.97	211.79
891.28	211.81
891.58	211.77
891.89	211.74
892.20	211.68
892.50	211.66
892.81	211.60
893.12	211.61
893.42	211.39
893.73	211.45
894.04	211.40
894.34	211.44
894.65	211.42
894.95	211.37
895.26	211.41
895.57	211.59
895.87	211.28
896.18	211.28
896.48	211.33
896.79	211.41
897.10	211.42
897.40	211.45
897.71	211.46
898.01	211.47
898.32	211.55
898.63	211.57
898.93	211.56
899.24	211.64
899.54	211.57
899.85	211.63
900.15	211.58
900.46	211.67
900.76	211.68
901.07	211.72
901.38	211.72
901.68	211.70
901.99	211.56
902.29	211.56
902.60	211.55
902.90	211.49
903.21	211.50
903.51	211.50
903.82	211.59
904.12	211.62
904.43	211.64
904.73	211.62
905.03	211.63
905.34	212.04
905.64	211.96
905.95	211.93
906.25	211.93
906.56	211.85
906.86	211.77
907.17	211.75
907.47	211.79
907.77	211.74
908.08	211.69
908.38	211.64
908.69	211.69
908.99	211.78
909.30	211.82
909.60	211.76
909.90	211.82
910.21	211.69
910.51	211.67
910.81	211.74
911.12	211.75
911.42	211.71
911.73	211.30
912.03	211.33
912.33	211.51
912.64	211.44
912.94	211.51
913.24	211.44
913.55	211.45
913.85	211.37
914.15	211.53
914.46	211.53
914.76	211.55
915.06	211.52
915.37	211.44
915.67	211.43
915.97	211.40
916.27	211.31
916.58	211.40
916.88	211.33
917.18	211.22
917.49	211.41
917.79	211.46
918.09	211.52
918.39	211.61
918.70	211.55
919.00	211.60
919.30	211.70
919.60	211.66
919.91	211.60
920.21	211.68
920.51	211.52
920.81	211.48
921.12	211.50
921.42	211.47
921.72	211.50
922.02	211.45
922.32	211.51
922.63	211.53
922.93	211.62
923.23	211.67
923.53	211.63
923.83	211.51
924.13	211.46
924.44	211.44
924.74	211.46
925.04	211.51
925.34	211.50
925.64	211.37
925.94	211.43
926.24	211.63
926.55	211.54
926.85	211.57
927.15	211.61
927.45	211.56
927.75	211.60
928.05	211.64
928.35	211.65
928.65	211.68
928.95	211.70
929.26	211.59
929.56	211.73
929.86	211.82
930.16	211.66
930.46	211.68
930.76	211.72
931.06	211.61
931.36	211.55
931.66	211.65
931.96	211.72
932.26	211.71
932.56	211.54
932.86	211.57
933.16	211.64
933.46	211.61
933.76	211.65
934.06	211.71
934.36	211.79
934.66	211.79
934.96	211.75
935.26	211.83
935.56	211.86
935.86	211.62
936.16	211.60
936.46	211.65
936.76	211.65
937.06	211.64
937.36	211.61
937.66	211.64
937.96	211.52
938.26	211.48
938.56	211.48
938.86	211.52
939.16	211.63
939.46	211.69
939.76	211.72
940.06	211.72
940.35	211.57
940.65	211.44
940.95	211.47
941.25	211.41
941.55	211.25
941.85	211.22
942.15	211.33
942.45	211.36
942.75	211.34
943.04	211.33
943.34	211.36
943.64	211.37
943.94	211.27
944.24	211.33
944.54	211.28
944.84	211.24
945.13	211.14
945.43	211.05
945.73	210.97
946.03	210.93
946.33	210.90
946.62	210.91
946.92	210.80
947.22	210.85
947.52	210.88
947.82	210.93
948.11	210.95
948.41	210.90
948.71	210.84
949.01	210.90
949.31	210.87
949.60	210.83
949.90	210.92
950.20	210.92
950.50	210.93
950.79	210.94
951.09	211.03
951.39	211.03
951.69	210.99
951.98	211.05
952.28	211.05
952.58	211.00
952.87	211.04
953.17	211.13
953.47	211.08
953.76	211.07
954.06	211.03
954.36	210.91
954.66	210.90
954.95	211.04
955.25	211.10
955.55	211.08
955.84	210.98
956.14	210.96
956.44	210.99
956.73	210.87
957.03	210.90
957.32	210.94
957.62	210.89
957.92	210.99
958.21	210.93
958.51	211.31
958.81	211.49
959.10	211.49
959.40	211.55
959.69	211.54
959.99	211.55
960.29	211.60
960.58	211.61
960.88	211.69
961.17	211.62
961.47	211.56
961.76	211.57
962.06	211.66
962.36	211.64
962.65	211.64
962.95	211.67
963.24	211.68
963.54	211.68
963.83	211.76
964.13	211.73
964.42	211.66
964.72	211.40
965.01	211.28
965.31	211.30
965.60	211.17
965.90	211.45
966.19	211.40
966.49	211.39
966.78	211.36
967.08	211.30
967.37	211.31
967.67	211.28
967.96	211.27
968.26	211.25
968.55	211.31
968.85	211.28
969.14	211.29
969.43	211.29
969.73	211.24
970.02	211.18
970.32	211.18
970.61	211.21
970.91	211.05
971.20	211.05
971.49	211.03
971.79	211.15
972.08	210.86
972.38	210.90
972.67	210.85
972.96	210.95
973.26	210.91
973.55	211.02
973.85	210.99
974.14	211.05
974.43	211.08
974.73	210.96
975.02	210.95
975.31	211.00
975.61	210.97
975.90	210.88
976.19	210.91
976.49	210.90
976.78	210.92
977.07	210.97
977.37	211.04
977.66	211.08
977.95	211.00
978.24	210.98
978.54	211.09
978.83	211.14
979.12	211.06
979.42	211.07
979.71	210.98
980.00	210.91
980.29	210.93
980.59	210.93
980.88	211.04
981.17	211.08
981.46	211.06
981.76	211.05
982.05	211.26
982.34	211.22
982.63	211.23
982.93	211.22
983.22	211.25
983.51	211.21
983.80	211.25
984.09	211.38
984.39	211.40
984.68	211.30
984.97	211.34
985.26	211.31
985.55	211.42
985.85	211.38
986.14	211.45
986.43	211.42
986.72	211.32
987.01	211.23
987.30	211.24
987.59	211.26
987.89	211.30
988.18	211.17
988.47	211.22
988.76	211.19
989.05	211.11
989.34	211.13
989.63	211.18
989.92	211.09
990.22	210.98
990.51	210.99
990.80	211.00
991.09	210.95
991.38	211.07
991.67	210.98
991.96	210.90
992.25	210.96
992.54	210.96
992.83	211.00
993.12	210.96
993.41	210.98
993.70	211.01
993.99	210.97
994.28	211.06
994.58	211.08
994.87	211.02
995.16	211.03
995.45	211.05
995.74	210.95
996.03	211.11
996.32	211.12
996.61	211.21
996.90	211.21
997.19	211.29
997.48	211.22
997.77	211.17
998.06	211.25
998.34	211.21
998.63	211.20
998.92	211.25
999.21	211.31
999.50	211.27
999.79	211.21
1000.08	211.27
1000.37	211.17
1000.66	211.13
1000.95	211.20
1001.24	211.25
1001.53	211.29
1001.82	211.28
1002.11	211.14
1002.40	211.22
1002.68	211.27
1002.97	211.51
1003.26	211.45
1003.55	211.40
1003.84	211.44
1004.13	211.48
1004.42	211.43
1004.71	211.47
1004.99	211.42
1005.28	211.52
1005.57	211.49
1005.86	211.41
1006.15	211.37
1006.44	211.34
1006.72	211.37
1007.01	211.39
1007.30	211.45
1007.59	211.34
1007.88	211.38
1008.17	211.35
1008.45	211.20
1008.74	211.10
1009.03	210.87
1009.32	210.83
1009.60	210.81
1009.89	210.85
1010.18	210.72
1010.47	210.74
1010.76	210.65
1011.04	210.62
1011.33	210.62
1011.62	210.66
1011.91	210.75
1012.19	210.78
1012.48	210.79
1012.77	210.75
1013.05	210.88
1013.34	210.81
1013.63	210.79
1013.92	210.81
1014.20	210.76
1014.49	210.85
1014.78	210.80
1015.06	210.70
1015.35	210.67
1015.64	210.72
1015.92	210.73
1016.21	210.71
1016.50	210.76
1016.78	210.84
1017.07	210.87
1017.36	210.82
1017.64	210.75
1017.93	210.74
1018.22	210.64
1018.50	210.66
1018.79	210.69
1019.08	210.52
1019.36	210.48
1019.65	210.46
1019.93	210.54
1020.22	210.63
1020.51	210.81
1020.79	210.81
1021.08	209.20
1021.36	210.60
1021.65	210.65
1021.94	210.70
1022.22	209.75
1022.51	209.80
1022.79	213.00
1023.08	211.15
1023.36	215.35
1023.65	210.15
>>>>>End Processed Spectral Data<<<<<
