SpectraSuite Data File
++++++++++++++++++++++++++++++++++++
Date: Mon Feb 25 16:56:18 EST 2013
User: group
Dark Spectrum Present: No
Reference Spectrum Present: No
Number of Sampled Component Spectra: 1
Spectrometers: USB2E7196
Integration Time (usec): 104000 (USB2E7196)
Spectra Averaged: 20 (USB2E7196)
Boxcar Smoothing: 10 (USB2E7196)
Correct for Electrical Dark: No (USB2E7196)
Strobe/Lamp Enabled: No (USB2E7196)
Correct for Detector Non-linearity: No (USB2E7196)
Correct for Stray Light: No (USB2E7196)
Number of Pixels in Processed Spectrum: 2048
>>>>>Begin Processed Spectral Data<<<<<
339.09	0.00
339.48	198.75
339.86	200.65
340.24	201.30
340.63	203.10
341.01	210.10
341.39	205.20
341.78	206.20
342.16	209.75
342.54	207.65
342.93	198.46
343.31	208.51
343.69	209.01
344.07	209.48
344.46	209.95
344.84	210.39
345.22	210.47
345.60	210.76
345.99	211.03
346.37	211.10
346.75	211.25
347.13	211.15
347.52	211.18
347.90	211.35
348.28	211.35
348.66	211.48
349.05	211.34
349.43	211.41
349.81	211.49
350.19	211.58
350.57	211.68
350.96	211.81
351.34	211.90
351.72	212.03
352.10	212.10
352.48	212.22
352.87	212.24
353.25	212.26
353.63	212.32
354.01	212.36
354.39	212.45
354.77	212.50
355.15	212.75
355.54	212.77
355.92	212.77
356.30	212.82
356.68	213.09
357.06	213.23
357.44	213.29
357.82	213.34
358.20	213.44
358.58	213.43
358.97	213.47
359.35	213.59
359.73	213.72
360.11	213.79
360.49	213.79
360.87	213.80
361.25	213.89
361.63	214.03
362.01	214.12
362.39	214.16
362.77	214.28
363.15	214.29
363.53	214.32
363.91	214.38
364.29	214.42
364.67	214.11
365.05	214.17
365.43	214.22
365.81	214.28
366.19	214.41
366.57	214.59
366.95	214.58
367.33	214.45
367.71	214.49
368.09	214.59
368.47	214.62
368.85	214.61
369.23	214.62
369.61	214.49
369.99	214.57
370.37	214.62
370.75	214.79
371.13	214.68
371.51	214.57
371.89	214.50
372.27	214.54
372.65	214.56
373.03	214.50
373.41	214.43
373.78	214.34
374.16	214.15
374.54	214.05
374.92	213.93
375.30	213.99
375.68	213.77
376.06	213.70
376.44	213.63
376.82	213.63
377.19	213.62
377.57	213.57
377.95	213.41
378.33	213.29
378.71	213.01
379.09	213.06
379.47	213.18
379.84	213.12
380.22	213.05
380.60	212.94
380.98	212.90
381.36	212.85
381.73	212.81
382.11	212.83
382.49	212.84
382.87	212.87
383.25	212.80
383.62	213.17
384.00	213.03
384.38	213.02
384.76	213.01
385.13	213.11
385.51	213.06
385.89	212.95
386.27	212.95
386.64	212.99
387.02	212.82
387.40	212.64
387.78	212.65
388.15	212.62
388.53	212.65
388.91	212.66
389.29	212.62
389.66	212.59
390.04	212.52
390.42	212.44
390.79	212.37
391.17	212.39
391.55	212.10
391.92	212.13
392.30	212.11
392.68	212.13
393.05	212.06
393.43	212.07
393.81	212.19
394.18	212.09
394.56	212.08
394.94	212.23
395.31	212.35
395.69	212.47
396.06	212.52
396.44	212.55
396.82	212.53
397.19	212.74
397.57	212.69
397.95	212.79
398.32	212.76
398.70	212.85
399.07	212.93
399.45	212.93
399.82	212.99
400.20	213.07
400.58	213.13
400.95	213.15
401.33	213.30
401.70	213.56
402.08	213.78
402.45	213.90
402.83	214.07
403.20	214.30
403.58	214.41
403.95	214.66
404.33	214.91
404.71	215.10
405.08	215.51
405.46	215.82
405.83	216.16
406.21	216.49
406.58	216.83
406.96	217.29
407.33	217.75
407.70	218.26
408.08	218.97
408.45	219.55
408.83	220.24
409.20	220.84
409.58	221.28
409.95	222.04
410.33	222.89
410.70	223.70
411.08	224.51
411.45	225.47
411.82	226.38
412.20	227.54
412.57	228.98
412.95	229.97
413.32	231.43
413.69	232.83
414.07	234.36
414.44	236.08
414.82	237.82
415.19	239.75
415.56	241.73
415.94	243.72
416.31	246.13
416.68	248.48
417.06	251.37
417.43	254.14
417.81	257.20
418.18	260.33
418.55	263.64
418.93	267.36
419.30	271.11
419.67	275.04
420.04	279.10
420.42	283.28
420.79	288.22
421.16	293.09
421.54	298.29
421.91	303.63
422.28	309.19
422.66	314.96
423.03	320.91
423.40	327.07
423.77	333.68
424.15	340.23
424.52	347.12
424.89	354.60
425.26	361.84
425.64	368.79
426.01	376.48
426.38	384.57
426.75	392.63
427.13	401.12
427.50	410.02
427.87	419.34
428.24	428.71
428.61	437.74
428.99	447.64
429.36	458.24
429.73	468.68
430.10	479.15
430.47	490.03
430.85	501.22
431.22	512.93
431.59	525.32
431.96	537.39
432.33	550.88
432.70	563.81
433.08	579.21
433.45	593.62
433.82	608.11
434.19	624.13
434.56	639.92
434.93	655.20
435.30	670.66
435.68	687.57
436.05	704.64
436.42	721.64
436.79	737.10
437.16	753.95
437.53	771.78
437.90	789.45
438.27	806.81
438.64	825.13
439.01	842.34
439.38	857.86
439.75	872.97
440.13	889.81
440.50	905.78
440.87	919.16
441.24	933.10
441.61	948.48
441.98	960.15
442.35	973.72
442.72	987.13
443.09	1000.18
443.46	1008.78
443.83	1014.78
444.20	1020.23
444.57	1027.82
444.94	1031.92
445.31	1036.19
445.68	1040.20
446.05	1042.90
446.42	1042.45
446.79	1041.66
447.16	1040.76
447.53	1040.36
447.90	1035.35
448.27	1030.39
448.64	1022.43
449.01	1017.26
449.37	1006.70
449.74	996.75
450.11	984.34
450.48	971.01
450.85	957.15
451.22	945.35
451.59	934.05
451.96	923.11
452.33	908.46
452.70	895.35
453.07	879.42
453.43	863.24
453.80	847.43
454.17	832.42
454.54	818.11
454.91	802.53
455.28	787.44
455.65	773.42
456.02	759.19
456.38	747.42
456.75	732.27
457.12	719.80
457.49	707.40
457.86	695.48
458.23	685.10
458.59	673.81
458.96	662.40
459.33	652.19
459.70	642.00
460.07	633.81
460.43	624.41
460.80	615.62
461.17	607.97
461.54	600.09
461.91	592.30
462.27	584.59
462.64	578.20
463.01	570.78
463.38	563.57
463.74	556.58
464.11	550.29
464.48	544.94
464.85	539.10
465.21	534.61
465.58	529.80
465.95	524.13
466.32	519.32
466.68	514.41
467.05	509.77
467.42	505.06
467.78	500.00
468.15	495.22
468.52	491.68
468.88	487.00
469.25	482.70
469.62	479.31
469.98	475.63
470.35	472.11
470.72	469.00
471.08	465.55
471.45	462.51
471.82	459.45
472.18	456.13
472.55	453.62
472.92	450.82
473.28	448.25
473.65	445.72
474.02	443.31
474.38	441.39
474.75	439.63
475.11	437.80
475.48	436.52
475.85	435.43
476.21	434.21
476.58	433.19
476.94	432.59
477.31	431.72
477.67	430.81
478.04	430.28
478.41	429.86
478.77	429.85
479.14	429.51
479.50	429.51
479.87	429.60
480.23	429.80
480.60	429.70
480.96	429.80
481.33	430.43
481.69	431.08
482.06	431.53
482.42	431.79
482.79	432.32
483.15	433.18
483.52	434.40
483.88	435.43
484.25	436.64
484.61	437.82
484.98	439.15
485.34	441.00
485.71	442.71
486.07	444.68
486.44	446.38
486.80	448.42
487.17	450.74
487.53	453.39
487.90	455.95
488.26	458.92
488.62	461.99
488.99	464.94
489.35	467.95
489.72	471.38
490.08	475.15
490.44	478.82
490.81	482.49
491.17	486.22
491.54	490.35
491.90	494.50
492.26	498.90
492.63	503.50
492.99	508.22
493.36	513.08
493.72	518.28
494.08	523.62
494.45	529.27
494.81	535.04
495.17	540.60
495.54	546.65
495.90	552.72
496.26	558.98
496.63	565.50
496.99	572.21
497.35	579.05
497.72	586.15
498.08	593.37
498.44	600.79
498.80	608.53
499.17	616.32
499.53	624.32
499.89	632.49
500.26	640.50
500.62	648.38
500.98	656.93
501.34	665.17
501.71	673.77
502.07	682.27
502.43	690.80
502.79	699.71
503.16	708.77
503.52	717.78
503.88	726.69
504.24	735.85
504.60	744.83
504.97	754.21
505.33	763.40
505.69	773.26
506.05	782.88
506.41	792.20
506.78	801.37
507.14	810.54
507.50	820.00
507.86	829.40
508.22	838.96
508.59	848.04
508.95	857.57
509.31	866.88
509.67	876.31
510.03	885.62
510.39	895.01
510.75	904.28
511.12	913.62
511.48	922.83
511.84	931.91
512.20	941.09
512.56	950.41
512.92	959.47
513.28	968.31
513.64	976.96
514.00	985.75
514.37	994.63
514.73	1003.45
515.09	1011.96
515.45	1020.33
515.81	1028.87
516.17	1037.06
516.53	1044.94
516.89	1052.86
517.25	1060.74
517.61	1068.31
517.97	1075.49
518.33	1082.46
518.69	1089.31
519.05	1096.56
519.41	1103.54
519.77	1110.84
520.13	1117.18
520.49	1123.70
520.85	1130.00
521.21	1136.50
521.57	1142.79
521.93	1148.52
522.29	1154.95
522.65	1160.90
523.01	1167.09
523.37	1172.46
523.73	1178.28
524.09	1183.45
524.45	1188.77
524.81	1194.16
525.17	1199.86
525.53	1205.71
525.89	1211.29
526.25	1216.54
526.61	1221.08
526.97	1225.71
527.33	1230.11
527.68	1234.77
528.04	1239.15
528.40	1243.11
528.76	1247.24
529.12	1251.52
529.48	1256.15
529.84	1259.85
530.20	1263.72
530.56	1267.71
530.91	1272.03
531.27	1276.08
531.63	1280.20
531.99	1284.29
532.35	1287.78
532.71	1291.00
533.07	1294.52
533.42	1297.75
533.78	1301.31
534.14	1304.97
534.50	1307.96
534.86	1311.46
535.21	1314.25
535.57	1317.58
535.93	1320.71
536.29	1323.74
536.65	1326.61
537.00	1328.80
537.36	1331.24
537.72	1333.41
538.08	1335.65
538.44	1337.83
538.79	1340.33
539.15	1342.78
539.51	1345.16
539.87	1347.47
540.22	1349.95
540.58	1352.52
540.94	1355.05
541.29	1356.91
541.65	1358.30
542.01	1360.51
542.37	1362.07
542.72	1364.15
543.08	1365.66
543.44	1367.67
543.79	1368.80
544.15	1370.14
544.51	1372.25
544.87	1374.03
545.22	1375.80
545.58	1376.90
545.94	1377.77
546.29	1377.97
546.65	1378.50
547.01	1378.68
547.36	1379.40
547.72	1379.94
548.07	1379.80
548.43	1379.44
548.79	1379.33
549.14	1379.93
549.50	1379.89
549.86	1379.87
550.21	1379.82
550.57	1380.22
550.92	1379.81
551.28	1379.66
551.64	1379.38
551.99	1379.27
552.35	1378.92
552.70	1378.30
553.06	1378.27
553.41	1378.18
553.77	1378.59
554.13	1378.77
554.48	1378.87
554.84	1378.99
555.19	1378.70
555.55	1378.75
555.90	1378.53
556.26	1378.32
556.61	1377.75
556.97	1377.18
557.32	1376.84
557.68	1376.08
558.03	1375.22
558.39	1374.29
558.74	1373.98
559.10	1373.41
559.45	1372.56
559.81	1371.96
560.16	1371.01
560.52	1370.21
560.87	1369.64
561.23	1368.11
561.58	1367.21
561.94	1366.08
562.29	1364.70
562.64	1363.78
563.00	1362.45
563.35	1361.57
563.71	1361.10
564.06	1360.25
564.42	1360.09
564.77	1359.39
565.12	1358.61
565.48	1358.15
565.83	1358.00
566.19	1357.75
566.54	1356.82
566.89	1355.69
567.25	1355.24
567.60	1354.80
567.96	1354.35
568.31	1353.67
568.66	1352.96
569.02	1351.64
569.37	1350.22
569.72	1349.01
570.08	1347.47
570.43	1346.02
570.78	1344.47
571.14	1342.44
571.49	1340.70
571.84	1338.74
572.20	1336.61
572.55	1335.04
572.90	1332.37
573.26	1329.61
573.61	1326.63
573.96	1324.12
574.31	1321.45
574.67	1318.05
575.02	1315.03
575.37	1311.42
575.72	1307.74
576.08	1304.84
576.43	1301.40
576.78	1298.63
577.13	1295.61
577.49	1292.70
577.84	1289.61
578.19	1286.70
578.54	1284.15
578.90	1281.68
579.25	1278.15
579.60	1274.51
579.95	1270.92
580.30	1267.78
580.66	1264.96
581.01	1261.44
581.36	1257.92
581.71	1254.51
582.06	1251.22
582.42	1247.73
582.77	1243.92
583.12	1240.26
583.47	1236.78
583.82	1233.20
584.17	1229.34
584.53	1225.66
584.88	1221.75
585.23	1217.94
585.58	1214.08
585.93	1210.00
586.28	1205.95
586.63	1202.40
586.98	1199.11
587.34	1195.62
587.69	1191.80
588.04	1187.76
588.39	1184.26
588.74	1180.26
589.09	1176.78
589.44	1172.61
589.79	1168.89
590.14	1165.39
590.49	1161.94
590.84	1157.77
591.19	1154.59
591.54	1150.96
591.89	1146.30
592.25	1142.77
592.60	1138.70
592.95	1134.43
593.30	1130.01
593.65	1125.52
594.00	1121.02
594.35	1117.75
594.70	1113.24
595.05	1109.19
595.40	1104.95
595.75	1100.54
596.10	1096.79
596.45	1092.50
596.80	1088.85
597.15	1085.01
597.50	1080.92
597.85	1076.78
598.19	1072.64
598.54	1068.64
598.89	1064.63
599.24	1061.53
599.59	1057.14
599.94	1053.25
600.29	1049.25
600.64	1045.25
600.99	1041.18
601.34	1037.40
601.69	1032.21
602.04	1028.06
602.39	1023.79
602.74	1019.94
603.08	1016.35
603.43	1012.49
603.78	1008.30
604.13	1004.16
604.48	1000.04
604.83	996.59
605.18	992.92
605.53	988.97
605.87	984.40
606.22	980.34
606.57	975.78
606.92	971.51
607.27	967.21
607.62	963.42
607.96	959.55
608.31	955.90
608.66	951.70
609.01	947.56
609.36	943.30
609.70	938.99
610.05	934.48
610.40	929.88
610.75	925.21
611.10	921.30
611.44	916.51
611.79	911.80
612.14	906.87
612.49	902.00
612.83	897.64
613.18	893.06
613.53	888.25
613.88	883.53
614.22	879.11
614.57	874.50
614.92	869.78
615.27	865.10
615.61	860.22
615.96	855.95
616.31	851.75
616.65	847.81
617.00	843.47
617.35	839.18
617.70	834.65
618.04	830.05
618.39	825.29
618.74	821.03
619.08	816.86
619.43	812.60
619.78	808.55
620.12	804.52
620.47	800.76
620.82	796.35
621.16	792.08
621.51	787.91
621.85	783.88
622.20	779.74
622.55	775.75
622.89	771.58
623.24	767.26
623.59	762.90
623.93	758.65
624.28	754.78
624.62	751.09
624.97	747.19
625.32	743.37
625.66	739.64
626.01	735.77
626.35	731.86
626.70	727.86
627.04	723.81
627.39	719.97
627.73	715.97
628.08	712.75
628.43	709.02
628.77	705.35
629.12	701.57
629.46	698.09
629.81	694.41
630.15	690.84
630.50	687.21
630.84	683.54
631.19	679.93
631.53	676.40
631.88	672.44
632.22	668.92
632.57	665.60
632.91	662.06
633.26	658.61
633.60	654.98
633.95	651.71
634.29	648.35
634.64	644.82
634.98	641.39
635.32	637.93
635.67	634.97
636.01	631.59
636.36	628.24
636.70	625.10
637.05	621.86
637.39	618.88
637.73	615.93
638.08	613.34
638.42	610.37
638.77	607.22
639.11	604.28
639.45	601.30
639.80	598.05
640.14	594.81
640.49	591.82
640.83	588.91
641.17	585.80
641.52	582.84
641.86	579.74
642.20	576.80
642.55	573.61
642.89	570.56
643.23	567.64
643.58	565.01
643.92	561.75
644.26	558.79
644.61	555.94
644.95	553.04
645.29	549.89
645.64	546.96
645.98	544.16
646.32	541.39
646.66	538.36
647.01	535.75
647.35	533.09
647.69	530.24
648.04	527.70
648.38	525.06
648.72	522.27
649.06	519.58
649.41	516.85
649.75	514.19
650.09	511.71
650.43	509.14
650.78	506.30
651.12	503.67
651.46	500.99
651.80	498.25
652.14	495.70
652.49	493.22
652.83	490.65
653.17	487.89
653.51	485.25
653.85	482.97
654.20	480.44
654.54	477.89
654.88	475.45
655.22	472.88
655.56	470.30
655.90	467.79
656.25	465.27
656.59	462.82
656.93	460.57
657.27	458.14
657.61	455.47
657.95	453.08
658.29	450.85
658.64	448.72
658.98	446.42
659.32	443.85
659.66	441.53
660.00	439.11
660.34	436.94
660.68	434.60
661.02	432.12
661.36	429.91
661.70	427.79
662.05	425.78
662.39	423.70
662.73	421.78
663.07	419.98
663.41	418.00
663.75	415.85
664.09	413.77
664.43	411.68
664.77	409.90
665.11	408.04
665.45	406.03
665.79	404.01
666.13	402.04
666.47	400.21
666.81	398.25
667.15	396.38
667.49	394.60
667.83	393.03
668.17	391.39
668.51	389.61
668.85	388.07
669.19	386.47
669.53	384.68
669.87	382.89
670.21	381.15
670.55	379.51
670.89	378.26
671.23	376.80
671.57	375.22
671.91	373.62
672.25	372.04
672.58	370.53
672.92	369.09
673.26	367.68
673.60	366.29
673.94	364.77
674.28	363.42
674.62	362.03
674.96	360.56
675.30	359.23
675.64	357.87
675.97	356.25
676.31	354.82
676.65	353.47
676.99	352.34
677.33	350.87
677.67	349.57
678.01	348.07
678.34	346.68
678.68	345.45
679.02	344.14
679.36	342.80
679.70	341.56
680.04	340.28
680.37	338.99
680.71	337.85
681.05	336.70
681.39	335.47
681.73	334.32
682.06	333.06
682.40	331.85
682.74	330.63
683.08	329.57
683.42	328.28
683.75	327.22
684.09	325.95
684.43	324.88
684.77	323.57
685.10	322.34
685.44	321.12
685.78	319.90
686.12	318.79
686.45	317.77
686.79	316.62
687.13	315.68
687.46	314.55
687.80	313.47
688.14	312.38
688.48	311.38
688.81	310.23
689.15	309.35
689.49	308.28
689.82	307.41
690.16	306.29
690.50	305.30
690.83	304.25
691.17	303.12
691.51	302.13
691.84	301.35
692.18	300.36
692.52	299.57
692.85	298.65
693.19	297.86
693.52	296.94
693.86	296.03
694.20	295.04
694.53	294.23
694.87	293.17
695.21	292.35
695.54	291.45
695.88	290.52
696.21	289.41
696.55	288.51
696.88	287.60
697.22	286.66
697.56	285.96
697.89	285.10
698.23	284.36
698.56	283.49
698.90	282.77
699.23	282.06
699.57	281.19
699.90	280.40
700.24	279.49
700.58	278.72
700.91	278.01
701.25	277.55
701.58	276.90
701.92	276.25
702.25	275.49
702.59	274.76
702.92	274.15
703.26	273.50
703.59	272.88
703.93	272.47
704.26	271.83
704.60	271.14
704.93	270.47
705.26	269.81
705.60	269.18
705.93	268.33
706.27	267.74
706.60	267.30
706.94	266.93
707.27	266.29
707.61	265.74
707.94	265.16
708.27	264.30
708.61	263.59
708.94	262.98
709.28	262.47
709.61	261.90
709.94	261.31
710.28	260.78
710.61	260.31
710.95	259.41
711.28	259.23
711.61	258.66
711.95	258.32
712.28	257.79
712.61	257.32
712.95	257.16
713.28	256.89
713.61	256.28
713.95	255.73
714.28	255.40
714.61	254.91
714.95	254.40
715.28	253.87
715.61	253.42
715.95	253.09
716.28	252.57
716.61	252.17
716.95	251.73
717.28	251.33
717.61	250.90
717.94	250.67
718.28	249.95
718.61	249.57
718.94	249.07
719.27	248.75
719.61	248.36
719.94	247.84
720.27	247.24
720.60	246.85
720.94	246.39
721.27	245.97
721.60	245.68
721.93	245.39
722.27	245.23
722.60	245.04
722.93	244.64
723.26	244.43
723.59	244.13
723.93	243.86
724.26	243.62
724.59	243.29
724.92	242.86
725.25	242.69
725.59	242.37
725.92	242.12
726.25	241.79
726.58	241.56
726.91	241.29
727.24	241.07
727.57	240.84
727.91	240.50
728.24	240.26
728.57	240.00
728.90	239.78
729.23	239.35
729.56	239.15
729.89	238.94
730.22	238.54
730.55	238.29
730.89	238.02
731.22	237.72
731.55	237.49
731.88	237.25
732.21	236.91
732.54	236.58
732.87	236.22
733.20	235.95
733.53	235.62
733.86	235.33
734.19	234.99
734.52	234.75
734.85	234.76
735.18	234.46
735.51	234.26
735.84	234.04
736.17	233.90
736.50	233.53
736.83	233.60
737.16	233.50
737.49	233.19
737.82	232.92
738.15	232.75
738.48	232.49
738.81	232.31
739.14	232.12
739.47	231.94
739.80	231.82
740.13	231.65
740.46	231.42
740.79	231.16
741.12	231.03
741.45	230.78
741.78	230.42
742.11	230.32
742.44	230.03
742.77	229.82
743.10	229.63
743.43	229.37
743.75	228.85
744.08	228.98
744.41	228.83
744.74	228.64
745.07	228.31
745.40	228.20
745.73	228.18
746.06	228.05
746.39	227.92
746.71	227.67
747.04	227.49
747.37	227.24
747.70	227.20
748.03	227.04
748.36	226.95
748.68	226.74
749.01	226.49
749.34	226.30
749.67	226.12
750.00	226.03
750.33	226.19
750.65	226.05
750.98	225.55
751.31	225.41
751.64	225.29
751.97	225.41
752.29	225.26
752.62	224.95
752.95	224.84
753.28	224.63
753.60	224.58
753.93	224.46
754.26	224.47
754.59	224.21
754.91	224.10
755.24	223.94
755.57	223.85
755.90	223.76
756.22	223.70
756.55	223.48
756.88	223.28
757.20	222.91
757.53	222.68
757.86	222.48
758.19	222.41
758.51	222.31
758.84	221.98
759.17	221.78
759.49	221.74
759.82	221.77
760.15	221.76
760.47	221.61
760.80	221.45
761.13	221.40
761.45	221.30
761.78	221.06
762.11	220.95
762.43	220.71
762.76	220.60
763.08	220.45
763.41	220.43
763.74	220.29
764.06	220.16
764.39	220.16
764.71	220.14
765.04	220.00
765.37	219.89
765.69	219.85
766.02	219.80
766.34	219.64
766.67	219.38
767.00	219.30
767.32	219.35
767.65	219.50
767.97	219.32
768.30	219.27
768.62	219.23
768.95	219.17
769.27	219.17
769.60	219.10
769.92	219.01
770.25	218.86
770.57	218.73
770.90	218.72
771.22	218.57
771.55	218.46
771.87	218.43
772.20	218.32
772.52	218.49
772.85	218.91
773.17	218.78
773.50	218.69
773.82	218.56
774.15	218.30
774.47	217.99
774.80	217.91
775.12	217.83
775.45	217.81
775.77	217.68
776.09	217.63
776.42	217.59
776.74	217.60
777.07	217.57
777.39	217.46
777.72	217.39
778.04	217.31
778.36	217.30
778.69	217.22
779.01	217.20
779.33	216.88
779.66	216.29
779.98	216.27
780.31	216.24
780.63	216.28
780.95	216.34
781.28	216.28
781.60	216.20
781.92	216.11
782.25	216.05
782.57	216.04
782.89	216.00
783.22	215.92
783.54	215.86
783.86	215.83
784.19	215.86
784.51	215.89
784.83	215.78
785.16	215.66
785.48	215.60
785.80	215.56
786.12	215.50
786.45	215.49
786.77	215.48
787.09	215.48
787.42	215.44
787.74	215.42
788.06	215.45
788.38	215.38
788.71	215.38
789.03	215.35
789.35	215.34
789.67	215.27
789.99	215.29
790.32	215.15
790.64	215.15
790.96	215.44
791.28	215.30
791.61	215.33
791.93	215.35
792.25	215.33
792.57	215.51
792.89	215.49
793.21	215.50
793.54	215.46
793.86	215.30
794.18	215.18
794.50	215.09
794.82	214.96
795.14	214.99
795.47	214.99
795.79	214.96
796.11	214.83
796.43	214.80
796.75	214.82
797.07	214.90
797.39	214.80
797.71	214.46
798.04	214.44
798.36	214.44
798.68	214.39
799.00	214.36
799.32	214.14
799.64	214.15
799.96	214.15
800.28	214.10
800.60	214.18
800.92	214.15
801.24	214.10
801.56	214.12
801.89	214.13
802.21	214.12
802.53	214.05
802.85	214.15
803.17	214.30
803.49	214.24
803.81	214.13
804.13	214.11
804.45	213.97
804.77	213.99
805.09	213.94
805.41	213.85
805.73	213.80
806.05	213.69
806.37	213.63
806.69	213.56
807.01	213.56
807.33	213.49
807.65	213.37
807.97	213.56
808.28	213.53
808.60	213.39
808.92	213.28
809.24	213.48
809.56	213.35
809.88	213.18
810.20	213.10
810.52	213.16
810.84	213.10
811.16	213.16
811.48	213.12
811.80	213.24
812.12	213.29
812.43	213.32
812.75	213.43
813.07	213.42
813.39	213.39
813.71	213.25
814.03	213.22
814.35	213.24
814.67	212.99
814.98	213.00
815.30	213.03
815.62	213.00
815.94	212.76
816.26	212.82
816.58	212.81
816.89	212.81
817.21	212.69
817.53	212.73
817.85	212.70
818.17	212.65
818.48	212.51
818.80	212.54
819.12	212.51
819.44	212.38
819.76	212.30
820.07	212.30
820.39	212.31
820.71	212.37
821.03	212.36
821.34	212.34
821.66	212.32
821.98	212.37
822.30	212.32
822.61	212.48
822.93	212.36
823.25	212.34
823.57	212.29
823.88	212.43
824.20	212.42
824.52	212.50
824.83	212.49
825.15	212.46
825.47	212.40
825.79	212.41
826.10	212.41
826.42	212.40
826.74	212.44
827.05	212.49
827.37	212.44
827.69	212.45
828.00	212.55
828.32	212.55
828.64	212.49
828.95	212.67
829.27	212.61
829.58	212.67
829.90	212.72
830.22	212.72
830.53	212.62
830.85	212.57
831.17	212.50
831.48	212.51
831.80	212.49
832.11	212.50
832.43	212.45
832.75	212.37
833.06	212.62
833.38	212.52
833.69	212.49
834.01	212.48
834.32	212.46
834.64	212.37
834.96	212.31
835.27	212.36
835.59	212.35
835.90	212.22
836.22	212.24
836.53	212.13
836.85	212.15
837.16	212.43
837.48	212.42
837.79	212.52
838.11	212.48
838.42	212.47
838.74	212.51
839.05	212.49
839.37	212.53
839.68	212.28
840.00	212.28
840.31	212.32
840.63	212.32
840.94	212.26
841.26	212.24
841.57	212.23
841.88	212.22
842.20	212.12
842.51	212.05
842.83	212.06
843.14	212.35
843.46	212.32
843.77	212.21
844.08	212.21
844.40	212.08
844.71	212.14
845.03	212.14
845.34	212.08
845.65	212.04
845.97	212.05
846.28	212.12
846.60	212.12
846.91	212.05
847.22	212.03
847.54	212.14
847.85	212.14
848.16	212.14
848.48	212.08
848.79	212.22
849.10	212.33
849.42	212.30
849.73	212.01
850.04	212.05
850.36	211.84
850.67	211.88
850.98	211.92
851.30	211.83
851.61	211.75
851.92	211.75
852.23	211.84
852.55	211.88
852.86	211.83
853.17	211.97
853.49	212.00
853.80	212.08
854.11	212.11
854.42	212.15
854.74	212.14
855.05	212.14
855.36	211.94
855.67	211.95
855.99	211.99
856.30	212.38
856.61	212.34
856.92	212.35
857.23	212.33
857.55	212.26
857.86	212.29
858.17	212.45
858.48	212.45
858.79	212.45
859.11	212.45
859.42	212.47
859.73	212.31
860.04	212.36
860.35	212.23
860.66	212.08
860.98	212.14
861.29	212.13
861.60	212.07
861.91	212.12
862.22	212.05
862.53	211.99
862.84	211.55
863.16	211.61
863.47	211.56
863.78	211.60
864.09	211.69
864.40	211.72
864.71	211.62
865.02	211.63
865.33	211.55
865.64	211.48
865.95	211.45
866.27	211.67
866.58	211.55
866.89	211.65
867.20	211.65
867.51	211.60
867.82	211.59
868.13	211.67
868.44	211.61
868.75	211.69
869.06	211.71
869.37	211.68
869.68	211.59
869.99	211.77
870.30	211.70
870.61	211.70
870.92	211.66
871.23	211.67
871.54	211.65
871.85	211.75
872.16	211.81
872.47	211.79
872.78	211.53
873.09	211.66
873.40	211.56
873.71	211.59
874.02	211.56
874.33	211.49
874.64	211.46
874.95	211.52
875.26	211.43
875.56	211.37
875.87	211.45
876.18	211.34
876.49	211.59
876.80	211.56
877.11	211.44
877.42	211.42
877.73	211.37
878.04	211.35
878.35	211.31
878.66	211.34
878.96	211.36
879.27	211.38
879.58	211.29
879.89	211.30
880.20	211.44
880.51	211.38
880.82	211.45
881.12	211.46
881.43	211.41
881.74	211.35
882.05	211.32
882.36	211.28
882.67	211.38
882.97	210.97
883.28	210.99
883.59	211.00
883.90	211.00
884.21	211.12
884.51	211.13
884.82	211.06
885.13	211.03
885.44	210.94
885.74	210.99
886.05	211.00
886.36	210.98
886.67	210.85
886.98	211.08
887.28	211.07
887.59	211.10
887.90	211.13
888.20	211.18
888.51	211.25
888.82	211.27
889.13	211.32
889.43	211.64
889.74	211.61
890.05	211.68
890.35	211.65
890.66	211.58
890.97	211.54
891.28	211.55
891.58	211.58
891.89	211.61
892.20	211.58
892.50	211.52
892.81	211.58
893.12	211.55
893.42	211.39
893.73	211.42
894.04	211.38
894.34	211.36
894.65	211.39
894.95	211.36
895.26	211.25
895.57	211.39
895.87	211.09
896.18	211.17
896.48	211.18
896.79	211.22
897.10	211.35
897.40	211.44
897.71	211.46
898.01	211.45
898.32	211.53
898.63	211.56
898.93	211.62
899.24	211.53
899.54	211.54
899.85	211.56
900.15	211.57
900.46	211.62
900.76	211.61
901.07	211.54
901.38	211.53
901.68	211.64
901.99	211.45
902.29	211.47
902.60	211.41
902.90	211.34
903.21	211.31
903.51	211.18
903.82	211.17
904.12	211.17
904.43	211.11
904.73	211.02
905.03	210.98
905.34	211.33
905.64	211.34
905.95	211.31
906.25	211.19
906.56	211.12
906.86	211.12
907.17	211.11
907.47	211.18
907.77	211.15
908.08	211.06
908.38	211.06
908.69	210.99
908.99	211.02
909.30	211.07
909.60	211.01
909.90	211.09
910.21	211.01
910.51	210.94
910.81	211.00
911.12	211.11
911.42	211.16
911.73	210.76
912.03	210.77
912.33	210.87
912.64	210.94
912.94	210.94
913.24	210.79
913.55	210.76
913.85	210.69
914.15	210.78
914.46	210.91
914.76	210.88
915.06	210.90
915.37	210.84
915.67	210.83
915.97	210.85
916.27	210.73
916.58	210.74
916.88	210.75
917.18	210.64
917.49	210.85
917.79	210.76
918.09	210.87
918.39	210.97
918.70	210.87
919.00	210.86
919.30	210.93
919.60	211.01
919.91	211.04
920.21	211.09
920.51	211.00
920.81	210.91
921.12	211.05
921.42	211.12
921.72	211.22
922.02	211.23
922.32	211.35
922.63	211.31
922.93	211.42
923.23	211.44
923.53	211.44
923.83	211.17
924.13	211.23
924.44	211.23
924.74	211.30
925.04	211.44
925.34	211.43
925.64	211.43
925.94	211.48
926.24	211.70
926.55	211.70
926.85	211.76
927.15	211.79
927.45	211.71
927.75	211.73
928.05	211.64
928.35	211.61
928.65	211.67
928.95	211.78
929.26	211.76
929.56	211.90
929.86	212.00
930.16	212.00
930.46	212.03
930.76	212.01
931.06	211.87
931.36	211.80
931.66	211.88
931.96	211.90
932.26	211.92
932.56	211.79
932.86	211.80
933.16	211.82
933.46	211.85
933.76	211.86
934.06	211.94
934.36	212.16
934.66	212.19
934.96	212.11
935.26	212.12
935.56	212.12
935.86	212.04
936.16	211.96
936.46	211.92
936.76	211.90
937.06	211.86
937.36	211.88
937.66	211.90
937.96	211.81
938.26	211.75
938.56	211.73
938.86	211.75
939.16	211.78
939.46	211.75
939.76	211.72
940.06	211.68
940.35	211.55
940.65	211.32
940.95	211.33
941.25	211.26
941.55	211.23
941.85	211.22
942.15	211.27
942.45	211.32
942.75	211.28
943.04	211.25
943.34	211.35
943.64	211.34
943.94	211.20
944.24	211.26
944.54	211.24
944.84	211.18
945.13	211.10
945.43	211.07
945.73	211.08
946.03	210.98
946.33	210.98
946.62	210.96
946.92	210.96
947.22	210.98
947.52	210.93
947.82	210.96
948.11	210.94
948.41	210.82
948.71	210.83
949.01	210.99
949.31	210.99
949.60	210.93
949.90	210.98
950.20	211.07
950.50	210.98
950.79	210.93
951.09	210.92
951.39	210.88
951.69	210.85
951.98	210.90
952.28	210.95
952.58	210.93
952.87	210.94
953.17	211.02
953.47	210.98
953.76	211.01
954.06	210.96
954.36	210.94
954.66	210.97
954.95	210.99
955.25	210.88
955.55	210.86
955.84	210.82
956.14	210.80
956.44	210.76
956.73	210.80
957.03	210.92
957.32	210.99
957.62	211.07
957.92	211.14
958.21	211.08
958.51	211.46
958.81	211.52
959.10	211.54
959.40	211.58
959.69	211.57
959.99	211.63
960.29	211.66
960.58	211.59
960.88	211.73
961.17	211.69
961.47	211.76
961.76	211.72
962.06	211.73
962.36	211.66
962.65	211.68
962.95	211.74
963.24	211.62
963.54	211.67
963.83	211.68
964.13	211.69
964.42	211.56
964.72	211.33
965.01	211.36
965.31	211.25
965.60	211.18
965.90	211.38
966.19	211.30
966.49	211.23
966.78	211.31
967.08	211.30
967.37	211.33
967.67	211.24
967.96	211.34
968.26	211.36
968.55	211.50
968.85	211.43
969.14	211.38
969.43	211.40
969.73	211.32
970.02	211.21
970.32	211.15
970.61	211.25
970.91	211.11
971.20	210.99
971.49	211.10
971.79	211.11
972.08	210.87
972.38	210.90
972.67	211.00
972.96	210.99
973.26	210.84
973.55	210.95
973.85	210.95
974.14	210.95
974.43	211.00
974.73	210.91
975.02	210.91
975.31	210.94
975.61	210.93
975.90	210.85
976.19	210.83
976.49	210.89
976.78	210.92
977.07	210.93
977.37	210.95
977.66	210.95
977.95	210.93
978.24	210.94
978.54	211.06
978.83	210.98
979.12	210.92
979.42	210.97
979.71	210.84
980.00	210.90
980.29	210.88
980.59	210.71
980.88	210.74
981.17	210.80
981.46	210.80
981.76	210.80
982.05	211.04
982.34	211.14
982.63	211.13
982.93	211.14
983.22	211.16
983.51	211.23
983.80	211.27
984.09	211.33
984.39	211.29
984.68	211.22
984.97	211.25
985.26	211.23
985.55	211.25
985.85	211.19
986.14	211.19
986.43	211.30
986.72	211.34
987.01	211.30
987.30	211.29
987.59	211.22
987.89	211.27
988.18	211.10
988.47	211.03
988.76	211.02
989.05	210.93
989.34	210.95
989.63	211.02
989.92	211.03
990.22	210.97
990.51	211.06
990.80	210.99
991.09	210.99
991.38	211.05
991.67	211.03
991.96	210.99
992.25	211.06
992.54	210.95
992.83	210.99
993.12	210.93
993.41	211.00
993.70	211.12
993.99	211.21
994.28	211.26
994.58	211.28
994.87	211.27
995.16	211.21
995.45	211.15
995.74	211.04
996.03	211.09
996.32	211.14
996.61	211.18
996.90	211.26
997.19	211.28
997.48	211.30
997.77	211.27
998.06	211.35
998.34	211.28
998.63	211.28
998.92	211.29
999.21	211.40
999.50	211.39
999.79	211.36
1000.08	211.35
1000.37	211.35
1000.66	211.32
1000.95	211.38
1001.24	211.57
1001.53	211.62
1001.82	211.59
1002.11	211.51
1002.40	211.54
1002.68	211.54
1002.97	211.72
1003.26	211.69
1003.55	211.66
1003.84	211.65
1004.13	211.76
1004.42	211.78
1004.71	211.71
1004.99	211.64
1005.28	211.70
1005.57	211.67
1005.86	211.61
1006.15	211.56
1006.44	211.51
1006.72	211.56
1007.01	211.50
1007.30	211.43
1007.59	211.40
1007.88	211.39
1008.17	211.39
1008.45	211.28
1008.74	211.21
1009.03	211.09
1009.32	211.08
1009.60	211.05
1009.89	211.07
1010.18	210.94
1010.47	210.88
1010.76	210.94
1011.04	210.99
1011.33	210.99
1011.62	211.00
1011.91	210.98
1012.19	211.04
1012.48	211.06
1012.77	211.08
1013.05	211.16
1013.34	211.13
1013.63	211.11
1013.92	211.17
1014.20	211.07
1014.49	211.13
1014.78	211.14
1015.06	210.96
1015.35	211.02
1015.64	211.05
1015.92	211.09
1016.21	211.11
1016.50	211.14
1016.78	211.10
1017.07	211.12
1017.36	211.02
1017.64	210.97
1017.93	211.02
1018.22	210.99
1018.50	210.98
1018.79	210.93
1019.08	210.84
1019.36	210.85
1019.65	210.80
1019.93	210.88
1020.22	211.05
1020.51	211.19
1020.79	211.16
1021.08	211.75
1021.36	210.55
1021.65	210.80
1021.94	211.00
1022.22	210.30
1022.51	210.10
1022.79	212.45
1023.08	212.65
1023.36	214.65
1023.65	210.20
>>>>>End Processed Spectral Data<<<<<
