SpectraSuite Data File
++++++++++++++++++++++++++++++++++++
Date: Mon Feb 25 17:09:13 EST 2013
User: group
Dark Spectrum Present: No
Reference Spectrum Present: No
Number of Sampled Component Spectra: 1
Spectrometers: USB2E7196
Integration Time (usec): 104000 (USB2E7196)
Spectra Averaged: 20 (USB2E7196)
Boxcar Smoothing: 10 (USB2E7196)
Correct for Electrical Dark: No (USB2E7196)
Strobe/Lamp Enabled: No (USB2E7196)
Correct for Detector Non-linearity: No (USB2E7196)
Correct for Stray Light: No (USB2E7196)
Number of Pixels in Processed Spectrum: 2048
>>>>>Begin Processed Spectral Data<<<<<
339.09	0.00
339.48	199.40
339.86	200.30
340.24	202.55
340.63	203.15
341.01	211.30
341.39	205.50
341.78	206.35
342.16	208.25
342.54	208.40
342.93	198.54
343.31	208.54
343.69	209.14
344.07	209.60
344.46	210.12
344.84	210.47
345.22	210.41
345.60	210.72
345.99	210.95
346.37	211.06
346.75	211.15
347.13	211.17
347.52	211.11
347.90	211.29
348.28	211.28
348.66	211.33
349.05	211.29
349.43	211.33
349.81	211.36
350.19	211.36
350.57	211.37
350.96	211.49
351.34	211.55
351.72	211.49
352.10	211.60
352.48	211.50
352.87	211.51
353.25	211.58
353.63	211.60
354.01	211.61
354.39	211.66
354.77	211.74
355.15	211.89
355.54	211.98
355.92	211.81
356.30	211.80
356.68	212.08
357.06	212.10
357.44	212.02
357.82	212.07
358.20	212.12
358.58	212.17
358.97	212.12
359.35	212.23
359.73	212.41
360.11	212.41
360.49	212.45
360.87	212.47
361.25	212.52
361.63	212.55
362.01	212.57
362.39	212.58
362.77	212.57
363.15	212.58
363.53	212.56
363.91	212.70
364.29	212.78
364.67	212.40
365.05	212.42
365.43	212.49
365.81	212.52
366.19	212.65
366.57	212.75
366.95	212.75
367.33	212.68
367.71	212.65
368.09	212.72
368.47	212.71
368.85	212.68
369.23	212.73
369.61	212.65
369.99	212.71
370.37	212.73
370.75	212.83
371.13	212.73
371.51	212.62
371.89	212.55
372.27	212.47
372.65	212.50
373.03	212.48
373.41	212.50
373.78	212.47
374.16	212.30
374.54	212.11
374.92	212.05
375.30	212.00
375.68	211.91
376.06	211.88
376.44	211.83
376.82	211.85
377.19	211.80
377.57	211.75
377.95	211.63
378.33	211.59
378.71	211.41
379.09	211.44
379.47	211.51
379.84	211.43
380.22	211.37
380.60	211.26
380.98	211.12
381.36	211.04
381.73	210.93
382.11	210.95
382.49	211.00
382.87	210.91
383.25	210.86
383.62	211.23
384.00	211.10
384.38	211.07
384.76	211.09
385.13	211.20
385.51	211.21
385.89	211.15
386.27	211.10
386.64	211.20
387.02	211.06
387.40	211.03
387.78	211.06
388.15	211.11
388.53	211.09
388.91	211.14
389.29	211.09
389.66	211.15
390.04	211.08
390.42	211.20
390.79	211.21
391.17	211.20
391.55	210.76
391.92	210.78
392.30	210.79
392.68	210.73
393.05	210.69
393.43	210.68
393.81	210.74
394.18	210.73
394.56	210.71
394.94	210.83
395.31	210.73
395.69	210.82
396.06	210.84
396.44	210.85
396.82	210.81
397.19	211.00
397.57	210.93
397.95	211.00
398.32	210.81
398.70	210.88
399.07	210.94
399.45	210.94
399.82	210.94
400.20	210.97
400.58	210.98
400.95	210.80
401.33	210.86
401.70	211.08
402.08	211.08
402.45	211.07
402.83	211.18
403.20	211.30
403.58	211.26
403.95	211.30
404.33	211.46
404.71	211.57
405.08	211.80
405.46	211.88
405.83	211.95
406.21	212.11
406.58	212.23
406.96	212.30
407.33	212.44
407.70	212.53
408.08	212.88
408.45	213.00
408.83	213.30
409.20	213.38
409.58	213.34
409.95	213.63
410.33	213.85
410.70	213.94
411.08	214.20
411.45	214.43
411.82	214.72
412.20	215.03
412.57	215.44
412.95	215.40
413.32	215.83
413.69	216.21
414.07	216.57
414.44	216.95
414.82	217.42
415.19	217.96
415.56	218.53
415.94	218.85
416.31	219.49
416.68	220.09
417.06	220.82
417.43	221.64
417.81	222.37
418.18	223.13
418.55	223.95
418.93	224.85
419.30	225.78
419.67	226.76
420.04	227.72
420.42	228.76
420.79	230.29
421.16	231.54
421.54	232.97
421.91	234.38
422.28	235.81
422.66	237.26
423.03	238.88
423.40	240.43
423.77	242.06
424.15	243.68
424.52	245.37
424.89	247.30
425.26	248.97
425.64	250.70
426.01	252.56
426.38	254.52
426.75	256.60
427.13	258.65
427.50	260.80
427.87	262.98
428.24	265.23
428.61	267.16
428.99	269.61
429.36	272.00
429.73	274.45
430.10	277.00
430.47	279.64
430.85	282.16
431.22	284.95
431.59	288.29
431.96	291.19
432.33	294.37
432.70	297.46
433.08	301.22
433.45	304.69
433.82	308.21
434.19	312.15
434.56	315.90
434.93	319.59
435.30	323.18
435.68	327.15
436.05	331.04
436.42	334.95
436.79	338.57
437.16	342.40
437.53	346.43
437.90	350.27
438.27	354.26
438.64	358.33
439.01	362.14
439.38	365.29
439.75	368.66
440.13	372.43
440.50	375.99
440.87	378.77
441.24	381.79
441.61	385.02
441.98	387.49
442.35	390.12
442.72	392.98
443.09	395.86
443.46	397.69
443.83	398.89
444.20	399.91
444.57	401.32
444.94	402.10
445.31	402.99
445.68	404.32
446.05	404.70
446.42	404.45
446.79	404.16
447.16	403.70
447.53	403.32
447.90	401.94
448.27	400.57
448.64	398.66
449.01	397.25
449.37	394.92
449.74	392.40
450.11	389.87
450.48	386.67
450.85	383.28
451.22	380.39
451.59	377.72
451.96	375.22
452.33	371.78
452.70	368.60
453.07	364.68
453.43	360.45
453.80	356.74
454.17	353.18
454.54	349.76
454.91	346.16
455.28	342.74
455.65	339.42
456.02	336.52
456.38	333.69
456.75	330.08
457.12	327.01
457.49	324.09
457.86	321.03
458.23	318.60
458.59	315.98
458.96	313.35
459.33	310.92
459.70	308.57
460.07	306.60
460.43	304.45
460.80	302.50
461.17	300.64
461.54	298.73
461.91	296.93
462.27	295.08
462.64	293.53
463.01	291.87
463.38	290.39
463.74	288.29
464.11	286.72
464.48	285.58
464.85	284.20
465.21	283.25
465.58	282.11
465.95	280.65
466.32	279.51
466.68	278.40
467.05	277.34
467.42	276.19
467.78	274.96
468.15	273.91
468.52	273.19
468.88	272.06
469.25	271.10
469.62	270.41
469.98	269.69
470.35	268.93
470.72	268.08
471.08	267.05
471.45	266.43
471.82	265.95
472.18	265.14
472.55	264.60
472.92	263.86
473.28	263.34
473.65	262.85
474.02	262.33
474.38	261.86
474.75	261.48
475.11	261.04
475.48	260.73
475.85	260.41
476.21	260.04
476.58	259.88
476.94	259.68
477.31	259.42
477.67	259.09
478.04	258.89
478.41	258.79
478.77	259.10
479.14	258.95
479.50	258.77
479.87	258.84
480.23	258.79
480.60	258.80
480.96	258.73
481.33	258.92
481.69	258.96
482.06	259.05
482.42	259.10
482.79	259.14
483.15	259.38
483.52	259.64
483.88	259.77
484.25	259.93
484.61	260.23
484.98	260.42
485.34	260.92
485.71	261.31
486.07	261.66
486.44	261.79
486.80	262.22
487.17	262.70
487.53	263.24
487.90	263.92
488.26	264.65
488.62	265.35
488.99	265.92
489.35	266.60
489.72	267.31
490.08	268.10
490.44	268.91
490.81	269.81
491.17	270.68
491.54	271.70
491.90	272.75
492.26	273.81
492.63	274.98
492.99	275.96
493.36	277.22
493.72	278.58
494.08	279.86
494.45	281.27
494.81	282.75
495.17	284.18
495.54	285.65
495.90	287.07
496.26	288.83
496.63	290.56
496.99	292.37
497.35	294.25
497.72	296.14
498.08	298.16
498.44	300.08
498.80	302.12
499.17	304.15
499.53	306.19
499.89	308.43
500.26	310.70
500.62	313.09
500.98	315.45
501.34	317.82
501.71	320.30
502.07	322.71
502.43	325.27
502.79	328.03
503.16	330.68
503.52	333.47
503.88	336.06
504.24	338.85
504.60	341.78
504.97	344.86
505.33	347.86
505.69	351.14
506.05	354.33
506.41	357.50
506.78	360.77
507.14	364.10
507.50	367.50
507.86	371.01
508.22	374.51
508.59	377.98
508.95	381.69
509.31	385.45
509.67	389.28
510.03	393.01
510.39	396.84
510.75	400.79
511.12	404.77
511.48	408.69
511.84	412.71
512.20	416.81
512.56	420.94
512.92	425.25
513.28	429.42
513.64	433.78
514.00	438.31
514.37	442.81
514.73	447.32
515.09	451.73
515.45	456.20
515.81	460.80
516.17	465.37
516.53	469.90
516.89	474.52
517.25	479.21
517.61	484.06
517.97	488.62
518.33	493.43
518.69	498.28
519.05	503.37
519.41	508.41
519.77	513.63
520.13	518.48
520.49	523.36
520.85	528.37
521.21	533.49
521.57	538.53
521.93	543.37
522.29	548.60
522.65	553.71
523.01	558.94
523.37	563.93
523.73	569.24
524.09	574.52
524.45	579.73
524.81	584.96
525.17	590.40
525.53	595.92
525.89	601.33
526.25	606.65
526.61	611.87
526.97	617.15
527.33	622.24
527.68	627.90
528.04	633.16
528.40	638.32
528.76	643.59
529.12	649.13
529.48	654.86
529.84	660.40
530.20	665.86
530.56	671.36
530.91	677.04
531.27	682.47
531.63	687.88
531.99	693.39
532.35	698.74
532.71	704.04
533.07	709.49
533.42	714.97
533.78	720.39
534.14	725.68
534.50	730.65
534.86	736.06
535.21	740.87
535.57	746.48
535.93	751.72
536.29	756.99
536.65	761.69
537.00	766.28
537.36	770.93
537.72	775.59
538.08	780.31
538.44	784.99
538.79	789.76
539.15	794.42
539.51	799.00
539.87	804.02
540.22	808.55
540.58	813.29
540.94	817.61
541.29	821.83
541.65	826.15
542.01	830.80
542.37	834.95
542.72	839.20
543.08	843.10
543.44	847.31
543.79	850.96
544.15	855.11
544.51	859.44
544.87	863.46
545.22	867.43
545.58	870.90
545.94	874.49
546.29	877.68
546.65	880.87
547.01	884.01
547.36	887.00
547.72	890.00
548.07	892.61
548.43	895.26
548.79	897.80
549.14	900.32
549.50	903.00
549.86	905.29
550.21	907.69
550.57	910.05
550.92	911.93
551.28	914.08
551.64	916.03
551.99	918.21
552.35	919.99
552.70	921.79
553.06	923.74
553.41	925.45
553.77	927.48
554.13	929.31
554.48	931.27
554.84	932.99
555.19	934.46
555.55	936.24
555.90	937.56
556.26	938.76
556.61	940.24
556.97	941.05
557.32	942.16
557.68	943.10
558.03	943.99
558.39	945.08
558.74	946.47
559.10	947.50
559.45	948.14
559.81	949.29
560.16	950.01
560.52	950.85
560.87	951.53
561.23	952.02
561.58	952.81
561.94	952.88
562.29	953.06
562.64	953.51
563.00	953.83
563.35	954.50
563.71	955.44
564.06	955.78
564.42	956.30
564.77	957.05
565.12	957.64
565.48	958.48
565.83	958.91
566.19	959.10
566.54	958.98
566.89	958.98
567.25	958.95
567.60	959.30
567.96	959.45
568.31	959.61
568.66	959.45
569.02	959.02
569.37	958.73
569.72	958.44
570.08	958.00
570.43	957.21
570.78	956.48
571.14	955.62
571.49	954.83
571.84	954.21
572.20	953.09
572.55	952.22
572.90	950.66
573.26	949.39
573.61	948.03
573.96	947.10
574.31	945.66
574.67	944.10
575.02	942.27
575.37	940.64
575.72	938.73
576.08	937.39
576.43	935.52
576.78	933.88
577.13	932.39
577.49	930.82
577.84	929.36
578.19	927.86
578.54	926.56
578.90	925.12
579.25	923.38
579.60	921.67
579.95	919.67
580.30	918.13
580.66	916.63
581.01	914.66
581.36	912.56
581.71	910.87
582.06	909.35
582.42	907.73
582.77	905.68
583.12	904.09
583.47	902.41
583.82	900.99
584.17	899.53
584.53	897.94
584.88	896.19
585.23	894.45
585.58	892.76
585.93	890.65
586.28	888.94
586.63	887.33
586.98	885.70
587.34	884.29
587.69	882.49
588.04	880.72
588.39	879.22
588.74	877.52
589.09	876.08
589.44	874.10
589.79	872.38
590.14	870.54
590.49	868.62
590.84	866.60
591.19	865.05
591.54	863.19
591.89	860.89
592.25	859.11
592.60	856.76
592.95	854.56
593.30	852.33
593.65	850.13
594.00	847.79
594.35	846.54
594.70	844.21
595.05	842.24
595.40	839.98
595.75	837.63
596.10	835.65
596.45	833.35
596.80	831.51
597.15	829.68
597.50	827.65
597.85	825.73
598.19	823.70
598.54	821.46
598.89	819.45
599.24	817.81
599.59	815.81
599.94	814.37
600.29	812.69
600.64	810.98
600.99	808.78
601.34	806.93
601.69	804.00
602.04	801.95
602.39	799.83
602.74	798.16
603.08	796.51
603.43	794.94
603.78	793.11
604.13	791.12
604.48	789.18
604.83	787.74
605.18	786.05
605.53	784.18
605.87	782.28
606.22	780.53
606.57	778.48
606.92	776.47
607.27	774.35
607.62	772.28
607.96	770.43
608.31	768.80
608.66	766.88
609.01	764.78
609.36	762.70
609.70	760.53
610.05	758.22
610.40	756.07
610.75	753.70
611.10	751.58
611.44	748.80
611.79	746.17
612.14	743.34
612.49	740.57
612.83	738.18
613.18	735.39
613.53	732.74
613.88	729.85
614.22	727.26
614.57	724.71
614.92	722.10
615.27	719.33
615.61	716.54
615.96	713.79
616.31	711.51
616.65	709.22
617.00	706.60
617.35	703.97
617.70	701.26
618.04	698.18
618.39	695.13
618.74	692.87
619.08	690.17
619.43	687.69
619.78	685.11
620.12	682.40
620.47	680.01
620.82	677.16
621.16	674.47
621.51	671.86
621.85	669.07
622.20	666.24
622.55	663.52
622.89	660.80
623.24	658.22
623.59	655.42
623.93	652.68
624.28	650.23
624.62	647.99
624.97	645.44
625.32	643.14
625.66	640.78
626.01	638.06
626.35	635.69
626.70	633.11
627.04	630.79
627.39	628.37
627.73	625.94
628.08	623.60
628.43	621.11
628.77	618.49
629.12	615.98
629.46	613.79
629.81	611.50
630.15	609.04
630.50	606.46
630.84	603.94
631.19	601.36
631.53	598.75
631.88	595.96
632.22	593.43
632.57	591.12
632.91	588.54
633.26	586.23
633.60	583.71
633.95	581.24
634.29	578.72
634.64	576.15
634.98	573.59
635.32	571.36
635.67	569.28
636.01	567.00
636.36	564.57
636.70	562.29
637.05	559.85
637.39	557.78
637.73	555.70
638.08	553.72
638.42	551.67
638.77	549.47
639.11	547.08
639.45	544.74
639.80	542.31
640.14	539.95
640.49	537.56
640.83	535.23
641.17	533.00
641.52	530.64
641.86	528.42
642.20	526.22
642.55	523.65
642.89	521.23
643.23	518.75
643.58	516.67
643.92	514.16
644.26	511.87
644.61	509.49
644.95	507.13
645.29	504.76
645.64	502.49
645.98	500.29
646.32	498.16
646.66	495.79
647.01	493.54
647.35	491.45
647.69	489.21
648.04	487.01
648.38	484.89
648.72	482.70
649.06	480.45
649.41	478.10
649.75	476.03
650.09	473.89
650.43	471.93
650.78	469.65
651.12	467.33
651.46	465.23
651.80	463.05
652.14	460.81
652.49	458.52
652.83	456.19
653.17	454.04
653.51	451.79
653.85	449.82
654.20	447.67
654.54	445.51
654.88	443.42
655.22	441.38
655.56	439.09
655.90	436.93
656.25	434.93
656.59	432.81
656.93	430.74
657.27	428.80
657.61	426.60
657.95	424.68
658.29	422.64
658.64	420.84
658.98	418.81
659.32	416.77
659.66	414.88
660.00	412.96
660.34	410.90
660.68	408.96
661.02	406.94
661.36	405.10
661.70	403.25
662.05	401.46
662.39	399.74
662.73	398.19
663.07	396.68
663.41	394.84
663.75	393.13
664.09	391.31
664.43	389.37
664.77	387.76
665.11	386.01
665.45	384.56
665.79	382.75
666.13	381.11
666.47	379.56
666.81	377.90
667.15	376.21
667.49	374.76
667.83	373.27
668.17	371.73
668.51	370.24
668.85	368.85
669.19	367.59
669.53	366.01
669.87	364.42
670.21	362.89
670.55	361.45
670.89	360.31
671.23	359.07
671.57	357.84
671.91	356.45
672.25	355.07
672.58	353.73
672.92	352.41
673.26	351.21
673.60	349.98
673.94	348.66
674.28	347.47
674.62	346.31
674.96	345.11
675.30	344.04
675.64	342.87
675.97	341.60
676.31	340.22
676.65	339.08
676.99	338.11
677.33	336.88
677.67	335.62
678.01	334.28
678.34	333.09
678.68	331.96
679.02	330.89
679.36	329.69
679.70	328.51
680.04	327.38
680.37	326.16
680.71	324.89
681.05	323.80
681.39	322.66
681.73	321.47
682.06	320.38
682.40	319.35
682.74	318.33
683.08	317.43
683.42	316.39
683.75	315.31
684.09	314.09
684.43	312.93
684.77	311.91
685.10	310.89
685.44	309.77
685.78	308.67
686.12	307.65
686.45	306.77
686.79	305.79
687.13	304.92
687.46	303.94
687.80	303.15
688.14	302.24
688.48	301.39
688.81	300.41
689.15	299.55
689.49	298.47
689.82	297.50
690.16	296.32
690.50	295.31
690.83	294.36
691.17	293.39
691.51	292.57
691.84	291.80
692.18	290.90
692.52	290.10
692.85	289.38
693.19	288.64
693.52	287.77
693.86	286.85
694.20	285.96
694.53	285.23
694.87	284.35
695.21	283.47
695.54	282.69
695.88	281.85
696.21	280.87
696.55	280.24
696.88	279.45
697.22	278.77
697.56	278.14
697.89	277.44
698.23	276.74
698.56	276.04
698.90	275.41
699.23	274.71
699.57	274.01
699.90	273.14
700.24	272.35
700.58	271.69
700.91	271.13
701.25	270.66
701.58	270.11
701.92	269.51
702.25	268.95
702.59	268.29
702.92	267.65
703.26	267.19
703.59	266.58
703.93	266.24
704.26	265.78
704.60	265.22
704.93	264.72
705.26	264.15
705.60	263.65
705.93	262.85
706.27	262.33
706.60	261.95
706.94	261.64
707.27	261.10
707.61	260.61
707.94	260.02
708.27	259.19
708.61	258.57
708.94	258.02
709.28	257.47
709.61	256.91
709.94	256.60
710.28	256.05
710.61	255.60
710.95	254.84
711.28	254.45
711.61	253.91
711.95	253.42
712.28	252.93
712.61	252.41
712.95	252.24
713.28	252.05
713.61	251.47
713.95	250.94
714.28	250.50
714.61	249.97
714.95	249.57
715.28	249.20
715.61	248.71
715.95	248.33
716.28	247.92
716.61	247.52
716.95	246.94
717.28	246.53
717.61	246.10
717.94	245.77
718.28	245.19
718.61	244.78
718.94	244.36
719.27	244.01
719.61	243.68
719.94	243.29
720.27	242.66
720.60	242.27
720.94	241.90
721.27	241.60
721.60	241.36
721.93	241.07
722.27	240.87
722.60	240.70
722.93	240.38
723.26	240.09
723.59	239.80
723.93	239.60
724.26	239.29
724.59	238.97
724.92	238.64
725.25	238.48
725.59	238.23
725.92	238.01
726.25	237.77
726.58	237.59
726.91	237.27
727.24	237.13
727.57	236.92
727.91	236.67
728.24	236.42
728.57	236.20
728.90	235.98
729.23	235.65
729.56	235.62
729.89	235.42
730.22	235.18
730.55	234.98
730.89	234.71
731.22	234.54
731.55	234.27
731.88	234.12
732.21	233.80
732.54	233.57
732.87	233.32
733.20	233.13
733.53	232.89
733.86	232.58
734.19	232.38
734.52	232.23
734.85	232.25
735.18	231.98
735.51	231.81
735.84	231.65
736.17	231.56
736.50	231.06
736.83	231.31
737.16	231.11
737.49	230.88
737.82	230.67
738.15	230.51
738.48	230.31
738.81	230.02
739.14	229.83
739.47	229.61
739.80	229.44
740.13	229.28
740.46	228.99
740.79	228.91
741.12	228.60
741.45	228.36
741.78	227.97
742.11	227.86
742.44	227.55
742.77	227.40
743.10	227.13
743.43	226.99
743.75	226.37
744.08	226.68
744.41	226.52
744.74	226.34
745.07	226.11
745.40	226.02
745.73	225.99
746.06	225.82
746.39	225.67
746.71	225.46
747.04	225.24
747.37	225.05
747.70	224.89
748.03	224.80
748.36	224.69
748.68	224.53
749.01	224.31
749.34	224.24
749.67	224.09
750.00	224.03
750.33	224.14
750.65	224.12
750.98	223.55
751.31	223.36
751.64	223.31
751.97	223.45
752.29	223.30
752.62	223.06
752.95	222.86
753.28	222.81
753.60	222.71
753.93	222.70
754.26	222.60
754.59	222.44
754.91	222.27
755.24	222.13
755.57	221.99
755.90	221.92
756.22	221.72
756.55	221.51
756.88	221.32
757.20	220.92
757.53	220.65
757.86	220.58
758.19	220.57
758.51	220.42
758.84	220.06
759.17	219.93
759.49	219.84
759.82	219.94
760.15	219.84
760.47	219.77
760.80	219.56
761.13	219.60
761.45	219.43
761.78	219.37
762.11	219.31
762.43	219.27
762.76	219.10
763.08	219.09
763.41	219.02
763.74	218.94
764.06	218.84
764.39	218.75
764.71	218.58
765.04	218.43
765.37	218.33
765.69	218.28
766.02	218.15
766.34	218.00
766.67	217.81
767.00	217.83
767.32	217.92
767.65	218.04
767.97	217.87
768.30	217.85
768.62	217.73
768.95	217.58
769.27	217.48
769.60	217.50
769.92	217.34
770.25	217.22
770.57	217.09
770.90	217.05
771.22	216.96
771.55	216.95
771.87	216.90
772.20	216.89
772.52	217.15
772.85	217.60
773.17	217.59
773.50	217.48
773.82	217.30
774.15	217.10
774.47	216.79
774.80	216.76
775.12	216.76
775.45	216.71
775.77	216.73
776.09	216.72
776.42	216.68
776.74	216.77
777.07	216.69
777.39	216.64
777.72	216.59
778.04	216.59
778.36	216.46
778.69	216.44
779.01	216.39
779.33	216.00
779.66	215.49
779.98	215.48
780.31	215.45
780.63	215.56
780.95	215.50
781.28	215.51
781.60	215.37
781.92	215.30
782.25	215.26
782.57	215.15
782.89	215.05
783.22	215.01
783.54	214.90
783.86	214.90
784.19	214.88
784.51	215.01
784.83	214.92
785.16	214.83
785.48	214.81
785.80	214.76
786.12	214.72
786.45	214.70
786.77	214.65
787.09	214.62
787.42	214.45
787.74	214.45
788.06	214.49
788.38	214.45
788.71	214.35
789.03	214.36
789.35	214.41
789.67	214.30
789.99	214.29
790.32	214.24
790.64	214.27
790.96	214.62
791.28	214.44
791.61	214.38
791.93	214.48
792.25	214.42
792.57	214.68
792.89	214.61
793.21	214.65
793.54	214.56
793.86	214.55
794.18	214.55
794.50	214.50
794.82	214.45
795.14	214.50
795.47	214.58
795.79	214.53
796.11	214.42
796.43	214.43
796.75	214.35
797.07	214.36
797.39	214.28
797.71	213.95
798.04	213.93
798.36	213.96
798.68	213.89
799.00	213.94
799.32	213.68
799.64	213.66
799.96	213.61
800.28	213.66
800.60	213.63
800.92	213.66
801.24	213.63
801.56	213.62
801.89	213.67
802.21	213.60
802.53	213.47
802.85	213.51
803.17	213.67
803.49	213.62
803.81	213.52
804.13	213.50
804.45	213.42
804.77	213.49
805.09	213.42
805.41	213.36
805.73	213.25
806.05	213.20
806.37	213.21
806.69	213.15
807.01	213.09
807.33	213.19
807.65	213.06
807.97	213.18
808.28	213.13
808.60	213.06
808.92	213.02
809.24	213.34
809.56	213.35
809.88	213.25
810.20	213.23
810.52	213.30
810.84	213.26
811.16	213.27
811.48	213.27
811.80	213.47
812.12	213.48
812.43	213.51
812.75	213.45
813.07	213.42
813.39	213.38
813.71	213.34
814.03	213.25
814.35	213.20
814.67	213.03
814.98	212.94
815.30	212.84
815.62	212.83
815.94	212.55
816.26	212.51
816.58	212.41
816.89	212.37
817.21	212.34
817.53	212.41
817.85	212.42
818.17	212.29
818.48	212.12
818.80	212.20
819.12	212.20
819.44	212.20
819.76	212.21
820.07	212.27
820.39	212.30
820.71	212.30
821.03	212.38
821.34	212.35
821.66	212.51
821.98	212.62
822.30	212.56
822.61	212.84
822.93	212.77
823.25	212.72
823.57	212.79
823.88	212.84
824.20	212.81
824.52	212.85
824.83	212.88
825.15	212.78
825.47	212.80
825.79	212.80
826.10	212.77
826.42	212.72
826.74	212.76
827.05	212.78
827.37	212.75
827.69	212.70
828.00	212.76
828.32	212.67
828.64	212.60
828.95	212.70
829.27	212.54
829.58	212.55
829.90	212.59
830.22	212.56
830.53	212.45
830.85	212.40
831.17	212.27
831.48	212.20
831.80	212.21
832.11	212.12
832.43	212.07
832.75	212.08
833.06	212.24
833.38	212.12
833.69	212.04
834.01	212.02
834.32	211.95
834.64	211.91
834.96	211.84
835.27	211.85
835.59	211.78
835.90	211.70
836.22	211.73
836.53	211.78
836.85	211.78
837.16	212.17
837.48	212.14
837.79	212.25
838.11	212.30
838.42	212.29
838.74	212.34
839.05	212.33
839.37	212.30
839.68	212.09
840.00	212.09
840.31	212.15
840.63	212.18
840.94	212.19
841.26	212.14
841.57	212.20
841.88	212.22
842.20	212.23
842.51	212.17
842.83	212.14
843.14	212.42
843.46	212.40
843.77	212.14
844.08	212.16
844.40	212.04
844.71	211.99
845.03	212.01
845.34	212.00
845.65	211.92
845.97	211.90
846.28	211.92
846.60	211.93
846.91	211.90
847.22	211.82
847.54	211.89
847.85	211.89
848.16	211.85
848.48	211.75
848.79	211.80
849.10	211.80
849.42	211.85
849.73	211.47
850.04	211.42
850.36	211.35
850.67	211.37
850.98	211.39
851.30	211.47
851.61	211.45
851.92	211.41
852.23	211.54
852.55	211.62
852.86	211.62
853.17	211.69
853.49	211.73
853.80	211.84
854.11	211.90
854.42	211.97
854.74	211.94
855.05	211.92
855.36	211.82
855.67	211.86
855.99	211.80
856.30	212.24
856.61	212.26
856.92	212.22
857.23	212.22
857.55	212.17
857.86	212.09
858.17	212.18
858.48	212.06
858.79	212.00
859.11	212.04
859.42	212.03
859.73	211.90
860.04	211.95
860.35	211.85
860.66	211.72
860.98	211.70
861.29	211.72
861.60	211.80
861.91	211.87
862.22	211.81
862.53	211.78
862.84	211.33
863.16	211.37
863.47	211.34
863.78	211.36
864.09	211.39
864.40	211.47
864.71	211.46
865.02	211.56
865.33	211.53
865.64	211.46
865.95	211.48
866.27	211.78
866.58	211.65
866.89	211.66
867.20	211.70
867.51	211.59
867.82	211.64
868.13	211.73
868.44	211.72
868.75	211.82
869.06	211.89
869.37	211.87
869.68	211.84
869.99	211.84
870.30	211.79
870.61	211.87
870.92	211.77
871.23	211.79
871.54	211.86
871.85	211.95
872.16	211.98
872.47	211.94
872.78	211.68
873.09	211.82
873.40	211.76
873.71	211.74
874.02	211.82
874.33	211.77
874.64	211.70
874.95	211.69
875.26	211.63
875.56	211.58
875.87	211.70
876.18	211.65
876.49	212.08
876.80	212.09
877.11	212.00
877.42	212.05
877.73	212.06
878.04	212.02
878.35	211.94
878.66	211.91
878.96	211.91
879.27	211.97
879.58	211.85
879.89	211.90
880.20	211.98
880.51	211.93
880.82	211.96
881.12	211.91
881.43	211.84
881.74	211.77
882.05	211.74
882.36	211.69
882.67	211.74
882.97	211.37
883.28	211.31
883.59	211.30
883.90	211.33
884.21	211.32
884.51	211.34
884.82	211.37
885.13	211.38
885.44	211.37
885.74	211.32
886.05	211.37
886.36	211.34
886.67	211.24
886.98	211.42
887.28	211.39
887.59	211.40
887.90	211.43
888.20	211.34
888.51	211.47
888.82	211.47
889.13	211.41
889.43	211.65
889.74	211.66
890.05	211.64
890.35	211.54
890.66	211.52
890.97	211.41
891.28	211.32
891.58	211.32
891.89	211.26
892.20	211.23
892.50	211.06
892.81	211.02
893.12	211.02
893.42	210.87
893.73	210.89
894.04	210.93
894.34	210.93
894.65	210.95
894.95	210.80
895.26	210.77
895.57	210.92
895.87	210.63
896.18	210.76
896.48	210.83
896.79	210.88
897.10	210.86
897.40	210.95
897.71	210.97
898.01	210.87
898.32	210.96
898.63	210.97
898.93	211.05
899.24	211.01
899.54	210.97
899.85	210.90
900.15	210.89
900.46	210.84
900.76	210.86
901.07	210.87
901.38	210.96
901.68	211.00
901.99	210.86
902.29	210.88
902.60	210.71
902.90	210.59
903.21	210.57
903.51	210.64
903.82	210.63
904.12	210.69
904.43	210.75
904.73	210.70
905.03	210.79
905.34	211.15
905.64	211.23
905.95	211.24
906.25	211.28
906.56	211.25
906.86	211.20
907.17	211.21
907.47	211.28
907.77	211.19
908.08	211.18
908.38	211.18
908.69	211.19
908.99	211.29
909.30	211.33
909.60	211.33
909.90	211.23
910.21	211.16
910.51	211.06
910.81	211.09
911.12	211.06
911.42	211.01
911.73	210.64
912.03	210.62
912.33	210.67
912.64	210.65
912.94	210.64
913.24	210.69
913.55	210.64
913.85	210.63
914.15	210.74
914.46	210.72
914.76	210.72
915.06	210.64
915.37	210.60
915.67	210.65
915.97	210.73
916.27	210.67
916.58	210.70
916.88	210.75
917.18	210.74
917.49	211.02
917.79	211.00
918.09	211.11
918.39	211.21
918.70	211.23
919.00	211.21
919.30	211.31
919.60	211.29
919.91	211.22
920.21	211.25
920.51	211.18
920.81	211.15
921.12	211.19
921.42	211.26
921.72	211.31
922.02	211.37
922.32	211.30
922.63	211.40
922.93	211.58
923.23	211.61
923.53	211.54
923.83	211.30
924.13	211.37
924.44	211.29
924.74	211.38
925.04	211.48
925.34	211.50
925.64	211.45
925.94	211.43
926.24	211.65
926.55	211.60
926.85	211.60
927.15	211.62
927.45	211.68
927.75	211.73
928.05	211.65
928.35	211.59
928.65	211.61
928.95	211.66
929.26	211.49
929.56	211.54
929.86	211.66
930.16	211.72
930.46	211.73
930.76	211.76
931.06	211.56
931.36	211.39
931.66	211.41
931.96	211.46
932.26	211.46
932.56	211.29
932.86	211.33
933.16	211.37
933.46	211.30
933.76	211.25
934.06	211.27
934.36	211.41
934.66	211.40
934.96	211.41
935.26	211.44
935.56	211.50
935.86	211.41
936.16	211.28
936.46	211.20
936.76	211.11
937.06	211.02
937.36	211.05
937.66	211.02
937.96	210.98
938.26	210.81
938.56	210.86
938.86	210.90
939.16	210.96
939.46	210.90
939.76	210.99
940.06	210.95
940.35	210.86
940.65	210.73
940.95	210.73
941.25	210.63
941.55	210.59
941.85	210.52
942.15	210.57
942.45	210.70
942.75	210.74
943.04	210.75
943.34	210.89
943.64	210.90
943.94	210.92
944.24	210.98
944.54	211.01
944.84	211.01
945.13	211.01
945.43	210.92
945.73	211.02
946.03	210.98
946.33	211.01
946.62	210.97
946.92	210.93
947.22	210.97
947.52	211.07
947.82	210.97
948.11	210.96
948.41	210.93
948.71	210.86
949.01	210.85
949.31	210.79
949.60	210.75
949.90	210.77
950.20	210.73
950.50	210.70
950.79	210.69
951.09	210.70
951.39	210.68
951.69	210.70
951.98	210.66
952.28	210.63
952.58	210.58
952.87	210.61
953.17	210.70
953.47	210.66
953.76	210.64
954.06	210.67
954.36	210.58
954.66	210.56
954.95	210.60
955.25	210.61
955.55	210.63
955.84	210.54
956.14	210.63
956.44	210.65
956.73	210.61
957.03	210.65
957.32	210.62
957.62	210.60
957.92	210.64
958.21	210.63
958.51	211.05
958.81	211.02
959.10	211.03
959.40	211.08
959.69	211.07
959.99	211.09
960.29	211.09
960.58	211.16
960.88	211.30
961.17	211.29
961.47	211.30
961.76	211.30
962.06	211.39
962.36	211.28
962.65	211.38
962.95	211.49
963.24	211.47
963.54	211.51
963.83	211.52
964.13	211.45
964.42	211.39
964.72	211.06
965.01	211.10
965.31	211.06
965.60	210.97
965.90	211.13
966.19	211.03
966.49	211.04
966.78	210.99
967.08	211.00
967.37	210.97
967.67	210.94
967.96	211.02
968.26	210.99
968.55	211.05
968.85	210.97
969.14	210.86
969.43	210.88
969.73	210.82
970.02	210.79
970.32	210.82
970.61	210.88
970.91	210.82
971.20	210.77
971.49	210.81
971.79	210.80
972.08	210.61
972.38	210.69
972.67	210.67
972.96	210.73
973.26	210.60
973.55	210.68
973.85	210.76
974.14	210.75
974.43	210.77
974.73	210.70
975.02	210.71
975.31	210.76
975.61	210.78
975.90	210.80
976.19	210.78
976.49	210.84
976.78	210.89
977.07	210.96
977.37	211.02
977.66	211.05
977.95	210.98
978.24	211.02
978.54	211.07
978.83	211.04
979.12	211.04
979.42	211.05
979.71	211.01
980.00	210.90
980.29	210.87
980.59	210.83
980.88	210.90
981.17	210.89
981.46	210.85
981.76	210.84
982.05	210.99
982.34	211.07
982.63	211.06
982.93	211.02
983.22	211.07
983.51	211.13
983.80	211.14
984.09	211.32
984.39	211.32
984.68	211.28
984.97	211.36
985.26	211.34
985.55	211.41
985.85	211.40
986.14	211.49
986.43	211.51
986.72	211.59
987.01	211.54
987.30	211.52
987.59	211.50
987.89	211.58
988.18	211.49
988.47	211.49
988.76	211.47
989.05	211.42
989.34	211.41
989.63	211.48
989.92	211.43
990.22	211.34
990.51	211.34
990.80	211.35
991.09	211.36
991.38	211.39
991.67	211.43
991.96	211.46
992.25	211.48
992.54	211.45
992.83	211.43
993.12	211.44
993.41	211.50
993.70	211.66
993.99	211.69
994.28	211.67
994.58	211.73
994.87	211.73
995.16	211.73
995.45	211.73
995.74	211.56
996.03	211.65
996.32	211.73
996.61	211.77
996.90	211.73
997.19	211.74
997.48	211.75
997.77	211.65
998.06	211.62
998.34	211.60
998.63	211.62
998.92	211.60
999.21	211.69
999.50	211.66
999.79	211.58
1000.08	211.55
1000.37	211.61
1000.66	211.48
1000.95	211.51
1001.24	211.57
1001.53	211.61
1001.82	211.60
1002.11	211.54
1002.40	211.52
1002.68	211.62
1002.97	211.86
1003.26	211.78
1003.55	211.77
1003.84	211.76
1004.13	211.86
1004.42	211.75
1004.71	211.67
1004.99	211.65
1005.28	211.68
1005.57	211.65
1005.86	211.58
1006.15	211.58
1006.44	211.51
1006.72	211.58
1007.01	211.54
1007.30	211.49
1007.59	211.45
1007.88	211.48
1008.17	211.45
1008.45	211.38
1008.74	211.24
1009.03	211.12
1009.32	211.10
1009.60	210.97
1009.89	210.94
1010.18	210.77
1010.47	210.82
1010.76	210.78
1011.04	210.76
1011.33	210.74
1011.62	210.78
1011.91	210.76
1012.19	210.70
1012.48	210.72
1012.77	210.68
1013.05	210.75
1013.34	210.78
1013.63	210.71
1013.92	210.72
1014.20	210.68
1014.49	210.67
1014.78	210.69
1015.06	210.56
1015.35	210.56
1015.64	210.74
1015.92	210.77
1016.21	210.78
1016.50	210.76
1016.78	210.84
1017.07	210.82
1017.36	210.77
1017.64	210.66
1017.93	210.72
1018.22	210.74
1018.50	210.65
1018.79	210.63
1019.08	210.54
1019.36	210.55
1019.65	210.53
1019.93	210.59
1020.22	210.66
1020.51	210.82
1020.79	210.76
1021.08	211.25
1021.36	209.35
1021.65	210.00
1021.94	211.05
1022.22	211.15
1022.51	210.25
1022.79	212.30
1023.08	211.40
1023.36	214.35
1023.65	209.80
>>>>>End Processed Spectral Data<<<<<
