SpectraSuite Data File
++++++++++++++++++++++++++++++++++++
Date: Mon Feb 25 17:08:36 EST 2013
User: group
Dark Spectrum Present: No
Reference Spectrum Present: No
Number of Sampled Component Spectra: 1
Spectrometers: USB2E7196
Integration Time (usec): 104000 (USB2E7196)
Spectra Averaged: 20 (USB2E7196)
Boxcar Smoothing: 10 (USB2E7196)
Correct for Electrical Dark: No (USB2E7196)
Strobe/Lamp Enabled: No (USB2E7196)
Correct for Detector Non-linearity: No (USB2E7196)
Correct for Stray Light: No (USB2E7196)
Number of Pixels in Processed Spectrum: 2048
>>>>>Begin Processed Spectral Data<<<<<
339.09	0.00
339.48	199.30
339.86	200.60
340.24	202.15
340.63	202.40
341.01	210.20
341.39	205.45
341.78	207.90
342.16	209.55
342.54	209.80
342.93	198.56
343.31	208.64
343.69	209.15
344.07	209.60
344.46	210.02
344.84	210.45
345.22	210.46
345.60	210.74
345.99	210.87
346.37	210.80
346.75	210.77
347.13	210.84
347.52	210.86
347.90	211.02
348.28	210.96
348.66	210.94
349.05	210.83
349.43	210.84
349.81	210.85
350.19	210.87
350.57	210.92
350.96	210.87
351.34	210.85
351.72	210.86
352.10	210.89
352.48	210.91
352.87	210.92
353.25	210.95
353.63	210.96
354.01	210.99
354.39	211.18
354.77	211.24
355.15	211.33
355.54	211.24
355.92	211.23
356.30	211.28
356.68	211.56
357.06	211.62
357.44	211.59
357.82	211.62
358.20	211.66
358.58	211.67
358.97	211.71
359.35	211.86
359.73	211.99
360.11	212.05
360.49	212.09
360.87	212.04
361.25	212.10
361.63	212.30
362.01	212.35
362.39	212.37
362.77	212.50
363.15	212.58
363.53	212.74
363.91	212.77
364.29	212.83
364.67	212.57
365.05	212.68
365.43	212.77
365.81	212.88
366.19	213.05
366.57	213.22
366.95	213.31
367.33	213.19
367.71	213.18
368.09	213.26
368.47	213.32
368.85	213.42
369.23	213.55
369.61	213.38
369.99	213.46
370.37	213.51
370.75	213.68
371.13	213.55
371.51	213.46
371.89	213.53
372.27	213.54
372.65	213.56
373.03	213.52
373.41	213.52
373.78	213.47
374.16	213.29
374.54	213.20
374.92	213.09
375.30	213.07
375.68	213.00
376.06	212.99
376.44	212.89
376.82	212.85
377.19	212.74
377.57	212.68
377.95	212.56
378.33	212.49
378.71	212.22
379.09	212.19
379.47	212.25
379.84	212.13
380.22	211.98
380.60	211.84
380.98	211.78
381.36	211.67
381.73	211.58
382.11	211.59
382.49	211.52
382.87	211.40
383.25	211.37
383.62	211.71
384.00	211.55
384.38	211.50
384.76	211.47
385.13	211.54
385.51	211.53
385.89	211.42
386.27	211.35
386.64	211.39
387.02	211.32
387.40	211.21
387.78	211.25
388.15	211.27
388.53	211.25
388.91	211.18
389.29	211.17
389.66	211.18
390.04	211.20
390.42	211.18
390.79	211.20
391.17	211.22
391.55	210.86
391.92	210.85
392.30	210.93
392.68	210.92
393.05	210.91
393.43	210.90
393.81	210.95
394.18	210.87
394.56	210.77
394.94	210.84
395.31	210.69
395.69	210.72
396.06	210.76
396.44	210.74
396.82	210.72
397.19	210.86
397.57	210.77
397.95	210.73
398.32	210.69
398.70	210.73
399.07	210.76
399.45	210.70
399.82	210.71
400.20	210.63
400.58	210.57
400.95	210.42
401.33	210.46
401.70	210.67
402.08	210.75
402.45	210.84
402.83	210.90
403.20	211.03
403.58	211.02
403.95	211.11
404.33	211.19
404.71	211.20
405.08	211.42
405.46	211.55
405.83	211.60
406.21	211.65
406.58	211.73
406.96	211.77
407.33	211.89
407.70	212.10
408.08	212.46
408.45	212.62
408.83	212.84
409.20	212.97
409.58	212.87
409.95	213.17
410.33	213.39
410.70	213.56
411.08	213.83
411.45	214.10
411.82	214.20
412.20	214.61
412.57	215.13
412.95	215.21
413.32	215.56
413.69	215.93
414.07	216.33
414.44	216.78
414.82	217.25
415.19	217.80
415.56	218.23
415.94	218.65
416.31	219.38
416.68	219.94
417.06	220.72
417.43	221.60
417.81	222.38
418.18	223.18
418.55	224.07
418.93	225.01
419.30	225.97
419.67	227.08
420.04	228.07
420.42	229.04
420.79	230.56
421.16	231.87
421.54	233.35
421.91	234.76
422.28	236.21
422.66	237.70
423.03	239.45
423.40	241.04
423.77	242.62
424.15	244.15
424.52	246.01
424.89	247.94
425.26	249.75
425.64	251.39
426.01	253.28
426.38	255.22
426.75	257.33
427.13	259.45
427.50	261.69
427.87	263.97
428.24	266.36
428.61	268.34
428.99	270.94
429.36	273.52
429.73	276.18
430.10	278.82
430.47	281.60
430.85	284.09
431.22	287.05
431.59	290.43
431.96	293.52
432.33	296.79
432.70	299.86
433.08	303.59
433.45	307.19
433.82	310.73
434.19	314.68
434.56	318.52
434.93	322.20
435.30	325.85
435.68	330.06
436.05	334.04
436.42	338.05
436.79	341.66
437.16	345.60
437.53	349.74
437.90	353.74
438.27	357.80
438.64	361.99
439.01	365.82
439.38	369.22
439.75	372.67
440.13	376.56
440.50	380.35
440.87	383.35
441.24	386.44
441.61	389.80
441.98	392.37
442.35	395.19
442.72	398.15
443.09	401.13
443.46	402.83
443.83	404.10
444.20	405.20
444.57	406.67
444.94	407.43
445.31	408.39
445.68	409.64
446.05	409.99
446.42	409.91
446.79	409.69
447.16	409.13
447.53	408.85
447.90	407.33
448.27	405.83
448.64	403.89
449.01	402.51
449.37	399.94
449.74	397.43
450.11	394.79
450.48	391.38
450.85	387.84
451.22	384.84
451.59	382.01
451.96	379.37
452.33	375.72
452.70	372.43
453.07	368.29
453.43	363.91
453.80	360.01
454.17	356.27
454.54	352.77
454.91	349.04
455.28	345.40
455.65	342.04
456.02	339.14
456.38	336.19
456.75	332.54
457.12	329.59
457.49	326.60
457.86	323.48
458.23	321.18
458.59	318.53
458.96	315.88
459.33	313.53
459.70	311.08
460.07	309.27
460.43	307.05
460.80	305.13
461.17	303.46
461.54	301.62
461.91	299.69
462.27	297.75
462.64	296.21
463.01	294.49
463.38	292.88
463.74	290.68
464.11	289.09
464.48	287.93
464.85	286.44
465.21	285.40
465.58	284.22
465.95	282.69
466.32	281.58
466.68	280.33
467.05	279.10
467.42	277.99
467.78	276.74
468.15	275.59
468.52	274.70
468.88	273.50
469.25	272.49
469.62	271.76
469.98	270.96
470.35	270.14
470.72	269.25
471.08	268.37
471.45	267.68
471.82	267.11
472.18	266.32
472.55	265.81
472.92	265.05
473.28	264.45
473.65	263.96
474.02	263.37
474.38	263.02
474.75	262.74
475.11	262.19
475.48	261.85
475.85	261.55
476.21	261.22
476.58	260.95
476.94	260.79
477.31	260.56
477.67	260.33
478.04	260.19
478.41	260.17
478.77	260.37
479.14	260.20
479.50	260.02
479.87	259.95
480.23	259.94
480.60	259.88
480.96	259.77
481.33	259.96
481.69	259.98
482.06	259.97
482.42	260.00
482.79	260.20
483.15	260.28
483.52	260.55
483.88	260.71
484.25	260.86
484.61	261.05
484.98	261.22
485.34	261.63
485.71	262.03
486.07	262.32
486.44	262.39
486.80	262.79
487.17	263.25
487.53	263.79
487.90	264.31
488.26	265.17
488.62	265.95
488.99	266.40
489.35	267.06
489.72	267.80
490.08	268.51
490.44	269.26
490.81	270.16
491.17	271.00
491.54	271.98
491.90	272.95
492.26	274.00
492.63	275.09
492.99	275.97
493.36	277.02
493.72	278.27
494.08	279.53
494.45	280.89
494.81	282.30
495.17	283.62
495.54	285.10
495.90	286.32
496.26	287.68
496.63	289.21
496.99	290.81
497.35	292.43
497.72	294.10
498.08	295.79
498.44	297.62
498.80	299.44
499.17	301.25
499.53	303.17
499.89	305.22
500.26	307.26
500.62	309.35
500.98	311.48
501.34	313.55
501.71	315.84
502.07	318.12
502.43	320.30
502.79	322.65
503.16	325.00
503.52	327.49
503.88	329.88
504.24	332.53
504.60	335.19
504.97	337.97
505.33	340.67
505.69	343.56
506.05	346.33
506.41	349.16
506.78	351.98
507.14	354.79
507.50	357.56
507.86	360.49
508.22	363.66
508.59	366.70
508.95	369.85
509.31	373.01
509.67	376.30
510.03	379.68
510.39	382.89
510.75	386.31
511.12	389.61
511.48	393.28
511.84	396.66
512.20	400.04
512.56	403.46
512.92	407.01
513.28	410.63
513.64	414.24
514.00	417.98
514.37	421.70
514.73	425.69
515.09	429.62
515.45	433.42
515.81	437.25
516.17	441.16
516.53	445.08
516.89	448.93
517.25	452.80
517.61	456.84
517.97	460.96
518.33	464.93
518.69	469.05
519.05	473.12
519.41	477.32
519.77	481.83
520.13	486.19
520.49	490.38
520.85	494.59
521.21	498.99
521.57	503.37
521.93	507.68
522.29	512.01
522.65	516.32
523.01	520.83
523.37	525.15
523.73	529.60
524.09	534.12
524.45	538.70
524.81	543.10
525.17	547.56
525.53	552.16
525.89	556.71
526.25	561.51
526.61	565.97
526.97	570.56
527.33	575.04
527.68	579.91
528.04	584.58
528.40	589.23
528.76	594.00
529.12	598.65
529.48	603.61
529.84	608.44
530.20	613.28
530.56	617.98
530.91	623.00
531.27	628.01
531.63	632.88
531.99	637.61
532.35	642.55
532.71	647.39
533.07	652.35
533.42	657.60
533.78	662.35
534.14	667.29
534.50	671.88
534.86	676.81
535.21	681.21
535.57	686.14
535.93	690.74
536.29	695.28
536.65	699.91
537.00	704.21
537.36	708.53
537.72	712.90
538.08	717.41
538.44	721.73
538.79	725.91
539.15	730.00
539.51	734.34
539.87	738.77
540.22	743.29
540.58	747.55
540.94	751.42
541.29	755.25
541.65	759.08
542.01	763.20
542.37	766.96
542.72	770.79
543.08	774.46
543.44	778.30
543.79	781.89
544.15	785.47
544.51	789.26
544.87	793.05
545.22	796.67
545.58	800.08
545.94	803.27
546.29	806.41
546.65	809.69
547.01	812.90
547.36	815.85
547.72	818.55
548.07	821.26
548.43	823.94
548.79	826.75
549.14	829.32
549.50	832.06
549.86	834.50
550.21	837.02
550.57	839.59
550.92	841.77
551.28	843.96
551.64	846.13
551.99	848.39
552.35	850.25
552.70	852.25
553.06	854.09
553.41	856.05
553.77	858.13
554.13	859.93
554.48	861.75
554.84	863.60
555.19	865.35
555.55	867.05
555.90	868.48
556.26	869.72
556.61	871.22
556.97	872.30
557.32	873.60
557.68	874.75
558.03	875.80
558.39	877.19
558.74	878.67
559.10	879.84
559.45	880.85
559.81	882.08
560.16	883.03
560.52	884.30
560.87	885.28
561.23	885.83
561.58	887.02
561.94	887.63
562.29	887.97
562.64	888.60
563.00	889.10
563.35	890.00
563.71	891.08
564.06	891.84
564.42	892.68
564.77	893.34
565.12	894.14
565.48	894.96
565.83	895.56
566.19	895.90
566.54	896.02
566.89	896.25
567.25	896.71
567.60	896.92
567.96	897.13
568.31	897.49
568.66	897.67
569.02	897.27
569.37	896.88
569.72	896.83
570.08	896.59
570.43	896.16
570.78	895.57
571.14	894.71
571.49	893.98
571.84	893.47
572.20	892.69
572.55	891.93
572.90	890.71
573.26	889.64
573.61	888.56
573.96	887.82
574.31	886.62
574.67	885.02
575.02	883.77
575.37	882.32
575.72	880.52
576.08	879.42
576.43	878.03
576.78	876.97
577.13	875.74
577.49	874.46
577.84	873.42
578.19	872.36
578.54	871.56
578.90	870.44
579.25	868.99
579.60	867.65
579.95	866.03
580.30	864.90
580.66	863.51
581.01	862.21
581.36	860.59
581.71	859.09
582.06	858.03
582.42	856.57
582.77	854.92
583.12	853.83
583.47	852.49
583.82	851.33
584.17	849.90
584.53	848.81
584.88	847.30
585.23	845.64
585.58	844.04
585.93	842.22
586.28	840.96
586.63	839.52
586.98	838.08
587.34	836.81
587.69	835.05
588.04	833.59
588.39	831.99
588.74	830.42
589.09	829.09
589.44	827.24
589.79	825.75
590.14	824.35
590.49	822.63
590.84	820.73
591.19	819.24
591.54	817.65
591.89	815.32
592.25	813.75
592.60	812.13
592.95	810.28
593.30	808.34
593.65	805.99
594.00	803.91
594.35	802.94
594.70	800.97
595.05	799.19
595.40	797.36
595.75	795.34
596.10	793.74
596.45	792.07
596.80	790.70
597.15	789.08
597.50	787.26
597.85	785.60
598.19	783.89
598.54	781.95
598.89	780.09
599.24	778.90
599.59	777.04
599.94	775.28
600.29	773.52
600.64	771.90
600.99	770.41
601.34	768.96
601.69	766.45
602.04	764.55
602.39	762.95
602.74	761.30
603.08	759.95
603.43	758.51
603.78	756.64
604.13	754.65
604.48	752.89
604.83	751.65
605.18	750.21
605.53	748.56
605.87	746.67
606.22	745.04
606.57	743.18
606.92	741.47
607.27	739.72
607.62	738.03
607.96	736.61
608.31	735.14
608.66	733.20
609.01	731.20
609.36	729.50
609.70	727.53
610.05	725.49
610.40	723.43
610.75	721.12
611.10	719.43
611.44	717.13
611.79	714.89
612.14	712.40
612.49	709.70
612.83	707.40
613.18	705.25
613.53	702.95
613.88	700.38
614.22	698.06
614.57	695.69
614.92	693.24
615.27	690.65
615.61	688.01
615.96	685.73
616.31	683.60
616.65	681.38
617.00	678.90
617.35	676.57
617.70	674.00
618.04	671.56
618.39	668.71
618.74	666.57
619.08	664.00
619.43	661.57
619.78	659.43
620.12	656.95
620.47	654.58
620.82	651.98
621.16	649.48
621.51	646.95
621.85	644.47
622.20	641.97
622.55	639.30
622.89	636.64
623.24	634.07
623.59	631.32
623.93	628.92
624.28	626.63
624.62	624.48
624.97	622.30
625.32	619.90
625.66	617.50
626.01	614.95
626.35	612.74
626.70	610.32
627.04	608.18
627.39	606.07
627.73	603.80
628.08	601.64
628.43	599.35
628.77	597.04
629.12	594.72
629.46	592.67
629.81	590.56
630.15	588.52
630.50	586.09
630.84	583.65
631.19	581.15
631.53	578.75
631.88	575.90
632.22	573.23
632.57	571.07
632.91	568.89
633.26	566.71
633.60	564.42
633.95	562.16
634.29	559.53
634.64	557.31
634.98	554.84
635.32	552.68
635.67	550.54
636.01	548.40
636.36	546.17
636.70	543.93
637.05	541.68
637.39	539.50
637.73	537.60
638.08	535.86
638.42	533.91
638.77	532.05
639.11	530.16
639.45	528.11
639.80	525.79
640.14	523.54
640.49	521.39
640.83	519.21
641.17	517.12
641.52	515.11
641.86	512.83
642.20	510.85
642.55	508.42
642.89	506.18
643.23	504.00
643.58	502.06
643.92	499.75
644.26	497.66
644.61	495.61
644.95	493.45
645.29	491.21
645.64	488.99
645.98	486.63
646.32	484.57
646.66	482.40
647.01	480.39
647.35	478.44
647.69	476.22
648.04	474.22
648.38	471.99
648.72	469.90
649.06	467.75
649.41	465.65
649.75	463.64
650.09	461.64
650.43	459.51
650.78	457.11
651.12	455.09
651.46	452.89
651.80	450.85
652.14	448.85
652.49	446.84
652.83	444.69
653.17	442.55
653.51	440.37
653.85	438.50
654.20	436.54
654.54	434.40
654.88	432.31
655.22	430.36
655.56	428.45
655.90	426.37
656.25	424.36
656.59	422.42
656.93	420.54
657.27	418.69
657.61	416.70
657.95	415.05
658.29	413.18
658.64	411.46
658.98	409.36
659.32	407.30
659.66	405.35
660.00	403.57
660.34	401.76
660.68	399.86
661.02	397.95
661.36	395.99
661.70	394.37
662.05	392.82
662.39	391.11
662.73	389.55
663.07	388.18
663.41	386.70
663.75	384.92
664.09	383.25
664.43	381.48
664.77	379.80
665.11	378.02
665.45	376.41
665.79	374.85
666.13	373.35
666.47	371.90
666.81	370.41
667.15	368.93
667.49	367.55
667.83	366.39
668.17	364.92
668.51	363.66
668.85	362.31
669.19	361.00
669.53	359.54
669.87	357.95
670.21	356.39
670.55	354.95
670.89	353.86
671.23	352.62
671.57	351.41
671.91	350.26
672.25	349.08
672.58	347.96
672.92	346.62
673.26	345.47
673.60	344.29
673.94	343.23
674.28	342.05
674.62	340.98
674.96	339.62
675.30	338.56
675.64	337.41
675.97	336.15
676.31	334.93
676.65	333.74
676.99	332.90
677.33	331.69
677.67	330.55
678.01	329.24
678.34	328.20
678.68	327.11
679.02	326.00
679.36	324.89
679.70	323.74
680.04	322.71
680.37	321.51
680.71	320.44
681.05	319.29
681.39	318.18
681.73	317.05
682.06	316.08
682.40	315.09
682.74	314.06
683.08	313.25
683.42	312.17
683.75	311.25
684.09	310.17
684.43	309.23
684.77	308.15
685.10	307.25
685.44	306.12
685.78	305.17
686.12	304.18
686.45	303.24
686.79	302.19
687.13	301.39
687.46	300.55
687.80	299.62
688.14	298.65
688.48	297.81
688.81	296.89
689.15	296.02
689.49	295.03
689.82	294.07
690.16	292.92
690.50	292.08
690.83	291.15
691.17	290.14
691.51	289.29
691.84	288.50
692.18	287.72
692.52	286.92
692.85	286.18
693.19	285.55
693.52	284.76
693.86	284.02
694.20	283.19
694.53	282.39
694.87	281.60
695.21	280.91
695.54	280.05
695.88	279.16
696.21	278.39
696.55	277.79
696.88	277.07
697.22	276.31
697.56	275.64
697.89	274.83
698.23	274.25
698.56	273.45
698.90	272.90
699.23	272.10
699.57	271.49
699.90	270.71
700.24	269.82
700.58	269.12
700.91	268.53
701.25	268.09
701.58	267.50
701.92	266.94
702.25	266.24
702.59	265.64
702.92	265.15
703.26	264.46
703.59	263.90
703.93	263.72
704.26	263.18
704.60	262.60
704.93	262.15
705.26	261.46
705.60	261.04
705.93	260.35
706.27	259.96
706.60	259.54
706.94	259.32
707.27	258.84
707.61	258.37
707.94	257.83
708.27	257.09
708.61	256.58
708.94	256.06
709.28	255.60
709.61	255.13
709.94	254.68
710.28	254.30
710.61	253.76
710.95	252.89
711.28	252.75
711.61	252.23
711.95	251.77
712.28	251.34
712.61	250.85
712.95	250.62
713.28	250.25
713.61	249.70
713.95	249.07
714.28	248.66
714.61	248.22
714.95	247.80
715.28	247.39
715.61	246.95
715.95	246.60
716.28	246.15
716.61	245.86
716.95	245.55
717.28	245.08
717.61	244.74
717.94	244.39
718.28	243.69
718.61	243.39
718.94	243.10
719.27	242.79
719.61	242.43
719.94	241.97
720.27	241.46
720.60	241.11
720.94	240.82
721.27	240.62
721.60	240.39
721.93	240.09
722.27	239.93
722.60	239.71
722.93	239.39
723.26	239.18
723.59	238.78
723.93	238.42
724.26	238.26
724.59	237.97
724.92	237.75
725.25	237.69
725.59	237.42
725.92	237.21
726.25	237.01
726.58	236.86
726.91	236.67
727.24	236.57
727.57	236.41
727.91	236.09
728.24	235.89
728.57	235.62
728.90	235.51
729.23	235.18
729.56	235.14
729.89	234.83
730.22	234.61
730.55	234.45
730.89	234.20
731.22	233.90
731.55	233.65
731.88	233.44
732.21	233.11
732.54	232.87
732.87	232.59
733.20	232.33
733.53	232.11
733.86	231.89
734.19	231.63
734.52	231.53
734.85	231.58
735.18	231.31
735.51	231.16
735.84	230.87
736.17	230.77
736.50	230.34
736.83	230.69
737.16	230.50
737.49	230.35
737.82	230.21
738.15	230.12
738.48	229.91
738.81	229.73
739.14	229.53
739.47	229.43
739.80	229.26
740.13	229.13
740.46	228.91
740.79	228.64
741.12	228.49
741.45	228.07
741.78	227.69
742.11	227.67
742.44	227.45
742.77	227.38
743.10	227.16
743.43	227.02
743.75	226.49
744.08	226.79
744.41	226.59
744.74	226.40
745.07	226.23
745.40	226.20
745.73	226.18
746.06	226.09
746.39	225.87
746.71	225.69
747.04	225.51
747.37	225.37
747.70	225.36
748.03	225.19
748.36	225.26
748.68	225.09
749.01	224.86
749.34	224.69
749.67	224.53
750.00	224.42
750.33	224.51
750.65	224.36
750.98	223.72
751.31	223.65
751.64	223.63
751.97	223.66
752.29	223.42
752.62	223.13
752.95	222.99
753.28	222.88
753.60	222.83
753.93	222.78
754.26	222.67
754.59	222.39
754.91	222.29
755.24	222.08
755.57	221.95
755.90	221.73
756.22	221.62
756.55	221.49
756.88	221.30
757.20	220.97
757.53	220.71
757.86	220.65
758.19	220.56
758.51	220.38
758.84	220.14
759.17	220.03
759.49	220.01
759.82	220.03
760.15	220.01
760.47	219.84
760.80	219.66
761.13	219.66
761.45	219.61
761.78	219.47
762.11	219.42
762.43	219.40
762.76	219.33
763.08	219.28
763.41	219.21
763.74	219.14
764.06	219.06
764.39	219.05
764.71	218.95
765.04	218.78
765.37	218.63
765.69	218.52
766.02	218.47
766.34	218.32
766.67	218.20
767.00	218.13
767.32	218.30
767.65	218.44
767.97	218.26
768.30	218.28
768.62	218.18
768.95	218.01
769.27	217.93
769.60	217.92
769.92	217.82
770.25	217.69
770.57	217.63
770.90	217.55
771.22	217.45
771.55	217.35
771.87	217.30
772.20	217.32
772.52	217.48
772.85	217.83
773.17	217.80
773.50	217.73
773.82	217.56
774.15	217.27
774.47	217.00
774.80	216.98
775.12	216.88
775.45	216.82
775.77	216.82
776.09	216.75
776.42	216.70
776.74	216.79
777.07	216.71
777.39	216.63
777.72	216.56
778.04	216.57
778.36	216.60
778.69	216.56
779.01	216.51
779.33	216.25
779.66	215.81
779.98	215.65
780.31	215.57
780.63	215.69
780.95	215.74
781.28	215.70
781.60	215.56
781.92	215.46
782.25	215.46
782.57	215.42
782.89	215.31
783.22	215.24
783.54	215.07
783.86	215.09
784.19	215.07
784.51	215.15
784.83	214.99
785.16	214.92
785.48	214.86
785.80	214.76
786.12	214.70
786.45	214.65
786.77	214.68
787.09	214.64
787.42	214.51
787.74	214.45
788.06	214.42
788.38	214.39
788.71	214.43
789.03	214.42
789.35	214.46
789.67	214.43
789.99	214.42
790.32	214.34
790.64	214.38
790.96	214.59
791.28	214.44
791.61	214.48
791.93	214.44
792.25	214.41
792.57	214.58
792.89	214.51
793.21	214.52
793.54	214.47
793.86	214.40
794.18	214.35
794.50	214.25
794.82	214.24
795.14	214.30
795.47	214.20
795.79	214.15
796.11	213.96
796.43	213.96
796.75	213.97
797.07	213.95
797.39	213.81
797.71	213.57
798.04	213.55
798.36	213.58
798.68	213.55
799.00	213.59
799.32	213.45
799.64	213.48
799.96	213.37
800.28	213.46
800.60	213.43
800.92	213.47
801.24	213.42
801.56	213.38
801.89	213.32
802.21	213.34
802.53	213.27
802.85	213.37
803.17	213.54
803.49	213.45
803.81	213.41
804.13	213.40
804.45	213.30
804.77	213.36
805.09	213.29
805.41	213.19
805.73	213.05
806.05	212.98
806.37	212.90
806.69	212.92
807.01	212.82
807.33	212.82
807.65	212.65
807.97	212.83
808.28	212.84
808.60	212.83
808.92	212.85
809.24	213.07
809.56	212.99
809.88	212.81
810.20	212.72
810.52	212.70
810.84	212.67
811.16	212.67
811.48	212.63
811.80	212.75
812.12	212.74
812.43	212.86
812.75	212.84
813.07	212.82
813.39	212.80
813.71	212.76
814.03	212.69
814.35	212.70
814.67	212.49
814.98	212.37
815.30	212.31
815.62	212.23
815.94	211.99
816.26	212.01
816.58	211.97
816.89	212.06
817.21	212.09
817.53	212.12
817.85	212.13
818.17	212.03
818.48	211.86
818.80	211.95
819.12	211.93
819.44	211.83
819.76	211.83
820.07	211.83
820.39	211.83
820.71	211.84
821.03	211.84
821.34	211.86
821.66	211.99
821.98	212.05
822.30	212.02
822.61	212.19
822.93	212.10
823.25	212.08
823.57	212.05
823.88	212.15
824.20	212.09
824.52	212.13
824.83	212.15
825.15	212.15
825.47	212.11
825.79	212.04
826.10	212.03
826.42	211.97
826.74	212.07
827.05	212.04
827.37	212.04
827.69	212.02
828.00	212.07
828.32	212.06
828.64	211.99
828.95	212.11
829.27	212.00
829.58	211.98
829.90	211.97
830.22	211.96
830.53	211.81
830.85	211.73
831.17	211.65
831.48	211.55
831.80	211.57
832.11	211.49
832.43	211.45
832.75	211.48
833.06	211.65
833.38	211.50
833.69	211.54
834.01	211.56
834.32	211.53
834.64	211.47
834.96	211.41
835.27	211.41
835.59	211.38
835.90	211.34
836.22	211.36
836.53	211.35
836.85	211.34
837.16	211.64
837.48	211.79
837.79	211.86
838.11	211.97
838.42	211.93
838.74	212.01
839.05	212.04
839.37	211.96
839.68	211.81
840.00	211.77
840.31	211.79
840.63	211.78
840.94	211.76
841.26	211.75
841.57	211.74
841.88	211.74
842.20	211.61
842.51	211.52
842.83	211.57
843.14	211.85
843.46	211.83
843.77	211.68
844.08	211.55
844.40	211.48
844.71	211.39
845.03	211.39
845.34	211.36
845.65	211.30
845.97	211.35
846.28	211.37
846.60	211.43
846.91	211.40
847.22	211.35
847.54	211.42
847.85	211.45
848.16	211.47
848.48	211.44
848.79	211.68
849.10	211.78
849.42	211.77
849.73	211.43
850.04	211.44
850.36	211.39
850.67	211.49
850.98	211.51
851.30	211.57
851.61	211.52
851.92	211.53
852.23	211.66
852.55	211.70
852.86	211.75
853.17	211.81
853.49	211.90
853.80	212.02
854.11	212.09
854.42	212.14
854.74	212.02
855.05	212.09
855.36	211.84
855.67	211.86
855.99	211.80
856.30	212.31
856.61	212.31
856.92	212.25
857.23	212.20
857.55	212.13
857.86	212.11
858.17	212.17
858.48	212.09
858.79	211.98
859.11	211.99
859.42	211.88
859.73	211.82
860.04	211.78
860.35	211.64
860.66	211.51
860.98	211.45
861.29	211.54
861.60	211.51
861.91	211.64
862.22	211.57
862.53	211.56
862.84	211.08
863.16	211.23
863.47	211.17
863.78	211.15
864.09	211.20
864.40	211.20
864.71	211.22
865.02	211.31
865.33	211.33
865.64	211.29
865.95	211.27
866.27	211.51
866.58	211.45
866.89	211.50
867.20	211.53
867.51	211.59
867.82	211.61
868.13	211.66
868.44	211.52
868.75	211.59
869.06	211.62
869.37	211.72
869.68	211.51
869.99	211.56
870.30	211.62
870.61	211.60
870.92	211.52
871.23	211.51
871.54	211.53
871.85	211.55
872.16	211.58
872.47	211.59
872.78	211.39
873.09	211.42
873.40	211.40
873.71	211.35
874.02	211.31
874.33	211.30
874.64	211.18
874.95	211.27
875.26	211.19
875.56	211.21
875.87	211.11
876.18	211.06
876.49	211.43
876.80	211.39
877.11	211.37
877.42	211.44
877.73	211.45
878.04	211.37
878.35	211.44
878.66	211.46
878.96	211.51
879.27	211.45
879.58	211.42
879.89	211.38
880.20	211.51
880.51	211.48
880.82	211.40
881.12	211.54
881.43	211.41
881.74	211.36
882.05	211.26
882.36	211.33
882.67	211.41
882.97	211.00
883.28	210.93
883.59	210.91
883.90	210.97
884.21	211.00
884.51	210.97
884.82	210.85
885.13	210.82
885.44	210.77
885.74	210.77
886.05	210.76
886.36	210.79
886.67	210.70
886.98	210.85
887.28	210.90
887.59	210.86
887.90	210.97
888.20	210.96
888.51	211.13
888.82	211.11
889.13	211.20
889.43	211.52
889.74	211.54
890.05	211.54
890.35	211.45
890.66	211.39
890.97	211.33
891.28	211.37
891.58	211.36
891.89	211.37
892.20	211.37
892.50	211.33
892.81	211.32
893.12	211.26
893.42	211.09
893.73	211.14
894.04	211.15
894.34	211.07
894.65	211.06
894.95	210.98
895.26	210.99
895.57	211.08
895.87	210.73
896.18	210.79
896.48	210.80
896.79	210.83
897.10	210.85
897.40	210.95
897.71	210.93
898.01	210.97
898.32	211.01
898.63	211.00
898.93	211.08
899.24	211.10
899.54	211.11
899.85	211.14
900.15	211.06
900.46	211.01
900.76	211.04
901.07	211.08
901.38	211.04
901.68	211.09
901.99	210.92
902.29	210.97
902.60	210.94
902.90	210.89
903.21	210.89
903.51	210.84
903.82	210.87
904.12	210.90
904.43	210.93
904.73	210.91
905.03	210.94
905.34	211.20
905.64	211.20
905.95	211.20
906.25	211.13
906.56	211.11
906.86	211.09
907.17	211.18
907.47	211.15
907.77	211.11
908.08	211.03
908.38	211.01
908.69	211.02
908.99	211.12
909.30	211.20
909.60	211.21
909.90	211.29
910.21	211.21
910.51	211.14
910.81	211.13
911.12	211.17
911.42	211.19
911.73	210.94
912.03	210.93
912.33	210.98
912.64	210.98
912.94	210.93
913.24	210.89
913.55	210.75
913.85	210.75
914.15	210.86
914.46	210.90
914.76	210.91
915.06	210.91
915.37	210.74
915.67	210.68
915.97	210.69
916.27	210.65
916.58	210.69
916.88	210.67
917.18	210.64
917.49	210.85
917.79	210.78
918.09	210.81
918.39	210.92
918.70	210.94
919.00	210.91
919.30	211.15
919.60	211.07
919.91	211.07
920.21	211.14
920.51	211.00
920.81	210.97
921.12	211.07
921.42	211.07
921.72	211.17
922.02	211.21
922.32	211.22
922.63	211.25
922.93	211.38
923.23	211.38
923.53	211.38
923.83	211.17
924.13	211.22
924.44	211.21
924.74	211.22
925.04	211.34
925.34	211.40
925.64	211.26
925.94	211.40
926.24	211.62
926.55	211.55
926.85	211.54
927.15	211.56
927.45	211.51
927.75	211.55
928.05	211.53
928.35	211.43
928.65	211.49
928.95	211.47
929.26	211.35
929.56	211.47
929.86	211.46
930.16	211.40
930.46	211.39
930.76	211.34
931.06	211.15
931.36	210.95
931.66	211.02
931.96	211.03
932.26	210.99
932.56	210.78
932.86	210.85
933.16	210.96
933.46	210.90
933.76	210.80
934.06	210.87
934.36	211.05
934.66	211.10
934.96	211.04
935.26	211.12
935.56	211.14
935.86	211.03
936.16	211.02
936.46	211.06
936.76	211.08
937.06	211.06
937.36	211.10
937.66	211.12
937.96	211.06
938.26	211.06
938.56	211.09
938.86	211.13
939.16	211.13
939.46	211.18
939.76	211.29
940.06	211.35
940.35	211.14
940.65	211.01
940.95	211.01
941.25	210.93
941.55	210.86
941.85	210.90
942.15	211.01
942.45	211.07
942.75	210.98
943.04	210.99
943.34	211.03
943.64	211.00
943.94	211.03
944.24	211.04
944.54	211.00
944.84	210.97
945.13	210.97
945.43	210.87
945.73	210.80
946.03	210.66
946.33	210.61
946.62	210.67
946.92	210.64
947.22	210.70
947.52	210.78
947.82	210.82
948.11	210.79
948.41	210.70
948.71	210.65
949.01	210.72
949.31	210.70
949.60	210.67
949.90	210.80
950.20	210.70
950.50	210.71
950.79	210.67
951.09	210.68
951.39	210.70
951.69	210.75
951.98	210.76
952.28	210.86
952.58	210.86
952.87	210.86
953.17	210.89
953.47	210.85
953.76	210.79
954.06	210.72
954.36	210.64
954.66	210.61
954.95	210.67
955.25	210.65
955.55	210.61
955.84	210.56
956.14	210.60
956.44	210.73
956.73	210.70
957.03	210.70
957.32	210.69
957.62	210.69
957.92	210.72
958.21	210.75
958.51	211.16
958.81	211.19
959.10	211.23
959.40	211.27
959.69	211.32
959.99	211.31
960.29	211.35
960.58	211.41
960.88	211.53
961.17	211.50
961.47	211.58
961.76	211.57
962.06	211.57
962.36	211.47
962.65	211.41
962.95	211.37
963.24	211.36
963.54	211.41
963.83	211.36
964.13	211.38
964.42	211.28
964.72	210.95
965.01	210.95
965.31	210.89
965.60	210.78
965.90	210.99
966.19	210.99
966.49	210.95
966.78	210.85
967.08	210.79
967.37	210.85
967.67	210.72
967.96	210.78
968.26	210.85
968.55	210.81
968.85	210.83
969.14	210.89
969.43	210.90
969.73	210.88
970.02	210.81
970.32	210.85
970.61	210.93
970.91	210.80
971.20	210.79
971.49	210.75
971.79	210.82
972.08	210.49
972.38	210.50
972.67	210.51
972.96	210.59
973.26	210.55
973.55	210.58
973.85	210.61
974.14	210.54
974.43	210.55
974.73	210.59
975.02	210.58
975.31	210.59
975.61	210.55
975.90	210.47
976.19	210.50
976.49	210.51
976.78	210.38
977.07	210.38
977.37	210.42
977.66	210.52
977.95	210.47
978.24	210.54
978.54	210.65
978.83	210.62
979.12	210.62
979.42	210.63
979.71	210.52
980.00	210.51
980.29	210.55
980.59	210.49
980.88	210.58
981.17	210.55
981.46	210.49
981.76	210.56
982.05	210.73
982.34	210.79
982.63	210.78
982.93	210.86
983.22	211.03
983.51	211.07
983.80	211.07
984.09	211.14
984.39	211.12
984.68	211.04
984.97	211.06
985.26	210.99
985.55	211.06
985.85	210.99
986.14	211.03
986.43	211.10
986.72	211.09
987.01	210.99
987.30	211.00
987.59	211.00
987.89	211.01
988.18	210.91
988.47	210.78
988.76	210.72
989.05	210.70
989.34	210.57
989.63	210.60
989.92	210.62
990.22	210.53
990.51	210.50
990.80	210.48
991.09	210.46
991.38	210.60
991.67	210.52
991.96	210.51
992.25	210.54
992.54	210.42
992.83	210.39
993.12	210.31
993.41	210.40
993.70	210.59
993.99	210.61
994.28	210.64
994.58	210.75
994.87	210.80
995.16	210.78
995.45	210.74
995.74	210.65
996.03	210.69
996.32	210.81
996.61	210.90
996.90	210.90
997.19	210.87
997.48	210.87
997.77	210.89
998.06	210.87
998.34	210.80
998.63	210.90
998.92	210.95
999.21	211.09
999.50	211.05
999.79	210.86
1000.08	210.89
1000.37	210.91
1000.66	210.91
1000.95	210.87
1001.24	210.91
1001.53	210.97
1001.82	210.90
1002.11	210.78
1002.40	210.81
1002.68	210.88
1002.97	211.13
1003.26	211.15
1003.55	210.99
1003.84	211.02
1004.13	211.16
1004.42	211.17
1004.71	211.09
1004.99	211.06
1005.28	211.10
1005.57	211.13
1005.86	211.13
1006.15	211.03
1006.44	211.00
1006.72	211.08
1007.01	211.09
1007.30	211.10
1007.59	211.12
1007.88	211.14
1008.17	211.19
1008.45	211.14
1008.74	211.05
1009.03	210.85
1009.32	210.86
1009.60	210.92
1009.89	210.88
1010.18	210.87
1010.47	210.92
1010.76	210.92
1011.04	210.93
1011.33	211.00
1011.62	210.99
1011.91	211.03
1012.19	211.05
1012.48	211.03
1012.77	210.99
1013.05	211.13
1013.34	211.16
1013.63	211.09
1013.92	211.12
1014.20	211.11
1014.49	211.11
1014.78	211.11
1015.06	211.04
1015.35	211.03
1015.64	211.07
1015.92	211.17
1016.21	211.03
1016.50	211.01
1016.78	211.14
1017.07	211.10
1017.36	210.94
1017.64	210.88
1017.93	210.91
1018.22	210.95
1018.50	210.98
1018.79	210.96
1019.08	210.84
1019.36	210.76
1019.65	210.82
1019.93	210.91
1020.22	210.93
1020.51	211.07
1020.79	211.03
1021.08	210.90
1021.36	210.95
1021.65	211.30
1021.94	210.90
1022.22	210.15
1022.51	211.15
1022.79	212.65
1023.08	210.75
1023.36	215.00
1023.65	209.80
>>>>>End Processed Spectral Data<<<<<
