SpectraSuite Data File
++++++++++++++++++++++++++++++++++++
Date: Mon Feb 25 17:07:08 EST 2013
User: group
Dark Spectrum Present: No
Reference Spectrum Present: No
Number of Sampled Component Spectra: 1
Spectrometers: USB2E7196
Integration Time (usec): 104000 (USB2E7196)
Spectra Averaged: 20 (USB2E7196)
Boxcar Smoothing: 10 (USB2E7196)
Correct for Electrical Dark: No (USB2E7196)
Strobe/Lamp Enabled: No (USB2E7196)
Correct for Detector Non-linearity: No (USB2E7196)
Correct for Stray Light: No (USB2E7196)
Number of Pixels in Processed Spectrum: 2048
>>>>>Begin Processed Spectral Data<<<<<
339.09	0.00
339.48	197.95
339.86	199.85
340.24	201.45
340.63	203.15
341.01	210.85
341.39	205.80
341.78	207.40
342.16	209.25
342.54	209.45
342.93	198.70
343.31	208.75
343.69	209.37
344.07	209.88
344.46	210.35
344.84	210.76
345.22	210.79
345.60	211.05
345.99	211.23
346.37	211.34
346.75	211.37
347.13	211.37
347.52	211.42
347.90	211.59
348.28	211.61
348.66	211.57
349.05	211.47
349.43	211.53
349.81	211.56
350.19	211.60
350.57	211.65
350.96	211.73
351.34	211.79
351.72	211.79
352.10	211.86
352.48	211.91
352.87	211.97
353.25	211.96
353.63	212.07
354.01	212.09
354.39	212.16
354.77	212.29
355.15	212.45
355.54	212.39
355.92	212.26
356.30	212.31
356.68	212.58
357.06	212.62
357.44	212.60
357.82	212.65
358.20	212.65
358.58	212.72
358.97	212.80
359.35	212.87
359.73	212.97
360.11	213.00
360.49	212.98
360.87	213.02
361.25	213.14
361.63	213.20
362.01	213.34
362.39	213.34
362.77	213.35
363.15	213.35
363.53	213.45
363.91	213.47
364.29	213.46
364.67	213.25
365.05	213.24
365.43	213.28
365.81	213.29
366.19	213.44
366.57	213.51
366.95	213.43
367.33	213.31
367.71	213.30
368.09	213.29
368.47	213.26
368.85	213.16
369.23	213.17
369.61	213.03
369.99	213.02
370.37	213.01
370.75	213.17
371.13	213.06
371.51	212.93
371.89	212.90
372.27	212.89
372.65	212.83
373.03	212.79
373.41	212.68
373.78	212.61
374.16	212.40
374.54	212.20
374.92	212.07
375.30	212.10
375.68	212.03
376.06	212.01
376.44	212.03
376.82	212.03
377.19	211.96
377.57	211.90
377.95	211.71
378.33	211.61
378.71	211.32
379.09	211.25
379.47	211.29
379.84	211.23
380.22	211.18
380.60	211.00
380.98	210.98
381.36	210.94
381.73	210.79
382.11	210.89
382.49	210.90
382.87	210.92
383.25	210.80
383.62	211.15
384.00	211.07
384.38	210.93
384.76	210.90
385.13	211.00
385.51	210.95
385.89	210.94
386.27	210.90
386.64	210.94
387.02	210.90
387.40	210.86
387.78	210.83
388.15	210.74
388.53	210.76
388.91	210.71
389.29	210.65
389.66	210.74
390.04	210.65
390.42	210.73
390.79	210.70
391.17	210.71
391.55	210.38
391.92	210.39
392.30	210.50
392.68	210.48
393.05	210.40
393.43	210.41
393.81	210.45
394.18	210.36
394.56	210.34
394.94	210.42
395.31	210.36
395.69	210.51
396.06	210.60
396.44	210.65
396.82	210.63
397.19	210.85
397.57	210.83
397.95	210.88
398.32	210.76
398.70	210.79
399.07	210.90
399.45	210.87
399.82	210.85
400.20	210.83
400.58	210.86
400.95	210.77
401.33	210.87
401.70	211.11
402.08	211.25
402.45	211.26
402.83	211.39
403.20	211.48
403.58	211.48
403.95	211.61
404.33	211.63
404.71	211.75
405.08	212.01
405.46	212.10
405.83	212.16
406.21	212.22
406.58	212.31
406.96	212.32
407.33	212.45
407.70	212.68
408.08	213.11
408.45	213.25
408.83	213.50
409.20	213.59
409.58	213.55
409.95	213.78
410.33	214.02
410.70	214.19
411.08	214.51
411.45	214.77
411.82	215.00
412.20	215.40
412.57	215.92
412.95	215.93
413.32	216.32
413.69	216.69
414.07	217.12
414.44	217.58
414.82	218.20
415.19	218.75
415.56	219.24
415.94	219.61
416.31	220.34
416.68	221.03
417.06	221.95
417.43	222.81
417.81	223.58
418.18	224.54
418.55	225.44
418.93	226.34
419.30	227.37
419.67	228.53
420.04	229.71
420.42	230.76
420.79	232.47
421.16	233.85
421.54	235.46
421.91	237.03
422.28	238.65
422.66	240.22
423.03	242.10
423.40	243.78
423.77	245.49
424.15	247.23
424.52	249.06
424.89	251.09
425.26	253.00
425.64	255.00
426.01	257.01
426.38	259.25
426.75	261.50
427.13	263.75
427.50	266.10
427.87	268.63
428.24	271.16
428.61	273.27
428.99	276.10
429.36	278.82
429.73	281.73
430.10	284.54
430.47	287.56
430.85	290.34
431.22	293.55
431.59	297.23
431.96	300.48
432.33	304.15
432.70	307.61
433.08	311.67
433.45	315.61
433.82	319.53
434.19	323.79
434.56	328.15
434.93	332.24
435.30	336.31
435.68	340.81
436.05	345.28
436.42	349.84
436.79	353.82
437.16	358.25
437.53	362.76
437.90	367.45
438.27	371.98
438.64	376.56
439.01	381.05
439.38	384.65
439.75	388.52
440.13	392.83
440.50	396.96
440.87	400.41
441.24	403.78
441.61	407.60
441.98	410.52
442.35	413.63
442.72	417.02
443.09	420.46
443.46	422.57
443.83	423.97
444.20	425.15
444.57	426.82
444.94	427.77
445.31	428.76
445.68	429.98
446.05	430.39
446.42	430.29
446.79	429.95
447.16	429.72
447.53	429.55
447.90	428.07
448.27	426.50
448.64	424.42
449.01	423.11
449.37	420.33
449.74	417.54
450.11	414.69
450.48	411.11
450.85	407.14
451.22	403.74
451.59	400.76
451.96	397.89
452.33	393.95
452.70	390.39
453.07	386.11
453.43	381.40
453.80	377.24
454.17	373.26
454.54	369.37
454.91	365.25
455.28	361.13
455.65	357.37
456.02	354.11
456.38	350.84
456.75	346.71
457.12	343.37
457.49	340.15
457.86	336.64
458.23	333.89
458.59	330.89
458.96	327.96
459.33	325.29
459.70	322.58
460.07	320.55
460.43	318.03
460.80	315.75
461.17	313.81
461.54	311.67
461.91	309.62
462.27	307.53
462.64	305.68
463.01	303.73
463.38	301.89
463.74	299.42
464.11	297.68
464.48	296.26
464.85	294.63
465.21	293.45
465.58	292.12
465.95	290.61
466.32	289.39
466.68	288.11
467.05	286.83
467.42	285.55
467.78	284.15
468.15	282.87
468.52	281.90
468.88	280.48
469.25	279.39
469.62	278.54
469.98	277.56
470.35	276.67
470.72	275.88
471.08	274.82
471.45	274.23
471.82	273.45
472.18	272.50
472.55	271.84
472.92	270.99
473.28	270.31
473.65	269.50
474.02	268.87
474.38	268.36
474.75	267.89
475.11	267.34
475.48	266.98
475.85	266.60
476.21	266.12
476.58	265.89
476.94	265.57
477.31	265.19
477.67	264.94
478.04	264.76
478.41	264.58
478.77	264.76
479.14	264.37
479.50	264.36
479.87	264.32
480.23	264.27
480.60	264.15
480.96	264.13
481.33	264.33
481.69	264.31
482.06	264.33
482.42	264.30
482.79	264.36
483.15	264.42
483.52	264.71
483.88	264.85
484.25	264.97
484.61	265.20
484.98	265.40
485.34	265.65
485.71	265.93
486.07	266.23
486.44	266.26
486.80	266.68
487.17	267.05
487.53	267.53
487.90	268.03
488.26	268.65
488.62	269.33
488.99	269.76
489.35	270.43
489.72	271.03
490.08	271.70
490.44	272.28
490.81	273.08
491.17	273.77
491.54	274.70
491.90	275.66
492.26	276.54
492.63	277.48
492.99	278.39
493.36	279.41
493.72	280.43
494.08	281.52
494.45	282.76
494.81	283.84
495.17	285.00
495.54	286.28
495.90	287.50
496.26	288.60
496.63	289.96
496.99	291.21
497.35	292.57
497.72	293.94
498.08	295.47
498.44	296.89
498.80	298.42
499.17	299.86
499.53	301.25
499.89	302.81
500.26	304.33
500.62	305.85
500.98	307.51
501.34	309.10
501.71	310.88
502.07	312.53
502.43	314.26
502.79	315.97
503.16	317.69
503.52	319.35
503.88	321.04
504.24	322.87
504.60	324.74
504.97	326.60
505.33	328.43
505.69	330.46
506.05	332.38
506.41	334.27
506.78	336.19
507.14	338.10
507.50	340.15
507.86	342.15
508.22	344.29
508.59	346.12
508.95	348.27
509.31	350.34
509.67	352.51
510.03	354.58
510.39	356.70
510.75	358.77
511.12	360.95
511.48	363.25
511.84	365.30
512.20	367.48
512.56	369.62
512.92	371.92
513.28	374.05
513.64	376.22
514.00	378.49
514.37	380.84
514.73	383.25
515.09	385.39
515.45	387.71
515.81	390.05
516.17	392.44
516.53	394.59
516.89	396.76
517.25	398.90
517.61	401.31
517.97	403.68
518.33	406.12
518.69	408.54
519.05	411.10
519.41	413.66
519.77	416.43
520.13	419.07
520.49	421.59
520.85	424.06
521.21	426.85
521.57	429.45
521.93	431.86
522.29	434.61
522.65	437.23
523.01	439.94
523.37	442.37
523.73	445.29
524.09	448.37
524.45	451.31
524.81	454.31
525.17	457.23
525.53	460.33
525.89	463.30
526.25	466.32
526.61	469.06
526.97	472.10
527.33	474.94
527.68	478.27
528.04	481.31
528.40	484.51
528.76	487.62
529.12	490.77
529.48	494.34
529.84	497.52
530.20	500.95
530.56	504.39
530.91	507.98
531.27	511.52
531.63	514.67
531.99	518.04
532.35	521.51
532.71	524.84
533.07	528.22
533.42	532.06
533.78	535.50
534.14	539.12
534.50	542.42
534.86	545.90
535.21	549.00
535.57	552.62
535.93	556.11
536.29	559.65
536.65	563.29
537.00	566.55
537.36	569.95
537.72	573.41
538.08	576.73
538.44	580.24
538.79	583.53
539.15	586.99
539.51	590.51
539.87	593.86
540.22	597.40
540.58	601.03
540.94	604.17
541.29	607.58
541.65	610.90
542.01	614.38
542.37	617.65
542.72	620.92
543.08	624.08
543.44	627.32
543.79	630.13
544.15	633.28
544.51	636.68
544.87	639.90
545.22	642.89
545.58	645.90
545.94	648.82
546.29	651.73
546.65	654.74
547.01	657.48
547.36	660.42
547.72	663.18
548.07	665.66
548.43	668.19
548.79	670.74
549.14	673.31
549.50	675.76
549.86	678.16
550.21	680.78
550.57	683.34
550.92	685.67
551.28	688.37
551.64	690.54
551.99	692.76
552.35	694.88
552.70	697.20
553.06	699.43
553.41	701.60
553.77	703.82
554.13	705.74
554.48	707.90
554.84	709.81
555.19	711.80
555.55	713.94
555.90	715.79
556.26	717.53
556.61	719.31
556.97	720.94
557.32	722.62
557.68	723.98
558.03	725.55
558.39	727.04
558.74	728.66
559.10	730.16
559.45	731.75
559.81	733.37
560.16	734.62
560.52	736.13
560.87	737.52
561.23	738.61
561.58	740.32
561.94	741.48
562.29	742.65
562.64	743.85
563.00	744.90
563.35	746.20
563.71	747.62
564.06	748.70
564.42	750.09
564.77	751.47
565.12	752.97
565.48	754.23
565.83	755.48
566.19	756.44
566.54	757.33
566.89	758.03
567.25	759.06
567.60	760.28
567.96	761.30
568.31	762.26
568.66	763.07
569.02	763.30
569.37	763.69
569.72	764.22
570.08	764.63
570.43	764.85
570.78	764.94
571.14	764.87
571.49	765.10
571.84	765.16
572.20	765.02
572.55	764.70
572.90	764.32
573.26	763.97
573.61	763.51
573.96	763.34
574.31	762.89
574.67	762.11
575.02	761.31
575.37	760.42
575.72	759.52
576.08	758.87
576.43	758.19
576.78	757.71
577.13	757.01
577.49	756.45
577.84	755.73
578.19	755.05
578.54	754.75
578.90	754.24
579.25	753.51
579.60	752.54
579.95	751.67
580.30	750.98
580.66	750.46
581.01	749.71
581.36	748.68
581.71	747.95
582.06	747.41
582.42	746.63
582.77	745.68
583.12	744.84
583.47	744.19
583.82	743.58
584.17	742.76
584.53	742.26
584.88	741.10
585.23	740.45
585.58	739.75
585.93	738.71
586.28	737.84
586.63	737.05
586.98	736.30
587.34	735.77
587.69	734.76
588.04	733.78
588.39	732.82
588.74	731.78
589.09	730.85
589.44	729.58
589.79	728.50
590.14	727.55
590.49	726.45
590.84	725.22
591.19	724.30
591.54	723.26
591.89	721.75
592.25	720.86
592.60	719.32
592.95	717.85
593.30	716.35
593.65	714.76
594.00	713.30
594.35	713.18
594.70	711.70
595.05	710.50
595.40	709.11
595.75	707.73
596.10	706.50
596.45	705.11
596.80	703.90
597.15	702.75
597.50	701.45
597.85	700.27
598.19	699.00
598.54	697.42
598.89	695.93
599.24	694.89
599.59	693.61
599.94	692.64
600.29	691.56
600.64	690.35
600.99	689.01
601.34	687.71
601.69	685.20
602.04	683.74
602.39	682.24
602.74	681.04
603.08	679.95
603.43	679.14
603.78	677.95
604.13	676.77
604.48	675.72
604.83	674.70
605.18	673.69
605.53	672.35
605.87	671.04
606.22	669.88
606.57	668.46
606.92	666.97
607.27	665.48
607.62	664.12
607.96	663.03
608.31	662.05
608.66	660.71
609.01	659.39
609.36	658.02
609.70	656.70
610.05	655.02
610.40	653.62
610.75	651.83
611.10	650.38
611.44	648.60
611.79	646.44
612.14	644.46
612.49	642.36
612.83	640.69
613.18	638.94
613.53	637.03
613.88	635.04
614.22	633.22
614.57	631.41
614.92	629.40
615.27	627.30
615.61	625.26
615.96	623.34
616.31	621.57
616.65	619.85
617.00	617.91
617.35	615.90
617.70	613.62
618.04	611.42
618.39	609.02
618.74	607.03
619.08	605.12
619.43	603.20
619.78	601.27
620.12	599.07
620.47	596.90
620.82	594.76
621.16	592.59
621.51	590.57
621.85	588.48
622.20	586.37
622.55	584.36
622.89	582.06
623.24	579.89
623.59	577.57
623.93	575.42
624.28	573.30
624.62	571.72
624.97	569.86
625.32	567.90
625.66	566.00
626.01	564.00
626.35	562.11
626.70	559.98
627.04	558.29
627.39	556.35
627.73	554.61
628.08	552.95
628.43	551.00
628.77	548.98
629.12	546.96
629.46	545.23
629.81	543.24
630.15	541.43
630.50	539.55
630.84	537.64
631.19	535.62
631.53	533.75
631.88	531.32
632.22	529.09
632.57	527.37
632.91	525.55
633.26	523.66
633.60	521.60
633.95	519.82
634.29	517.62
634.64	515.83
634.98	513.85
635.32	511.93
635.67	510.25
636.01	508.60
636.36	506.80
636.70	504.95
637.05	503.15
637.39	501.43
637.73	499.85
638.08	498.36
638.42	496.81
638.77	495.08
639.11	493.57
639.45	492.00
639.80	490.06
640.14	488.01
640.49	486.10
640.83	484.40
641.17	482.69
641.52	480.88
641.86	479.00
642.20	477.42
642.55	475.29
642.89	473.33
643.23	471.32
643.58	469.71
643.92	467.84
644.26	465.96
644.61	464.10
644.95	462.15
645.29	460.16
645.64	458.28
645.98	456.33
646.32	454.53
646.66	452.61
647.01	450.70
647.35	449.17
647.69	447.42
648.04	445.61
648.38	443.76
648.72	441.99
649.06	440.16
649.41	438.17
649.75	436.57
650.09	434.95
650.43	433.12
650.78	431.12
651.12	429.13
651.46	427.44
651.80	425.70
652.14	423.89
652.49	422.13
652.83	420.25
653.17	418.37
653.51	416.47
653.85	414.92
654.20	413.27
654.54	411.45
654.88	409.68
655.22	407.95
655.56	406.15
655.90	404.40
656.25	402.67
656.59	400.89
656.93	399.04
657.27	397.36
657.61	395.58
657.95	393.90
658.29	392.34
658.64	390.80
658.98	389.14
659.32	387.50
659.66	385.84
660.00	384.28
660.34	382.68
660.68	381.03
661.02	379.27
661.36	377.66
661.70	376.05
662.05	374.60
662.39	373.20
662.73	371.92
663.07	370.68
663.41	369.17
663.75	367.77
664.09	366.35
664.43	364.80
664.77	363.50
665.11	362.07
665.45	360.67
665.79	359.27
666.13	357.83
666.47	356.43
666.81	355.02
667.15	353.52
667.49	352.37
667.83	351.15
668.17	349.73
668.51	348.57
668.85	347.40
669.19	346.26
669.53	344.92
669.87	343.55
670.21	342.10
670.55	341.04
670.89	339.97
671.23	338.90
671.57	337.90
671.91	336.75
672.25	335.57
672.58	334.62
672.92	333.34
673.26	332.26
673.60	331.27
673.94	330.18
674.28	329.26
674.62	328.19
674.96	327.09
675.30	326.24
675.64	325.11
675.97	324.00
676.31	322.83
676.65	321.76
676.99	320.92
677.33	319.92
677.67	318.85
678.01	317.71
678.34	316.74
678.68	315.67
679.02	314.65
679.36	313.78
679.70	312.74
680.04	311.74
680.37	310.76
680.71	309.65
681.05	308.86
681.39	307.91
681.73	306.96
682.06	306.19
682.40	305.34
682.74	304.51
683.08	303.86
683.42	302.95
683.75	302.14
684.09	301.13
684.43	300.26
684.77	299.36
685.10	298.54
685.44	297.58
685.78	296.67
686.12	295.92
686.45	295.04
686.79	294.15
687.13	293.49
687.46	292.65
687.80	291.97
688.14	290.99
688.48	290.23
688.81	289.43
689.15	288.53
689.49	287.63
689.82	286.82
690.16	285.69
690.50	284.94
690.83	284.13
691.17	283.28
691.51	282.59
691.84	281.83
692.18	281.01
692.52	280.39
692.85	279.71
693.19	279.05
693.52	278.35
693.86	277.69
694.20	276.89
694.53	276.26
694.87	275.51
695.21	274.87
695.54	274.13
695.88	273.33
696.21	272.58
696.55	272.03
696.88	271.33
697.22	270.80
697.56	270.18
697.89	269.44
698.23	268.90
698.56	268.20
698.90	267.62
699.23	266.94
699.57	266.32
699.90	265.68
700.24	264.95
700.58	264.35
700.91	263.68
701.25	263.40
701.58	262.93
701.92	262.41
702.25	261.84
702.59	261.31
702.92	260.83
703.26	260.30
703.59	259.70
703.93	259.42
704.26	258.88
704.60	258.43
704.93	258.00
705.26	257.39
705.60	256.95
705.93	256.49
706.27	256.21
706.60	255.81
706.94	255.52
707.27	254.98
707.61	254.54
707.94	254.11
708.27	253.36
708.61	252.76
708.94	252.31
709.28	251.90
709.61	251.53
709.94	251.12
710.28	250.83
710.61	250.43
710.95	249.80
711.28	249.70
711.61	249.25
711.95	248.95
712.28	248.55
712.61	248.11
712.95	247.85
713.28	247.60
713.61	247.11
713.95	246.63
714.28	246.38
714.61	246.00
714.95	245.66
715.28	245.27
715.61	244.90
715.95	244.59
716.28	244.17
716.61	243.79
716.95	243.39
717.28	242.95
717.61	242.57
717.94	242.23
718.28	241.66
718.61	241.32
718.94	240.96
719.27	240.60
719.61	240.30
719.94	239.92
720.27	239.32
720.60	239.01
720.94	238.70
721.27	238.39
721.60	238.11
721.93	237.74
722.27	237.62
722.60	237.42
722.93	237.15
723.26	236.93
723.59	236.57
723.93	236.39
724.26	236.19
724.59	235.96
724.92	235.68
725.25	235.54
725.59	235.38
725.92	235.15
726.25	234.97
726.58	234.79
726.91	234.50
727.24	234.40
727.57	234.22
727.91	233.89
728.24	233.69
728.57	233.43
728.90	233.25
729.23	232.95
729.56	232.85
729.89	232.54
730.22	232.32
730.55	232.12
730.89	231.91
731.22	231.61
731.55	231.40
731.88	231.25
732.21	230.96
732.54	230.64
732.87	230.40
733.20	230.19
733.53	230.01
733.86	229.81
734.19	229.59
734.52	229.39
734.85	229.44
735.18	229.22
735.51	229.18
735.84	229.11
736.17	229.06
736.50	228.68
736.83	229.00
737.16	228.86
737.49	228.75
737.82	228.55
738.15	228.51
738.48	228.34
738.81	228.19
739.14	228.02
739.47	227.84
739.80	227.72
740.13	227.62
740.46	227.33
740.79	227.22
741.12	227.12
741.45	226.98
741.78	226.69
742.11	226.66
742.44	226.48
742.77	226.35
743.10	226.12
743.43	226.03
743.75	225.51
744.08	225.78
744.41	225.65
744.74	225.50
745.07	225.30
745.40	225.21
745.73	225.16
746.06	224.98
746.39	224.92
746.71	224.73
747.04	224.57
747.37	224.50
747.70	224.45
748.03	224.24
748.36	224.15
748.68	224.03
749.01	223.85
749.34	223.72
749.67	223.58
750.00	223.47
750.33	223.60
750.65	223.48
750.98	222.92
751.31	222.80
751.64	222.75
751.97	222.75
752.29	222.68
752.62	222.43
752.95	222.37
753.28	222.21
753.60	222.11
753.93	222.12
754.26	222.03
754.59	221.79
754.91	221.73
755.24	221.64
755.57	221.57
755.90	221.38
756.22	221.21
756.55	221.08
756.88	220.90
757.20	220.53
757.53	220.25
757.86	220.20
758.19	220.05
758.51	220.01
758.84	219.78
759.17	219.61
759.49	219.57
759.82	219.65
760.15	219.57
760.47	219.50
760.80	219.22
761.13	219.19
761.45	219.10
761.78	219.01
762.11	218.86
762.43	218.71
762.76	218.65
763.08	218.55
763.41	218.47
763.74	218.39
764.06	218.35
764.39	218.42
764.71	218.27
765.04	218.25
765.37	218.12
765.69	218.00
766.02	217.92
766.34	217.79
766.67	217.55
767.00	217.54
767.32	217.63
767.65	217.80
767.97	217.70
768.30	217.68
768.62	217.58
768.95	217.56
769.27	217.50
769.60	217.51
769.92	217.46
770.25	217.38
770.57	217.30
770.90	217.17
771.22	217.02
771.55	217.08
771.87	217.03
772.20	216.94
772.52	217.28
772.85	217.64
773.17	217.59
773.50	217.55
773.82	217.44
774.15	217.24
774.47	216.96
774.80	216.85
775.12	216.70
775.45	216.63
775.77	216.59
776.09	216.59
776.42	216.43
776.74	216.53
777.07	216.48
777.39	216.44
777.72	216.40
778.04	216.47
778.36	216.39
778.69	216.34
779.01	216.35
779.33	215.93
779.66	215.46
779.98	215.40
780.31	215.27
780.63	215.39
780.95	215.39
781.28	215.37
781.60	215.28
781.92	215.25
782.25	215.18
782.57	215.06
782.89	214.99
783.22	215.00
783.54	214.81
783.86	214.77
784.19	214.73
784.51	214.81
784.83	214.66
785.16	214.57
785.48	214.52
785.80	214.49
786.12	214.47
786.45	214.50
786.77	214.50
787.09	214.54
787.42	214.38
787.74	214.34
788.06	214.30
788.38	214.27
788.71	214.26
789.03	214.36
789.35	214.44
789.67	214.33
789.99	214.32
790.32	214.30
790.64	214.32
790.96	214.61
791.28	214.44
791.61	214.44
791.93	214.44
792.25	214.43
792.57	214.64
792.89	214.57
793.21	214.56
793.54	214.50
793.86	214.41
794.18	214.40
794.50	214.29
794.82	214.30
795.14	214.37
795.47	214.36
795.79	214.30
796.11	214.15
796.43	214.19
796.75	214.15
797.07	214.16
797.39	214.17
797.71	213.88
798.04	213.89
798.36	213.91
798.68	213.83
799.00	213.75
799.32	213.51
799.64	213.58
799.96	213.55
800.28	213.64
800.60	213.63
800.92	213.64
801.24	213.61
801.56	213.65
801.89	213.52
802.21	213.57
802.53	213.45
802.85	213.51
803.17	213.62
803.49	213.54
803.81	213.45
804.13	213.36
804.45	213.31
804.77	213.31
805.09	213.32
805.41	213.29
805.73	213.23
806.05	213.14
806.37	213.09
806.69	213.02
807.01	212.97
807.33	212.88
807.65	212.75
807.97	212.92
808.28	212.84
808.60	212.88
808.92	212.78
809.24	213.01
809.56	212.99
809.88	212.83
810.20	212.86
810.52	212.90
810.84	212.82
811.16	212.80
811.48	212.75
811.80	212.80
812.12	212.87
812.43	212.90
812.75	212.91
813.07	212.86
813.39	212.85
813.71	212.75
814.03	212.80
814.35	212.84
814.67	212.66
814.98	212.62
815.30	212.58
815.62	212.55
815.94	212.28
816.26	212.25
816.58	212.18
816.89	212.19
817.21	212.10
817.53	212.12
817.85	212.12
818.17	212.08
818.48	211.96
818.80	211.98
819.12	211.94
819.44	211.88
819.76	211.88
820.07	211.95
820.39	211.92
820.71	211.91
821.03	211.88
821.34	211.92
821.66	211.93
821.98	212.00
822.30	212.02
822.61	212.22
822.93	212.16
823.25	212.17
823.57	212.17
823.88	212.30
824.20	212.30
824.52	212.39
824.83	212.46
825.15	212.42
825.47	212.41
825.79	212.49
826.10	212.45
826.42	212.42
826.74	212.40
827.05	212.39
827.37	212.46
827.69	212.41
828.00	212.41
828.32	212.38
828.64	212.29
828.95	212.45
829.27	212.36
829.58	212.43
829.90	212.51
830.22	212.53
830.53	212.43
830.85	212.39
831.17	212.24
831.48	212.20
831.80	212.17
832.11	212.11
832.43	212.02
832.75	212.05
833.06	212.26
833.38	212.15
833.69	212.16
834.01	212.17
834.32	212.20
834.64	212.17
834.96	212.17
835.27	212.22
835.59	212.03
835.90	211.99
836.22	211.92
836.53	211.82
836.85	211.68
837.16	211.91
837.48	211.96
837.79	212.06
838.11	212.06
838.42	212.08
838.74	212.10
839.05	212.08
839.37	212.07
839.68	211.89
840.00	211.90
840.31	211.85
840.63	211.82
840.94	211.78
841.26	211.68
841.57	211.69
841.88	211.68
842.20	211.61
842.51	211.61
842.83	211.63
843.14	211.97
843.46	211.98
843.77	211.92
844.08	211.88
844.40	211.81
844.71	211.81
845.03	211.74
845.34	211.76
845.65	211.75
845.97	211.70
846.28	211.71
846.60	211.71
846.91	211.69
847.22	211.67
847.54	211.67
847.85	211.78
848.16	211.76
848.48	211.70
848.79	211.85
849.10	211.82
849.42	211.87
849.73	211.54
850.04	211.64
850.36	211.48
850.67	211.50
850.98	211.47
851.30	211.44
851.61	211.43
851.92	211.35
852.23	211.49
852.55	211.53
852.86	211.44
853.17	211.55
853.49	211.67
853.80	211.65
854.11	211.77
854.42	211.75
854.74	211.68
855.05	211.70
855.36	211.55
855.67	211.58
855.99	211.54
856.30	211.88
856.61	211.81
856.92	211.82
857.23	211.81
857.55	211.77
857.86	211.69
858.17	211.80
858.48	211.76
858.79	211.68
859.11	211.70
859.42	211.70
859.73	211.53
860.04	211.50
860.35	211.49
860.66	211.36
860.98	211.32
861.29	211.41
861.60	211.44
861.91	211.51
862.22	211.42
862.53	211.36
862.84	211.02
863.16	211.11
863.47	211.09
863.78	211.09
864.09	211.15
864.40	211.24
864.71	211.17
865.02	211.16
865.33	211.07
865.64	211.05
865.95	211.11
866.27	211.42
866.58	211.42
866.89	211.44
867.20	211.45
867.51	211.45
867.82	211.40
868.13	211.45
868.44	211.41
868.75	211.54
869.06	211.56
869.37	211.57
869.68	211.44
869.99	211.44
870.30	211.42
870.61	211.43
870.92	211.44
871.23	211.43
871.54	211.60
871.85	211.70
872.16	211.76
872.47	211.65
872.78	211.41
873.09	211.39
873.40	211.39
873.71	211.39
874.02	211.40
874.33	211.41
874.64	211.38
874.95	211.40
875.26	211.36
875.56	211.45
875.87	211.47
876.18	211.50
876.49	211.78
876.80	211.82
877.11	211.69
877.42	211.67
877.73	211.72
878.04	211.68
878.35	211.70
878.66	211.68
878.96	211.77
879.27	211.81
879.58	211.77
879.89	211.75
880.20	211.87
880.51	211.88
880.82	211.90
881.12	211.90
881.43	211.87
881.74	211.83
882.05	211.69
882.36	211.68
882.67	211.67
882.97	211.41
883.28	211.39
883.59	211.47
883.90	211.50
884.21	211.50
884.51	211.40
884.82	211.32
885.13	211.34
885.44	211.33
885.74	211.24
886.05	211.27
886.36	211.28
886.67	211.19
886.98	211.35
887.28	211.38
887.59	211.39
887.90	211.39
888.20	211.39
888.51	211.54
888.82	211.50
889.13	211.48
889.43	211.77
889.74	211.72
890.05	211.68
890.35	211.66
890.66	211.61
890.97	211.60
891.28	211.55
891.58	211.48
891.89	211.40
892.20	211.38
892.50	211.39
892.81	211.30
893.12	211.26
893.42	211.19
893.73	211.22
894.04	211.19
894.34	211.17
894.65	211.15
894.95	211.04
895.26	211.06
895.57	211.28
895.87	210.90
896.18	210.92
896.48	210.93
896.79	210.92
897.10	210.94
897.40	210.93
897.71	210.99
898.01	211.00
898.32	211.10
898.63	211.13
898.93	211.10
899.24	211.12
899.54	211.17
899.85	211.05
900.15	210.98
900.46	211.04
900.76	211.06
901.07	211.04
901.38	211.07
901.68	211.11
901.99	210.96
902.29	210.97
902.60	210.91
902.90	210.88
903.21	210.88
903.51	210.92
903.82	211.02
904.12	211.03
904.43	211.05
904.73	211.03
905.03	211.06
905.34	211.35
905.64	211.35
905.95	211.23
906.25	211.25
906.56	211.14
906.86	211.09
907.17	211.04
907.47	211.02
907.77	210.99
908.08	210.85
908.38	210.84
908.69	210.88
908.99	210.99
909.30	210.98
909.60	210.98
909.90	210.98
910.21	210.91
910.51	210.87
910.81	210.89
911.12	210.93
911.42	210.93
911.73	210.62
912.03	210.62
912.33	210.66
912.64	210.59
912.94	210.69
913.24	210.64
913.55	210.62
913.85	210.65
914.15	210.69
914.46	210.75
914.76	210.69
915.06	210.70
915.37	210.65
915.67	210.65
915.97	210.60
916.27	210.50
916.58	210.49
916.88	210.46
917.18	210.39
917.49	210.58
917.79	210.60
918.09	210.64
918.39	210.75
918.70	210.85
919.00	210.90
919.30	211.03
919.60	210.98
919.91	211.00
920.21	211.01
920.51	210.96
920.81	210.95
921.12	211.01
921.42	210.93
921.72	210.95
922.02	211.03
922.32	211.10
922.63	211.09
922.93	211.25
923.23	211.27
923.53	211.25
923.83	211.01
924.13	211.07
924.44	211.05
924.74	211.08
925.04	211.17
925.34	211.22
925.64	211.03
925.94	211.04
926.24	211.20
926.55	211.20
926.85	211.18
927.15	211.19
927.45	211.23
927.75	211.27
928.05	211.26
928.35	211.22
928.65	211.28
928.95	211.32
929.26	211.25
929.56	211.35
929.86	211.42
930.16	211.42
930.46	211.35
930.76	211.37
931.06	211.26
931.36	211.14
931.66	211.15
931.96	211.24
932.26	211.28
932.56	211.09
932.86	211.13
933.16	211.23
933.46	211.20
933.76	211.15
934.06	211.20
934.36	211.34
934.66	211.29
934.96	211.25
935.26	211.25
935.56	211.28
935.86	211.17
936.16	211.10
936.46	211.07
936.76	211.01
937.06	210.93
937.36	210.96
937.66	210.90
937.96	210.86
938.26	210.84
938.56	210.89
938.86	210.94
939.16	210.96
939.46	210.98
939.76	211.01
940.06	210.98
940.35	210.95
940.65	210.77
940.95	210.80
941.25	210.70
941.55	210.72
941.85	210.68
942.15	210.78
942.45	210.95
942.75	210.95
943.04	210.98
943.34	211.07
943.64	211.06
943.94	211.02
944.24	210.99
944.54	210.94
944.84	210.92
945.13	210.90
945.43	210.86
945.73	210.86
946.03	210.85
946.33	210.86
946.62	210.88
946.92	210.82
947.22	210.88
947.52	210.93
947.82	210.95
948.11	210.90
948.41	210.79
948.71	210.62
949.01	210.55
949.31	210.62
949.60	210.56
949.90	210.58
950.20	210.64
950.50	210.64
950.79	210.70
951.09	210.78
951.39	210.84
951.69	210.77
951.98	210.82
952.28	210.80
952.58	210.81
952.87	210.81
953.17	210.92
953.47	210.87
953.76	210.90
954.06	210.83
954.36	210.81
954.66	210.83
954.95	210.96
955.25	211.05
955.55	211.01
955.84	211.02
956.14	211.03
956.44	211.04
956.73	210.98
957.03	211.01
957.32	210.92
957.62	210.86
957.92	210.93
958.21	210.90
958.51	211.33
958.81	211.38
959.10	211.41
959.40	211.44
959.69	211.48
959.99	211.50
960.29	211.53
960.58	211.52
960.88	211.65
961.17	211.61
961.47	211.61
961.76	211.58
962.06	211.65
962.36	211.61
962.65	211.63
962.95	211.71
963.24	211.67
963.54	211.71
963.83	211.73
964.13	211.70
964.42	211.62
964.72	211.33
965.01	211.37
965.31	211.31
965.60	211.20
965.90	211.43
966.19	211.41
966.49	211.43
966.78	211.41
967.08	211.44
967.37	211.47
967.67	211.44
967.96	211.48
968.26	211.44
968.55	211.53
968.85	211.49
969.14	211.52
969.43	211.51
969.73	211.50
970.02	211.52
970.32	211.51
970.61	211.53
970.91	211.51
971.20	211.43
971.49	211.38
971.79	211.47
972.08	211.22
972.38	211.20
972.67	211.23
972.96	211.32
973.26	211.26
973.55	211.29
973.85	211.23
974.14	211.35
974.43	211.41
974.73	211.36
975.02	211.35
975.31	211.25
975.61	211.23
975.90	211.18
976.19	211.11
976.49	211.21
976.78	211.20
977.07	211.14
977.37	211.12
977.66	211.27
977.95	211.17
978.24	211.24
978.54	211.40
978.83	211.35
979.12	211.37
979.42	211.32
979.71	211.29
980.00	211.34
980.29	211.18
980.59	211.10
980.88	211.19
981.17	211.24
981.46	211.30
981.76	211.32
982.05	211.48
982.34	211.51
982.63	211.50
982.93	211.55
983.22	211.62
983.51	211.65
983.80	211.72
984.09	211.82
984.39	211.84
984.68	211.73
984.97	211.73
985.26	211.66
985.55	211.68
985.85	211.61
986.14	211.66
986.43	211.79
986.72	211.75
987.01	211.63
987.30	211.63
987.59	211.59
987.89	211.59
988.18	211.39
988.47	211.36
988.76	211.30
989.05	211.23
989.34	211.16
989.63	211.28
989.92	211.18
990.22	211.07
990.51	210.97
990.80	210.97
991.09	211.02
991.38	211.05
991.67	211.05
991.96	211.01
992.25	210.98
992.54	210.92
992.83	210.92
993.12	210.89
993.41	210.91
993.70	211.04
993.99	211.08
994.28	211.21
994.58	211.30
994.87	211.25
995.16	211.25
995.45	211.25
995.74	211.11
996.03	211.06
996.32	211.17
996.61	211.28
996.90	211.23
997.19	211.18
997.48	211.16
997.77	211.10
998.06	211.18
998.34	211.12
998.63	211.05
998.92	211.06
999.21	211.13
999.50	211.14
999.79	211.05
1000.08	211.05
1000.37	211.06
1000.66	210.95
1000.95	211.00
1001.24	210.99
1001.53	211.01
1001.82	211.01
1002.11	210.93
1002.40	210.96
1002.68	211.03
1002.97	211.30
1003.26	211.27
1003.55	211.27
1003.84	211.28
1004.13	211.33
1004.42	211.38
1004.71	211.42
1004.99	211.40
1005.28	211.39
1005.57	211.40
1005.86	211.39
1006.15	211.32
1006.44	211.22
1006.72	211.28
1007.01	211.21
1007.30	211.20
1007.59	211.15
1007.88	211.13
1008.17	211.22
1008.45	211.08
1008.74	210.95
1009.03	210.78
1009.32	210.74
1009.60	210.69
1009.89	210.65
1010.18	210.54
1010.47	210.52
1010.76	210.52
1011.04	210.47
1011.33	210.59
1011.62	210.53
1011.91	210.48
1012.19	210.53
1012.48	210.61
1012.77	210.60
1013.05	210.76
1013.34	210.80
1013.63	210.72
1013.92	210.73
1014.20	210.71
1014.49	210.74
1014.78	210.85
1015.06	210.68
1015.35	210.71
1015.64	210.80
1015.92	210.92
1016.21	210.95
1016.50	210.95
1016.78	210.94
1017.07	211.06
1017.36	210.98
1017.64	210.85
1017.93	210.93
1018.22	210.90
1018.50	210.82
1018.79	210.78
1019.08	210.65
1019.36	210.68
1019.65	210.74
1019.93	210.77
1020.22	210.84
1020.51	211.00
1020.79	210.86
1021.08	210.70
1021.36	210.05
1021.65	210.20
1021.94	210.35
1022.22	211.25
1022.51	210.40
1022.79	210.75
1023.08	211.95
1023.36	214.25
1023.65	210.00
>>>>>End Processed Spectral Data<<<<<
