SpectraSuite Data File
++++++++++++++++++++++++++++++++++++
Date: Mon Feb 25 17:01:54 EST 2013
User: group
Dark Spectrum Present: No
Reference Spectrum Present: No
Number of Sampled Component Spectra: 1
Spectrometers: USB2E7196
Integration Time (usec): 104000 (USB2E7196)
Spectra Averaged: 20 (USB2E7196)
Boxcar Smoothing: 10 (USB2E7196)
Correct for Electrical Dark: No (USB2E7196)
Strobe/Lamp Enabled: No (USB2E7196)
Correct for Detector Non-linearity: No (USB2E7196)
Correct for Stray Light: No (USB2E7196)
Number of Pixels in Processed Spectrum: 2048
>>>>>Begin Processed Spectral Data<<<<<
339.09	0.00
339.48	199.70
339.86	200.95
340.24	202.65
340.63	203.30
341.01	210.75
341.39	206.55
341.78	208.00
342.16	209.00
342.54	209.00
342.93	198.71
343.31	208.79
343.69	209.30
344.07	209.71
344.46	210.16
344.84	210.52
345.22	210.42
345.60	210.56
345.99	210.73
346.37	210.81
346.75	210.89
347.13	210.90
347.52	210.96
347.90	211.10
348.28	211.03
348.66	211.11
349.05	210.91
349.43	210.93
349.81	210.88
350.19	210.89
350.57	210.88
350.96	210.89
351.34	210.86
351.72	210.82
352.10	210.88
352.48	210.82
352.87	210.78
353.25	210.89
353.63	210.95
354.01	210.89
354.39	210.96
354.77	211.03
355.15	211.18
355.54	211.17
355.92	211.10
356.30	211.15
356.68	211.34
357.06	211.42
357.44	211.39
357.82	211.49
358.20	211.57
358.58	211.62
358.97	211.69
359.35	211.85
359.73	212.00
360.11	211.97
360.49	212.02
360.87	212.12
361.25	212.19
361.63	212.38
362.01	212.53
362.39	212.49
362.77	212.56
363.15	212.56
363.53	212.55
363.91	212.56
364.29	212.62
364.67	212.39
365.05	212.50
365.43	212.60
365.81	212.66
366.19	212.78
366.57	212.99
366.95	212.98
367.33	212.92
367.71	212.92
368.09	213.01
368.47	213.02
368.85	213.01
369.23	213.10
369.61	212.92
369.99	212.98
370.37	213.08
370.75	213.20
371.13	213.13
371.51	213.14
371.89	213.16
372.27	213.15
372.65	213.12
373.03	213.02
373.41	213.01
373.78	212.92
374.16	212.77
374.54	212.62
374.92	212.60
375.30	212.55
375.68	212.52
376.06	212.55
376.44	212.40
376.82	212.39
377.19	212.34
377.57	212.36
377.95	212.23
378.33	212.13
378.71	211.84
379.09	211.81
379.47	211.81
379.84	211.75
380.22	211.62
380.60	211.53
380.98	211.47
381.36	211.40
381.73	211.34
382.11	211.33
382.49	211.24
382.87	211.23
383.25	211.15
383.62	211.47
384.00	211.32
384.38	211.36
384.76	211.39
385.13	211.49
385.51	211.44
385.89	211.41
386.27	211.37
386.64	211.44
387.02	211.39
387.40	211.29
387.78	211.25
388.15	211.24
388.53	211.23
388.91	211.31
389.29	211.25
389.66	211.27
390.04	211.18
390.42	211.26
390.79	211.18
391.17	211.15
391.55	210.75
391.92	210.79
392.30	210.83
392.68	210.71
393.05	210.61
393.43	210.59
393.81	210.58
394.18	210.60
394.56	210.52
394.94	210.62
395.31	210.55
395.69	210.67
396.06	210.77
396.44	210.71
396.82	210.61
397.19	210.75
397.57	210.77
397.95	210.81
398.32	210.66
398.70	210.69
399.07	210.80
399.45	210.75
399.82	210.76
400.20	210.74
400.58	210.84
400.95	210.77
401.33	210.88
401.70	211.17
402.08	211.15
402.45	211.30
402.83	211.41
403.20	211.55
403.58	211.54
403.95	211.61
404.33	211.75
404.71	211.92
405.08	212.18
405.46	212.27
405.83	212.49
406.21	212.65
406.58	212.85
406.96	213.00
407.33	213.26
407.70	213.56
408.08	214.05
408.45	214.27
408.83	214.50
409.20	214.74
409.58	214.73
409.95	215.15
410.33	215.48
410.70	215.79
411.08	216.35
411.45	216.87
411.82	217.37
412.20	218.02
412.57	218.76
412.95	219.09
413.32	219.82
413.69	220.53
414.07	221.31
414.44	222.10
414.82	222.97
415.19	223.95
415.56	224.84
415.94	225.81
416.31	227.09
416.68	228.34
417.06	229.75
417.43	231.19
417.81	232.68
418.18	234.26
418.55	235.90
418.93	237.59
419.30	239.39
419.67	241.28
420.04	243.25
420.42	245.27
420.79	247.90
421.16	250.31
421.54	252.88
421.91	255.49
422.28	258.24
422.66	261.04
423.03	264.01
423.40	267.00
423.77	270.07
424.15	273.23
424.52	276.54
424.89	280.21
425.26	283.64
425.64	286.94
426.01	290.60
426.38	294.47
426.75	298.38
427.13	302.40
427.50	306.72
427.87	311.20
428.24	315.69
428.61	319.85
428.99	324.59
429.36	329.65
429.73	334.73
430.10	339.79
430.47	345.11
430.85	350.43
431.22	356.16
431.59	362.41
431.96	368.23
432.33	374.82
432.70	381.09
433.08	388.68
433.45	395.79
433.82	402.78
434.19	410.69
434.56	418.27
434.93	425.65
435.30	433.18
435.68	441.33
436.05	449.54
436.42	457.67
436.79	465.24
437.16	473.34
437.53	481.77
437.90	490.18
438.27	498.57
438.64	507.19
439.01	515.35
439.38	522.50
439.75	529.61
440.13	537.41
440.50	545.01
440.87	551.25
441.24	557.71
441.61	564.95
441.98	570.35
442.35	576.71
442.72	583.26
443.09	589.21
443.46	593.12
443.83	595.87
444.20	598.42
444.57	601.72
444.94	603.52
445.31	605.52
445.68	607.65
446.05	608.76
446.42	608.55
446.79	608.19
447.16	607.75
447.53	607.62
447.90	605.24
448.27	602.78
448.64	598.95
449.01	596.51
449.37	591.55
449.74	586.75
450.11	581.05
450.48	574.47
450.85	567.94
451.22	562.26
451.59	556.90
451.96	551.64
452.33	544.62
452.70	538.34
453.07	530.72
453.43	522.62
453.80	515.13
454.17	507.86
454.54	500.82
454.91	493.30
455.28	485.91
455.65	479.22
456.02	472.72
456.38	466.95
456.75	459.61
457.12	453.64
457.49	447.67
457.86	441.86
458.23	436.98
458.59	431.58
458.96	426.14
459.33	421.17
459.70	416.40
460.07	412.49
460.43	408.04
460.80	403.84
461.17	400.21
461.54	396.13
461.91	392.49
462.27	388.84
462.64	385.58
463.01	382.08
463.38	378.79
463.74	375.01
464.11	372.06
464.48	369.42
464.85	366.44
465.21	364.18
465.58	361.72
465.95	358.82
466.32	356.31
466.68	353.97
467.05	351.59
467.42	349.15
467.78	346.72
468.15	344.36
468.52	342.65
468.88	340.40
469.25	338.56
469.62	336.85
469.98	335.03
470.35	333.49
470.72	331.85
471.08	330.03
471.45	328.58
471.82	327.10
472.18	325.54
472.55	324.40
472.92	323.02
473.28	321.77
473.65	320.48
474.02	319.38
474.38	318.44
474.75	317.63
475.11	316.72
475.48	315.93
475.85	315.24
476.21	314.42
476.58	313.86
476.94	313.32
477.31	312.74
477.67	312.24
478.04	311.83
478.41	311.61
478.77	311.57
479.14	311.20
479.50	310.88
479.87	310.82
480.23	310.71
480.60	310.54
480.96	310.36
481.33	310.53
481.69	310.58
482.06	310.52
482.42	310.50
482.79	310.52
483.15	310.79
483.52	311.09
483.88	311.40
484.25	311.59
484.61	311.89
484.98	312.29
485.34	312.81
485.71	313.34
486.07	313.77
486.44	313.98
486.80	314.61
487.17	315.29
487.53	316.10
487.90	316.88
488.26	317.95
488.62	318.96
488.99	319.83
489.35	320.88
489.72	321.91
490.08	323.06
490.44	324.10
490.81	325.30
491.17	326.56
491.54	327.88
491.90	329.40
492.26	330.78
492.63	332.24
492.99	333.63
493.36	335.10
493.72	336.75
494.08	338.35
494.45	340.08
494.81	341.92
495.17	343.57
495.54	345.52
495.90	347.13
496.26	348.91
496.63	350.79
496.99	352.61
497.35	354.63
497.72	356.64
498.08	358.76
498.44	360.67
498.80	362.71
499.17	364.67
499.53	366.55
499.89	368.62
500.26	370.63
500.62	372.58
500.98	374.66
501.34	376.65
501.71	378.78
502.07	380.76
502.43	382.61
502.79	384.46
503.16	386.18
503.52	388.01
503.88	389.84
504.24	391.63
504.60	393.39
504.97	395.13
505.33	396.68
505.69	398.50
506.05	400.19
506.41	401.69
506.78	403.12
507.14	404.47
507.50	405.85
507.86	407.26
508.22	408.52
508.59	409.74
508.95	410.80
509.31	412.06
509.67	413.00
510.03	414.05
510.39	415.17
510.75	416.10
511.12	416.95
511.48	417.67
511.84	418.38
512.20	419.02
512.56	419.58
512.92	420.31
513.28	420.78
513.64	421.23
514.00	421.67
514.37	422.10
514.73	422.63
515.09	423.03
515.45	423.17
515.81	423.45
516.17	423.51
516.53	423.72
516.89	423.55
517.25	423.54
517.61	423.60
517.97	423.45
518.33	423.37
518.69	423.27
519.05	423.36
519.41	423.20
519.77	423.35
520.13	423.21
520.49	422.91
520.85	422.59
521.21	422.57
521.57	422.40
521.93	422.15
522.29	421.91
522.65	421.58
523.01	421.53
523.37	421.34
523.73	421.28
524.09	421.13
524.45	421.10
524.81	421.14
525.17	421.15
525.53	421.34
525.89	421.44
526.25	421.71
526.61	421.69
526.97	421.90
527.33	422.00
527.68	422.63
528.04	422.99
528.40	423.35
528.76	423.64
529.12	424.06
529.48	424.71
529.84	425.26
530.20	426.02
530.56	426.63
530.91	427.48
531.27	428.30
531.63	429.21
531.99	430.15
532.35	431.11
532.71	432.10
533.07	433.06
533.42	434.49
533.78	435.50
534.14	436.69
534.50	437.85
534.86	439.29
535.21	440.23
535.57	441.81
535.93	443.27
536.29	445.00
536.65	446.67
537.00	448.21
537.36	449.83
537.72	451.40
538.08	453.21
538.44	455.03
538.79	456.85
539.15	458.69
539.51	460.60
539.87	462.64
540.22	464.66
540.58	466.96
540.94	468.80
541.29	470.96
541.65	473.18
542.01	475.79
542.37	478.03
542.72	480.44
543.08	482.59
543.44	485.24
543.79	487.40
544.15	489.89
544.51	492.54
544.87	495.19
545.22	497.91
545.58	500.50
545.94	503.01
546.29	505.57
546.65	508.04
547.01	510.64
547.36	513.40
547.72	516.16
548.07	518.68
548.43	521.17
548.79	523.90
549.14	526.64
549.50	529.20
549.86	531.81
550.21	534.67
550.57	537.62
550.92	540.10
551.28	542.85
551.64	545.46
551.99	548.20
552.35	550.70
552.70	553.21
553.06	555.92
553.41	558.56
553.77	561.39
554.13	564.30
554.48	567.24
554.84	570.05
555.19	572.63
555.55	575.53
555.90	578.24
556.26	580.70
556.61	583.17
556.97	585.43
557.32	587.87
557.68	590.16
558.03	592.56
558.39	595.09
558.74	597.53
559.10	600.03
559.45	602.25
559.81	604.95
560.16	607.29
560.52	609.69
560.87	612.12
561.23	614.30
561.58	616.79
561.94	618.88
562.29	620.80
562.64	623.00
563.00	624.82
563.35	627.16
563.71	629.57
564.06	631.87
564.42	634.29
564.77	636.61
565.12	638.90
565.48	641.32
565.83	643.43
566.19	645.50
566.54	647.37
566.89	649.33
567.25	651.27
567.60	653.47
567.96	655.53
568.31	657.57
568.66	659.47
569.02	660.90
569.37	662.31
569.72	663.90
570.08	665.49
570.43	667.05
570.78	668.36
571.14	669.40
571.49	670.43
571.84	671.59
572.20	672.40
572.55	673.37
572.90	673.72
573.26	674.51
573.61	675.04
573.96	675.70
574.31	676.42
574.67	676.79
575.02	676.95
575.37	677.10
575.72	677.07
576.08	677.43
576.43	677.65
576.78	678.10
577.13	678.30
577.49	678.47
577.84	678.65
578.19	678.92
578.54	679.50
578.90	679.88
579.25	679.92
579.60	680.06
579.95	679.90
580.30	680.17
580.66	680.15
581.01	680.16
581.36	680.01
581.71	679.96
582.06	680.10
582.42	680.00
582.77	679.68
583.12	679.70
583.47	679.63
583.82	679.43
584.17	679.33
584.53	679.24
584.88	678.96
585.23	678.68
585.58	678.24
585.93	677.72
586.28	677.44
586.63	677.09
586.98	676.95
587.34	676.90
587.69	676.44
588.04	676.01
588.39	675.86
588.74	675.44
589.09	675.05
589.44	674.20
589.79	673.77
590.14	673.61
590.49	672.87
590.84	672.01
591.19	671.84
591.54	670.91
591.89	669.83
592.25	669.37
592.60	668.46
592.95	667.53
593.30	666.38
593.65	665.12
594.00	664.00
594.35	663.75
594.70	662.53
595.05	661.50
595.40	660.61
595.75	659.41
596.10	658.50
596.45	657.35
596.80	656.55
597.15	655.66
597.50	654.45
597.85	653.67
598.19	652.50
598.54	651.14
598.89	650.20
599.24	649.66
599.59	648.34
599.94	647.43
600.29	646.43
600.64	645.53
600.99	644.62
601.34	643.84
601.69	641.78
602.04	640.65
602.39	639.55
602.74	638.49
603.08	637.59
603.43	636.75
603.78	635.73
604.13	634.54
604.48	633.33
604.83	632.38
605.18	631.42
605.53	630.45
605.87	629.17
606.22	628.07
606.57	626.76
606.92	625.57
607.27	624.20
607.62	622.98
607.96	621.83
608.31	620.71
608.66	619.32
609.01	618.00
609.36	616.79
609.70	615.36
610.05	613.78
610.40	612.30
610.75	610.65
611.10	609.25
611.44	607.56
611.79	605.99
612.14	604.23
612.49	602.24
612.83	600.65
613.18	599.01
613.53	597.30
613.88	595.50
614.22	593.88
614.57	592.19
614.92	590.40
615.27	588.62
615.61	586.77
615.96	585.05
616.31	583.55
616.65	581.97
617.00	580.26
617.35	578.55
617.70	576.73
618.04	574.73
618.39	572.73
618.74	571.03
619.08	569.24
619.43	567.44
619.78	565.62
620.12	563.85
620.47	562.20
620.82	560.17
621.16	558.17
621.51	556.38
621.85	554.51
622.20	552.71
622.55	550.83
622.89	548.93
623.24	547.06
623.59	544.91
623.93	542.93
624.28	541.18
624.62	539.73
624.97	538.02
625.32	536.31
625.66	534.59
626.01	532.77
626.35	531.00
626.70	529.15
627.04	527.64
627.39	525.78
627.73	524.09
628.08	522.68
628.43	521.01
628.77	519.10
629.12	517.42
629.46	515.89
629.81	514.15
630.15	512.40
630.50	510.61
630.84	508.91
631.19	507.19
631.53	505.53
631.88	503.30
632.22	501.32
632.57	499.83
632.91	498.02
633.26	496.41
633.60	494.67
633.95	493.01
634.29	491.22
634.64	489.61
634.98	487.52
635.32	485.88
635.67	484.26
636.01	482.75
636.36	481.05
636.70	479.33
637.05	477.74
637.39	476.16
637.73	474.65
638.08	473.35
638.42	471.92
638.77	470.39
639.11	468.95
639.45	467.28
639.80	465.43
640.14	463.81
640.49	462.19
640.83	460.49
641.17	458.93
641.52	457.23
641.86	455.45
642.20	454.26
642.55	452.38
642.89	450.73
643.23	448.95
643.58	447.56
643.92	445.72
644.26	444.16
644.61	442.61
644.95	441.01
645.29	439.23
645.64	437.51
645.98	435.77
646.32	434.23
646.66	432.56
647.01	431.03
647.35	429.54
647.69	427.76
648.04	426.30
648.38	424.69
648.72	423.13
649.06	421.52
649.41	419.64
649.75	418.06
650.09	416.54
650.43	414.91
650.78	413.00
651.12	411.42
651.46	409.73
651.80	408.14
652.14	406.52
652.49	405.06
652.83	403.34
653.17	401.75
653.51	400.01
653.85	398.61
654.20	396.99
654.54	395.25
654.88	393.75
655.22	392.30
655.56	390.62
655.90	388.97
656.25	387.41
656.59	385.95
656.93	384.57
657.27	383.03
657.61	381.37
657.95	380.08
658.29	378.64
658.64	377.24
658.98	375.68
659.32	374.09
659.66	372.49
660.00	371.00
660.34	369.35
660.68	367.93
661.02	366.44
661.36	365.07
661.70	363.76
662.05	362.33
662.39	360.89
662.73	359.60
663.07	358.43
663.41	357.20
663.75	355.81
664.09	354.42
664.43	352.99
664.77	351.85
665.11	350.49
665.45	349.26
665.79	348.04
666.13	346.78
666.47	345.53
666.81	344.28
667.15	343.01
667.49	342.06
667.83	341.07
668.17	339.88
668.51	338.76
668.85	337.75
669.19	336.86
669.53	335.61
669.87	334.42
670.21	333.25
670.55	332.14
670.89	331.31
671.23	330.29
671.57	329.41
671.91	328.37
672.25	327.39
672.58	326.41
672.92	325.35
673.26	324.39
673.60	323.45
673.94	322.46
674.28	321.60
674.62	320.70
674.96	319.66
675.30	318.73
675.64	317.70
675.97	316.71
676.31	315.66
676.65	314.75
676.99	314.05
677.33	313.04
677.67	312.16
678.01	311.04
678.34	310.19
678.68	309.33
679.02	308.40
679.36	307.48
679.70	306.60
680.04	305.71
680.37	304.87
680.71	303.99
681.05	303.21
681.39	302.41
681.73	301.51
682.06	300.72
682.40	299.99
682.74	299.33
683.08	298.58
683.42	297.72
683.75	297.04
684.09	296.13
684.43	295.41
684.77	294.55
685.10	293.77
685.44	292.90
685.78	292.09
686.12	291.39
686.45	290.61
686.79	289.81
687.13	289.06
687.46	288.30
687.80	287.68
688.14	286.85
688.48	286.13
688.81	285.32
689.15	284.61
689.49	283.72
689.82	282.95
690.16	282.08
690.50	281.34
690.83	280.51
691.17	279.65
691.51	278.95
691.84	278.26
692.18	277.56
692.52	276.89
692.85	276.27
693.19	275.63
693.52	275.01
693.86	274.29
694.20	273.65
694.53	272.93
694.87	272.14
695.21	271.59
695.54	270.90
695.88	270.18
696.21	269.43
696.55	268.95
696.88	268.28
697.22	267.60
697.56	267.04
697.89	266.43
698.23	265.97
698.56	265.29
698.90	264.81
699.23	264.34
699.57	263.82
699.90	263.12
700.24	262.57
700.58	262.03
700.91	261.62
701.25	261.35
701.58	260.99
701.92	260.64
702.25	260.00
702.59	259.50
702.92	259.00
703.26	258.49
703.59	257.91
703.93	257.70
704.26	257.25
704.60	256.79
704.93	256.36
705.26	255.88
705.60	255.52
705.93	254.96
706.27	254.51
706.60	254.06
706.94	253.82
707.27	253.24
707.61	252.75
707.94	252.22
708.27	251.58
708.61	251.05
708.94	250.61
709.28	250.29
709.61	249.79
709.94	249.51
710.28	249.16
710.61	248.87
710.95	248.16
711.28	248.05
711.61	247.67
711.95	247.34
712.28	246.96
712.61	246.61
712.95	246.45
713.28	246.22
713.61	245.78
713.95	245.39
714.28	245.18
714.61	244.81
714.95	244.50
715.28	244.14
715.61	243.75
715.95	243.42
716.28	243.04
716.61	242.86
716.95	242.48
717.28	242.10
717.61	241.75
717.94	241.56
718.28	241.02
718.61	240.75
718.94	240.47
719.27	240.16
719.61	239.85
719.94	239.54
720.27	239.10
720.60	238.91
720.94	238.63
721.27	238.27
721.60	238.08
721.93	237.84
722.27	237.67
722.60	237.51
722.93	237.21
723.26	236.99
723.59	236.70
723.93	236.48
724.26	236.35
724.59	236.12
724.92	235.85
725.25	235.75
725.59	235.46
725.92	235.21
726.25	235.04
726.58	234.81
726.91	234.51
727.24	234.30
727.57	234.05
727.91	233.76
728.24	233.66
728.57	233.41
728.90	233.26
729.23	232.90
729.56	232.84
729.89	232.63
730.22	232.39
730.55	232.11
730.89	231.97
731.22	231.76
731.55	231.49
731.88	231.30
732.21	230.98
732.54	230.82
732.87	230.61
733.20	230.38
733.53	230.26
733.86	230.10
734.19	229.88
734.52	229.75
734.85	229.83
735.18	229.52
735.51	229.50
735.84	229.25
736.17	229.22
736.50	228.84
736.83	229.09
737.16	228.96
737.49	228.83
737.82	228.54
738.15	228.44
738.48	228.31
738.81	228.12
739.14	227.91
739.47	227.71
739.80	227.55
740.13	227.44
740.46	227.21
740.79	226.94
741.12	226.80
741.45	226.58
741.78	226.17
742.11	226.16
742.44	225.86
742.77	225.82
743.10	225.56
743.43	225.47
743.75	224.97
744.08	225.27
744.41	225.12
744.74	224.99
745.07	224.71
745.40	224.62
745.73	224.62
746.06	224.51
746.39	224.41
746.71	224.20
747.04	224.02
747.37	223.85
747.70	223.87
748.03	223.75
748.36	223.69
748.68	223.52
749.01	223.26
749.34	223.18
749.67	222.98
750.00	222.88
750.33	222.99
750.65	222.90
750.98	222.36
751.31	222.25
751.64	222.18
751.97	222.29
752.29	222.12
752.62	221.85
752.95	221.66
753.28	221.55
753.60	221.45
753.93	221.45
754.26	221.35
754.59	221.11
754.91	220.95
755.24	220.76
755.57	220.67
755.90	220.61
756.22	220.39
756.55	220.32
756.88	220.13
757.20	219.78
757.53	219.52
757.86	219.45
758.19	219.41
758.51	219.35
758.84	219.02
759.17	218.96
759.49	218.91
759.82	219.01
760.15	218.95
760.47	218.77
760.80	218.60
761.13	218.57
761.45	218.43
761.78	218.33
762.11	218.31
762.43	218.26
762.76	218.13
763.08	218.18
763.41	218.10
763.74	218.13
764.06	218.03
764.39	217.98
764.71	217.82
765.04	217.62
765.37	217.50
765.69	217.42
766.02	217.30
766.34	217.24
766.67	217.02
767.00	216.97
767.32	217.17
767.65	217.30
767.97	217.20
768.30	217.19
768.62	217.21
768.95	217.16
769.27	217.04
769.60	217.05
769.92	216.93
770.25	216.84
770.57	216.74
770.90	216.69
771.22	216.59
771.55	216.55
771.87	216.62
772.20	216.60
772.52	216.87
772.85	217.21
773.17	217.13
773.50	217.12
773.82	217.08
774.15	216.87
774.47	216.64
774.80	216.60
775.12	216.53
775.45	216.43
775.77	216.32
776.09	216.30
776.42	216.24
776.74	216.31
777.07	216.22
777.39	216.19
777.72	216.14
778.04	216.12
778.36	216.11
778.69	216.01
779.01	215.95
779.33	215.59
779.66	215.13
779.98	215.05
780.31	215.09
780.63	215.15
780.95	215.12
781.28	215.07
781.60	214.97
781.92	215.02
782.25	214.94
782.57	214.96
782.89	214.92
783.22	214.86
783.54	214.67
783.86	214.62
784.19	214.55
784.51	214.56
784.83	214.56
785.16	214.45
785.48	214.43
785.80	214.42
786.12	214.34
786.45	214.35
786.77	214.38
787.09	214.27
787.42	214.09
787.74	214.09
788.06	214.07
788.38	214.06
788.71	213.91
789.03	213.97
789.35	213.94
789.67	213.87
789.99	213.96
790.32	213.90
790.64	213.92
790.96	214.23
791.28	214.13
791.61	214.10
791.93	214.17
792.25	214.13
792.57	214.24
792.89	214.20
793.21	214.22
793.54	214.21
793.86	214.15
794.18	214.17
794.50	214.12
794.82	214.09
795.14	214.10
795.47	214.15
795.79	214.03
796.11	213.96
796.43	213.94
796.75	213.85
797.07	213.91
797.39	213.90
797.71	213.62
798.04	213.62
798.36	213.52
798.68	213.49
799.00	213.47
799.32	213.38
799.64	213.49
799.96	213.43
800.28	213.44
800.60	213.45
800.92	213.43
801.24	213.38
801.56	213.35
801.89	213.34
802.21	213.37
802.53	213.33
802.85	213.41
803.17	213.55
803.49	213.42
803.81	213.36
804.13	213.20
804.45	213.10
804.77	213.07
805.09	213.13
805.41	213.06
805.73	213.00
806.05	212.91
806.37	212.84
806.69	212.80
807.01	212.77
807.33	212.79
807.65	212.68
807.97	212.81
808.28	212.77
808.60	212.68
808.92	212.53
809.24	212.74
809.56	212.60
809.88	212.39
810.20	212.47
810.52	212.53
810.84	212.52
811.16	212.54
811.48	212.53
811.80	212.64
812.12	212.67
812.43	212.66
812.75	212.62
813.07	212.59
813.39	212.59
813.71	212.55
814.03	212.50
814.35	212.45
814.67	212.32
814.98	212.32
815.30	212.39
815.62	212.39
815.94	212.14
816.26	212.20
816.58	212.20
816.89	212.10
817.21	211.99
817.53	212.07
817.85	212.01
818.17	211.99
818.48	211.80
818.80	211.83
819.12	211.89
819.44	211.90
819.76	211.89
820.07	211.93
820.39	211.87
820.71	211.90
821.03	211.96
821.34	211.89
821.66	211.89
821.98	211.88
822.30	211.91
822.61	212.11
822.93	212.01
823.25	212.00
823.57	212.02
823.88	212.17
824.20	212.13
824.52	212.17
824.83	212.17
825.15	212.17
825.47	212.16
825.79	212.10
826.10	212.05
826.42	211.93
826.74	211.97
827.05	211.95
827.37	211.89
827.69	211.82
828.00	211.83
828.32	211.78
828.64	211.71
828.95	211.88
829.27	211.78
829.58	211.79
829.90	211.90
830.22	211.88
830.53	211.76
830.85	211.79
831.17	211.77
831.48	211.77
831.80	211.80
832.11	211.72
832.43	211.68
832.75	211.69
833.06	211.94
833.38	211.79
833.69	211.72
834.01	211.75
834.32	211.74
834.64	211.80
834.96	211.89
835.27	211.94
835.59	211.85
835.90	211.81
836.22	211.83
836.53	211.66
836.85	211.61
837.16	211.89
837.48	211.92
837.79	211.96
838.11	211.83
838.42	211.78
838.74	211.80
839.05	211.69
839.37	211.67
839.68	211.44
840.00	211.42
840.31	211.41
840.63	211.38
840.94	211.38
841.26	211.24
841.57	211.20
841.88	211.27
842.20	211.16
842.51	211.05
842.83	211.04
843.14	211.38
843.46	211.45
843.77	211.29
844.08	211.15
844.40	211.06
844.71	211.11
845.03	211.08
845.34	211.06
845.65	211.13
845.97	211.10
846.28	211.14
846.60	211.20
846.91	211.29
847.22	211.27
847.54	211.31
847.85	211.35
848.16	211.34
848.48	211.23
848.79	211.32
849.10	211.39
849.42	211.43
849.73	211.10
850.04	211.06
850.36	210.94
850.67	211.08
850.98	211.08
851.30	211.09
851.61	211.07
851.92	211.07
852.23	211.11
852.55	211.13
852.86	211.17
853.17	211.21
853.49	211.22
853.80	211.28
854.11	211.37
854.42	211.39
854.74	211.26
855.05	211.25
855.36	211.12
855.67	211.05
855.99	211.00
856.30	211.42
856.61	211.39
856.92	211.40
857.23	211.35
857.55	211.34
857.86	211.37
858.17	211.41
858.48	211.39
858.79	211.35
859.11	211.41
859.42	211.37
859.73	211.28
860.04	211.31
860.35	211.18
860.66	210.95
860.98	210.99
861.29	211.06
861.60	211.02
861.91	211.07
862.22	211.16
862.53	211.12
862.84	210.71
863.16	210.78
863.47	210.71
863.78	210.68
864.09	210.62
864.40	210.60
864.71	210.61
865.02	210.71
865.33	210.67
865.64	210.61
865.95	210.59
866.27	210.78
866.58	210.71
866.89	210.82
867.20	210.96
867.51	210.90
867.82	210.89
868.13	211.06
868.44	210.99
868.75	211.01
869.06	211.05
869.37	211.07
869.68	210.99
869.99	211.04
870.30	211.00
870.61	211.13
870.92	211.12
871.23	211.09
871.54	211.07
871.85	211.22
872.16	211.24
872.47	211.23
872.78	211.09
873.09	211.10
873.40	211.09
873.71	211.03
874.02	211.06
874.33	211.08
874.64	210.98
874.95	211.09
875.26	211.02
875.56	210.97
875.87	210.95
876.18	210.96
876.49	211.27
876.80	211.36
877.11	211.30
877.42	211.34
877.73	211.38
878.04	211.46
878.35	211.50
878.66	211.50
878.96	211.46
879.27	211.45
879.58	211.45
879.89	211.36
880.20	211.44
880.51	211.35
880.82	211.32
881.12	211.34
881.43	211.29
881.74	211.23
882.05	211.26
882.36	211.28
882.67	211.31
882.97	210.96
883.28	210.85
883.59	210.83
883.90	210.85
884.21	210.91
884.51	210.77
884.82	210.70
885.13	210.77
885.44	210.80
885.74	210.75
886.05	210.77
886.36	210.73
886.67	210.65
886.98	210.90
887.28	210.95
887.59	210.91
887.90	210.89
888.20	210.83
888.51	210.93
888.82	210.96
889.13	211.00
889.43	211.30
889.74	211.30
890.05	211.27
890.35	211.18
890.66	211.15
890.97	211.12
891.28	211.06
891.58	211.06
891.89	211.07
892.20	211.10
892.50	211.04
892.81	211.11
893.12	211.17
893.42	210.99
893.73	210.95
894.04	211.05
894.34	211.14
894.65	211.21
894.95	211.15
895.26	211.20
895.57	211.35
895.87	211.03
896.18	211.13
896.48	211.21
896.79	211.26
897.10	211.26
897.40	211.34
897.71	211.38
898.01	211.33
898.32	211.40
898.63	211.34
898.93	211.32
899.24	211.41
899.54	211.35
899.85	211.37
900.15	211.42
900.46	211.41
900.76	211.35
901.07	211.37
901.38	211.36
901.68	211.31
901.99	211.21
902.29	211.27
902.60	211.23
902.90	211.15
903.21	211.14
903.51	211.12
903.82	211.25
904.12	211.29
904.43	211.29
904.73	211.26
905.03	211.30
905.34	211.67
905.64	211.61
905.95	211.61
906.25	211.59
906.56	211.62
906.86	211.57
907.17	211.61
907.47	211.59
907.77	211.56
908.08	211.53
908.38	211.46
908.69	211.47
908.99	211.52
909.30	211.51
909.60	211.60
909.90	211.63
910.21	211.46
910.51	211.40
910.81	211.39
911.12	211.36
911.42	211.37
911.73	211.00
912.03	211.01
912.33	211.07
912.64	211.04
912.94	210.94
913.24	210.87
913.55	210.85
913.85	210.86
914.15	210.96
914.46	210.96
914.76	210.96
915.06	210.96
915.37	210.95
915.67	210.97
915.97	210.89
916.27	210.78
916.58	210.82
916.88	210.80
917.18	210.83
917.49	211.10
917.79	211.13
918.09	211.22
918.39	211.30
918.70	211.27
919.00	211.31
919.30	211.47
919.60	211.43
919.91	211.43
920.21	211.48
920.51	211.34
920.81	211.35
921.12	211.43
921.42	211.42
921.72	211.48
922.02	211.48
922.32	211.58
922.63	211.61
922.93	211.75
923.23	211.75
923.53	211.74
923.83	211.45
924.13	211.45
924.44	211.45
924.74	211.45
925.04	211.53
925.34	211.55
925.64	211.40
925.94	211.50
926.24	211.63
926.55	211.55
926.85	211.70
927.15	211.66
927.45	211.68
927.75	211.68
928.05	211.62
928.35	211.63
928.65	211.63
928.95	211.65
929.26	211.55
929.56	211.61
929.86	211.62
930.16	211.67
930.46	211.67
930.76	211.68
931.06	211.54
931.36	211.44
931.66	211.48
931.96	211.54
932.26	211.51
932.56	211.40
932.86	211.40
933.16	211.33
933.46	211.33
933.76	211.23
934.06	211.30
934.36	211.43
934.66	211.41
934.96	211.39
935.26	211.38
935.56	211.32
935.86	211.27
936.16	211.22
936.46	211.14
936.76	211.09
937.06	211.05
937.36	211.15
937.66	211.16
937.96	211.07
938.26	210.97
938.56	210.99
938.86	211.00
939.16	211.07
939.46	211.15
939.76	211.20
940.06	211.18
940.35	211.02
940.65	210.83
940.95	210.80
941.25	210.68
941.55	210.59
941.85	210.57
942.15	210.61
942.45	210.70
942.75	210.67
943.04	210.68
943.34	210.71
943.64	210.66
943.94	210.57
944.24	210.61
944.54	210.64
944.84	210.59
945.13	210.46
945.43	210.38
945.73	210.29
946.03	210.20
946.33	210.25
946.62	210.34
946.92	210.27
947.22	210.28
947.52	210.35
947.82	210.48
948.11	210.47
948.41	210.44
948.71	210.31
949.01	210.42
949.31	210.36
949.60	210.41
949.90	210.39
950.20	210.47
950.50	210.43
950.79	210.46
951.09	210.53
951.39	210.59
951.69	210.57
951.98	210.66
952.28	210.72
952.58	210.74
952.87	210.72
953.17	210.82
953.47	210.83
953.76	210.84
954.06	210.78
954.36	210.74
954.66	210.67
954.95	210.82
955.25	210.79
955.55	210.81
955.84	210.67
956.14	210.72
956.44	210.72
956.73	210.77
957.03	210.83
957.32	210.78
957.62	210.77
957.92	210.83
958.21	210.84
958.51	211.30
958.81	211.23
959.10	211.30
959.40	211.45
959.69	211.49
959.99	211.54
960.29	211.59
960.58	211.56
960.88	211.75
961.17	211.65
961.47	211.67
961.76	211.69
962.06	211.77
962.36	211.78
962.65	211.78
962.95	211.78
963.24	211.66
963.54	211.69
963.83	211.72
964.13	211.74
964.42	211.58
964.72	211.20
965.01	211.27
965.31	211.18
965.60	211.05
965.90	211.26
966.19	211.16
966.49	211.11
966.78	211.14
967.08	211.08
967.37	211.08
967.67	210.96
967.96	211.03
968.26	210.97
968.55	210.93
968.85	210.93
969.14	210.84
969.43	210.88
969.73	210.87
970.02	210.83
970.32	210.82
970.61	210.80
970.91	210.79
971.20	210.69
971.49	210.67
971.79	210.72
972.08	210.43
972.38	210.52
972.67	210.57
972.96	210.62
973.26	210.51
973.55	210.63
973.85	210.65
974.14	210.62
974.43	210.69
974.73	210.71
975.02	210.66
975.31	210.70
975.61	210.70
975.90	210.63
976.19	210.61
976.49	210.60
976.78	210.67
977.07	210.63
977.37	210.67
977.66	210.70
977.95	210.52
978.24	210.62
978.54	210.63
978.83	210.59
979.12	210.63
979.42	210.68
979.71	210.62
980.00	210.65
980.29	210.67
980.59	210.63
980.88	210.67
981.17	210.70
981.46	210.68
981.76	210.72
982.05	210.89
982.34	210.92
982.63	210.92
982.93	210.92
983.22	210.96
983.51	211.02
983.80	211.08
984.09	211.24
984.39	211.18
984.68	211.09
984.97	211.11
985.26	211.02
985.55	210.95
985.85	210.92
986.14	210.96
986.43	210.97
986.72	210.97
987.01	210.90
987.30	210.87
987.59	210.85
987.89	210.87
988.18	210.76
988.47	210.75
988.76	210.72
989.05	210.69
989.34	210.68
989.63	210.72
989.92	210.68
990.22	210.59
990.51	210.58
990.80	210.55
991.09	210.55
991.38	210.60
991.67	210.64
991.96	210.60
992.25	210.65
992.54	210.56
992.83	210.56
993.12	210.51
993.41	210.59
993.70	210.76
993.99	210.75
994.28	210.79
994.58	210.87
994.87	210.89
995.16	210.90
995.45	210.85
995.74	210.71
996.03	210.73
996.32	210.83
996.61	210.94
996.90	211.00
997.19	210.97
997.48	210.96
997.77	210.89
998.06	210.91
998.34	210.87
998.63	210.96
998.92	210.96
999.21	211.07
999.50	211.08
999.79	210.91
1000.08	210.80
1000.37	210.79
1000.66	210.66
1000.95	210.69
1001.24	210.66
1001.53	210.71
1001.82	210.75
1002.11	210.67
1002.40	210.62
1002.68	210.61
1002.97	210.80
1003.26	210.78
1003.55	210.66
1003.84	210.73
1004.13	210.90
1004.42	210.89
1004.71	210.76
1004.99	210.76
1005.28	210.76
1005.57	210.73
1005.86	210.75
1006.15	210.79
1006.44	210.76
1006.72	210.83
1007.01	210.79
1007.30	210.83
1007.59	210.80
1007.88	210.76
1008.17	210.73
1008.45	210.70
1008.74	210.61
1009.03	210.50
1009.32	210.50
1009.60	210.57
1009.89	210.55
1010.18	210.39
1010.47	210.32
1010.76	210.44
1011.04	210.42
1011.33	210.47
1011.62	210.49
1011.91	210.46
1012.19	210.56
1012.48	210.52
1012.77	210.47
1013.05	210.61
1013.34	210.55
1013.63	210.55
1013.92	210.53
1014.20	210.62
1014.49	210.64
1014.78	210.65
1015.06	210.50
1015.35	210.50
1015.64	210.59
1015.92	210.66
1016.21	210.65
1016.50	210.68
1016.78	210.65
1017.07	210.72
1017.36	210.65
1017.64	210.59
1017.93	210.65
1018.22	210.55
1018.50	210.56
1018.79	210.60
1019.08	210.45
1019.36	210.49
1019.65	210.42
1019.93	210.53
1020.22	210.55
1020.51	210.67
1020.79	210.60
1021.08	210.20
1021.36	209.65
1021.65	210.25
1021.94	210.20
1022.22	210.30
1022.51	209.10
1022.79	211.90
1023.08	211.20
1023.36	213.40
1023.65	208.90
>>>>>End Processed Spectral Data<<<<<
