SpectraSuite Data File
++++++++++++++++++++++++++++++++++++
Date: Mon Feb 25 17:06:16 EST 2013
User: group
Dark Spectrum Present: No
Reference Spectrum Present: No
Number of Sampled Component Spectra: 1
Spectrometers: USB2E7196
Integration Time (usec): 104000 (USB2E7196)
Spectra Averaged: 20 (USB2E7196)
Boxcar Smoothing: 10 (USB2E7196)
Correct for Electrical Dark: No (USB2E7196)
Strobe/Lamp Enabled: No (USB2E7196)
Correct for Detector Non-linearity: No (USB2E7196)
Correct for Stray Light: No (USB2E7196)
Number of Pixels in Processed Spectrum: 2048
>>>>>Begin Processed Spectral Data<<<<<
339.09	0.00
339.48	199.10
339.86	200.60
340.24	200.75
340.63	203.25
341.01	208.45
341.39	205.10
341.78	206.90
342.16	208.35
342.54	208.65
342.93	198.04
343.31	208.06
343.69	208.60
344.07	209.05
344.46	209.56
344.84	209.87
345.22	209.89
345.60	210.20
345.99	210.42
346.37	210.54
346.75	210.62
347.13	210.64
347.52	210.69
347.90	210.90
348.28	210.93
348.66	211.09
349.05	211.00
349.43	211.06
349.81	211.09
350.19	211.07
350.57	211.07
350.96	211.12
351.34	211.24
351.72	211.27
352.10	211.34
352.48	211.33
352.87	211.43
353.25	211.53
353.63	211.54
354.01	211.48
354.39	211.54
354.77	211.65
355.15	211.81
355.54	211.86
355.92	211.76
356.30	211.76
356.68	212.02
357.06	212.17
357.44	212.19
357.82	212.25
358.20	212.35
358.58	212.40
358.97	212.50
359.35	212.55
359.73	212.62
360.11	212.66
360.49	212.75
360.87	212.79
361.25	212.92
361.63	213.09
362.01	213.21
362.39	213.25
362.77	213.26
363.15	213.32
363.53	213.35
363.91	213.37
364.29	213.36
364.67	213.04
365.05	212.99
365.43	213.12
365.81	213.20
366.19	213.32
366.57	213.48
366.95	213.47
367.33	213.39
367.71	213.43
368.09	213.52
368.47	213.48
368.85	213.46
369.23	213.51
369.61	213.35
369.99	213.43
370.37	213.44
370.75	213.55
371.13	213.43
371.51	213.33
371.89	213.37
372.27	213.35
372.65	213.30
373.03	213.30
373.41	213.22
373.78	213.16
374.16	213.02
374.54	212.83
374.92	212.74
375.30	212.71
375.68	212.71
376.06	212.65
376.44	212.56
376.82	212.50
377.19	212.40
377.57	212.35
377.95	212.20
378.33	212.11
378.71	211.93
379.09	211.98
379.47	212.01
379.84	211.91
380.22	211.90
380.60	211.80
380.98	211.75
381.36	211.68
381.73	211.55
382.11	211.50
382.49	211.52
382.87	211.45
383.25	211.40
383.62	211.60
384.00	211.50
384.38	211.48
384.76	211.57
385.13	211.68
385.51	211.63
385.89	211.58
386.27	211.50
386.64	211.58
387.02	211.44
387.40	211.33
387.78	211.26
388.15	211.23
388.53	211.20
388.91	211.14
389.29	211.06
389.66	211.09
390.04	210.98
390.42	211.06
390.79	210.98
391.17	210.94
391.55	210.60
391.92	210.61
392.30	210.65
392.68	210.46
393.05	210.39
393.43	210.42
393.81	210.42
394.18	210.40
394.56	210.30
394.94	210.50
395.31	210.53
395.69	210.68
396.06	210.71
396.44	210.84
396.82	210.80
397.19	210.94
397.57	210.89
397.95	211.05
398.32	210.88
398.70	210.93
399.07	211.06
399.45	211.08
399.82	211.05
400.20	210.99
400.58	211.02
400.95	210.93
401.33	210.97
401.70	211.27
402.08	211.31
402.45	211.34
402.83	211.35
403.20	211.39
403.58	211.34
403.95	211.45
404.33	211.43
404.71	211.59
405.08	211.86
405.46	211.97
405.83	212.00
406.21	212.13
406.58	212.27
406.96	212.32
407.33	212.43
407.70	212.62
408.08	213.06
408.45	213.25
408.83	213.44
409.20	213.58
409.58	213.49
409.95	213.75
410.33	213.99
410.70	214.15
411.08	214.42
411.45	214.77
411.82	215.00
412.20	215.44
412.57	215.90
412.95	215.96
413.32	216.39
413.69	216.79
414.07	217.26
414.44	217.76
414.82	218.25
415.19	218.93
415.56	219.51
415.94	219.98
416.31	220.76
416.68	221.55
417.06	222.45
417.43	223.34
417.81	224.31
418.18	225.29
418.55	226.31
418.93	227.38
419.30	228.48
419.67	229.67
420.04	230.84
420.42	232.05
420.79	233.84
421.16	235.41
421.54	237.08
421.91	238.64
422.28	240.30
422.66	242.04
423.03	243.92
423.40	245.72
423.77	247.65
424.15	249.54
424.52	251.51
424.89	253.76
425.26	255.85
425.64	257.88
426.01	260.10
426.38	262.43
426.75	264.91
427.13	267.43
427.50	270.02
427.87	272.73
428.24	275.40
428.61	277.77
428.99	280.67
429.36	283.72
429.73	286.86
430.10	289.94
430.47	293.15
430.85	296.24
431.22	299.74
431.59	303.68
431.96	307.23
432.33	311.18
432.70	314.94
433.08	319.38
433.45	323.63
433.82	327.80
434.19	332.46
434.56	337.13
434.93	341.55
435.30	346.00
435.68	350.91
436.05	355.75
436.42	360.63
436.79	365.13
437.16	369.87
437.53	374.85
437.90	379.90
438.27	384.97
438.64	390.11
439.01	394.89
439.38	398.97
439.75	403.23
440.13	407.95
440.50	412.53
440.87	416.20
441.24	420.03
441.61	424.28
441.98	427.50
442.35	431.05
442.72	434.74
443.09	438.43
443.46	440.69
443.83	442.32
444.20	443.71
444.57	445.56
444.94	446.60
445.31	447.77
445.68	449.24
446.05	449.69
446.42	449.46
446.79	449.18
447.16	448.84
447.53	448.67
447.90	447.04
448.27	445.32
448.64	443.08
449.01	441.45
449.37	438.38
449.74	435.33
450.11	432.04
450.48	428.13
450.85	423.90
451.22	420.49
451.59	417.23
451.96	414.09
452.33	409.85
452.70	405.99
453.07	401.35
453.43	396.14
453.80	391.68
454.17	387.33
454.54	383.10
454.91	378.51
455.28	374.02
455.65	369.95
456.02	366.31
456.38	362.88
456.75	358.55
457.12	354.97
457.49	351.46
457.86	347.69
458.23	344.74
458.59	341.59
458.96	338.27
459.33	335.25
459.70	332.36
460.07	330.05
460.43	327.31
460.80	324.76
461.17	322.63
461.54	320.26
461.91	318.10
462.27	315.90
462.64	313.99
463.01	311.88
463.38	309.91
463.74	307.43
464.11	305.47
464.48	303.84
464.85	302.07
465.21	300.85
465.58	299.54
465.95	297.70
466.32	296.22
466.68	294.77
467.05	293.37
467.42	291.90
467.78	290.31
468.15	288.98
468.52	288.00
468.88	286.56
469.25	285.29
469.62	284.33
469.98	283.20
470.35	282.19
470.72	281.22
471.08	280.18
471.45	279.28
471.82	278.57
472.18	277.67
472.55	277.02
472.92	275.99
473.28	275.08
473.65	274.37
474.02	273.67
474.38	273.09
474.75	272.67
475.11	272.10
475.48	271.79
475.85	271.33
476.21	270.83
476.58	270.48
476.94	270.19
477.31	269.83
477.67	269.55
478.04	269.28
478.41	269.09
478.77	269.27
479.14	269.03
479.50	268.86
479.87	268.75
480.23	268.67
480.60	268.67
480.96	268.71
481.33	268.87
481.69	268.89
482.06	268.87
482.42	268.89
482.79	268.95
483.15	268.99
483.52	269.23
483.88	269.28
484.25	269.49
484.61	269.65
484.98	269.78
485.34	270.15
485.71	270.55
486.07	270.90
486.44	270.76
486.80	271.15
487.17	271.45
487.53	271.93
487.90	272.40
488.26	273.01
488.62	273.57
488.99	274.06
489.35	274.73
489.72	275.37
490.08	276.04
490.44	276.69
490.81	277.39
491.17	278.11
491.54	279.00
491.90	279.90
492.26	280.76
492.63	281.58
492.99	282.30
493.36	283.22
493.72	284.24
494.08	285.32
494.45	286.39
494.81	287.68
495.17	288.81
495.54	290.00
495.90	291.03
496.26	292.22
496.63	293.50
496.99	294.73
497.35	296.05
497.72	297.39
498.08	298.79
498.44	300.12
498.80	301.54
499.17	302.93
499.53	304.23
499.89	305.69
500.26	307.14
500.62	308.68
500.98	310.24
501.34	311.66
501.71	313.20
502.07	314.68
502.43	316.05
502.79	317.45
503.16	318.86
503.52	320.43
503.88	321.85
504.24	323.32
504.60	324.88
504.97	326.49
505.33	327.85
505.69	329.56
506.05	331.14
506.41	332.75
506.78	334.17
507.14	335.70
507.50	337.11
507.86	338.62
508.22	340.14
508.59	341.48
508.95	343.00
509.31	344.68
509.67	346.22
510.03	347.64
510.39	349.15
510.75	350.64
511.12	352.06
511.48	353.56
511.84	355.07
512.20	356.45
512.56	357.83
512.92	359.50
513.28	360.83
513.64	362.22
514.00	363.62
514.37	365.15
514.73	366.66
515.09	368.38
515.45	369.84
515.81	371.32
516.17	372.73
516.53	374.11
516.89	375.39
517.25	376.86
517.61	378.61
517.97	380.20
518.33	381.82
518.69	383.46
519.05	385.03
519.41	386.63
519.77	388.55
520.13	390.20
520.49	391.76
520.85	393.42
521.21	395.23
521.57	396.96
521.93	398.52
522.29	400.33
522.65	402.03
523.01	403.94
523.37	405.66
523.73	407.68
524.09	409.71
524.45	411.69
524.81	413.64
525.17	415.50
525.53	417.49
525.89	419.64
526.25	421.83
526.61	423.98
526.97	426.11
527.33	428.22
527.68	430.85
528.04	433.25
528.40	435.47
528.76	437.72
529.12	440.18
529.48	442.80
529.84	445.18
530.20	447.61
530.56	450.32
530.91	453.07
531.27	455.75
531.63	458.40
531.99	461.11
532.35	463.89
532.71	466.58
533.07	469.50
533.42	472.52
533.78	475.25
534.14	478.10
534.50	480.90
534.86	483.65
535.21	486.10
535.57	488.92
535.93	491.75
536.29	494.86
536.65	497.78
537.00	500.61
537.36	503.57
537.72	506.65
538.08	509.55
538.44	512.46
538.79	515.41
539.15	518.37
539.51	521.38
539.87	524.50
540.22	527.35
540.58	530.45
540.94	533.15
541.29	536.04
541.65	538.93
542.01	541.81
542.37	544.90
542.72	548.02
543.08	550.90
543.44	554.13
543.79	556.89
544.15	559.86
544.51	563.09
544.87	566.18
545.22	568.98
545.58	571.80
545.94	574.64
546.29	577.41
546.65	580.20
547.01	582.95
547.36	585.60
547.72	588.62
548.07	591.25
548.43	593.94
548.79	596.62
549.14	599.24
549.50	602.05
549.86	604.37
550.21	606.82
550.57	609.50
550.92	612.01
551.28	614.50
551.64	616.86
551.99	619.23
552.35	621.42
552.70	623.74
553.06	626.02
553.41	628.29
553.77	630.81
554.13	633.01
554.48	635.37
554.84	637.65
555.19	639.68
555.55	641.76
555.90	643.68
556.26	645.72
556.61	647.66
556.97	649.31
557.32	651.37
557.68	653.16
558.03	654.91
558.39	656.50
558.74	658.39
559.10	660.18
559.45	661.88
559.81	663.79
560.16	665.30
560.52	666.98
560.87	668.82
561.23	670.06
561.58	671.93
561.94	673.25
562.29	674.48
562.64	676.06
563.00	677.46
563.35	679.13
563.71	680.79
564.06	682.31
564.42	683.95
564.77	685.40
565.12	686.95
565.48	688.60
565.83	690.02
566.19	691.33
566.54	692.30
566.89	693.40
567.25	694.59
567.60	696.15
567.96	697.54
568.31	698.58
568.66	699.84
569.02	700.40
569.37	701.23
569.72	702.21
570.08	702.81
570.43	703.50
570.78	703.98
571.14	704.26
571.49	704.79
571.84	705.19
572.20	705.38
572.55	705.54
572.90	705.38
573.26	705.41
573.61	705.43
573.96	705.62
574.31	705.42
574.67	705.01
575.02	704.47
575.37	703.80
575.72	703.23
576.08	702.76
576.43	702.54
576.78	702.24
577.13	702.01
577.49	701.67
577.84	701.25
578.19	700.87
578.54	700.58
578.90	700.24
579.25	699.90
579.60	699.45
579.95	698.97
580.30	698.66
580.66	698.37
581.01	697.78
581.36	697.16
581.71	696.70
582.06	696.45
582.42	696.19
582.77	695.64
583.12	695.23
583.47	694.77
583.82	694.30
584.17	693.74
584.53	693.26
584.88	692.71
585.23	692.27
585.58	691.61
585.93	691.09
586.28	690.50
586.63	689.77
586.98	689.31
587.34	688.91
587.69	688.21
588.04	687.39
588.39	686.92
588.74	686.05
589.09	685.48
589.44	684.49
589.79	683.79
590.14	683.12
590.49	682.30
590.84	681.52
591.19	680.81
591.54	679.96
591.89	678.68
592.25	677.97
592.60	676.77
592.95	675.98
593.30	674.74
593.65	673.48
594.00	672.35
594.35	671.98
594.70	670.68
595.05	669.45
595.40	668.34
595.75	666.85
596.10	665.97
596.45	664.79
596.80	663.88
597.15	662.69
597.50	661.46
597.85	660.40
598.19	659.22
598.54	658.03
598.89	656.89
599.24	656.16
599.59	655.06
599.94	654.25
600.29	653.12
600.64	652.12
600.99	651.14
601.34	650.29
601.69	648.29
602.04	647.13
602.39	646.18
602.74	645.26
603.08	644.53
603.43	643.88
603.78	642.89
604.13	641.76
604.48	640.72
604.83	640.14
605.18	639.25
605.53	638.14
605.87	637.09
606.22	636.22
606.57	634.97
606.92	633.76
607.27	632.50
607.62	631.40
607.96	630.37
608.31	629.31
608.66	628.10
609.01	626.96
609.36	625.65
609.70	624.26
610.05	622.67
610.40	621.21
610.75	619.45
611.10	618.15
611.44	616.65
611.79	614.94
612.14	613.12
612.49	611.40
612.83	609.77
613.18	607.96
613.53	606.28
613.88	604.40
614.22	602.64
614.57	600.85
614.92	598.99
615.27	597.15
615.61	595.42
615.96	593.68
616.31	592.15
616.65	590.73
617.00	589.02
617.35	587.45
617.70	585.60
618.04	583.78
618.39	581.70
618.74	579.90
619.08	578.22
619.43	576.38
619.78	574.60
620.12	572.89
620.47	571.20
620.82	569.13
621.16	567.14
621.51	565.48
621.85	563.80
622.20	561.95
622.55	560.10
622.89	558.01
623.24	556.13
623.59	554.07
623.93	552.05
624.28	550.15
624.62	548.59
624.97	546.96
625.32	545.13
625.66	543.49
626.01	541.74
626.35	540.06
626.70	538.33
627.04	536.73
627.39	534.93
627.73	533.28
628.08	531.73
628.43	530.19
628.77	528.38
629.12	526.42
629.46	524.73
629.81	522.96
630.15	521.23
630.50	519.46
630.84	517.69
631.19	515.84
631.53	514.22
631.88	512.09
632.22	510.13
632.57	508.58
632.91	506.75
633.26	504.96
633.60	503.12
633.95	501.38
634.29	499.41
634.64	497.68
634.98	495.74
635.32	494.15
635.67	492.57
636.01	490.67
636.36	488.95
636.70	487.32
637.05	485.66
637.39	484.06
637.73	482.46
638.08	480.98
638.42	479.56
638.77	477.95
639.11	476.51
639.45	474.89
639.80	473.10
640.14	471.41
640.49	469.69
640.83	467.93
641.17	466.17
641.52	464.39
641.86	462.63
642.20	461.13
642.55	459.01
642.89	457.06
643.23	455.50
643.58	454.07
643.92	452.26
644.26	450.65
644.61	448.96
644.95	447.17
645.29	445.34
645.64	443.57
645.98	441.75
646.32	440.01
646.66	438.26
647.01	436.48
647.35	434.95
647.69	433.22
648.04	431.53
648.38	429.99
648.72	428.36
649.06	426.73
649.41	424.98
649.75	423.42
650.09	422.03
650.43	420.21
650.78	418.33
651.12	416.75
651.46	414.91
651.80	413.39
652.14	411.79
652.49	410.22
652.83	408.61
653.17	406.93
653.51	405.19
653.85	403.67
654.20	402.08
654.54	400.38
654.88	398.70
655.22	397.16
655.56	395.37
655.90	393.80
656.25	392.20
656.59	390.59
656.93	389.16
657.27	387.71
657.61	386.11
657.95	384.65
658.29	383.09
658.64	381.68
658.98	380.02
659.32	378.36
659.66	376.78
660.00	375.19
660.34	373.63
660.68	372.10
661.02	370.50
661.36	369.09
661.70	367.76
662.05	366.45
662.39	365.19
662.73	363.96
663.07	362.81
663.41	361.46
663.75	359.96
664.09	358.54
664.43	356.90
664.77	355.62
665.11	354.18
665.45	352.99
665.79	351.68
666.13	350.29
666.47	349.05
666.81	347.79
667.15	346.50
667.49	345.46
667.83	344.42
668.17	343.28
668.51	342.04
668.85	340.77
669.19	339.82
669.53	338.51
669.87	337.29
670.21	335.99
670.55	334.89
670.89	334.07
671.23	332.99
671.57	332.07
671.91	331.01
672.25	329.99
672.58	328.85
672.92	327.69
673.26	326.77
673.60	325.77
673.94	324.78
674.28	323.82
674.62	322.83
674.96	321.80
675.30	320.81
675.64	319.88
675.97	318.88
676.31	317.74
676.65	316.77
676.99	315.95
677.33	315.03
677.67	314.00
678.01	312.86
678.34	312.00
678.68	311.07
679.02	310.15
679.36	309.27
679.70	308.43
680.04	307.61
680.37	306.72
680.71	305.74
681.05	304.85
681.39	303.92
681.73	303.02
682.06	302.17
682.40	301.34
682.74	300.58
683.08	299.90
683.42	298.95
683.75	298.21
684.09	297.27
684.43	296.35
684.77	295.55
685.10	294.79
685.44	293.83
685.78	292.83
686.12	292.08
686.45	291.21
686.79	290.30
687.13	289.58
687.46	288.80
687.80	288.11
688.14	287.32
688.48	286.72
688.81	285.91
689.15	285.17
689.49	284.34
689.82	283.55
690.16	282.56
690.50	281.85
690.83	281.03
691.17	280.27
691.51	279.54
691.84	278.79
692.18	278.08
692.52	277.43
692.85	276.95
693.19	276.36
693.52	275.69
693.86	275.00
694.20	274.36
694.53	273.72
694.87	272.99
695.21	272.35
695.54	271.57
695.88	270.90
696.21	270.13
696.55	269.55
696.88	268.97
697.22	268.37
697.56	267.89
697.89	267.25
698.23	266.72
698.56	266.09
698.90	265.62
699.23	264.99
699.57	264.48
699.90	263.78
700.24	263.09
700.58	262.54
700.91	262.08
701.25	261.78
701.58	261.26
701.92	260.86
702.25	260.43
702.59	259.94
702.92	259.50
703.26	259.05
703.59	258.51
703.93	258.20
704.26	257.78
704.60	257.27
704.93	256.78
705.26	256.26
705.60	255.90
705.93	255.40
706.27	255.10
706.60	254.71
706.94	254.48
707.27	254.09
707.61	253.68
707.94	253.19
708.27	252.39
708.61	251.87
708.94	251.40
709.28	250.90
709.61	250.42
709.94	249.99
710.28	249.60
710.61	249.20
710.95	248.52
711.28	248.34
711.61	247.93
711.95	247.61
712.28	247.23
712.61	246.86
712.95	246.59
713.28	246.28
713.61	245.79
713.95	245.28
714.28	244.91
714.61	244.55
714.95	244.24
715.28	243.95
715.61	243.56
715.95	243.28
716.28	242.86
716.61	242.63
716.95	242.24
717.28	241.92
717.61	241.67
717.94	241.42
718.28	240.85
718.61	240.50
718.94	240.11
719.27	239.82
719.61	239.55
719.94	239.14
720.27	238.62
720.60	238.33
720.94	238.03
721.27	237.79
721.60	237.52
721.93	237.14
722.27	237.03
722.60	236.93
722.93	236.62
723.26	236.44
723.59	236.12
723.93	235.88
724.26	235.70
724.59	235.43
724.92	235.12
725.25	235.01
725.59	234.83
725.92	234.76
726.25	234.53
726.58	234.27
726.91	234.14
727.24	234.02
727.57	233.86
727.91	233.55
728.24	233.27
728.57	233.00
728.90	232.85
729.23	232.47
729.56	232.37
729.89	232.16
730.22	231.94
730.55	231.65
730.89	231.47
731.22	231.27
731.55	231.06
731.88	230.86
732.21	230.59
732.54	230.34
732.87	230.05
733.20	229.82
733.53	229.63
733.86	229.42
734.19	229.19
734.52	229.05
734.85	229.27
735.18	229.07
735.51	229.03
735.84	228.90
736.17	228.90
736.50	228.54
736.83	228.80
737.16	228.59
737.49	228.46
737.82	228.27
738.15	228.10
738.48	227.91
738.81	227.77
739.14	227.66
739.47	227.50
739.80	227.29
740.13	227.16
740.46	226.91
740.79	226.69
741.12	226.51
741.45	226.24
741.78	225.78
742.11	225.75
742.44	225.53
742.77	225.41
743.10	225.13
743.43	224.93
743.75	224.45
744.08	224.87
744.41	224.69
744.74	224.57
745.07	224.41
745.40	224.35
745.73	224.33
746.06	224.10
746.39	223.98
746.71	223.88
747.04	223.78
747.37	223.69
747.70	223.71
748.03	223.57
748.36	223.53
748.68	223.41
749.01	223.16
749.34	223.10
749.67	222.99
750.00	222.94
750.33	223.14
750.65	222.98
750.98	222.32
751.31	222.28
751.64	222.13
751.97	222.18
752.29	222.02
752.62	221.75
752.95	221.67
753.28	221.53
753.60	221.35
753.93	221.32
754.26	221.24
754.59	221.00
754.91	220.98
755.24	220.88
755.57	220.85
755.90	220.76
756.22	220.56
756.55	220.38
756.88	220.15
757.20	219.84
757.53	219.71
757.86	219.65
758.19	219.56
758.51	219.52
758.84	219.23
759.17	219.15
759.49	219.08
759.82	219.17
760.15	219.13
760.47	219.10
760.80	218.88
761.13	218.85
761.45	218.77
761.78	218.72
762.11	218.61
762.43	218.52
762.76	218.40
763.08	218.41
763.41	218.41
763.74	218.41
764.06	218.34
764.39	218.26
764.71	218.18
765.04	218.11
765.37	218.02
765.69	217.98
766.02	217.88
766.34	217.87
766.67	217.68
767.00	217.72
767.32	217.81
767.65	217.96
767.97	217.88
768.30	217.83
768.62	217.75
768.95	217.63
769.27	217.60
769.60	217.71
769.92	217.58
770.25	217.43
770.57	217.25
770.90	217.20
771.22	217.05
771.55	217.09
771.87	217.08
772.20	217.00
772.52	217.18
772.85	217.58
773.17	217.50
773.50	217.39
773.82	217.25
774.15	217.09
774.47	216.83
774.80	216.70
775.12	216.64
775.45	216.52
775.77	216.52
776.09	216.43
776.42	216.32
776.74	216.34
777.07	216.27
777.39	216.30
777.72	216.20
778.04	216.20
778.36	216.03
778.69	215.91
779.01	215.87
779.33	215.57
779.66	215.10
779.98	215.01
780.31	215.01
780.63	215.14
780.95	215.12
781.28	215.04
781.60	214.97
781.92	214.95
782.25	214.95
782.57	214.92
782.89	214.93
783.22	214.85
783.54	214.73
783.86	214.73
784.19	214.67
784.51	214.71
784.83	214.65
785.16	214.60
785.48	214.62
785.80	214.59
786.12	214.63
786.45	214.54
786.77	214.58
787.09	214.48
787.42	214.25
787.74	214.20
788.06	214.23
788.38	214.22
788.71	214.12
789.03	214.11
789.35	214.12
789.67	213.96
789.99	213.97
790.32	213.91
790.64	213.93
790.96	214.20
791.28	214.15
791.61	214.15
791.93	214.17
792.25	214.10
792.57	214.36
792.89	214.20
793.21	214.30
793.54	214.17
793.86	214.12
794.18	214.08
794.50	214.09
794.82	214.07
795.14	214.03
795.47	214.08
795.79	213.99
796.11	213.82
796.43	213.82
796.75	213.77
797.07	213.80
797.39	213.73
797.71	213.37
798.04	213.30
798.36	213.28
798.68	213.30
799.00	213.32
799.32	213.14
799.64	213.21
799.96	213.14
800.28	213.24
800.60	213.28
800.92	213.31
801.24	213.27
801.56	213.31
801.89	213.31
802.21	213.32
802.53	213.30
802.85	213.47
803.17	213.65
803.49	213.58
803.81	213.58
804.13	213.54
804.45	213.53
804.77	213.58
805.09	213.55
805.41	213.45
805.73	213.38
806.05	213.15
806.37	213.08
806.69	213.01
807.01	212.91
807.33	212.90
807.65	212.81
807.97	212.91
808.28	212.80
808.60	212.79
808.92	212.75
809.24	212.93
809.56	212.81
809.88	212.63
810.20	212.68
810.52	212.68
810.84	212.62
811.16	212.66
811.48	212.54
811.80	212.63
812.12	212.70
812.43	212.76
812.75	212.90
813.07	212.92
813.39	212.92
813.71	212.88
814.03	212.84
814.35	212.83
814.67	212.74
814.98	212.70
815.30	212.62
815.62	212.60
815.94	212.34
816.26	212.33
816.58	212.29
816.89	212.27
817.21	212.21
817.53	212.35
817.85	212.28
818.17	212.34
818.48	212.27
818.80	212.28
819.12	212.20
819.44	212.08
819.76	212.00
820.07	212.07
820.39	212.12
820.71	212.14
821.03	212.14
821.34	212.06
821.66	212.10
821.98	212.20
822.30	212.14
822.61	212.34
822.93	212.32
823.25	212.30
823.57	212.24
823.88	212.28
824.20	212.21
824.52	212.27
824.83	212.24
825.15	212.12
825.47	212.09
825.79	212.10
826.10	212.07
826.42	212.04
826.74	212.06
827.05	212.00
827.37	212.06
827.69	212.02
828.00	212.11
828.32	212.10
828.64	212.02
828.95	212.20
829.27	212.14
829.58	212.15
829.90	212.18
830.22	212.21
830.53	212.11
830.85	212.10
831.17	212.02
831.48	211.98
831.80	212.09
832.11	212.08
832.43	212.04
832.75	212.10
833.06	212.34
833.38	212.19
833.69	212.12
834.01	212.09
834.32	212.08
834.64	211.95
834.96	211.95
835.27	211.95
835.59	211.74
835.90	211.64
836.22	211.57
836.53	211.58
836.85	211.61
837.16	211.93
837.48	211.92
837.79	212.06
838.11	212.10
838.42	212.05
838.74	212.03
839.05	211.98
839.37	211.94
839.68	211.70
840.00	211.67
840.31	211.81
840.63	211.71
840.94	211.68
841.26	211.68
841.57	211.69
841.88	211.73
842.20	211.76
842.51	211.70
842.83	211.73
843.14	211.95
843.46	211.93
843.77	211.71
844.08	211.66
844.40	211.54
844.71	211.53
845.03	211.46
845.34	211.51
845.65	211.48
845.97	211.47
846.28	211.51
846.60	211.60
846.91	211.49
847.22	211.51
847.54	211.59
847.85	211.67
848.16	211.58
848.48	211.55
848.79	211.73
849.10	211.79
849.42	211.74
849.73	211.50
850.04	211.48
850.36	211.43
850.67	211.50
850.98	211.52
851.30	211.52
851.61	211.60
851.92	211.57
852.23	211.73
852.55	211.76
852.86	211.74
853.17	211.72
853.49	211.89
853.80	211.96
854.11	212.03
854.42	212.07
854.74	212.03
855.05	212.09
855.36	211.84
855.67	211.92
855.99	212.02
856.30	212.38
856.61	212.33
856.92	212.29
857.23	212.33
857.55	212.23
857.86	212.24
858.17	212.22
858.48	212.19
858.79	212.11
859.11	212.11
859.42	212.05
859.73	211.95
860.04	211.82
860.35	211.71
860.66	211.56
860.98	211.46
861.29	211.55
861.60	211.43
861.91	211.55
862.22	211.45
862.53	211.36
862.84	210.95
863.16	211.04
863.47	210.99
863.78	210.90
864.09	210.95
864.40	210.92
864.71	210.95
865.02	210.97
865.33	210.90
865.64	210.90
865.95	210.97
866.27	211.20
866.58	211.18
866.89	211.24
867.20	211.26
867.51	211.22
867.82	211.29
868.13	211.40
868.44	211.24
868.75	211.30
869.06	211.35
869.37	211.50
869.68	211.37
869.99	211.47
870.30	211.51
870.61	211.57
870.92	211.54
871.23	211.49
871.54	211.55
871.85	211.74
872.16	211.75
872.47	211.71
872.78	211.53
873.09	211.58
873.40	211.52
873.71	211.62
874.02	211.64
874.33	211.48
874.64	211.42
874.95	211.62
875.26	211.51
875.56	211.47
875.87	211.39
876.18	211.45
876.49	211.74
876.80	211.67
877.11	211.61
877.42	211.69
877.73	211.68
878.04	211.62
878.35	211.51
878.66	211.56
878.96	211.58
879.27	211.62
879.58	211.68
879.89	211.65
880.20	211.67
880.51	211.69
880.82	211.74
881.12	211.79
881.43	211.60
881.74	211.62
882.05	211.55
882.36	211.52
882.67	211.52
882.97	211.21
883.28	211.19
883.59	211.18
883.90	211.10
884.21	211.17
884.51	211.12
884.82	211.17
885.13	211.05
885.44	211.02
885.74	211.01
886.05	210.94
886.36	211.01
886.67	210.91
886.98	211.05
887.28	211.18
887.59	211.13
887.90	211.18
888.20	211.15
888.51	211.29
888.82	211.23
889.13	211.30
889.43	211.50
889.74	211.54
890.05	211.55
890.35	211.52
890.66	211.47
890.97	211.46
891.28	211.36
891.58	211.37
891.89	211.38
892.20	211.30
892.50	211.24
892.81	211.19
893.12	211.17
893.42	211.01
893.73	210.92
894.04	210.99
894.34	210.98
894.65	211.00
894.95	210.93
895.26	210.99
895.57	211.07
895.87	210.79
896.18	210.85
896.48	210.87
896.79	210.88
897.10	210.90
897.40	210.89
897.71	210.92
898.01	210.89
898.32	210.90
898.63	210.93
898.93	210.92
899.24	210.92
899.54	210.90
899.85	210.89
900.15	210.89
900.46	210.82
900.76	210.88
901.07	210.83
901.38	210.77
901.68	210.81
901.99	210.64
902.29	210.70
902.60	210.62
902.90	210.56
903.21	210.63
903.51	210.56
903.82	210.63
904.12	210.69
904.43	210.76
904.73	210.76
905.03	210.82
905.34	211.20
905.64	211.17
905.95	211.17
906.25	211.12
906.56	211.08
906.86	211.11
907.17	211.08
907.47	211.13
907.77	211.07
908.08	210.91
908.38	210.97
908.69	211.05
908.99	211.08
909.30	211.13
909.60	211.09
909.90	211.16
910.21	211.06
910.51	211.00
910.81	211.04
911.12	211.08
911.42	211.02
911.73	210.57
912.03	210.63
912.33	210.73
912.64	210.75
912.94	210.75
913.24	210.67
913.55	210.66
913.85	210.66
914.15	210.86
914.46	210.99
914.76	210.90
915.06	210.80
915.37	210.81
915.67	210.86
915.97	210.82
916.27	210.77
916.58	210.83
916.88	210.77
917.18	210.75
917.49	210.98
917.79	211.02
918.09	211.15
918.39	211.22
918.70	211.18
919.00	211.15
919.30	211.33
919.60	211.33
919.91	211.32
920.21	211.34
920.51	211.20
920.81	211.17
921.12	211.22
921.42	211.20
921.72	211.22
922.02	211.18
922.32	211.31
922.63	211.28
922.93	211.44
923.23	211.48
923.53	211.39
923.83	211.12
924.13	211.09
924.44	211.10
924.74	211.18
925.04	211.27
925.34	211.35
925.64	211.24
925.94	211.27
926.24	211.47
926.55	211.46
926.85	211.55
927.15	211.51
927.45	211.54
927.75	211.62
928.05	211.58
928.35	211.54
928.65	211.54
928.95	211.61
929.26	211.54
929.56	211.65
929.86	211.73
930.16	211.74
930.46	211.77
930.76	211.78
931.06	211.56
931.36	211.43
931.66	211.45
931.96	211.40
932.26	211.39
932.56	211.19
932.86	211.17
933.16	211.15
933.46	211.11
933.76	211.10
934.06	211.15
934.36	211.29
934.66	211.31
934.96	211.29
935.26	211.29
935.56	211.22
935.86	211.11
936.16	211.00
936.46	210.98
936.76	210.94
937.06	210.89
937.36	210.98
937.66	211.03
937.96	211.03
938.26	211.04
938.56	211.01
938.86	211.00
939.16	211.09
939.46	211.10
939.76	211.20
940.06	211.13
940.35	211.01
940.65	210.86
940.95	210.87
941.25	210.72
941.55	210.65
941.85	210.64
942.15	210.79
942.45	210.90
942.75	210.88
943.04	210.93
943.34	210.99
943.64	210.92
943.94	210.88
944.24	210.92
944.54	210.89
944.84	210.86
945.13	210.86
945.43	210.79
945.73	210.77
946.03	210.73
946.33	210.74
946.62	210.75
946.92	210.76
947.22	210.82
947.52	210.84
947.82	210.90
948.11	210.90
948.41	210.78
948.71	210.69
949.01	210.68
949.31	210.64
949.60	210.52
949.90	210.55
950.20	210.52
950.50	210.39
950.79	210.37
951.09	210.45
951.39	210.50
951.69	210.45
951.98	210.59
952.28	210.55
952.58	210.55
952.87	210.46
953.17	210.46
953.47	210.38
953.76	210.44
954.06	210.36
954.36	210.33
954.66	210.30
954.95	210.42
955.25	210.45
955.55	210.49
955.84	210.54
956.14	210.62
956.44	210.59
956.73	210.59
957.03	210.66
957.32	210.67
957.62	210.60
957.92	210.68
958.21	210.64
958.51	211.09
958.81	211.11
959.10	211.15
959.40	211.23
959.69	211.28
959.99	211.35
960.29	211.36
960.58	211.32
960.88	211.48
961.17	211.45
961.47	211.50
961.76	211.40
962.06	211.42
962.36	211.43
962.65	211.55
962.95	211.57
963.24	211.46
963.54	211.46
963.83	211.45
964.13	211.44
964.42	211.30
964.72	210.98
965.01	210.98
965.31	211.03
965.60	210.91
965.90	211.11
966.19	211.03
966.49	211.08
966.78	211.07
967.08	211.05
967.37	211.05
967.67	210.98
967.96	211.09
968.26	211.10
968.55	211.16
968.85	211.11
969.14	211.10
969.43	211.15
969.73	211.17
970.02	211.18
970.32	211.06
970.61	211.05
970.91	210.97
971.20	210.93
971.49	210.89
971.79	211.00
972.08	210.76
972.38	210.70
972.67	210.68
972.96	210.73
973.26	210.63
973.55	210.66
973.85	210.71
974.14	210.65
974.43	210.65
974.73	210.52
975.02	210.49
975.31	210.53
975.61	210.52
975.90	210.49
976.19	210.46
976.49	210.57
976.78	210.63
977.07	210.60
977.37	210.68
977.66	210.77
977.95	210.72
978.24	210.75
978.54	210.86
978.83	210.86
979.12	210.83
979.42	210.81
979.71	210.80
980.00	210.74
980.29	210.69
980.59	210.56
980.88	210.63
981.17	210.67
981.46	210.62
981.76	210.61
982.05	210.62
982.34	210.69
982.63	210.66
982.93	210.58
983.22	210.69
983.51	210.62
983.80	210.59
984.09	210.57
984.39	210.53
984.68	210.38
984.97	210.47
985.26	210.48
985.55	210.52
985.85	210.45
986.14	210.59
986.43	210.70
986.72	210.71
987.01	210.60
987.30	210.56
987.59	210.51
987.89	210.51
988.18	210.48
988.47	210.43
988.76	210.38
989.05	210.36
989.34	210.25
989.63	210.30
989.92	210.22
990.22	210.18
990.51	210.18
990.80	210.24
991.09	210.17
991.38	210.24
991.67	210.21
991.96	210.13
992.25	210.10
992.54	210.03
992.83	210.04
993.12	210.09
993.41	210.13
993.70	210.31
993.99	210.38
994.28	210.39
994.58	210.43
994.87	210.45
995.16	210.51
995.45	210.50
995.74	210.47
996.03	210.58
996.32	210.67
996.61	210.70
996.90	210.71
997.19	210.67
997.48	210.57
997.77	210.62
998.06	210.70
998.34	210.57
998.63	210.59
998.92	210.69
999.21	210.63
999.50	210.66
999.79	210.49
1000.08	210.46
1000.37	210.43
1000.66	210.39
1000.95	210.45
1001.24	210.47
1001.53	210.50
1001.82	210.57
1002.11	210.48
1002.40	210.51
1002.68	210.58
1002.97	210.79
1003.26	210.83
1003.55	210.81
1003.84	210.78
1004.13	210.87
1004.42	210.92
1004.71	210.94
1004.99	210.90
1005.28	210.95
1005.57	210.90
1005.86	210.86
1006.15	210.85
1006.44	210.79
1006.72	210.91
1007.01	210.90
1007.30	210.89
1007.59	210.92
1007.88	210.78
1008.17	210.79
1008.45	210.73
1008.74	210.60
1009.03	210.50
1009.32	210.49
1009.60	210.48
1009.89	210.46
1010.18	210.39
1010.47	210.32
1010.76	210.30
1011.04	210.30
1011.33	210.39
1011.62	210.44
1011.91	210.51
1012.19	210.55
1012.48	210.62
1012.77	210.51
1013.05	210.63
1013.34	210.60
1013.63	210.57
1013.92	210.53
1014.20	210.48
1014.49	210.42
1014.78	210.50
1015.06	210.31
1015.35	210.25
1015.64	210.31
1015.92	210.34
1016.21	210.30
1016.50	210.35
1016.78	210.40
1017.07	210.49
1017.36	210.38
1017.64	210.28
1017.93	210.33
1018.22	210.27
1018.50	210.25
1018.79	210.21
1019.08	210.07
1019.36	210.11
1019.65	210.10
1019.93	210.34
1020.22	210.37
1020.51	210.64
1020.79	210.52
1021.08	209.85
1021.36	209.55
1021.65	209.25
1021.94	210.55
1022.22	210.55
1022.51	210.05
1022.79	213.65
1023.08	209.90
1023.36	215.00
1023.65	208.75
>>>>>End Processed Spectral Data<<<<<
