SpectraSuite Data File
++++++++++++++++++++++++++++++++++++
Date: Mon Feb 25 17:18:25 EST 2013
User: group
Dark Spectrum Present: No
Reference Spectrum Present: No
Number of Sampled Component Spectra: 1
Spectrometers: USB2E7196
Integration Time (usec): 104000 (USB2E7196)
Spectra Averaged: 20 (USB2E7196)
Boxcar Smoothing: 10 (USB2E7196)
Correct for Electrical Dark: No (USB2E7196)
Strobe/Lamp Enabled: No (USB2E7196)
Correct for Detector Non-linearity: No (USB2E7196)
Correct for Stray Light: No (USB2E7196)
Number of Pixels in Processed Spectrum: 2048
>>>>>Begin Processed Spectral Data<<<<<
339.09	0.00
339.48	199.05
339.86	199.00
340.24	200.80
340.63	201.95
341.01	209.05
341.39	206.30
341.78	208.45
342.16	209.70
342.54	209.35
342.93	198.31
343.31	208.29
343.69	208.81
344.07	209.30
344.46	209.80
344.84	210.27
345.22	210.41
345.60	210.70
345.99	210.95
346.37	211.10
346.75	211.18
347.13	211.25
347.52	211.38
347.90	211.65
348.28	211.71
348.66	211.87
349.05	211.72
349.43	211.72
349.81	211.87
350.19	211.94
350.57	212.00
350.96	212.16
351.34	212.30
351.72	212.45
352.10	212.62
352.48	212.71
352.87	212.75
353.25	212.80
353.63	212.82
354.01	212.83
354.39	212.87
354.77	213.03
355.15	213.20
355.54	213.24
355.92	213.17
356.30	213.31
356.68	213.71
357.06	213.88
357.44	213.90
357.82	213.98
358.20	213.98
358.58	214.10
358.97	214.05
359.35	214.20
359.73	214.28
360.11	214.39
360.49	214.44
360.87	214.54
361.25	214.64
361.63	214.78
362.01	214.82
362.39	214.86
362.77	214.89
363.15	214.96
363.53	214.96
363.91	215.01
364.29	214.92
364.67	214.55
365.05	214.53
365.43	214.59
365.81	214.60
366.19	214.80
366.57	214.93
366.95	215.02
367.33	214.94
367.71	214.90
368.09	214.96
368.47	214.96
368.85	214.89
369.23	214.90
369.61	214.81
369.99	214.89
370.37	214.95
370.75	215.10
371.13	214.98
371.51	214.95
371.89	214.91
372.27	214.92
372.65	214.91
373.03	214.93
373.41	214.84
373.78	214.81
374.16	214.63
374.54	214.46
374.92	214.34
375.30	214.29
375.68	214.28
376.06	214.18
376.44	214.11
376.82	214.04
377.19	214.03
377.57	213.93
377.95	213.73
378.33	213.60
378.71	213.29
379.09	213.34
379.47	213.31
379.84	213.30
380.22	213.25
380.60	213.18
380.98	213.15
381.36	213.10
381.73	213.05
382.11	213.03
382.49	213.04
382.87	213.01
383.25	212.92
383.62	213.30
384.00	213.20
384.38	213.19
384.76	213.31
385.13	213.32
385.51	213.35
385.89	213.30
386.27	213.29
386.64	213.32
387.02	213.27
387.40	213.22
387.78	213.15
388.15	213.12
388.53	213.07
388.91	213.03
389.29	213.03
389.66	213.06
390.04	212.99
390.42	212.97
390.79	212.96
391.17	213.00
391.55	212.52
391.92	212.48
392.30	212.47
392.68	212.41
393.05	212.40
393.43	212.41
393.81	212.51
394.18	212.40
394.56	212.44
394.94	212.47
395.31	212.42
395.69	212.55
396.06	212.58
396.44	212.68
396.82	212.61
397.19	212.79
397.57	212.75
397.95	212.83
398.32	212.77
398.70	212.79
399.07	212.93
399.45	212.97
399.82	213.03
400.20	213.03
400.58	213.02
400.95	212.96
401.33	213.05
401.70	213.21
402.08	213.30
402.45	213.32
402.83	213.48
403.20	213.61
403.58	213.63
403.95	213.78
404.33	213.85
404.71	214.05
405.08	214.38
405.46	214.44
405.83	214.56
406.21	214.72
406.58	214.92
406.96	215.07
407.33	215.27
407.70	215.56
408.08	216.07
408.45	216.40
408.83	216.72
409.20	216.92
409.58	217.09
409.95	217.50
410.33	217.82
410.70	217.99
411.08	218.50
411.45	218.92
411.82	219.34
412.20	219.87
412.57	220.62
412.95	220.83
413.32	221.56
413.69	222.25
414.07	222.93
414.44	223.70
414.82	224.40
415.19	225.27
415.56	226.09
415.94	226.92
416.31	228.01
416.68	229.04
417.06	230.29
417.43	231.47
417.81	232.81
418.18	234.28
418.55	235.83
418.93	237.24
419.30	238.83
419.67	240.52
420.04	242.22
420.42	243.93
420.79	246.19
421.16	248.37
421.54	250.67
421.91	252.96
422.28	255.20
422.66	257.76
423.03	260.39
423.40	263.03
423.77	265.62
424.15	268.26
424.52	271.10
424.89	274.15
425.26	277.18
425.64	279.98
426.01	283.12
426.38	286.35
426.75	289.82
427.13	293.21
427.50	296.81
427.87	300.58
428.24	304.34
428.61	307.74
428.99	311.73
429.36	315.87
429.73	319.96
430.10	324.14
430.47	328.43
430.85	332.63
431.22	337.19
431.59	342.39
431.96	347.07
432.33	352.26
432.70	357.22
433.08	363.06
433.45	368.66
433.82	374.10
434.19	380.19
434.56	386.26
434.93	392.03
435.30	397.73
435.68	404.04
436.05	410.27
436.42	416.54
436.79	422.10
437.16	428.22
437.53	434.67
437.90	441.21
438.27	447.51
438.64	454.06
439.01	460.26
439.38	465.31
439.75	470.53
440.13	476.54
440.50	482.23
440.87	486.82
441.24	491.49
441.61	496.73
441.98	500.58
442.35	504.80
442.72	509.34
443.09	513.75
443.46	516.35
443.83	517.97
444.20	519.42
444.57	521.58
444.94	522.56
445.31	523.70
445.68	524.77
446.05	525.07
446.42	524.36
446.79	523.45
447.16	522.54
447.53	521.97
447.90	519.32
448.27	516.78
448.64	513.35
449.01	510.81
449.37	506.42
449.74	502.17
450.11	497.29
450.48	491.87
450.85	486.20
451.22	481.45
451.59	476.98
451.96	472.60
452.33	466.91
452.70	461.57
453.07	455.22
453.43	448.68
453.80	442.65
454.17	436.89
454.54	431.33
454.91	425.56
455.28	419.68
455.65	414.43
456.02	409.55
456.38	404.96
456.75	399.44
457.12	394.83
457.49	390.33
457.86	385.88
458.23	382.10
458.59	377.90
458.96	373.69
459.33	369.92
459.70	366.25
460.07	363.18
460.43	359.79
460.80	356.75
461.17	353.99
461.54	351.01
461.91	348.23
462.27	345.48
462.64	343.09
463.01	340.51
463.38	338.12
463.74	335.12
464.11	332.88
464.48	330.96
464.85	328.87
465.21	327.28
465.58	325.45
465.95	323.26
466.32	321.66
466.68	319.96
467.05	318.26
467.42	316.61
467.78	314.83
468.15	313.24
468.52	311.97
468.88	310.32
469.25	308.99
469.62	307.93
469.98	306.73
470.35	305.64
470.72	304.58
471.08	303.34
471.45	302.52
471.82	301.73
472.18	300.72
472.55	300.10
472.92	299.19
473.28	298.64
473.65	298.10
474.02	297.42
474.38	297.03
474.75	296.74
475.11	296.25
475.48	296.09
475.85	295.99
476.21	295.81
476.58	295.75
476.94	295.75
477.31	295.74
477.67	295.80
478.04	295.85
478.41	296.09
478.77	296.65
479.14	296.78
479.50	297.05
479.87	297.58
480.23	298.00
480.60	298.45
480.96	298.95
481.33	299.71
481.69	300.44
482.06	301.10
482.42	301.89
482.79	302.88
483.15	303.83
483.52	304.91
483.88	305.99
484.25	307.23
484.61	308.55
484.98	309.80
485.34	311.36
485.71	313.10
486.07	314.95
486.44	316.57
486.80	318.58
487.17	320.70
487.53	322.95
487.90	325.37
488.26	328.04
488.62	330.75
488.99	333.47
489.35	336.37
489.72	339.60
490.08	342.80
490.44	346.14
490.81	349.84
491.17	353.49
491.54	357.45
491.90	361.64
492.26	365.91
492.63	370.64
492.99	375.36
493.36	380.44
493.72	385.67
494.08	391.16
494.45	397.06
494.81	403.15
495.17	409.22
495.54	415.94
495.90	422.80
496.26	429.83
496.63	437.32
496.99	445.22
497.35	453.30
497.72	461.75
498.08	470.46
498.44	479.50
498.80	489.28
499.17	499.42
499.53	509.53
499.89	520.29
500.26	531.11
500.62	542.32
500.98	553.97
501.34	566.09
501.71	578.72
502.07	591.53
502.43	604.88
502.79	618.59
503.16	632.65
503.52	647.20
503.88	662.14
504.24	677.42
504.60	693.06
504.97	709.20
505.33	725.89
505.69	743.53
506.05	761.44
506.41	779.35
506.78	797.49
507.14	816.20
507.50	835.18
507.86	854.97
508.22	875.40
508.59	895.69
508.95	916.54
509.31	937.80
509.67	959.60
510.03	981.80
510.39	1004.85
510.75	1027.97
511.12	1051.60
511.48	1075.51
511.84	1099.78
512.20	1124.16
512.56	1149.06
512.92	1174.30
513.28	1199.64
513.64	1224.91
514.00	1250.55
514.37	1276.60
514.73	1303.30
515.09	1330.18
515.45	1356.75
515.81	1383.53
516.17	1410.76
516.53	1438.18
516.89	1465.59
517.25	1493.18
517.61	1520.87
517.97	1548.24
518.33	1575.80
518.69	1603.25
519.05	1631.11
519.41	1659.10
519.77	1687.53
520.13	1715.23
520.49	1742.57
520.85	1770.42
521.21	1798.65
521.57	1827.30
521.93	1854.85
522.29	1883.37
522.65	1911.50
523.01	1939.30
523.37	1966.37
523.73	1993.93
524.09	2021.35
524.45	2048.76
524.81	2076.05
525.17	2103.27
525.53	2130.77
525.89	2157.88
526.25	2184.54
526.61	2210.13
526.97	2236.16
527.33	2262.07
527.68	2288.46
528.04	2313.83
528.40	2338.30
528.76	2363.12
529.12	2387.84
529.48	2413.74
529.84	2437.91
530.20	2462.06
530.56	2486.52
530.91	2511.80
531.27	2536.20
531.63	2559.99
531.99	2583.69
532.35	2606.30
532.71	2628.68
533.07	2651.38
533.42	2672.91
533.78	2695.09
534.14	2717.04
534.50	2737.12
534.86	2757.85
535.21	2777.14
535.57	2798.44
535.93	2818.45
536.29	2837.52
536.65	2856.75
537.00	2874.32
537.36	2891.69
537.72	2908.71
538.08	2925.55
538.44	2942.15
538.79	2958.62
539.15	2974.83
539.51	2990.52
539.87	3007.32
540.22	3022.90
540.58	3038.47
540.94	3053.90
541.29	3067.54
541.65	3081.02
542.01	3094.88
542.37	3107.77
542.72	3121.20
543.08	3132.63
543.44	3145.74
543.79	3157.08
544.15	3167.04
544.51	3178.35
544.87	3189.90
545.22	3199.81
545.58	3208.77
545.94	3216.39
546.29	3223.47
546.65	3230.52
547.01	3237.19
547.36	3243.09
547.72	3249.09
548.07	3253.72
548.43	3257.86
548.79	3262.08
549.14	3266.36
549.50	3270.64
549.86	3273.61
550.21	3276.45
550.57	3279.95
550.92	3280.96
551.28	3282.78
551.64	3285.38
551.99	3287.11
552.35	3287.81
552.70	3288.95
553.06	3290.39
553.41	3291.62
553.77	3292.60
554.13	3292.96
554.48	3293.41
554.84	3294.03
555.19	3293.21
555.55	3291.85
555.90	3290.30
556.26	3289.25
556.61	3287.41
556.97	3285.17
557.32	3283.50
557.68	3280.38
558.03	3277.08
558.39	3274.64
558.74	3273.12
559.10	3270.72
559.45	3267.56
559.81	3264.98
560.16	3261.13
560.52	3257.67
560.87	3253.92
561.23	3249.25
561.58	3245.22
561.94	3240.44
562.29	3234.29
562.64	3229.87
563.00	3225.80
563.35	3222.78
563.71	3219.27
564.06	3215.20
564.42	3211.30
564.77	3207.71
565.12	3204.42
565.48	3200.19
565.83	3195.63
566.19	3191.14
566.54	3185.15
566.89	3179.30
567.25	3173.58
567.60	3168.70
567.96	3163.18
568.31	3157.73
568.66	3151.75
569.02	3145.44
569.37	3138.50
569.72	3132.34
570.08	3125.62
570.43	3118.20
570.78	3109.97
571.14	3101.27
571.49	3093.11
571.84	3085.84
572.20	3076.32
572.55	3067.83
572.90	3058.68
573.26	3049.16
573.61	3039.27
573.96	3029.86
574.31	3020.06
574.67	3009.17
575.02	2998.52
575.37	2987.90
575.72	2976.51
576.08	2967.34
576.43	2956.60
576.78	2946.65
577.13	2936.98
577.49	2926.81
577.84	2916.77
578.19	2907.15
578.54	2898.28
578.90	2889.58
579.25	2878.66
579.60	2868.00
579.95	2856.99
580.30	2847.04
580.66	2837.73
581.01	2826.73
581.36	2815.76
581.71	2805.17
582.06	2795.42
582.42	2785.30
582.77	2774.04
583.12	2763.94
583.47	2753.50
583.82	2743.60
584.17	2733.24
584.53	2722.95
584.88	2712.49
585.23	2701.89
585.58	2691.34
585.93	2680.59
586.28	2670.14
586.63	2659.68
586.98	2649.94
587.34	2640.55
587.69	2630.41
588.04	2619.98
588.39	2610.35
588.74	2600.02
589.09	2590.75
589.44	2579.79
589.79	2570.07
590.14	2560.98
590.49	2551.13
590.84	2540.77
591.19	2531.75
591.54	2521.79
591.89	2510.70
592.25	2500.54
592.60	2490.01
592.95	2479.07
593.30	2467.22
593.65	2455.60
594.00	2445.16
594.35	2435.97
594.70	2425.32
595.05	2415.15
595.40	2404.92
595.75	2394.05
596.10	2384.45
596.45	2374.44
596.80	2365.63
597.15	2356.46
597.50	2346.24
597.85	2336.71
598.19	2326.95
598.54	2316.94
598.89	2307.86
599.24	2299.63
599.59	2290.57
599.94	2282.58
600.29	2273.97
600.64	2265.54
600.99	2256.12
601.34	2247.43
601.69	2237.11
602.04	2227.46
602.39	2218.14
602.74	2209.30
603.08	2201.63
603.43	2193.81
603.78	2185.01
604.13	2175.93
604.48	2166.98
604.83	2159.43
605.18	2151.91
605.53	2143.10
605.87	2133.97
606.22	2125.40
606.57	2116.14
606.92	2107.04
607.27	2097.35
607.62	2088.22
607.96	2079.92
608.31	2072.19
608.66	2062.59
609.01	2053.58
609.36	2044.39
609.70	2034.54
610.05	2024.69
610.40	2014.83
610.75	2004.55
611.10	1995.39
611.44	1984.82
611.79	1974.25
612.14	1963.20
612.49	1951.52
612.83	1941.62
613.18	1930.82
613.53	1919.79
613.88	1908.82
614.22	1898.43
614.57	1887.69
614.92	1877.18
615.27	1866.33
615.61	1855.24
615.96	1845.13
616.31	1835.47
616.65	1826.27
617.00	1816.87
617.35	1806.97
617.70	1796.28
618.04	1785.38
618.39	1773.95
618.74	1764.27
619.08	1754.04
619.43	1744.24
619.78	1734.73
620.12	1724.76
620.47	1715.28
620.82	1704.84
621.16	1694.65
621.51	1684.50
621.85	1675.06
622.20	1664.85
622.55	1654.68
622.89	1644.72
623.24	1634.79
623.59	1624.20
623.93	1613.74
624.28	1604.01
624.62	1594.47
624.97	1585.26
625.32	1576.28
625.66	1567.35
626.01	1557.98
626.35	1548.74
626.70	1539.44
627.04	1530.63
627.39	1521.61
627.73	1512.54
628.08	1504.39
628.43	1495.36
628.77	1486.09
629.12	1476.74
629.46	1468.50
629.81	1460.03
630.15	1451.37
630.50	1442.41
630.84	1433.56
631.19	1424.89
631.53	1416.31
631.88	1406.85
632.22	1397.56
632.57	1388.86
632.91	1380.07
633.26	1371.29
633.60	1362.67
633.95	1354.60
634.29	1345.60
634.64	1337.05
634.98	1328.28
635.32	1319.74
635.67	1312.03
636.01	1304.25
636.36	1295.80
636.70	1287.83
637.05	1279.31
637.39	1271.39
637.73	1263.85
638.08	1256.69
638.42	1249.48
638.77	1241.62
639.11	1234.08
639.45	1226.60
639.80	1218.41
640.14	1210.30
640.49	1202.55
640.83	1194.80
641.17	1186.56
641.52	1178.56
641.86	1170.57
642.20	1163.00
642.55	1154.90
642.89	1146.70
643.23	1138.62
643.58	1131.59
643.92	1123.16
644.26	1115.79
644.61	1108.06
644.95	1100.06
645.29	1091.96
645.64	1083.67
645.98	1076.04
646.32	1068.67
646.66	1060.80
647.01	1053.70
647.35	1046.65
647.69	1038.94
648.04	1031.32
648.38	1023.80
648.72	1016.63
649.06	1009.01
649.41	1001.48
649.75	994.07
650.09	986.89
650.43	979.64
650.78	971.64
651.12	964.40
651.46	957.10
651.80	949.88
652.14	942.84
652.49	935.67
652.83	928.57
653.17	920.72
653.51	913.44
653.85	906.48
654.20	899.25
654.54	891.83
654.88	884.90
655.22	877.92
655.56	870.94
655.90	863.90
656.25	856.99
656.59	850.30
656.93	843.79
657.27	837.17
657.61	830.23
657.95	823.99
658.29	817.57
658.64	811.20
658.98	804.70
659.32	797.97
659.66	791.77
660.00	785.49
660.34	779.22
660.68	772.79
661.02	766.52
661.36	760.61
661.70	754.93
662.05	749.40
662.39	744.03
662.73	738.66
663.07	733.23
663.41	727.86
663.75	722.14
664.09	716.41
664.43	710.72
664.77	705.63
665.11	700.20
665.45	694.97
665.79	689.74
666.13	684.60
666.47	679.57
666.81	674.44
667.15	669.38
667.49	664.87
667.83	660.33
668.17	655.60
668.51	651.00
668.85	646.26
669.19	641.74
669.53	636.83
669.87	631.86
670.21	627.22
670.55	622.66
670.89	618.57
671.23	614.49
671.57	610.50
671.91	606.14
672.25	601.69
672.58	597.31
672.92	593.05
673.26	589.14
673.60	585.24
673.94	581.20
674.28	577.35
674.62	573.48
674.96	569.50
675.30	565.87
675.64	561.92
675.97	558.11
676.31	554.16
676.65	550.63
676.99	547.27
677.33	543.71
677.67	540.27
678.01	536.50
678.34	532.93
678.68	529.34
679.02	525.83
679.36	522.67
679.70	519.40
680.04	516.08
680.37	512.58
680.71	509.36
681.05	506.15
681.39	502.79
681.73	499.67
682.06	496.68
682.40	493.60
682.74	490.49
683.08	487.46
683.42	484.23
683.75	481.29
684.09	478.16
684.43	475.10
684.77	471.81
685.10	468.89
685.44	465.73
685.78	462.88
686.12	460.17
686.45	457.26
686.79	454.46
687.13	451.79
687.46	449.12
687.80	446.32
688.14	443.50
688.48	440.85
688.81	438.12
689.15	435.46
689.49	432.65
689.82	430.07
690.16	427.26
690.50	424.75
690.83	422.08
691.17	419.39
691.51	416.83
691.84	414.48
692.18	412.03
692.52	409.79
692.85	407.55
693.19	405.28
693.52	402.94
693.86	400.62
694.20	398.40
694.53	396.09
694.87	393.80
695.21	391.63
695.54	389.29
695.88	386.97
696.21	384.62
696.55	382.58
696.88	380.33
697.22	378.25
697.56	376.26
697.89	374.17
698.23	372.26
698.56	370.26
698.90	368.47
699.23	366.47
699.57	364.52
699.90	362.42
700.24	360.40
700.58	358.57
700.91	356.78
701.25	355.05
701.58	353.28
701.92	351.47
702.25	349.75
702.59	348.15
702.92	346.50
703.26	344.84
703.59	343.11
703.93	341.88
704.26	340.39
704.60	338.78
704.93	337.12
705.26	335.50
705.60	334.03
705.93	332.42
706.27	330.98
706.60	329.63
706.94	328.42
707.27	326.93
707.61	325.59
707.94	324.10
708.27	322.50
708.61	321.12
708.94	319.80
709.28	318.40
709.61	317.01
709.94	315.70
710.28	314.49
710.61	313.31
710.95	311.66
711.28	310.56
711.61	309.34
711.95	308.30
712.28	307.14
712.61	305.99
712.95	304.98
713.28	303.94
713.61	302.80
713.95	301.50
714.28	300.49
714.61	299.30
714.95	298.20
715.28	297.13
715.61	296.07
715.95	295.04
716.28	294.04
716.61	293.07
716.95	291.98
717.28	290.95
717.61	290.03
717.94	289.19
718.28	288.08
718.61	287.15
718.94	286.16
719.27	285.25
719.61	284.37
719.94	283.42
720.27	282.40
720.60	281.52
720.94	280.65
721.27	279.85
721.60	279.07
721.93	278.41
722.27	277.75
722.60	276.99
722.93	276.23
723.26	275.59
723.59	274.85
723.93	274.20
724.26	273.53
724.59	272.83
724.92	272.15
725.25	271.53
725.59	270.89
725.92	270.31
726.25	269.64
726.58	269.06
726.91	268.43
727.24	267.91
727.57	267.34
727.91	266.67
728.24	266.09
728.57	265.47
728.90	264.86
729.23	264.21
729.56	263.79
729.89	263.18
730.22	262.50
730.55	261.86
730.89	261.30
731.22	260.73
731.55	260.14
731.88	259.65
732.21	259.01
732.54	258.36
732.87	257.83
733.20	257.33
733.53	256.75
733.86	256.23
734.19	255.67
734.52	255.13
734.85	254.96
735.18	254.43
735.51	254.04
735.84	253.60
736.17	253.20
736.50	252.55
736.83	252.55
737.16	252.10
737.49	251.74
737.82	251.25
738.15	250.81
738.48	250.44
738.81	249.89
739.14	249.45
739.47	249.10
739.80	248.66
740.13	248.28
740.46	247.81
740.79	247.30
741.12	246.95
741.45	246.55
741.78	245.95
742.11	245.63
742.44	245.17
742.77	244.90
743.10	244.42
743.43	244.01
743.75	243.20
744.08	243.38
744.41	242.93
744.74	242.58
745.07	242.22
745.40	241.89
745.73	241.72
746.06	241.39
746.39	241.11
746.71	240.80
747.04	240.43
747.37	240.08
747.70	239.89
748.03	239.59
748.36	239.30
748.68	238.89
749.01	238.49
749.34	238.27
749.67	237.98
750.00	237.77
750.33	237.80
750.65	237.66
750.98	236.91
751.31	236.64
751.64	236.37
751.97	236.19
752.29	235.83
752.62	235.43
752.95	235.17
753.28	234.85
753.60	234.62
753.93	234.47
754.26	234.31
754.59	233.98
754.91	233.62
755.24	233.39
755.57	233.20
755.90	232.98
756.22	232.65
756.55	232.31
756.88	231.93
757.20	231.38
757.53	230.97
757.86	230.64
758.19	230.48
758.51	230.29
758.84	229.99
759.17	229.80
759.49	229.65
759.82	229.59
760.15	229.42
760.47	229.06
760.80	228.70
761.13	228.46
761.45	228.26
761.78	228.12
762.11	227.86
762.43	227.65
762.76	227.45
763.08	227.31
763.41	227.10
763.74	226.96
764.06	226.84
764.39	226.67
764.71	226.55
765.04	226.32
765.37	226.07
765.69	225.88
766.02	225.67
766.34	225.39
766.67	225.14
767.00	224.94
767.32	225.08
767.65	225.08
767.97	224.95
768.30	224.83
768.62	224.64
768.95	224.41
769.27	224.24
769.60	224.20
769.92	224.00
770.25	223.79
770.57	223.68
770.90	223.49
771.22	223.33
771.55	223.21
771.87	223.04
772.20	222.96
772.52	223.11
772.85	223.45
773.17	223.35
773.50	223.16
773.82	222.90
774.15	222.54
774.47	222.29
774.80	222.09
775.12	221.91
775.45	221.77
775.77	221.77
776.09	221.67
776.42	221.48
776.74	221.50
777.07	221.49
777.39	221.33
777.72	221.27
778.04	221.17
778.36	220.99
778.69	220.87
779.01	220.77
779.33	220.33
779.66	219.79
779.98	219.68
780.31	219.59
780.63	219.78
780.95	219.76
781.28	219.69
781.60	219.64
781.92	219.54
782.25	219.53
782.57	219.41
782.89	219.30
783.22	219.17
783.54	219.00
783.86	218.85
784.19	218.79
784.51	218.83
784.83	218.72
785.16	218.69
785.48	218.72
785.80	218.62
786.12	218.67
786.45	218.56
786.77	218.50
787.09	218.46
787.42	218.22
787.74	218.14
788.06	218.05
788.38	217.90
788.71	217.82
789.03	217.79
789.35	217.82
789.67	217.73
789.99	217.70
790.32	217.55
790.64	217.58
790.96	217.78
791.28	217.58
791.61	217.53
791.93	217.48
792.25	217.38
792.57	217.61
792.89	217.45
793.21	217.47
793.54	217.40
793.86	217.34
794.18	217.36
794.50	217.26
794.82	217.21
795.14	217.21
795.47	217.22
795.79	217.10
796.11	216.92
796.43	216.92
796.75	216.94
797.07	216.96
797.39	216.87
797.71	216.62
798.04	216.53
798.36	216.52
798.68	216.48
799.00	216.41
799.32	216.19
799.64	216.23
799.96	216.17
800.28	216.18
800.60	216.07
800.92	215.94
801.24	215.89
801.56	215.88
801.89	215.84
802.21	215.85
802.53	215.81
802.85	215.89
803.17	215.99
803.49	215.81
803.81	215.74
804.13	215.65
804.45	215.55
804.77	215.63
805.09	215.60
805.41	215.54
805.73	215.47
806.05	215.31
806.37	215.26
806.69	215.20
807.01	215.18
807.33	215.19
807.65	215.07
807.97	215.24
808.28	215.19
808.60	215.17
808.92	215.10
809.24	215.32
809.56	215.15
809.88	215.04
810.20	215.15
810.52	215.20
810.84	215.17
811.16	215.14
811.48	215.11
811.80	215.25
812.12	215.25
812.43	215.33
812.75	215.32
813.07	215.20
813.39	215.18
813.71	215.06
814.03	215.06
814.35	215.09
814.67	214.85
814.98	214.78
815.30	214.78
815.62	214.68
815.94	214.36
816.26	214.38
816.58	214.28
816.89	214.22
817.21	214.08
817.53	214.08
817.85	213.98
818.17	213.87
818.48	213.65
818.80	213.64
819.12	213.56
819.44	213.52
819.76	213.53
820.07	213.47
820.39	213.52
820.71	213.44
821.03	213.41
821.34	213.41
821.66	213.45
821.98	213.45
822.30	213.41
822.61	213.65
822.93	213.63
823.25	213.51
823.57	213.43
823.88	213.54
824.20	213.53
824.52	213.61
824.83	213.61
825.15	213.57
825.47	213.55
825.79	213.49
826.10	213.49
826.42	213.45
826.74	213.56
827.05	213.51
827.37	213.52
827.69	213.55
828.00	213.51
828.32	213.50
828.64	213.40
828.95	213.57
829.27	213.42
829.58	213.44
829.90	213.55
830.22	213.60
830.53	213.43
830.85	213.39
831.17	213.24
831.48	213.22
831.80	213.23
832.11	213.19
832.43	213.10
832.75	213.09
833.06	213.27
833.38	213.11
833.69	213.06
834.01	213.10
834.32	213.00
834.64	212.97
834.96	212.99
835.27	213.04
835.59	212.97
835.90	212.94
836.22	212.89
836.53	212.82
836.85	212.68
837.16	213.06
837.48	213.04
837.79	213.16
838.11	213.16
838.42	213.13
838.74	213.21
839.05	213.25
839.37	213.22
839.68	212.97
840.00	212.95
840.31	213.03
840.63	213.00
840.94	212.95
841.26	212.97
841.57	212.91
841.88	212.95
842.20	212.89
842.51	212.87
842.83	212.87
843.14	213.25
843.46	213.36
843.77	213.17
844.08	213.12
844.40	213.01
844.71	213.07
845.03	213.05
845.34	212.98
845.65	213.00
845.97	213.02
846.28	213.13
846.60	213.16
846.91	213.09
847.22	213.12
847.54	213.25
847.85	213.27
848.16	213.24
848.48	213.14
848.79	213.26
849.10	213.20
849.42	213.15
849.73	212.76
850.04	212.67
850.36	212.53
850.67	212.60
850.98	212.67
851.30	212.60
851.61	212.66
851.92	212.67
852.23	212.78
852.55	212.85
852.86	212.84
853.17	212.90
853.49	212.98
853.80	212.98
854.11	213.01
854.42	213.09
854.74	212.97
855.05	213.01
855.36	212.82
855.67	212.89
855.99	212.95
856.30	213.36
856.61	213.40
856.92	213.39
857.23	213.38
857.55	213.35
857.86	213.32
858.17	213.29
858.48	213.23
858.79	213.15
859.11	213.06
859.42	213.02
859.73	212.93
860.04	212.86
860.35	212.77
860.66	212.67
860.98	212.58
861.29	212.71
861.60	212.61
861.91	212.60
862.22	212.48
862.53	212.36
862.84	211.90
863.16	211.96
863.47	211.95
863.78	211.88
864.09	211.86
864.40	211.90
864.71	211.91
865.02	211.96
865.33	211.91
865.64	211.85
865.95	211.80
866.27	211.97
866.58	211.96
866.89	211.97
867.20	211.94
867.51	211.82
867.82	211.75
868.13	211.87
868.44	211.87
868.75	211.95
869.06	211.98
869.37	212.07
869.68	211.99
869.99	212.02
870.30	212.06
870.61	212.11
870.92	212.04
871.23	211.97
871.54	211.96
871.85	212.06
872.16	212.10
872.47	212.06
872.78	211.86
873.09	211.92
873.40	211.86
873.71	211.94
874.02	212.01
874.33	211.96
874.64	211.84
874.95	211.92
875.26	211.83
875.56	211.83
875.87	211.75
876.18	211.72
876.49	212.04
876.80	212.02
877.11	211.90
877.42	211.88
877.73	211.95
878.04	211.90
878.35	211.88
878.66	211.95
878.96	211.99
879.27	211.96
879.58	211.90
879.89	211.88
880.20	211.93
880.51	211.94
880.82	212.00
881.12	212.06
881.43	211.97
881.74	212.01
882.05	212.01
882.36	212.10
882.67	212.12
882.97	211.71
883.28	211.69
883.59	211.70
883.90	211.75
884.21	211.75
884.51	211.70
884.82	211.59
885.13	211.52
885.44	211.48
885.74	211.50
886.05	211.46
886.36	211.51
886.67	211.35
886.98	211.49
887.28	211.51
887.59	211.50
887.90	211.50
888.20	211.45
888.51	211.51
888.82	211.43
889.13	211.46
889.43	211.80
889.74	211.78
890.05	211.80
890.35	211.75
890.66	211.68
890.97	211.67
891.28	211.69
891.58	211.70
891.89	211.73
892.20	211.75
892.50	211.76
892.81	211.71
893.12	211.70
893.42	211.55
893.73	211.52
894.04	211.52
894.34	211.57
894.65	211.57
894.95	211.54
895.26	211.58
895.57	211.77
895.87	211.45
896.18	211.50
896.48	211.50
896.79	211.52
897.10	211.53
897.40	211.67
897.71	211.69
898.01	211.65
898.32	211.68
898.63	211.58
898.93	211.58
899.24	211.67
899.54	211.68
899.85	211.62
900.15	211.63
900.46	211.60
900.76	211.63
901.07	211.65
901.38	211.63
901.68	211.66
901.99	211.46
902.29	211.47
902.60	211.41
902.90	211.40
903.21	211.36
903.51	211.39
903.82	211.35
904.12	211.40
904.43	211.44
904.73	211.41
905.03	211.48
905.34	211.77
905.64	211.65
905.95	211.68
906.25	211.74
906.56	211.65
906.86	211.66
907.17	211.65
907.47	211.64
907.77	211.57
908.08	211.49
908.38	211.44
908.69	211.46
908.99	211.55
909.30	211.58
909.60	211.61
909.90	211.60
910.21	211.50
910.51	211.39
910.81	211.31
911.12	211.31
911.42	211.26
911.73	210.90
912.03	210.97
912.33	210.99
912.64	210.92
912.94	210.94
913.24	210.92
913.55	210.86
913.85	210.87
914.15	210.96
914.46	211.01
914.76	211.02
915.06	210.95
915.37	210.85
915.67	210.88
915.97	210.87
916.27	210.80
916.58	210.75
916.88	210.74
917.18	210.82
917.49	211.12
917.79	211.19
918.09	211.31
918.39	211.39
918.70	211.37
919.00	211.40
919.30	211.56
919.60	211.53
919.91	211.49
920.21	211.44
920.51	211.37
920.81	211.31
921.12	211.35
921.42	211.40
921.72	211.48
922.02	211.44
922.32	211.48
922.63	211.51
922.93	211.77
923.23	211.80
923.53	211.70
923.83	211.43
924.13	211.43
924.44	211.38
924.74	211.40
925.04	211.48
925.34	211.39
925.64	211.32
925.94	211.29
926.24	211.50
926.55	211.55
926.85	211.56
927.15	211.60
927.45	211.51
927.75	211.46
928.05	211.44
928.35	211.44
928.65	211.51
928.95	211.51
929.26	211.45
929.56	211.47
929.86	211.56
930.16	211.46
930.46	211.39
930.76	211.35
931.06	211.23
931.36	211.15
931.66	211.30
931.96	211.27
932.26	211.28
932.56	211.11
932.86	211.09
933.16	211.16
933.46	211.12
933.76	211.17
934.06	211.29
934.36	211.42
934.66	211.43
934.96	211.38
935.26	211.40
935.56	211.39
935.86	211.36
936.16	211.34
936.46	211.35
936.76	211.41
937.06	211.45
937.36	211.44
937.66	211.40
937.96	211.32
938.26	211.28
938.56	211.33
938.86	211.38
939.16	211.46
939.46	211.45
939.76	211.48
940.06	211.47
940.35	211.37
940.65	211.19
940.95	211.14
941.25	211.10
941.55	211.08
941.85	211.07
942.15	211.12
942.45	211.20
942.75	211.25
943.04	211.22
943.34	211.25
943.64	211.24
943.94	211.21
944.24	211.24
944.54	211.26
944.84	211.23
945.13	211.16
945.43	211.10
945.73	211.15
946.03	211.12
946.33	211.05
946.62	211.08
946.92	211.08
947.22	211.15
947.52	211.15
947.82	211.19
948.11	211.20
948.41	211.15
948.71	211.05
949.01	211.10
949.31	211.11
949.60	211.11
949.90	211.17
950.20	211.21
950.50	211.27
950.79	211.28
951.09	211.28
951.39	211.33
951.69	211.30
951.98	211.29
952.28	211.32
952.58	211.39
952.87	211.33
953.17	211.36
953.47	211.30
953.76	211.25
954.06	211.21
954.36	211.06
954.66	211.02
954.95	211.15
955.25	211.10
955.55	211.11
955.84	211.10
956.14	211.15
956.44	211.19
956.73	211.09
957.03	211.09
957.32	211.12
957.62	211.08
957.92	211.16
958.21	211.10
958.51	211.48
958.81	211.54
959.10	211.54
959.40	211.60
959.69	211.65
959.99	211.75
960.29	211.73
960.58	211.78
960.88	211.85
961.17	211.81
961.47	211.94
961.76	211.91
962.06	211.93
962.36	211.87
962.65	211.83
962.95	211.85
963.24	211.84
963.54	211.85
963.83	211.89
964.13	211.87
964.42	211.85
964.72	211.55
965.01	211.49
965.31	211.51
965.60	211.47
965.90	211.65
966.19	211.54
966.49	211.57
966.78	211.57
967.08	211.61
967.37	211.61
967.67	211.48
967.96	211.56
968.26	211.51
968.55	211.55
968.85	211.57
969.14	211.50
969.43	211.48
969.73	211.45
970.02	211.40
970.32	211.39
970.61	211.34
970.91	211.32
971.20	211.25
971.49	211.17
971.79	211.18
972.08	210.90
972.38	210.96
972.67	210.93
972.96	210.98
973.26	210.95
973.55	211.03
973.85	210.97
974.14	210.94
974.43	211.05
974.73	210.98
975.02	210.92
975.31	211.04
975.61	211.00
975.90	210.91
976.19	210.85
976.49	210.87
976.78	210.90
977.07	210.83
977.37	210.86
977.66	210.99
977.95	210.97
978.24	211.09
978.54	211.15
978.83	211.13
979.12	211.13
979.42	211.14
979.71	211.05
980.00	211.07
980.29	211.06
980.59	211.00
980.88	211.10
981.17	211.08
981.46	211.06
981.76	211.08
982.05	211.26
982.34	211.38
982.63	211.38
982.93	211.39
983.22	211.45
983.51	211.53
983.80	211.58
984.09	211.68
984.39	211.61
984.68	211.59
984.97	211.65
985.26	211.64
985.55	211.65
985.85	211.63
986.14	211.65
986.43	211.75
986.72	211.67
987.01	211.51
987.30	211.53
987.59	211.48
987.89	211.50
988.18	211.40
988.47	211.37
988.76	211.34
989.05	211.25
989.34	211.18
989.63	211.29
989.92	211.19
990.22	211.02
990.51	210.96
990.80	210.95
991.09	210.89
991.38	210.91
991.67	210.85
991.96	210.81
992.25	210.82
992.54	210.64
992.83	210.68
993.12	210.70
993.41	210.76
993.70	210.90
993.99	210.99
994.28	210.93
994.58	210.97
994.87	210.91
995.16	210.97
995.45	210.99
995.74	210.76
996.03	210.82
996.32	210.90
996.61	211.07
996.90	211.06
997.19	211.05
997.48	211.13
997.77	211.10
998.06	211.20
998.34	211.22
998.63	211.22
998.92	211.23
999.21	211.37
999.50	211.43
999.79	211.34
1000.08	211.28
1000.37	211.39
1000.66	211.31
1000.95	211.43
1001.24	211.46
1001.53	211.51
1001.82	211.58
1002.11	211.53
1002.40	211.61
1002.68	211.65
1002.97	211.88
1003.26	211.87
1003.55	211.80
1003.84	211.80
1004.13	211.75
1004.42	211.71
1004.71	211.75
1004.99	211.73
1005.28	211.75
1005.57	211.68
1005.86	211.62
1006.15	211.62
1006.44	211.52
1006.72	211.56
1007.01	211.50
1007.30	211.55
1007.59	211.52
1007.88	211.52
1008.17	211.51
1008.45	211.38
1008.74	211.19
1009.03	210.99
1009.32	210.92
1009.60	210.85
1009.89	210.84
1010.18	210.77
1010.47	210.76
1010.76	210.76
1011.04	210.74
1011.33	210.76
1011.62	210.70
1011.91	210.75
1012.19	210.72
1012.48	210.77
1012.77	210.79
1013.05	210.86
1013.34	210.85
1013.63	210.86
1013.92	210.88
1014.20	210.91
1014.49	210.93
1014.78	211.03
1015.06	210.95
1015.35	211.04
1015.64	211.11
1015.92	211.20
1016.21	211.23
1016.50	211.25
1016.78	211.33
1017.07	211.38
1017.36	211.25
1017.64	211.30
1017.93	211.33
1018.22	211.34
1018.50	211.38
1018.79	211.38
1019.08	211.26
1019.36	211.22
1019.65	211.13
1019.93	211.15
1020.22	211.18
1020.51	211.36
1020.79	211.29
1021.08	210.95
1021.36	211.30
1021.65	211.75
1021.94	210.60
1022.22	210.85
1022.51	209.55
1022.79	211.85
1023.08	211.70
1023.36	214.85
1023.65	210.10
>>>>>End Processed Spectral Data<<<<<
