SpectraSuite Data File
++++++++++++++++++++++++++++++++++++
Date: Mon Feb 25 17:01:05 EST 2013
User: group
Dark Spectrum Present: No
Reference Spectrum Present: No
Number of Sampled Component Spectra: 1
Spectrometers: USB2E7196
Integration Time (usec): 104000 (USB2E7196)
Spectra Averaged: 20 (USB2E7196)
Boxcar Smoothing: 10 (USB2E7196)
Correct for Electrical Dark: No (USB2E7196)
Strobe/Lamp Enabled: No (USB2E7196)
Correct for Detector Non-linearity: No (USB2E7196)
Correct for Stray Light: No (USB2E7196)
Number of Pixels in Processed Spectrum: 2048
>>>>>Begin Processed Spectral Data<<<<<
339.09	0.00
339.48	198.05
339.86	199.90
340.24	202.65
340.63	203.30
341.01	210.05
341.39	206.35
341.78	206.35
342.16	209.05
342.54	209.25
342.93	198.45
343.31	208.45
343.69	209.00
344.07	209.50
344.46	209.95
344.84	210.38
345.22	210.40
345.60	210.63
345.99	210.80
346.37	210.85
346.75	210.94
347.13	211.02
347.52	211.04
347.90	211.17
348.28	211.17
348.66	211.23
349.05	211.08
349.43	211.13
349.81	211.16
350.19	211.13
350.57	211.15
350.96	211.26
351.34	211.28
351.72	211.33
352.10	211.41
352.48	211.36
352.87	211.35
353.25	211.39
353.63	211.35
354.01	211.42
354.39	211.49
354.77	211.57
355.15	211.74
355.54	211.76
355.92	211.69
356.30	211.66
356.68	211.94
357.06	211.99
357.44	211.96
357.82	212.01
358.20	212.13
358.58	212.19
358.97	212.22
359.35	212.39
359.73	212.51
360.11	212.56
360.49	212.62
360.87	212.61
361.25	212.63
361.63	212.81
362.01	212.90
362.39	212.92
362.77	212.90
363.15	212.86
363.53	212.86
363.91	212.90
364.29	212.91
364.67	212.57
365.05	212.64
365.43	212.73
365.81	212.78
366.19	212.95
366.57	213.11
366.95	213.09
367.33	213.08
367.71	213.07
368.09	213.10
368.47	213.14
368.85	213.14
369.23	213.27
369.61	213.12
369.99	213.21
370.37	213.19
370.75	213.34
371.13	213.30
371.51	213.26
371.89	213.28
372.27	213.31
372.65	213.30
373.03	213.22
373.41	213.15
373.78	213.05
374.16	212.85
374.54	212.70
374.92	212.63
375.30	212.50
375.68	212.40
376.06	212.39
376.44	212.30
376.82	212.26
377.19	212.14
377.57	212.16
377.95	211.92
378.33	211.90
378.71	211.68
379.09	211.70
379.47	211.70
379.84	211.64
380.22	211.59
380.60	211.51
380.98	211.50
381.36	211.41
381.73	211.34
382.11	211.33
382.49	211.28
382.87	211.18
383.25	211.20
383.62	211.50
384.00	211.36
384.38	211.31
384.76	211.40
385.13	211.55
385.51	211.55
385.89	211.52
386.27	211.53
386.64	211.57
387.02	211.48
387.40	211.34
387.78	211.30
388.15	211.29
388.53	211.27
388.91	211.25
389.29	211.20
389.66	211.23
390.04	211.23
390.42	211.26
390.79	211.31
391.17	211.29
391.55	210.97
391.92	210.95
392.30	210.95
392.68	210.80
393.05	210.75
393.43	210.70
393.81	210.72
394.18	210.62
394.56	210.55
394.94	210.59
395.31	210.57
395.69	210.66
396.06	210.72
396.44	210.74
396.82	210.70
397.19	210.92
397.57	210.90
397.95	210.90
398.32	210.80
398.70	210.81
399.07	210.90
399.45	210.91
399.82	211.00
400.20	210.99
400.58	211.05
400.95	210.93
401.33	210.99
401.70	211.27
402.08	211.40
402.45	211.55
402.83	211.66
403.20	211.86
403.58	211.90
403.95	212.02
404.33	212.16
404.71	212.34
405.08	212.64
405.46	212.83
405.83	213.08
406.21	213.28
406.58	213.48
406.96	213.63
407.33	213.89
407.70	214.16
408.08	214.67
408.45	215.04
408.83	215.44
409.20	215.80
409.58	215.91
409.95	216.39
410.33	216.80
410.70	217.16
411.08	217.67
411.45	218.14
411.82	218.61
412.20	219.32
412.57	220.19
412.95	220.53
413.32	221.27
413.69	221.92
414.07	222.74
414.44	223.59
414.82	224.55
415.19	225.63
415.56	226.68
415.94	227.77
416.31	229.07
416.68	230.41
417.06	231.92
417.43	233.46
417.81	235.08
418.18	236.80
418.55	238.52
418.93	240.41
419.30	242.55
419.67	244.73
420.04	246.80
420.42	248.97
420.79	251.78
421.16	254.49
421.54	257.38
421.91	260.21
422.28	263.24
422.66	266.45
423.03	269.68
423.40	272.96
423.77	276.41
424.15	279.95
424.52	283.60
424.89	287.54
425.26	291.47
425.64	295.14
426.01	299.21
426.38	303.64
426.75	308.08
427.13	312.50
427.50	317.17
427.87	322.28
428.24	327.30
428.61	332.00
428.99	337.29
429.36	342.93
429.73	348.59
430.10	354.32
430.47	360.15
430.85	366.09
431.22	372.44
431.59	379.34
431.96	385.87
432.33	393.00
432.70	400.04
433.08	408.25
433.45	416.04
433.82	423.58
434.19	432.15
434.56	440.70
434.93	448.99
435.30	457.21
435.68	466.16
436.05	475.15
436.42	484.09
436.79	492.23
437.16	501.17
437.53	510.54
437.90	519.89
438.27	529.23
438.64	538.84
439.01	547.86
439.38	555.67
439.75	563.48
440.13	572.47
440.50	580.79
440.87	587.62
441.24	595.04
441.61	603.32
441.98	609.40
442.35	616.29
442.72	623.16
443.09	630.21
443.46	634.56
443.83	637.75
444.20	640.68
444.57	644.69
444.94	646.74
445.31	649.00
445.68	651.27
446.05	652.39
446.42	652.02
446.79	651.73
447.16	651.34
447.53	651.10
447.90	648.40
448.27	645.71
448.64	641.62
449.01	638.65
449.37	633.09
449.74	627.78
450.11	621.41
450.48	614.29
450.85	606.74
451.22	600.57
451.59	594.59
451.96	588.86
452.33	580.97
452.70	574.00
453.07	565.49
453.43	556.69
453.80	548.41
454.17	540.37
454.54	532.66
454.91	524.31
455.28	516.24
455.65	508.70
456.02	501.46
456.38	495.14
456.75	487.12
457.12	480.53
457.49	474.05
457.86	467.48
458.23	462.21
458.59	456.27
458.96	450.13
459.33	444.69
459.70	439.19
460.07	434.91
460.43	429.85
460.80	425.23
461.17	421.08
461.54	416.84
461.91	412.91
462.27	408.73
462.64	405.32
463.01	401.39
463.38	397.67
463.74	393.60
464.11	390.25
464.48	387.35
464.85	384.05
465.21	381.57
465.58	378.94
465.95	375.67
466.32	373.03
466.68	370.43
467.05	367.76
467.42	365.16
467.78	362.34
468.15	359.82
468.52	357.85
468.88	355.33
469.25	352.92
469.62	351.06
469.98	349.08
470.35	347.23
470.72	345.48
471.08	343.48
471.45	341.97
471.82	340.38
472.18	338.45
472.55	337.19
472.92	335.55
473.28	334.19
473.65	332.75
474.02	331.37
474.38	330.28
474.75	329.44
475.11	328.34
475.48	327.64
475.85	326.87
476.21	326.06
476.58	325.40
476.94	324.90
477.31	324.25
477.67	323.58
478.04	323.05
478.41	322.77
478.77	322.80
479.14	322.37
479.50	322.10
479.87	322.10
480.23	321.94
480.60	321.82
480.96	321.70
481.33	322.04
481.69	322.26
482.06	322.29
482.42	322.19
482.79	322.34
483.15	322.55
483.52	322.96
483.88	323.28
484.25	323.55
484.61	323.84
484.98	324.22
485.34	324.91
485.71	325.55
486.07	326.17
486.44	326.42
486.80	327.18
487.17	327.97
487.53	328.95
487.90	329.93
488.26	330.94
488.62	332.11
488.99	333.11
489.35	334.11
489.72	335.42
490.08	336.80
490.44	338.14
490.81	339.60
491.17	340.87
491.54	342.45
491.90	344.05
492.26	345.86
492.63	347.56
492.99	349.25
493.36	351.10
493.72	352.96
494.08	354.93
494.45	356.81
494.81	358.89
495.17	360.85
495.54	363.09
495.90	365.27
496.26	367.33
496.63	369.50
496.99	371.82
497.35	374.13
497.72	376.52
498.08	378.84
498.44	381.14
498.80	383.77
499.17	386.20
499.53	388.72
499.89	391.16
500.26	393.50
500.62	395.86
500.98	398.36
501.34	400.85
501.71	403.42
502.07	405.97
502.43	408.28
502.79	410.62
503.16	412.82
503.52	415.05
503.88	417.31
504.24	419.60
504.60	421.72
504.97	423.90
505.33	425.93
505.69	428.22
506.05	430.21
506.41	432.07
506.78	433.97
507.14	435.80
507.50	437.56
507.86	439.51
508.22	441.40
508.59	442.84
508.95	444.35
509.31	446.00
509.67	447.42
510.03	448.95
510.39	450.35
510.75	451.76
511.12	453.13
511.48	454.35
511.84	455.30
512.20	456.39
512.56	457.43
512.92	458.47
513.28	459.29
513.64	460.23
514.00	461.07
514.37	461.86
514.73	462.67
515.09	463.49
515.45	463.96
515.81	464.37
516.17	464.88
516.53	465.32
516.89	465.50
517.25	465.72
517.61	465.98
517.97	466.16
518.33	466.29
518.69	466.22
519.05	466.32
519.41	466.56
519.77	466.89
520.13	467.01
520.49	467.07
520.85	467.02
521.21	467.06
521.57	467.10
521.93	466.84
522.29	466.72
522.65	466.47
523.01	466.55
523.37	466.44
523.73	466.53
524.09	466.49
524.45	466.50
524.81	466.67
525.17	466.90
525.53	467.32
525.89	467.40
526.25	467.77
526.61	467.98
526.97	468.21
527.33	468.40
527.68	468.89
528.04	469.29
528.40	469.70
528.76	470.25
529.12	470.83
529.48	471.73
529.84	472.38
530.20	473.12
530.56	473.98
530.91	474.90
531.27	475.80
531.63	476.79
531.99	477.63
532.35	478.68
532.71	479.75
533.07	480.77
533.42	482.27
533.78	483.47
534.14	484.85
534.50	486.08
534.86	487.60
535.21	488.68
535.57	490.22
535.93	491.74
536.29	493.26
536.65	494.79
537.00	496.25
537.36	497.78
537.72	499.42
538.08	501.06
538.44	502.81
538.79	504.63
539.15	506.40
539.51	508.47
539.87	510.50
540.22	512.46
540.58	514.51
540.94	516.48
541.29	518.63
541.65	520.55
542.01	522.83
542.37	525.00
542.72	527.35
543.08	529.49
543.44	531.99
543.79	534.17
544.15	536.57
544.51	539.20
544.87	542.00
545.22	544.71
545.58	547.26
545.94	549.83
546.29	552.31
546.65	554.92
547.01	557.47
547.36	560.18
547.72	562.72
548.07	565.24
548.43	567.68
548.79	570.13
549.14	572.83
549.50	575.55
549.86	578.05
550.21	580.59
550.57	583.38
550.92	585.85
551.28	588.58
551.64	591.22
551.99	593.79
552.35	596.25
552.70	598.74
553.06	601.42
553.41	603.98
553.77	606.86
554.13	609.65
554.48	612.44
554.84	615.11
555.19	617.77
555.55	620.67
555.90	623.32
556.26	625.93
556.61	628.44
556.97	630.60
557.32	633.10
557.68	635.40
558.03	637.79
558.39	640.02
558.74	642.28
559.10	644.52
559.45	646.90
559.81	649.37
560.16	651.42
560.52	653.58
560.87	656.03
561.23	657.93
561.58	660.26
561.94	662.20
562.29	663.89
562.64	666.04
563.00	667.89
563.35	670.05
563.71	672.38
564.06	674.61
564.42	677.20
564.77	679.58
565.12	682.08
565.48	684.47
565.83	686.61
566.19	688.99
566.54	691.08
566.89	693.09
567.25	695.12
567.60	697.50
567.96	699.71
568.31	701.69
568.66	703.63
569.02	705.08
569.37	706.53
569.72	708.45
570.08	709.98
570.43	711.43
570.78	712.65
571.14	713.67
571.49	714.79
571.84	715.88
572.20	716.75
572.55	717.56
572.90	717.95
573.26	718.65
573.61	719.20
573.96	719.86
574.31	720.18
574.67	720.49
575.02	720.45
575.37	720.48
575.72	720.35
576.08	720.52
576.43	720.65
576.78	720.88
577.13	721.04
577.49	720.98
577.84	721.03
578.19	721.22
578.54	721.62
578.90	721.88
579.25	721.67
579.60	721.31
579.95	721.00
580.30	721.12
580.66	721.18
581.01	720.85
581.36	720.73
581.71	720.45
582.06	720.38
582.42	720.28
582.77	719.90
583.12	719.67
583.47	719.55
583.82	719.27
584.17	719.01
584.53	718.63
584.88	718.29
585.23	717.90
585.58	717.30
585.93	716.62
586.28	715.94
586.63	715.49
586.98	715.12
587.34	714.98
587.69	714.29
588.04	713.67
588.39	713.18
588.74	712.22
589.09	711.91
589.44	710.86
589.79	710.33
590.14	709.67
590.49	708.81
590.84	707.67
591.19	707.12
591.54	706.31
591.89	705.11
592.25	704.35
592.60	703.33
592.95	702.22
593.30	700.82
593.65	699.41
594.00	698.16
594.35	697.97
594.70	696.55
595.05	695.44
595.40	694.23
595.75	692.81
596.10	691.82
596.45	690.42
596.80	689.42
597.15	688.13
597.50	686.70
597.85	685.70
598.19	684.55
598.54	683.16
598.89	681.76
599.24	680.90
599.59	679.60
599.94	678.54
600.29	677.39
600.64	676.44
600.99	675.40
601.34	674.20
601.69	671.88
602.04	670.30
602.39	668.88
602.74	667.61
603.08	666.53
603.43	665.41
603.78	664.06
604.13	662.66
604.48	661.32
604.83	660.39
605.18	659.28
605.53	657.93
605.87	656.46
606.22	655.30
606.57	653.68
606.92	652.04
607.27	650.22
607.62	648.79
607.96	647.38
608.31	646.02
608.66	644.59
609.01	643.11
609.36	641.72
609.70	640.15
610.05	638.44
610.40	636.79
610.75	634.95
611.10	633.34
611.44	631.44
611.79	629.56
612.14	627.64
612.49	625.32
612.83	623.60
613.18	621.50
613.53	619.63
613.88	617.64
614.22	615.80
614.57	613.93
614.92	611.94
615.27	609.86
615.61	607.98
615.96	606.04
616.31	604.25
616.65	602.71
617.00	600.84
617.35	599.00
617.70	596.95
618.04	594.82
618.39	592.70
618.74	590.86
619.08	588.95
619.43	586.93
619.78	585.09
620.12	583.08
620.47	581.30
620.82	579.12
621.16	576.92
621.51	575.00
621.85	573.19
622.20	571.26
622.55	569.14
622.89	566.98
623.24	564.86
623.59	562.52
623.93	560.39
624.28	558.52
624.62	556.90
624.97	555.13
625.32	553.06
625.66	551.23
626.01	549.39
626.35	547.40
626.70	545.30
627.04	543.65
627.39	541.83
627.73	539.91
628.08	538.15
628.43	536.44
628.77	534.38
629.12	532.33
629.46	530.52
629.81	528.71
630.15	526.71
630.50	524.79
630.84	523.00
631.19	520.85
631.53	518.86
631.88	516.50
632.22	514.27
632.57	512.79
632.91	510.95
633.26	509.05
633.60	507.11
633.95	505.46
634.29	503.41
634.64	501.63
634.98	499.73
635.32	497.98
635.67	496.30
636.01	494.50
636.36	492.73
636.70	491.07
637.05	489.35
637.39	487.74
637.73	486.20
638.08	484.83
638.42	483.30
638.77	481.72
639.11	480.16
639.45	478.59
639.80	476.61
640.14	474.76
640.49	473.09
640.83	471.43
641.17	469.53
641.52	467.65
641.86	465.82
642.20	464.18
642.55	462.15
642.89	460.29
643.23	458.58
643.58	456.98
643.92	454.99
644.26	453.21
644.61	451.51
644.95	449.55
645.29	447.59
645.64	445.80
645.98	443.94
646.32	442.11
646.66	440.25
647.01	438.55
647.35	436.96
647.69	435.11
648.04	433.45
648.38	431.79
648.72	430.13
649.06	428.31
649.41	426.55
649.75	424.97
650.09	423.42
650.43	421.68
650.78	419.81
651.12	418.04
651.46	416.41
651.80	414.71
652.14	413.13
652.49	411.50
652.83	409.85
653.17	408.11
653.51	406.48
653.85	405.11
654.20	403.60
654.54	401.85
654.88	400.16
655.22	398.58
655.56	396.89
655.90	395.13
656.25	393.42
656.59	391.79
656.93	390.25
657.27	388.75
657.61	387.16
657.95	385.68
658.29	384.26
658.64	382.85
658.98	381.30
659.32	379.65
659.66	378.12
660.00	376.60
660.34	375.08
660.68	373.56
661.02	371.87
661.36	370.24
661.70	368.70
662.05	367.41
662.39	366.08
662.73	364.95
663.07	363.88
663.41	362.60
663.75	361.25
664.09	359.82
664.43	358.26
664.77	357.04
665.11	355.61
665.45	354.34
665.79	353.02
666.13	351.65
666.47	350.44
666.81	349.15
667.15	347.82
667.49	346.68
667.83	345.56
668.17	344.37
668.51	343.23
668.85	342.29
669.19	341.18
669.53	339.82
669.87	338.52
670.21	337.20
670.55	336.14
670.89	335.26
671.23	334.31
671.57	333.25
671.91	332.13
672.25	331.06
672.58	330.02
672.92	328.77
673.26	327.81
673.60	326.88
673.94	325.89
674.28	324.87
674.62	323.93
674.96	322.95
675.30	322.01
675.64	321.03
675.97	319.90
676.31	318.79
676.65	317.89
676.99	317.11
677.33	316.24
677.67	315.21
678.01	314.10
678.34	313.09
678.68	312.24
679.02	311.30
679.36	310.53
679.70	309.57
680.04	308.85
680.37	308.02
680.71	307.13
681.05	306.17
681.39	305.31
681.73	304.45
682.06	303.50
682.40	302.66
682.74	301.91
683.08	301.23
683.42	300.39
683.75	299.63
684.09	298.63
684.43	297.83
684.77	297.01
685.10	296.13
685.44	295.26
685.78	294.44
686.12	293.65
686.45	292.78
686.79	291.98
687.13	291.22
687.46	290.42
687.80	289.69
688.14	288.93
688.48	288.27
688.81	287.47
689.15	286.80
689.49	286.03
689.82	285.26
690.16	284.30
690.50	283.48
690.83	282.60
691.17	281.87
691.51	281.02
691.84	280.34
692.18	279.68
692.52	279.05
692.85	278.35
693.19	277.85
693.52	277.20
693.86	276.46
694.20	275.74
694.53	275.02
694.87	274.30
695.21	273.58
695.54	272.92
695.88	272.17
696.21	271.43
696.55	270.75
696.88	270.01
697.22	269.38
697.56	268.82
697.89	268.18
698.23	267.61
698.56	267.04
698.90	266.46
699.23	265.81
699.57	265.16
699.90	264.53
700.24	263.72
700.58	263.12
700.91	262.62
701.25	262.35
701.58	261.90
701.92	261.29
702.25	260.78
702.59	260.26
702.92	259.81
703.26	259.30
703.59	258.91
703.93	258.76
704.26	258.33
704.60	257.92
704.93	257.50
705.26	256.93
705.60	256.54
705.93	256.01
706.27	255.74
706.60	255.46
706.94	255.21
707.27	254.80
707.61	254.39
707.94	253.95
708.27	253.20
708.61	252.69
708.94	252.32
709.28	251.97
709.61	251.43
709.94	250.99
710.28	250.64
710.61	250.25
710.95	249.59
711.28	249.48
711.61	249.09
711.95	248.78
712.28	248.41
712.61	248.05
712.95	247.91
713.28	247.65
713.61	247.21
713.95	246.74
714.28	246.41
714.61	246.05
714.95	245.68
715.28	245.33
715.61	245.01
715.95	244.69
716.28	244.24
716.61	244.00
716.95	243.62
717.28	243.31
717.61	242.94
717.94	242.58
718.28	241.97
718.61	241.64
718.94	241.26
719.27	240.95
719.61	240.68
719.94	240.23
720.27	239.67
720.60	239.37
720.94	239.00
721.27	238.74
721.60	238.49
721.93	238.25
722.27	238.09
722.60	237.87
722.93	237.64
723.26	237.55
723.59	237.22
723.93	236.96
724.26	236.67
724.59	236.34
724.92	236.13
725.25	235.95
725.59	235.75
725.92	235.59
726.25	235.31
726.58	234.99
726.91	234.73
727.24	234.67
727.57	234.40
727.91	234.09
728.24	233.88
728.57	233.60
728.90	233.41
729.23	233.07
729.56	232.97
729.89	232.73
730.22	232.44
730.55	232.22
730.89	232.10
731.22	231.91
731.55	231.72
731.88	231.51
732.21	231.22
732.54	230.90
732.87	230.68
733.20	230.46
733.53	230.35
733.86	230.19
734.19	229.84
734.52	229.70
734.85	229.90
735.18	229.69
735.51	229.67
735.84	229.42
736.17	229.36
736.50	229.00
736.83	229.19
737.16	229.02
737.49	228.93
737.82	228.67
738.15	228.57
738.48	228.40
738.81	228.23
739.14	228.04
739.47	227.90
739.80	227.67
740.13	227.64
740.46	227.37
740.79	227.18
741.12	227.13
741.45	226.95
741.78	226.59
742.11	226.52
742.44	226.28
742.77	226.17
743.10	225.93
743.43	225.88
743.75	225.41
744.08	225.69
744.41	225.47
744.74	225.28
745.07	225.07
745.40	225.08
745.73	225.09
746.06	225.00
746.39	224.90
746.71	224.79
747.04	224.62
747.37	224.48
747.70	224.40
748.03	224.23
748.36	224.15
748.68	224.01
749.01	223.75
749.34	223.62
749.67	223.55
750.00	223.50
750.33	223.56
750.65	223.41
750.98	222.84
751.31	222.66
751.64	222.59
751.97	222.65
752.29	222.40
752.62	222.05
752.95	221.90
753.28	221.72
753.60	221.63
753.93	221.60
754.26	221.46
754.59	221.32
754.91	221.19
755.24	220.99
755.57	220.84
755.90	220.74
756.22	220.62
756.55	220.42
756.88	220.30
757.20	219.93
757.53	219.81
757.86	219.71
758.19	219.80
758.51	219.71
758.84	219.42
759.17	219.32
759.49	219.28
759.82	219.37
760.15	219.31
760.47	219.17
760.80	218.99
761.13	219.02
761.45	218.88
761.78	218.78
762.11	218.74
762.43	218.60
762.76	218.56
763.08	218.51
763.41	218.51
763.74	218.35
764.06	218.29
764.39	218.21
764.71	218.17
765.04	217.95
765.37	217.90
765.69	217.83
766.02	217.83
766.34	217.76
766.67	217.53
767.00	217.52
767.32	217.63
767.65	217.73
767.97	217.67
768.30	217.59
768.62	217.57
768.95	217.39
769.27	217.43
769.60	217.28
769.92	217.06
770.25	216.97
770.57	216.90
770.90	216.80
771.22	216.62
771.55	216.52
771.87	216.54
772.20	216.45
772.52	216.65
772.85	217.04
773.17	217.01
773.50	217.00
773.82	216.88
774.15	216.64
774.47	216.37
774.80	216.22
775.12	216.17
775.45	216.11
775.77	216.19
776.09	216.01
776.42	216.11
776.74	216.29
777.07	216.20
777.39	216.18
777.72	216.13
778.04	216.20
778.36	216.11
778.69	216.05
779.01	216.05
779.33	215.70
779.66	215.15
779.98	215.10
780.31	215.04
780.63	215.21
780.95	215.23
781.28	215.18
781.60	215.03
781.92	215.02
782.25	214.95
782.57	214.91
782.89	214.87
783.22	214.69
783.54	214.53
783.86	214.47
784.19	214.41
784.51	214.46
784.83	214.30
785.16	214.32
785.48	214.26
785.80	214.20
786.12	214.20
786.45	214.21
786.77	214.15
787.09	214.16
787.42	213.93
787.74	213.93
788.06	213.93
788.38	214.00
788.71	213.91
789.03	213.87
789.35	213.88
789.67	213.84
789.99	213.92
790.32	213.84
790.64	213.86
790.96	214.11
791.28	213.97
791.61	213.98
791.93	214.00
792.25	213.93
792.57	214.11
792.89	213.94
793.21	213.97
793.54	213.91
793.86	213.84
794.18	213.90
794.50	213.86
794.82	213.81
795.14	213.81
795.47	213.92
795.79	213.97
796.11	213.90
796.43	213.95
796.75	213.85
797.07	213.90
797.39	213.87
797.71	213.57
798.04	213.67
798.36	213.70
798.68	213.58
799.00	213.62
799.32	213.45
799.64	213.59
799.96	213.56
800.28	213.62
800.60	213.55
800.92	213.54
801.24	213.47
801.56	213.52
801.89	213.44
802.21	213.45
802.53	213.30
802.85	213.32
803.17	213.43
803.49	213.40
803.81	213.33
804.13	213.30
804.45	213.33
804.77	213.35
805.09	213.27
805.41	213.30
805.73	213.21
806.05	213.13
806.37	213.07
806.69	213.05
807.01	213.05
807.33	213.10
807.65	213.02
807.97	213.17
808.28	213.12
808.60	213.18
808.92	213.07
809.24	213.40
809.56	213.35
809.88	213.25
810.20	213.27
810.52	213.41
810.84	213.31
811.16	213.27
811.48	213.19
811.80	213.37
812.12	213.40
812.43	213.47
812.75	213.48
813.07	213.50
813.39	213.49
813.71	213.44
814.03	213.35
814.35	213.31
814.67	213.20
814.98	213.19
815.30	213.15
815.62	213.07
815.94	212.72
816.26	212.69
816.58	212.60
816.89	212.64
817.21	212.50
817.53	212.59
817.85	212.55
818.17	212.41
818.48	212.19
818.80	212.18
819.12	212.15
819.44	212.07
819.76	212.03
820.07	212.02
820.39	212.05
820.71	212.09
821.03	212.10
821.34	212.07
821.66	212.08
821.98	212.10
822.30	212.10
822.61	212.29
822.93	212.27
823.25	212.23
823.57	212.14
823.88	212.24
824.20	212.15
824.52	212.29
824.83	212.42
825.15	212.43
825.47	212.40
825.79	212.34
826.10	212.41
826.42	212.36
826.74	212.37
827.05	212.32
827.37	212.37
827.69	212.30
828.00	212.21
828.32	212.22
828.64	212.14
828.95	212.28
829.27	212.18
829.58	212.17
829.90	212.19
830.22	212.22
830.53	212.05
830.85	212.12
831.17	212.00
831.48	211.92
831.80	211.97
832.11	211.97
832.43	211.98
832.75	211.91
833.06	212.07
833.38	211.97
833.69	211.91
834.01	211.86
834.32	211.92
834.64	211.91
834.96	211.92
835.27	211.90
835.59	211.78
835.90	211.67
836.22	211.67
836.53	211.61
836.85	211.53
837.16	211.87
837.48	211.80
837.79	211.90
838.11	211.82
838.42	211.79
838.74	211.82
839.05	211.75
839.37	211.74
839.68	211.54
840.00	211.54
840.31	211.61
840.63	211.55
840.94	211.50
841.26	211.45
841.57	211.37
841.88	211.50
842.20	211.48
842.51	211.54
842.83	211.47
843.14	211.75
843.46	211.73
843.77	211.52
844.08	211.48
844.40	211.39
844.71	211.41
845.03	211.38
845.34	211.31
845.65	211.31
845.97	211.27
846.28	211.34
846.60	211.32
846.91	211.25
847.22	211.31
847.54	211.34
847.85	211.41
848.16	211.44
848.48	211.27
848.79	211.44
849.10	211.50
849.42	211.59
849.73	211.34
850.04	211.40
850.36	211.34
850.67	211.43
850.98	211.42
851.30	211.52
851.61	211.58
851.92	211.53
852.23	211.67
852.55	211.74
852.86	211.77
853.17	211.83
853.49	211.84
853.80	211.89
854.11	211.91
854.42	211.91
854.74	211.91
855.05	212.00
855.36	211.80
855.67	211.77
855.99	211.79
856.30	212.24
856.61	212.18
856.92	212.18
857.23	212.21
857.55	212.10
857.86	212.10
858.17	212.14
858.48	212.13
858.79	212.10
859.11	212.07
859.42	212.02
859.73	211.95
860.04	212.09
860.35	211.96
860.66	211.89
860.98	211.90
861.29	211.94
861.60	211.90
861.91	211.95
862.22	211.94
862.53	211.84
862.84	211.34
863.16	211.48
863.47	211.40
863.78	211.38
864.09	211.42
864.40	211.40
864.71	211.32
865.02	211.37
865.33	211.35
865.64	211.29
865.95	211.23
866.27	211.45
866.58	211.38
866.89	211.47
867.20	211.42
867.51	211.37
867.82	211.29
868.13	211.41
868.44	211.34
868.75	211.38
869.06	211.39
869.37	211.44
869.68	211.32
869.99	211.38
870.30	211.34
870.61	211.43
870.92	211.43
871.23	211.42
871.54	211.53
871.85	211.53
872.16	211.62
872.47	211.64
872.78	211.44
873.09	211.42
873.40	211.35
873.71	211.37
874.02	211.40
874.33	211.33
874.64	211.16
874.95	211.24
875.26	211.15
875.56	211.11
875.87	211.06
876.18	211.04
876.49	211.35
876.80	211.34
877.11	211.24
877.42	211.18
877.73	211.20
878.04	211.04
878.35	211.06
878.66	211.10
878.96	211.07
879.27	211.10
879.58	211.12
879.89	211.06
880.20	211.28
880.51	211.32
880.82	211.38
881.12	211.49
881.43	211.41
881.74	211.31
882.05	211.35
882.36	211.44
882.67	211.49
882.97	211.16
883.28	211.17
883.59	211.17
883.90	211.23
884.21	211.20
884.51	211.14
884.82	211.05
885.13	211.00
885.44	211.00
885.74	210.95
886.05	210.89
886.36	210.95
886.67	210.72
886.98	210.85
887.28	210.89
887.59	210.85
887.90	210.91
888.20	210.98
888.51	211.02
888.82	210.94
889.13	211.01
889.43	211.25
889.74	211.26
890.05	211.24
890.35	211.15
890.66	211.12
890.97	211.18
891.28	211.18
891.58	211.24
891.89	211.28
892.20	211.27
892.50	211.23
892.81	211.21
893.12	211.28
893.42	211.05
893.73	211.05
894.04	211.06
894.34	211.12
894.65	211.09
894.95	211.04
895.26	211.08
895.57	211.24
895.87	210.92
896.18	210.95
896.48	210.98
896.79	211.04
897.10	211.13
897.40	211.13
897.71	211.13
898.01	211.07
898.32	211.15
898.63	211.12
898.93	211.17
899.24	211.14
899.54	211.07
899.85	211.09
900.15	211.03
900.46	211.04
900.76	210.98
901.07	210.94
901.38	211.00
901.68	211.08
901.99	210.86
902.29	210.95
902.60	210.92
902.90	210.95
903.21	210.93
903.51	210.91
903.82	211.00
904.12	211.05
904.43	210.99
904.73	210.90
905.03	210.96
905.34	211.27
905.64	211.30
905.95	211.30
906.25	211.32
906.56	211.39
906.86	211.38
907.17	211.42
907.47	211.48
907.77	211.34
908.08	211.23
908.38	211.24
908.69	211.21
908.99	211.22
909.30	211.26
909.60	211.26
909.90	211.23
910.21	211.17
910.51	211.08
910.81	211.17
911.12	211.24
911.42	211.24
911.73	210.91
912.03	210.99
912.33	211.13
912.64	211.14
912.94	211.08
913.24	210.98
913.55	210.87
913.85	210.91
914.15	211.04
914.46	211.05
914.76	211.04
915.06	211.05
915.37	211.00
915.67	210.96
915.97	210.94
916.27	210.90
916.58	210.92
916.88	210.92
917.18	210.88
917.49	211.07
917.79	211.06
918.09	211.07
918.39	211.12
918.70	211.05
919.00	211.03
919.30	211.19
919.60	211.23
919.91	211.29
920.21	211.21
920.51	211.11
920.81	211.04
921.12	211.08
921.42	211.03
921.72	211.07
922.02	211.04
922.32	211.16
922.63	211.20
922.93	211.34
923.23	211.40
923.53	211.35
923.83	211.14
924.13	211.14
924.44	211.16
924.74	211.22
925.04	211.30
925.34	211.28
925.64	211.13
925.94	211.15
926.24	211.29
926.55	211.28
926.85	211.34
927.15	211.43
927.45	211.49
927.75	211.53
928.05	211.50
928.35	211.47
928.65	211.50
928.95	211.53
929.26	211.41
929.56	211.44
929.86	211.53
930.16	211.41
930.46	211.37
930.76	211.35
931.06	211.19
931.36	211.07
931.66	211.12
931.96	211.17
932.26	211.16
932.56	211.05
932.86	211.15
933.16	211.20
933.46	211.19
933.76	211.02
934.06	211.12
934.36	211.25
934.66	211.24
934.96	211.15
935.26	211.21
935.56	211.22
935.86	211.18
936.16	211.12
936.46	211.08
936.76	211.07
937.06	211.08
937.36	211.08
937.66	211.09
937.96	211.11
938.26	211.07
938.56	211.07
938.86	211.04
939.16	211.07
939.46	211.12
939.76	211.09
940.06	211.15
940.35	211.00
940.65	210.84
940.95	210.90
941.25	210.90
941.55	210.78
941.85	210.71
942.15	210.75
942.45	210.76
942.75	210.82
943.04	210.92
943.34	210.92
943.64	210.86
943.94	210.78
944.24	210.82
944.54	210.82
944.84	210.79
945.13	210.73
945.43	210.71
945.73	210.59
946.03	210.58
946.33	210.50
946.62	210.51
946.92	210.50
947.22	210.62
947.52	210.55
947.82	210.67
948.11	210.66
948.41	210.65
948.71	210.63
949.01	210.64
949.31	210.53
949.60	210.54
949.90	210.59
950.20	210.67
950.50	210.59
950.79	210.59
951.09	210.66
951.39	210.69
951.69	210.63
951.98	210.77
952.28	210.83
952.58	210.85
952.87	210.84
953.17	210.90
953.47	210.75
953.76	210.83
954.06	210.71
954.36	210.69
954.66	210.64
954.95	210.75
955.25	210.78
955.55	210.89
955.84	210.79
956.14	210.82
956.44	210.80
956.73	210.74
957.03	210.80
957.32	210.84
957.62	210.87
957.92	210.94
958.21	210.85
958.51	211.30
958.81	211.39
959.10	211.49
959.40	211.52
959.69	211.56
959.99	211.56
960.29	211.58
960.58	211.57
960.88	211.71
961.17	211.69
961.47	211.73
961.76	211.68
962.06	211.80
962.36	211.78
962.65	211.85
962.95	211.93
963.24	211.84
963.54	211.78
963.83	211.80
964.13	211.73
964.42	211.70
964.72	211.33
965.01	211.35
965.31	211.26
965.60	211.24
965.90	211.51
966.19	211.46
966.49	211.49
966.78	211.54
967.08	211.55
967.37	211.48
967.67	211.40
967.96	211.50
968.26	211.47
968.55	211.51
968.85	211.46
969.14	211.48
969.43	211.52
969.73	211.48
970.02	211.55
970.32	211.58
970.61	211.53
970.91	211.49
971.20	211.40
971.49	211.38
971.79	211.46
972.08	211.23
972.38	211.25
972.67	211.29
972.96	211.34
973.26	211.22
973.55	211.35
973.85	211.37
974.14	211.32
974.43	211.28
974.73	211.19
975.02	211.13
975.31	211.10
975.61	211.14
975.90	211.15
976.19	211.10
976.49	211.10
976.78	211.15
977.07	211.12
977.37	211.20
977.66	211.29
977.95	211.17
978.24	211.15
978.54	211.22
978.83	211.13
979.12	211.10
979.42	211.13
979.71	211.08
980.00	211.12
980.29	211.14
980.59	211.17
980.88	211.28
981.17	211.29
981.46	211.30
981.76	211.25
982.05	211.38
982.34	211.29
982.63	211.37
982.93	211.31
983.22	211.35
983.51	211.29
983.80	211.32
984.09	211.38
984.39	211.36
984.68	211.30
984.97	211.37
985.26	211.36
985.55	211.37
985.85	211.31
986.14	211.32
986.43	211.31
986.72	211.24
987.01	211.15
987.30	211.13
987.59	211.09
987.89	211.08
988.18	210.97
988.47	211.03
988.76	210.93
989.05	210.90
989.34	210.86
989.63	211.00
989.92	210.89
990.22	210.84
990.51	210.89
990.80	210.85
991.09	210.91
991.38	210.91
991.67	210.90
991.96	210.90
992.25	210.96
992.54	210.87
992.83	210.88
993.12	210.83
993.41	210.90
993.70	211.10
993.99	211.16
994.28	211.24
994.58	211.25
994.87	211.26
995.16	211.30
995.45	211.24
995.74	211.11
996.03	211.18
996.32	211.25
996.61	211.28
996.90	211.30
997.19	211.14
997.48	211.15
997.77	211.08
998.06	211.13
998.34	211.00
998.63	211.02
998.92	211.05
999.21	211.12
999.50	211.22
999.79	211.02
1000.08	210.95
1000.37	210.91
1000.66	210.88
1000.95	210.93
1001.24	210.95
1001.53	211.02
1001.82	211.01
1002.11	210.92
1002.40	210.94
1002.68	211.00
1002.97	211.25
1003.26	211.23
1003.55	211.16
1003.84	211.24
1004.13	211.30
1004.42	211.28
1004.71	211.24
1004.99	211.16
1005.28	211.25
1005.57	211.17
1005.86	211.19
1006.15	211.20
1006.44	211.17
1006.72	211.30
1007.01	211.21
1007.30	211.20
1007.59	211.14
1007.88	211.08
1008.17	211.08
1008.45	211.00
1008.74	210.82
1009.03	210.61
1009.32	210.64
1009.60	210.56
1009.89	210.52
1010.18	210.36
1010.47	210.38
1010.76	210.44
1011.04	210.52
1011.33	210.60
1011.62	210.60
1011.91	210.59
1012.19	210.60
1012.48	210.59
1012.77	210.50
1013.05	210.71
1013.34	210.68
1013.63	210.71
1013.92	210.76
1014.20	210.83
1014.49	210.86
1014.78	210.95
1015.06	210.86
1015.35	210.87
1015.64	211.05
1015.92	211.07
1016.21	211.03
1016.50	210.98
1016.78	210.99
1017.07	210.95
1017.36	210.79
1017.64	210.70
1017.93	210.72
1018.22	210.66
1018.50	210.67
1018.79	210.65
1019.08	210.45
1019.36	210.55
1019.65	210.52
1019.93	210.66
1020.22	210.65
1020.51	210.87
1020.79	210.78
1021.08	209.50
1021.36	211.25
1021.65	210.50
1021.94	210.35
1022.22	211.50
1022.51	210.50
1022.79	213.10
1023.08	211.05
1023.36	216.30
1023.65	209.65
>>>>>End Processed Spectral Data<<<<<
