SpectraSuite Data File
++++++++++++++++++++++++++++++++++++
Date: Mon Feb 25 17:17:52 EST 2013
User: group
Dark Spectrum Present: No
Reference Spectrum Present: No
Number of Sampled Component Spectra: 1
Spectrometers: USB2E7196
Integration Time (usec): 104000 (USB2E7196)
Spectra Averaged: 20 (USB2E7196)
Boxcar Smoothing: 10 (USB2E7196)
Correct for Electrical Dark: No (USB2E7196)
Strobe/Lamp Enabled: No (USB2E7196)
Correct for Detector Non-linearity: No (USB2E7196)
Correct for Stray Light: No (USB2E7196)
Number of Pixels in Processed Spectrum: 2048
>>>>>Begin Processed Spectral Data<<<<<
339.09	0.00
339.48	198.05
339.86	200.15
340.24	201.65
340.63	202.30
341.01	210.20
341.39	206.05
341.78	206.35
342.16	209.60
342.54	208.35
342.93	198.38
343.31	208.43
343.69	209.01
344.07	209.44
344.46	209.90
344.84	210.33
345.22	210.36
345.60	210.73
345.99	211.02
346.37	211.13
346.75	211.21
347.13	211.38
347.52	211.45
347.90	211.63
348.28	211.60
348.66	211.68
349.05	211.58
349.43	211.65
349.81	211.72
350.19	211.81
350.57	211.82
350.96	211.87
351.34	211.91
351.72	212.02
352.10	212.20
352.48	212.20
352.87	212.24
353.25	212.35
353.63	212.27
354.01	212.28
354.39	212.32
354.77	212.45
355.15	212.62
355.54	212.58
355.92	212.50
356.30	212.56
356.68	212.80
357.06	212.93
357.44	212.85
357.82	212.88
358.20	212.95
358.58	212.93
358.97	213.03
359.35	213.17
359.73	213.28
360.11	213.26
360.49	213.36
360.87	213.46
361.25	213.59
361.63	213.77
362.01	213.86
362.39	213.89
362.77	213.99
363.15	214.01
363.53	214.07
363.91	214.21
364.29	214.25
364.67	213.92
365.05	213.98
365.43	214.09
365.81	214.18
366.19	214.38
366.57	214.53
366.95	214.51
367.33	214.49
367.71	214.50
368.09	214.60
368.47	214.61
368.85	214.59
369.23	214.53
369.61	214.46
369.99	214.55
370.37	214.54
370.75	214.63
371.13	214.56
371.51	214.61
371.89	214.59
372.27	214.64
372.65	214.77
373.03	214.69
373.41	214.67
373.78	214.59
374.16	214.40
374.54	214.34
374.92	214.30
375.30	214.20
375.68	214.15
376.06	214.14
376.44	214.09
376.82	214.03
377.19	214.00
377.57	213.88
377.95	213.74
378.33	213.71
378.71	213.52
379.09	213.51
379.47	213.45
379.84	213.35
380.22	213.29
380.60	213.15
380.98	213.13
381.36	213.13
381.73	213.04
382.11	213.07
382.49	213.03
382.87	212.92
383.25	212.82
383.62	213.13
384.00	213.02
384.38	212.97
384.76	213.06
385.13	213.16
385.51	213.14
385.89	213.09
386.27	213.07
386.64	213.05
387.02	213.03
387.40	212.95
387.78	212.95
388.15	212.88
388.53	212.84
388.91	212.76
389.29	212.65
389.66	212.68
390.04	212.57
390.42	212.67
390.79	212.65
391.17	212.70
391.55	212.30
391.92	212.30
392.30	212.38
392.68	212.23
393.05	212.23
393.43	212.25
393.81	212.20
394.18	212.17
394.56	212.18
394.94	212.18
395.31	212.16
395.69	212.30
396.06	212.34
396.44	212.35
396.82	212.35
397.19	212.56
397.57	212.52
397.95	212.61
398.32	212.46
398.70	212.59
399.07	212.68
399.45	212.75
399.82	212.77
400.20	212.80
400.58	212.90
400.95	212.75
401.33	212.81
401.70	213.16
402.08	213.22
402.45	213.29
402.83	213.43
403.20	213.52
403.58	213.61
403.95	213.80
404.33	214.00
404.71	214.15
405.08	214.40
405.46	214.56
405.83	214.72
406.21	214.85
406.58	214.92
406.96	215.05
407.33	215.22
407.70	215.37
408.08	215.74
408.45	215.98
408.83	216.29
409.20	216.60
409.58	216.68
409.95	217.01
410.33	217.40
410.70	217.69
411.08	218.10
411.45	218.47
411.82	218.83
412.20	219.35
412.57	220.04
412.95	220.22
413.32	220.83
413.69	221.38
414.07	222.09
414.44	222.86
414.82	223.70
415.19	224.56
415.56	225.49
415.94	226.20
416.31	227.15
416.68	228.10
417.06	229.24
417.43	230.39
417.81	231.67
418.18	232.98
418.55	234.30
418.93	235.80
419.30	237.32
419.67	238.91
420.04	240.51
420.42	242.10
420.79	244.41
421.16	246.41
421.54	248.60
421.91	250.71
422.28	252.89
422.66	255.18
423.03	257.64
423.40	260.03
423.77	262.63
424.15	265.24
424.52	267.99
424.89	270.95
425.26	273.70
425.64	276.41
426.01	279.29
426.38	282.46
426.75	285.67
427.13	288.87
427.50	292.22
427.87	295.74
428.24	299.32
428.61	302.40
428.99	306.25
429.36	310.29
429.73	314.20
430.10	318.14
430.47	322.24
430.85	326.25
431.22	330.60
431.59	335.44
431.96	339.84
432.33	344.83
432.70	349.59
433.08	355.15
433.45	360.37
433.82	365.52
434.19	371.24
434.56	377.00
434.93	382.34
435.30	387.80
435.68	393.80
436.05	399.77
436.42	405.73
436.79	411.02
437.16	416.64
437.53	422.75
437.90	428.76
438.27	434.63
438.64	440.78
439.01	446.64
439.38	451.56
439.75	456.56
440.13	462.10
440.50	467.31
440.87	471.60
441.24	476.10
441.61	481.17
441.98	484.86
442.35	488.80
442.72	493.12
443.09	497.28
443.46	499.74
443.83	501.23
444.20	502.54
444.57	504.50
444.94	505.39
445.31	506.32
445.68	507.55
446.05	507.76
446.42	507.01
446.79	506.13
447.16	505.29
447.53	504.67
447.90	502.27
448.27	499.84
448.64	496.63
449.01	494.25
449.37	489.99
449.74	485.95
450.11	481.38
450.48	476.22
450.85	470.89
451.22	466.27
451.59	462.05
451.96	458.03
452.33	452.65
452.70	447.78
453.07	441.85
453.43	435.60
453.80	430.03
454.17	424.54
454.54	419.33
454.91	413.76
455.28	408.29
455.65	403.14
456.02	398.57
456.38	394.29
456.75	388.93
457.12	384.58
457.49	380.20
457.86	375.87
458.23	372.39
458.59	368.38
458.96	364.40
459.33	360.85
459.70	357.32
460.07	354.37
460.43	351.09
460.80	348.22
461.17	345.61
461.54	342.69
461.91	340.02
462.27	337.20
462.64	334.88
463.01	332.45
463.38	330.21
463.74	327.28
464.11	325.17
464.48	323.31
464.85	321.26
465.21	319.83
465.58	318.26
465.95	316.22
466.32	314.70
466.68	313.09
467.05	311.41
467.42	309.92
467.78	308.39
468.15	306.92
468.52	305.74
468.88	304.21
469.25	303.02
469.62	302.15
469.98	301.23
470.35	300.29
470.72	299.26
471.08	298.07
471.45	297.37
471.82	296.50
472.18	295.63
472.55	295.06
472.92	294.25
473.28	293.60
473.65	293.00
474.02	292.34
474.38	291.92
474.75	291.63
475.11	291.15
475.48	290.94
475.85	290.72
476.21	290.60
476.58	290.58
476.94	290.65
477.31	290.59
477.67	290.58
478.04	290.70
478.41	290.93
478.77	291.51
479.14	291.71
479.50	292.19
479.87	292.65
480.23	293.12
480.60	293.52
480.96	294.01
481.33	294.84
481.69	295.52
482.06	296.30
482.42	297.12
482.79	298.00
483.15	298.96
483.52	299.96
483.88	300.99
484.25	302.17
484.61	303.42
484.98	304.71
485.34	306.16
485.71	307.74
486.07	309.40
486.44	310.88
486.80	312.70
487.17	314.42
487.53	316.57
487.90	318.85
488.26	321.33
488.62	323.85
488.99	326.29
489.35	329.01
489.72	331.86
490.08	334.82
490.44	337.89
490.81	341.29
491.17	344.84
491.54	348.59
491.90	352.28
492.26	356.29
492.63	360.69
492.99	365.21
493.36	369.86
493.72	374.80
494.08	379.95
494.45	385.41
494.81	391.31
495.17	397.04
495.54	403.25
495.90	409.55
496.26	416.22
496.63	423.22
496.99	430.46
497.35	438.05
497.72	446.06
498.08	454.26
498.44	462.51
498.80	471.59
499.17	480.81
499.53	490.55
499.89	500.48
500.26	510.47
500.62	520.77
500.98	531.76
501.34	543.02
501.71	554.85
502.07	566.86
502.43	579.12
502.79	591.80
503.16	604.82
503.52	618.34
503.88	632.18
504.24	646.52
504.60	661.37
504.97	676.63
505.33	692.01
505.69	708.51
506.05	725.26
506.41	741.80
506.78	758.90
507.14	776.24
507.50	793.97
507.86	812.32
508.22	831.17
508.59	850.00
508.95	869.61
509.31	889.50
509.67	909.89
510.03	930.78
510.39	952.20
510.75	973.71
511.12	995.50
511.48	1017.77
511.84	1040.41
512.20	1062.95
512.56	1086.01
512.92	1109.77
513.28	1133.17
513.64	1156.93
514.00	1181.14
514.37	1205.50
514.73	1230.26
515.09	1255.45
515.45	1280.27
515.81	1305.47
516.17	1331.13
516.53	1356.76
516.89	1382.34
517.25	1408.14
517.61	1433.86
517.97	1459.74
518.33	1485.49
518.69	1511.46
519.05	1537.43
519.41	1563.64
519.77	1590.43
520.13	1616.55
520.49	1642.35
520.85	1668.45
521.21	1694.98
521.57	1721.59
521.93	1747.35
522.29	1774.20
522.65	1800.81
523.01	1827.10
523.37	1852.72
523.73	1878.64
524.09	1904.41
524.45	1930.29
524.81	1956.01
525.17	1981.85
525.53	2007.70
525.89	2033.26
526.25	2058.24
526.61	2082.85
526.97	2107.22
527.33	2131.28
527.68	2155.87
528.04	2179.95
528.40	2202.98
528.76	2226.36
529.12	2249.95
529.48	2274.45
529.84	2297.41
530.20	2320.13
530.56	2343.40
530.91	2367.09
531.27	2389.99
531.63	2412.08
531.99	2434.36
532.35	2456.00
532.71	2477.12
533.07	2498.90
533.42	2519.77
533.78	2541.05
534.14	2561.39
534.50	2580.69
534.86	2600.54
535.21	2619.19
535.57	2639.32
535.93	2658.66
536.29	2676.71
536.65	2694.68
537.00	2711.55
537.36	2727.72
537.72	2743.88
538.08	2759.76
538.44	2775.72
538.79	2791.51
539.15	2807.05
539.51	2822.07
539.87	2837.67
540.22	2852.60
540.58	2867.05
540.94	2881.40
541.29	2894.19
541.65	2906.38
542.01	2919.31
542.37	2931.31
542.72	2943.88
543.08	2954.02
543.44	2966.10
543.79	2976.68
544.15	2986.56
544.51	2997.04
544.87	3007.77
545.22	3017.22
545.58	3025.70
545.94	3033.10
546.29	3039.78
546.65	3046.60
547.01	3053.05
547.36	3058.61
547.72	3064.06
548.07	3067.96
548.43	3072.30
548.79	3076.57
549.14	3081.52
549.50	3085.43
549.86	3088.59
550.21	3091.19
550.57	3095.16
550.92	3096.45
551.28	3098.47
551.64	3100.48
551.99	3102.53
552.35	3103.74
552.70	3105.04
553.06	3106.38
553.41	3107.38
553.77	3108.22
554.13	3108.46
554.48	3109.09
554.84	3109.87
555.19	3109.78
555.55	3109.23
555.90	3107.61
556.26	3106.54
556.61	3104.95
556.97	3102.95
557.32	3101.61
557.68	3098.99
558.03	3095.55
558.39	3092.99
558.74	3091.77
559.10	3089.76
559.45	3086.44
559.81	3083.90
560.16	3080.16
560.52	3077.30
560.87	3074.13
561.23	3069.67
561.58	3066.69
561.94	3061.83
562.29	3056.14
562.64	3051.60
563.00	3047.85
563.35	3044.55
563.71	3041.55
564.06	3037.73
564.42	3034.20
564.77	3030.31
565.12	3026.77
565.48	3022.88
565.83	3019.15
566.19	3014.69
566.54	3008.68
566.89	3003.47
567.25	2998.32
567.60	2993.77
567.96	2987.80
568.31	2982.29
568.66	2976.99
569.02	2970.10
569.37	2963.58
569.72	2957.65
570.08	2950.97
570.43	2943.78
570.78	2936.42
571.14	2928.08
571.49	2920.29
571.84	2913.54
572.20	2904.90
572.55	2897.49
572.90	2888.62
573.26	2879.63
573.61	2870.20
573.96	2861.61
574.31	2851.75
574.67	2841.39
575.02	2830.67
575.37	2821.16
575.72	2810.56
576.08	2801.69
576.43	2791.76
576.78	2782.32
577.13	2773.70
577.49	2764.77
577.84	2755.42
578.19	2746.65
578.54	2738.35
578.90	2730.03
579.25	2719.65
579.60	2709.52
579.95	2698.80
580.30	2689.96
580.66	2681.19
581.01	2671.29
581.36	2661.36
581.71	2651.89
582.06	2642.46
582.42	2633.43
582.77	2623.22
583.12	2613.75
583.47	2604.33
583.82	2595.57
584.17	2585.94
584.53	2575.82
584.88	2565.68
585.23	2555.58
585.58	2545.35
585.93	2534.62
586.28	2524.67
586.63	2515.02
586.98	2506.06
587.34	2497.67
587.69	2487.80
588.04	2477.82
588.39	2468.70
588.74	2458.87
589.09	2450.07
589.44	2440.50
589.79	2431.51
590.14	2422.61
590.49	2413.31
590.84	2403.53
591.19	2394.98
591.54	2385.80
591.89	2374.96
592.25	2365.30
592.60	2355.38
592.95	2345.18
593.30	2334.67
593.65	2324.16
594.00	2314.20
594.35	2305.91
594.70	2295.76
595.05	2286.75
595.40	2277.26
595.75	2267.10
596.10	2258.17
596.45	2248.84
596.80	2240.34
597.15	2231.57
597.50	2222.28
597.85	2213.63
598.19	2204.35
598.54	2194.42
598.89	2185.70
599.24	2178.83
599.59	2170.49
599.94	2163.33
600.29	2155.46
600.64	2147.85
600.99	2138.92
601.34	2130.72
601.69	2120.77
602.04	2111.91
602.39	2102.70
602.74	2094.19
603.08	2086.89
603.43	2079.49
603.78	2071.20
604.13	2062.82
604.48	2054.33
604.83	2047.42
605.18	2040.04
605.53	2031.95
605.87	2023.65
606.22	2015.93
606.57	2006.80
606.92	1998.05
607.27	1988.67
607.62	1980.10
607.96	1972.06
608.31	1965.04
608.66	1956.60
609.01	1947.86
609.36	1939.02
609.70	1929.98
610.05	1920.93
610.40	1911.60
610.75	1902.18
611.10	1893.80
611.44	1883.54
611.79	1873.55
612.14	1863.03
612.49	1852.15
612.83	1842.44
613.18	1832.37
613.53	1821.99
613.88	1811.64
614.22	1801.93
614.57	1792.19
614.92	1782.20
615.27	1771.78
615.61	1761.30
615.96	1751.47
616.31	1742.62
616.65	1734.15
617.00	1725.43
617.35	1716.07
617.70	1706.03
618.04	1695.32
618.39	1684.53
618.74	1675.49
619.08	1665.99
619.43	1656.47
619.78	1647.28
620.12	1638.07
620.47	1629.32
620.82	1619.55
621.16	1610.10
621.51	1600.60
621.85	1591.29
622.20	1581.47
622.55	1571.93
622.89	1562.37
623.24	1552.98
623.59	1543.00
623.93	1533.16
624.28	1523.65
624.62	1514.55
624.97	1505.69
625.32	1497.41
625.66	1488.89
626.01	1480.00
626.35	1471.40
626.70	1462.66
627.04	1454.42
627.39	1445.75
627.73	1437.04
628.08	1428.80
628.43	1420.20
628.77	1411.76
629.12	1402.96
629.46	1395.42
629.81	1387.33
630.15	1379.25
630.50	1370.86
630.84	1362.59
631.19	1354.26
631.53	1346.32
631.88	1337.51
632.22	1328.69
632.57	1320.84
632.91	1312.55
633.26	1304.37
633.60	1296.24
633.95	1288.40
634.29	1280.07
634.64	1272.32
634.98	1263.89
635.32	1256.09
635.67	1248.94
636.01	1241.35
636.36	1233.51
636.70	1225.84
637.05	1218.28
637.39	1210.86
637.73	1203.77
638.08	1196.97
638.42	1189.99
638.77	1182.62
639.11	1175.56
639.45	1168.49
639.80	1160.70
640.14	1152.89
640.49	1145.43
640.83	1138.08
641.17	1130.56
641.52	1123.28
641.86	1115.30
642.20	1108.14
642.55	1100.37
642.89	1092.47
643.23	1084.72
643.58	1077.98
643.92	1070.08
644.26	1062.66
644.61	1055.06
644.95	1047.50
645.29	1039.87
645.64	1032.09
645.98	1024.75
646.32	1017.64
646.66	1010.31
647.01	1003.29
647.35	996.50
647.69	989.08
648.04	982.03
648.38	975.02
648.72	968.02
649.06	961.25
649.41	954.11
649.75	947.30
650.09	940.79
650.43	933.94
650.78	926.63
651.12	919.92
651.46	913.06
651.80	906.54
652.14	899.90
652.49	893.15
652.83	886.46
653.17	879.13
653.51	872.31
653.85	865.90
654.20	859.12
654.54	852.40
654.88	845.93
655.22	839.34
655.56	832.73
655.90	826.05
656.25	819.46
656.59	813.13
656.93	807.03
657.27	800.75
657.61	794.47
657.95	788.41
658.29	782.40
658.64	776.63
658.98	770.48
659.32	764.18
659.66	758.43
660.00	752.44
660.34	746.68
660.68	740.65
661.02	734.67
661.36	729.07
661.70	723.68
662.05	718.56
662.39	713.47
662.73	708.20
663.07	703.05
663.41	697.88
663.75	692.74
664.09	687.41
664.43	681.99
664.77	677.06
665.11	671.97
665.45	667.05
665.79	662.00
666.13	657.11
666.47	652.28
666.81	647.27
667.15	642.61
667.49	638.37
667.83	634.15
668.17	629.87
668.51	625.60
668.85	621.22
669.19	616.96
669.53	612.45
669.87	608.07
670.21	603.81
670.55	599.51
670.89	595.71
671.23	591.81
671.57	588.02
671.91	583.97
672.25	579.93
672.58	575.85
672.92	571.98
673.26	568.34
673.60	564.80
673.94	561.16
674.28	557.44
674.62	553.88
674.96	550.23
675.30	546.70
675.64	542.98
675.97	539.41
676.31	535.90
676.65	532.50
676.99	529.32
677.33	525.87
677.67	522.66
678.01	519.06
678.34	515.79
678.68	512.38
679.02	509.18
679.36	506.07
679.70	502.97
680.04	499.75
680.37	496.39
680.71	493.14
681.05	490.09
681.39	487.08
681.73	483.95
682.06	481.10
682.40	478.12
682.74	475.18
683.08	472.39
683.42	469.32
683.75	466.32
684.09	463.26
684.43	460.45
684.77	457.46
685.10	454.62
685.44	451.66
685.78	448.81
686.12	446.19
686.45	443.47
686.79	440.79
687.13	438.33
687.46	435.90
687.80	433.39
688.14	430.58
688.48	428.17
688.81	425.50
689.15	422.83
689.49	420.32
689.82	417.94
690.16	415.22
690.50	412.76
690.83	410.32
691.17	407.80
691.51	405.35
691.84	403.14
692.18	400.90
692.52	398.76
692.85	396.81
693.19	394.64
693.52	392.47
693.86	390.25
694.20	388.05
694.53	385.80
694.87	383.70
695.21	381.81
695.54	379.59
695.88	377.40
696.21	375.34
696.55	373.37
696.88	371.29
697.22	369.41
697.56	367.63
697.89	365.79
698.23	363.97
698.56	362.19
698.90	360.45
699.23	358.51
699.57	356.69
699.90	354.71
700.24	352.76
700.58	350.92
700.91	349.24
701.25	347.70
701.58	346.07
701.92	344.42
702.25	342.75
702.59	341.09
702.92	339.69
703.26	338.17
703.59	336.58
703.93	335.42
704.26	333.95
704.60	332.40
704.93	330.90
705.26	329.37
705.60	327.98
705.93	326.51
706.27	325.25
706.60	323.88
706.94	322.74
707.27	321.45
707.61	320.19
707.94	318.80
708.27	317.23
708.61	315.84
708.94	314.59
709.28	313.29
709.61	312.05
709.94	310.85
710.28	309.69
710.61	308.58
710.95	307.08
711.28	306.09
711.61	304.93
711.95	303.88
712.28	302.84
712.61	301.68
712.95	300.66
713.28	299.69
713.61	298.61
713.95	297.45
714.28	296.53
714.61	295.48
714.95	294.54
715.28	293.61
715.61	292.59
715.95	291.57
716.28	290.63
716.61	289.77
716.95	288.70
717.28	287.73
717.61	286.85
717.94	285.92
718.28	284.76
718.61	283.79
718.94	282.80
719.27	281.97
719.61	281.20
719.94	280.32
720.27	279.33
720.60	278.49
720.94	277.66
721.27	276.71
721.60	276.02
721.93	275.25
722.27	274.51
722.60	273.84
722.93	273.14
723.26	272.34
723.59	271.52
723.93	270.83
724.26	270.15
724.59	269.46
724.92	268.90
725.25	268.37
725.59	267.75
725.92	267.25
726.25	266.58
726.58	265.94
726.91	265.36
727.24	264.81
727.57	264.30
727.91	263.67
728.24	263.19
728.57	262.55
728.90	262.12
729.23	261.46
729.56	261.10
729.89	260.50
730.22	259.93
730.55	259.41
730.89	258.92
731.22	258.39
731.55	257.76
731.88	257.20
732.21	256.69
732.54	256.19
732.87	255.62
733.20	255.09
733.53	254.57
733.86	254.06
734.19	253.54
734.52	253.06
734.85	252.81
735.18	252.30
735.51	251.96
735.84	251.42
736.17	251.20
736.50	250.50
736.83	250.48
737.16	250.11
737.49	249.73
737.82	249.27
738.15	248.93
738.48	248.61
738.81	248.18
739.14	247.75
739.47	247.29
739.80	246.88
740.13	246.49
740.46	246.07
740.79	245.70
741.12	245.29
741.45	244.93
741.78	244.41
742.11	244.10
742.44	243.65
742.77	243.37
743.10	242.91
743.43	242.60
743.75	241.89
744.08	242.05
744.41	241.62
744.74	241.29
745.07	240.93
745.40	240.67
745.73	240.46
746.06	240.19
746.39	239.95
746.71	239.61
747.04	239.37
747.37	239.03
747.70	238.76
748.03	238.47
748.36	238.22
748.68	237.88
749.01	237.49
749.34	237.13
749.67	236.83
750.00	236.50
750.33	236.49
750.65	236.20
750.98	235.48
751.31	235.29
751.64	235.00
751.97	234.93
752.29	234.59
752.62	234.14
752.95	233.82
753.28	233.58
753.60	233.34
753.93	233.17
754.26	232.98
754.59	232.65
754.91	232.44
755.24	232.13
755.57	231.95
755.90	231.74
756.22	231.60
756.55	231.32
756.88	231.06
757.20	230.59
757.53	230.27
757.86	229.97
758.19	229.74
758.51	229.49
758.84	229.05
759.17	228.80
759.49	228.66
759.82	228.63
760.15	228.34
760.47	228.11
760.80	227.80
761.13	227.63
761.45	227.36
761.78	227.10
762.11	226.89
762.43	226.64
762.76	226.45
763.08	226.25
763.41	226.05
763.74	225.88
764.06	225.70
764.39	225.50
764.71	225.29
765.04	225.11
765.37	225.01
765.69	224.83
766.02	224.60
766.34	224.47
766.67	224.14
767.00	224.11
767.32	224.10
767.65	224.10
767.97	223.97
768.30	223.85
768.62	223.75
768.95	223.59
769.27	223.51
769.60	223.44
769.92	223.24
770.25	223.08
770.57	222.94
770.90	222.76
771.22	222.67
771.55	222.60
771.87	222.46
772.20	222.28
772.52	222.50
772.85	222.90
773.17	222.73
773.50	222.68
773.82	222.45
774.15	222.28
774.47	221.96
774.80	221.78
775.12	221.69
775.45	221.67
775.77	221.57
776.09	221.48
776.42	221.35
776.74	221.29
777.07	221.11
777.39	221.03
777.72	220.91
778.04	220.90
778.36	220.79
778.69	220.70
779.01	220.75
779.33	220.32
779.66	219.77
779.98	219.69
780.31	219.52
780.63	219.59
780.95	219.51
781.28	219.47
781.60	219.35
781.92	219.31
782.25	219.15
782.57	219.05
782.89	218.85
783.22	218.75
783.54	218.60
783.86	218.65
784.19	218.50
784.51	218.61
784.83	218.47
785.16	218.35
785.48	218.33
785.80	218.19
786.12	218.13
786.45	218.06
786.77	218.02
787.09	217.99
787.42	217.84
787.74	217.80
788.06	217.72
788.38	217.68
788.71	217.59
789.03	217.54
789.35	217.55
789.67	217.45
789.99	217.53
790.32	217.52
790.64	217.41
790.96	217.68
791.28	217.41
791.61	217.33
791.93	217.34
792.25	217.22
792.57	217.38
792.89	217.32
793.21	217.25
793.54	217.12
793.86	216.96
794.18	216.95
794.50	216.79
794.82	216.81
795.14	216.83
795.47	216.84
795.79	216.82
796.11	216.76
796.43	216.80
796.75	216.66
797.07	216.59
797.39	216.57
797.71	216.35
798.04	216.40
798.36	216.40
798.68	216.38
799.00	216.36
799.32	216.19
799.64	216.26
799.96	216.27
800.28	216.35
800.60	216.33
800.92	216.28
801.24	216.28
801.56	216.28
801.89	216.19
802.21	216.13
802.53	216.03
802.85	216.01
803.17	216.05
803.49	216.00
803.81	216.00
804.13	215.98
804.45	215.86
804.77	215.83
805.09	215.82
805.41	215.73
805.73	215.66
806.05	215.54
806.37	215.42
806.69	215.33
807.01	215.29
807.33	215.33
807.65	215.20
807.97	215.27
808.28	215.05
808.60	215.02
808.92	214.99
809.24	215.10
809.56	214.97
809.88	214.87
810.20	214.77
810.52	214.77
810.84	214.66
811.16	214.55
811.48	214.48
811.80	214.58
812.12	214.61
812.43	214.64
812.75	214.66
813.07	214.57
813.39	214.62
813.71	214.51
814.03	214.42
814.35	214.40
814.67	214.27
814.98	214.32
815.30	214.30
815.62	214.16
815.94	213.94
816.26	213.98
816.58	213.92
816.89	213.94
817.21	213.82
817.53	213.83
817.85	213.88
818.17	213.84
818.48	213.67
818.80	213.65
819.12	213.57
819.44	213.48
819.76	213.44
820.07	213.38
820.39	213.41
820.71	213.46
821.03	213.43
821.34	213.45
821.66	213.50
821.98	213.52
822.30	213.53
822.61	213.78
822.93	213.74
823.25	213.75
823.57	213.70
823.88	213.79
824.20	213.75
824.52	213.73
824.83	213.69
825.15	213.62
825.47	213.62
825.79	213.63
826.10	213.57
826.42	213.60
826.74	213.64
827.05	213.57
827.37	213.56
827.69	213.53
828.00	213.48
828.32	213.40
828.64	213.33
828.95	213.55
829.27	213.34
829.58	213.33
829.90	213.32
830.22	213.35
830.53	213.25
830.85	213.29
831.17	213.19
831.48	213.19
831.80	213.18
832.11	213.15
832.43	213.14
832.75	213.09
833.06	213.26
833.38	213.12
833.69	213.06
834.01	213.07
834.32	213.00
834.64	212.95
834.96	212.96
835.27	212.98
835.59	212.82
835.90	212.84
836.22	212.82
836.53	212.81
836.85	212.79
837.16	213.15
837.48	213.11
837.79	213.29
838.11	213.38
838.42	213.38
838.74	213.42
839.05	213.41
839.37	213.41
839.68	213.26
840.00	213.30
840.31	213.38
840.63	213.34
840.94	213.42
841.26	213.40
841.57	213.30
841.88	213.29
842.20	213.18
842.51	213.07
842.83	213.03
843.14	213.35
843.46	213.26
843.77	213.02
844.08	213.03
844.40	212.90
844.71	212.78
845.03	212.72
845.34	212.65
845.65	212.63
845.97	212.63
846.28	212.58
846.60	212.62
846.91	212.55
847.22	212.51
847.54	212.48
847.85	212.50
848.16	212.60
848.48	212.57
848.79	212.71
849.10	212.80
849.42	212.82
849.73	212.42
850.04	212.43
850.36	212.35
850.67	212.37
850.98	212.38
851.30	212.44
851.61	212.42
851.92	212.43
852.23	212.51
852.55	212.53
852.86	212.52
853.17	212.54
853.49	212.64
853.80	212.72
854.11	212.75
854.42	212.75
854.74	212.64
855.05	212.65
855.36	212.47
855.67	212.47
855.99	212.46
856.30	212.87
856.61	212.93
856.92	212.93
857.23	212.91
857.55	212.86
857.86	212.79
858.17	212.83
858.48	212.74
858.79	212.71
859.11	212.72
859.42	212.68
859.73	212.59
860.04	212.54
860.35	212.44
860.66	212.38
860.98	212.35
861.29	212.44
861.60	212.37
861.91	212.48
862.22	212.45
862.53	212.42
862.84	212.01
863.16	212.07
863.47	211.96
863.78	211.91
864.09	211.92
864.40	211.98
864.71	211.98
865.02	211.95
865.33	211.84
865.64	211.77
865.95	211.76
866.27	211.96
866.58	211.91
866.89	211.94
867.20	211.95
867.51	211.94
867.82	211.87
868.13	211.95
868.44	211.82
868.75	211.77
869.06	211.82
869.37	211.90
869.68	211.75
869.99	211.83
870.30	211.85
870.61	211.90
870.92	211.83
871.23	211.83
871.54	211.90
871.85	211.99
872.16	212.10
872.47	212.09
872.78	211.93
873.09	211.97
873.40	211.89
873.71	211.89
874.02	211.94
874.33	211.86
874.64	211.83
874.95	211.92
875.26	211.87
875.56	211.81
875.87	211.74
876.18	211.70
876.49	212.05
876.80	212.07
877.11	211.96
877.42	211.99
877.73	211.96
878.04	211.98
878.35	212.01
878.66	211.97
878.96	211.92
879.27	211.89
879.58	211.82
879.89	211.79
880.20	211.86
880.51	211.82
880.82	211.89
881.12	211.84
881.43	211.83
881.74	211.81
882.05	211.82
882.36	211.81
882.67	211.91
882.97	211.56
883.28	211.44
883.59	211.49
883.90	211.52
884.21	211.59
884.51	211.58
884.82	211.42
885.13	211.42
885.44	211.47
885.74	211.42
886.05	211.42
886.36	211.45
886.67	211.32
886.98	211.46
887.28	211.48
887.59	211.50
887.90	211.48
888.20	211.49
888.51	211.53
888.82	211.53
889.13	211.50
889.43	211.75
889.74	211.77
890.05	211.75
890.35	211.74
890.66	211.75
890.97	211.64
891.28	211.67
891.58	211.71
891.89	211.75
892.20	211.74
892.50	211.84
892.81	211.90
893.12	211.94
893.42	211.85
893.73	211.88
894.04	211.89
894.34	211.96
894.65	212.00
894.95	211.99
895.26	212.01
895.57	212.22
895.87	211.83
896.18	211.90
896.48	211.92
896.79	211.88
897.10	211.84
897.40	211.87
897.71	211.97
898.01	211.95
898.32	211.95
898.63	211.98
898.93	211.89
899.24	211.84
899.54	211.90
899.85	211.84
900.15	211.93
900.46	211.99
900.76	211.94
901.07	211.90
901.38	211.86
901.68	211.91
901.99	211.68
902.29	211.80
902.60	211.71
902.90	211.70
903.21	211.75
903.51	211.75
903.82	211.80
904.12	211.72
904.43	211.70
904.73	211.72
905.03	211.71
905.34	212.05
905.64	212.01
905.95	211.93
906.25	211.93
906.56	211.78
906.86	211.69
907.17	211.72
907.47	211.71
907.77	211.66
908.08	211.56
908.38	211.63
908.69	211.61
908.99	211.72
909.30	211.77
909.60	211.70
909.90	211.67
910.21	211.60
910.51	211.55
910.81	211.53
911.12	211.56
911.42	211.61
911.73	211.30
912.03	211.39
912.33	211.50
912.64	211.50
912.94	211.48
913.24	211.45
913.55	211.42
913.85	211.44
914.15	211.56
914.46	211.52
914.76	211.50
915.06	211.49
915.37	211.44
915.67	211.40
915.97	211.49
916.27	211.46
916.58	211.49
916.88	211.51
917.18	211.42
917.49	211.61
917.79	211.56
918.09	211.64
918.39	211.70
918.70	211.60
919.00	211.59
919.30	211.81
919.60	211.86
919.91	211.82
920.21	211.82
920.51	211.75
920.81	211.83
921.12	211.85
921.42	211.83
921.72	211.81
922.02	211.76
922.32	211.75
922.63	211.75
922.93	211.92
923.23	211.92
923.53	212.06
923.83	211.78
924.13	211.81
924.44	211.70
924.74	211.76
925.04	211.87
925.34	211.81
925.64	211.64
925.94	211.59
926.24	211.81
926.55	211.81
926.85	211.87
927.15	211.89
927.45	211.92
927.75	211.97
928.05	211.95
928.35	211.96
928.65	212.02
928.95	212.08
929.26	211.98
929.56	212.06
929.86	211.99
930.16	211.95
930.46	211.94
930.76	212.00
931.06	211.84
931.36	211.72
931.66	211.85
931.96	211.86
932.26	211.89
932.56	211.75
932.86	211.77
933.16	211.66
933.46	211.53
933.76	211.36
934.06	211.42
934.36	211.62
934.66	211.64
934.96	211.50
935.26	211.48
935.56	211.50
935.86	211.48
936.16	211.50
936.46	211.56
936.76	211.56
937.06	211.42
937.36	211.46
937.66	211.52
937.96	211.52
938.26	211.47
938.56	211.47
938.86	211.42
939.16	211.48
939.46	211.60
939.76	211.67
940.06	211.70
940.35	211.57
940.65	211.31
940.95	211.34
941.25	211.34
941.55	211.34
941.85	211.31
942.15	211.30
942.45	211.38
942.75	211.31
943.04	211.33
943.34	211.43
943.64	211.36
943.94	211.29
944.24	211.24
944.54	211.20
944.84	211.16
945.13	211.20
945.43	211.06
945.73	211.07
946.03	211.00
946.33	210.97
946.62	210.93
946.92	210.99
947.22	211.02
947.52	211.05
947.82	211.09
948.11	211.06
948.41	211.01
948.71	210.83
949.01	210.92
949.31	210.85
949.60	210.83
949.90	210.88
950.20	210.89
950.50	210.88
950.79	210.83
951.09	210.85
951.39	210.82
951.69	210.82
951.98	210.85
952.28	210.92
952.58	210.95
952.87	210.97
953.17	210.99
953.47	210.90
953.76	210.88
954.06	210.88
954.36	210.78
954.66	210.80
954.95	210.96
955.25	210.92
955.55	210.99
955.84	210.96
956.14	211.03
956.44	211.08
956.73	211.01
957.03	211.08
957.32	211.06
957.62	211.02
957.92	211.13
958.21	211.05
958.51	211.47
958.81	211.49
959.10	211.56
959.40	211.72
959.69	211.81
959.99	211.83
960.29	211.80
960.58	211.88
960.88	212.00
961.17	211.97
961.47	211.97
961.76	211.96
962.06	211.98
962.36	211.89
962.65	211.87
962.95	211.83
963.24	211.85
963.54	211.96
963.83	211.92
964.13	211.85
964.42	211.76
964.72	211.45
965.01	211.48
965.31	211.45
965.60	211.24
965.90	211.37
966.19	211.31
966.49	211.35
966.78	211.36
967.08	211.30
967.37	211.29
967.67	211.27
967.96	211.37
968.26	211.34
968.55	211.47
968.85	211.47
969.14	211.55
969.43	211.59
969.73	211.49
970.02	211.59
970.32	211.60
970.61	211.65
970.91	211.56
971.20	211.51
971.49	211.57
971.79	211.72
972.08	211.49
972.38	211.50
972.67	211.42
972.96	211.48
973.26	211.47
973.55	211.57
973.85	211.63
974.14	211.55
974.43	211.57
974.73	211.48
975.02	211.49
975.31	211.53
975.61	211.48
975.90	211.49
976.19	211.46
976.49	211.47
976.78	211.50
977.07	211.58
977.37	211.57
977.66	211.52
977.95	211.44
978.24	211.56
978.54	211.68
978.83	211.64
979.12	211.62
979.42	211.59
979.71	211.51
980.00	211.49
980.29	211.43
980.59	211.44
980.88	211.52
981.17	211.47
981.46	211.40
981.76	211.43
982.05	211.53
982.34	211.51
982.63	211.56
982.93	211.46
983.22	211.47
983.51	211.52
983.80	211.56
984.09	211.59
984.39	211.45
984.68	211.41
984.97	211.49
985.26	211.42
985.55	211.40
985.85	211.40
986.14	211.44
986.43	211.57
986.72	211.50
987.01	211.34
987.30	211.41
987.59	211.36
987.89	211.34
988.18	211.21
988.47	211.20
988.76	211.17
989.05	211.15
989.34	211.06
989.63	211.19
989.92	211.11
990.22	211.04
990.51	211.08
990.80	211.04
991.09	211.06
991.38	211.11
991.67	211.08
991.96	210.97
992.25	210.95
992.54	210.87
992.83	210.96
993.12	210.99
993.41	210.93
993.70	211.10
993.99	211.12
994.28	211.14
994.58	211.18
994.87	211.09
995.16	211.12
995.45	211.13
995.74	211.01
996.03	211.10
996.32	211.20
996.61	211.25
996.90	211.14
997.19	211.05
997.48	211.03
997.77	211.06
998.06	211.11
998.34	211.05
998.63	210.98
998.92	210.94
999.21	211.05
999.50	211.04
999.79	210.89
1000.08	210.88
1000.37	210.90
1000.66	210.79
1000.95	210.88
1001.24	210.92
1001.53	210.94
1001.82	210.92
1002.11	210.86
1002.40	210.87
1002.68	210.92
1002.97	211.24
1003.26	211.24
1003.55	211.21
1003.84	211.21
1004.13	211.34
1004.42	211.32
1004.71	211.38
1004.99	211.39
1005.28	211.31
1005.57	211.37
1005.86	211.40
1006.15	211.41
1006.44	211.31
1006.72	211.48
1007.01	211.44
1007.30	211.42
1007.59	211.41
1007.88	211.43
1008.17	211.46
1008.45	211.37
1008.74	211.27
1009.03	211.12
1009.32	211.18
1009.60	211.12
1009.89	211.12
1010.18	210.95
1010.47	210.97
1010.76	210.90
1011.04	210.88
1011.33	210.97
1011.62	210.93
1011.91	210.93
1012.19	210.99
1012.48	211.09
1012.77	211.00
1013.05	211.16
1013.34	211.19
1013.63	211.05
1013.92	210.99
1014.20	210.92
1014.49	210.88
1014.78	210.89
1015.06	210.78
1015.35	210.69
1015.64	210.79
1015.92	210.79
1016.21	210.83
1016.50	210.84
1016.78	210.91
1017.07	210.94
1017.36	210.79
1017.64	210.78
1017.93	210.84
1018.22	210.73
1018.50	210.72
1018.79	210.76
1019.08	210.62
1019.36	210.60
1019.65	210.68
1019.93	210.82
1020.22	210.89
1020.51	211.09
1020.79	211.06
1021.08	210.20
1021.36	211.10
1021.65	211.55
1021.94	211.20
1022.22	210.95
1022.51	210.40
1022.79	212.45
1023.08	211.60
1023.36	214.25
1023.65	210.25
>>>>>End Processed Spectral Data<<<<<
