SpectraSuite Data File
++++++++++++++++++++++++++++++++++++
Date: Mon Feb 25 17:15:40 EST 2013
User: group
Dark Spectrum Present: No
Reference Spectrum Present: No
Number of Sampled Component Spectra: 1
Spectrometers: USB2E7196
Integration Time (usec): 104000 (USB2E7196)
Spectra Averaged: 20 (USB2E7196)
Boxcar Smoothing: 10 (USB2E7196)
Correct for Electrical Dark: No (USB2E7196)
Strobe/Lamp Enabled: No (USB2E7196)
Correct for Detector Non-linearity: No (USB2E7196)
Correct for Stray Light: No (USB2E7196)
Number of Pixels in Processed Spectrum: 2048
>>>>>Begin Processed Spectral Data<<<<<
339.09	0.00
339.48	200.90
339.86	200.80
340.24	202.00
340.63	203.35
341.01	209.75
341.39	206.05
341.78	208.40
342.16	209.45
342.54	209.15
342.93	198.73
343.31	208.74
343.69	209.22
344.07	209.60
344.46	210.09
344.84	210.49
345.22	210.53
345.60	210.79
345.99	210.96
346.37	210.99
346.75	211.15
347.13	211.15
347.52	211.20
347.90	211.32
348.28	211.35
348.66	211.46
349.05	211.37
349.43	211.45
349.81	211.42
350.19	211.43
350.57	211.49
350.96	211.57
351.34	211.62
351.72	211.63
352.10	211.71
352.48	211.72
352.87	211.69
353.25	211.73
353.63	211.73
354.01	211.72
354.39	211.78
354.77	211.72
355.15	211.82
355.54	211.80
355.92	211.82
356.30	211.91
356.68	212.14
357.06	212.15
357.44	212.16
357.82	212.27
358.20	212.35
358.58	212.36
358.97	212.42
359.35	212.55
359.73	212.74
360.11	212.83
360.49	212.83
360.87	212.87
361.25	213.00
361.63	213.19
362.01	213.23
362.39	213.29
362.77	213.36
363.15	213.37
363.53	213.45
363.91	213.48
364.29	213.47
364.67	213.10
365.05	213.16
365.43	213.24
365.81	213.32
366.19	213.47
366.57	213.65
366.95	213.57
367.33	213.45
367.71	213.39
368.09	213.47
368.47	213.50
368.85	213.53
369.23	213.54
369.61	213.40
369.99	213.57
370.37	213.62
370.75	213.84
371.13	213.77
371.51	213.65
371.89	213.68
372.27	213.71
372.65	213.71
373.03	213.72
373.41	213.70
373.78	213.62
374.16	213.46
374.54	213.26
374.92	213.33
375.30	213.38
375.68	213.31
376.06	213.28
376.44	213.22
376.82	213.23
377.19	213.21
377.57	213.19
377.95	213.04
378.33	213.02
378.71	212.68
379.09	212.79
379.47	212.82
379.84	212.68
380.22	212.56
380.60	212.55
380.98	212.51
381.36	212.46
381.73	212.40
382.11	212.41
382.49	212.40
382.87	212.30
383.25	212.24
383.62	212.58
384.00	212.46
384.38	212.45
384.76	212.50
385.13	212.67
385.51	212.64
385.89	212.57
386.27	212.53
386.64	212.61
387.02	212.52
387.40	212.45
387.78	212.48
388.15	212.49
388.53	212.48
388.91	212.42
389.29	212.32
389.66	212.32
390.04	212.25
390.42	212.33
390.79	212.31
391.17	212.25
391.55	211.84
391.92	211.87
392.30	211.95
392.68	211.80
393.05	211.69
393.43	211.68
393.81	211.63
394.18	211.53
394.56	211.56
394.94	211.62
395.31	211.68
395.69	211.80
396.06	211.85
396.44	211.81
396.82	211.80
397.19	212.03
397.57	212.05
397.95	212.13
398.32	212.01
398.70	212.07
399.07	212.20
399.45	212.22
399.82	212.26
400.20	212.20
400.58	212.25
400.95	212.18
401.33	212.33
401.70	212.64
402.08	212.71
402.45	212.69
402.83	212.79
403.20	212.81
403.58	212.75
403.95	212.87
404.33	212.99
404.71	213.13
405.08	213.44
405.46	213.50
405.83	213.61
406.21	213.79
406.58	213.93
406.96	214.02
407.33	214.18
407.70	214.31
408.08	214.68
408.45	214.90
408.83	215.13
409.20	215.26
409.58	215.29
409.95	215.60
410.33	215.92
410.70	216.05
411.08	216.41
411.45	216.79
411.82	217.00
412.20	217.44
412.57	217.98
412.95	218.08
413.32	218.63
413.69	219.05
414.07	219.56
414.44	220.15
414.82	220.74
415.19	221.41
415.56	222.16
415.94	222.80
416.31	223.60
416.68	224.39
417.06	225.31
417.43	226.30
417.81	227.38
418.18	228.44
418.55	229.61
418.93	230.76
419.30	232.01
419.67	233.31
420.04	234.59
420.42	235.90
420.79	237.71
421.16	239.21
421.54	241.03
421.91	242.75
422.28	244.37
422.66	246.20
423.03	248.25
423.40	250.14
423.77	252.10
424.15	254.14
424.52	256.33
424.89	258.67
425.26	260.81
425.64	262.80
426.01	265.08
426.38	267.53
426.75	270.10
427.13	272.65
427.50	275.40
427.87	278.26
428.24	281.06
428.61	283.49
428.99	286.62
429.36	289.70
429.73	292.84
430.10	296.18
430.47	299.47
430.85	302.61
431.22	306.09
431.59	310.05
431.96	313.56
432.33	317.57
432.70	321.35
433.08	325.71
433.45	329.99
433.82	334.26
434.19	338.89
434.56	343.46
434.93	347.67
435.30	351.98
435.68	356.72
436.05	361.45
436.42	366.12
436.79	370.37
437.16	375.04
437.53	379.88
437.90	384.46
438.27	389.21
438.64	394.03
439.01	398.57
439.38	402.33
439.75	406.32
440.13	410.65
440.50	414.77
440.87	418.28
441.24	421.78
441.61	425.51
441.98	428.28
442.35	431.49
442.72	434.97
443.09	438.34
443.46	440.12
443.83	441.35
444.20	442.49
444.57	443.98
444.94	444.68
445.31	445.42
445.68	446.64
446.05	446.84
446.42	446.29
446.79	445.77
447.16	445.00
447.53	444.47
447.90	442.66
448.27	440.76
448.64	438.27
449.01	436.40
449.37	433.27
449.74	430.12
450.11	426.58
450.48	422.42
450.85	418.17
451.22	414.63
451.59	411.38
451.96	408.03
452.33	403.66
452.70	399.67
453.07	394.96
453.43	389.76
453.80	385.26
454.17	381.00
454.54	376.75
454.91	372.35
455.28	368.00
455.65	363.78
456.02	360.24
456.38	356.71
456.75	352.46
457.12	348.82
457.49	345.37
457.86	341.76
458.23	338.98
458.59	335.75
458.96	332.63
459.33	329.66
459.70	326.91
460.07	324.72
460.43	322.08
460.80	319.79
461.17	317.77
461.54	315.44
461.91	313.35
462.27	311.16
462.64	309.42
463.01	307.46
463.38	305.74
463.74	303.35
464.11	301.67
464.48	300.24
464.85	298.69
465.21	297.55
465.58	296.34
465.95	294.67
466.32	293.37
466.68	292.07
467.05	290.79
467.42	289.54
467.78	288.24
468.15	287.04
468.52	286.09
468.88	284.81
469.25	283.86
469.62	282.98
469.98	282.05
470.35	281.12
470.72	280.30
471.08	279.36
471.45	278.75
471.82	278.20
472.18	277.44
472.55	276.85
472.92	276.08
473.28	275.51
473.65	275.05
474.02	274.57
474.38	274.29
474.75	274.04
475.11	273.71
475.48	273.47
475.85	273.23
476.21	273.03
476.58	272.95
476.94	272.91
477.31	272.94
477.67	272.96
478.04	273.01
478.41	273.08
478.77	273.45
479.14	273.50
479.50	273.55
479.87	273.79
480.23	274.12
480.60	274.49
480.96	274.71
481.33	275.20
481.69	275.65
482.06	276.14
482.42	276.63
482.79	277.25
483.15	277.89
483.52	278.76
483.88	279.55
484.25	280.41
484.61	281.22
484.98	282.01
485.34	283.15
485.71	284.35
486.07	285.49
486.44	286.42
486.80	287.84
487.17	289.19
487.53	290.80
487.90	292.50
488.26	294.26
488.62	296.27
488.99	298.06
489.35	300.10
489.72	302.09
490.08	304.32
490.44	306.52
490.81	309.14
491.17	311.64
491.54	314.32
491.90	317.14
492.26	320.19
492.63	323.40
492.99	326.52
493.36	329.95
493.72	333.76
494.08	337.52
494.45	341.47
494.81	345.78
495.17	349.93
495.54	354.38
495.90	358.99
496.26	363.72
496.63	368.83
496.99	373.99
497.35	379.62
497.72	385.46
498.08	391.30
498.44	397.28
498.80	403.86
499.17	410.47
499.53	417.29
499.89	424.56
500.26	431.88
500.62	439.55
500.98	447.54
501.34	455.55
501.71	464.23
502.07	472.84
502.43	481.73
502.79	490.93
503.16	500.42
503.52	510.22
503.88	520.25
504.24	530.58
504.60	541.28
504.97	552.18
505.33	563.10
505.69	575.11
506.05	586.99
506.41	599.09
506.78	611.41
507.14	624.05
507.50	636.89
507.86	650.18
508.22	663.76
508.59	677.35
508.95	691.51
509.31	705.69
509.67	720.34
510.03	735.24
510.39	750.80
510.75	766.53
511.12	782.47
511.48	798.69
511.84	815.04
512.20	831.47
512.56	848.50
512.92	865.75
513.28	882.87
513.64	900.41
514.00	917.94
514.37	935.72
514.73	954.07
515.09	972.37
515.45	990.61
515.81	1008.98
516.17	1027.70
516.53	1046.21
516.89	1064.94
517.25	1083.95
517.61	1103.00
517.97	1121.89
518.33	1140.59
518.69	1159.75
519.05	1179.08
519.41	1198.77
519.77	1218.80
520.13	1238.11
520.49	1257.22
520.85	1276.76
521.21	1296.61
521.57	1316.52
521.93	1335.94
522.29	1355.85
522.65	1375.58
523.01	1395.15
523.37	1414.36
523.73	1433.89
524.09	1453.47
524.45	1473.10
524.81	1492.40
525.17	1512.20
525.53	1531.46
525.89	1551.13
526.25	1570.34
526.61	1588.56
526.97	1607.03
527.33	1625.14
527.68	1643.89
528.04	1662.25
528.40	1679.60
528.76	1697.10
529.12	1714.86
529.48	1733.38
529.84	1750.80
530.20	1768.25
530.56	1785.79
530.91	1803.95
531.27	1821.35
531.63	1838.72
531.99	1855.80
532.35	1872.25
532.71	1888.07
533.07	1904.86
533.42	1920.75
533.78	1936.50
534.14	1952.43
534.50	1966.90
534.86	1982.49
535.21	1996.35
535.57	2011.57
535.93	2026.13
536.29	2040.35
536.65	2054.60
537.00	2067.77
537.36	2080.60
537.72	2093.12
538.08	2105.85
538.44	2118.15
538.79	2130.80
539.15	2142.80
539.51	2154.67
539.87	2167.12
540.22	2178.77
540.58	2190.38
540.94	2201.43
541.29	2211.42
541.65	2221.06
542.01	2231.56
542.37	2241.30
542.72	2251.45
543.08	2259.98
543.44	2269.76
543.79	2278.01
544.15	2285.52
544.51	2293.93
544.87	2302.05
545.22	2309.78
545.58	2316.42
545.94	2322.40
546.29	2327.73
546.65	2333.05
547.01	2337.99
547.36	2342.69
547.72	2347.27
548.07	2351.06
548.43	2354.70
548.79	2358.65
549.14	2362.33
549.50	2365.85
549.86	2368.17
550.21	2370.43
550.57	2373.65
550.92	2375.02
551.28	2376.62
551.64	2378.64
551.99	2380.43
552.35	2381.78
552.70	2383.01
553.06	2384.42
553.41	2385.58
553.77	2386.30
554.13	2387.03
554.48	2388.06
554.84	2388.76
555.19	2388.64
555.55	2388.03
555.90	2387.32
556.26	2386.59
556.61	2385.72
556.97	2384.24
557.32	2383.30
557.68	2381.70
558.03	2379.70
558.39	2378.16
558.74	2377.62
559.10	2376.16
559.45	2373.95
559.81	2372.26
560.16	2369.56
560.52	2367.61
560.87	2365.35
561.23	2362.51
561.58	2360.20
561.94	2356.73
562.29	2352.89
562.64	2350.22
563.00	2347.27
563.35	2345.06
563.71	2343.21
564.06	2341.10
564.42	2338.60
564.77	2336.23
565.12	2334.07
565.48	2331.36
565.83	2328.80
566.19	2326.18
566.54	2322.34
566.89	2318.43
567.25	2314.84
567.60	2311.69
567.96	2307.50
568.31	2303.97
568.66	2300.29
569.02	2295.63
569.37	2290.52
569.72	2286.29
570.08	2281.45
570.43	2276.76
570.78	2271.35
571.14	2265.20
571.49	2259.13
571.84	2254.19
572.20	2247.86
572.55	2242.09
572.90	2235.63
573.26	2228.73
573.61	2221.45
573.96	2214.97
574.31	2207.90
574.67	2200.55
575.02	2192.84
575.37	2185.94
575.72	2177.86
576.08	2171.07
576.43	2163.70
576.78	2157.15
577.13	2150.48
577.49	2143.85
577.84	2136.53
578.19	2130.07
578.54	2123.78
578.90	2117.75
579.25	2110.39
579.60	2102.95
579.95	2095.22
580.30	2088.46
580.66	2082.40
581.01	2075.33
581.36	2067.90
581.71	2060.89
582.06	2053.90
582.42	2047.22
582.77	2039.52
583.12	2032.51
583.47	2025.61
583.82	2019.19
584.17	2012.10
584.53	2005.32
584.88	1997.96
585.23	1991.00
585.58	1983.54
585.93	1975.88
586.28	1968.57
586.63	1961.44
586.98	1954.60
587.34	1948.24
587.69	1941.07
588.04	1933.53
588.39	1926.58
588.74	1919.11
589.09	1912.57
589.44	1905.24
589.79	1898.60
590.14	1891.95
590.49	1884.97
590.84	1877.65
591.19	1871.31
591.54	1864.71
591.89	1856.57
592.25	1849.29
592.60	1841.97
592.95	1834.42
593.30	1826.39
593.65	1818.53
594.00	1811.03
594.35	1805.01
594.70	1797.62
595.05	1790.58
595.40	1783.70
595.75	1776.08
596.10	1770.01
596.45	1763.27
596.80	1757.12
597.15	1750.35
597.50	1743.42
597.85	1737.04
598.19	1730.06
598.54	1722.83
598.89	1716.20
599.24	1710.75
599.59	1704.48
599.94	1698.70
600.29	1692.76
600.64	1687.00
600.99	1680.54
601.34	1674.45
601.69	1666.95
602.04	1660.19
602.39	1653.75
602.74	1647.20
603.08	1641.78
603.43	1636.05
603.78	1629.70
604.13	1623.24
604.48	1617.07
604.83	1611.80
605.18	1606.52
605.53	1600.63
605.87	1594.26
606.22	1588.28
606.57	1581.92
606.92	1575.70
607.27	1569.00
607.62	1562.42
607.96	1556.71
608.31	1551.29
608.66	1544.62
609.01	1538.07
609.36	1531.62
609.70	1524.79
610.05	1518.06
610.40	1510.92
610.75	1503.65
611.10	1497.11
611.44	1489.44
611.79	1481.78
612.14	1473.74
612.49	1465.47
612.83	1458.26
613.18	1450.48
613.53	1442.91
613.88	1434.82
614.22	1427.45
614.57	1419.84
614.92	1412.39
615.27	1404.52
615.61	1396.58
615.96	1389.45
616.31	1382.54
616.65	1376.10
617.00	1369.27
617.35	1362.20
617.70	1354.85
618.04	1347.14
618.39	1339.08
618.74	1332.14
619.08	1325.01
619.43	1317.98
619.78	1311.32
620.12	1304.02
620.47	1297.11
620.82	1289.39
621.16	1281.75
621.51	1274.24
621.85	1267.38
622.20	1259.92
622.55	1252.52
622.89	1245.19
623.24	1238.04
623.59	1230.65
623.93	1223.06
624.28	1215.92
624.62	1209.20
624.97	1202.55
625.32	1195.76
625.66	1189.47
626.01	1183.02
626.35	1176.56
626.70	1169.85
627.04	1163.33
627.39	1156.91
627.73	1150.45
628.08	1144.60
628.43	1138.26
628.77	1131.75
629.12	1124.86
629.46	1119.21
629.81	1113.07
630.15	1106.85
630.50	1100.30
630.84	1093.79
631.19	1087.42
631.53	1081.22
631.88	1074.32
632.22	1067.55
632.57	1061.61
632.91	1055.12
633.26	1048.59
633.60	1042.26
633.95	1036.31
634.29	1029.81
634.64	1023.90
634.98	1017.47
635.32	1011.29
635.67	1005.88
636.01	1000.40
636.36	994.51
636.70	988.57
637.05	982.71
637.39	977.03
637.73	971.70
638.08	966.65
638.42	961.30
638.77	955.74
639.11	950.39
639.45	944.80
639.80	938.87
640.14	933.15
640.49	927.55
640.83	922.06
641.17	916.61
641.52	910.82
641.86	904.74
642.20	899.34
642.55	893.45
642.89	887.46
643.23	881.39
643.58	876.12
643.92	870.18
644.26	864.62
644.61	859.13
644.95	853.39
645.29	847.58
645.64	841.84
645.98	836.30
646.32	830.98
646.66	825.58
647.01	820.46
647.35	815.24
647.69	809.60
648.04	804.39
648.38	798.96
648.72	793.82
649.06	788.75
649.41	783.61
649.75	778.42
650.09	773.50
650.43	768.51
650.78	762.89
651.12	757.59
651.46	752.42
651.80	747.24
652.14	742.18
652.49	737.12
652.83	732.04
653.17	726.66
653.51	721.36
653.85	716.48
654.20	711.25
654.54	706.20
654.88	701.47
655.22	696.33
655.56	691.20
655.90	686.23
656.25	681.28
656.59	676.39
656.93	671.85
657.27	666.99
657.61	662.02
657.95	657.71
658.29	653.27
658.64	648.86
658.98	644.16
659.32	639.47
659.66	634.92
660.00	630.38
660.34	625.75
660.68	621.21
661.02	616.62
661.36	612.47
661.70	608.35
662.05	604.30
662.39	600.45
662.73	596.53
663.07	592.71
663.41	588.75
663.75	584.72
664.09	580.40
664.43	576.33
664.77	572.53
665.11	568.66
665.45	564.84
665.79	561.07
666.13	557.50
666.47	553.80
666.81	550.17
667.15	546.60
667.49	543.43
667.83	540.09
668.17	536.70
668.51	533.28
668.85	529.91
669.19	526.61
669.53	523.19
669.87	519.88
670.21	516.56
670.55	513.37
670.89	510.47
671.23	507.81
671.57	504.83
671.91	501.90
672.25	498.92
672.58	495.88
672.92	492.92
673.26	490.10
673.60	487.40
673.94	484.51
674.28	481.69
674.62	478.96
674.96	476.25
675.30	473.66
675.64	470.93
675.97	468.16
676.31	465.56
676.65	462.87
676.99	460.44
677.33	457.80
677.67	455.21
678.01	452.38
678.34	449.80
678.68	447.37
679.02	444.70
679.36	442.17
679.70	439.79
680.04	437.40
680.37	434.87
680.71	432.36
681.05	430.11
681.39	427.76
681.73	425.39
682.06	423.12
682.40	421.06
682.74	418.78
683.08	416.75
683.42	414.36
683.75	412.15
684.09	409.89
684.43	407.65
684.77	405.33
685.10	403.24
685.44	400.87
685.78	398.57
686.12	396.72
686.45	394.70
686.79	392.66
687.13	390.68
687.46	388.75
687.80	386.99
688.14	384.96
688.48	383.13
688.81	381.09
689.15	379.13
689.49	376.97
689.82	375.05
690.16	372.77
690.50	370.81
690.83	368.85
691.17	366.76
691.51	364.93
691.84	363.21
692.18	361.44
692.52	359.89
692.85	358.36
693.19	356.64
693.52	354.88
693.86	353.08
694.20	351.31
694.53	349.65
694.87	347.77
695.21	345.95
695.54	344.22
695.88	342.50
696.21	340.87
696.55	339.34
696.88	337.80
697.22	336.35
697.56	334.90
697.89	333.34
698.23	331.97
698.56	330.58
698.90	329.28
699.23	327.86
699.57	326.43
699.90	324.93
700.24	323.38
700.58	322.08
700.91	320.75
701.25	319.63
701.58	318.38
701.92	317.09
702.25	315.96
702.59	314.65
702.92	313.52
703.26	312.26
703.59	311.03
703.93	310.18
704.26	309.01
704.60	307.90
704.93	306.92
705.26	305.77
705.60	304.70
705.93	303.42
706.27	302.40
706.60	301.35
706.94	300.45
707.27	299.37
707.61	298.31
707.94	297.27
708.27	295.97
708.61	294.83
708.94	293.94
709.28	292.90
709.61	291.84
709.94	290.92
710.28	290.02
710.61	289.12
710.95	287.78
711.28	287.09
711.61	286.17
711.95	285.27
712.28	284.34
712.61	283.45
712.95	282.85
713.28	282.10
713.61	281.16
713.95	280.25
714.28	279.53
714.61	278.74
714.95	278.07
715.28	277.26
715.61	276.48
715.95	275.61
716.28	274.89
716.61	274.22
716.95	273.44
717.28	272.70
717.61	271.93
717.94	271.29
718.28	270.44
718.61	269.73
718.94	268.97
719.27	268.36
719.61	267.58
719.94	266.82
720.27	266.02
720.60	265.40
720.94	264.73
721.27	264.13
721.60	263.48
721.93	262.80
722.27	262.36
722.60	261.80
722.93	261.20
723.26	260.70
723.59	260.13
723.93	259.60
724.26	259.02
724.59	258.51
724.92	258.03
725.25	257.59
725.59	257.03
725.92	256.60
726.25	256.11
726.58	255.72
726.91	255.14
727.24	254.70
727.57	254.21
727.91	253.78
728.24	253.38
728.57	252.86
728.90	252.47
729.23	251.93
729.56	251.72
729.89	251.32
730.22	250.77
730.55	250.36
730.89	249.94
731.22	249.52
731.55	249.08
731.88	248.60
732.21	248.13
732.54	247.74
732.87	247.28
733.20	246.87
733.53	246.47
733.86	246.14
734.19	245.74
734.52	245.37
734.85	245.24
735.18	244.80
735.51	244.60
735.84	244.22
736.17	243.88
736.50	243.33
736.83	243.46
737.16	243.11
737.49	242.81
737.82	242.48
738.15	242.20
738.48	241.89
738.81	241.59
739.14	241.18
739.47	240.79
739.80	240.50
740.13	240.15
740.46	239.73
740.79	239.34
741.12	239.05
741.45	238.74
741.78	238.23
742.11	238.01
742.44	237.69
742.77	237.43
743.10	237.15
743.43	236.85
743.75	236.16
744.08	236.43
744.41	236.04
744.74	235.68
745.07	235.36
745.40	235.17
745.73	235.09
746.06	234.90
746.39	234.75
746.71	234.50
747.04	234.20
747.37	234.01
747.70	233.85
748.03	233.59
748.36	233.40
748.68	233.19
749.01	232.90
749.34	232.63
749.67	232.42
750.00	232.25
750.33	232.28
750.65	232.05
750.98	231.36
751.31	231.19
751.64	231.01
751.97	230.97
752.29	230.65
752.62	230.22
752.95	229.96
753.28	229.70
753.60	229.43
753.93	229.38
754.26	229.19
754.59	228.92
754.91	228.59
755.24	228.37
755.57	228.00
755.90	227.79
756.22	227.53
756.55	227.28
756.88	226.98
757.20	226.43
757.53	226.14
757.86	225.88
758.19	225.69
758.51	225.56
758.84	225.19
759.17	225.05
759.49	224.92
759.82	224.94
760.15	224.81
760.47	224.70
760.80	224.40
761.13	224.33
761.45	224.12
761.78	224.03
762.11	223.86
762.43	223.79
762.76	223.60
763.08	223.52
763.41	223.39
763.74	223.32
764.06	223.25
764.39	223.10
764.71	223.03
765.04	222.90
765.37	222.74
765.69	222.66
766.02	222.50
766.34	222.42
766.67	222.13
767.00	222.10
767.32	222.20
767.65	222.36
767.97	222.23
768.30	222.20
768.62	222.18
768.95	222.05
769.27	222.00
769.60	221.98
769.92	221.80
770.25	221.72
770.57	221.54
770.90	221.40
771.22	221.31
771.55	221.18
771.87	221.10
772.20	220.99
772.52	221.20
772.85	221.55
773.17	221.39
773.50	221.23
773.82	221.09
774.15	220.76
774.47	220.39
774.80	220.21
775.12	220.12
775.45	219.98
775.77	219.95
776.09	219.82
776.42	219.72
776.74	219.77
777.07	219.60
777.39	219.55
777.72	219.52
778.04	219.49
778.36	219.44
778.69	219.33
779.01	219.17
779.33	218.72
779.66	218.18
779.98	218.10
780.31	218.10
780.63	218.10
780.95	218.14
781.28	218.06
781.60	217.98
781.92	217.91
782.25	217.91
782.57	217.80
782.89	217.69
783.22	217.55
783.54	217.35
783.86	217.33
784.19	217.21
784.51	217.30
784.83	217.09
785.16	217.00
785.48	217.00
785.80	217.02
786.12	217.04
786.45	217.00
786.77	216.97
787.09	216.95
787.42	216.75
787.74	216.70
788.06	216.70
788.38	216.60
788.71	216.50
789.03	216.40
789.35	216.38
789.67	216.28
789.99	216.27
790.32	216.26
790.64	216.25
790.96	216.54
791.28	216.30
791.61	216.34
791.93	216.32
792.25	216.20
792.57	216.44
792.89	216.24
793.21	216.23
793.54	216.13
793.86	216.06
794.18	216.07
794.50	215.95
794.82	215.92
795.14	215.98
795.47	215.91
795.79	215.89
796.11	215.81
796.43	215.83
796.75	215.83
797.07	215.76
797.39	215.72
797.71	215.40
798.04	215.37
798.36	215.33
798.68	215.25
799.00	215.23
799.32	214.98
799.64	215.04
799.96	215.04
800.28	215.05
800.60	214.97
800.92	214.95
801.24	214.94
801.56	214.88
801.89	214.80
802.21	214.80
802.53	214.70
802.85	214.78
803.17	214.83
803.49	214.75
803.81	214.70
804.13	214.66
804.45	214.61
804.77	214.62
805.09	214.62
805.41	214.57
805.73	214.55
806.05	214.43
806.37	214.42
806.69	214.30
807.01	214.25
807.33	214.30
807.65	214.15
807.97	214.27
808.28	214.27
808.60	214.23
808.92	214.22
809.24	214.43
809.56	214.29
809.88	214.24
810.20	214.18
810.52	214.22
810.84	214.12
811.16	214.08
811.48	214.08
811.80	214.17
812.12	214.10
812.43	214.16
812.75	214.19
813.07	214.17
813.39	214.25
813.71	214.25
814.03	214.19
814.35	214.16
814.67	213.95
814.98	213.85
815.30	213.81
815.62	213.74
815.94	213.52
816.26	213.52
816.58	213.39
816.89	213.48
817.21	213.40
817.53	213.43
817.85	213.35
818.17	213.25
818.48	213.08
818.80	213.21
819.12	213.10
819.44	213.08
819.76	212.99
820.07	212.93
820.39	212.82
820.71	212.82
821.03	212.83
821.34	212.75
821.66	212.85
821.98	212.89
822.30	212.83
822.61	212.99
822.93	212.89
823.25	212.86
823.57	212.79
823.88	212.80
824.20	212.75
824.52	212.91
824.83	212.92
825.15	212.86
825.47	212.84
825.79	212.87
826.10	212.81
826.42	212.72
826.74	212.79
827.05	212.81
827.37	212.75
827.69	212.69
828.00	212.72
828.32	212.67
828.64	212.58
828.95	212.77
829.27	212.63
829.58	212.76
829.90	212.86
830.22	212.91
830.53	212.81
830.85	212.80
831.17	212.61
831.48	212.67
831.80	212.71
832.11	212.69
832.43	212.58
832.75	212.50
833.06	212.80
833.38	212.65
833.69	212.59
834.01	212.65
834.32	212.67
834.64	212.65
834.96	212.63
835.27	212.69
835.59	212.58
835.90	212.54
836.22	212.48
836.53	212.40
836.85	212.29
837.16	212.66
837.48	212.67
837.79	212.83
838.11	212.77
838.42	212.75
838.74	212.71
839.05	212.73
839.37	212.77
839.68	212.56
840.00	212.51
840.31	212.59
840.63	212.55
840.94	212.52
841.26	212.53
841.57	212.49
841.88	212.51
842.20	212.43
842.51	212.34
842.83	212.35
843.14	212.70
843.46	212.76
843.77	212.59
844.08	212.50
844.40	212.35
844.71	212.32
845.03	212.30
845.34	212.35
845.65	212.39
845.97	212.39
846.28	212.34
846.60	212.39
846.91	212.32
847.22	212.29
847.54	212.40
847.85	212.36
848.16	212.38
848.48	212.30
848.79	212.50
849.10	212.62
849.42	212.57
849.73	212.23
850.04	212.13
850.36	211.98
850.67	212.05
850.98	212.08
851.30	212.11
851.61	212.11
851.92	212.07
852.23	212.12
852.55	212.10
852.86	212.15
853.17	212.20
853.49	212.31
853.80	212.39
854.11	212.39
854.42	212.43
854.74	212.38
855.05	212.43
855.36	212.21
855.67	212.14
855.99	212.08
856.30	212.50
856.61	212.54
856.92	212.54
857.23	212.56
857.55	212.49
857.86	212.45
858.17	212.51
858.48	212.45
858.79	212.35
859.11	212.45
859.42	212.37
859.73	212.34
860.04	212.36
860.35	212.25
860.66	212.14
860.98	212.10
861.29	212.18
861.60	212.14
861.91	212.24
862.22	212.22
862.53	212.21
862.84	211.73
863.16	211.81
863.47	211.77
863.78	211.77
864.09	211.84
864.40	211.90
864.71	211.85
865.02	211.89
865.33	211.97
865.64	211.84
865.95	211.87
866.27	212.07
866.58	211.97
866.89	211.98
867.20	211.97
867.51	211.90
867.82	211.83
868.13	211.91
868.44	211.81
868.75	211.90
869.06	212.00
869.37	212.00
869.68	211.88
869.99	212.00
870.30	212.01
870.61	212.09
870.92	212.06
871.23	212.11
871.54	212.14
871.85	212.16
872.16	212.21
872.47	212.20
872.78	212.01
873.09	212.13
873.40	212.18
873.71	212.15
874.02	212.23
874.33	212.26
874.64	212.22
874.95	212.31
875.26	212.22
875.56	212.23
875.87	212.30
876.18	212.35
876.49	212.66
876.80	212.61
877.11	212.50
877.42	212.52
877.73	212.50
878.04	212.46
878.35	212.46
878.66	212.46
878.96	212.47
879.27	212.50
879.58	212.40
879.89	212.34
880.20	212.46
880.51	212.44
880.82	212.41
881.12	212.39
881.43	212.35
881.74	212.27
882.05	212.20
882.36	212.20
882.67	212.18
882.97	211.80
883.28	211.76
883.59	211.72
883.90	211.70
884.21	211.80
884.51	211.78
884.82	211.71
885.13	211.77
885.44	211.74
885.74	211.74
886.05	211.72
886.36	211.77
886.67	211.61
886.98	211.77
887.28	211.74
887.59	211.74
887.90	211.76
888.20	211.78
888.51	211.81
888.82	211.78
889.13	211.83
889.43	212.06
889.74	212.05
890.05	212.10
890.35	212.10
890.66	212.01
890.97	212.02
891.28	212.00
891.58	211.94
891.89	211.95
892.20	211.91
892.50	211.90
892.81	211.84
893.12	211.90
893.42	211.74
893.73	211.83
894.04	211.81
894.34	211.79
894.65	211.79
894.95	211.78
895.26	211.81
895.57	211.95
895.87	211.62
896.18	211.71
896.48	211.71
896.79	211.66
897.10	211.68
897.40	211.67
897.71	211.74
898.01	211.72
898.32	211.78
898.63	211.71
898.93	211.79
899.24	211.81
899.54	211.80
899.85	211.80
900.15	211.82
900.46	211.81
900.76	211.85
901.07	211.79
901.38	211.83
901.68	211.93
901.99	211.72
902.29	211.83
902.60	211.85
902.90	211.83
903.21	211.82
903.51	211.74
903.82	211.82
904.12	211.80
904.43	211.85
904.73	211.84
905.03	211.90
905.34	212.16
905.64	212.13
905.95	212.09
906.25	212.06
906.56	211.98
906.86	211.97
907.17	211.95
907.47	212.00
907.77	211.95
908.08	211.81
908.38	211.90
908.69	211.81
908.99	211.85
909.30	211.89
909.60	211.94
909.90	212.04
910.21	211.91
910.51	211.88
910.81	211.87
911.12	211.88
911.42	211.87
911.73	211.50
912.03	211.48
912.33	211.53
912.64	211.52
912.94	211.47
913.24	211.44
913.55	211.42
913.85	211.38
914.15	211.40
914.46	211.36
914.76	211.28
915.06	211.35
915.37	211.34
915.67	211.29
915.97	211.27
916.27	211.14
916.58	211.14
916.88	211.13
917.18	211.10
917.49	211.28
917.79	211.23
918.09	211.29
918.39	211.45
918.70	211.44
919.00	211.48
919.30	211.67
919.60	211.63
919.91	211.51
920.21	211.56
920.51	211.52
920.81	211.54
921.12	211.54
921.42	211.47
921.72	211.37
922.02	211.39
922.32	211.45
922.63	211.45
922.93	211.62
923.23	211.56
923.53	211.51
923.83	211.30
924.13	211.35
924.44	211.41
924.74	211.38
925.04	211.50
925.34	211.52
925.64	211.31
925.94	211.34
926.24	211.51
926.55	211.43
926.85	211.48
927.15	211.43
927.45	211.49
927.75	211.48
928.05	211.57
928.35	211.49
928.65	211.52
928.95	211.53
929.26	211.39
929.56	211.46
929.86	211.57
930.16	211.53
930.46	211.46
930.76	211.39
931.06	211.22
931.36	211.05
931.66	211.10
931.96	211.18
932.26	211.21
932.56	211.16
932.86	211.24
933.16	211.16
933.46	211.25
933.76	211.18
934.06	211.28
934.36	211.36
934.66	211.40
934.96	211.31
935.26	211.38
935.56	211.43
935.86	211.42
936.16	211.33
936.46	211.32
936.76	211.35
937.06	211.32
937.36	211.44
937.66	211.50
937.96	211.40
938.26	211.35
938.56	211.29
938.86	211.28
939.16	211.38
939.46	211.50
939.76	211.46
940.06	211.49
940.35	211.42
940.65	211.19
940.95	211.26
941.25	211.24
941.55	211.15
941.85	211.10
942.15	211.03
942.45	211.17
942.75	211.15
943.04	211.12
943.34	211.20
943.64	211.11
943.94	211.09
944.24	211.15
944.54	211.23
944.84	211.23
945.13	211.20
945.43	211.10
945.73	211.02
946.03	211.00
946.33	210.91
946.62	210.88
946.92	210.90
947.22	210.90
947.52	210.95
947.82	211.08
948.11	211.05
948.41	211.07
948.71	210.92
949.01	210.85
949.31	210.88
949.60	210.79
949.90	210.83
950.20	210.77
950.50	210.75
950.79	210.64
951.09	210.74
951.39	210.73
951.69	210.67
951.98	210.78
952.28	210.84
952.58	210.84
952.87	210.83
953.17	210.86
953.47	210.82
953.76	210.78
954.06	210.67
954.36	210.63
954.66	210.69
954.95	210.81
955.25	210.95
955.55	211.03
955.84	211.04
956.14	211.07
956.44	211.10
956.73	211.04
957.03	211.10
957.32	211.04
957.62	211.08
957.92	211.21
958.21	211.12
958.51	211.41
958.81	211.51
959.10	211.46
959.40	211.55
959.69	211.59
959.99	211.59
960.29	211.62
960.58	211.64
960.88	211.71
961.17	211.64
961.47	211.63
961.76	211.49
962.06	211.56
962.36	211.54
962.65	211.55
962.95	211.55
963.24	211.59
963.54	211.63
963.83	211.57
964.13	211.52
964.42	211.48
964.72	211.23
965.01	211.19
965.31	211.26
965.60	211.15
965.90	211.36
966.19	211.33
966.49	211.35
966.78	211.34
967.08	211.32
967.37	211.41
967.67	211.37
967.96	211.54
968.26	211.59
968.55	211.61
968.85	211.65
969.14	211.70
969.43	211.59
969.73	211.55
970.02	211.56
970.32	211.55
970.61	211.49
970.91	211.41
971.20	211.39
971.49	211.37
971.79	211.50
972.08	211.25
972.38	211.27
972.67	211.23
972.96	211.29
973.26	211.15
973.55	211.19
973.85	211.22
974.14	211.15
974.43	211.09
974.73	211.05
975.02	210.99
975.31	211.00
975.61	211.04
975.90	211.05
976.19	211.06
976.49	211.08
976.78	211.15
977.07	211.11
977.37	211.12
977.66	211.18
977.95	211.08
978.24	211.09
978.54	211.13
978.83	211.16
979.12	211.15
979.42	211.23
979.71	211.18
980.00	211.11
980.29	211.16
980.59	211.08
980.88	211.17
981.17	211.15
981.46	211.14
981.76	211.14
982.05	211.20
982.34	211.20
982.63	211.26
982.93	211.25
983.22	211.40
983.51	211.44
983.80	211.45
984.09	211.50
984.39	211.46
984.68	211.45
984.97	211.36
985.26	211.30
985.55	211.33
985.85	211.24
986.14	211.26
986.43	211.23
986.72	211.29
987.01	211.21
987.30	211.23
987.59	211.21
987.89	211.20
988.18	211.11
988.47	211.16
988.76	211.06
989.05	210.96
989.34	210.88
989.63	211.02
989.92	210.97
990.22	210.91
990.51	210.93
990.80	210.96
991.09	211.03
991.38	211.12
991.67	211.09
991.96	211.07
992.25	211.09
992.54	211.02
992.83	211.01
993.12	211.00
993.41	211.12
993.70	211.24
993.99	211.35
994.28	211.39
994.58	211.41
994.87	211.40
995.16	211.41
995.45	211.36
995.74	211.18
996.03	211.23
996.32	211.29
996.61	211.40
996.90	211.31
997.19	211.31
997.48	211.27
997.77	211.21
998.06	211.25
998.34	211.22
998.63	211.21
998.92	211.16
999.21	211.17
999.50	211.09
999.79	210.94
1000.08	210.90
1000.37	210.94
1000.66	210.85
1000.95	210.92
1001.24	211.02
1001.53	211.06
1001.82	211.01
1002.11	210.97
1002.40	211.02
1002.68	211.04
1002.97	211.35
1003.26	211.34
1003.55	211.29
1003.84	211.32
1004.13	211.40
1004.42	211.41
1004.71	211.40
1004.99	211.45
1005.28	211.54
1005.57	211.56
1005.86	211.59
1006.15	211.47
1006.44	211.37
1006.72	211.39
1007.01	211.32
1007.30	211.31
1007.59	211.22
1007.88	211.23
1008.17	211.24
1008.45	211.13
1008.74	210.93
1009.03	210.76
1009.32	210.70
1009.60	210.68
1009.89	210.64
1010.18	210.55
1010.47	210.50
1010.76	210.56
1011.04	210.54
1011.33	210.54
1011.62	210.55
1011.91	210.58
1012.19	210.60
1012.48	210.62
1012.77	210.64
1013.05	210.81
1013.34	210.83
1013.63	210.83
1013.92	210.90
1014.20	210.81
1014.49	210.91
1014.78	211.09
1015.06	210.93
1015.35	210.99
1015.64	211.03
1015.92	211.14
1016.21	211.19
1016.50	211.21
1016.78	211.18
1017.07	211.18
1017.36	211.07
1017.64	211.05
1017.93	211.08
1018.22	211.08
1018.50	211.09
1018.79	211.08
1019.08	210.92
1019.36	210.88
1019.65	210.89
1019.93	210.97
1020.22	211.04
1020.51	211.20
1020.79	211.10
1021.08	210.20
1021.36	210.05
1021.65	211.20
1021.94	210.25
1022.22	210.40
1022.51	210.45
1022.79	212.80
1023.08	211.30
1023.36	215.50
1023.65	210.30
>>>>>End Processed Spectral Data<<<<<
