SpectraSuite Data File
++++++++++++++++++++++++++++++++++++
Date: Mon Feb 25 17:03:02 EST 2013
User: group
Dark Spectrum Present: No
Reference Spectrum Present: No
Number of Sampled Component Spectra: 1
Spectrometers: USB2E7196
Integration Time (usec): 104000 (USB2E7196)
Spectra Averaged: 20 (USB2E7196)
Boxcar Smoothing: 10 (USB2E7196)
Correct for Electrical Dark: No (USB2E7196)
Strobe/Lamp Enabled: No (USB2E7196)
Correct for Detector Non-linearity: No (USB2E7196)
Correct for Stray Light: No (USB2E7196)
Number of Pixels in Processed Spectrum: 2048
>>>>>Begin Processed Spectral Data<<<<<
339.09	0.00
339.48	199.10
339.86	201.00
340.24	202.50
340.63	203.50
341.01	208.55
341.39	206.60
341.78	208.35
342.16	210.55
342.54	209.45
342.93	198.78
343.31	208.71
343.69	209.24
344.07	209.65
344.46	210.02
344.84	210.37
345.22	210.40
345.60	210.59
345.99	210.67
346.37	210.64
346.75	210.68
347.13	210.67
347.52	210.65
347.90	210.80
348.28	210.72
348.66	210.77
349.05	210.55
349.43	210.51
349.81	210.52
350.19	210.45
350.57	210.43
350.96	210.45
351.34	210.51
351.72	210.53
352.10	210.60
352.48	210.65
352.87	210.66
353.25	210.71
353.63	210.69
354.01	210.72
354.39	210.83
354.77	210.91
355.15	211.07
355.54	210.99
355.92	210.97
356.30	211.03
356.68	211.34
357.06	211.45
357.44	211.46
357.82	211.52
358.20	211.65
358.58	211.73
358.97	211.84
359.35	212.08
359.73	212.20
360.11	212.24
360.49	212.30
360.87	212.38
361.25	212.48
361.63	212.67
362.01	212.78
362.39	212.77
362.77	212.83
363.15	212.87
363.53	212.99
363.91	213.02
364.29	213.15
364.67	212.86
365.05	212.90
365.43	212.99
365.81	212.99
366.19	213.14
366.57	213.30
366.95	213.28
367.33	213.09
367.71	213.16
368.09	213.23
368.47	213.21
368.85	213.21
369.23	213.27
369.61	213.14
369.99	213.20
370.37	213.34
370.75	213.43
371.13	213.30
371.51	213.17
371.89	213.15
372.27	213.02
372.65	212.94
373.03	212.91
373.41	212.79
373.78	212.79
374.16	212.60
374.54	212.49
374.92	212.43
375.30	212.45
375.68	212.23
376.06	212.18
376.44	212.06
376.82	212.04
377.19	212.04
377.57	212.01
377.95	211.86
378.33	211.77
378.71	211.49
379.09	211.55
379.47	211.55
379.84	211.49
380.22	211.49
380.60	211.45
380.98	211.40
381.36	211.34
381.73	211.21
382.11	211.22
382.49	211.19
382.87	211.04
383.25	210.95
383.62	211.35
384.00	211.24
384.38	211.30
384.76	211.33
385.13	211.36
385.51	211.34
385.89	211.27
386.27	211.15
386.64	211.17
387.02	211.10
387.40	211.09
387.78	211.03
388.15	211.00
388.53	210.91
388.91	210.88
389.29	210.88
389.66	210.85
390.04	210.77
390.42	210.74
390.79	210.73
391.17	210.75
391.55	210.30
391.92	210.27
392.30	210.30
392.68	210.18
393.05	210.17
393.43	210.13
393.81	210.14
394.18	210.14
394.56	210.11
394.94	210.16
395.31	210.16
395.69	210.30
396.06	210.28
396.44	210.33
396.82	210.33
397.19	210.52
397.57	210.54
397.95	210.56
398.32	210.53
398.70	210.65
399.07	210.73
399.45	210.80
399.82	210.87
400.20	210.83
400.58	210.91
400.95	210.70
401.33	210.77
401.70	211.08
402.08	211.10
402.45	211.20
402.83	211.40
403.20	211.46
403.58	211.47
403.95	211.67
404.33	211.83
404.71	211.96
405.08	212.26
405.46	212.40
405.83	212.60
406.21	212.73
406.58	212.90
406.96	213.05
407.33	213.25
407.70	213.52
408.08	213.95
408.45	214.19
408.83	214.62
409.20	214.90
409.58	214.95
409.95	215.38
410.33	215.71
410.70	215.89
411.08	216.34
411.45	216.70
411.82	217.10
412.20	217.60
412.57	218.28
412.95	218.52
413.32	219.15
413.69	219.63
414.07	220.30
414.44	221.04
414.82	221.86
415.19	222.78
415.56	223.66
415.94	224.44
416.31	225.50
416.68	226.46
417.06	227.68
417.43	228.85
417.81	230.11
418.18	231.50
418.55	232.96
418.93	234.51
419.30	236.09
419.67	237.67
420.04	239.40
420.42	241.12
420.79	243.42
421.16	245.54
421.54	247.94
421.91	250.20
422.28	252.47
422.66	254.90
423.03	257.49
423.40	259.99
423.77	262.78
424.15	265.53
424.52	268.47
424.89	271.64
425.26	274.75
425.64	277.72
426.01	280.92
426.38	284.32
426.75	287.81
427.13	291.45
427.50	295.39
427.87	299.20
428.24	303.14
428.61	306.79
428.99	310.95
429.36	315.29
429.73	319.72
430.10	324.27
430.47	328.90
430.85	333.49
431.22	338.50
431.59	343.87
431.96	348.89
432.33	354.55
432.70	360.06
433.08	366.37
433.45	372.42
433.82	378.52
434.19	385.32
434.56	391.92
434.93	398.33
435.30	404.61
435.68	411.81
436.05	418.71
436.42	425.63
436.79	432.13
437.16	439.05
437.53	446.36
437.90	453.51
438.27	460.87
438.64	468.37
439.01	475.42
439.38	481.58
439.75	487.80
440.13	494.78
440.50	501.32
440.87	506.84
441.24	512.58
441.61	518.94
441.98	523.55
442.35	528.93
442.72	534.54
443.09	540.08
443.46	543.45
443.83	546.00
444.20	548.24
444.57	551.26
444.94	553.10
445.31	554.88
445.68	556.92
446.05	557.74
446.42	557.51
446.79	557.13
447.16	556.67
447.53	556.48
447.90	554.30
448.27	552.05
448.64	548.82
449.01	546.58
449.37	542.21
449.74	538.07
450.11	533.23
450.48	527.40
450.85	521.35
451.22	516.45
451.59	511.87
451.96	507.40
452.33	501.15
452.70	495.56
453.07	488.76
453.43	481.68
453.80	475.11
454.17	468.82
454.54	462.83
454.91	456.41
455.28	450.12
455.65	444.19
456.02	438.71
456.38	433.70
456.75	427.29
457.12	421.95
457.49	416.78
457.86	411.47
458.23	407.24
458.59	402.57
458.96	397.83
459.33	393.37
459.70	389.15
460.07	385.80
460.43	381.86
460.80	378.39
461.17	375.16
461.54	371.93
461.91	368.66
462.27	365.38
462.64	362.67
463.01	359.52
463.38	356.61
463.74	353.28
464.11	350.56
464.48	348.40
464.85	345.91
465.21	344.02
465.58	342.09
465.95	339.63
466.32	337.53
466.68	335.41
467.05	333.45
467.42	331.29
467.78	329.09
468.15	327.10
468.52	325.59
468.88	323.55
469.25	321.66
469.62	320.29
469.98	318.77
470.35	317.26
470.72	315.92
471.08	314.30
471.45	313.00
471.82	311.82
472.18	310.36
472.55	309.38
472.92	308.04
473.28	306.91
473.65	305.82
474.02	304.77
474.38	303.92
474.75	303.18
475.11	302.35
475.48	301.73
475.85	301.11
476.21	300.40
476.58	299.89
476.94	299.45
477.31	298.85
477.67	298.31
478.04	297.87
478.41	297.65
478.77	297.78
479.14	297.38
479.50	297.13
479.87	296.98
480.23	296.78
480.60	296.61
480.96	296.49
481.33	296.64
481.69	296.74
482.06	296.82
482.42	296.78
482.79	296.94
483.15	297.09
483.52	297.37
483.88	297.48
484.25	297.63
484.61	297.89
484.98	298.14
485.34	298.65
485.71	299.09
486.07	299.45
486.44	299.60
486.80	300.24
487.17	300.82
487.53	301.56
487.90	302.30
488.26	303.15
488.62	303.95
488.99	304.56
489.35	305.29
489.72	306.09
490.08	307.00
490.44	307.87
490.81	308.85
491.17	309.72
491.54	310.83
491.90	312.00
492.26	313.07
492.63	314.31
492.99	315.42
493.36	316.61
493.72	317.96
494.08	319.29
494.45	320.69
494.81	322.19
495.17	323.60
495.54	324.99
495.90	326.32
496.26	327.73
496.63	329.30
496.99	330.84
497.35	332.46
497.72	334.16
498.08	335.77
498.44	337.37
498.80	339.17
499.17	340.82
499.53	342.40
499.89	344.14
500.26	345.73
500.62	347.24
500.98	349.05
501.34	350.57
501.71	352.16
502.07	353.58
502.43	355.00
502.79	356.41
503.16	357.87
503.52	359.42
503.88	360.86
504.24	362.20
504.60	363.59
504.97	364.85
505.33	366.05
505.69	367.46
506.05	368.65
506.41	369.70
506.78	370.76
507.14	371.78
507.50	372.84
507.86	373.87
508.22	374.94
508.59	375.73
508.95	376.48
509.31	377.47
509.67	378.21
510.03	378.89
510.39	379.57
510.75	380.24
511.12	380.75
511.48	381.23
511.84	381.70
512.20	382.10
512.56	382.59
512.92	382.95
513.28	383.09
513.64	383.36
514.00	383.59
514.37	383.81
514.73	384.04
515.09	384.16
515.45	384.29
515.81	384.38
516.17	384.38
516.53	384.48
516.89	384.10
517.25	384.01
517.61	383.97
517.97	383.78
518.33	383.65
518.69	383.61
519.05	383.43
519.41	383.38
519.77	383.47
520.13	383.23
520.49	383.00
520.85	382.79
521.21	382.75
521.57	382.55
521.93	382.34
522.29	382.29
522.65	382.10
523.01	381.97
523.37	381.75
523.73	381.68
524.09	381.64
524.45	381.80
524.81	381.92
525.17	382.08
525.53	382.30
525.89	382.50
526.25	382.72
526.61	383.00
526.97	383.22
527.33	383.45
527.68	384.16
528.04	384.71
528.40	385.26
528.76	385.82
529.12	386.51
529.48	387.33
529.84	388.06
530.20	388.94
530.56	389.70
530.91	390.69
531.27	391.63
531.63	392.61
531.99	393.65
532.35	394.80
532.71	395.73
533.07	397.01
533.42	398.63
533.78	399.84
534.14	401.21
534.50	402.56
534.86	404.14
535.21	405.33
535.57	406.99
535.93	408.55
536.29	410.29
536.65	411.97
537.00	413.47
537.36	415.13
537.72	416.82
538.08	418.80
538.44	420.54
538.79	422.47
539.15	424.47
539.51	426.55
539.87	428.61
540.22	430.96
540.58	433.22
540.94	435.08
541.29	437.41
541.65	439.61
542.01	442.05
542.37	444.31
542.72	446.60
543.08	448.90
543.44	451.45
543.79	453.61
544.15	456.15
544.51	458.98
544.87	461.75
545.22	464.53
545.58	467.14
545.94	469.90
546.29	472.63
546.65	475.29
547.01	477.75
547.36	480.55
547.72	483.18
548.07	486.01
548.43	488.76
548.79	491.41
549.14	494.18
549.50	496.83
549.86	499.41
550.21	502.20
550.57	505.00
550.92	507.55
551.28	510.41
551.64	513.07
551.99	515.71
552.35	518.21
552.70	520.64
553.06	523.17
553.41	525.65
553.77	528.44
554.13	531.03
554.48	533.98
554.84	536.54
555.19	539.13
555.55	541.65
555.90	544.12
556.26	546.48
556.61	548.76
556.97	551.29
557.32	553.82
557.68	556.29
558.03	558.58
558.39	561.02
558.74	563.44
559.10	565.87
559.45	568.30
559.81	570.63
560.16	573.04
560.52	575.40
560.87	577.93
561.23	580.07
561.58	582.62
561.94	584.62
562.29	586.65
562.64	588.74
563.00	590.65
563.35	592.74
563.71	595.05
564.06	597.43
564.42	599.57
564.77	601.80
565.12	604.00
565.48	606.47
565.83	608.59
566.19	610.52
566.54	612.35
566.89	614.08
567.25	616.29
567.60	618.23
567.96	620.45
568.31	622.27
568.66	623.96
569.02	625.24
569.37	626.75
569.72	628.23
570.08	629.78
570.43	631.15
570.78	632.50
571.14	633.84
571.49	634.82
571.84	635.87
572.20	636.74
572.55	637.71
572.90	638.18
573.26	638.94
573.61	639.64
573.96	640.38
574.31	640.90
574.67	641.10
575.02	641.43
575.37	641.53
575.72	641.49
576.08	641.80
576.43	642.09
576.78	642.43
577.13	642.84
577.49	643.08
577.84	643.28
578.19	643.47
578.54	643.71
578.90	644.40
579.25	644.54
579.60	644.63
579.95	644.64
580.30	644.66
580.66	644.91
581.01	644.88
581.36	644.83
581.71	644.92
582.06	645.16
582.42	645.22
582.77	645.02
583.12	645.17
583.47	645.20
583.82	645.19
584.17	645.17
584.53	645.18
584.88	645.05
585.23	645.11
585.58	645.07
585.93	644.79
586.28	644.38
586.63	644.23
586.98	644.14
587.34	644.13
587.69	643.82
588.04	643.52
588.39	643.39
588.74	642.95
589.09	642.80
589.44	642.14
589.79	641.88
590.14	641.57
590.49	641.10
590.84	640.58
591.19	640.22
591.54	639.68
591.89	638.89
592.25	638.49
592.60	637.62
592.95	636.71
593.30	635.80
593.65	634.75
594.00	633.90
594.35	634.00
594.70	632.82
595.05	632.30
595.40	631.35
595.75	630.23
596.10	629.43
596.45	628.47
596.80	627.92
597.15	627.00
597.50	625.96
597.85	625.35
598.19	624.25
598.54	623.32
598.89	622.44
599.24	621.78
599.59	620.63
599.94	619.88
600.29	619.22
600.64	618.39
600.99	617.66
601.34	616.77
601.69	614.84
602.04	613.70
602.39	612.44
602.74	611.52
603.08	610.98
603.43	610.40
603.78	609.55
604.13	608.47
604.48	607.49
604.83	606.90
605.18	605.94
605.53	605.20
605.87	604.18
606.22	603.33
606.57	602.34
606.92	601.34
607.27	600.12
607.62	598.85
607.96	597.96
608.31	596.87
608.66	595.84
609.01	594.66
609.36	593.82
609.70	592.76
610.05	591.43
610.40	590.05
610.75	588.53
611.10	587.25
611.44	585.74
611.79	584.39
612.14	582.76
612.49	581.10
612.83	579.65
613.18	578.19
613.53	576.61
613.88	574.98
614.22	573.47
614.57	572.00
614.92	570.52
615.27	568.92
615.61	567.36
615.96	565.81
616.31	564.40
616.65	563.05
617.00	561.62
617.35	560.17
617.70	558.50
618.04	556.83
618.39	555.02
618.74	553.51
619.08	551.75
619.43	550.23
619.78	548.76
620.12	547.16
620.47	545.49
620.82	543.78
621.16	542.00
621.51	540.61
621.85	539.05
622.20	537.43
622.55	535.53
622.89	533.84
623.24	532.09
623.59	530.26
623.93	528.42
624.28	526.83
624.62	525.50
624.97	523.99
625.32	522.28
625.66	520.70
626.01	519.15
626.35	517.60
626.70	515.95
627.04	514.59
627.39	512.95
627.73	511.54
628.08	510.02
628.43	508.42
628.77	506.58
629.12	504.94
629.46	503.46
629.81	501.93
630.15	500.30
630.50	498.70
630.84	497.15
631.19	495.60
631.53	493.83
631.88	491.73
632.22	489.92
632.57	488.62
632.91	486.98
633.26	485.30
633.60	483.66
633.95	482.15
634.29	480.18
634.64	478.60
634.98	476.81
635.32	475.27
635.67	473.94
636.01	472.45
636.36	470.76
636.70	469.16
637.05	467.78
637.39	466.33
637.73	464.99
638.08	463.72
638.42	462.20
638.77	460.80
639.11	459.43
639.45	458.00
639.80	456.20
640.14	454.67
640.49	453.10
640.83	451.47
641.17	449.93
641.52	448.32
641.86	446.70
642.20	445.40
642.55	443.68
642.89	442.00
643.23	440.35
643.58	439.05
643.92	437.34
644.26	435.75
644.61	434.23
644.95	432.58
645.29	430.86
645.64	429.37
645.98	427.73
646.32	426.24
646.66	424.54
647.01	423.13
647.35	421.72
647.69	420.18
648.04	418.75
648.38	417.14
648.72	415.69
649.06	414.08
649.41	412.30
649.75	410.82
650.09	409.24
650.43	407.69
650.78	406.00
651.12	404.55
651.46	403.08
651.80	401.56
652.14	400.02
652.49	398.50
652.83	396.88
653.17	395.37
653.51	393.73
653.85	392.47
654.20	391.01
654.54	389.40
654.88	387.87
655.22	386.47
655.56	384.99
655.90	383.45
656.25	382.04
656.59	380.58
656.93	379.21
657.27	377.89
657.61	376.41
657.95	375.08
658.29	373.74
658.64	372.42
658.98	371.00
659.32	369.46
659.66	368.11
660.00	366.72
660.34	365.21
660.68	363.85
661.02	362.33
661.36	360.91
661.70	359.56
662.05	358.33
662.39	357.07
662.73	355.87
663.07	354.90
663.41	353.67
663.75	352.45
664.09	351.19
664.43	349.89
664.77	348.73
665.11	347.40
665.45	346.11
665.79	344.89
666.13	343.56
666.47	342.39
666.81	341.11
667.15	339.81
667.49	338.86
667.83	337.82
668.17	336.65
668.51	335.49
668.85	334.57
669.19	333.62
669.53	332.36
669.87	331.18
670.21	330.00
670.55	328.96
670.89	328.02
671.23	326.97
671.57	325.95
671.91	324.93
672.25	324.00
672.58	323.10
672.92	322.02
673.26	321.27
673.60	320.37
673.94	319.38
674.28	318.53
674.62	317.50
674.96	316.57
675.30	315.78
675.64	314.98
675.97	313.95
676.31	312.97
676.65	312.03
676.99	311.24
677.33	310.26
677.67	309.26
678.01	308.25
678.34	307.36
678.68	306.52
679.02	305.67
679.36	304.77
679.70	303.95
680.04	303.12
680.37	302.18
680.71	301.22
681.05	300.48
681.39	299.78
681.73	299.00
682.06	298.14
682.40	297.43
682.74	296.57
683.08	295.81
683.42	294.92
683.75	294.30
684.09	293.39
684.43	292.59
684.77	291.79
685.10	291.07
685.44	290.36
685.78	289.49
686.12	288.75
686.45	287.99
686.79	287.13
687.13	286.42
687.46	285.65
687.80	285.18
688.14	284.49
688.48	283.67
688.81	283.01
689.15	282.38
689.49	281.49
689.82	280.85
690.16	280.02
690.50	279.32
690.83	278.57
691.17	277.81
691.51	277.19
691.84	276.66
692.18	276.00
692.52	275.27
692.85	274.73
693.19	274.20
693.52	273.56
693.86	272.92
694.20	272.25
694.53	271.66
694.87	270.93
695.21	270.15
695.54	269.53
695.88	268.79
696.21	268.00
696.55	267.47
696.88	266.82
697.22	266.25
697.56	265.81
697.89	265.23
698.23	264.83
698.56	264.23
698.90	263.77
699.23	263.20
699.57	262.76
699.90	262.14
700.24	261.43
700.58	260.91
700.91	260.54
701.25	260.32
701.58	259.84
701.92	259.36
702.25	258.92
702.59	258.40
702.92	258.00
703.26	257.61
703.59	257.13
703.93	256.94
704.26	256.45
704.60	255.90
704.93	255.41
705.26	254.86
705.60	254.45
705.93	253.94
706.27	253.58
706.60	253.15
706.94	252.97
707.27	252.51
707.61	252.14
707.94	251.54
708.27	250.78
708.61	250.30
708.94	249.86
709.28	249.55
709.61	249.12
709.94	248.69
710.28	248.32
710.61	248.03
710.95	247.40
711.28	247.27
711.61	246.90
711.95	246.71
712.28	246.34
712.61	245.97
712.95	245.72
713.28	245.45
713.61	245.05
713.95	244.55
714.28	244.28
714.61	243.79
714.95	243.50
715.28	243.12
715.61	242.83
715.95	242.50
716.28	242.17
716.61	241.95
716.95	241.59
717.28	241.25
717.61	240.81
717.94	240.49
718.28	240.00
718.61	239.67
718.94	239.23
719.27	239.00
719.61	238.69
719.94	238.31
720.27	237.88
720.60	237.57
720.94	237.30
721.27	237.10
721.60	237.02
721.93	236.78
722.27	236.71
722.60	236.49
722.93	236.22
723.26	235.90
723.59	235.54
723.93	235.35
724.26	235.13
724.59	235.02
724.92	234.78
725.25	234.65
725.59	234.48
725.92	234.31
726.25	234.03
726.58	233.84
726.91	233.66
727.24	233.52
727.57	233.25
727.91	233.00
728.24	232.75
728.57	232.46
728.90	232.30
729.23	231.98
729.56	231.92
729.89	231.72
730.22	231.56
730.55	231.40
730.89	231.27
731.22	231.09
731.55	230.79
731.88	230.65
732.21	230.36
732.54	230.05
732.87	229.85
733.20	229.64
733.53	229.50
733.86	229.29
734.19	229.05
734.52	229.01
734.85	229.08
735.18	228.87
735.51	228.82
735.84	228.58
736.17	228.58
736.50	228.25
736.83	228.51
737.16	228.36
737.49	228.28
737.82	228.05
738.15	227.93
738.48	227.79
738.81	227.61
739.14	227.46
739.47	227.37
739.80	227.17
740.13	227.12
740.46	226.90
740.79	226.69
741.12	226.54
741.45	226.28
741.78	225.91
742.11	225.82
742.44	225.64
742.77	225.49
743.10	225.24
743.43	225.03
743.75	224.50
744.08	224.80
744.41	224.58
744.74	224.43
745.07	224.25
745.40	224.24
745.73	224.24
746.06	224.13
746.39	224.05
746.71	223.91
747.04	223.65
747.37	223.41
747.70	223.34
748.03	223.22
748.36	223.15
748.68	223.07
749.01	222.86
749.34	222.70
749.67	222.61
750.00	222.56
750.33	222.64
750.65	222.55
750.98	221.95
751.31	221.81
751.64	221.73
751.97	221.79
752.29	221.50
752.62	221.24
752.95	221.07
753.28	220.92
753.60	220.80
753.93	220.74
754.26	220.81
754.59	220.59
754.91	220.46
755.24	220.31
755.57	220.12
755.90	220.03
756.22	219.86
756.55	219.75
756.88	219.55
757.20	219.27
757.53	219.07
757.86	218.98
758.19	218.92
758.51	218.74
758.84	218.44
759.17	218.42
759.49	218.27
759.82	218.40
760.15	218.37
760.47	218.21
760.80	218.16
761.13	218.07
761.45	217.95
761.78	217.92
762.11	217.91
762.43	217.85
762.76	217.75
763.08	217.72
763.41	217.71
763.74	217.64
764.06	217.57
764.39	217.52
764.71	217.50
765.04	217.40
765.37	217.42
765.69	217.38
766.02	217.21
766.34	217.19
766.67	216.92
767.00	216.92
767.32	217.15
767.65	217.29
767.97	217.18
768.30	217.22
768.62	217.05
768.95	216.92
769.27	216.85
769.60	216.84
769.92	216.75
770.25	216.60
770.57	216.47
770.90	216.44
771.22	216.32
771.55	216.21
771.87	216.22
772.20	216.11
772.52	216.40
772.85	216.83
773.17	216.78
773.50	216.81
773.82	216.70
774.15	216.45
774.47	216.15
774.80	216.08
775.12	216.05
775.45	216.12
775.77	216.07
776.09	216.01
776.42	216.04
776.74	216.12
777.07	216.05
777.39	216.05
777.72	215.96
778.04	215.95
778.36	215.89
778.69	215.88
779.01	215.88
779.33	215.44
779.66	215.00
779.98	214.91
780.31	214.88
780.63	214.96
780.95	214.98
781.28	214.94
781.60	214.80
781.92	214.67
782.25	214.58
782.57	214.50
782.89	214.44
783.22	214.31
783.54	214.13
783.86	214.12
784.19	214.05
784.51	214.11
784.83	214.12
785.16	214.06
785.48	213.96
785.80	213.90
786.12	213.90
786.45	213.88
786.77	213.89
787.09	213.80
787.42	213.56
787.74	213.58
788.06	213.58
788.38	213.66
788.71	213.65
789.03	213.65
789.35	213.74
789.67	213.72
789.99	213.66
790.32	213.61
790.64	213.63
790.96	213.90
791.28	213.79
791.61	213.72
791.93	213.77
792.25	213.71
792.57	213.94
792.89	213.88
793.21	213.85
793.54	213.79
793.86	213.72
794.18	213.82
794.50	213.61
794.82	213.61
795.14	213.63
795.47	213.67
795.79	213.61
796.11	213.48
796.43	213.44
796.75	213.53
797.07	213.53
797.39	213.45
797.71	213.18
798.04	213.15
798.36	213.19
798.68	213.17
799.00	213.19
799.32	213.00
799.64	213.06
799.96	213.05
800.28	213.12
800.60	213.03
800.92	213.01
801.24	212.99
801.56	212.95
801.89	212.85
802.21	212.91
802.53	212.85
802.85	212.93
803.17	213.07
803.49	212.99
803.81	212.91
804.13	212.97
804.45	212.89
804.77	212.97
805.09	212.96
805.41	212.91
805.73	212.85
806.05	212.83
806.37	212.80
806.69	212.78
807.01	212.73
807.33	212.80
807.65	212.69
807.97	212.93
808.28	212.85
808.60	212.90
808.92	212.78
809.24	213.00
809.56	212.93
809.88	212.76
810.20	212.75
810.52	212.87
810.84	212.80
811.16	212.82
811.48	212.71
811.80	212.84
812.12	212.80
812.43	212.86
812.75	212.86
813.07	212.77
813.39	212.82
813.71	212.75
814.03	212.63
814.35	212.64
814.67	212.44
814.98	212.42
815.30	212.36
815.62	212.27
815.94	212.03
816.26	211.98
816.58	211.98
816.89	211.96
817.21	211.88
817.53	211.85
817.85	211.83
818.17	211.88
818.48	211.68
818.80	211.84
819.12	211.79
819.44	211.65
819.76	211.66
820.07	211.56
820.39	211.57
820.71	211.66
821.03	211.67
821.34	211.60
821.66	211.68
821.98	211.69
822.30	211.70
822.61	211.95
822.93	211.87
823.25	211.88
823.57	211.86
823.88	211.95
824.20	211.96
824.52	211.97
824.83	211.97
825.15	212.02
825.47	211.92
825.79	211.95
826.10	211.94
826.42	211.90
826.74	211.97
827.05	211.90
827.37	211.96
827.69	211.93
828.00	211.96
828.32	211.94
828.64	211.86
828.95	212.02
829.27	211.93
829.58	212.00
829.90	212.06
830.22	212.07
830.53	211.89
830.85	211.86
831.17	211.80
831.48	211.75
831.80	211.63
832.11	211.57
832.43	211.52
832.75	211.52
833.06	211.77
833.38	211.73
833.69	211.73
834.01	211.73
834.32	211.71
834.64	211.71
834.96	211.73
835.27	211.89
835.59	211.77
835.90	211.66
836.22	211.74
836.53	211.67
836.85	211.62
837.16	212.01
837.48	212.05
837.79	212.13
838.11	212.15
838.42	212.27
838.74	212.37
839.05	212.30
839.37	212.31
839.68	212.05
840.00	211.95
840.31	212.03
840.63	211.91
840.94	212.01
841.26	212.01
841.57	212.00
841.88	211.87
842.20	211.79
842.51	211.80
842.83	211.72
843.14	212.01
843.46	212.08
843.77	211.87
844.08	211.78
844.40	211.69
844.71	211.61
845.03	211.49
845.34	211.39
845.65	211.38
845.97	211.40
846.28	211.35
846.60	211.37
846.91	211.27
847.22	211.30
847.54	211.22
847.85	211.22
848.16	211.22
848.48	211.15
848.79	211.28
849.10	211.35
849.42	211.34
849.73	211.04
850.04	210.97
850.36	210.87
850.67	210.98
850.98	211.03
851.30	211.10
851.61	211.08
851.92	211.13
852.23	211.27
852.55	211.29
852.86	211.43
853.17	211.52
853.49	211.60
853.80	211.64
854.11	211.69
854.42	211.74
854.74	211.63
855.05	211.70
855.36	211.54
855.67	211.51
855.99	211.54
856.30	211.91
856.61	211.90
856.92	211.89
857.23	211.83
857.55	211.79
857.86	211.73
858.17	211.82
858.48	211.75
858.79	211.67
859.11	211.72
859.42	211.68
859.73	211.60
860.04	211.70
860.35	211.63
860.66	211.52
860.98	211.41
861.29	211.52
861.60	211.57
861.91	211.67
862.22	211.58
862.53	211.52
862.84	211.18
863.16	211.35
863.47	211.35
863.78	211.35
864.09	211.35
864.40	211.43
864.71	211.36
865.02	211.38
865.33	211.34
865.64	211.23
865.95	211.23
866.27	211.45
866.58	211.31
866.89	211.40
867.20	211.45
867.51	211.43
867.82	211.40
868.13	211.49
868.44	211.43
868.75	211.48
869.06	211.49
869.37	211.48
869.68	211.38
869.99	211.37
870.30	211.42
870.61	211.47
870.92	211.44
871.23	211.50
871.54	211.54
871.85	211.60
872.16	211.65
872.47	211.58
872.78	211.37
873.09	211.35
873.40	211.28
873.71	211.26
874.02	211.33
874.33	211.31
874.64	211.19
874.95	211.26
875.26	211.20
875.56	211.21
875.87	211.12
876.18	211.03
876.49	211.39
876.80	211.29
877.11	211.20
877.42	211.22
877.73	211.18
878.04	211.13
878.35	211.17
878.66	211.18
878.96	211.19
879.27	211.19
879.58	211.22
879.89	211.16
880.20	211.28
880.51	211.25
880.82	211.19
881.12	211.20
881.43	211.11
881.74	211.09
882.05	211.07
882.36	211.12
882.67	211.12
882.97	210.73
883.28	210.73
883.59	210.79
883.90	210.81
884.21	210.84
884.51	210.82
884.82	210.76
885.13	210.76
885.44	210.79
885.74	210.76
886.05	210.77
886.36	210.79
886.67	210.64
886.98	210.81
887.28	210.90
887.59	210.90
887.90	210.88
888.20	210.95
888.51	211.01
888.82	211.10
889.13	211.16
889.43	211.44
889.74	211.43
890.05	211.39
890.35	211.30
890.66	211.18
890.97	211.12
891.28	211.09
891.58	211.08
891.89	211.03
892.20	210.99
892.50	210.92
892.81	210.91
893.12	210.90
893.42	210.72
893.73	210.69
894.04	210.69
894.34	210.70
894.65	210.65
894.95	210.55
895.26	210.54
895.57	210.67
895.87	210.34
896.18	210.39
896.48	210.42
896.79	210.46
897.10	210.62
897.40	210.67
897.71	210.70
898.01	210.73
898.32	210.76
898.63	210.85
898.93	210.85
899.24	210.91
899.54	211.00
899.85	211.04
900.15	211.00
900.46	210.98
900.76	211.05
901.07	211.04
901.38	211.13
901.68	211.09
901.99	210.95
902.29	211.02
902.60	211.02
902.90	211.01
903.21	211.02
903.51	210.94
903.82	211.03
904.12	211.01
904.43	211.00
904.73	210.95
905.03	210.94
905.34	211.30
905.64	211.29
905.95	211.20
906.25	211.15
906.56	211.25
906.86	211.31
907.17	211.30
907.47	211.30
907.77	211.26
908.08	211.19
908.38	211.17
908.69	211.23
908.99	211.28
909.30	211.29
909.60	211.32
909.90	211.34
910.21	211.31
910.51	211.29
910.81	211.25
911.12	211.35
911.42	211.29
911.73	210.96
912.03	210.97
912.33	211.05
912.64	211.02
912.94	210.94
913.24	210.81
913.55	210.75
913.85	210.78
914.15	210.81
914.46	210.88
914.76	210.93
915.06	210.85
915.37	210.73
915.67	210.73
915.97	210.71
916.27	210.61
916.58	210.55
916.88	210.54
917.18	210.56
917.49	210.71
917.79	210.81
918.09	210.87
918.39	210.98
918.70	210.94
919.00	210.97
919.30	211.10
919.60	211.12
919.91	211.15
920.21	211.12
920.51	210.99
920.81	210.88
921.12	210.85
921.42	210.84
921.72	210.85
922.02	210.89
922.32	210.87
922.63	210.93
922.93	211.06
923.23	211.08
923.53	211.04
923.83	210.84
924.13	210.79
924.44	210.73
924.74	210.70
925.04	210.75
925.34	210.78
925.64	210.62
925.94	210.57
926.24	210.72
926.55	210.70
926.85	210.83
927.15	210.91
927.45	210.92
927.75	210.99
928.05	211.01
928.35	210.91
928.65	211.03
928.95	211.03
929.26	210.89
929.56	210.98
929.86	211.00
930.16	210.91
930.46	210.83
930.76	210.86
931.06	210.69
931.36	210.63
931.66	210.64
931.96	210.73
932.26	210.80
932.56	210.61
932.86	210.63
933.16	210.56
933.46	210.55
933.76	210.50
934.06	210.54
934.36	210.65
934.66	210.69
934.96	210.61
935.26	210.60
935.56	210.66
935.86	210.61
936.16	210.55
936.46	210.65
936.76	210.67
937.06	210.61
937.36	210.72
937.66	210.74
937.96	210.71
938.26	210.66
938.56	210.71
938.86	210.81
939.16	210.87
939.46	210.96
939.76	210.95
940.06	210.95
940.35	210.86
940.65	210.71
940.95	210.76
941.25	210.69
941.55	210.69
941.85	210.73
942.15	210.74
942.45	210.92
942.75	210.83
943.04	210.87
943.34	210.96
943.64	210.88
943.94	210.86
944.24	210.90
944.54	210.82
944.84	210.77
945.13	210.66
945.43	210.62
945.73	210.59
946.03	210.61
946.33	210.58
946.62	210.61
946.92	210.64
947.22	210.69
947.52	210.70
947.82	210.79
948.11	210.80
948.41	210.75
948.71	210.62
949.01	210.65
949.31	210.67
949.60	210.60
949.90	210.65
950.20	210.63
950.50	210.64
950.79	210.69
951.09	210.75
951.39	210.79
951.69	210.70
951.98	210.79
952.28	210.82
952.58	210.83
952.87	210.84
953.17	210.88
953.47	210.79
953.76	210.82
954.06	210.75
954.36	210.70
954.66	210.68
954.95	210.70
955.25	210.77
955.55	210.72
955.84	210.69
956.14	210.74
956.44	210.81
956.73	210.70
957.03	210.74
957.32	210.67
957.62	210.67
957.92	210.79
958.21	210.70
958.51	211.08
958.81	211.12
959.10	211.13
959.40	211.20
959.69	211.21
959.99	211.24
960.29	211.17
960.58	211.12
960.88	211.27
961.17	211.30
961.47	211.37
961.76	211.41
962.06	211.44
962.36	211.41
962.65	211.42
962.95	211.49
963.24	211.47
963.54	211.49
963.83	211.52
964.13	211.44
964.42	211.36
964.72	211.01
965.01	210.99
965.31	210.93
965.60	210.87
965.90	211.09
966.19	210.95
966.49	211.00
966.78	210.99
967.08	210.95
967.37	210.90
967.67	210.72
967.96	210.75
968.26	210.79
968.55	210.79
968.85	210.79
969.14	210.80
969.43	210.77
969.73	210.74
970.02	210.69
970.32	210.71
970.61	210.69
970.91	210.64
971.20	210.58
971.49	210.55
971.79	210.56
972.08	210.29
972.38	210.35
972.67	210.37
972.96	210.47
973.26	210.37
973.55	210.48
973.85	210.50
974.14	210.48
974.43	210.52
974.73	210.45
975.02	210.41
975.31	210.36
975.61	210.33
975.90	210.29
976.19	210.21
976.49	210.27
976.78	210.40
977.07	210.40
977.37	210.46
977.66	210.53
977.95	210.49
978.24	210.56
978.54	210.61
978.83	210.49
979.12	210.48
979.42	210.51
979.71	210.43
980.00	210.45
980.29	210.49
980.59	210.41
980.88	210.45
981.17	210.38
981.46	210.40
981.76	210.41
982.05	210.52
982.34	210.58
982.63	210.50
982.93	210.44
983.22	210.50
983.51	210.51
983.80	210.55
984.09	210.52
984.39	210.44
984.68	210.39
984.97	210.46
985.26	210.37
985.55	210.39
985.85	210.38
986.14	210.39
986.43	210.41
986.72	210.42
987.01	210.43
987.30	210.49
987.59	210.50
987.89	210.49
988.18	210.49
988.47	210.47
988.76	210.48
989.05	210.50
989.34	210.40
989.63	210.50
989.92	210.41
990.22	210.43
990.51	210.43
990.80	210.41
991.09	210.52
991.38	210.64
991.67	210.58
991.96	210.56
992.25	210.60
992.54	210.54
992.83	210.54
993.12	210.46
993.41	210.48
993.70	210.60
993.99	210.70
994.28	210.69
994.58	210.77
994.87	210.76
995.16	210.77
995.45	210.82
995.74	210.71
996.03	210.80
996.32	210.86
996.61	210.96
996.90	211.00
997.19	210.87
997.48	210.82
997.77	210.85
998.06	210.85
998.34	210.81
998.63	210.80
998.92	210.78
999.21	210.88
999.50	210.91
999.79	210.83
1000.08	210.77
1000.37	210.75
1000.66	210.78
1000.95	210.91
1001.24	210.93
1001.53	210.88
1001.82	210.82
1002.11	210.75
1002.40	210.83
1002.68	210.87
1002.97	211.08
1003.26	211.06
1003.55	210.98
1003.84	210.98
1004.13	211.04
1004.42	211.07
1004.71	211.05
1004.99	211.01
1005.28	211.09
1005.57	211.06
1005.86	211.05
1006.15	211.13
1006.44	211.06
1006.72	211.04
1007.01	210.91
1007.30	210.86
1007.59	210.92
1007.88	210.98
1008.17	211.03
1008.45	210.92
1008.74	210.79
1009.03	210.64
1009.32	210.69
1009.60	210.75
1009.89	210.69
1010.18	210.60
1010.47	210.57
1010.76	210.56
1011.04	210.63
1011.33	210.97
1011.62	211.01
1011.91	211.00
1012.19	210.96
1012.48	210.92
1012.77	210.92
1013.05	211.12
1013.34	211.07
1013.63	211.01
1013.92	211.03
1014.20	210.96
1014.49	210.95
1014.78	211.05
1015.06	211.00
1015.35	210.99
1015.64	211.05
1015.92	211.09
1016.21	211.11
1016.50	211.11
1016.78	211.21
1017.07	211.16
1017.36	210.74
1017.64	210.67
1017.93	210.72
1018.22	210.70
1018.50	210.72
1018.79	210.75
1019.08	210.59
1019.36	210.69
1019.65	210.73
1019.93	210.81
1020.22	210.88
1020.51	211.09
1020.79	211.00
1021.08	210.55
1021.36	209.55
1021.65	211.40
1021.94	210.70
1022.22	211.25
1022.51	211.00
1022.79	212.40
1023.08	211.45
1023.36	215.35
1023.65	209.75
>>>>>End Processed Spectral Data<<<<<
