SpectraSuite Data File
++++++++++++++++++++++++++++++++++++
Date: Mon Feb 25 17:03:47 EST 2013
User: group
Dark Spectrum Present: No
Reference Spectrum Present: No
Number of Sampled Component Spectra: 1
Spectrometers: USB2E7196
Integration Time (usec): 104000 (USB2E7196)
Spectra Averaged: 20 (USB2E7196)
Boxcar Smoothing: 10 (USB2E7196)
Correct for Electrical Dark: No (USB2E7196)
Strobe/Lamp Enabled: No (USB2E7196)
Correct for Detector Non-linearity: No (USB2E7196)
Correct for Stray Light: No (USB2E7196)
Number of Pixels in Processed Spectrum: 2048
>>>>>Begin Processed Spectral Data<<<<<
339.09	0.00
339.48	197.30
339.86	200.35
340.24	202.15
340.63	202.65
341.01	209.25
341.39	205.80
341.78	207.45
342.16	209.40
342.54	209.15
342.93	198.47
343.31	208.47
343.69	209.16
344.07	209.59
344.46	210.02
344.84	210.44
345.22	210.49
345.60	210.72
345.99	210.86
346.37	210.95
346.75	211.03
347.13	211.08
347.52	211.05
347.90	211.20
348.28	211.23
348.66	211.34
349.05	211.20
349.43	211.27
349.81	211.28
350.19	211.27
350.57	211.30
350.96	211.43
351.34	211.52
351.72	211.50
352.10	211.59
352.48	211.54
352.87	211.61
353.25	211.65
353.63	211.68
354.01	211.78
354.39	211.79
354.77	211.86
355.15	212.01
355.54	212.04
355.92	211.95
356.30	211.91
356.68	212.10
357.06	212.25
357.44	212.26
357.82	212.28
358.20	212.34
358.58	212.37
358.97	212.39
359.35	212.54
359.73	212.65
360.11	212.73
360.49	212.91
360.87	212.89
361.25	213.00
361.63	213.10
362.01	213.13
362.39	213.13
362.77	213.19
363.15	213.16
363.53	213.18
363.91	213.24
364.29	213.31
364.67	212.96
365.05	212.91
365.43	213.00
365.81	213.04
366.19	213.13
366.57	213.31
366.95	213.30
367.33	213.14
367.71	213.13
368.09	213.20
368.47	213.05
368.85	213.03
369.23	213.02
369.61	212.99
369.99	213.04
370.37	213.11
370.75	213.20
371.13	213.14
371.51	213.08
371.89	213.06
372.27	213.12
372.65	213.18
373.03	213.10
373.41	213.03
373.78	212.98
374.16	212.85
374.54	212.59
374.92	212.43
375.30	212.36
375.68	212.25
376.06	212.19
376.44	212.14
376.82	212.10
377.19	212.05
377.57	211.95
377.95	211.72
378.33	211.63
378.71	211.36
379.09	211.41
379.47	211.37
379.84	211.31
380.22	211.15
380.60	211.05
380.98	210.96
381.36	210.88
381.73	210.82
382.11	210.79
382.49	210.77
382.87	210.72
383.25	210.75
383.62	211.11
384.00	210.92
384.38	210.95
384.76	211.01
385.13	211.10
385.51	211.01
385.89	211.03
386.27	211.00
386.64	211.09
387.02	211.02
387.40	211.00
387.78	210.95
388.15	210.94
388.53	210.93
388.91	210.99
389.29	210.92
389.66	211.00
390.04	210.90
390.42	210.94
390.79	210.98
391.17	210.91
391.55	210.45
391.92	210.52
392.30	210.50
392.68	210.34
393.05	210.32
393.43	210.41
393.81	210.37
394.18	210.33
394.56	210.30
394.94	210.35
395.31	210.31
395.69	210.40
396.06	210.45
396.44	210.46
396.82	210.37
397.19	210.63
397.57	210.57
397.95	210.65
398.32	210.54
398.70	210.55
399.07	210.68
399.45	210.72
399.82	210.66
400.20	210.69
400.58	210.71
400.95	210.58
401.33	210.64
401.70	210.92
402.08	211.03
402.45	211.05
402.83	211.08
403.20	211.11
403.58	211.16
403.95	211.24
404.33	211.38
404.71	211.53
405.08	211.74
405.46	211.81
405.83	211.99
406.21	212.18
406.58	212.41
406.96	212.55
407.33	212.77
407.70	212.99
408.08	213.43
408.45	213.66
408.83	213.96
409.20	214.18
409.58	214.25
409.95	214.51
410.33	214.79
410.70	214.99
411.08	215.44
411.45	215.73
411.82	216.07
412.20	216.53
412.57	217.17
412.95	217.31
413.32	217.85
413.69	218.31
414.07	218.91
414.44	219.53
414.82	220.15
415.19	220.86
415.56	221.73
415.94	222.37
416.31	223.41
416.68	224.30
417.06	225.36
417.43	226.50
417.81	227.69
418.18	229.00
418.55	230.38
418.93	231.84
419.30	233.37
419.67	234.91
420.04	236.50
420.42	238.05
420.79	240.18
421.16	242.10
421.54	244.44
421.91	246.55
422.28	248.73
422.66	251.02
423.03	253.50
423.40	255.79
423.77	258.32
424.15	260.75
424.52	263.36
424.89	266.25
425.26	268.93
425.64	271.59
426.01	274.52
426.38	277.61
426.75	280.79
427.13	283.98
427.50	287.37
427.87	290.89
428.24	294.33
428.61	297.61
428.99	301.50
429.36	305.17
429.73	309.24
430.10	313.26
430.47	317.41
430.85	321.48
431.22	326.08
431.59	331.09
431.96	335.65
432.33	340.91
432.70	346.03
433.08	351.92
433.45	357.53
433.82	362.98
434.19	369.10
434.56	375.00
434.93	380.65
435.30	386.49
435.68	392.99
436.05	399.62
436.42	405.95
436.79	411.83
437.16	418.29
437.53	424.85
437.90	431.35
438.27	438.00
438.64	444.78
439.01	451.09
439.38	456.58
439.75	462.15
440.13	468.36
440.50	474.21
440.87	479.11
441.24	484.27
441.61	490.02
441.98	494.22
442.35	499.11
442.72	504.20
443.09	509.10
443.46	512.09
443.83	514.15
444.20	516.20
444.57	518.67
444.94	520.21
445.31	521.65
445.68	523.48
446.05	524.11
446.42	523.91
446.79	523.58
447.16	523.19
447.53	523.09
447.90	521.03
448.27	519.04
448.64	516.17
449.01	514.05
449.37	509.96
449.74	506.27
450.11	501.84
450.48	496.77
450.85	491.44
451.22	486.90
451.59	482.64
451.96	478.62
452.33	473.10
452.70	467.97
453.07	461.99
453.43	455.53
453.80	449.83
454.17	444.20
454.54	438.81
454.91	432.99
455.28	427.18
455.65	421.90
456.02	416.90
456.38	412.25
456.75	406.54
457.12	401.84
457.49	397.11
457.86	392.30
458.23	388.50
458.59	384.18
458.96	379.95
459.33	376.05
459.70	372.17
460.07	369.23
460.43	365.74
460.80	362.43
461.17	359.52
461.54	356.26
461.91	353.37
462.27	350.30
462.64	347.64
463.01	344.95
463.38	342.36
463.74	339.19
464.11	336.82
464.48	334.75
464.85	332.44
465.21	330.75
465.58	328.90
465.95	326.52
466.32	324.68
466.68	322.79
467.05	320.96
467.42	318.98
467.78	316.91
468.15	315.08
468.52	313.74
468.88	311.96
469.25	310.43
469.62	309.06
469.98	307.71
470.35	306.49
470.72	305.15
471.08	303.64
471.45	302.60
471.82	301.43
472.18	300.10
472.55	299.15
472.92	297.95
473.28	297.04
473.65	296.06
474.02	295.16
474.38	294.48
474.75	293.77
475.11	292.98
475.48	292.44
475.85	291.87
476.21	291.22
476.58	290.76
476.94	290.34
477.31	289.91
477.67	289.50
478.04	289.10
478.41	288.91
478.77	289.02
479.14	288.67
479.50	288.45
479.87	288.49
480.23	288.33
480.60	288.16
480.96	287.97
481.33	288.14
481.69	288.05
482.06	287.78
482.42	287.78
482.79	287.90
483.15	287.95
483.52	288.23
483.88	288.37
484.25	288.47
484.61	288.71
484.98	288.82
485.34	289.18
485.71	289.57
486.07	289.91
486.44	289.98
486.80	290.39
487.17	290.75
487.53	291.24
487.90	291.91
488.26	292.65
488.62	293.39
488.99	293.92
489.35	294.61
489.72	295.43
490.08	296.18
490.44	296.91
490.81	297.80
491.17	298.58
491.54	299.55
491.90	300.56
492.26	301.57
492.63	302.64
492.99	303.68
493.36	304.71
493.72	305.78
494.08	307.03
494.45	308.30
494.81	309.66
495.17	310.90
495.54	312.23
495.90	313.52
496.26	314.87
496.63	316.32
496.99	317.67
497.35	319.15
497.72	320.66
498.08	322.09
498.44	323.47
498.80	325.00
499.17	326.39
499.53	327.86
499.89	329.31
500.26	330.85
500.62	332.16
500.98	333.68
501.34	335.14
501.71	336.60
502.07	337.94
502.43	339.26
502.79	340.51
503.16	341.79
503.52	342.99
503.88	344.08
504.24	345.34
504.60	346.63
504.97	347.82
505.33	348.91
505.69	350.26
506.05	351.40
506.41	352.36
506.78	353.41
507.14	354.25
507.50	355.22
507.86	356.06
508.22	357.11
508.59	357.95
508.95	358.74
509.31	359.63
509.67	360.41
510.03	361.19
510.39	361.87
510.75	362.52
511.12	363.19
511.48	363.81
511.84	364.23
512.20	364.71
512.56	365.18
512.92	365.64
513.28	365.88
513.64	366.20
514.00	366.53
514.37	366.87
514.73	367.17
515.09	367.38
515.45	367.55
515.81	367.62
516.17	367.69
516.53	367.81
516.89	367.62
517.25	367.60
517.61	367.70
517.97	367.73
518.33	367.69
518.69	367.68
519.05	367.75
519.41	367.87
519.77	368.15
520.13	368.16
520.49	368.21
520.85	368.29
521.21	368.56
521.57	368.65
521.93	368.64
522.29	368.83
522.65	368.87
523.01	369.10
523.37	369.24
523.73	369.50
524.09	369.78
524.45	370.19
524.81	370.60
525.17	370.97
525.53	371.55
525.89	372.01
526.25	372.59
526.61	373.05
526.97	373.62
527.33	374.08
527.68	375.05
528.04	375.72
528.40	376.48
528.76	377.23
529.12	378.11
529.48	379.10
529.84	380.03
530.20	381.14
530.56	382.31
530.91	383.62
531.27	384.74
531.63	386.08
531.99	387.38
532.35	388.71
532.71	390.06
533.07	391.43
533.42	393.27
533.78	394.83
534.14	396.44
534.50	397.88
534.86	399.59
535.21	401.02
535.57	402.86
535.93	404.58
536.29	406.51
536.65	408.52
537.00	410.32
537.36	412.29
537.72	414.33
538.08	416.30
538.44	418.22
538.79	420.34
539.15	422.39
539.51	424.54
539.87	426.82
540.22	429.09
540.58	431.38
540.94	433.50
541.29	435.82
541.65	438.23
542.01	440.84
542.37	443.36
542.72	445.90
543.08	448.32
543.44	450.92
543.79	453.24
544.15	455.73
544.51	458.61
544.87	461.30
545.22	463.97
545.58	466.62
545.94	469.39
546.29	472.03
546.65	474.77
547.01	477.48
547.36	480.33
547.72	483.03
548.07	486.00
548.43	488.44
548.79	491.04
549.14	493.60
549.50	496.27
549.86	498.90
550.21	501.60
550.57	504.32
550.92	506.95
551.28	509.66
551.64	512.30
551.99	514.95
552.35	517.52
552.70	519.94
553.06	522.37
553.41	524.77
553.77	527.61
554.13	530.09
554.48	532.76
554.84	535.23
555.19	537.74
555.55	540.34
555.90	542.79
556.26	545.21
556.61	547.71
556.97	549.92
557.32	552.07
557.68	554.28
558.03	556.56
558.39	558.84
558.74	561.14
559.10	563.41
559.45	565.57
559.81	567.82
560.16	570.00
560.52	572.54
560.87	574.93
561.23	576.92
561.58	579.35
561.94	581.25
562.29	583.13
562.64	585.16
563.00	586.73
563.35	588.89
563.71	591.12
564.06	593.15
564.42	595.20
564.77	597.29
565.12	599.30
565.48	601.58
565.83	603.37
566.19	605.33
566.54	607.18
566.89	608.95
567.25	610.93
567.60	612.82
567.96	614.63
568.31	616.38
568.66	618.08
569.02	619.23
569.37	620.63
569.72	622.18
570.08	623.67
570.43	625.05
570.78	626.25
571.14	627.16
571.49	628.09
571.84	629.21
572.20	630.04
572.55	630.97
572.90	631.28
573.26	632.09
573.61	632.56
573.96	632.99
574.31	633.45
574.67	633.78
575.02	633.99
575.37	634.03
575.72	634.02
576.08	634.25
576.43	634.47
576.78	634.77
577.13	634.90
577.49	635.15
577.84	635.35
578.19	635.72
578.54	636.18
578.90	636.67
579.25	636.82
579.60	636.85
579.95	636.69
580.30	637.11
580.66	637.29
581.01	637.36
581.36	637.34
581.71	637.49
582.06	637.62
582.42	637.87
582.77	637.67
583.12	637.79
583.47	637.78
583.82	637.82
584.17	637.66
584.53	637.77
584.88	637.47
585.23	637.44
585.58	637.25
585.93	636.91
586.28	636.65
586.63	636.42
586.98	636.43
587.34	636.53
587.69	636.13
588.04	635.81
588.39	635.51
588.74	635.23
589.09	634.90
589.44	634.27
589.79	633.92
590.14	633.68
590.49	633.12
590.84	632.48
591.19	632.22
591.54	631.81
591.89	630.89
592.25	630.54
592.60	629.60
592.95	628.60
593.30	627.82
593.65	626.95
594.00	626.11
594.35	626.15
594.70	625.10
595.05	624.40
595.40	623.61
595.75	622.75
596.10	621.94
596.45	621.15
596.80	620.58
597.15	619.76
597.50	618.75
597.85	618.03
598.19	617.18
598.54	616.26
598.89	615.36
599.24	614.98
599.59	614.01
599.94	613.44
600.29	612.86
600.64	611.95
600.99	610.98
601.34	610.30
601.69	608.50
602.04	607.56
602.39	606.50
602.74	605.65
603.08	605.01
603.43	604.46
603.78	603.60
604.13	602.55
604.48	601.65
604.83	601.15
605.18	600.40
605.53	599.53
605.87	598.52
606.22	597.93
606.57	596.85
606.92	595.77
607.27	594.71
607.62	593.74
607.96	593.07
608.31	592.38
608.66	591.34
609.01	590.24
609.36	589.23
609.70	588.10
610.05	586.73
610.40	585.53
610.75	584.06
611.10	582.86
611.44	581.42
611.79	580.01
612.14	578.49
612.49	576.81
612.83	575.52
613.18	573.99
613.53	572.33
613.88	570.83
614.22	569.44
614.57	567.96
614.92	566.44
615.27	564.82
615.61	563.20
615.96	561.70
616.31	560.39
616.65	559.15
617.00	557.74
617.35	556.33
617.70	554.62
618.04	552.98
618.39	551.13
618.74	549.85
619.08	548.25
619.43	546.64
619.78	545.26
620.12	543.68
620.47	542.18
620.82	540.40
621.16	538.52
621.51	537.05
621.85	535.34
622.20	533.54
622.55	531.73
622.89	529.96
623.24	528.22
623.59	526.40
623.93	524.56
624.28	522.96
624.62	521.60
624.97	520.12
625.32	518.64
625.66	517.23
626.01	515.38
626.35	513.86
626.70	512.24
627.04	510.75
627.39	509.04
627.73	507.64
628.08	506.28
628.43	504.71
628.77	502.97
629.12	501.45
629.46	500.06
629.81	498.54
630.15	497.00
630.50	495.35
630.84	493.69
631.19	492.16
631.53	490.65
631.88	488.86
632.22	487.07
632.57	485.68
632.91	483.96
633.26	482.45
633.60	480.79
633.95	479.33
634.29	477.59
634.64	476.11
634.98	474.25
635.32	472.69
635.67	471.42
636.01	469.86
636.36	468.19
636.70	466.72
637.05	465.34
637.39	463.79
637.73	462.53
638.08	461.41
638.42	460.19
638.77	458.70
639.11	457.23
639.45	455.88
639.80	454.18
640.14	452.62
640.49	451.16
640.83	449.64
641.17	448.01
641.52	446.43
641.86	444.77
642.20	443.42
642.55	441.64
642.89	439.86
643.23	438.22
643.58	436.95
643.92	435.16
644.26	433.62
644.61	432.16
644.95	430.55
645.29	428.73
645.64	427.00
645.98	425.35
646.32	423.81
646.66	422.24
647.01	420.66
647.35	419.29
647.69	417.82
648.04	416.37
648.38	414.95
648.72	413.54
649.06	412.08
649.41	410.47
649.75	409.05
650.09	407.64
650.43	406.20
650.78	404.45
651.12	402.95
651.46	401.32
651.80	399.90
652.14	398.29
652.49	396.90
652.83	395.26
653.17	393.73
653.51	392.16
653.85	390.73
654.20	389.28
654.54	387.67
654.88	386.00
655.22	384.57
655.56	382.95
655.90	381.34
656.25	379.91
656.59	378.51
656.93	377.29
657.27	376.07
657.61	374.65
657.95	373.39
658.29	372.16
658.64	370.91
658.98	369.48
659.32	368.03
659.66	366.64
660.00	365.26
660.34	363.79
660.68	362.45
661.02	360.99
661.36	359.58
661.70	358.35
662.05	357.13
662.39	355.76
662.73	354.69
663.07	353.65
663.41	352.53
663.75	351.21
664.09	349.80
664.43	348.29
664.77	347.00
665.11	345.65
665.45	344.42
665.79	343.14
666.13	341.82
666.47	340.72
666.81	339.50
667.15	338.31
667.49	337.30
667.83	336.33
668.17	335.24
668.51	334.31
668.85	333.30
669.19	332.31
669.53	331.29
669.87	330.08
670.21	328.96
670.55	327.88
670.89	327.05
671.23	326.06
671.57	325.25
671.91	324.29
672.25	323.46
672.58	322.61
672.92	321.62
673.26	320.80
673.60	319.76
673.94	318.85
674.28	318.00
674.62	317.22
674.96	316.17
675.30	315.20
675.64	314.19
675.97	313.23
676.31	312.31
676.65	311.37
676.99	310.67
677.33	309.68
677.67	308.75
678.01	307.72
678.34	306.84
678.68	305.89
679.02	305.04
679.36	304.00
679.70	302.95
680.04	302.14
680.37	301.17
680.71	300.44
681.05	299.73
681.39	298.97
681.73	298.05
682.06	297.21
682.40	296.44
682.74	295.73
683.08	294.97
683.42	294.02
683.75	293.31
684.09	292.46
684.43	291.68
684.77	290.85
685.10	290.09
685.44	289.30
685.78	288.57
686.12	287.78
686.45	287.03
686.79	286.32
687.13	285.67
687.46	284.91
687.80	284.25
688.14	283.43
688.48	282.69
688.81	281.96
689.15	281.35
689.49	280.72
689.82	280.02
690.16	279.21
690.50	278.63
690.83	277.86
691.17	277.06
691.51	276.39
691.84	275.78
692.18	275.17
692.52	274.54
692.85	273.91
693.19	273.44
693.52	272.96
693.86	272.27
694.20	271.54
694.53	271.04
694.87	270.31
695.21	269.70
695.54	269.06
695.88	268.42
696.21	267.70
696.55	267.03
696.88	266.34
697.22	265.79
697.56	265.35
697.89	264.77
698.23	264.35
698.56	263.77
698.90	263.31
699.23	262.65
699.57	262.14
699.90	261.55
700.24	260.92
700.58	260.35
700.91	259.94
701.25	259.76
701.58	259.36
701.92	259.01
702.25	258.60
702.59	258.15
702.92	257.65
703.26	257.28
703.59	256.85
703.93	256.75
704.26	256.28
704.60	255.78
704.93	255.30
705.26	254.77
705.60	254.48
705.93	253.88
706.27	253.58
706.60	253.21
706.94	252.98
707.27	252.49
707.61	252.09
707.94	251.64
708.27	250.96
708.61	250.45
708.94	249.98
709.28	249.60
709.61	249.19
709.94	248.92
710.28	248.52
710.61	248.15
710.95	247.45
711.28	247.35
711.61	246.80
711.95	246.58
712.28	246.19
712.61	245.85
712.95	245.76
713.28	245.55
713.61	245.17
713.95	244.72
714.28	244.46
714.61	244.10
714.95	243.75
715.28	243.29
715.61	242.98
715.95	242.68
716.28	242.29
716.61	242.03
716.95	241.58
717.28	241.23
717.61	240.93
717.94	240.69
718.28	240.11
718.61	239.97
718.94	239.60
719.27	239.32
719.61	239.05
719.94	238.62
720.27	238.14
720.60	237.85
720.94	237.53
721.27	237.31
721.60	237.09
721.93	236.85
722.27	236.80
722.60	236.59
722.93	236.26
723.26	236.04
723.59	235.66
723.93	235.45
724.26	235.29
724.59	234.99
724.92	234.74
725.25	234.60
725.59	234.32
725.92	234.15
726.25	233.99
726.58	233.79
726.91	233.56
727.24	233.43
727.57	233.17
727.91	232.95
728.24	232.68
728.57	232.40
728.90	232.16
729.23	231.89
729.56	231.75
729.89	231.59
730.22	231.33
730.55	231.21
730.89	231.04
731.22	230.83
731.55	230.66
731.88	230.46
732.21	230.17
732.54	230.02
732.87	229.82
733.20	229.61
733.53	229.43
733.86	229.35
734.19	229.09
734.52	229.09
734.85	229.19
735.18	229.06
735.51	228.99
735.84	228.92
736.17	228.76
736.50	228.53
736.83	228.71
737.16	228.64
737.49	228.49
737.82	228.33
738.15	228.25
738.48	228.13
738.81	227.95
739.14	227.84
739.47	227.60
739.80	227.38
740.13	227.23
740.46	226.94
740.79	226.63
741.12	226.50
741.45	226.16
741.78	225.83
742.11	225.68
742.44	225.47
742.77	225.33
743.10	225.13
743.43	224.93
743.75	224.38
744.08	224.63
744.41	224.46
744.74	224.31
745.07	224.04
745.40	223.93
745.73	224.01
746.06	223.88
746.39	223.88
746.71	223.74
747.04	223.60
747.37	223.56
747.70	223.51
748.03	223.42
748.36	223.39
748.68	223.28
749.01	223.10
749.34	223.00
749.67	222.91
750.00	222.86
750.33	223.02
750.65	222.99
750.98	222.42
751.31	222.35
751.64	222.24
751.97	222.41
752.29	222.30
752.62	221.95
752.95	221.79
753.28	221.66
753.60	221.52
753.93	221.43
754.26	221.27
754.59	221.08
754.91	220.93
755.24	220.79
755.57	220.57
755.90	220.45
756.22	220.41
756.55	220.29
756.88	220.19
757.20	219.75
757.53	219.60
757.86	219.56
758.19	219.49
758.51	219.34
758.84	218.96
759.17	218.82
759.49	218.84
759.82	218.95
760.15	218.87
760.47	218.79
760.80	218.65
761.13	218.69
761.45	218.58
761.78	218.47
762.11	218.43
762.43	218.36
762.76	218.36
763.08	218.25
763.41	218.20
763.74	218.10
764.06	218.08
764.39	218.00
764.71	217.85
765.04	217.69
765.37	217.67
765.69	217.66
766.02	217.60
766.34	217.42
766.67	217.21
767.00	217.19
767.32	217.35
767.65	217.42
767.97	217.28
768.30	217.24
768.62	217.21
768.95	217.07
769.27	217.06
769.60	217.02
769.92	216.88
770.25	216.69
770.57	216.53
770.90	216.47
771.22	216.33
771.55	216.35
771.87	216.45
772.20	216.27
772.52	216.51
772.85	216.85
773.17	216.84
773.50	216.79
773.82	216.66
774.15	216.43
774.47	216.23
774.80	216.19
775.12	216.21
775.45	216.18
775.77	216.18
776.09	216.14
776.42	216.12
776.74	216.21
777.07	216.16
777.39	216.21
777.72	216.11
778.04	216.24
778.36	216.16
778.69	215.97
779.01	216.02
779.33	215.74
779.66	215.29
779.98	215.23
780.31	215.25
780.63	215.37
780.95	215.43
781.28	215.41
781.60	215.29
781.92	215.25
782.25	215.14
782.57	215.13
782.89	215.04
783.22	214.93
783.54	214.79
783.86	214.78
784.19	214.70
784.51	214.89
784.83	214.73
785.16	214.67
785.48	214.67
785.80	214.58
786.12	214.47
786.45	214.40
786.77	214.40
787.09	214.31
787.42	214.10
787.74	214.04
788.06	213.96
788.38	213.94
788.71	213.85
789.03	213.89
789.35	213.92
789.67	213.84
789.99	213.89
790.32	213.87
790.64	213.97
790.96	214.23
791.28	214.00
791.61	214.03
791.93	214.05
792.25	214.00
792.57	214.27
792.89	214.21
793.21	214.24
793.54	214.22
793.86	214.17
794.18	214.16
794.50	214.09
794.82	214.08
795.14	214.08
795.47	214.13
795.79	214.13
796.11	214.04
796.43	214.00
796.75	213.95
797.07	213.97
797.39	213.87
797.71	213.58
798.04	213.61
798.36	213.61
798.68	213.56
799.00	213.61
799.32	213.39
799.64	213.52
799.96	213.58
800.28	213.62
800.60	213.53
800.92	213.60
801.24	213.57
801.56	213.59
801.89	213.56
802.21	213.60
802.53	213.50
802.85	213.52
803.17	213.73
803.49	213.67
803.81	213.63
804.13	213.62
804.45	213.64
804.77	213.64
805.09	213.62
805.41	213.60
805.73	213.51
806.05	213.40
806.37	213.32
806.69	213.19
807.01	213.07
807.33	213.11
807.65	212.92
807.97	213.08
808.28	213.07
808.60	213.02
808.92	212.93
809.24	213.15
809.56	213.06
809.88	212.88
810.20	212.90
810.52	212.91
810.84	212.84
811.16	212.75
811.48	212.74
811.80	212.77
812.12	212.76
812.43	212.75
812.75	212.88
813.07	212.74
813.39	212.77
813.71	212.77
814.03	212.76
814.35	212.83
814.67	212.63
814.98	212.62
815.30	212.58
815.62	212.51
815.94	212.24
816.26	212.27
816.58	212.19
816.89	212.18
817.21	212.06
817.53	212.01
817.85	212.05
818.17	212.05
818.48	211.94
818.80	212.05
819.12	212.01
819.44	211.94
819.76	211.92
820.07	211.86
820.39	211.76
820.71	211.81
821.03	211.74
821.34	211.75
821.66	211.73
821.98	211.82
822.30	211.82
822.61	211.98
822.93	211.91
823.25	211.93
823.57	211.82
823.88	211.98
824.20	212.06
824.52	212.02
824.83	211.90
825.15	211.85
825.47	211.74
825.79	211.77
826.10	211.66
826.42	211.74
826.74	211.86
827.05	211.93
827.37	211.88
827.69	211.84
828.00	211.89
828.32	211.83
828.64	211.72
828.95	211.92
829.27	211.84
829.58	211.82
829.90	211.75
830.22	211.79
830.53	211.66
830.85	211.57
831.17	211.48
831.48	211.53
831.80	211.57
832.11	211.49
832.43	211.47
832.75	211.53
833.06	211.61
833.38	211.42
833.69	211.37
834.01	211.37
834.32	211.40
834.64	211.32
834.96	211.37
835.27	211.44
835.59	211.25
835.90	211.20
836.22	211.29
836.53	211.34
836.85	211.36
837.16	211.70
837.48	211.69
837.79	211.88
838.11	211.87
838.42	211.83
838.74	211.86
839.05	211.74
839.37	211.71
839.68	211.55
840.00	211.56
840.31	211.62
840.63	211.55
840.94	211.50
841.26	211.46
841.57	211.47
841.88	211.51
842.20	211.48
842.51	211.38
842.83	211.32
843.14	211.58
843.46	211.57
843.77	211.35
844.08	211.33
844.40	211.21
844.71	211.24
845.03	211.23
845.34	211.24
845.65	211.32
845.97	211.33
846.28	211.40
846.60	211.49
846.91	211.51
847.22	211.51
847.54	211.65
847.85	211.66
848.16	211.60
848.48	211.50
848.79	211.58
849.10	211.70
849.42	211.69
849.73	211.44
850.04	211.38
850.36	211.24
850.67	211.33
850.98	211.34
851.30	211.40
851.61	211.39
851.92	211.46
852.23	211.52
852.55	211.50
852.86	211.42
853.17	211.42
853.49	211.43
853.80	211.56
854.11	211.60
854.42	211.67
854.74	211.64
855.05	211.69
855.36	211.55
855.67	211.50
855.99	211.51
856.30	211.83
856.61	211.86
856.92	211.90
857.23	211.91
857.55	211.85
857.86	211.73
858.17	211.76
858.48	211.61
858.79	211.56
859.11	211.57
859.42	211.54
859.73	211.50
860.04	211.50
860.35	211.36
860.66	211.21
860.98	211.20
861.29	211.22
861.60	211.20
861.91	211.29
862.22	211.25
862.53	211.25
862.84	210.83
863.16	210.90
863.47	210.82
863.78	210.75
864.09	210.78
864.40	210.87
864.71	210.87
865.02	210.93
865.33	210.88
865.64	210.80
865.95	210.84
866.27	211.08
866.58	211.03
866.89	211.10
867.20	211.14
867.51	211.04
867.82	211.08
868.13	211.18
868.44	211.08
868.75	211.19
869.06	211.19
869.37	211.26
869.68	211.08
869.99	211.14
870.30	211.16
870.61	211.18
870.92	211.08
871.23	211.11
871.54	211.16
871.85	211.19
872.16	211.27
872.47	211.29
872.78	211.09
873.09	211.06
873.40	211.10
873.71	211.04
874.02	211.15
874.33	211.08
874.64	210.98
874.95	211.11
875.26	210.99
875.56	210.93
875.87	210.90
876.18	211.03
876.49	211.36
876.80	211.37
877.11	211.35
877.42	211.41
877.73	211.31
878.04	211.22
878.35	211.25
878.66	211.20
878.96	211.18
879.27	211.16
879.58	211.17
879.89	211.03
880.20	211.15
880.51	211.06
880.82	211.04
881.12	211.06
881.43	210.96
881.74	210.95
882.05	210.97
882.36	211.03
882.67	210.97
882.97	210.65
883.28	210.58
883.59	210.58
883.90	210.64
884.21	210.73
884.51	210.80
884.82	210.76
885.13	210.86
885.44	210.87
885.74	210.82
886.05	210.85
886.36	210.91
886.67	210.81
886.98	211.00
887.28	210.98
887.59	210.97
887.90	211.00
888.20	211.03
888.51	211.08
888.82	210.99
889.13	211.11
889.43	211.37
889.74	211.30
890.05	211.28
890.35	211.19
890.66	211.12
890.97	211.10
891.28	211.18
891.58	211.18
891.89	211.16
892.20	211.15
892.50	211.12
892.81	211.18
893.12	211.12
893.42	210.96
893.73	211.05
894.04	211.09
894.34	211.13
894.65	211.10
894.95	211.05
895.26	211.10
895.57	211.15
895.87	210.78
896.18	210.91
896.48	210.94
896.79	210.93
897.10	210.99
897.40	211.01
897.71	211.05
898.01	211.00
898.32	211.06
898.63	211.01
898.93	211.02
899.24	210.95
899.54	211.00
899.85	211.02
900.15	210.98
900.46	210.91
900.76	210.90
901.07	210.92
901.38	210.92
901.68	210.98
901.99	210.87
902.29	210.90
902.60	210.82
902.90	210.76
903.21	210.73
903.51	210.71
903.82	210.83
904.12	210.73
904.43	210.71
904.73	210.66
905.03	210.70
905.34	211.11
905.64	211.07
905.95	211.07
906.25	211.01
906.56	211.01
906.86	211.11
907.17	211.07
907.47	211.07
907.77	211.09
908.08	211.01
908.38	211.01
908.69	211.10
908.99	211.23
909.30	211.30
909.60	211.40
909.90	211.38
910.21	211.20
910.51	211.12
910.81	211.14
911.12	211.18
911.42	211.22
911.73	210.80
912.03	210.88
912.33	210.94
912.64	210.90
912.94	210.89
913.24	210.78
913.55	210.83
913.85	210.79
914.15	210.86
914.46	211.00
914.76	211.01
915.06	211.02
915.37	210.97
915.67	210.88
915.97	210.83
916.27	210.76
916.58	210.83
916.88	210.87
917.18	210.88
917.49	211.07
917.79	211.09
918.09	211.15
918.39	211.19
918.70	211.18
919.00	211.25
919.30	211.39
919.60	211.35
919.91	211.32
920.21	211.31
920.51	211.18
920.81	211.12
921.12	211.16
921.42	211.11
921.72	211.15
922.02	211.23
922.32	211.32
922.63	211.33
922.93	211.45
923.23	211.46
923.53	211.42
923.83	211.15
924.13	211.12
924.44	211.06
924.74	211.20
925.04	211.21
925.34	211.15
925.64	211.00
925.94	211.06
926.24	211.23
926.55	211.22
926.85	211.27
927.15	211.20
927.45	211.15
927.75	211.21
928.05	211.17
928.35	211.10
928.65	211.13
928.95	211.19
929.26	211.06
929.56	211.10
929.86	211.13
930.16	211.21
930.46	211.26
930.76	211.34
931.06	211.12
931.36	211.07
931.66	211.12
931.96	211.22
932.26	211.18
932.56	210.97
932.86	210.96
933.16	210.99
933.46	210.94
933.76	210.92
934.06	210.91
934.36	211.05
934.66	211.07
934.96	211.03
935.26	210.99
935.56	211.07
935.86	210.99
936.16	210.96
936.46	210.88
936.76	210.89
937.06	210.78
937.36	210.81
937.66	210.86
937.96	210.88
938.26	210.76
938.56	210.77
938.86	210.85
939.16	211.01
939.46	211.00
939.76	211.07
940.06	211.06
940.35	211.02
940.65	210.84
940.95	210.88
941.25	210.79
941.55	210.79
941.85	210.74
942.15	210.84
942.45	210.95
942.75	210.98
943.04	210.97
943.34	211.05
943.64	210.99
943.94	210.91
944.24	210.88
944.54	210.92
944.84	210.92
945.13	210.93
945.43	210.84
945.73	210.86
946.03	210.81
946.33	210.73
946.62	210.67
946.92	210.65
947.22	210.64
947.52	210.68
947.82	210.74
948.11	210.69
948.41	210.55
948.71	210.45
949.01	210.47
949.31	210.36
949.60	210.32
949.90	210.38
950.20	210.38
950.50	210.35
950.79	210.41
951.09	210.39
951.39	210.34
951.69	210.32
951.98	210.40
952.28	210.44
952.58	210.48
952.87	210.52
953.17	210.54
953.47	210.54
953.76	210.53
954.06	210.51
954.36	210.46
954.66	210.59
954.95	210.65
955.25	210.70
955.55	210.78
955.84	210.79
956.14	210.75
956.44	210.79
956.73	210.71
957.03	210.63
957.32	210.65
957.62	210.62
957.92	210.75
958.21	210.72
958.51	211.10
958.81	211.13
959.10	211.15
959.40	211.28
959.69	211.28
959.99	211.25
960.29	211.23
960.58	211.19
960.88	211.39
961.17	211.33
961.47	211.32
961.76	211.31
962.06	211.38
962.36	211.43
962.65	211.48
962.95	211.59
963.24	211.61
963.54	211.61
963.83	211.62
964.13	211.49
964.42	211.43
964.72	211.21
965.01	211.24
965.31	211.18
965.60	211.08
965.90	211.29
966.19	211.31
966.49	211.32
966.78	211.45
967.08	211.33
967.37	211.47
967.67	211.40
967.96	211.40
968.26	211.39
968.55	211.47
968.85	211.43
969.14	211.46
969.43	211.45
969.73	211.50
970.02	211.45
970.32	211.43
970.61	211.40
970.91	211.26
971.20	211.29
971.49	211.28
971.79	211.31
972.08	211.13
972.38	211.13
972.67	211.12
972.96	211.15
973.26	211.05
973.55	211.03
973.85	211.05
974.14	211.06
974.43	211.08
974.73	210.99
975.02	210.98
975.31	210.99
975.61	211.04
975.90	211.00
976.19	210.97
976.49	211.03
976.78	211.04
977.07	211.06
977.37	211.07
977.66	211.09
977.95	211.05
978.24	211.05
978.54	211.21
978.83	211.20
979.12	211.15
979.42	211.22
979.71	211.12
980.00	211.12
980.29	211.05
980.59	210.96
980.88	211.01
981.17	211.02
981.46	210.97
981.76	210.91
982.05	211.05
982.34	211.16
982.63	211.14
982.93	211.10
983.22	211.11
983.51	211.10
983.80	211.16
984.09	211.17
984.39	211.09
984.68	211.02
984.97	211.04
985.26	210.98
985.55	210.92
985.85	210.84
986.14	210.85
986.43	210.99
986.72	211.01
987.01	210.93
987.30	210.90
987.59	210.91
987.89	210.94
988.18	210.77
988.47	210.71
988.76	210.74
989.05	210.78
989.34	210.78
989.63	210.82
989.92	210.83
990.22	210.86
990.51	210.85
990.80	210.77
991.09	210.79
991.38	210.91
991.67	210.89
991.96	210.89
992.25	210.94
992.54	210.86
992.83	210.83
993.12	210.80
993.41	210.86
993.70	210.97
993.99	211.00
994.28	211.04
994.58	211.15
994.87	211.06
995.16	211.03
995.45	210.98
995.74	210.85
996.03	210.84
996.32	210.89
996.61	210.98
996.90	210.96
997.19	210.92
997.48	210.82
997.77	210.83
998.06	210.95
998.34	210.85
998.63	210.83
998.92	210.89
999.21	210.95
999.50	210.99
999.79	210.85
1000.08	210.85
1000.37	210.89
1000.66	210.76
1000.95	210.87
1001.24	210.86
1001.53	210.92
1001.82	210.95
1002.11	210.89
1002.40	210.88
1002.68	211.01
1002.97	211.20
1003.26	211.13
1003.55	211.08
1003.84	211.09
1004.13	211.15
1004.42	211.21
1004.71	211.19
1004.99	211.14
1005.28	211.28
1005.57	211.23
1005.86	211.19
1006.15	211.11
1006.44	211.00
1006.72	211.07
1007.01	211.00
1007.30	211.01
1007.59	210.91
1007.88	210.87
1008.17	210.87
1008.45	210.84
1008.74	210.60
1009.03	210.47
1009.32	210.49
1009.60	210.50
1009.89	210.45
1010.18	210.31
1010.47	210.30
1010.76	210.33
1011.04	210.29
1011.33	210.16
1011.62	210.19
1011.91	210.30
1012.19	210.35
1012.48	210.44
1012.77	210.39
1013.05	210.55
1013.34	210.54
1013.63	210.60
1013.92	210.67
1014.20	210.66
1014.49	210.59
1014.78	210.69
1015.06	210.55
1015.35	210.56
1015.64	210.60
1015.92	210.69
1016.21	210.67
1016.50	210.59
1016.78	210.61
1017.07	210.62
1017.36	210.61
1017.64	210.54
1017.93	210.49
1018.22	210.47
1018.50	210.49
1018.79	210.53
1019.08	210.34
1019.36	210.43
1019.65	210.37
1019.93	210.43
1020.22	210.48
1020.51	210.66
1020.79	210.58
1021.08	210.00
1021.36	211.45
1021.65	210.85
1021.94	209.65
1022.22	211.90
1022.51	209.65
1022.79	211.95
1023.08	210.70
1023.36	214.30
1023.65	209.65
>>>>>End Processed Spectral Data<<<<<
