SpectraSuite Data File
++++++++++++++++++++++++++++++++++++
Date: Mon Feb 25 17:20:37 EST 2013
User: group
Dark Spectrum Present: No
Reference Spectrum Present: No
Number of Sampled Component Spectra: 1
Spectrometers: USB2E7196
Integration Time (usec): 104000 (USB2E7196)
Spectra Averaged: 20 (USB2E7196)
Boxcar Smoothing: 10 (USB2E7196)
Correct for Electrical Dark: No (USB2E7196)
Strobe/Lamp Enabled: No (USB2E7196)
Correct for Detector Non-linearity: No (USB2E7196)
Correct for Stray Light: No (USB2E7196)
Number of Pixels in Processed Spectrum: 2048
>>>>>Begin Processed Spectral Data<<<<<
339.09	0.00
339.48	199.70
339.86	200.20
340.24	201.20
340.63	204.05
341.01	210.95
341.39	205.90
341.78	206.45
342.16	209.60
342.54	208.75
342.93	198.76
343.31	208.74
343.69	209.25
344.07	209.73
344.46	210.18
344.84	210.60
345.22	210.64
345.60	210.99
345.99	211.29
346.37	211.43
346.75	211.62
347.13	211.73
347.52	211.87
347.90	212.03
348.28	212.12
348.66	212.33
349.05	212.27
349.43	212.39
349.81	212.50
350.19	212.57
350.57	212.73
350.96	212.78
351.34	212.93
351.72	213.06
352.10	213.18
352.48	213.34
352.87	213.34
353.25	213.42
353.63	213.42
354.01	213.46
354.39	213.54
354.77	213.60
355.15	213.76
355.54	213.78
355.92	213.79
356.30	213.81
356.68	214.03
357.06	214.05
357.44	214.08
357.82	214.17
358.20	214.23
358.58	214.21
358.97	214.30
359.35	214.43
359.73	214.59
360.11	214.63
360.49	214.68
360.87	214.71
361.25	214.78
361.63	214.90
362.01	214.98
362.39	215.05
362.77	215.14
363.15	215.08
363.53	215.10
363.91	215.13
364.29	215.16
364.67	214.89
365.05	214.93
365.43	214.95
365.81	214.96
366.19	215.16
366.57	215.29
366.95	215.26
367.33	215.26
367.71	215.23
368.09	215.35
368.47	215.34
368.85	215.39
369.23	215.38
369.61	215.29
369.99	215.32
370.37	215.25
370.75	215.33
371.13	215.25
371.51	215.19
371.89	215.14
372.27	215.20
372.65	215.20
373.03	215.25
373.41	215.25
373.78	215.17
374.16	214.96
374.54	214.84
374.92	214.78
375.30	214.74
375.68	214.66
376.06	214.64
376.44	214.53
376.82	214.57
377.19	214.58
377.57	214.60
377.95	214.50
378.33	214.48
378.71	214.24
379.09	214.30
379.47	214.24
379.84	214.18
380.22	214.08
380.60	213.94
380.98	213.84
381.36	213.70
381.73	213.69
382.11	213.75
382.49	213.77
382.87	213.67
383.25	213.59
383.62	213.95
384.00	213.79
384.38	213.76
384.76	213.75
385.13	213.80
385.51	213.78
385.89	213.66
386.27	213.68
386.64	213.69
387.02	213.56
387.40	213.53
387.78	213.56
388.15	213.55
388.53	213.58
388.91	213.56
389.29	213.58
389.66	213.59
390.04	213.49
390.42	213.50
390.79	213.51
391.17	213.57
391.55	213.17
391.92	213.19
392.30	213.25
392.68	213.15
393.05	213.17
393.43	213.18
393.81	213.25
394.18	213.13
394.56	213.15
394.94	213.35
395.31	213.40
395.69	213.52
396.06	213.65
396.44	213.65
396.82	213.65
397.19	213.85
397.57	213.88
397.95	214.02
398.32	213.99
398.70	214.05
399.07	214.10
399.45	214.10
399.82	214.16
400.20	214.17
400.58	214.22
400.95	214.09
401.33	214.19
401.70	214.52
402.08	214.66
402.45	214.66
402.83	214.75
403.20	214.87
403.58	214.90
403.95	214.98
404.33	215.14
404.71	215.26
405.08	215.55
405.46	215.70
405.83	215.88
406.21	216.07
406.58	216.36
406.96	216.61
407.33	216.91
407.70	217.16
408.08	217.77
408.45	218.15
408.83	218.62
409.20	218.94
409.58	219.12
409.95	219.58
410.33	220.21
410.70	220.63
411.08	221.12
411.45	221.60
411.82	222.20
412.20	222.98
412.57	223.97
412.95	224.40
413.32	225.23
413.69	225.93
414.07	226.78
414.44	227.67
414.82	228.71
415.19	229.88
415.56	231.10
415.94	232.10
416.31	233.48
416.68	234.83
417.06	236.42
417.43	238.00
417.81	239.69
418.18	241.33
418.55	243.19
418.93	245.24
419.30	247.37
419.67	249.49
420.04	251.60
420.42	253.81
420.79	256.64
421.16	259.32
421.54	262.27
421.91	265.15
422.28	268.08
422.66	271.24
423.03	274.48
423.40	277.64
423.77	281.07
424.15	284.55
424.52	288.17
424.89	292.18
425.26	296.02
425.64	299.63
426.01	303.66
426.38	307.75
426.75	312.00
427.13	316.32
427.50	320.88
427.87	325.71
428.24	330.46
428.61	334.93
428.99	340.08
429.36	345.49
429.73	350.83
430.10	356.21
430.47	361.64
430.85	367.14
431.22	373.14
431.59	379.61
431.96	385.70
432.33	392.35
432.70	398.72
433.08	406.18
433.45	413.46
433.82	420.53
434.19	428.44
434.56	436.27
434.93	443.75
435.30	451.30
435.68	459.45
436.05	467.46
436.42	475.59
436.79	482.80
437.16	490.66
437.53	498.99
437.90	507.26
438.27	515.37
438.64	523.82
439.01	531.64
439.38	538.53
439.75	545.28
440.13	553.07
440.50	560.39
440.87	566.30
441.24	572.47
441.61	579.18
441.98	584.20
442.35	589.80
442.72	595.56
443.09	601.16
443.46	604.38
443.83	606.80
444.20	608.72
444.57	611.48
444.94	612.85
445.31	614.25
445.68	615.54
446.05	616.00
446.42	615.16
446.79	614.07
447.16	612.70
447.53	611.71
447.90	608.38
448.27	605.10
448.64	600.63
449.01	597.30
449.37	591.87
449.74	586.50
450.11	580.23
450.48	573.27
450.85	566.11
451.22	560.07
451.59	554.19
451.96	548.45
452.33	541.12
452.70	534.35
453.07	526.32
453.43	518.15
453.80	510.42
454.17	502.85
454.54	495.95
454.91	488.44
455.28	481.17
455.65	474.37
456.02	467.82
456.38	462.07
456.75	454.90
457.12	448.81
457.49	442.80
457.86	436.89
458.23	432.00
458.59	426.44
458.96	421.09
459.33	416.16
459.70	411.34
460.07	407.52
460.43	402.98
460.80	398.86
461.17	395.43
461.54	391.55
461.91	388.05
462.27	384.29
462.64	381.31
463.01	377.87
463.38	374.64
463.74	371.01
464.11	368.17
464.48	365.68
464.85	362.97
465.21	361.02
465.58	358.86
465.95	356.25
466.32	354.29
466.68	352.07
467.05	349.99
467.42	348.01
467.78	345.91
468.15	343.93
468.52	342.43
468.88	340.21
469.25	338.49
469.62	337.12
469.98	335.70
470.35	334.32
470.72	333.15
471.08	331.71
471.45	330.63
471.82	329.55
472.18	328.35
472.55	327.54
472.92	326.50
473.28	325.62
473.65	324.74
474.02	323.90
474.38	323.39
474.75	323.02
475.11	322.51
475.48	322.14
475.85	321.89
476.21	321.69
476.58	321.73
476.94	321.79
477.31	321.83
477.67	321.82
478.04	321.89
478.41	322.14
478.77	322.80
479.14	323.07
479.50	323.58
479.87	324.22
480.23	324.90
480.60	325.49
480.96	326.29
481.33	327.42
481.69	328.55
482.06	329.50
482.42	330.44
482.79	331.60
483.15	332.95
483.52	334.55
483.88	336.03
484.25	337.71
484.61	339.45
484.98	341.29
485.34	343.49
485.71	345.77
486.07	348.11
486.44	350.33
486.80	353.06
487.17	355.77
487.53	358.69
487.90	361.85
488.26	365.33
488.62	368.88
488.99	372.57
489.35	376.39
489.72	380.62
490.08	384.96
490.44	389.41
490.81	394.08
491.17	399.03
491.54	404.36
491.90	409.81
492.26	415.64
492.63	421.69
492.99	427.95
493.36	434.63
493.72	441.60
494.08	448.91
494.45	456.52
494.81	464.66
495.17	473.07
495.54	481.85
495.90	490.99
496.26	500.57
496.63	510.25
496.99	520.55
497.35	531.28
497.72	542.50
498.08	554.09
498.44	566.21
498.80	579.19
499.17	592.43
499.53	605.89
499.89	620.02
500.26	634.44
500.62	649.21
500.98	665.06
501.34	681.24
501.71	698.08
502.07	715.21
502.43	732.71
502.79	750.65
503.16	769.43
503.52	788.53
503.88	808.10
504.24	828.52
504.60	849.25
504.97	870.72
505.33	892.61
505.69	915.93
506.05	939.21
506.41	962.59
506.78	986.52
507.14	1011.14
507.50	1036.29
507.86	1062.22
508.22	1088.79
508.59	1115.49
508.95	1142.91
509.31	1170.58
509.67	1199.22
510.03	1228.28
510.39	1258.56
510.75	1288.84
511.12	1319.38
511.48	1350.33
511.84	1381.91
512.20	1413.62
512.56	1446.16
512.92	1479.14
513.28	1511.79
513.64	1544.91
514.00	1578.43
514.37	1612.10
514.73	1646.63
515.09	1680.90
515.45	1715.21
515.81	1750.23
516.17	1785.09
516.53	1819.94
516.89	1855.17
517.25	1890.46
517.61	1925.67
517.97	1960.20
518.33	1995.00
518.69	2030.34
519.05	2066.07
519.41	2101.71
519.77	2137.77
520.13	2172.47
520.49	2207.46
520.85	2242.85
521.21	2278.58
521.57	2314.50
521.93	2349.44
522.29	2385.54
522.65	2421.66
523.01	2457.08
523.37	2491.16
523.73	2526.02
524.09	2561.05
524.45	2596.15
524.81	2631.05
525.17	2665.84
525.53	2700.63
525.89	2735.24
526.25	2769.26
526.61	2802.01
526.97	2834.77
527.33	2867.19
527.68	2900.46
528.04	2932.17
528.40	2963.40
528.76	2994.32
529.12	3025.67
529.48	3058.32
529.84	3088.94
530.20	3118.64
530.56	3149.08
530.91	3180.73
531.27	3211.03
531.63	3240.18
531.99	3269.17
532.35	3296.80
532.71	3324.36
533.07	3352.83
533.42	3379.23
533.78	3406.44
534.14	3433.19
534.50	3457.88
534.86	3484.00
535.21	3508.17
535.57	3534.30
535.93	3558.41
536.29	3582.27
536.65	3605.71
537.00	3627.29
537.36	3647.96
537.72	3668.96
538.08	3689.47
538.44	3709.71
538.79	3729.84
539.15	3750.05
539.51	3769.44
539.87	3789.99
540.22	3809.38
540.58	3828.02
540.94	3846.75
541.29	3863.26
541.65	3879.02
542.01	3896.03
542.37	3911.17
542.72	3927.25
543.08	3941.06
543.44	3956.56
543.79	3970.15
544.15	3982.36
544.51	3995.15
544.87	4007.59
545.22	4019.17
545.58	4029.62
545.94	4038.33
546.29	4046.12
546.65	4053.27
547.01	4059.58
547.36	4064.45
547.72	4069.25
548.07	4072.43
548.43	4076.00
548.79	4079.76
549.14	4084.00
549.50	4087.24
549.86	4089.59
550.21	4091.18
550.57	4092.77
550.92	4093.02
551.28	4094.05
551.64	4094.49
551.99	4094.53
552.35	4094.53
552.70	4094.55
553.06	4094.62
553.41	4094.67
553.77	4094.79
554.13	4094.85
554.48	4094.87
554.84	4094.90
555.19	4094.90
555.55	4094.89
555.90	4094.45
556.26	4093.86
556.61	4092.89
556.97	4091.49
557.32	4090.81
557.68	4089.11
558.03	4087.57
558.39	4085.84
558.74	4084.15
559.10	4083.13
559.45	4081.79
559.81	4080.61
560.16	4077.69
560.52	4075.38
560.87	4072.24
561.23	4067.99
561.58	4064.85
561.94	4060.29
562.29	4055.55
562.64	4051.07
563.00	4046.76
563.35	4042.42
563.71	4038.26
564.06	4032.77
564.42	4028.33
564.77	4023.54
565.12	4018.56
565.48	4012.91
565.83	4007.44
566.19	4002.30
566.54	3994.50
566.89	3987.21
567.25	3980.28
567.60	3973.72
567.96	3966.11
568.31	3959.26
568.66	3951.76
569.02	3943.04
569.37	3934.46
569.72	3926.70
570.08	3917.47
570.43	3907.64
570.78	3897.58
571.14	3886.50
571.49	3876.76
571.84	3867.15
572.20	3855.39
572.55	3845.37
572.90	3833.90
573.26	3821.55
573.61	3809.11
573.96	3797.60
574.31	3784.63
574.67	3770.99
575.02	3757.05
575.37	3743.69
575.72	3729.21
576.08	3717.37
576.43	3703.65
576.78	3691.30
577.13	3679.05
577.49	3666.91
577.84	3654.38
578.19	3642.49
578.54	3631.31
578.90	3619.86
579.25	3606.39
579.60	3592.50
579.95	3578.01
580.30	3565.90
580.66	3554.23
581.01	3540.87
581.36	3527.41
581.71	3514.40
582.06	3501.69
582.42	3489.34
582.77	3475.61
583.12	3462.65
583.47	3449.53
583.82	3437.46
584.17	3424.23
584.53	3410.92
584.88	3397.40
585.23	3383.95
585.58	3370.14
585.93	3355.98
586.28	3342.40
586.63	3328.84
586.98	3316.48
587.34	3304.25
587.69	3290.73
588.04	3277.30
588.39	3264.58
588.74	3251.10
589.09	3238.89
589.44	3225.55
589.79	3213.17
590.14	3201.72
590.49	3189.37
590.84	3176.22
591.19	3165.00
591.54	3152.58
591.89	3137.82
592.25	3124.53
592.60	3110.72
592.95	3096.67
593.30	3082.14
593.65	3067.52
594.00	3053.82
594.35	3042.22
594.70	3028.60
595.05	3015.90
595.40	3002.64
595.75	2988.60
596.10	2976.27
596.45	2963.75
596.80	2952.18
597.15	2940.12
597.50	2926.72
597.85	2914.40
598.19	2901.62
598.54	2888.21
598.89	2876.25
599.24	2866.15
599.59	2854.57
599.94	2844.66
600.29	2833.73
600.64	2822.83
600.99	2810.80
601.34	2799.63
601.69	2786.36
602.04	2774.13
602.39	2761.71
602.74	2750.35
603.08	2740.35
603.43	2730.06
603.78	2718.66
604.13	2707.49
604.48	2696.02
604.83	2686.52
605.18	2676.86
605.53	2665.77
605.87	2654.03
606.22	2643.26
606.57	2631.50
606.92	2620.01
607.27	2607.58
607.62	2595.81
607.96	2585.06
608.31	2575.47
608.66	2563.79
609.01	2551.95
609.36	2540.47
609.70	2527.94
610.05	2515.40
610.40	2502.83
610.75	2489.77
611.10	2478.24
611.44	2464.17
611.79	2450.76
612.14	2436.43
612.49	2421.49
612.83	2408.76
613.18	2395.09
613.53	2381.19
613.88	2366.86
614.22	2354.09
614.57	2341.02
614.92	2328.13
615.27	2314.16
615.61	2300.13
615.96	2287.40
616.31	2275.64
616.65	2263.95
617.00	2252.56
617.35	2240.32
617.70	2227.49
618.04	2213.95
618.39	2199.47
618.74	2187.07
619.08	2174.54
619.43	2162.27
619.78	2150.75
620.12	2138.32
620.47	2126.54
620.82	2113.55
621.16	2101.15
621.51	2088.29
621.85	2075.82
622.20	2063.00
622.55	2050.91
622.89	2038.15
623.24	2025.45
623.59	2012.30
623.93	1999.37
624.28	1986.90
624.62	1974.50
624.97	1962.23
625.32	1951.25
625.66	1940.21
626.01	1928.74
626.35	1917.44
626.70	1905.79
627.04	1894.13
627.39	1882.71
627.73	1871.23
628.08	1860.62
628.43	1849.07
628.77	1837.64
629.12	1825.84
629.46	1815.47
629.81	1804.59
630.15	1793.73
630.50	1782.80
630.84	1771.40
631.19	1760.43
631.53	1749.78
631.88	1738.39
632.22	1727.11
632.57	1715.88
632.91	1704.67
633.26	1693.61
633.60	1682.46
633.95	1671.98
634.29	1661.04
634.64	1650.52
634.98	1639.48
635.32	1628.84
635.67	1619.13
636.01	1609.19
636.36	1598.66
636.70	1588.05
637.05	1577.59
637.39	1567.51
637.73	1557.96
638.08	1549.15
638.42	1539.77
638.77	1529.57
639.11	1519.93
639.45	1510.32
639.80	1500.18
640.14	1490.30
640.49	1480.36
640.83	1470.45
641.17	1460.49
641.52	1450.43
641.86	1439.73
642.20	1429.91
642.55	1419.27
642.89	1408.98
643.23	1398.27
643.58	1389.11
643.92	1378.65
644.26	1368.67
644.61	1358.92
644.95	1348.42
645.29	1337.98
645.64	1327.55
645.98	1317.75
646.32	1308.21
646.66	1298.28
647.01	1288.73
647.35	1279.29
647.69	1269.22
648.04	1259.70
648.38	1249.97
648.72	1240.48
649.06	1231.21
649.41	1221.75
649.75	1212.13
650.09	1202.84
650.43	1193.91
650.78	1184.01
651.12	1174.63
651.46	1165.52
651.80	1156.48
652.14	1147.34
652.49	1137.94
652.83	1128.56
653.17	1118.79
653.51	1109.33
653.85	1100.24
654.20	1091.44
654.54	1082.03
654.88	1073.39
655.22	1064.12
655.56	1054.92
655.90	1045.85
656.25	1036.96
656.59	1028.03
656.93	1019.81
657.27	1011.29
657.61	1002.30
657.95	994.10
658.29	986.16
658.64	977.79
658.98	969.28
659.32	960.82
659.66	952.67
660.00	944.51
660.34	936.53
660.68	928.28
661.02	920.10
661.36	912.25
661.70	904.46
662.05	896.95
662.39	889.98
662.73	882.89
663.07	875.96
663.41	868.84
663.75	861.80
664.09	854.66
664.43	847.34
664.77	840.57
665.11	833.51
665.45	826.58
665.79	819.68
666.13	812.92
666.47	806.41
666.81	800.05
667.15	793.66
667.49	787.55
667.83	781.74
668.17	775.79
668.51	769.79
668.85	763.96
669.19	758.15
669.53	752.08
669.87	745.96
670.21	739.89
670.55	734.09
670.89	728.73
671.23	723.34
671.57	718.09
671.91	712.60
672.25	707.28
672.58	701.71
672.92	696.46
673.26	691.30
673.60	686.23
673.94	680.83
674.28	675.67
674.62	670.85
674.96	665.88
675.30	661.14
675.64	656.24
675.97	651.55
676.31	646.89
676.65	642.21
676.99	637.94
677.33	633.44
677.67	628.82
678.01	623.90
678.34	619.13
678.68	614.48
679.02	609.86
679.36	605.33
679.70	601.23
680.04	596.90
680.37	592.53
680.71	588.22
681.05	584.33
681.39	580.34
681.73	576.11
682.06	572.18
682.40	568.16
682.74	564.06
683.08	560.03
683.42	555.76
683.75	551.95
684.09	547.68
684.43	543.82
684.77	539.86
685.10	536.17
685.44	532.41
685.78	528.68
686.12	525.27
686.45	521.83
686.79	518.17
687.13	514.83
687.46	511.50
687.80	508.14
688.14	504.37
688.48	500.98
688.81	497.41
689.15	493.81
689.49	490.36
689.82	487.06
690.16	483.52
690.50	480.15
690.83	476.69
691.17	473.48
691.51	470.10
691.84	467.08
692.18	464.02
692.52	461.10
692.85	458.29
693.19	455.25
693.52	452.16
693.86	449.18
694.20	446.26
694.53	443.26
694.87	440.14
695.21	437.46
695.54	434.43
695.88	431.59
696.21	428.78
696.55	426.08
696.88	423.25
697.22	420.63
697.56	418.18
697.89	415.45
698.23	412.99
698.56	410.52
698.90	408.16
699.23	405.56
699.57	403.06
699.90	400.50
700.24	398.01
700.58	395.65
700.91	393.39
701.25	391.20
701.58	388.92
701.92	386.80
702.25	384.54
702.59	382.52
702.92	380.37
703.26	378.24
703.59	376.23
703.93	374.62
704.26	372.59
704.60	370.54
704.93	368.57
705.26	366.48
705.60	364.62
705.93	362.58
706.27	360.93
706.60	359.20
706.94	357.55
707.27	355.76
707.61	353.87
707.94	352.03
708.27	349.99
708.61	348.18
708.94	346.50
709.28	344.84
709.61	343.12
709.94	341.60
710.28	340.12
710.61	338.63
710.95	336.70
711.28	335.45
711.61	333.93
711.95	332.59
712.28	331.15
712.61	329.65
712.95	328.32
713.28	326.83
713.61	325.45
713.95	323.92
714.28	322.59
714.61	321.25
714.95	319.88
715.28	318.50
715.61	317.22
715.95	315.90
716.28	314.48
716.61	313.18
716.95	311.89
717.28	310.62
717.61	309.32
717.94	308.17
718.28	306.82
718.61	305.70
718.94	304.49
719.27	303.32
719.61	302.23
719.94	301.11
720.27	299.90
720.60	298.77
720.94	297.75
721.27	296.80
721.60	295.94
721.93	294.94
722.27	294.17
722.60	293.35
722.93	292.43
723.26	291.63
723.59	290.68
723.93	289.86
724.26	288.89
724.59	287.90
724.92	287.06
725.25	286.17
725.59	285.32
725.92	284.56
726.25	283.84
726.58	283.05
726.91	282.21
727.24	281.59
727.57	280.83
727.91	280.05
728.24	279.27
728.57	278.41
728.90	277.78
729.23	276.92
729.56	276.37
729.89	275.57
730.22	274.78
730.55	274.03
730.89	273.26
731.22	272.57
731.55	271.94
731.88	271.26
732.21	270.59
732.54	269.79
732.87	269.01
733.20	268.29
733.53	267.60
733.86	266.97
734.19	266.20
734.52	265.55
734.85	265.20
735.18	264.52
735.51	264.14
735.84	263.55
736.17	263.09
736.50	262.19
736.83	262.03
737.16	261.50
737.49	261.07
737.82	260.47
738.15	259.93
738.48	259.38
738.81	258.75
739.14	258.16
739.47	257.71
739.80	257.20
740.13	256.70
740.46	256.10
740.79	255.58
741.12	255.05
741.45	254.46
741.78	253.71
742.11	253.39
742.44	252.65
742.77	252.19
743.10	251.62
743.43	251.10
743.75	250.27
744.08	250.26
744.41	249.77
744.74	249.33
745.07	248.86
745.40	248.46
745.73	248.24
746.06	247.86
746.39	247.48
746.71	247.05
747.04	246.68
747.37	246.21
747.70	245.85
748.03	245.45
748.36	245.14
748.68	244.73
749.01	244.18
749.34	243.83
749.67	243.41
750.00	243.10
750.33	242.98
750.65	242.58
750.98	241.70
751.31	241.38
751.64	240.98
751.97	240.85
752.29	240.50
752.62	239.90
752.95	239.55
753.28	239.10
753.60	238.76
753.93	238.46
754.26	238.29
754.59	237.81
754.91	237.46
755.24	237.13
755.57	236.87
755.90	236.60
756.22	236.35
756.55	235.96
756.88	235.55
757.20	235.05
757.53	234.76
757.86	234.52
758.19	234.19
758.51	233.93
758.84	233.41
759.17	233.07
759.49	232.95
759.82	232.81
760.15	232.65
760.47	232.44
760.80	232.04
761.13	231.77
761.45	231.54
761.78	231.28
762.11	231.05
762.43	230.75
762.76	230.41
763.08	230.23
763.41	230.09
763.74	229.90
764.06	229.70
764.39	229.50
764.71	229.23
765.04	228.99
765.37	228.76
765.69	228.63
766.02	228.45
766.34	228.21
766.67	227.85
767.00	227.64
767.32	227.61
767.65	227.66
767.97	227.51
768.30	227.43
768.62	227.27
768.95	227.13
769.27	227.00
769.60	226.93
769.92	226.67
770.25	226.44
770.57	226.23
770.90	226.07
771.22	225.79
771.55	225.72
771.87	225.63
772.20	225.55
772.52	225.65
772.85	225.89
773.17	225.73
773.50	225.62
773.82	225.49
774.15	225.14
774.47	224.78
774.80	224.63
775.12	224.41
775.45	224.28
775.77	224.13
776.09	224.04
776.42	223.95
776.74	223.91
777.07	223.82
777.39	223.71
777.72	223.57
778.04	223.52
778.36	223.39
778.69	223.28
779.01	223.11
779.33	222.73
779.66	222.26
779.98	222.14
780.31	221.98
780.63	222.05
780.95	221.99
781.28	221.95
781.60	221.79
781.92	221.71
782.25	221.60
782.57	221.47
782.89	221.34
783.22	221.15
783.54	220.95
783.86	220.86
784.19	220.78
784.51	220.78
784.83	220.67
785.16	220.52
785.48	220.34
785.80	220.25
786.12	220.25
786.45	220.15
786.77	220.14
787.09	220.08
787.42	219.81
787.74	219.75
788.06	219.66
788.38	219.61
788.71	219.48
789.03	219.49
789.35	219.48
789.67	219.28
789.99	219.25
790.32	219.10
790.64	219.04
790.96	219.27
791.28	219.09
791.61	219.02
791.93	218.96
792.25	218.92
792.57	219.07
792.89	218.86
793.21	218.78
793.54	218.64
793.86	218.53
794.18	218.55
794.50	218.32
794.82	218.26
795.14	218.20
795.47	218.22
795.79	218.11
796.11	217.92
796.43	217.89
796.75	217.87
797.07	217.82
797.39	217.75
797.71	217.40
798.04	217.35
798.36	217.26
798.68	217.18
799.00	217.18
799.32	216.92
799.64	217.01
799.96	216.98
800.28	216.96
800.60	216.85
800.92	216.82
801.24	216.85
801.56	216.83
801.89	216.80
802.21	216.84
802.53	216.76
802.85	216.90
803.17	217.00
803.49	216.86
803.81	216.80
804.13	216.82
804.45	216.82
804.77	216.83
805.09	216.90
805.41	216.82
805.73	216.69
806.05	216.62
806.37	216.50
806.69	216.44
807.01	216.39
807.33	216.46
807.65	216.29
807.97	216.45
808.28	216.27
808.60	216.15
808.92	216.09
809.24	216.25
809.56	216.13
809.88	216.05
810.20	216.05
810.52	216.17
810.84	216.05
811.16	215.95
811.48	215.91
811.80	215.97
812.12	216.03
812.43	216.12
812.75	216.11
813.07	216.01
813.39	216.08
813.71	215.99
814.03	215.91
814.35	215.88
814.67	215.73
814.98	215.76
815.30	215.75
815.62	215.56
815.94	215.36
816.26	215.30
816.58	215.11
816.89	215.16
817.21	214.97
817.53	214.98
817.85	214.89
818.17	214.90
818.48	214.71
818.80	214.69
819.12	214.59
819.44	214.50
819.76	214.45
820.07	214.37
820.39	214.38
820.71	214.43
821.03	214.40
821.34	214.31
821.66	214.27
821.98	214.30
822.30	214.26
822.61	214.39
822.93	214.37
823.25	214.41
823.57	214.27
823.88	214.32
824.20	214.27
824.52	214.31
824.83	214.19
825.15	214.11
825.47	214.07
825.79	214.04
826.10	214.01
826.42	213.97
826.74	214.01
827.05	213.97
827.37	213.92
827.69	213.91
828.00	213.86
828.32	213.92
828.64	213.84
828.95	214.05
829.27	213.87
829.58	213.84
829.90	213.83
830.22	213.82
830.53	213.80
830.85	213.69
831.17	213.60
831.48	213.56
831.80	213.53
832.11	213.45
832.43	213.39
832.75	213.36
833.06	213.63
833.38	213.47
833.69	213.43
834.01	213.35
834.32	213.35
834.64	213.33
834.96	213.33
835.27	213.34
835.59	213.18
835.90	213.14
836.22	213.14
836.53	213.09
836.85	213.07
837.16	213.40
837.48	213.45
837.79	213.62
838.11	213.59
838.42	213.59
838.74	213.59
839.05	213.57
839.37	213.59
839.68	213.39
840.00	213.36
840.31	213.43
840.63	213.46
840.94	213.41
841.26	213.36
841.57	213.28
841.88	213.31
842.20	213.29
842.51	213.29
842.83	213.32
843.14	213.61
843.46	213.56
843.77	213.36
844.08	213.31
844.40	213.24
844.71	213.29
845.03	213.35
845.34	213.38
845.65	213.38
845.97	213.34
846.28	213.27
846.60	213.33
846.91	213.22
847.22	213.15
847.54	213.11
847.85	213.16
848.16	213.11
848.48	213.01
848.79	213.09
849.10	213.05
849.42	212.99
849.73	212.65
850.04	212.66
850.36	212.54
850.67	212.61
850.98	212.50
851.30	212.53
851.61	212.45
851.92	212.47
852.23	212.59
852.55	212.62
852.86	212.66
853.17	212.62
853.49	212.74
853.80	212.85
854.11	212.90
854.42	212.89
854.74	212.88
855.05	212.90
855.36	212.77
855.67	212.82
855.99	212.87
856.30	213.31
856.61	213.24
856.92	213.25
857.23	213.19
857.55	213.21
857.86	213.12
858.17	213.17
858.48	213.08
858.79	213.01
859.11	213.06
859.42	213.05
859.73	213.01
860.04	212.95
860.35	212.81
860.66	212.73
860.98	212.72
861.29	212.70
861.60	212.67
861.91	212.71
862.22	212.58
862.53	212.47
862.84	212.00
863.16	212.12
863.47	212.05
863.78	212.03
864.09	212.03
864.40	212.00
864.71	211.96
865.02	211.96
865.33	211.88
865.64	211.76
865.95	211.73
866.27	211.99
866.58	211.95
866.89	212.02
867.20	212.04
867.51	212.03
867.82	212.04
868.13	212.17
868.44	212.12
868.75	212.23
869.06	212.23
869.37	212.26
869.68	212.17
869.99	212.15
870.30	212.18
870.61	212.21
870.92	212.19
871.23	212.18
871.54	212.24
871.85	212.29
872.16	212.37
872.47	212.29
872.78	212.03
873.09	212.06
873.40	211.98
873.71	211.96
874.02	211.93
874.33	211.94
874.64	211.79
874.95	211.85
875.26	211.76
875.56	211.78
875.87	211.79
876.18	211.82
876.49	212.13
876.80	212.21
877.11	212.13
877.42	212.19
877.73	212.20
878.04	212.17
878.35	212.19
878.66	212.18
878.96	212.23
879.27	212.20
879.58	212.17
879.89	212.20
880.20	212.39
880.51	212.37
880.82	212.39
881.12	212.45
881.43	212.34
881.74	212.37
882.05	212.34
882.36	212.36
882.67	212.37
882.97	212.07
883.28	211.91
883.59	211.95
883.90	211.99
884.21	212.08
884.51	212.05
884.82	212.06
885.13	212.06
885.44	212.10
885.74	212.19
886.05	212.18
886.36	212.19
886.67	212.03
886.98	212.27
887.28	212.30
887.59	212.29
887.90	212.40
888.20	212.36
888.51	212.46
888.82	212.41
889.13	212.46
889.43	212.79
889.74	212.78
890.05	212.76
890.35	212.71
890.66	212.66
890.97	212.63
891.28	212.56
891.58	212.60
891.89	212.64
892.20	212.64
892.50	212.67
892.81	212.69
893.12	212.71
893.42	212.51
893.73	212.51
894.04	212.40
894.34	212.42
894.65	212.46
894.95	212.42
895.26	212.47
895.57	212.57
895.87	212.20
896.18	212.22
896.48	212.24
896.79	212.20
897.10	212.27
897.40	212.31
897.71	212.46
898.01	212.40
898.32	212.37
898.63	212.34
898.93	212.30
899.24	212.27
899.54	212.25
899.85	212.25
900.15	212.25
900.46	212.34
900.76	212.35
901.07	212.26
901.38	212.22
901.68	212.18
901.99	211.97
902.29	212.02
902.60	212.06
902.90	211.99
903.21	211.98
903.51	211.93
903.82	211.96
904.12	211.90
904.43	211.88
904.73	211.85
905.03	211.84
905.34	212.21
905.64	212.13
905.95	212.11
906.25	212.08
906.56	212.04
906.86	212.07
907.17	212.02
907.47	212.13
907.77	212.06
908.08	211.99
908.38	212.01
908.69	212.04
908.99	212.10
909.30	212.13
909.60	212.19
909.90	212.18
910.21	212.04
910.51	211.90
910.81	211.95
911.12	211.98
911.42	211.99
911.73	211.60
912.03	211.65
912.33	211.76
912.64	211.77
912.94	211.75
913.24	211.68
913.55	211.63
913.85	211.53
914.15	211.68
914.46	211.80
914.76	211.79
915.06	211.79
915.37	211.70
915.67	211.64
915.97	211.57
916.27	211.50
916.58	211.60
916.88	211.55
917.18	211.49
917.49	211.71
917.79	211.70
918.09	211.69
918.39	211.81
918.70	211.69
919.00	211.68
919.30	211.83
919.60	211.78
919.91	211.73
920.21	211.79
920.51	211.68
920.81	211.64
921.12	211.70
921.42	211.67
921.72	211.71
922.02	211.80
922.32	211.85
922.63	211.88
922.93	212.05
923.23	212.14
923.53	212.06
923.83	211.87
924.13	211.91
924.44	211.99
924.74	211.97
925.04	212.10
925.34	212.10
925.64	211.94
925.94	212.00
926.24	212.21
926.55	212.14
926.85	212.22
927.15	212.13
927.45	212.20
927.75	212.24
928.05	212.25
928.35	212.20
928.65	212.28
928.95	212.34
929.26	212.16
929.56	212.27
929.86	212.34
930.16	212.36
930.46	212.32
930.76	212.33
931.06	212.18
931.36	212.06
931.66	212.15
931.96	212.22
932.26	212.26
932.56	212.15
932.86	212.18
933.16	212.15
933.46	212.20
933.76	212.06
934.06	212.14
934.36	212.31
934.66	212.36
934.96	212.23
935.26	212.22
935.56	212.28
935.86	212.15
936.16	212.10
936.46	212.02
936.76	212.03
937.06	211.99
937.36	212.06
937.66	212.10
937.96	212.04
938.26	212.01
938.56	211.86
938.86	211.90
939.16	212.04
939.46	212.08
939.76	212.10
940.06	212.10
940.35	211.97
940.65	211.73
940.95	211.68
941.25	211.70
941.55	211.64
941.85	211.62
942.15	211.73
942.45	211.84
942.75	211.80
943.04	211.77
943.34	211.83
943.64	211.75
943.94	211.66
944.24	211.67
944.54	211.64
944.84	211.69
945.13	211.60
945.43	211.48
945.73	211.44
946.03	211.35
946.33	211.33
946.62	211.26
946.92	211.21
947.22	211.27
947.52	211.27
947.82	211.30
948.11	211.28
948.41	211.17
948.71	211.07
949.01	211.11
949.31	211.05
949.60	211.01
949.90	211.15
950.20	211.12
950.50	211.11
950.79	211.12
951.09	211.16
951.39	211.14
951.69	211.08
951.98	211.15
952.28	211.15
952.58	211.13
952.87	211.11
953.17	211.30
953.47	211.20
953.76	211.26
954.06	211.19
954.36	211.09
954.66	211.06
954.95	211.10
955.25	211.10
955.55	211.15
955.84	211.13
956.14	211.10
956.44	211.14
956.73	211.11
957.03	211.06
957.32	211.14
957.62	211.14
957.92	211.20
958.21	211.13
958.51	211.60
958.81	211.64
959.10	211.74
959.40	211.75
959.69	211.87
959.99	211.81
960.29	211.83
960.58	211.82
960.88	211.98
961.17	212.02
961.47	212.01
961.76	211.89
962.06	211.91
962.36	211.81
962.65	211.84
962.95	211.84
963.24	211.82
963.54	211.73
963.83	211.75
964.13	211.78
964.42	211.76
964.72	211.46
965.01	211.52
965.31	211.48
965.60	211.43
965.90	211.58
966.19	211.54
966.49	211.63
966.78	211.67
967.08	211.65
967.37	211.66
967.67	211.64
967.96	211.77
968.26	211.76
968.55	211.86
968.85	211.91
969.14	211.85
969.43	211.91
969.73	211.87
970.02	211.83
970.32	211.79
970.61	211.75
970.91	211.70
971.20	211.67
971.49	211.67
971.79	211.65
972.08	211.42
972.38	211.46
972.67	211.38
972.96	211.41
973.26	211.34
973.55	211.45
973.85	211.47
974.14	211.49
974.43	211.52
974.73	211.46
975.02	211.35
975.31	211.40
975.61	211.34
975.90	211.36
976.19	211.40
976.49	211.44
976.78	211.43
977.07	211.36
977.37	211.36
977.66	211.41
977.95	211.41
978.24	211.40
978.54	211.41
978.83	211.43
979.12	211.38
979.42	211.34
979.71	211.21
980.00	211.18
980.29	211.18
980.59	211.06
980.88	211.16
981.17	211.14
981.46	211.20
981.76	211.20
982.05	211.31
982.34	211.29
982.63	211.30
982.93	211.28
983.22	211.33
983.51	211.37
983.80	211.38
984.09	211.41
984.39	211.35
984.68	211.36
984.97	211.35
985.26	211.33
985.55	211.33
985.85	211.29
986.14	211.33
986.43	211.36
986.72	211.41
987.01	211.28
987.30	211.37
987.59	211.26
987.89	211.33
988.18	211.24
988.47	211.29
988.76	211.28
989.05	211.31
989.34	211.28
989.63	211.32
989.92	211.28
990.22	211.24
990.51	211.20
990.80	211.21
991.09	211.21
991.38	211.29
991.67	211.33
991.96	211.30
992.25	211.32
992.54	211.25
992.83	211.18
993.12	211.17
993.41	211.15
993.70	211.33
993.99	211.37
994.28	211.44
994.58	211.47
994.87	211.45
995.16	211.42
995.45	211.44
995.74	211.33
996.03	211.35
996.32	211.35
996.61	211.47
996.90	211.46
997.19	211.44
997.48	211.45
997.77	211.46
998.06	211.49
998.34	211.46
998.63	211.45
998.92	211.52
999.21	211.61
999.50	211.68
999.79	211.60
1000.08	211.57
1000.37	211.50
1000.66	211.45
1000.95	211.52
1001.24	211.62
1001.53	211.57
1001.82	211.57
1002.11	211.49
1002.40	211.55
1002.68	211.72
1002.97	211.98
1003.26	212.03
1003.55	212.02
1003.84	212.03
1004.13	212.15
1004.42	212.08
1004.71	212.05
1004.99	212.07
1005.28	212.20
1005.57	212.23
1005.86	212.18
1006.15	212.19
1006.44	212.17
1006.72	212.24
1007.01	212.14
1007.30	212.08
1007.59	212.08
1007.88	212.05
1008.17	212.11
1008.45	212.08
1008.74	211.91
1009.03	211.71
1009.32	211.73
1009.60	211.72
1009.89	211.73
1010.18	211.55
1010.47	211.57
1010.76	211.65
1011.04	211.58
1011.33	211.89
1011.62	211.82
1011.91	211.80
1012.19	211.77
1012.48	211.76
1012.77	211.76
1013.05	211.93
1013.34	211.95
1013.63	211.98
1013.92	212.00
1014.20	211.95
1014.49	211.94
1014.78	211.93
1015.06	211.79
1015.35	211.72
1015.64	211.74
1015.92	211.82
1016.21	211.90
1016.50	211.88
1016.78	211.86
1017.07	211.91
1017.36	211.43
1017.64	211.42
1017.93	211.46
1018.22	211.44
1018.50	211.51
1018.79	211.50
1019.08	211.28
1019.36	211.23
1019.65	211.19
1019.93	211.30
1020.22	211.37
1020.51	211.50
1020.79	211.43
1021.08	210.95
1021.36	211.50
1021.65	212.45
1021.94	209.80
1022.22	210.85
1022.51	210.55
1022.79	212.75
1023.08	211.90
1023.36	214.40
1023.65	209.80
>>>>>End Processed Spectral Data<<<<<
