SpectraSuite Data File
++++++++++++++++++++++++++++++++++++
Date: Mon Feb 25 17:03:43 EST 2013
User: group
Dark Spectrum Present: No
Reference Spectrum Present: No
Number of Sampled Component Spectra: 1
Spectrometers: USB2E7196
Integration Time (usec): 104000 (USB2E7196)
Spectra Averaged: 20 (USB2E7196)
Boxcar Smoothing: 10 (USB2E7196)
Correct for Electrical Dark: No (USB2E7196)
Strobe/Lamp Enabled: No (USB2E7196)
Correct for Detector Non-linearity: No (USB2E7196)
Correct for Stray Light: No (USB2E7196)
Number of Pixels in Processed Spectrum: 2048
>>>>>Begin Processed Spectral Data<<<<<
339.09	0.00
339.48	198.45
339.86	199.60
340.24	199.80
340.63	201.00
341.01	209.20
341.39	205.15
341.78	207.10
342.16	207.15
342.54	207.15
342.93	197.77
343.31	207.77
343.69	208.29
344.07	208.74
344.46	209.20
344.84	209.62
345.22	209.64
345.60	209.94
345.99	210.09
346.37	210.20
346.75	210.36
347.13	210.42
347.52	210.46
347.90	210.64
348.28	210.71
348.66	210.87
349.05	210.74
349.43	210.79
349.81	210.84
350.19	210.84
350.57	210.96
350.96	210.98
351.34	211.10
351.72	211.23
352.10	211.37
352.48	211.48
352.87	211.58
353.25	211.70
353.63	211.72
354.01	211.76
354.39	211.94
354.77	211.99
355.15	212.12
355.54	212.20
355.92	212.10
356.30	212.18
356.68	212.37
357.06	212.52
357.44	212.53
357.82	212.55
358.20	212.64
358.58	212.65
358.97	212.81
359.35	212.89
359.73	212.97
360.11	213.03
360.49	213.16
360.87	213.22
361.25	213.26
361.63	213.40
362.01	213.48
362.39	213.46
362.77	213.52
363.15	213.53
363.53	213.50
363.91	213.56
364.29	213.55
364.67	213.27
365.05	213.25
365.43	213.27
365.81	213.30
366.19	213.40
366.57	213.56
366.95	213.52
367.33	213.44
367.71	213.40
368.09	213.43
368.47	213.38
368.85	213.32
369.23	213.42
369.61	213.30
369.99	213.40
370.37	213.39
370.75	213.57
371.13	213.47
371.51	213.40
371.89	213.42
372.27	213.44
372.65	213.45
373.03	213.35
373.41	213.30
373.78	213.26
374.16	213.09
374.54	212.90
374.92	212.76
375.30	212.71
375.68	212.59
376.06	212.52
376.44	212.40
376.82	212.41
377.19	212.32
377.57	212.27
377.95	212.08
378.33	212.03
378.71	211.80
379.09	211.77
379.47	211.79
379.84	211.60
380.22	211.50
380.60	211.38
380.98	211.29
381.36	211.20
381.73	211.09
382.11	211.11
382.49	211.07
382.87	211.06
383.25	210.99
383.62	211.45
384.00	211.37
384.38	211.35
384.76	211.38
385.13	211.44
385.51	211.33
385.89	211.24
386.27	211.18
386.64	211.15
387.02	211.09
387.40	211.02
387.78	211.09
388.15	211.10
388.53	211.02
388.91	211.09
389.29	211.06
389.66	211.08
390.04	210.97
390.42	211.00
390.79	211.01
391.17	211.05
391.55	210.52
391.92	210.45
392.30	210.48
392.68	210.34
393.05	210.30
393.43	210.34
393.81	210.44
394.18	210.40
394.56	210.41
394.94	210.52
395.31	210.47
395.69	210.53
396.06	210.55
396.44	210.57
396.82	210.56
397.19	210.74
397.57	210.73
397.95	210.80
398.32	210.72
398.70	210.78
399.07	210.85
399.45	210.91
399.82	210.99
400.20	210.94
400.58	211.00
400.95	210.92
401.33	211.10
401.70	211.33
402.08	211.46
402.45	211.51
402.83	211.63
403.20	211.80
403.58	211.79
403.95	211.93
404.33	212.14
404.71	212.28
405.08	212.61
405.46	212.72
405.83	212.85
406.21	212.95
406.58	213.01
406.96	213.14
407.33	213.32
407.70	213.58
408.08	214.07
408.45	214.36
408.83	214.60
409.20	214.75
409.58	214.80
409.95	215.10
410.33	215.39
410.70	215.61
411.08	215.99
411.45	216.39
411.82	216.72
412.20	217.24
412.57	217.85
412.95	217.99
413.32	218.62
413.69	219.16
414.07	219.75
414.44	220.42
414.82	221.13
415.19	221.92
415.56	222.59
415.94	223.24
416.31	224.15
416.68	225.15
417.06	226.26
417.43	227.38
417.81	228.52
418.18	229.75
418.55	231.04
418.93	232.44
419.30	233.88
419.67	235.43
420.04	236.96
420.42	238.53
420.79	240.62
421.16	242.46
421.54	244.61
421.91	246.73
422.28	248.89
422.66	251.16
423.03	253.56
423.40	255.94
423.77	258.41
424.15	260.82
424.52	263.43
424.89	266.39
425.26	269.16
425.64	271.87
426.01	274.86
426.38	277.93
426.75	281.13
427.13	284.38
427.50	287.83
427.87	291.37
428.24	294.91
428.61	298.21
428.99	302.15
429.36	306.17
429.73	310.24
430.10	314.26
430.47	318.37
430.85	322.54
431.22	327.15
431.59	332.20
431.96	336.87
432.33	342.15
432.70	347.05
433.08	352.86
433.45	358.46
433.82	364.00
434.19	370.25
434.56	376.15
434.93	382.05
435.30	387.82
435.68	394.35
436.05	400.72
436.42	407.23
436.79	413.14
437.16	419.41
437.53	426.14
437.90	432.76
438.27	439.45
438.64	446.25
439.01	452.62
439.38	458.25
439.75	463.93
440.13	470.17
440.50	476.19
440.87	481.19
441.24	486.31
441.61	491.92
441.98	496.22
442.35	501.28
442.72	506.32
443.09	511.24
443.46	514.23
443.83	516.57
444.20	518.47
444.57	521.00
444.94	522.52
445.31	524.15
445.68	525.89
446.05	526.68
446.42	526.53
446.79	526.42
447.16	525.93
447.53	525.81
447.90	523.79
448.27	521.86
448.64	518.84
449.01	516.89
449.37	513.12
449.74	509.23
450.11	504.74
450.48	499.54
450.85	494.10
451.22	489.66
451.59	485.32
451.96	481.19
452.33	475.60
452.70	470.59
453.07	464.21
453.43	457.85
453.80	452.00
454.17	446.20
454.54	440.48
454.91	434.61
455.28	428.78
455.65	423.43
456.02	418.38
456.38	413.82
456.75	408.03
457.12	403.13
457.49	398.51
457.86	393.73
458.23	389.79
458.59	385.58
458.96	381.23
459.33	377.34
459.70	373.46
460.07	370.47
460.43	366.86
460.80	363.67
461.17	360.73
461.54	357.46
461.91	354.62
462.27	351.64
462.64	349.10
463.01	346.26
463.38	343.58
463.74	340.43
464.11	338.01
464.48	335.84
464.85	333.48
465.21	331.63
465.58	329.79
465.95	327.52
466.32	325.62
466.68	323.64
467.05	321.78
467.42	319.81
467.78	317.79
468.15	316.00
468.52	314.62
468.88	312.79
469.25	311.16
469.62	309.81
469.98	308.41
470.35	307.05
470.72	305.71
471.08	304.19
471.45	303.06
471.82	301.86
472.18	300.60
472.55	299.70
472.92	298.54
473.28	297.53
473.65	296.56
474.02	295.62
474.38	294.94
474.75	294.24
475.11	293.57
475.48	293.00
475.85	292.44
476.21	291.84
476.58	291.30
476.94	290.91
477.31	290.41
477.67	290.00
478.04	289.60
478.41	289.35
478.77	289.51
479.14	289.12
479.50	288.95
479.87	288.82
480.23	288.66
480.60	288.50
480.96	288.36
481.33	288.41
481.69	288.40
482.06	288.34
482.42	288.36
482.79	288.39
483.15	288.40
483.52	288.64
483.88	288.74
484.25	288.96
484.61	289.23
484.98	289.48
485.34	289.90
485.71	290.30
486.07	290.72
486.44	290.72
486.80	291.17
487.17	291.66
487.53	292.35
487.90	293.03
488.26	293.73
488.62	294.37
488.99	295.07
489.35	295.83
489.72	296.59
490.08	297.41
490.44	298.19
490.81	299.09
491.17	299.76
491.54	300.76
491.90	301.70
492.26	302.72
492.63	303.78
492.99	304.78
493.36	305.98
493.72	307.11
494.08	308.41
494.45	309.70
494.81	311.05
495.17	312.27
495.54	313.59
495.90	314.89
496.26	316.38
496.63	317.71
496.99	319.14
497.35	320.57
497.72	321.97
498.08	323.43
498.44	324.83
498.80	326.40
499.17	327.84
499.53	329.38
499.89	330.92
500.26	332.31
500.62	333.70
500.98	335.19
501.34	336.59
501.71	337.98
502.07	339.36
502.43	340.62
502.79	341.84
503.16	343.05
503.52	344.29
503.88	345.45
504.24	346.66
504.60	347.73
504.97	349.01
505.33	350.04
505.69	351.25
506.05	352.39
506.41	353.41
506.78	354.32
507.14	355.23
507.50	356.05
507.86	357.11
508.22	358.08
508.59	358.84
508.95	359.72
509.31	360.72
509.67	361.50
510.03	362.17
510.39	362.87
510.75	363.55
511.12	364.23
511.48	364.75
511.84	365.28
512.20	365.73
512.56	366.06
512.92	366.57
513.28	366.92
513.64	367.29
514.00	367.58
514.37	367.95
514.73	368.30
515.09	368.56
515.45	368.61
515.81	368.63
516.17	368.67
516.53	368.62
516.89	368.37
517.25	368.34
517.61	368.49
517.97	368.56
518.33	368.54
518.69	368.51
519.05	368.55
519.41	368.64
519.77	368.99
520.13	368.99
520.49	368.85
520.85	368.86
521.21	368.98
521.57	369.15
521.93	369.18
522.29	369.27
522.65	369.29
523.01	369.47
523.37	369.61
523.73	369.86
524.09	370.28
524.45	370.59
524.81	370.84
525.17	371.19
525.53	371.45
525.89	371.93
526.25	372.50
526.61	372.87
526.97	373.43
527.33	373.87
527.68	374.76
528.04	375.60
528.40	376.39
528.76	377.11
529.12	377.92
529.48	378.96
529.84	379.83
530.20	380.98
530.56	382.05
530.91	383.40
531.27	384.60
531.63	385.74
531.99	387.01
532.35	388.36
532.71	389.58
533.07	391.17
533.42	393.13
533.78	394.50
534.14	396.17
534.50	397.65
534.86	399.37
535.21	400.71
535.57	402.44
535.93	404.14
536.29	406.17
536.65	408.13
537.00	409.91
537.36	411.88
537.72	413.73
538.08	415.76
538.44	417.57
538.79	419.61
539.15	421.63
539.51	423.97
539.87	426.26
540.22	428.65
540.58	431.00
540.94	432.89
541.29	435.27
541.65	437.46
542.01	439.93
542.37	442.32
542.72	444.98
543.08	447.53
543.44	450.21
543.79	452.46
544.15	454.93
544.51	457.67
544.87	460.35
545.22	463.05
545.58	465.76
545.94	468.45
546.29	471.13
546.65	473.90
547.01	476.51
547.36	479.39
547.72	482.07
548.07	484.66
548.43	487.38
548.79	490.02
549.14	492.83
549.50	495.47
549.86	498.21
550.21	500.89
550.57	503.69
550.92	506.13
551.28	508.90
551.64	511.52
551.99	514.24
552.35	516.75
552.70	519.33
553.06	521.97
553.41	524.59
553.77	527.22
554.13	529.73
554.48	532.31
554.84	534.85
555.19	537.28
555.55	540.00
555.90	542.34
556.26	544.69
556.61	547.08
556.97	549.49
557.32	551.63
557.68	553.96
558.03	556.18
558.39	558.46
558.74	560.85
559.10	563.37
559.45	565.60
559.81	567.95
560.16	570.15
560.52	572.45
560.87	574.80
561.23	576.83
561.58	579.42
561.94	581.46
562.29	583.43
562.64	585.58
563.00	587.39
563.35	589.44
563.71	591.65
564.06	593.86
564.42	595.86
564.77	598.09
565.12	600.01
565.48	602.18
565.83	604.33
566.19	606.20
566.54	607.80
566.89	609.57
567.25	611.49
567.60	613.46
567.96	615.40
568.31	617.21
568.66	619.11
569.02	620.15
569.37	621.60
569.72	622.93
570.08	624.22
570.43	625.39
570.78	626.52
571.14	627.54
571.49	628.45
571.84	629.49
572.20	630.25
572.55	631.30
572.90	631.62
573.26	632.30
573.61	632.81
573.96	633.50
574.31	633.92
574.67	634.21
575.02	634.30
575.37	634.35
575.72	634.30
576.08	634.48
576.43	634.80
576.78	634.93
577.13	635.13
577.49	635.55
577.84	635.83
578.19	636.15
578.54	636.45
578.90	636.74
579.25	636.90
579.60	636.99
579.95	636.68
580.30	637.03
580.66	637.07
581.01	637.02
581.36	637.03
581.71	637.15
582.06	637.25
582.42	637.35
582.77	637.11
583.12	637.09
583.47	637.02
583.82	636.92
584.17	636.88
584.53	637.16
584.88	636.83
585.23	636.72
585.58	636.54
585.93	636.20
586.28	635.99
586.63	635.77
586.98	635.64
587.34	635.73
587.69	635.30
588.04	634.97
588.39	635.04
588.74	634.49
589.09	634.22
589.44	633.63
589.79	633.40
590.14	633.08
590.49	632.61
590.84	632.07
591.19	631.95
591.54	631.46
591.89	630.45
592.25	630.12
592.60	629.37
592.95	628.48
593.30	627.83
593.65	626.92
594.00	626.11
594.35	626.16
594.70	625.15
595.05	624.52
595.40	623.74
595.75	622.56
596.10	621.93
596.45	621.07
596.80	620.40
597.15	619.51
597.50	618.57
597.85	617.83
598.19	616.93
598.54	615.94
598.89	615.30
599.24	614.81
599.59	613.82
599.94	613.20
600.29	612.67
600.64	611.87
600.99	610.95
601.34	610.26
601.69	608.61
602.04	607.68
602.39	606.78
602.74	606.09
603.08	605.54
603.43	604.77
603.78	603.87
604.13	603.01
604.48	602.09
604.83	601.45
605.18	600.61
605.53	599.82
605.87	598.83
606.22	597.87
606.57	596.89
606.92	595.81
607.27	594.86
607.62	593.71
607.96	592.83
608.31	592.18
608.66	591.10
609.01	590.09
609.36	589.08
609.70	587.85
610.05	586.45
610.40	585.18
610.75	583.84
611.10	582.72
611.44	581.19
611.79	579.77
612.14	578.36
612.49	576.89
612.83	575.55
613.18	574.09
613.53	572.58
613.88	570.83
614.22	569.40
614.57	567.85
614.92	566.38
615.27	564.85
615.61	563.25
615.96	561.75
616.31	560.25
616.65	558.98
617.00	557.52
617.35	556.13
617.70	554.47
618.04	552.81
618.39	550.95
618.74	549.57
619.08	548.07
619.43	546.52
619.78	545.03
620.12	543.44
620.47	541.87
620.82	540.12
621.16	538.62
621.51	537.09
621.85	535.44
622.20	533.80
622.55	532.12
622.89	530.38
623.24	528.77
623.59	526.99
623.93	525.30
624.28	523.82
624.62	522.39
624.97	520.89
625.32	519.29
625.66	517.89
626.01	516.28
626.35	514.69
626.70	513.00
627.04	511.60
627.39	509.93
627.73	508.49
628.08	507.16
628.43	505.42
628.77	503.66
629.12	501.95
629.46	500.62
629.81	499.03
630.15	497.35
630.50	495.58
630.84	494.03
631.19	492.30
631.53	490.65
631.88	488.63
632.22	486.86
632.57	485.47
632.91	483.83
633.26	482.25
633.60	480.66
633.95	479.19
634.29	477.27
634.64	475.79
634.98	474.09
635.32	472.51
635.67	471.18
636.01	469.86
636.36	468.47
636.70	466.90
637.05	465.42
637.39	464.04
637.73	462.72
638.08	461.37
638.42	459.99
638.77	458.59
639.11	457.37
639.45	455.99
639.80	454.21
640.14	452.45
640.49	450.89
640.83	449.29
641.17	447.70
641.52	446.22
641.86	444.58
642.20	443.20
642.55	441.45
642.89	439.77
643.23	437.99
643.58	436.70
643.92	434.96
644.26	433.40
644.61	431.80
644.95	430.20
645.29	428.49
645.64	426.91
645.98	425.28
646.32	423.69
646.66	422.13
647.01	420.78
647.35	419.50
647.69	418.01
648.04	416.61
648.38	415.18
648.72	413.80
649.06	412.26
649.41	410.53
649.75	409.00
650.09	407.65
650.43	406.25
650.78	404.36
651.12	402.81
651.46	401.16
651.80	399.70
652.14	398.14
652.49	396.77
652.83	395.25
653.17	393.74
653.51	392.11
653.85	390.58
654.20	389.21
654.54	387.73
654.88	386.11
655.22	384.70
655.56	383.05
655.90	381.55
656.25	380.06
656.59	378.58
656.93	377.24
657.27	375.85
657.61	374.29
657.95	373.04
658.29	371.76
658.64	370.58
658.98	369.17
659.32	367.71
659.66	366.33
660.00	364.95
660.34	363.56
660.68	362.13
661.02	360.66
661.36	359.25
661.70	357.89
662.05	356.62
662.39	355.32
662.73	354.23
663.07	353.05
663.41	351.80
663.75	350.55
664.09	349.24
664.43	347.83
664.77	346.68
665.11	345.48
665.45	344.31
665.79	343.12
666.13	341.87
666.47	340.73
666.81	339.50
667.15	338.32
667.49	337.33
667.83	336.41
668.17	335.36
668.51	334.29
668.85	333.23
669.19	332.36
669.53	331.10
669.87	329.90
670.21	328.80
670.55	327.72
670.89	326.93
671.23	326.04
671.57	325.13
671.91	324.07
672.25	323.10
672.58	322.13
672.92	320.98
673.26	320.07
673.60	319.13
673.94	318.14
674.28	317.21
674.62	316.18
674.96	315.23
675.30	314.38
675.64	313.45
675.97	312.59
676.31	311.65
676.65	310.87
676.99	310.16
677.33	309.13
677.67	308.33
678.01	307.29
678.34	306.36
678.68	305.55
679.02	304.76
679.36	303.86
679.70	302.92
680.04	302.18
680.37	301.35
680.71	300.57
681.05	299.84
681.39	299.01
681.73	298.16
682.06	297.38
682.40	296.60
682.74	295.79
683.08	295.02
683.42	294.21
683.75	293.50
684.09	292.66
684.43	291.95
684.77	291.13
685.10	290.28
685.44	289.46
685.78	288.69
686.12	287.97
686.45	287.20
686.79	286.46
687.13	285.75
687.46	284.97
687.80	284.33
688.14	283.49
688.48	282.98
688.81	282.24
689.15	281.54
689.49	280.82
689.82	280.23
690.16	279.39
690.50	278.68
690.83	277.90
691.17	277.06
691.51	276.48
691.84	275.86
692.18	275.29
692.52	274.68
692.85	274.02
693.19	273.53
693.52	272.86
693.86	272.26
694.20	271.55
694.53	271.05
694.87	270.31
695.21	269.68
695.54	268.93
695.88	268.33
696.21	267.61
696.55	266.97
696.88	266.20
697.22	265.63
697.56	265.19
697.89	264.66
698.23	264.22
698.56	263.59
698.90	263.06
699.23	262.50
699.57	261.95
699.90	261.37
700.24	260.73
700.58	260.25
700.91	259.72
701.25	259.52
701.58	259.05
701.92	258.66
702.25	258.22
702.59	257.71
702.92	257.30
703.26	256.95
703.59	256.50
703.93	256.41
704.26	255.98
704.60	255.41
704.93	254.93
705.26	254.40
705.60	254.07
705.93	253.56
706.27	253.25
706.60	253.01
706.94	252.76
707.27	252.27
707.61	251.84
707.94	251.38
708.27	250.66
708.61	250.23
708.94	249.77
709.28	249.38
709.61	249.00
709.94	248.65
710.28	248.20
710.61	247.89
710.95	247.21
711.28	247.10
711.61	246.77
711.95	246.46
712.28	246.08
712.61	245.73
712.95	245.56
713.28	245.35
713.61	244.85
713.95	244.37
714.28	244.06
714.61	243.75
714.95	243.40
715.28	243.08
715.61	242.72
715.95	242.45
716.28	242.15
716.61	241.93
716.95	241.57
717.28	241.29
717.61	240.96
717.94	240.65
718.28	240.09
718.61	239.79
718.94	239.47
719.27	239.21
719.61	238.91
719.94	238.55
720.27	238.06
720.60	237.81
720.94	237.53
721.27	237.30
721.60	237.06
721.93	236.85
722.27	236.78
722.60	236.52
722.93	236.23
723.26	236.03
723.59	235.62
723.93	235.44
724.26	235.29
724.59	235.00
724.92	234.86
725.25	234.79
725.59	234.50
725.92	234.37
726.25	234.19
726.58	233.93
726.91	233.71
727.24	233.56
727.57	233.35
727.91	233.07
728.24	232.90
728.57	232.61
728.90	232.45
729.23	232.10
729.56	232.04
729.89	231.79
730.22	231.54
730.55	231.38
730.89	231.10
731.22	230.81
731.55	230.67
731.88	230.35
732.21	230.04
732.54	229.85
732.87	229.56
733.20	229.35
733.53	229.22
733.86	229.05
734.19	228.79
734.52	228.78
734.85	228.88
735.18	228.65
735.51	228.73
735.84	228.55
736.17	228.51
736.50	228.21
736.83	228.47
737.16	228.37
737.49	228.25
737.82	228.09
738.15	227.97
738.48	227.81
738.81	227.70
739.14	227.53
739.47	227.36
739.80	227.22
740.13	227.09
740.46	226.80
740.79	226.61
741.12	226.51
741.45	226.19
741.78	225.81
742.11	225.79
742.44	225.49
742.77	225.37
743.10	225.20
743.43	225.02
743.75	224.52
744.08	224.75
744.41	224.56
744.74	224.39
745.07	224.19
745.40	224.10
745.73	224.10
746.06	223.97
746.39	223.90
746.71	223.71
747.04	223.50
747.37	223.46
747.70	223.39
748.03	223.21
748.36	223.19
748.68	223.11
749.01	222.83
749.34	222.73
749.67	222.63
750.00	222.55
750.33	222.71
750.65	222.70
750.98	222.18
751.31	222.08
751.64	221.96
751.97	222.13
752.29	222.02
752.62	221.65
752.95	221.48
753.28	221.32
753.60	221.30
753.93	221.32
754.26	221.19
754.59	221.00
754.91	220.96
755.24	220.78
755.57	220.63
755.90	220.53
756.22	220.38
756.55	220.23
756.88	220.04
757.20	219.69
757.53	219.48
757.86	219.33
758.19	219.30
758.51	219.27
758.84	218.91
759.17	218.78
759.49	218.86
759.82	219.01
760.15	218.96
760.47	218.84
760.80	218.71
761.13	218.70
761.45	218.63
761.78	218.52
762.11	218.40
762.43	218.34
762.76	218.32
763.08	218.30
763.41	218.23
763.74	218.19
764.06	218.12
764.39	218.04
764.71	217.99
765.04	217.82
765.37	217.70
765.69	217.70
766.02	217.64
766.34	217.50
766.67	217.34
767.00	217.37
767.32	217.52
767.65	217.57
767.97	217.49
768.30	217.45
768.62	217.37
768.95	217.35
769.27	217.20
769.60	217.22
769.92	217.10
770.25	217.00
770.57	216.83
770.90	216.77
771.22	216.64
771.55	216.56
771.87	216.52
772.20	216.47
772.52	216.65
772.85	217.01
773.17	216.88
773.50	216.74
773.82	216.63
774.15	216.40
774.47	216.20
774.80	216.09
775.12	216.02
775.45	215.97
775.77	215.94
776.09	216.02
776.42	215.91
776.74	215.94
777.07	215.87
777.39	215.87
777.72	215.85
778.04	215.87
778.36	215.83
778.69	215.86
779.01	215.79
779.33	215.51
779.66	215.04
779.98	215.08
780.31	215.07
780.63	215.13
780.95	215.10
781.28	215.01
781.60	214.93
781.92	214.91
782.25	214.80
782.57	214.72
782.89	214.62
783.22	214.50
783.54	214.44
783.86	214.42
784.19	214.35
784.51	214.32
784.83	214.31
785.16	214.25
785.48	214.21
785.80	214.22
786.12	214.20
786.45	214.15
786.77	214.12
787.09	214.11
787.42	214.01
787.74	214.00
788.06	213.99
788.38	213.96
788.71	213.79
789.03	213.77
789.35	213.75
789.67	213.66
789.99	213.70
790.32	213.60
790.64	213.63
790.96	213.95
791.28	213.89
791.61	213.79
791.93	213.80
792.25	213.75
792.57	213.99
792.89	213.88
793.21	213.95
793.54	213.90
793.86	213.85
794.18	213.81
794.50	213.78
794.82	213.77
795.14	213.85
795.47	213.99
795.79	214.05
796.11	213.98
796.43	213.88
796.75	213.76
797.07	213.76
797.39	213.66
797.71	213.34
798.04	213.25
798.36	213.27
798.68	213.21
799.00	213.22
799.32	213.03
799.64	213.09
799.96	213.03
800.28	213.10
800.60	213.12
800.92	213.13
801.24	213.08
801.56	213.09
801.89	213.03
802.21	212.96
802.53	212.89
802.85	212.98
803.17	213.19
803.49	213.21
803.81	213.20
804.13	213.21
804.45	213.23
804.77	213.27
805.09	213.25
805.41	213.18
805.73	213.04
806.05	212.94
806.37	212.89
806.69	212.90
807.01	212.84
807.33	212.77
807.65	212.58
807.97	212.75
808.28	212.70
808.60	212.69
808.92	212.68
809.24	212.87
809.56	212.79
809.88	212.70
810.20	212.72
810.52	212.75
810.84	212.68
811.16	212.61
811.48	212.64
811.80	212.79
812.12	212.79
812.43	212.85
812.75	212.89
813.07	212.87
813.39	212.88
813.71	212.79
814.03	212.77
814.35	212.88
814.67	212.79
814.98	212.77
815.30	212.74
815.62	212.70
815.94	212.51
816.26	212.51
816.58	212.44
816.89	212.48
817.21	212.44
817.53	212.51
817.85	212.52
818.17	212.51
818.48	212.39
818.80	212.52
819.12	212.51
819.44	212.39
819.76	212.38
820.07	212.36
820.39	212.45
820.71	212.42
821.03	212.35
821.34	212.24
821.66	212.27
821.98	212.28
822.30	212.22
822.61	212.49
822.93	212.48
823.25	212.50
823.57	212.39
823.88	212.49
824.20	212.50
824.52	212.58
824.83	212.55
825.15	212.50
825.47	212.47
825.79	212.51
826.10	212.50
826.42	212.47
826.74	212.51
827.05	212.42
827.37	212.47
827.69	212.45
828.00	212.44
828.32	212.45
828.64	212.44
828.95	212.64
829.27	212.52
829.58	212.52
829.90	212.53
830.22	212.52
830.53	212.28
830.85	212.18
831.17	212.00
831.48	212.01
831.80	212.06
832.11	212.00
832.43	211.92
832.75	211.96
833.06	212.19
833.38	212.04
833.69	212.03
834.01	212.02
834.32	212.01
834.64	211.96
834.96	211.95
835.27	211.90
835.59	211.77
835.90	211.64
836.22	211.61
836.53	211.52
836.85	211.50
837.16	211.91
837.48	211.92
837.79	212.07
838.11	212.04
838.42	212.00
838.74	212.05
839.05	212.02
839.37	212.02
839.68	211.80
840.00	211.74
840.31	211.80
840.63	211.75
840.94	211.79
841.26	211.75
841.57	211.73
841.88	211.77
842.20	211.73
842.51	211.73
842.83	211.68
843.14	212.02
843.46	212.03
843.77	211.86
844.08	211.86
844.40	211.80
844.71	211.73
845.03	211.64
845.34	211.54
845.65	211.52
845.97	211.50
846.28	211.43
846.60	211.50
846.91	211.43
847.22	211.44
847.54	211.48
847.85	211.58
848.16	211.56
848.48	211.49
848.79	211.66
849.10	211.67
849.42	211.72
849.73	211.42
850.04	211.39
850.36	211.24
850.67	211.29
850.98	211.25
851.30	211.32
851.61	211.35
851.92	211.45
852.23	211.52
852.55	211.63
852.86	211.69
853.17	211.70
853.49	211.75
853.80	211.79
854.11	211.78
854.42	211.75
854.74	211.68
855.05	211.73
855.36	211.50
855.67	211.51
855.99	211.51
856.30	211.90
856.61	211.96
856.92	211.99
857.23	211.94
857.55	211.92
857.86	211.94
858.17	211.94
858.48	211.82
858.79	211.81
859.11	211.77
859.42	211.76
859.73	211.72
860.04	211.75
860.35	211.65
860.66	211.61
860.98	211.61
861.29	211.59
861.60	211.58
861.91	211.74
862.22	211.72
862.53	211.65
862.84	211.25
863.16	211.31
863.47	211.31
863.78	211.36
864.09	211.38
864.40	211.36
864.71	211.41
865.02	211.45
865.33	211.48
865.64	211.41
865.95	211.41
866.27	211.63
866.58	211.61
866.89	211.72
867.20	211.66
867.51	211.61
867.82	211.67
868.13	211.75
868.44	211.63
868.75	211.63
869.06	211.67
869.37	211.60
869.68	211.51
869.99	211.51
870.30	211.51
870.61	211.52
870.92	211.49
871.23	211.46
871.54	211.51
871.85	211.49
872.16	211.58
872.47	211.54
872.78	211.38
873.09	211.36
873.40	211.33
873.71	211.45
874.02	211.46
874.33	211.45
874.64	211.39
874.95	211.42
875.26	211.31
875.56	211.35
875.87	211.42
876.18	211.41
876.49	211.69
876.80	211.70
877.11	211.58
877.42	211.59
877.73	211.56
878.04	211.52
878.35	211.51
878.66	211.42
878.96	211.40
879.27	211.31
879.58	211.27
879.89	211.24
880.20	211.28
880.51	211.28
880.82	211.28
881.12	211.28
881.43	211.23
881.74	211.21
882.05	211.20
882.36	211.25
882.67	211.28
882.97	211.01
883.28	210.98
883.59	211.04
883.90	211.02
884.21	211.11
884.51	211.05
884.82	210.99
885.13	210.99
885.44	210.99
885.74	211.00
886.05	210.90
886.36	210.86
886.67	210.67
886.98	210.83
887.28	210.88
887.59	210.89
887.90	210.85
888.20	210.90
888.51	210.98
888.82	210.87
889.13	210.88
889.43	211.12
889.74	211.05
890.05	211.07
890.35	211.05
890.66	210.96
890.97	210.98
891.28	210.93
891.58	210.98
891.89	211.01
892.20	211.05
892.50	211.08
892.81	211.12
893.12	211.16
893.42	210.96
893.73	210.97
894.04	210.93
894.34	211.01
894.65	210.95
894.95	210.86
895.26	210.86
895.57	211.06
895.87	210.73
896.18	210.76
896.48	210.80
896.79	210.80
897.10	210.90
897.40	210.87
897.71	210.99
898.01	210.92
898.32	210.98
898.63	210.94
898.93	210.97
899.24	210.98
899.54	211.00
899.85	211.01
900.15	210.91
900.46	210.86
900.76	210.87
901.07	210.93
901.38	210.88
901.68	210.92
901.99	210.69
902.29	210.72
902.60	210.75
902.90	210.69
903.21	210.68
903.51	210.63
903.82	210.76
904.12	210.71
904.43	210.74
904.73	210.67
905.03	210.70
905.34	211.04
905.64	211.03
905.95	210.93
906.25	210.93
906.56	210.92
906.86	210.98
907.17	210.95
907.47	210.95
907.77	210.95
908.08	210.92
908.38	210.95
908.69	210.99
908.99	211.00
909.30	210.98
909.60	210.96
909.90	210.96
910.21	210.86
910.51	210.81
910.81	210.81
911.12	210.81
911.42	210.76
911.73	210.39
912.03	210.37
912.33	210.50
912.64	210.50
912.94	210.57
913.24	210.57
913.55	210.55
913.85	210.50
914.15	210.60
914.46	210.70
914.76	210.68
915.06	210.67
915.37	210.66
915.67	210.66
915.97	210.73
916.27	210.67
916.58	210.70
916.88	210.74
917.18	210.72
917.49	210.89
917.79	210.95
918.09	211.00
918.39	211.08
918.70	211.18
919.00	211.19
919.30	211.32
919.60	211.27
919.91	211.28
920.21	211.34
920.51	211.28
920.81	211.24
921.12	211.30
921.42	211.36
921.72	211.38
922.02	211.47
922.32	211.51
922.63	211.56
922.93	211.64
923.23	211.64
923.53	211.68
923.83	211.57
924.13	211.60
924.44	211.65
924.74	211.69
925.04	211.62
925.34	211.63
925.64	211.50
925.94	211.46
926.24	211.66
926.55	211.63
926.85	211.65
927.15	211.61
927.45	211.67
927.75	211.60
928.05	211.58
928.35	211.53
928.65	211.60
928.95	211.61
929.26	211.56
929.56	211.61
929.86	211.57
930.16	211.56
930.46	211.51
930.76	211.46
931.06	211.44
931.36	211.43
931.66	211.39
931.96	211.41
932.26	211.51
932.56	211.32
932.86	211.30
933.16	211.27
933.46	211.25
933.76	211.15
934.06	211.19
934.36	211.35
934.66	211.30
934.96	211.20
935.26	211.16
935.56	211.15
935.86	211.04
936.16	211.05
936.46	211.02
936.76	211.03
937.06	210.94
937.36	210.85
937.66	210.87
937.96	210.88
938.26	210.80
938.56	210.73
938.86	210.77
939.16	210.87
939.46	210.85
939.76	210.88
940.06	210.82
940.35	210.73
940.65	210.46
940.95	210.55
941.25	210.47
941.55	210.43
941.85	210.42
942.15	210.47
942.45	210.55
942.75	210.51
943.04	210.49
943.34	210.58
943.64	210.54
943.94	210.48
944.24	210.52
944.54	210.54
944.84	210.51
945.13	210.47
945.43	210.38
945.73	210.46
946.03	210.39
946.33	210.33
946.62	210.28
946.92	210.31
947.22	210.28
947.52	210.36
947.82	210.41
948.11	210.39
948.41	210.35
948.71	210.31
949.01	210.28
949.31	210.25
949.60	210.23
949.90	210.39
950.20	210.32
950.50	210.29
950.79	210.32
951.09	210.41
951.39	210.36
951.69	210.41
951.98	210.47
952.28	210.47
952.58	210.49
952.87	210.53
953.17	210.60
953.47	210.57
953.76	210.58
954.06	210.51
954.36	210.43
954.66	210.45
954.95	210.49
955.25	210.54
955.55	210.57
955.84	210.48
956.14	210.37
956.44	210.43
956.73	210.40
957.03	210.35
957.32	210.37
957.62	210.37
957.92	210.40
958.21	210.35
958.51	210.79
958.81	210.91
959.10	211.00
959.40	211.07
959.69	211.16
959.99	211.23
960.29	211.27
960.58	211.29
960.88	211.43
961.17	211.36
961.47	211.36
961.76	211.34
962.06	211.49
962.36	211.54
962.65	211.57
962.95	211.63
963.24	211.62
963.54	211.57
963.83	211.59
964.13	211.55
964.42	211.49
964.72	211.22
965.01	211.16
965.31	211.13
965.60	211.07
965.90	211.31
966.19	211.21
966.49	211.37
966.78	211.41
967.08	211.36
967.37	211.52
967.67	211.46
967.96	211.56
968.26	211.53
968.55	211.51
968.85	211.50
969.14	211.51
969.43	211.58
969.73	211.60
970.02	211.56
970.32	211.58
970.61	211.55
970.91	211.48
971.20	211.46
971.49	211.42
971.79	211.45
972.08	211.19
972.38	211.19
972.67	211.06
972.96	211.07
973.26	211.02
973.55	210.99
973.85	211.05
974.14	211.05
974.43	211.17
974.73	211.14
975.02	211.10
975.31	211.13
975.61	211.10
975.90	211.05
976.19	211.10
976.49	211.10
976.78	211.13
977.07	211.08
977.37	211.09
977.66	211.16
977.95	211.11
978.24	211.05
978.54	211.17
978.83	211.10
979.12	211.06
979.42	211.03
979.71	210.97
980.00	210.94
980.29	210.89
980.59	210.78
980.88	210.83
981.17	210.80
981.46	210.76
981.76	210.74
982.05	210.86
982.34	210.93
982.63	210.91
982.93	210.93
983.22	211.08
983.51	211.15
983.80	211.13
984.09	211.20
984.39	211.14
984.68	211.04
984.97	211.01
985.26	211.02
985.55	211.09
985.85	211.03
986.14	211.08
986.43	211.11
986.72	211.05
987.01	210.95
987.30	210.87
987.59	210.83
987.89	210.85
988.18	210.67
988.47	210.51
988.76	210.47
989.05	210.44
989.34	210.32
989.63	210.40
989.92	210.39
990.22	210.32
990.51	210.32
990.80	210.21
991.09	210.24
991.38	210.30
991.67	210.20
991.96	210.14
992.25	210.15
992.54	210.11
992.83	210.03
993.12	210.03
993.41	210.17
993.70	210.25
993.99	210.27
994.28	210.39
994.58	210.44
994.87	210.40
995.16	210.43
995.45	210.44
995.74	210.24
996.03	210.28
996.32	210.30
996.61	210.41
996.90	210.44
997.19	210.46
997.48	210.42
997.77	210.44
998.06	210.53
998.34	210.57
998.63	210.54
998.92	210.61
999.21	210.69
999.50	210.65
999.79	210.60
1000.08	210.54
1000.37	210.55
1000.66	210.58
1000.95	210.67
1001.24	210.67
1001.53	210.64
1001.82	210.71
1002.11	210.66
1002.40	210.77
1002.68	210.88
1002.97	211.13
1003.26	211.12
1003.55	211.14
1003.84	211.13
1004.13	211.26
1004.42	211.16
1004.71	211.22
1004.99	211.25
1005.28	211.34
1005.57	211.36
1005.86	211.33
1006.15	211.37
1006.44	211.28
1006.72	211.29
1007.01	211.24
1007.30	211.24
1007.59	211.27
1007.88	211.20
1008.17	211.16
1008.45	211.06
1008.74	210.89
1009.03	210.81
1009.32	210.77
1009.60	210.72
1009.89	210.74
1010.18	210.62
1010.47	210.66
1010.76	210.66
1011.04	210.61
1011.33	210.61
1011.62	210.64
1011.91	210.63
1012.19	210.64
1012.48	210.69
1012.77	210.73
1013.05	210.84
1013.34	210.89
1013.63	210.84
1013.92	210.89
1014.20	210.95
1014.49	211.01
1014.78	211.01
1015.06	210.83
1015.35	210.83
1015.64	210.90
1015.92	210.95
1016.21	210.95
1016.50	210.87
1016.78	210.86
1017.07	210.91
1017.36	210.81
1017.64	210.78
1017.93	210.87
1018.22	210.90
1018.50	210.81
1018.79	210.79
1019.08	210.65
1019.36	210.59
1019.65	210.61
1019.93	210.73
1020.22	210.71
1020.51	210.87
1020.79	210.88
1021.08	210.70
1021.36	209.20
1021.65	211.15
1021.94	209.65
1022.22	210.00
1022.51	211.00
1022.79	213.10
1023.08	210.70
1023.36	215.70
1023.65	210.20
>>>>>End Processed Spectral Data<<<<<
