SpectraSuite Data File
++++++++++++++++++++++++++++++++++++
Date: Mon Feb 25 17:20:43 EST 2013
User: group
Dark Spectrum Present: No
Reference Spectrum Present: No
Number of Sampled Component Spectra: 1
Spectrometers: USB2E7196
Integration Time (usec): 104000 (USB2E7196)
Spectra Averaged: 20 (USB2E7196)
Boxcar Smoothing: 10 (USB2E7196)
Correct for Electrical Dark: No (USB2E7196)
Strobe/Lamp Enabled: No (USB2E7196)
Correct for Detector Non-linearity: No (USB2E7196)
Correct for Stray Light: No (USB2E7196)
Number of Pixels in Processed Spectrum: 2048
>>>>>Begin Processed Spectral Data<<<<<
339.09	0.00
339.48	196.85
339.86	199.05
340.24	202.15
340.63	202.25
341.01	209.00
341.39	206.00
341.78	206.50
342.16	208.60
342.54	208.75
342.93	197.97
343.31	207.95
343.69	208.60
344.07	209.06
344.46	209.52
344.84	209.97
345.22	210.12
345.60	210.41
345.99	210.63
346.37	210.79
346.75	210.89
347.13	210.98
347.52	211.07
347.90	211.30
348.28	211.32
348.66	211.51
349.05	211.40
349.43	211.48
349.81	211.55
350.19	211.64
350.57	211.84
350.96	211.97
351.34	212.17
351.72	212.25
352.10	212.47
352.48	212.47
352.87	212.57
353.25	212.63
353.63	212.66
354.01	212.74
354.39	212.85
354.77	212.95
355.15	213.17
355.54	213.19
355.92	213.16
356.30	213.31
356.68	213.59
357.06	213.71
357.44	213.75
357.82	213.80
358.20	213.94
358.58	214.00
358.97	214.12
359.35	214.28
359.73	214.47
360.11	214.55
360.49	214.67
360.87	214.73
361.25	214.89
361.63	215.09
362.01	215.25
362.39	215.30
362.77	215.41
363.15	215.41
363.53	215.45
363.91	215.53
364.29	215.56
364.67	215.21
365.05	215.29
365.43	215.44
365.81	215.53
366.19	215.75
366.57	215.87
366.95	215.84
367.33	215.75
367.71	215.76
368.09	215.84
368.47	215.87
368.85	215.86
369.23	215.88
369.61	215.77
369.99	215.83
370.37	215.85
370.75	215.98
371.13	215.94
371.51	215.88
371.89	215.85
372.27	215.84
372.65	215.90
373.03	215.96
373.41	215.88
373.78	215.84
374.16	215.56
374.54	215.40
374.92	215.40
375.30	215.34
375.68	215.23
376.06	215.11
376.44	215.08
376.82	215.04
377.19	214.99
377.57	214.88
377.95	214.70
378.33	214.65
378.71	214.41
379.09	214.35
379.47	214.40
379.84	214.33
380.22	214.26
380.60	214.20
380.98	213.99
381.36	213.98
381.73	213.91
382.11	213.97
382.49	214.00
382.87	213.91
383.25	213.87
383.62	214.20
384.00	214.15
384.38	214.15
384.76	214.23
385.13	214.30
385.51	214.36
385.89	214.32
386.27	214.27
386.64	214.26
387.02	214.22
387.40	214.10
387.78	214.18
388.15	214.17
388.53	214.08
388.91	214.07
389.29	213.96
389.66	213.95
390.04	213.83
390.42	213.79
390.79	213.83
391.17	213.78
391.55	213.41
391.92	213.37
392.30	213.35
392.68	213.27
393.05	213.21
393.43	213.08
393.81	213.10
394.18	213.11
394.56	213.13
394.94	213.22
395.31	213.26
395.69	213.32
396.06	213.36
396.44	213.38
396.82	213.42
397.19	213.65
397.57	213.62
397.95	213.72
398.32	213.69
398.70	213.74
399.07	213.88
399.45	213.90
399.82	213.98
400.20	213.95
400.58	213.98
400.95	213.94
401.33	214.14
401.70	214.40
402.08	214.50
402.45	214.60
402.83	214.75
403.20	214.84
403.58	214.86
403.95	215.06
404.33	215.27
404.71	215.45
405.08	215.72
405.46	216.01
405.83	216.22
406.21	216.37
406.58	216.56
406.96	216.71
407.33	216.99
407.70	217.26
408.08	217.89
408.45	218.24
408.83	218.66
409.20	219.01
409.58	219.22
409.95	219.68
410.33	220.17
410.70	220.56
411.08	221.14
411.45	221.75
411.82	222.28
412.20	223.00
412.57	223.85
412.95	224.40
413.32	225.19
413.69	226.03
414.07	226.96
414.44	227.91
414.82	228.97
415.19	230.14
415.56	231.30
415.94	232.38
416.31	233.78
416.68	235.08
417.06	236.69
417.43	238.32
417.81	240.01
418.18	241.72
418.55	243.66
418.93	245.65
419.30	247.65
419.67	249.76
420.04	251.96
420.42	254.27
420.79	257.05
421.16	259.80
421.54	262.68
421.91	265.52
422.28	268.58
422.66	271.80
423.03	275.08
423.40	278.31
423.77	281.75
424.15	285.23
424.52	288.95
424.89	292.93
425.26	296.76
425.64	300.49
426.01	304.50
426.38	308.63
426.75	313.00
427.13	317.45
427.50	322.19
427.87	327.05
428.24	331.87
428.61	336.50
428.99	341.60
429.36	347.07
429.73	352.60
430.10	358.02
430.47	363.48
430.85	369.07
431.22	375.18
431.59	381.81
431.96	387.95
432.33	394.72
432.70	401.32
433.08	408.97
433.45	416.25
433.82	423.48
434.19	431.45
434.56	439.25
434.93	446.75
435.30	454.13
435.68	462.44
436.05	470.61
436.42	478.72
436.79	486.16
437.16	494.16
437.53	502.66
437.90	511.01
438.27	519.35
438.64	527.84
439.01	535.77
439.38	542.57
439.75	549.31
440.13	556.96
440.50	564.18
440.87	570.14
441.24	576.23
441.61	583.06
441.98	588.15
442.35	593.85
442.72	599.78
443.09	605.62
443.46	608.96
443.83	611.28
444.20	613.22
444.57	616.05
444.94	617.46
445.31	618.83
445.68	620.30
446.05	620.80
446.42	620.03
446.79	618.94
447.16	617.56
447.53	616.74
447.90	613.54
448.27	610.36
448.64	605.91
449.01	602.58
449.37	597.01
449.74	591.48
450.11	585.20
450.48	578.09
450.85	570.83
451.22	564.64
451.59	558.67
451.96	552.99
452.33	545.46
452.70	538.47
453.07	530.32
453.43	521.93
453.80	514.11
454.17	506.50
454.54	499.38
454.91	491.91
455.28	484.52
455.65	477.71
456.02	471.07
456.38	465.15
456.75	457.91
457.12	451.68
457.49	445.71
457.86	439.82
458.23	434.89
458.59	429.34
458.96	423.82
459.33	418.85
459.70	413.92
460.07	409.90
460.43	405.43
460.80	401.28
461.17	397.65
461.54	393.74
461.91	390.09
462.27	386.33
462.64	383.23
463.01	379.84
463.38	376.54
463.74	372.98
464.11	370.14
464.48	367.70
464.85	365.09
465.21	363.09
465.58	360.85
465.95	358.23
466.32	356.10
466.68	354.03
467.05	352.01
467.42	349.88
467.78	347.75
468.15	345.70
468.52	344.19
468.88	342.12
469.25	340.36
469.62	339.01
469.98	337.62
470.35	336.18
470.72	334.84
471.08	333.31
471.45	332.08
471.82	330.90
472.18	329.51
472.55	328.65
472.92	327.54
473.28	326.56
473.65	325.62
474.02	324.85
474.38	324.29
474.75	323.73
475.11	323.24
475.48	323.02
475.85	322.82
476.21	322.57
476.58	322.50
476.94	322.53
477.31	322.55
477.67	322.55
478.04	322.81
478.41	323.16
478.77	323.84
479.14	324.20
479.50	324.79
479.87	325.52
480.23	326.27
480.60	327.00
480.96	327.84
481.33	329.01
481.69	330.09
482.06	331.00
482.42	332.17
482.79	333.39
483.15	334.66
483.52	336.37
483.88	337.93
484.25	339.61
484.61	341.34
484.98	343.21
485.34	345.35
485.71	347.60
486.07	349.92
486.44	352.17
486.80	354.83
487.17	357.55
487.53	360.76
487.90	363.88
488.26	367.29
488.62	371.00
488.99	374.50
489.35	378.36
489.72	382.47
490.08	386.86
490.44	391.46
490.81	396.43
491.17	401.23
491.54	406.55
491.90	412.08
492.26	418.04
492.63	424.19
492.99	430.61
493.36	437.20
493.72	444.29
494.08	451.70
494.45	459.51
494.81	467.72
495.17	476.08
495.54	485.07
495.90	494.17
496.26	503.51
496.63	513.72
496.99	524.24
497.35	535.17
497.72	546.47
498.08	558.21
498.44	570.22
498.80	583.26
499.17	596.76
499.53	610.46
499.89	624.65
500.26	639.28
500.62	654.20
500.98	670.20
501.34	686.39
501.71	703.35
502.07	720.76
502.43	738.40
502.79	756.54
503.16	775.40
503.52	794.81
503.88	814.91
504.24	835.41
504.60	856.35
504.97	878.06
505.33	900.04
505.69	923.48
506.05	947.43
506.41	971.19
506.78	995.39
507.14	1020.44
507.50	1045.90
507.86	1071.90
508.22	1098.92
508.59	1126.00
508.95	1153.95
509.31	1181.89
509.67	1210.51
510.03	1240.19
510.39	1270.69
510.75	1301.36
511.12	1332.47
511.48	1363.98
511.84	1396.13
512.20	1428.15
512.56	1461.03
512.92	1494.57
513.28	1527.85
513.64	1561.12
514.00	1595.00
514.37	1629.03
514.73	1663.79
515.09	1698.80
515.45	1733.76
515.81	1768.82
516.17	1804.08
516.53	1839.42
516.89	1875.38
517.25	1910.95
517.61	1946.25
517.97	1981.43
518.33	2016.59
518.69	2052.21
519.05	2088.26
519.41	2123.86
519.77	2160.53
520.13	2196.23
520.49	2231.30
520.85	2267.01
521.21	2303.15
521.57	2339.25
521.93	2374.36
522.29	2410.51
522.65	2446.78
523.01	2482.53
523.37	2517.18
523.73	2552.07
524.09	2587.03
524.45	2622.02
524.81	2657.13
525.17	2692.48
525.53	2727.36
525.89	2762.31
526.25	2796.51
526.61	2829.25
526.97	2862.72
527.33	2895.68
527.68	2928.85
528.04	2961.17
528.40	2992.17
528.76	3023.31
529.12	3055.17
529.48	3088.22
529.84	3119.12
530.20	3149.58
530.56	3180.30
530.91	3212.47
531.27	3243.64
531.63	3273.69
531.99	3303.11
532.35	3331.55
532.71	3359.57
533.07	3388.19
533.42	3415.02
533.78	3442.83
534.14	3470.20
534.50	3495.05
534.86	3521.13
535.21	3545.45
535.57	3571.84
535.93	3596.48
536.29	3620.39
536.65	3643.63
537.00	3664.95
537.36	3686.38
537.72	3707.35
538.08	3728.10
538.44	3748.06
538.79	3768.21
539.15	3788.40
539.51	3808.05
539.87	3828.44
540.22	3847.41
540.58	3866.50
540.94	3885.56
541.29	3901.93
541.65	3917.94
542.01	3935.05
542.37	3950.07
542.72	3965.70
543.08	3979.01
543.44	3993.01
543.79	4005.93
544.15	4017.20
544.51	4028.72
544.87	4038.99
545.22	4048.42
545.58	4056.99
545.94	4064.09
546.29	4070.09
546.65	4075.27
547.01	4079.72
547.36	4082.95
547.72	4086.18
548.07	4087.37
548.43	4088.70
548.79	4090.64
549.14	4092.70
549.50	4093.93
549.86	4094.50
550.21	4094.74
550.57	4094.98
550.92	4094.98
551.28	4094.99
551.64	4095.00
551.99	4095.00
552.35	4095.00
552.70	4095.00
553.06	4095.00
553.41	4095.00
553.77	4095.00
554.13	4095.00
554.48	4095.00
554.84	4095.00
555.19	4095.00
555.55	4095.00
555.90	4095.00
556.26	4095.00
556.61	4095.00
556.97	4094.97
557.32	4094.95
557.68	4094.55
558.03	4094.40
558.39	4094.29
558.74	4094.27
559.10	4094.21
559.45	4094.17
559.81	4094.15
560.16	4093.23
560.52	4092.59
560.87	4091.19
561.23	4088.91
561.58	4087.60
561.94	4085.19
562.29	4082.04
562.64	4079.48
563.00	4077.04
563.35	4074.30
563.71	4071.28
564.06	4067.07
564.42	4062.90
564.77	4058.82
565.12	4054.37
565.48	4048.92
565.83	4043.67
566.19	4039.00
566.54	4032.45
566.89	4025.41
567.25	4019.16
567.60	4012.35
567.96	4004.87
568.31	3998.12
568.66	3990.61
569.02	3981.35
569.37	3972.14
569.72	3964.53
570.08	3955.31
570.43	3945.47
570.78	3935.38
571.14	3924.80
571.49	3914.09
571.84	3904.45
572.20	3893.05
572.55	3882.79
572.90	3871.71
573.26	3859.46
573.61	3846.86
573.96	3835.03
574.31	3822.70
574.67	3809.04
575.02	3795.46
575.37	3782.19
575.72	3767.72
576.08	3755.38
576.43	3741.96
576.78	3729.51
577.13	3717.46
577.49	3704.88
577.84	3692.08
578.19	3679.92
578.54	3668.60
578.90	3657.41
579.25	3643.78
579.60	3630.00
579.95	3615.36
580.30	3602.55
580.66	3590.45
581.01	3576.55
581.36	3562.55
581.71	3548.84
582.06	3535.87
582.42	3522.72
582.77	3508.36
583.12	3495.06
583.47	3482.05
583.82	3470.15
584.17	3456.87
584.53	3443.10
584.88	3429.97
585.23	3416.40
585.58	3402.50
585.93	3387.71
586.28	3373.77
586.63	3360.41
586.98	3347.75
587.34	3335.80
587.69	3322.58
588.04	3309.16
588.39	3296.53
588.74	3283.14
589.09	3270.99
589.44	3257.69
589.79	3245.63
590.14	3234.34
590.49	3222.32
590.84	3209.19
591.19	3196.95
591.54	3184.15
591.89	3169.30
592.25	3155.28
592.60	3141.77
592.95	3127.62
593.30	3112.79
593.65	3098.15
594.00	3084.31
594.35	3072.21
594.70	3058.55
595.05	3045.41
595.40	3032.06
595.75	3017.99
596.10	3005.61
596.45	2992.99
596.80	2980.96
597.15	2968.86
597.50	2955.41
597.85	2942.66
598.19	2929.57
598.54	2916.81
598.89	2905.06
599.24	2895.15
599.59	2883.84
599.94	2873.26
600.29	2862.33
600.64	2851.82
600.99	2839.64
601.34	2828.44
601.69	2815.17
602.04	2802.77
602.39	2790.79
602.74	2779.06
603.08	2768.80
603.43	2758.39
603.78	2746.57
604.13	2735.14
604.48	2723.32
604.83	2713.74
605.18	2703.88
605.53	2692.80
605.87	2680.99
606.22	2669.87
606.57	2657.63
606.92	2645.84
607.27	2633.68
607.62	2621.53
607.96	2610.66
608.31	2601.30
608.66	2589.12
609.01	2577.65
609.36	2565.76
609.70	2553.16
610.05	2540.76
610.40	2528.18
610.75	2515.16
611.10	2503.79
611.44	2489.57
611.79	2476.04
612.14	2461.63
612.49	2446.62
612.83	2433.71
613.18	2419.82
613.53	2406.08
613.88	2391.84
614.22	2379.07
614.57	2365.55
614.92	2352.16
615.27	2337.96
615.61	2323.75
615.96	2311.14
616.31	2298.80
616.65	2287.20
617.00	2275.18
617.35	2262.53
617.70	2249.42
618.04	2235.74
618.39	2221.00
618.74	2208.71
619.08	2195.60
619.43	2182.74
619.78	2170.75
620.12	2157.79
620.47	2145.77
620.82	2132.70
621.16	2119.86
621.51	2106.71
621.85	2094.30
622.20	2081.52
622.55	2068.88
622.89	2055.70
623.24	2042.75
623.59	2029.38
623.93	2015.95
624.28	2003.53
624.62	1991.35
624.97	1978.94
625.32	1967.19
625.66	1956.08
626.01	1944.61
626.35	1933.54
626.70	1922.01
627.04	1910.59
627.39	1899.42
627.73	1887.93
628.08	1876.99
628.43	1865.76
628.77	1854.07
629.12	1842.06
629.46	1832.05
629.81	1821.11
630.15	1810.09
630.50	1798.92
630.84	1787.35
631.19	1776.23
631.53	1764.90
631.88	1753.05
632.22	1741.78
632.57	1731.03
632.91	1719.78
633.26	1708.40
633.60	1697.14
633.95	1686.65
634.29	1675.50
634.64	1664.69
634.98	1653.28
635.32	1642.45
635.67	1632.49
636.01	1622.48
636.36	1612.08
636.70	1601.40
637.05	1591.00
637.39	1581.17
637.73	1571.47
638.08	1562.56
638.42	1553.39
638.77	1543.65
639.11	1533.93
639.45	1523.88
639.80	1513.51
640.14	1503.23
640.49	1493.36
640.83	1483.35
641.17	1472.96
641.52	1462.76
641.86	1452.29
642.20	1442.52
642.55	1431.77
642.89	1421.03
643.23	1410.49
643.58	1400.93
643.92	1389.94
644.26	1379.87
644.61	1369.69
644.95	1359.27
645.29	1349.11
645.64	1338.46
645.98	1328.27
646.32	1318.79
646.66	1309.04
647.01	1299.50
647.35	1290.10
647.69	1280.05
648.04	1270.28
648.38	1260.56
648.72	1250.93
649.06	1241.35
649.41	1231.64
649.75	1222.59
650.09	1213.39
650.43	1204.00
650.78	1194.17
651.12	1184.90
651.46	1175.35
651.80	1166.24
652.14	1157.20
652.49	1147.54
652.83	1137.92
653.17	1128.23
653.51	1118.85
653.85	1109.81
654.20	1100.48
654.54	1091.18
654.88	1082.40
655.22	1073.30
655.56	1064.16
655.90	1055.19
656.25	1046.20
656.59	1037.35
656.93	1028.65
657.27	1020.29
657.61	1011.50
657.95	1002.95
658.29	994.68
658.64	986.75
658.98	978.27
659.32	969.55
659.66	961.42
660.00	953.36
660.34	945.36
660.68	936.93
661.02	928.58
661.36	921.07
661.70	913.27
662.05	905.66
662.39	898.35
662.73	891.21
663.07	884.05
663.41	876.93
663.75	869.79
664.09	862.43
664.43	854.85
664.77	847.91
665.11	840.90
665.45	834.01
665.79	827.06
666.13	820.18
666.47	813.44
666.81	806.74
667.15	800.09
667.49	793.99
667.83	787.87
668.17	781.67
668.51	775.39
668.85	769.47
669.19	763.67
669.53	757.64
669.87	751.60
670.21	745.66
670.55	739.63
670.89	734.39
671.23	729.26
671.57	723.80
671.91	718.22
672.25	712.68
672.58	707.07
672.92	701.63
673.26	696.70
673.60	691.64
673.94	686.50
674.28	681.53
674.62	676.51
674.96	671.44
675.30	666.72
675.64	661.76
675.97	656.69
676.31	651.95
676.65	647.22
676.99	642.83
677.33	637.96
677.67	633.41
678.01	628.43
678.34	623.69
678.68	619.17
679.02	614.64
679.36	610.44
679.70	606.16
680.04	601.67
680.37	596.99
680.71	592.59
681.05	588.65
681.39	584.52
681.73	580.25
682.06	576.41
682.40	572.43
682.74	568.35
683.08	564.39
683.42	560.07
683.75	556.02
684.09	551.71
684.43	547.80
684.77	543.80
685.10	539.91
685.44	535.84
685.78	531.96
686.12	528.51
686.45	524.78
686.79	521.15
687.13	517.75
687.46	514.38
687.80	511.08
688.14	507.28
688.48	503.88
688.81	500.40
689.15	496.90
689.49	493.30
689.82	489.87
690.16	486.16
690.50	482.74
690.83	479.44
691.17	476.01
691.51	472.68
691.84	469.64
692.18	466.49
692.52	463.45
692.85	460.71
693.19	457.67
693.52	454.68
693.86	451.65
694.20	448.68
694.53	445.78
694.87	442.66
695.21	439.72
695.54	436.72
695.88	433.69
696.21	430.69
696.55	428.10
696.88	425.38
697.22	422.85
697.56	420.36
697.89	417.62
698.23	415.12
698.56	412.67
698.90	410.23
699.23	407.67
699.57	405.27
699.90	402.58
700.24	400.06
700.58	397.56
700.91	395.23
701.25	392.95
701.58	390.54
701.92	388.37
702.25	386.15
702.59	383.85
702.92	381.77
703.26	379.73
703.59	377.52
703.93	375.76
704.26	373.88
704.60	371.86
704.93	369.94
705.26	367.87
705.60	366.04
705.93	363.94
706.27	362.24
706.60	360.46
706.94	358.79
707.27	356.82
707.61	354.90
707.94	353.09
708.27	351.15
708.61	349.30
708.94	347.60
709.28	345.84
709.61	344.29
709.94	342.71
710.28	341.12
710.61	339.54
710.95	337.58
711.28	336.16
711.61	334.57
711.95	333.22
712.28	331.79
712.61	330.23
712.95	328.96
713.28	327.52
713.61	326.04
713.95	324.59
714.28	323.42
714.61	322.20
714.95	320.85
715.28	319.50
715.61	318.22
715.95	316.89
716.28	315.70
716.61	314.33
716.95	312.97
717.28	311.64
717.61	310.45
717.94	309.35
718.28	307.88
718.61	306.66
718.94	305.38
719.27	304.29
719.61	303.23
719.94	302.05
720.27	300.83
720.60	299.62
720.94	298.50
721.27	297.35
721.60	296.34
721.93	295.40
722.27	294.50
722.60	293.55
722.93	292.57
723.26	291.68
723.59	290.80
723.93	289.89
724.26	288.98
724.59	288.10
724.92	287.31
725.25	286.55
725.59	285.74
725.92	284.97
726.25	284.07
726.58	283.22
726.91	282.39
727.24	281.61
727.57	280.88
727.91	280.02
728.24	279.35
728.57	278.51
728.90	277.81
729.23	276.97
729.56	276.42
729.89	275.67
730.22	274.84
730.55	274.02
730.89	273.32
731.22	272.62
731.55	271.85
731.88	271.12
732.21	270.36
732.54	269.60
732.87	268.88
733.20	268.20
733.53	267.55
733.86	266.91
734.19	266.29
734.52	265.72
734.85	265.47
735.18	264.70
735.51	264.20
735.84	263.62
736.17	263.25
736.50	262.45
736.83	262.34
737.16	261.82
737.49	261.37
737.82	260.80
738.15	260.42
738.48	259.93
738.81	259.32
739.14	258.74
739.47	258.23
739.80	257.68
740.13	257.23
740.46	256.69
740.79	256.12
741.12	255.52
741.45	254.96
741.78	254.23
742.11	253.82
742.44	253.25
742.77	252.74
743.10	252.07
743.43	251.57
743.75	250.69
744.08	250.67
744.41	250.15
744.74	249.76
745.07	249.20
745.40	248.76
745.73	248.49
746.06	248.19
746.39	247.77
746.71	247.27
747.04	246.78
747.37	246.31
747.70	245.93
748.03	245.64
748.36	245.28
748.68	244.89
749.01	244.51
749.34	244.12
749.67	243.73
750.00	243.46
750.33	243.40
750.65	243.07
750.98	242.21
751.31	241.84
751.64	241.45
751.97	241.30
752.29	240.91
752.62	240.38
752.95	239.96
753.28	239.60
753.60	239.32
753.93	239.13
754.26	238.87
754.59	238.47
754.91	238.03
755.24	237.72
755.57	237.31
755.90	236.96
756.22	236.73
756.55	236.36
756.88	235.96
757.20	235.39
757.53	234.96
757.86	234.66
758.19	234.39
758.51	234.07
758.84	233.55
759.17	233.20
759.49	232.98
759.82	232.86
760.15	232.63
760.47	232.41
760.80	232.02
761.13	231.74
761.45	231.50
761.78	231.33
762.11	231.05
762.43	230.81
762.76	230.55
763.08	230.27
763.41	230.10
763.74	229.84
764.06	229.62
764.39	229.47
764.71	229.24
765.04	229.02
765.37	228.86
765.69	228.65
766.02	228.49
766.34	228.23
766.67	227.91
767.00	227.81
767.32	227.80
767.65	227.84
767.97	227.70
768.30	227.56
768.62	227.30
768.95	227.14
769.27	226.94
769.60	226.90
769.92	226.66
770.25	226.40
770.57	226.19
770.90	226.04
771.22	225.79
771.55	225.64
771.87	225.48
772.20	225.26
772.52	225.42
772.85	225.72
773.17	225.55
773.50	225.38
773.82	225.16
774.15	224.84
774.47	224.47
774.80	224.25
775.12	224.09
775.45	223.94
775.77	223.73
776.09	223.69
776.42	223.41
776.74	223.42
777.07	223.31
777.39	223.24
777.72	223.05
778.04	223.00
778.36	222.88
778.69	222.85
779.01	222.77
779.33	222.39
779.66	221.80
779.98	221.75
780.31	221.57
780.63	221.58
780.95	221.49
781.28	221.38
781.60	221.27
781.92	221.20
782.25	221.15
782.57	221.12
782.89	220.99
783.22	220.90
783.54	220.70
783.86	220.65
784.19	220.53
784.51	220.57
784.83	220.45
785.16	220.32
785.48	220.17
785.80	220.13
786.12	220.02
786.45	219.95
786.77	219.90
787.09	219.81
787.42	219.62
787.74	219.56
788.06	219.55
788.38	219.50
788.71	219.30
789.03	219.28
789.35	219.28
789.67	219.15
789.99	219.09
790.32	219.03
790.64	218.98
790.96	219.25
791.28	219.04
791.61	218.93
791.93	219.00
792.25	218.92
792.57	219.08
792.89	218.95
793.21	218.93
793.54	218.84
793.86	218.81
794.18	218.77
794.50	218.70
794.82	218.52
795.14	218.49
795.47	218.55
795.79	218.42
796.11	218.25
796.43	218.18
796.75	218.13
797.07	218.09
797.39	218.02
797.71	217.66
798.04	217.69
798.36	217.70
798.68	217.58
799.00	217.46
799.32	217.23
799.64	217.28
799.96	217.23
800.28	217.20
800.60	217.10
800.92	217.15
801.24	217.04
801.56	217.07
801.89	216.93
802.21	216.90
802.53	216.85
802.85	216.93
803.17	217.01
803.49	216.99
803.81	216.89
804.13	216.81
804.45	216.71
804.77	216.64
805.09	216.56
805.41	216.45
805.73	216.44
806.05	216.31
806.37	216.15
806.69	216.14
807.01	216.05
807.33	216.03
807.65	215.83
807.97	215.95
808.28	215.86
808.60	215.85
808.92	215.73
809.24	215.95
809.56	215.86
809.88	215.79
810.20	215.76
810.52	215.77
810.84	215.67
811.16	215.67
811.48	215.57
811.80	215.74
812.12	215.68
812.43	215.70
812.75	215.69
813.07	215.66
813.39	215.59
813.71	215.50
814.03	215.43
814.35	215.36
814.67	215.19
814.98	215.15
815.30	215.09
815.62	215.01
815.94	214.70
816.26	214.73
816.58	214.54
816.89	214.48
817.21	214.42
817.53	214.45
817.85	214.43
818.17	214.47
818.48	214.25
818.80	214.32
819.12	214.22
819.44	214.09
819.76	214.05
820.07	214.00
820.39	213.97
820.71	213.96
821.03	214.02
821.34	213.98
821.66	214.06
821.98	214.13
822.30	214.15
822.61	214.34
822.93	214.18
823.25	214.15
823.57	214.09
823.88	214.18
824.20	214.11
824.52	214.16
824.83	214.05
825.15	213.98
825.47	213.93
825.79	214.00
826.10	214.02
826.42	214.00
826.74	214.15
827.05	214.09
827.37	214.15
827.69	214.12
828.00	214.18
828.32	214.09
828.64	214.04
828.95	214.20
829.27	214.10
829.58	214.06
829.90	214.16
830.22	214.21
830.53	214.11
830.85	214.08
831.17	213.95
831.48	213.95
831.80	213.96
832.11	213.98
832.43	213.84
832.75	213.86
833.06	214.07
833.38	213.87
833.69	213.86
834.01	213.82
834.32	213.74
834.64	213.65
834.96	213.60
835.27	213.49
835.59	213.36
835.90	213.20
836.22	213.25
836.53	213.15
836.85	213.05
837.16	213.36
837.48	213.34
837.79	213.41
838.11	213.40
838.42	213.37
838.74	213.39
839.05	213.40
839.37	213.38
839.68	213.15
840.00	213.13
840.31	213.12
840.63	213.07
840.94	213.12
841.26	213.05
841.57	213.01
841.88	213.06
842.20	213.07
842.51	213.07
842.83	213.04
843.14	213.35
843.46	213.37
843.77	213.18
844.08	213.18
844.40	213.07
844.71	213.07
845.03	213.06
845.34	213.05
845.65	213.06
845.97	213.01
846.28	213.11
846.60	213.15
846.91	213.21
847.22	213.26
847.54	213.26
847.85	213.31
848.16	213.37
848.48	213.37
848.79	213.41
849.10	213.48
849.42	213.47
849.73	213.20
850.04	213.11
850.36	212.93
850.67	212.97
850.98	212.98
851.30	213.09
851.61	213.11
851.92	213.11
852.23	213.20
852.55	213.25
852.86	213.20
853.17	213.22
853.49	213.23
853.80	213.24
854.11	213.24
854.42	213.24
854.74	213.17
855.05	213.14
855.36	212.94
855.67	212.92
855.99	212.93
856.30	213.24
856.61	213.27
856.92	213.30
857.23	213.25
857.55	213.27
857.86	213.17
858.17	213.15
858.48	213.05
858.79	212.91
859.11	212.93
859.42	212.95
859.73	212.89
860.04	212.84
860.35	212.68
860.66	212.57
860.98	212.59
861.29	212.60
861.60	212.58
861.91	212.73
862.22	212.65
862.53	212.60
862.84	212.22
863.16	212.33
863.47	212.29
863.78	212.30
864.09	212.22
864.40	212.20
864.71	212.22
865.02	212.31
865.33	212.29
865.64	212.19
865.95	212.07
866.27	212.30
866.58	212.21
866.89	212.30
867.20	212.28
867.51	212.23
867.82	212.18
868.13	212.25
868.44	212.14
868.75	212.20
869.06	212.27
869.37	212.23
869.68	212.10
869.99	212.20
870.30	212.17
870.61	212.26
870.92	212.30
871.23	212.19
871.54	212.18
871.85	212.22
872.16	212.35
872.47	212.37
872.78	212.12
873.09	212.23
873.40	212.13
873.71	212.24
874.02	212.21
874.33	212.21
874.64	212.18
874.95	212.23
875.26	212.14
875.56	212.09
875.87	212.15
876.18	212.19
876.49	212.46
876.80	212.41
877.11	212.31
877.42	212.28
877.73	212.33
878.04	212.21
878.35	212.26
878.66	212.18
878.96	212.16
879.27	212.16
879.58	212.20
879.89	212.25
880.20	212.27
880.51	212.28
880.82	212.30
881.12	212.25
881.43	212.18
881.74	212.14
882.05	212.10
882.36	212.12
882.67	212.08
882.97	211.67
883.28	211.72
883.59	211.65
883.90	211.65
884.21	211.74
884.51	211.79
884.82	211.70
885.13	211.67
885.44	211.66
885.74	211.66
886.05	211.55
886.36	211.51
886.67	211.38
886.98	211.55
887.28	211.60
887.59	211.64
887.90	211.61
888.20	211.62
888.51	211.73
888.82	211.63
889.13	211.65
889.43	212.03
889.74	211.99
890.05	212.03
890.35	212.03
890.66	211.98
890.97	211.97
891.28	211.95
891.58	211.93
891.89	211.90
892.20	211.85
892.50	211.80
892.81	211.81
893.12	211.83
893.42	211.64
893.73	211.59
894.04	211.65
894.34	211.74
894.65	211.74
894.95	211.62
895.26	211.74
895.57	211.86
895.87	211.52
896.18	211.51
896.48	211.52
896.79	211.50
897.10	211.62
897.40	211.59
897.71	211.67
898.01	211.60
898.32	211.74
898.63	211.80
898.93	211.87
899.24	211.93
899.54	211.92
899.85	211.94
900.15	211.99
900.46	211.91
900.76	211.91
901.07	211.91
901.38	211.96
901.68	211.84
901.99	211.71
902.29	211.68
902.60	211.66
902.90	211.66
903.21	211.64
903.51	211.62
903.82	211.67
904.12	211.65
904.43	211.74
904.73	211.66
905.03	211.70
905.34	211.98
905.64	211.93
905.95	211.90
906.25	211.90
906.56	211.79
906.86	211.77
907.17	211.62
907.47	211.63
907.77	211.57
908.08	211.54
908.38	211.60
908.69	211.66
908.99	211.75
909.30	211.76
909.60	211.80
909.90	211.75
910.21	211.63
910.51	211.54
910.81	211.57
911.12	211.62
911.42	211.60
911.73	211.29
912.03	211.29
912.33	211.41
912.64	211.36
912.94	211.39
913.24	211.37
913.55	211.50
913.85	211.51
914.15	211.63
914.46	211.67
914.76	211.63
915.06	211.53
915.37	211.50
915.67	211.48
915.97	211.44
916.27	211.32
916.58	211.40
916.88	211.44
917.18	211.41
917.49	211.65
917.79	211.59
918.09	211.61
918.39	211.71
918.70	211.67
919.00	211.69
919.30	211.88
919.60	211.86
919.91	211.75
920.21	211.76
920.51	211.64
920.81	211.59
921.12	211.60
921.42	211.62
921.72	211.63
922.02	211.70
922.32	211.75
922.63	211.79
922.93	211.96
923.23	211.93
923.53	211.93
923.83	211.60
924.13	211.63
924.44	211.57
924.74	211.67
925.04	211.72
925.34	211.75
925.64	211.59
925.94	211.59
926.24	211.77
926.55	211.70
926.85	211.76
927.15	211.81
927.45	211.86
927.75	211.87
928.05	211.92
928.35	211.91
928.65	211.94
928.95	212.00
929.26	211.76
929.56	211.89
929.86	211.90
930.16	211.96
930.46	212.00
930.76	212.11
931.06	211.87
931.36	211.75
931.66	211.84
931.96	211.88
932.26	211.96
932.56	211.91
932.86	211.91
933.16	211.90
933.46	211.95
933.76	211.89
934.06	212.00
934.36	212.07
934.66	211.99
934.96	211.97
935.26	211.96
935.56	212.07
935.86	212.01
936.16	211.94
936.46	211.93
936.76	211.85
937.06	211.77
937.36	211.86
937.66	211.93
937.96	211.83
938.26	211.75
938.56	211.76
938.86	211.75
939.16	211.94
939.46	212.01
939.76	211.93
940.06	211.91
940.35	211.79
940.65	211.58
940.95	211.67
941.25	211.62
941.55	211.51
941.85	211.48
942.15	211.50
942.45	211.60
942.75	211.59
943.04	211.63
943.34	211.69
943.64	211.70
943.94	211.61
944.24	211.64
944.54	211.66
944.84	211.63
945.13	211.55
945.43	211.44
945.73	211.40
946.03	211.45
946.33	211.40
946.62	211.47
946.92	211.53
947.22	211.54
947.52	211.50
947.82	211.65
948.11	211.62
948.41	211.58
948.71	211.49
949.01	211.41
949.31	211.40
949.60	211.38
949.90	211.37
950.20	211.41
950.50	211.42
950.79	211.34
951.09	211.37
951.39	211.36
951.69	211.35
951.98	211.40
952.28	211.45
952.58	211.42
952.87	211.38
953.17	211.34
953.47	211.31
953.76	211.36
954.06	211.29
954.36	211.24
954.66	211.13
954.95	211.25
955.25	211.40
955.55	211.45
955.84	211.39
956.14	211.39
956.44	211.35
956.73	211.26
957.03	211.36
957.32	211.32
957.62	211.34
957.92	211.41
958.21	211.37
958.51	211.73
958.81	211.81
959.10	211.80
959.40	211.92
959.69	211.89
959.99	211.90
960.29	211.83
960.58	211.84
960.88	212.06
961.17	212.02
961.47	212.03
961.76	212.01
962.06	212.07
962.36	212.07
962.65	212.14
962.95	212.21
963.24	212.11
963.54	212.15
963.83	212.16
964.13	212.03
964.42	211.93
964.72	211.65
965.01	211.72
965.31	211.77
965.60	211.71
965.90	211.92
966.19	211.84
966.49	211.83
966.78	211.79
967.08	211.69
967.37	211.69
967.67	211.57
967.96	211.56
968.26	211.53
968.55	211.56
968.85	211.51
969.14	211.55
969.43	211.63
969.73	211.59
970.02	211.55
970.32	211.65
970.61	211.71
970.91	211.52
971.20	211.41
971.49	211.35
971.79	211.41
972.08	211.20
972.38	211.29
972.67	211.31
972.96	211.37
973.26	211.31
973.55	211.38
973.85	211.40
974.14	211.38
974.43	211.41
974.73	211.35
975.02	211.30
975.31	211.25
975.61	211.21
975.90	211.15
976.19	211.18
976.49	211.15
976.78	211.14
977.07	211.22
977.37	211.30
977.66	211.33
977.95	211.20
978.24	211.28
978.54	211.33
978.83	211.32
979.12	211.34
979.42	211.43
979.71	211.32
980.00	211.33
980.29	211.37
980.59	211.32
980.88	211.35
981.17	211.37
981.46	211.36
981.76	211.40
982.05	211.55
982.34	211.52
982.63	211.55
982.93	211.53
983.22	211.61
983.51	211.60
983.80	211.69
984.09	211.76
984.39	211.69
984.68	211.64
984.97	211.68
985.26	211.61
985.55	211.66
985.85	211.61
986.14	211.68
986.43	211.69
986.72	211.68
987.01	211.61
987.30	211.58
987.59	211.53
987.89	211.53
988.18	211.34
988.47	211.28
988.76	211.21
989.05	211.13
989.34	211.02
989.63	211.10
989.92	211.01
990.22	210.94
990.51	210.95
990.80	210.88
991.09	210.93
991.38	211.06
991.67	210.96
991.96	210.94
992.25	210.95
992.54	210.90
992.83	210.85
993.12	210.92
993.41	211.02
993.70	211.17
993.99	211.19
994.28	211.29
994.58	211.41
994.87	211.38
995.16	211.36
995.45	211.39
995.74	211.28
996.03	211.33
996.32	211.44
996.61	211.55
996.90	211.57
997.19	211.55
997.48	211.49
997.77	211.48
998.06	211.53
998.34	211.45
998.63	211.46
998.92	211.53
999.21	211.53
999.50	211.54
999.79	211.52
1000.08	211.50
1000.37	211.50
1000.66	211.40
1000.95	211.47
1001.24	211.58
1001.53	211.56
1001.82	211.58
1002.11	211.51
1002.40	211.49
1002.68	211.49
1002.97	211.67
1003.26	211.63
1003.55	211.61
1003.84	211.62
1004.13	211.73
1004.42	211.73
1004.71	211.68
1004.99	211.65
1005.28	211.70
1005.57	211.67
1005.86	211.51
1006.15	211.52
1006.44	211.51
1006.72	211.60
1007.01	211.60
1007.30	211.62
1007.59	211.61
1007.88	211.48
1008.17	211.49
1008.45	211.37
1008.74	211.25
1009.03	211.10
1009.32	211.09
1009.60	211.10
1009.89	211.06
1010.18	210.87
1010.47	210.81
1010.76	210.88
1011.04	210.85
1011.33	211.09
1011.62	211.06
1011.91	211.11
1012.19	211.11
1012.48	211.07
1012.77	211.04
1013.05	211.11
1013.34	211.07
1013.63	211.11
1013.92	211.19
1014.20	211.12
1014.49	211.18
1014.78	211.16
1015.06	211.10
1015.35	211.13
1015.64	211.08
1015.92	211.14
1016.21	211.17
1016.50	211.18
1016.78	211.24
1017.07	211.35
1017.36	211.03
1017.64	211.02
1017.93	211.01
1018.22	211.00
1018.50	210.92
1018.79	210.93
1019.08	210.80
1019.36	210.82
1019.65	210.74
1019.93	210.81
1020.22	210.87
1020.51	211.05
1020.79	211.07
1021.08	210.90
1021.36	208.80
1021.65	211.35
1021.94	210.50
1022.22	211.15
1022.51	210.05
1022.79	211.75
1023.08	211.00
1023.36	214.95
1023.65	210.65
>>>>>End Processed Spectral Data<<<<<
