SpectraSuite Data File
++++++++++++++++++++++++++++++++++++
Date: Mon Feb 25 17:00:06 EST 2013
User: group
Dark Spectrum Present: No
Reference Spectrum Present: No
Number of Sampled Component Spectra: 1
Spectrometers: USB2E7196
Integration Time (usec): 104000 (USB2E7196)
Spectra Averaged: 20 (USB2E7196)
Boxcar Smoothing: 10 (USB2E7196)
Correct for Electrical Dark: No (USB2E7196)
Strobe/Lamp Enabled: No (USB2E7196)
Correct for Detector Non-linearity: No (USB2E7196)
Correct for Stray Light: No (USB2E7196)
Number of Pixels in Processed Spectrum: 2048
>>>>>Begin Processed Spectral Data<<<<<
339.09	0.00
339.48	198.25
339.86	199.30
340.24	202.55
340.63	202.45
341.01	209.60
341.39	205.60
341.78	208.15
342.16	208.85
342.54	208.40
342.93	198.44
343.31	208.44
343.69	209.03
344.07	209.54
344.46	210.00
344.84	210.50
345.22	210.57
345.60	210.77
345.99	210.92
346.37	211.05
346.75	211.18
347.13	211.25
347.52	211.39
347.90	211.50
348.28	211.40
348.66	211.40
349.05	211.23
349.43	211.32
349.81	211.28
350.19	211.35
350.57	211.41
350.96	211.47
351.34	211.57
351.72	211.65
352.10	211.67
352.48	211.63
352.87	211.57
353.25	211.60
353.63	211.62
354.01	211.61
354.39	211.61
354.77	211.69
355.15	211.85
355.54	211.78
355.92	211.70
356.30	211.79
356.68	212.09
357.06	212.22
357.44	212.20
357.82	212.18
358.20	212.27
358.58	212.28
358.97	212.36
359.35	212.45
359.73	212.55
360.11	212.62
360.49	212.72
360.87	212.73
361.25	212.83
361.63	213.11
362.01	213.18
362.39	213.23
362.77	213.26
363.15	213.24
363.53	213.31
363.91	213.38
364.29	213.45
364.67	213.15
365.05	213.14
365.43	213.20
365.81	213.38
366.19	213.46
366.57	213.60
366.95	213.63
367.33	213.56
367.71	213.52
368.09	213.64
368.47	213.62
368.85	213.65
369.23	213.68
369.61	213.48
369.99	213.71
370.37	213.74
370.75	213.89
371.13	213.83
371.51	213.81
371.89	213.84
372.27	213.85
372.65	213.88
373.03	213.88
373.41	213.83
373.78	213.67
374.16	213.50
374.54	213.37
374.92	213.28
375.30	213.23
375.68	213.11
376.06	213.07
376.44	212.94
376.82	212.90
377.19	212.91
377.57	212.91
377.95	212.65
378.33	212.49
378.71	212.23
379.09	212.24
379.47	212.26
379.84	212.15
380.22	212.00
380.60	211.81
380.98	211.75
381.36	211.68
381.73	211.66
382.11	211.63
382.49	211.59
382.87	211.50
383.25	211.47
383.62	211.85
384.00	211.72
384.38	211.72
384.76	211.77
385.13	211.74
385.51	211.67
385.89	211.58
386.27	211.66
386.64	211.70
387.02	211.66
387.40	211.52
387.78	211.49
388.15	211.53
388.53	211.59
388.91	211.59
389.29	211.55
389.66	211.56
390.04	211.55
390.42	211.55
390.79	211.53
391.17	211.52
391.55	211.13
391.92	211.15
392.30	211.19
392.68	211.00
393.05	210.92
393.43	210.91
393.81	210.91
394.18	210.86
394.56	210.79
394.94	210.86
395.31	210.87
395.69	210.95
396.06	210.95
396.44	211.00
396.82	210.89
397.19	211.05
397.57	210.97
397.95	211.07
398.32	211.06
398.70	211.16
399.07	211.22
399.45	211.29
399.82	211.25
400.20	211.23
400.58	211.38
400.95	211.40
401.33	211.53
401.70	211.86
402.08	211.97
402.45	212.11
402.83	212.22
403.20	212.33
403.58	212.41
403.95	212.61
404.33	212.71
404.71	212.91
405.08	213.25
405.46	213.52
405.83	213.73
406.21	213.91
406.58	214.12
406.96	214.32
407.33	214.50
407.70	214.86
408.08	215.48
408.45	215.89
408.83	216.31
409.20	216.60
409.58	216.88
409.95	217.33
410.33	217.82
410.70	218.22
411.08	218.82
411.45	219.41
411.82	219.89
412.20	220.63
412.57	221.53
412.95	221.97
413.32	222.81
413.69	223.58
414.07	224.53
414.44	225.57
414.82	226.60
415.19	227.89
415.56	229.05
415.94	230.22
416.31	231.66
416.68	233.15
417.06	234.83
417.43	236.46
417.81	238.31
418.18	240.23
418.55	242.23
418.93	244.37
419.30	246.71
419.67	249.18
420.04	251.67
420.42	254.22
420.79	257.43
421.16	260.46
421.54	263.75
421.91	266.95
422.28	270.31
422.66	273.96
423.03	277.61
423.40	281.40
423.77	285.29
424.15	289.37
424.52	293.51
424.89	298.23
425.26	302.55
425.64	306.80
426.01	311.44
426.38	316.42
426.75	321.42
427.13	326.48
427.50	331.74
427.87	337.40
428.24	343.00
428.61	348.32
428.99	354.33
429.36	360.73
429.73	367.16
430.10	373.52
430.47	380.15
430.85	386.95
431.22	394.11
431.59	401.81
431.96	409.03
432.33	417.10
432.70	424.87
433.08	434.12
433.45	442.86
433.82	451.64
434.19	461.52
434.56	471.05
434.93	480.33
435.30	489.75
435.68	500.06
436.05	510.38
436.42	520.60
436.79	529.89
437.16	539.90
437.53	550.55
437.90	561.15
438.27	571.57
438.64	582.31
439.01	592.57
439.38	601.78
439.75	610.75
440.13	620.93
440.50	630.45
440.87	638.55
441.24	646.75
441.61	655.80
441.98	662.57
442.35	670.60
442.72	678.63
443.09	686.55
443.46	691.46
443.83	694.87
444.20	697.99
444.57	702.49
444.94	704.93
445.31	707.55
445.68	710.34
446.05	711.82
446.42	711.72
446.79	711.24
447.16	710.60
447.53	710.38
447.90	707.18
448.27	704.27
448.64	699.55
449.01	696.47
449.37	690.26
449.74	684.17
450.11	677.06
450.48	669.09
450.85	660.63
451.22	653.43
451.59	646.84
451.96	640.39
452.33	631.54
452.70	623.61
453.07	613.94
453.43	603.82
453.80	594.35
454.17	585.26
454.54	576.54
454.91	567.17
455.28	558.07
455.65	549.70
456.02	541.25
456.38	534.03
456.75	524.97
457.12	517.50
457.49	510.06
457.86	502.51
458.23	496.10
458.59	489.20
458.96	482.45
459.33	476.18
459.70	470.05
460.07	465.13
460.43	459.57
460.80	454.21
461.17	449.61
461.54	444.76
461.91	440.10
462.27	435.49
462.64	431.56
463.01	427.10
463.38	422.74
463.74	418.26
464.11	414.52
464.48	411.34
464.85	407.75
465.21	405.01
465.58	402.13
465.95	398.59
466.32	395.70
466.68	392.72
467.05	389.80
467.42	386.93
467.78	383.70
468.15	380.84
468.52	378.79
468.88	375.94
469.25	373.30
469.62	371.15
469.98	368.86
470.35	366.69
470.72	364.68
471.08	362.69
471.45	360.79
471.82	358.79
472.18	356.65
472.55	354.96
472.92	353.13
473.28	351.58
473.65	350.08
474.02	348.54
474.38	347.30
474.75	346.29
475.11	345.05
475.48	344.15
475.85	343.22
476.21	342.20
476.58	341.46
476.94	340.93
477.31	340.28
477.67	339.75
478.04	339.27
478.41	338.90
478.77	338.74
479.14	338.37
479.50	338.20
479.87	338.08
480.23	338.13
480.60	337.98
480.96	337.88
481.33	338.20
481.69	338.45
482.06	338.50
482.42	338.52
482.79	338.72
483.15	339.08
483.52	339.57
483.88	339.99
484.25	340.36
484.61	340.91
484.98	341.36
485.34	342.05
485.71	342.85
486.07	343.73
486.44	344.38
486.80	345.35
487.17	346.37
487.53	347.65
487.90	348.85
488.26	350.36
488.62	351.72
488.99	352.95
489.35	354.33
489.72	355.90
490.08	357.48
490.44	359.09
490.81	360.85
491.17	362.52
491.54	364.37
491.90	366.36
492.26	368.33
492.63	370.49
492.99	372.56
493.36	374.81
493.72	376.91
494.08	379.25
494.45	381.75
494.81	384.27
495.17	386.63
495.54	389.32
495.90	391.75
496.26	394.32
496.63	397.14
496.99	399.79
497.35	402.72
497.72	405.79
498.08	408.70
498.44	411.79
498.80	415.10
499.17	418.27
499.53	421.44
499.89	424.76
500.26	427.94
500.62	431.05
500.98	434.20
501.34	437.61
501.71	440.95
502.07	444.05
502.43	447.13
502.79	450.24
503.16	453.30
503.52	456.40
503.88	459.50
504.24	462.49
504.60	465.59
504.97	468.48
505.33	471.27
505.69	474.53
506.05	477.31
506.41	479.96
506.78	482.68
507.14	485.28
507.50	487.72
507.86	490.21
508.22	492.77
508.59	495.11
508.95	497.50
509.31	499.89
509.67	502.13
510.03	504.45
510.39	506.69
510.75	508.83
511.12	510.93
511.48	512.90
511.84	514.83
512.20	516.71
512.56	518.61
512.92	520.47
513.28	522.04
513.64	523.58
514.00	525.10
514.37	526.53
514.73	528.01
515.09	529.63
515.45	531.08
515.81	532.33
516.17	533.47
516.53	534.52
516.89	535.34
517.25	536.38
517.61	537.35
517.97	538.25
518.33	538.94
518.69	539.83
519.05	540.69
519.41	541.43
519.77	542.40
520.13	542.95
520.49	543.49
520.85	543.93
521.21	544.61
521.57	545.14
521.93	545.56
522.29	546.04
522.65	546.37
523.01	546.69
523.37	547.02
523.73	547.45
524.09	547.86
524.45	548.25
524.81	548.74
525.17	549.16
525.53	549.71
525.89	550.38
526.25	550.76
526.61	550.99
526.97	551.37
527.33	551.81
527.68	552.66
528.04	553.22
528.40	553.59
528.76	554.12
529.12	554.95
529.48	555.91
529.84	556.77
530.20	557.41
530.56	558.44
530.91	559.57
531.27	560.70
531.63	561.54
531.99	562.61
532.35	563.51
532.71	564.54
533.07	565.73
533.42	567.29
533.78	568.69
534.14	570.20
534.50	571.59
534.86	573.29
535.21	574.42
535.57	576.15
535.93	577.98
536.29	579.79
536.65	581.47
537.00	582.98
537.36	584.56
537.72	586.38
538.08	588.02
538.44	589.78
538.79	591.74
539.15	593.87
539.51	596.04
539.87	598.30
540.22	600.51
540.58	602.66
540.94	604.52
541.29	606.43
541.65	608.55
542.01	610.96
542.37	612.88
542.72	615.29
543.08	617.49
543.44	619.92
543.79	622.00
544.15	624.21
544.51	626.81
544.87	629.26
545.22	631.67
545.58	634.06
545.94	636.38
546.29	638.66
546.65	640.90
547.01	643.06
547.36	645.41
547.72	647.84
548.07	650.26
548.43	652.40
548.79	654.96
549.14	657.32
549.50	659.66
549.86	662.01
550.21	664.53
550.57	667.06
550.92	669.38
551.28	672.00
551.64	674.35
551.99	676.87
552.35	679.33
552.70	681.91
553.06	684.47
553.41	687.07
553.77	689.75
554.13	692.49
554.48	695.26
554.84	698.02
555.19	700.57
555.55	703.25
555.90	705.74
556.26	707.99
556.61	710.30
556.97	712.51
557.32	715.00
557.68	717.25
558.03	719.33
558.39	721.47
558.74	723.70
559.10	726.01
559.45	728.05
559.81	730.17
560.16	732.14
560.52	734.38
560.87	736.55
561.23	738.31
561.58	740.52
561.94	742.31
562.29	743.82
562.64	745.79
563.00	747.41
563.35	749.35
563.71	751.70
564.06	753.76
564.42	755.86
564.77	757.82
565.12	759.70
565.48	761.97
565.83	763.96
566.19	765.78
566.54	767.61
566.89	769.38
567.25	771.54
567.60	773.52
567.96	775.23
568.31	777.10
568.66	778.94
569.02	780.25
569.37	781.83
569.72	783.50
570.08	784.90
570.43	786.22
570.78	787.56
571.14	788.46
571.49	789.40
571.84	790.44
572.20	791.20
572.55	792.07
572.90	792.32
573.26	792.88
573.61	793.46
573.96	793.95
574.31	794.19
574.67	794.10
575.02	793.95
575.37	794.00
575.72	793.58
576.08	793.53
576.43	793.23
576.78	793.12
577.13	792.98
577.49	792.89
577.84	792.62
578.19	792.47
578.54	792.48
578.90	792.66
579.25	792.31
579.60	791.87
579.95	791.30
580.30	791.05
580.66	790.63
581.01	790.01
581.36	789.25
581.71	788.65
582.06	788.35
582.42	787.90
582.77	787.13
583.12	786.47
583.47	785.86
583.82	785.22
584.17	784.38
584.53	783.73
584.88	782.79
585.23	782.14
585.58	781.13
585.93	779.93
586.28	778.98
586.63	778.04
586.98	777.26
587.34	776.64
587.69	775.64
588.04	774.77
588.39	773.88
588.74	773.03
589.09	772.37
589.44	771.12
589.79	770.20
590.14	769.22
590.49	768.25
590.84	767.02
591.19	766.20
591.54	765.17
591.89	763.51
592.25	762.37
592.60	760.88
592.95	759.52
593.30	758.09
593.65	756.52
594.00	754.94
594.35	754.38
594.70	752.74
595.05	751.49
595.40	750.01
595.75	748.29
596.10	746.78
596.45	745.26
596.80	743.90
597.15	742.42
597.50	740.70
597.85	739.35
598.19	737.82
598.54	736.12
598.89	734.43
599.24	733.59
599.59	731.93
599.94	730.48
600.29	728.99
600.64	727.40
600.99	725.70
601.34	724.28
601.69	721.65
602.04	719.79
602.39	717.81
602.74	716.12
603.08	714.72
603.43	713.25
603.78	711.50
604.13	709.73
604.48	708.02
604.83	706.82
605.18	705.32
605.53	703.50
605.87	701.72
606.22	700.17
606.57	697.97
606.92	695.97
607.27	694.17
607.62	692.39
607.96	690.75
608.31	689.03
608.66	687.04
609.01	685.07
609.36	683.24
609.70	681.36
610.05	679.22
610.40	677.23
610.75	675.01
611.10	673.01
611.44	670.60
611.79	668.33
612.14	665.85
612.49	663.17
612.83	661.17
613.18	658.90
613.53	656.57
613.88	654.23
614.22	652.18
614.57	649.95
614.92	647.68
615.27	645.37
615.61	643.14
615.96	641.02
616.31	639.05
616.65	637.06
617.00	634.95
617.35	633.02
617.70	630.72
618.04	628.36
618.39	625.87
618.74	623.92
619.08	621.63
619.43	619.40
619.78	617.46
620.12	615.16
620.47	613.03
620.82	610.55
621.16	608.14
621.51	605.74
621.85	603.32
622.20	600.96
622.55	598.43
622.89	596.09
623.24	593.79
623.59	591.22
623.93	588.95
624.28	586.70
624.62	584.57
624.97	582.40
625.32	580.17
625.66	578.03
626.01	575.71
626.35	573.58
626.70	571.31
627.04	569.21
627.39	566.82
627.73	564.69
628.08	562.80
628.43	560.80
628.77	558.67
629.12	556.41
629.46	554.24
629.81	552.22
630.15	549.88
630.50	547.47
630.84	545.28
631.19	542.92
631.53	540.82
631.88	538.21
632.22	535.82
632.57	533.84
632.91	531.65
633.26	529.55
633.60	527.34
633.95	525.38
634.29	523.00
634.64	521.12
634.98	518.87
635.32	516.92
635.67	515.04
636.01	513.12
636.36	511.19
636.70	509.28
637.05	507.40
637.39	505.69
637.73	504.03
638.08	502.45
638.42	500.69
638.77	498.97
639.11	497.02
639.45	495.25
639.80	493.11
640.14	491.20
640.49	489.33
640.83	487.34
641.17	485.40
641.52	483.38
641.86	481.28
642.20	479.57
642.55	477.28
642.89	475.23
643.23	473.25
643.58	471.52
643.92	469.59
644.26	467.71
644.61	465.81
644.95	463.84
645.29	461.76
645.64	459.83
645.98	457.69
646.32	456.15
646.66	454.13
647.01	452.31
647.35	450.43
647.69	448.45
648.04	446.77
648.38	444.93
648.72	443.28
649.06	441.38
649.41	439.40
649.75	437.69
650.09	435.89
650.43	434.05
650.78	432.05
651.12	430.12
651.46	428.22
651.80	426.39
652.14	424.71
652.49	423.05
652.83	421.34
653.17	419.42
653.51	417.45
653.85	415.89
654.20	414.27
654.54	412.50
654.88	410.68
655.22	408.96
655.56	407.06
655.90	405.30
656.25	403.60
656.59	401.75
656.93	400.05
657.27	398.44
657.61	396.60
657.95	395.13
658.29	393.61
658.64	392.10
658.98	390.33
659.32	388.49
659.66	386.85
660.00	385.06
660.34	383.48
660.68	381.89
661.02	380.16
661.36	378.56
661.70	377.08
662.05	375.71
662.39	374.29
662.73	373.03
663.07	371.71
663.41	370.39
663.75	369.03
664.09	367.56
664.43	366.00
664.77	364.64
665.11	363.05
665.45	361.60
665.79	360.21
666.13	358.92
666.47	357.64
666.81	356.15
667.15	354.74
667.49	353.59
667.83	352.33
668.17	351.05
668.51	349.83
668.85	348.60
669.19	347.42
669.53	346.01
669.87	344.59
670.21	343.23
670.55	341.99
670.89	341.09
671.23	339.94
671.57	338.86
671.91	337.73
672.25	336.67
672.58	335.60
672.92	334.41
673.26	333.25
673.60	332.10
673.94	331.01
674.28	330.03
674.62	328.85
674.96	327.84
675.30	326.91
675.64	325.77
675.97	324.70
676.31	323.64
676.65	322.57
676.99	321.82
677.33	320.77
677.67	319.74
678.01	318.50
678.34	317.55
678.68	316.57
679.02	315.62
679.36	314.61
679.70	313.68
680.04	312.77
680.37	311.90
680.71	310.94
681.05	310.05
681.39	309.20
681.73	308.34
682.06	307.48
682.40	306.51
682.74	305.66
683.08	304.95
683.42	304.05
683.75	303.29
684.09	302.22
684.43	301.44
684.77	300.58
685.10	299.76
685.44	298.93
685.78	298.08
686.12	297.27
686.45	296.37
686.79	295.50
687.13	294.73
687.46	293.90
687.80	293.20
688.14	292.44
688.48	291.70
688.81	290.86
689.15	290.04
689.49	289.14
689.82	288.40
690.16	287.37
690.50	286.55
690.83	285.76
691.17	284.90
691.51	284.04
691.84	283.37
692.18	282.59
692.52	281.89
692.85	281.20
693.19	280.60
693.52	279.90
693.86	279.22
694.20	278.48
694.53	277.87
694.87	277.14
695.21	276.43
695.54	275.59
695.88	274.88
696.21	274.14
696.55	273.63
696.88	272.90
697.22	272.33
697.56	271.79
697.89	271.11
698.23	270.68
698.56	270.00
698.90	269.38
699.23	268.69
699.57	267.96
699.90	267.25
700.24	266.49
700.58	266.00
700.91	265.38
701.25	265.08
701.58	264.55
701.92	264.05
702.25	263.55
702.59	263.17
702.92	262.63
703.26	262.07
703.59	261.47
703.93	261.31
704.26	260.79
704.60	260.25
704.93	259.74
705.26	259.17
705.60	258.81
705.93	258.25
706.27	257.96
706.60	257.70
706.94	257.44
707.27	257.03
707.61	256.51
707.94	256.09
708.27	255.34
708.61	254.64
708.94	254.11
709.28	253.55
709.61	253.00
709.94	252.59
710.28	252.22
710.61	251.82
710.95	251.10
711.28	250.89
711.61	250.47
711.95	250.11
712.28	249.57
712.61	249.18
712.95	248.95
713.28	248.75
713.61	248.19
713.95	247.69
714.28	247.29
714.61	246.90
714.95	246.48
715.28	246.09
715.61	245.79
715.95	245.41
716.28	245.08
716.61	244.81
716.95	244.55
717.28	244.18
717.61	243.79
717.94	243.34
718.28	242.75
718.61	242.40
718.94	242.04
719.27	241.76
719.61	241.45
719.94	241.00
720.27	240.44
720.60	240.14
720.94	239.86
721.27	239.57
721.60	239.31
721.93	239.10
722.27	238.90
722.60	238.73
722.93	238.43
723.26	238.15
723.59	237.75
723.93	237.44
724.26	237.22
724.59	237.02
724.92	236.87
725.25	236.77
725.59	236.44
725.92	236.19
726.25	236.04
726.58	235.79
726.91	235.59
727.24	235.40
727.57	235.24
727.91	234.92
728.24	234.74
728.57	234.50
728.90	234.24
729.23	233.92
729.56	233.83
729.89	233.66
730.22	233.46
730.55	233.29
730.89	233.09
731.22	232.78
731.55	232.55
731.88	232.42
732.21	232.07
732.54	231.85
732.87	231.61
733.20	231.36
733.53	231.14
733.86	230.98
734.19	230.65
734.52	230.47
734.85	230.54
735.18	230.27
735.51	230.24
735.84	230.00
736.17	229.89
736.50	229.52
736.83	229.70
737.16	229.47
737.49	229.26
737.82	229.05
738.15	228.92
738.48	228.75
738.81	228.50
739.14	228.35
739.47	228.25
739.80	228.17
740.13	228.07
740.46	227.75
740.79	227.51
741.12	227.40
741.45	227.17
741.78	226.74
742.11	226.65
742.44	226.34
742.77	226.30
743.10	226.15
743.43	225.98
743.75	225.55
744.08	225.82
744.41	225.70
744.74	225.47
745.07	225.30
745.40	225.25
745.73	225.26
746.06	225.15
746.39	225.07
746.71	224.81
747.04	224.64
747.37	224.56
747.70	224.51
748.03	224.39
748.36	224.30
748.68	224.27
749.01	224.08
749.34	223.95
749.67	223.76
750.00	223.65
750.33	223.75
750.65	223.61
750.98	223.12
751.31	223.03
751.64	222.96
751.97	222.99
752.29	222.78
752.62	222.45
752.95	222.34
753.28	222.18
753.60	222.09
753.93	222.05
754.26	222.01
754.59	221.70
754.91	221.58
755.24	221.44
755.57	221.30
755.90	221.21
756.22	221.07
756.55	220.97
756.88	220.86
757.20	220.52
757.53	220.29
757.86	220.21
758.19	220.17
758.51	220.03
758.84	219.79
759.17	219.69
759.49	219.63
759.82	219.65
760.15	219.49
760.47	219.46
760.80	219.30
761.13	219.20
761.45	219.16
761.78	219.08
762.11	218.97
762.43	218.83
762.76	218.72
763.08	218.80
763.41	218.67
763.74	218.51
764.06	218.48
764.39	218.44
764.71	218.34
765.04	218.17
765.37	218.13
765.69	218.09
766.02	217.99
766.34	217.93
766.67	217.68
767.00	217.67
767.32	217.76
767.65	217.89
767.97	217.84
768.30	217.81
768.62	217.76
768.95	217.77
769.27	217.74
769.60	217.75
769.92	217.53
770.25	217.44
770.57	217.37
770.90	217.27
771.22	217.17
771.55	217.11
771.87	217.11
772.20	217.03
772.52	217.20
772.85	217.55
773.17	217.51
773.50	217.49
773.82	217.45
774.15	217.20
774.47	216.94
774.80	216.78
775.12	216.72
775.45	216.64
775.77	216.61
776.09	216.58
776.42	216.53
776.74	216.55
777.07	216.48
777.39	216.40
777.72	216.29
778.04	216.27
778.36	216.18
778.69	216.13
779.01	216.13
779.33	215.84
779.66	215.42
779.98	215.34
780.31	215.34
780.63	215.54
780.95	215.56
781.28	215.52
781.60	215.53
781.92	215.58
782.25	215.43
782.57	215.40
782.89	215.33
783.22	215.26
783.54	215.22
783.86	215.27
784.19	215.22
784.51	215.32
784.83	215.27
785.16	215.24
785.48	215.15
785.80	215.06
786.12	215.04
786.45	215.01
786.77	215.02
787.09	214.95
787.42	214.65
787.74	214.58
788.06	214.61
788.38	214.55
788.71	214.45
789.03	214.48
789.35	214.42
789.67	214.34
789.99	214.32
790.32	214.19
790.64	214.16
790.96	214.46
791.28	214.35
791.61	214.27
791.93	214.28
792.25	214.30
792.57	214.56
792.89	214.44
793.21	214.46
793.54	214.40
793.86	214.32
794.18	214.33
794.50	214.26
794.82	214.19
795.14	214.21
795.47	214.25
795.79	214.31
796.11	214.28
796.43	214.29
796.75	214.33
797.07	214.34
797.39	214.29
797.71	213.94
798.04	213.97
798.36	214.02
798.68	213.98
799.00	213.93
799.32	213.74
799.64	213.78
799.96	213.70
800.28	213.73
800.60	213.69
800.92	213.79
801.24	213.76
801.56	213.77
801.89	213.69
802.21	213.66
802.53	213.53
802.85	213.60
803.17	213.69
803.49	213.55
803.81	213.46
804.13	213.38
804.45	213.46
804.77	213.43
805.09	213.43
805.41	213.40
805.73	213.33
806.05	213.23
806.37	213.20
806.69	213.17
807.01	213.11
807.33	213.19
807.65	213.00
807.97	213.14
808.28	213.04
808.60	213.03
808.92	212.89
809.24	213.11
809.56	212.93
809.88	212.81
810.20	212.85
810.52	212.95
810.84	212.92
811.16	212.81
811.48	212.72
811.80	212.80
812.12	212.75
812.43	212.85
812.75	212.87
813.07	212.80
813.39	212.84
813.71	212.74
814.03	212.70
814.35	212.67
814.67	212.49
814.98	212.43
815.30	212.48
815.62	212.49
815.94	212.23
816.26	212.28
816.58	212.26
816.89	212.24
817.21	212.13
817.53	212.20
817.85	212.24
818.17	212.24
818.48	212.13
818.80	212.18
819.12	212.14
819.44	212.04
819.76	212.05
820.07	212.04
820.39	212.13
820.71	212.14
821.03	212.15
821.34	212.21
821.66	212.28
821.98	212.26
822.30	212.24
822.61	212.44
822.93	212.46
823.25	212.43
823.57	212.43
823.88	212.53
824.20	212.49
824.52	212.49
824.83	212.51
825.15	212.41
825.47	212.36
825.79	212.34
826.10	212.35
826.42	212.32
826.74	212.27
827.05	212.22
827.37	212.28
827.69	212.31
828.00	212.24
828.32	212.29
828.64	212.20
828.95	212.36
829.27	212.23
829.58	212.21
829.90	212.27
830.22	212.28
830.53	212.23
830.85	212.20
831.17	212.13
831.48	212.08
831.80	212.18
832.11	212.14
832.43	212.08
832.75	211.99
833.06	212.20
833.38	212.15
833.69	212.14
834.01	212.09
834.32	212.02
834.64	211.99
834.96	211.96
835.27	211.99
835.59	211.91
835.90	211.91
836.22	211.84
836.53	211.72
836.85	211.70
837.16	211.98
837.48	211.99
837.79	212.12
838.11	212.18
838.42	212.15
838.74	212.20
839.05	212.23
839.37	212.35
839.68	212.11
840.00	212.10
840.31	212.16
840.63	212.07
840.94	212.05
841.26	212.04
841.57	211.94
841.88	211.97
842.20	211.97
842.51	211.92
842.83	211.99
843.14	212.34
843.46	212.35
843.77	212.14
844.08	212.05
844.40	211.88
844.71	211.87
845.03	211.77
845.34	211.79
845.65	211.77
845.97	211.71
846.28	211.71
846.60	211.74
846.91	211.61
847.22	211.60
847.54	211.68
847.85	211.68
848.16	211.71
848.48	211.66
848.79	211.74
849.10	211.78
849.42	211.66
849.73	211.30
850.04	211.21
850.36	211.11
850.67	211.19
850.98	211.25
851.30	211.22
851.61	211.26
851.92	211.23
852.23	211.26
852.55	211.24
852.86	211.24
853.17	211.28
853.49	211.36
853.80	211.41
854.11	211.44
854.42	211.50
854.74	211.42
855.05	211.44
855.36	211.25
855.67	211.20
855.99	211.25
856.30	211.63
856.61	211.63
856.92	211.63
857.23	211.62
857.55	211.50
857.86	211.53
858.17	211.60
858.48	211.54
858.79	211.46
859.11	211.52
859.42	211.53
859.73	211.52
860.04	211.49
860.35	211.40
860.66	211.30
860.98	211.31
861.29	211.42
861.60	211.36
861.91	211.37
862.22	211.35
862.53	211.30
862.84	210.99
863.16	211.06
863.47	211.05
863.78	211.05
864.09	211.13
864.40	211.12
864.71	211.12
865.02	211.16
865.33	211.17
865.64	211.15
865.95	211.18
866.27	211.32
866.58	211.35
866.89	211.46
867.20	211.49
867.51	211.37
867.82	211.32
868.13	211.41
868.44	211.46
868.75	211.58
869.06	211.66
869.37	211.63
869.68	211.51
869.99	211.57
870.30	211.63
870.61	211.70
870.92	211.57
871.23	211.52
871.54	211.61
871.85	211.67
872.16	211.71
872.47	211.66
872.78	211.46
873.09	211.48
873.40	211.49
873.71	211.52
874.02	211.57
874.33	211.55
874.64	211.51
874.95	211.51
875.26	211.34
875.56	211.22
875.87	211.22
876.18	211.23
876.49	211.54
876.80	211.49
877.11	211.39
877.42	211.46
877.73	211.43
878.04	211.36
878.35	211.36
878.66	211.27
878.96	211.25
879.27	211.25
879.58	211.25
879.89	211.18
880.20	211.21
880.51	211.25
880.82	211.26
881.12	211.25
881.43	211.15
881.74	211.18
882.05	211.23
882.36	211.26
882.67	211.33
882.97	211.00
883.28	210.95
883.59	210.93
883.90	210.95
884.21	210.98
884.51	211.04
884.82	211.00
885.13	211.10
885.44	211.13
885.74	211.19
886.05	211.16
886.36	211.09
886.67	210.91
886.98	211.06
887.28	211.10
887.59	211.10
887.90	211.15
888.20	211.08
888.51	211.12
888.82	211.04
889.13	211.05
889.43	211.24
889.74	211.19
890.05	211.15
890.35	211.15
890.66	211.09
890.97	210.94
891.28	210.90
891.58	210.89
891.89	210.88
892.20	210.80
892.50	210.75
892.81	210.78
893.12	210.86
893.42	210.66
893.73	210.61
894.04	210.57
894.34	210.58
894.65	210.63
894.95	210.62
895.26	210.65
895.57	210.75
895.87	210.50
896.18	210.65
896.48	210.69
896.79	210.73
897.10	210.74
897.40	210.81
897.71	210.80
898.01	210.77
898.32	210.85
898.63	210.83
898.93	210.87
899.24	210.86
899.54	210.88
899.85	210.94
900.15	210.97
900.46	211.03
900.76	211.11
901.07	211.03
901.38	211.05
901.68	211.10
901.99	210.99
902.29	211.03
902.60	210.99
902.90	210.98
903.21	210.96
903.51	210.98
903.82	211.05
904.12	211.12
904.43	211.23
904.73	211.23
905.03	211.27
905.34	211.65
905.64	211.68
905.95	211.59
906.25	211.55
906.56	211.58
906.86	211.55
907.17	211.44
907.47	211.60
907.77	211.55
908.08	211.48
908.38	211.51
908.69	211.46
908.99	211.55
909.30	211.63
909.60	211.59
909.90	211.62
910.21	211.52
910.51	211.39
910.81	211.25
911.12	211.25
911.42	211.25
911.73	210.85
912.03	210.91
912.33	211.08
912.64	211.02
912.94	211.05
913.24	210.99
913.55	210.99
913.85	210.95
914.15	211.00
914.46	211.10
914.76	211.05
915.06	211.08
915.37	210.94
915.67	210.84
915.97	210.86
916.27	210.79
916.58	210.81
916.88	210.82
917.18	210.83
917.49	211.01
917.79	211.05
918.09	211.13
918.39	211.16
918.70	211.14
919.00	211.20
919.30	211.27
919.60	211.29
919.91	211.31
920.21	211.31
920.51	211.27
920.81	211.21
921.12	211.23
921.42	211.20
921.72	211.27
922.02	211.34
922.32	211.41
922.63	211.43
922.93	211.65
923.23	211.61
923.53	211.61
923.83	211.37
924.13	211.35
924.44	211.28
924.74	211.30
925.04	211.37
925.34	211.32
925.64	211.20
925.94	211.17
926.24	211.27
926.55	211.24
926.85	211.32
927.15	211.27
927.45	211.30
927.75	211.28
928.05	211.28
928.35	211.25
928.65	211.19
928.95	211.24
929.26	211.09
929.56	211.28
929.86	211.33
930.16	211.30
930.46	211.29
930.76	211.37
931.06	211.22
931.36	211.06
931.66	211.11
931.96	211.15
932.26	211.27
932.56	211.18
932.86	211.18
933.16	211.09
933.46	211.14
933.76	211.05
934.06	211.19
934.36	211.27
934.66	211.24
934.96	211.28
935.26	211.28
935.56	211.25
935.86	211.10
936.16	211.02
936.46	210.97
936.76	210.99
937.06	210.87
937.36	210.84
937.66	210.87
937.96	210.89
938.26	210.72
938.56	210.67
938.86	210.65
939.16	210.69
939.46	210.75
939.76	210.68
940.06	210.68
940.35	210.56
940.65	210.39
940.95	210.41
941.25	210.35
941.55	210.29
941.85	210.26
942.15	210.33
942.45	210.45
942.75	210.46
943.04	210.44
943.34	210.48
943.64	210.54
943.94	210.49
944.24	210.49
944.54	210.55
944.84	210.52
945.13	210.60
945.43	210.56
945.73	210.51
946.03	210.50
946.33	210.55
946.62	210.54
946.92	210.56
947.22	210.63
947.52	210.63
947.82	210.65
948.11	210.69
948.41	210.67
948.71	210.57
949.01	210.58
949.31	210.56
949.60	210.60
949.90	210.58
950.20	210.58
950.50	210.61
950.79	210.59
951.09	210.64
951.39	210.55
951.69	210.60
951.98	210.67
952.28	210.72
952.58	210.69
952.87	210.65
953.17	210.67
953.47	210.64
953.76	210.66
954.06	210.65
954.36	210.57
954.66	210.58
954.95	210.63
955.25	210.75
955.55	210.70
955.84	210.64
956.14	210.73
956.44	210.76
956.73	210.65
957.03	210.72
957.32	210.64
957.62	210.60
957.92	210.60
958.21	210.64
958.51	210.99
958.81	211.04
959.10	211.14
959.40	211.22
959.69	211.18
959.99	211.16
960.29	211.10
960.58	211.13
960.88	211.22
961.17	211.17
961.47	211.18
961.76	211.20
962.06	211.31
962.36	211.20
962.65	211.24
962.95	211.30
963.24	211.27
963.54	211.43
963.83	211.48
964.13	211.51
964.42	211.47
964.72	211.19
965.01	211.26
965.31	211.23
965.60	211.10
965.90	211.39
966.19	211.40
966.49	211.50
966.78	211.51
967.08	211.50
967.37	211.56
967.67	211.44
967.96	211.52
968.26	211.48
968.55	211.61
968.85	211.61
969.14	211.59
969.43	211.55
969.73	211.49
970.02	211.41
970.32	211.42
970.61	211.42
970.91	211.35
971.20	211.21
971.49	211.16
971.79	211.27
972.08	211.05
972.38	211.11
972.67	211.13
972.96	211.18
973.26	211.10
973.55	211.23
973.85	211.30
974.14	211.20
974.43	211.25
974.73	211.16
975.02	211.12
975.31	211.15
975.61	211.23
975.90	211.16
976.19	211.17
976.49	211.15
976.78	211.12
977.07	211.19
977.37	211.17
977.66	211.22
977.95	211.20
978.24	211.29
978.54	211.29
978.83	211.21
979.12	211.19
979.42	211.25
979.71	211.18
980.00	211.21
980.29	211.23
980.59	211.14
980.88	211.26
981.17	211.19
981.46	211.17
981.76	211.15
982.05	211.26
982.34	211.31
982.63	211.26
982.93	211.31
983.22	211.36
983.51	211.42
983.80	211.50
984.09	211.55
984.39	211.45
984.68	211.43
984.97	211.37
985.26	211.31
985.55	211.30
985.85	211.21
986.14	211.24
986.43	211.36
986.72	211.30
987.01	211.19
987.30	211.25
987.59	211.28
987.89	211.30
988.18	211.20
988.47	211.13
988.76	211.12
989.05	211.04
989.34	211.00
989.63	211.09
989.92	210.99
990.22	210.85
990.51	210.84
990.80	210.76
991.09	210.85
991.38	210.89
991.67	210.86
991.96	210.85
992.25	210.88
992.54	210.78
992.83	210.81
993.12	210.78
993.41	210.83
993.70	210.97
993.99	210.99
994.28	211.06
994.58	211.10
994.87	211.07
995.16	211.05
995.45	211.00
995.74	210.89
996.03	210.95
996.32	211.11
996.61	211.17
996.90	211.20
997.19	211.23
997.48	211.25
997.77	211.13
998.06	211.19
998.34	211.06
998.63	211.07
998.92	211.06
999.21	211.03
999.50	211.02
999.79	210.84
1000.08	210.82
1000.37	210.90
1000.66	210.84
1000.95	210.93
1001.24	210.91
1001.53	210.98
1001.82	210.90
1002.11	210.81
1002.40	210.73
1002.68	210.81
1002.97	211.01
1003.26	210.96
1003.55	210.89
1003.84	210.94
1004.13	211.03
1004.42	211.04
1004.71	211.02
1004.99	211.04
1005.28	211.14
1005.57	211.17
1005.86	211.16
1006.15	211.15
1006.44	211.04
1006.72	211.11
1007.01	211.06
1007.30	211.15
1007.59	211.11
1007.88	211.14
1008.17	211.20
1008.45	211.16
1008.74	210.99
1009.03	210.87
1009.32	210.87
1009.60	210.91
1009.89	210.86
1010.18	210.69
1010.47	210.73
1010.76	210.72
1011.04	210.71
1011.33	210.74
1011.62	210.70
1011.91	210.70
1012.19	210.64
1012.48	210.62
1012.77	210.62
1013.05	210.76
1013.34	210.73
1013.63	210.72
1013.92	210.78
1014.20	210.74
1014.49	210.76
1014.78	210.86
1015.06	210.73
1015.35	210.75
1015.64	210.78
1015.92	210.83
1016.21	210.87
1016.50	210.76
1016.78	210.81
1017.07	210.79
1017.36	210.72
1017.64	210.72
1017.93	210.86
1018.22	210.89
1018.50	210.85
1018.79	210.88
1019.08	210.72
1019.36	210.75
1019.65	210.71
1019.93	210.75
1020.22	210.78
1020.51	210.94
1020.79	210.92
1021.08	210.50
1021.36	209.45
1021.65	211.35
1021.94	210.20
1022.22	211.90
1022.51	210.30
1022.79	211.95
1023.08	210.80
1023.36	214.60
1023.65	210.95
>>>>>End Processed Spectral Data<<<<<
