SpectraSuite Data File
++++++++++++++++++++++++++++++++++++
Date: Mon Feb 25 17:13:57 EST 2013
User: group
Dark Spectrum Present: No
Reference Spectrum Present: No
Number of Sampled Component Spectra: 1
Spectrometers: USB2E7196
Integration Time (usec): 104000 (USB2E7196)
Spectra Averaged: 20 (USB2E7196)
Boxcar Smoothing: 10 (USB2E7196)
Correct for Electrical Dark: No (USB2E7196)
Strobe/Lamp Enabled: No (USB2E7196)
Correct for Detector Non-linearity: No (USB2E7196)
Correct for Stray Light: No (USB2E7196)
Number of Pixels in Processed Spectrum: 2048
>>>>>Begin Processed Spectral Data<<<<<
339.09	0.00
339.48	198.60
339.86	200.60
340.24	200.50
340.63	202.55
341.01	209.45
341.39	205.70
341.78	206.80
342.16	209.95
342.54	209.00
342.93	197.92
343.31	207.93
343.69	208.47
344.07	208.85
344.46	209.32
344.84	209.68
345.22	209.72
345.60	209.98
345.99	210.26
346.37	210.22
346.75	210.30
347.13	210.31
347.52	210.41
347.90	210.49
348.28	210.53
348.66	210.73
349.05	210.66
349.43	210.73
349.81	210.87
350.19	210.96
350.57	211.05
350.96	211.13
351.34	211.26
351.72	211.33
352.10	211.46
352.48	211.53
352.87	211.63
353.25	211.71
353.63	211.72
354.01	211.75
354.39	211.92
354.77	211.96
355.15	212.10
355.54	212.12
355.92	212.10
356.30	212.09
356.68	212.31
357.06	212.42
357.44	212.40
357.82	212.48
358.20	212.58
358.58	212.59
358.97	212.74
359.35	212.80
359.73	212.89
360.11	213.01
360.49	213.10
360.87	213.11
361.25	213.20
361.63	213.35
362.01	213.41
362.39	213.45
362.77	213.56
363.15	213.63
363.53	213.73
363.91	213.82
364.29	213.92
364.67	213.63
365.05	213.67
365.43	213.76
365.81	213.70
366.19	213.86
366.57	214.07
366.95	214.07
367.33	214.00
367.71	214.03
368.09	214.07
368.47	214.02
368.85	214.05
369.23	214.10
369.61	214.02
369.99	214.06
370.37	214.09
370.75	214.24
371.13	214.15
371.51	214.06
371.89	214.08
372.27	214.05
372.65	214.05
373.03	214.02
373.41	213.96
373.78	213.93
374.16	213.74
374.54	213.60
374.92	213.46
375.30	213.45
375.68	213.37
376.06	213.29
376.44	213.26
376.82	213.22
377.19	213.19
377.57	213.13
377.95	213.00
378.33	212.90
378.71	212.63
379.09	212.67
379.47	212.68
379.84	212.54
380.22	212.53
380.60	212.37
380.98	212.28
381.36	212.22
381.73	212.18
382.11	212.16
382.49	212.11
382.87	212.02
383.25	211.97
383.62	212.32
384.00	212.25
384.38	212.22
384.76	212.23
385.13	212.30
385.51	212.22
385.89	212.11
386.27	212.09
386.64	212.11
387.02	211.97
387.40	211.90
387.78	211.94
388.15	211.89
388.53	211.88
388.91	211.87
389.29	211.87
389.66	211.89
390.04	211.83
390.42	211.85
390.79	211.85
391.17	211.81
391.55	211.41
391.92	211.27
392.30	211.26
392.68	211.18
393.05	211.10
393.43	211.12
393.81	211.16
394.18	211.06
394.56	211.03
394.94	211.12
395.31	211.05
395.69	211.12
396.06	211.09
396.44	211.15
396.82	211.06
397.19	211.25
397.57	211.19
397.95	211.23
398.32	211.17
398.70	211.22
399.07	211.30
399.45	211.30
399.82	211.38
400.20	211.39
400.58	211.41
400.95	211.30
401.33	211.40
401.70	211.65
402.08	211.71
402.45	211.79
402.83	211.89
403.20	212.04
403.58	212.02
403.95	212.22
404.33	212.25
404.71	212.45
405.08	212.70
405.46	212.87
405.83	212.95
406.21	213.02
406.58	213.17
406.96	213.31
407.33	213.45
407.70	213.69
408.08	214.16
408.45	214.37
408.83	214.70
409.20	214.90
409.58	214.92
409.95	215.23
410.33	215.46
410.70	215.61
411.08	215.87
411.45	216.19
411.82	216.40
412.20	216.82
412.57	217.32
412.95	217.28
413.32	217.68
413.69	218.06
414.07	218.53
414.44	218.95
414.82	219.46
415.19	220.02
415.56	220.59
415.94	221.06
416.31	221.82
416.68	222.45
417.06	223.21
417.43	224.07
417.81	224.92
418.18	225.83
418.55	226.76
418.93	227.78
419.30	228.81
419.67	229.96
420.04	231.04
420.42	232.16
420.79	233.83
421.16	235.26
421.54	236.83
421.91	238.38
422.28	239.95
422.66	241.55
423.03	243.36
423.40	244.98
423.77	246.64
424.15	248.32
424.52	250.16
424.89	252.16
425.26	253.98
425.64	255.85
426.01	257.90
426.38	260.05
426.75	262.26
427.13	264.51
427.50	266.84
427.87	269.27
428.24	271.61
428.61	273.74
428.99	276.32
429.36	278.91
429.73	281.56
430.10	284.29
430.47	287.06
430.85	289.74
431.22	292.83
431.59	296.24
431.96	299.38
432.33	302.72
432.70	306.03
433.08	309.80
433.45	313.41
433.82	316.95
434.19	320.98
434.56	324.92
434.93	328.55
435.30	332.19
435.68	336.35
436.05	340.50
436.42	344.52
436.79	348.22
437.16	352.29
437.53	356.51
437.90	360.64
438.27	364.73
438.64	369.00
439.01	372.92
439.38	376.10
439.75	379.43
440.13	383.36
440.50	386.93
440.87	389.95
441.24	392.98
441.61	396.44
441.98	398.95
442.35	401.75
442.72	404.74
443.09	407.79
443.46	409.38
443.83	410.40
444.20	411.45
444.57	412.80
444.94	413.44
445.31	414.05
445.68	415.09
446.05	415.41
446.42	414.92
446.79	414.39
447.16	413.93
447.53	413.62
447.90	411.86
448.27	410.35
448.64	408.18
449.01	406.62
449.37	403.77
449.74	400.83
450.11	397.86
450.48	394.38
450.85	390.62
451.22	387.50
451.59	384.64
451.96	381.80
452.33	378.08
452.70	374.66
453.07	370.67
453.43	366.15
453.80	362.08
454.17	358.36
454.54	354.89
454.91	350.99
455.28	347.05
455.65	343.63
456.02	340.55
456.38	337.55
456.75	333.93
457.12	330.81
457.49	327.92
457.86	324.70
458.23	322.24
458.59	319.42
458.96	316.75
459.33	314.16
459.70	311.58
460.07	309.59
460.43	307.36
460.80	305.39
461.17	303.71
461.54	301.83
461.91	299.99
462.27	298.01
462.64	296.47
463.01	294.78
463.38	293.26
463.74	291.13
464.11	289.60
464.48	288.18
464.85	286.77
465.21	285.79
465.58	284.72
465.95	283.34
466.32	282.26
466.68	281.12
467.05	280.09
467.42	279.03
467.78	277.90
468.15	276.75
468.52	275.80
468.88	274.58
469.25	273.60
469.62	272.90
469.98	272.11
470.35	271.33
470.72	270.70
471.08	269.76
471.45	269.14
471.82	268.69
472.18	268.08
472.55	267.68
472.92	267.01
473.28	266.50
473.65	265.94
474.02	265.46
474.38	265.19
474.75	265.00
475.11	264.64
475.48	264.38
475.85	264.22
476.21	264.07
476.58	263.93
476.94	263.87
477.31	263.67
477.67	263.52
478.04	263.53
478.41	263.50
478.77	263.95
479.14	263.95
479.50	264.00
479.87	264.14
480.23	264.29
480.60	264.51
480.96	264.76
481.33	265.19
481.69	265.59
482.06	265.85
482.42	266.14
482.79	266.60
483.15	266.94
483.52	267.58
483.88	268.14
484.25	268.76
484.61	269.37
484.98	270.11
485.34	271.01
485.71	271.82
486.07	272.71
486.44	273.32
486.80	274.33
487.17	275.33
487.53	276.61
487.90	277.90
488.26	279.24
488.62	280.71
488.99	282.15
489.35	283.61
489.72	285.23
490.08	286.96
490.44	288.77
490.81	290.84
491.17	292.68
491.54	294.70
491.90	296.90
492.26	299.22
492.63	301.61
492.99	304.03
493.36	306.67
493.72	309.53
494.08	312.45
494.45	315.54
494.81	318.84
495.17	321.99
495.54	325.48
495.90	328.89
496.26	332.40
496.63	336.17
496.99	340.05
497.35	344.24
497.72	348.57
498.08	352.96
498.44	357.50
498.80	362.52
499.17	367.65
499.53	372.92
499.89	378.29
500.26	383.96
500.62	389.78
500.98	395.77
501.34	401.94
501.71	408.35
502.07	414.89
502.43	421.54
502.79	428.44
503.16	435.52
503.52	442.86
503.88	450.56
504.24	458.31
504.60	466.52
504.97	474.90
505.33	483.23
505.69	492.23
506.05	501.31
506.41	510.25
506.78	519.55
507.14	529.04
507.50	538.90
507.86	548.86
508.22	559.11
508.59	569.53
508.95	580.10
509.31	590.94
509.67	601.90
510.03	613.19
510.39	624.91
510.75	636.60
511.12	648.74
511.48	660.79
511.84	673.13
512.20	685.39
512.56	697.90
512.92	711.05
513.28	724.04
513.64	737.09
514.00	750.35
514.37	763.59
514.73	777.26
515.09	790.93
515.45	804.74
515.81	818.62
516.17	832.56
516.53	846.77
516.89	860.90
517.25	875.13
517.61	889.52
517.97	903.71
518.33	918.23
518.69	932.69
519.05	947.36
519.41	962.27
519.77	977.44
520.13	992.13
520.49	1006.59
520.85	1021.43
521.21	1036.35
521.57	1051.58
521.93	1066.37
522.29	1081.58
522.65	1096.59
523.01	1111.43
523.37	1126.18
523.73	1141.08
524.09	1155.74
524.45	1170.75
524.81	1185.80
525.17	1200.83
525.53	1215.87
525.89	1230.71
526.25	1245.52
526.61	1259.80
526.97	1274.11
527.33	1288.33
527.68	1303.04
528.04	1317.35
528.40	1330.98
528.76	1344.95
529.12	1359.08
529.48	1373.73
529.84	1387.58
530.20	1401.39
530.56	1415.19
530.91	1429.62
531.27	1443.63
531.63	1457.28
531.99	1470.64
532.35	1483.76
532.71	1496.60
533.07	1509.62
533.42	1522.36
533.78	1535.05
534.14	1547.60
534.50	1559.19
534.86	1571.58
535.21	1582.76
535.57	1594.75
535.93	1606.38
536.29	1617.79
536.65	1629.17
537.00	1639.68
537.36	1649.89
537.72	1659.96
538.08	1669.95
538.44	1679.56
538.79	1689.49
539.15	1699.18
539.51	1708.98
539.87	1718.80
540.22	1728.21
540.58	1737.57
540.94	1746.63
541.29	1755.10
541.65	1763.24
542.01	1771.77
542.37	1779.35
542.72	1787.54
543.08	1794.77
543.44	1802.67
543.79	1809.62
544.15	1815.86
544.51	1822.87
544.87	1829.93
545.22	1836.19
545.58	1842.13
545.94	1847.14
546.29	1851.79
546.65	1856.46
547.01	1860.79
547.36	1864.89
547.72	1868.89
548.07	1872.09
548.43	1875.19
548.79	1878.35
549.14	1881.40
549.50	1884.70
549.86	1886.80
550.21	1888.96
550.57	1891.63
550.92	1893.11
551.28	1894.62
551.64	1896.19
551.99	1897.82
552.35	1898.73
552.70	1900.21
553.06	1901.61
553.41	1903.10
553.77	1904.10
554.13	1905.00
554.48	1906.15
554.84	1907.14
555.19	1907.63
555.55	1908.09
555.90	1907.54
556.26	1907.20
556.61	1906.95
556.97	1905.94
557.32	1905.87
557.68	1904.87
558.03	1903.66
558.39	1903.01
558.74	1902.63
559.10	1902.04
559.45	1900.97
559.81	1900.34
560.16	1898.61
560.52	1897.09
560.87	1895.56
561.23	1893.85
561.58	1892.66
561.94	1890.17
562.29	1887.39
562.64	1885.17
563.00	1883.26
563.35	1882.49
563.71	1881.53
564.06	1880.03
564.42	1878.72
564.77	1877.27
565.12	1876.20
565.48	1874.67
565.83	1872.66
566.19	1870.90
566.54	1868.11
566.89	1865.10
567.25	1862.47
567.60	1860.40
567.96	1857.59
568.31	1855.03
568.66	1852.17
569.02	1848.55
569.37	1845.24
569.72	1842.48
570.08	1839.33
570.43	1835.55
570.78	1831.16
571.14	1826.45
571.49	1822.18
571.84	1818.26
572.20	1813.55
572.55	1809.45
572.90	1804.31
573.26	1799.40
573.61	1794.24
573.96	1789.61
574.31	1784.62
574.67	1778.89
575.02	1773.28
575.37	1768.13
575.72	1762.14
576.08	1757.10
576.43	1751.56
576.78	1746.15
577.13	1740.86
577.49	1735.43
577.84	1730.44
578.19	1725.54
578.54	1720.83
578.90	1716.17
579.25	1710.34
579.60	1704.67
579.95	1698.53
580.30	1693.87
580.66	1689.12
581.01	1683.55
581.36	1677.94
581.71	1672.33
582.06	1667.28
582.42	1662.00
582.77	1656.41
583.12	1651.05
583.47	1645.81
583.82	1641.11
584.17	1636.00
584.53	1630.81
584.88	1625.32
585.23	1619.63
585.58	1614.25
585.93	1608.50
586.28	1603.18
586.63	1597.95
586.98	1593.04
587.34	1588.23
587.69	1582.68
588.04	1577.09
588.39	1571.89
588.74	1566.24
589.09	1561.52
589.44	1555.75
589.79	1550.77
590.14	1545.71
590.49	1540.43
590.84	1534.84
591.19	1529.88
591.54	1524.53
591.89	1518.38
592.25	1513.08
592.60	1507.48
592.95	1501.63
593.30	1495.42
593.65	1489.23
594.00	1483.63
594.35	1479.37
594.70	1473.53
595.05	1467.93
595.40	1462.39
595.75	1456.45
596.10	1451.63
596.45	1446.09
596.80	1441.44
597.15	1436.45
597.50	1430.96
597.85	1425.92
598.19	1420.43
598.54	1414.92
598.89	1409.71
599.24	1405.44
599.59	1400.59
599.94	1396.39
600.29	1391.64
600.64	1387.23
600.99	1382.05
601.34	1377.47
601.69	1371.02
602.04	1365.88
602.39	1361.03
602.74	1356.26
603.08	1352.39
603.43	1348.16
603.78	1343.41
604.13	1338.59
604.48	1333.54
604.83	1329.52
605.18	1325.38
605.53	1320.82
605.87	1315.83
606.22	1311.35
606.57	1306.23
606.92	1301.33
607.27	1295.67
607.62	1290.75
607.96	1286.23
608.31	1282.05
608.66	1276.91
609.01	1272.27
609.36	1267.18
609.70	1261.63
610.05	1256.18
610.40	1250.73
610.75	1244.75
611.10	1239.50
611.44	1233.34
611.79	1227.39
612.14	1221.28
612.49	1214.69
612.83	1209.34
613.18	1203.28
613.53	1197.21
613.88	1190.99
614.22	1185.23
614.57	1179.44
614.92	1173.50
615.27	1167.30
615.61	1161.25
615.96	1155.66
616.31	1149.88
616.65	1144.93
617.00	1139.85
617.35	1134.31
617.70	1128.20
618.04	1122.38
618.39	1116.27
618.74	1110.83
619.08	1105.10
619.43	1099.39
619.78	1094.28
620.12	1088.24
620.47	1082.90
620.82	1077.21
621.16	1071.34
621.51	1065.51
621.85	1059.97
622.20	1054.10
622.55	1048.33
622.89	1042.37
623.24	1036.45
623.59	1030.51
623.93	1024.47
624.28	1018.62
624.62	1013.30
624.97	1008.00
625.32	1002.40
625.66	997.10
626.01	991.70
626.35	986.76
626.70	981.38
627.04	976.36
627.39	971.36
627.73	966.30
628.08	961.25
628.43	956.14
628.77	950.97
629.12	945.72
629.46	941.27
629.81	936.45
630.15	931.52
630.50	926.56
630.84	921.49
631.19	916.60
631.53	911.69
631.88	906.32
632.22	901.11
632.57	896.45
632.91	891.45
633.26	886.74
633.60	881.55
633.95	876.93
634.29	871.65
634.64	867.02
634.98	861.70
635.32	857.32
635.67	853.01
636.01	848.46
636.36	843.78
636.70	839.02
637.05	834.48
637.39	830.14
637.73	825.78
638.08	821.72
638.42	817.34
638.77	812.82
639.11	808.51
639.45	803.98
639.80	799.28
640.14	794.77
640.49	790.06
640.83	785.63
641.17	781.12
641.52	776.87
641.86	772.13
642.20	768.03
642.55	763.14
642.89	758.51
643.23	753.88
643.58	749.82
643.92	745.15
644.26	740.66
644.61	736.20
644.95	731.66
645.29	727.21
645.64	722.74
645.98	718.48
646.32	714.20
646.66	709.79
647.01	705.66
647.35	701.54
647.69	697.16
648.04	693.12
648.38	688.94
648.72	684.53
649.06	680.18
649.41	676.00
649.75	671.86
650.09	667.86
650.43	663.60
650.78	659.05
651.12	654.84
651.46	650.60
651.80	646.62
652.14	642.52
652.49	638.34
652.83	634.19
653.17	629.94
653.51	625.84
653.85	622.15
654.20	618.08
654.54	614.02
654.88	610.24
655.22	606.23
655.56	602.17
655.90	598.29
656.25	594.45
656.59	590.45
656.93	586.66
657.27	582.93
657.61	579.10
657.95	575.49
658.29	571.93
658.64	568.53
658.98	564.76
659.32	560.97
659.66	557.40
660.00	553.82
660.34	550.30
660.68	546.45
661.02	542.69
661.36	539.38
661.70	536.06
662.05	532.69
662.39	529.50
662.73	526.30
663.07	523.19
663.41	519.98
663.75	516.83
664.09	513.55
664.43	510.19
664.77	507.19
665.11	504.01
665.45	501.02
665.79	497.86
666.13	494.87
666.47	492.01
666.81	489.06
667.15	486.10
667.49	483.29
667.83	480.85
668.17	478.24
668.51	475.50
668.85	472.80
669.19	470.40
669.53	467.60
669.87	464.86
670.21	462.14
670.55	459.69
670.89	457.57
671.23	455.28
671.57	452.99
671.91	450.60
672.25	448.29
672.58	445.81
672.92	443.42
673.26	441.23
673.60	439.00
673.94	436.78
674.28	434.46
674.62	432.28
674.96	429.84
675.30	427.62
675.64	425.43
675.97	423.26
676.31	420.95
676.65	418.92
676.99	416.98
677.33	414.83
677.67	412.74
678.01	410.43
678.34	408.33
678.68	406.38
679.02	404.28
679.36	402.26
679.70	400.35
680.04	398.32
680.37	396.14
680.71	394.18
681.05	392.28
681.39	390.46
681.73	388.49
682.06	386.84
682.40	384.97
682.74	383.25
683.08	381.45
683.42	379.62
683.75	377.77
684.09	375.84
684.43	374.15
684.77	372.31
685.10	370.48
685.44	368.67
685.78	366.88
686.12	365.29
686.45	363.58
686.79	361.83
687.13	360.35
687.46	358.79
687.80	357.24
688.14	355.53
688.48	353.96
688.81	352.44
689.15	350.79
689.49	349.23
689.82	347.59
690.16	345.85
690.50	344.24
690.83	342.66
691.17	341.15
691.51	339.50
691.84	338.10
692.18	336.58
692.52	335.22
692.85	333.89
693.19	332.49
693.52	331.16
693.86	329.74
694.20	328.30
694.53	327.00
694.87	325.56
695.21	324.21
695.54	322.71
695.88	321.22
696.21	319.82
696.55	318.60
696.88	317.25
697.22	316.03
697.56	314.89
697.89	313.57
698.23	312.37
698.56	311.24
698.90	310.17
699.23	308.96
699.57	307.77
699.90	306.46
700.24	305.27
700.58	304.09
700.91	303.00
701.25	302.10
701.58	301.04
701.92	300.03
702.25	299.09
702.59	298.07
702.92	297.20
703.26	296.23
703.59	295.19
703.93	294.60
704.26	293.70
704.60	292.76
704.93	291.82
705.26	290.94
705.60	290.10
705.93	289.06
706.27	288.28
706.60	287.55
706.94	286.85
707.27	285.95
707.61	285.11
707.94	284.27
708.27	283.24
708.61	282.31
708.94	281.45
709.28	280.58
709.61	279.79
709.94	279.02
710.28	278.36
710.61	277.67
710.95	276.55
711.28	276.00
711.61	275.28
711.95	274.75
712.28	274.02
712.61	273.31
712.95	272.87
713.28	272.29
713.61	271.40
713.95	270.66
714.28	270.05
714.61	269.40
714.95	268.76
715.28	268.06
715.61	267.46
715.95	266.90
716.28	266.22
716.61	265.72
716.95	265.01
717.28	264.33
717.61	263.67
717.94	263.12
718.28	262.31
718.61	261.63
718.94	260.94
719.27	260.33
719.61	259.73
719.94	258.94
720.27	258.20
720.60	257.70
720.94	257.09
721.27	256.54
721.60	256.02
721.93	255.48
722.27	255.11
722.60	254.60
722.93	254.09
723.26	253.64
723.59	253.04
723.93	252.65
724.26	252.14
724.59	251.72
724.92	251.31
725.25	250.99
725.59	250.59
725.92	250.24
726.25	249.91
726.58	249.45
726.91	249.19
727.24	248.81
727.57	248.39
727.91	248.00
728.24	247.69
728.57	247.29
728.90	246.97
729.23	246.47
729.56	246.16
729.89	245.73
730.22	245.33
730.55	244.89
730.89	244.45
731.22	244.13
731.55	243.66
731.88	243.27
732.21	242.83
732.54	242.45
732.87	242.05
733.20	241.64
733.53	241.31
733.86	240.95
734.19	240.61
734.52	240.31
734.85	240.27
735.18	239.82
735.51	239.71
735.84	239.40
736.17	239.19
736.50	238.84
736.83	238.95
737.16	238.68
737.49	238.42
737.82	238.13
738.15	237.84
738.48	237.62
738.81	237.30
739.14	237.02
739.47	236.73
739.80	236.45
740.13	236.20
740.46	235.86
740.79	235.46
741.12	235.20
741.45	234.88
741.78	234.41
742.11	234.27
742.44	233.90
742.77	233.76
743.10	233.44
743.43	233.19
743.75	232.62
744.08	232.89
744.41	232.69
744.74	232.42
745.07	232.23
745.40	232.17
745.73	232.05
746.06	231.80
746.39	231.61
746.71	231.40
747.04	231.08
747.37	230.90
747.70	230.80
748.03	230.62
748.36	230.44
748.68	230.24
749.01	229.90
749.34	229.65
749.67	229.37
750.00	229.21
750.33	229.25
750.65	229.04
750.98	228.36
751.31	228.22
751.64	228.13
751.97	228.14
752.29	227.87
752.62	227.55
752.95	227.38
753.28	227.20
753.60	227.07
753.93	227.12
754.26	226.97
754.59	226.68
754.91	226.46
755.24	226.33
755.57	226.11
755.90	226.00
756.22	225.86
756.55	225.66
756.88	225.46
757.20	225.14
757.53	224.91
757.86	224.81
758.19	224.72
758.51	224.57
758.84	224.16
759.17	224.02
759.49	223.95
759.82	223.98
760.15	223.94
760.47	223.69
760.80	223.38
761.13	223.26
761.45	223.19
761.78	223.08
762.11	222.94
762.43	222.79
762.76	222.62
763.08	222.56
763.41	222.47
763.74	222.36
764.06	222.21
764.39	222.11
764.71	221.93
765.04	221.67
765.37	221.55
765.69	221.45
766.02	221.22
766.34	221.06
766.67	220.85
767.00	220.72
767.32	220.86
767.65	221.00
767.97	220.87
768.30	220.76
768.62	220.69
768.95	220.56
769.27	220.44
769.60	220.37
769.92	220.18
770.25	220.02
770.57	219.83
770.90	219.63
771.22	219.47
771.55	219.37
771.87	219.28
772.20	219.11
772.52	219.31
772.85	219.71
773.17	219.70
773.50	219.55
773.82	219.36
774.15	219.12
774.47	218.82
774.80	218.73
775.12	218.62
775.45	218.51
775.77	218.46
776.09	218.49
776.42	218.40
776.74	218.38
777.07	218.35
777.39	218.33
777.72	218.27
778.04	218.25
778.36	218.14
778.69	218.10
779.01	218.06
779.33	217.68
779.66	217.25
779.98	217.09
780.31	217.09
780.63	217.22
780.95	217.19
781.28	217.15
781.60	217.08
781.92	217.04
782.25	216.96
782.57	216.90
782.89	216.81
783.22	216.75
783.54	216.57
783.86	216.52
784.19	216.45
784.51	216.56
784.83	216.46
785.16	216.45
785.48	216.42
785.80	216.38
786.12	216.38
786.45	216.32
786.77	216.30
787.09	216.18
787.42	215.98
787.74	215.85
788.06	215.82
788.38	215.68
788.71	215.57
789.03	215.49
789.35	215.46
789.67	215.33
789.99	215.31
790.32	215.29
790.64	215.33
790.96	215.60
791.28	215.40
791.61	215.38
791.93	215.33
792.25	215.30
792.57	215.52
792.89	215.44
793.21	215.40
793.54	215.40
793.86	215.35
794.18	215.33
794.50	215.31
794.82	215.29
795.14	215.35
795.47	215.42
795.79	215.40
796.11	215.35
796.43	215.29
796.75	215.25
797.07	215.25
797.39	215.19
797.71	214.84
798.04	214.89
798.36	214.89
798.68	214.87
799.00	214.77
799.32	214.58
799.64	214.60
799.96	214.61
800.28	214.58
800.60	214.54
800.92	214.58
801.24	214.55
801.56	214.52
801.89	214.50
802.21	214.47
802.53	214.54
802.85	214.59
803.17	214.76
803.49	214.73
803.81	214.71
804.13	214.64
804.45	214.60
804.77	214.65
805.09	214.62
805.41	214.54
805.73	214.56
806.05	214.43
806.37	214.38
806.69	214.31
807.01	214.27
807.33	214.23
807.65	214.06
807.97	214.20
808.28	214.11
808.60	214.04
808.92	213.97
809.24	214.12
809.56	214.03
809.88	213.85
810.20	213.83
810.52	213.83
810.84	213.80
811.16	213.83
811.48	213.78
811.80	213.87
812.12	213.88
812.43	213.95
812.75	213.99
813.07	213.91
813.39	213.89
813.71	213.83
814.03	213.85
814.35	213.87
814.67	213.70
814.98	213.66
815.30	213.72
815.62	213.65
815.94	213.28
816.26	213.23
816.58	213.24
816.89	213.27
817.21	213.23
817.53	213.18
817.85	213.09
818.17	212.99
818.48	212.87
818.80	212.91
819.12	212.80
819.44	212.76
819.76	212.68
820.07	212.69
820.39	212.66
820.71	212.58
821.03	212.50
821.34	212.48
821.66	212.61
821.98	212.58
822.30	212.52
822.61	212.79
822.93	212.77
823.25	212.74
823.57	212.70
823.88	212.78
824.20	212.74
824.52	212.83
824.83	212.79
825.15	212.72
825.47	212.66
825.79	212.64
826.10	212.55
826.42	212.59
826.74	212.59
827.05	212.61
827.37	212.71
827.69	212.69
828.00	212.72
828.32	212.55
828.64	212.50
828.95	212.71
829.27	212.55
829.58	212.52
829.90	212.49
830.22	212.45
830.53	212.30
830.85	212.29
831.17	212.22
831.48	212.15
831.80	212.13
832.11	212.17
832.43	212.12
832.75	212.10
833.06	212.26
833.38	212.17
833.69	212.15
834.01	212.11
834.32	212.11
834.64	212.01
834.96	212.10
835.27	212.12
835.59	212.01
835.90	211.97
836.22	211.98
836.53	211.96
836.85	211.93
837.16	212.27
837.48	212.22
837.79	212.27
838.11	212.36
838.42	212.33
838.74	212.31
839.05	212.32
839.37	212.31
839.68	212.12
840.00	212.09
840.31	212.09
840.63	212.07
840.94	212.09
841.26	212.03
841.57	212.02
841.88	212.04
842.20	211.99
842.51	212.02
842.83	212.03
843.14	212.31
843.46	212.33
843.77	212.17
844.08	212.20
844.40	212.12
844.71	212.05
845.03	212.02
845.34	211.98
845.65	211.97
845.97	212.00
846.28	212.02
846.60	212.03
846.91	211.92
847.22	211.89
847.54	211.88
847.85	211.94
848.16	211.87
848.48	211.77
848.79	211.89
849.10	211.86
849.42	211.82
849.73	211.59
850.04	211.53
850.36	211.45
850.67	211.53
850.98	211.58
851.30	211.63
851.61	211.68
851.92	211.68
852.23	211.80
852.55	211.78
852.86	211.84
853.17	211.86
853.49	212.07
853.80	212.15
854.11	212.27
854.42	212.28
854.74	212.28
855.05	212.35
855.36	212.19
855.67	212.25
855.99	212.28
856.30	212.65
856.61	212.73
856.92	212.62
857.23	212.66
857.55	212.55
857.86	212.53
858.17	212.56
858.48	212.41
858.79	212.37
859.11	212.43
859.42	212.30
859.73	212.30
860.04	212.21
860.35	212.12
860.66	212.00
860.98	212.00
861.29	212.03
861.60	211.99
861.91	212.04
862.22	211.92
862.53	211.84
862.84	211.37
863.16	211.40
863.47	211.40
863.78	211.30
864.09	211.35
864.40	211.37
864.71	211.34
865.02	211.49
865.33	211.43
865.64	211.35
865.95	211.40
866.27	211.59
866.58	211.49
866.89	211.47
867.20	211.40
867.51	211.32
867.82	211.25
868.13	211.38
868.44	211.36
868.75	211.45
869.06	211.53
869.37	211.54
869.68	211.44
869.99	211.43
870.30	211.46
870.61	211.50
870.92	211.48
871.23	211.45
871.54	211.49
871.85	211.54
872.16	211.61
872.47	211.51
872.78	211.33
873.09	211.44
873.40	211.44
873.71	211.46
874.02	211.50
874.33	211.56
874.64	211.44
874.95	211.50
875.26	211.43
875.56	211.40
875.87	211.42
876.18	211.42
876.49	211.77
876.80	211.74
877.11	211.71
877.42	211.67
877.73	211.73
878.04	211.62
878.35	211.61
878.66	211.63
878.96	211.70
879.27	211.74
879.58	211.75
879.89	211.70
880.20	211.81
880.51	211.80
880.82	211.80
881.12	211.85
881.43	211.71
881.74	211.70
882.05	211.68
882.36	211.70
882.67	211.69
882.97	211.37
883.28	211.36
883.59	211.34
883.90	211.43
884.21	211.48
884.51	211.45
884.82	211.43
885.13	211.39
885.44	211.38
885.74	211.30
886.05	211.22
886.36	211.23
886.67	211.12
886.98	211.27
887.28	211.27
887.59	211.22
887.90	211.27
888.20	211.26
888.51	211.34
888.82	211.28
889.13	211.31
889.43	211.60
889.74	211.61
890.05	211.60
890.35	211.53
890.66	211.51
890.97	211.53
891.28	211.45
891.58	211.51
891.89	211.48
892.20	211.44
892.50	211.42
892.81	211.44
893.12	211.41
893.42	211.25
893.73	211.23
894.04	211.23
894.34	211.20
894.65	211.20
894.95	211.16
895.26	211.13
895.57	211.30
895.87	211.00
896.18	211.03
896.48	211.05
896.79	211.13
897.10	211.10
897.40	211.07
897.71	211.14
898.01	211.10
898.32	211.16
898.63	211.22
898.93	211.22
899.24	211.16
899.54	211.23
899.85	211.29
900.15	211.27
900.46	211.28
900.76	211.35
901.07	211.32
901.38	211.34
901.68	211.41
901.99	211.19
902.29	211.16
902.60	211.14
902.90	211.10
903.21	210.99
903.51	210.98
903.82	211.08
904.12	211.05
904.43	211.05
904.73	211.03
905.03	211.03
905.34	211.38
905.64	211.45
905.95	211.44
906.25	211.42
906.56	211.38
906.86	211.29
907.17	211.29
907.47	211.32
907.77	211.25
908.08	211.20
908.38	211.24
908.69	211.30
908.99	211.39
909.30	211.35
909.60	211.39
909.90	211.34
910.21	211.28
910.51	211.25
910.81	211.25
911.12	211.35
911.42	211.29
911.73	211.03
912.03	211.00
912.33	211.07
912.64	211.10
912.94	211.10
913.24	211.15
913.55	211.18
913.85	211.21
914.15	211.29
914.46	211.37
914.76	211.36
915.06	211.37
915.37	211.28
915.67	211.37
915.97	211.37
916.27	211.40
916.58	211.45
916.88	211.49
917.18	211.49
917.49	211.69
917.79	211.77
918.09	211.77
918.39	211.91
918.70	211.89
919.00	211.87
919.30	212.07
919.60	212.08
919.91	211.99
920.21	212.02
920.51	212.02
920.81	211.99
921.12	212.12
921.42	212.03
921.72	212.06
922.02	212.06
922.32	212.11
922.63	212.10
922.93	212.28
923.23	212.33
923.53	212.31
923.83	212.07
924.13	212.09
924.44	212.12
924.74	212.18
925.04	212.17
925.34	212.15
925.64	211.99
925.94	211.96
926.24	212.19
926.55	212.12
926.85	212.13
927.15	212.14
927.45	212.08
927.75	212.13
928.05	212.22
928.35	212.19
928.65	212.23
928.95	212.27
929.26	212.17
929.56	212.25
929.86	212.31
930.16	212.28
930.46	212.25
930.76	212.17
931.06	211.99
931.36	211.97
931.66	212.02
931.96	212.01
932.26	212.08
932.56	211.93
932.86	211.96
933.16	211.89
933.46	211.81
933.76	211.72
934.06	211.77
934.36	211.88
934.66	211.85
934.96	211.81
935.26	211.83
935.56	211.79
935.86	211.71
936.16	211.62
936.46	211.65
936.76	211.64
937.06	211.65
937.36	211.60
937.66	211.61
937.96	211.61
938.26	211.55
938.56	211.48
938.86	211.45
939.16	211.53
939.46	211.64
939.76	211.73
940.06	211.82
940.35	211.77
940.65	211.57
940.95	211.63
941.25	211.53
941.55	211.45
941.85	211.41
942.15	211.43
942.45	211.45
942.75	211.41
943.04	211.32
943.34	211.36
943.64	211.43
943.94	211.32
944.24	211.32
944.54	211.36
944.84	211.31
945.13	211.35
945.43	211.23
945.73	211.11
946.03	210.97
946.33	210.87
946.62	210.80
946.92	210.73
947.22	210.75
947.52	210.82
947.82	210.81
948.11	210.74
948.41	210.64
948.71	210.53
949.01	210.49
949.31	210.49
949.60	210.44
949.90	210.46
950.20	210.56
950.50	210.52
950.79	210.56
951.09	210.67
951.39	210.61
951.69	210.60
951.98	210.77
952.28	210.84
952.58	210.88
952.87	210.88
953.17	210.96
953.47	210.85
953.76	210.83
954.06	210.80
954.36	210.73
954.66	210.73
954.95	210.85
955.25	210.87
955.55	210.92
955.84	210.84
956.14	210.87
956.44	210.89
956.73	210.84
957.03	210.81
957.32	210.80
957.62	210.79
957.92	210.87
958.21	210.85
958.51	211.26
958.81	211.21
959.10	211.21
959.40	211.35
959.69	211.37
959.99	211.42
960.29	211.45
960.58	211.51
960.88	211.67
961.17	211.62
961.47	211.69
961.76	211.70
962.06	211.79
962.36	211.71
962.65	211.66
962.95	211.75
963.24	211.72
963.54	211.71
963.83	211.75
964.13	211.73
964.42	211.61
964.72	211.26
965.01	211.31
965.31	211.36
965.60	211.20
965.90	211.47
966.19	211.38
966.49	211.43
966.78	211.42
967.08	211.36
967.37	211.43
967.67	211.34
967.96	211.37
968.26	211.39
968.55	211.41
968.85	211.37
969.14	211.28
969.43	211.35
969.73	211.34
970.02	211.31
970.32	211.28
970.61	211.25
970.91	211.20
971.20	211.16
971.49	211.09
971.79	211.11
972.08	210.86
972.38	210.93
972.67	210.86
972.96	210.91
973.26	210.82
973.55	210.87
973.85	210.88
974.14	210.84
974.43	210.85
974.73	210.78
975.02	210.77
975.31	210.74
975.61	210.62
975.90	210.56
976.19	210.52
976.49	210.52
976.78	210.59
977.07	210.54
977.37	210.61
977.66	210.62
977.95	210.56
978.24	210.52
978.54	210.61
978.83	210.60
979.12	210.61
979.42	210.67
979.71	210.59
980.00	210.51
980.29	210.60
980.59	210.52
980.88	210.64
981.17	210.68
981.46	210.72
981.76	210.81
982.05	210.90
982.34	210.95
982.63	210.98
982.93	210.90
983.22	210.95
983.51	210.91
983.80	210.98
984.09	211.05
984.39	211.06
984.68	210.93
984.97	211.00
985.26	211.02
985.55	211.07
985.85	211.01
986.14	211.18
986.43	211.14
986.72	211.19
987.01	211.11
987.30	211.18
987.59	211.16
987.89	211.15
988.18	211.08
988.47	211.09
988.76	211.08
989.05	211.11
989.34	211.18
989.63	211.29
989.92	211.26
990.22	211.15
990.51	211.20
990.80	211.22
991.09	211.25
991.38	211.26
991.67	211.20
991.96	211.16
992.25	211.16
992.54	211.09
992.83	211.05
993.12	210.99
993.41	210.94
993.70	211.08
993.99	211.11
994.28	211.15
994.58	211.12
994.87	211.11
995.16	211.10
995.45	211.08
995.74	210.94
996.03	210.97
996.32	211.08
996.61	211.12
996.90	211.09
997.19	211.04
997.48	211.05
997.77	210.95
998.06	211.05
998.34	210.96
998.63	211.03
998.92	210.99
999.21	211.10
999.50	211.12
999.79	210.98
1000.08	210.96
1000.37	211.01
1000.66	210.97
1000.95	211.04
1001.24	211.06
1001.53	211.07
1001.82	211.05
1002.11	210.98
1002.40	210.97
1002.68	211.04
1002.97	211.29
1003.26	211.15
1003.55	211.06
1003.84	211.13
1004.13	211.23
1004.42	211.23
1004.71	211.18
1004.99	211.18
1005.28	211.27
1005.57	211.20
1005.86	211.20
1006.15	211.23
1006.44	211.10
1006.72	211.17
1007.01	211.11
1007.30	211.07
1007.59	211.05
1007.88	211.06
1008.17	211.09
1008.45	211.02
1008.74	210.87
1009.03	210.70
1009.32	210.85
1009.60	210.90
1009.89	210.90
1010.18	210.75
1010.47	210.79
1010.76	210.77
1011.04	210.79
1011.33	210.75
1011.62	210.78
1011.91	210.78
1012.19	210.76
1012.48	210.84
1012.77	210.83
1013.05	210.96
1013.34	211.00
1013.63	210.90
1013.92	210.93
1014.20	210.88
1014.49	210.99
1014.78	211.10
1015.06	210.96
1015.35	210.93
1015.64	210.95
1015.92	210.97
1016.21	210.94
1016.50	210.87
1016.78	210.96
1017.07	210.93
1017.36	210.80
1017.64	210.80
1017.93	210.82
1018.22	210.74
1018.50	210.74
1018.79	210.73
1019.08	210.62
1019.36	210.62
1019.65	210.65
1019.93	210.79
1020.22	210.87
1020.51	211.00
1020.79	210.92
1021.08	209.40
1021.36	210.85
1021.65	211.15
1021.94	211.55
1022.22	210.90
1022.51	210.50
1022.79	213.15
1023.08	211.65
1023.36	215.05
1023.65	210.05
>>>>>End Processed Spectral Data<<<<<
