SpectraSuite Data File
++++++++++++++++++++++++++++++++++++
Date: Mon Feb 25 17:17:43 EST 2013
User: group
Dark Spectrum Present: No
Reference Spectrum Present: No
Number of Sampled Component Spectra: 1
Spectrometers: USB2E7196
Integration Time (usec): 104000 (USB2E7196)
Spectra Averaged: 20 (USB2E7196)
Boxcar Smoothing: 10 (USB2E7196)
Correct for Electrical Dark: No (USB2E7196)
Strobe/Lamp Enabled: No (USB2E7196)
Correct for Detector Non-linearity: No (USB2E7196)
Correct for Stray Light: No (USB2E7196)
Number of Pixels in Processed Spectrum: 2048
>>>>>Begin Processed Spectral Data<<<<<
339.09	0.00
339.48	198.40
339.86	200.25
340.24	200.50
340.63	203.40
341.01	209.45
341.39	205.50
341.78	206.45
342.16	208.80
342.54	208.65
342.93	198.10
343.31	208.12
343.69	208.68
344.07	209.12
344.46	209.69
344.84	210.05
345.22	210.16
345.60	210.47
345.99	210.75
346.37	210.85
346.75	210.95
347.13	211.10
347.52	211.20
347.90	211.43
348.28	211.45
348.66	211.57
349.05	211.57
349.43	211.75
349.81	211.81
350.19	211.88
350.57	212.05
350.96	212.16
351.34	212.26
351.72	212.38
352.10	212.53
352.48	212.54
352.87	212.68
353.25	212.74
353.63	212.80
354.01	212.79
354.39	212.89
354.77	213.03
355.15	213.26
355.54	213.25
355.92	213.27
356.30	213.36
356.68	213.65
357.06	213.75
357.44	213.74
357.82	213.83
358.20	213.98
358.58	214.02
358.97	214.11
359.35	214.26
359.73	214.44
360.11	214.52
360.49	214.58
360.87	214.57
361.25	214.69
361.63	214.83
362.01	214.98
362.39	215.04
362.77	215.08
363.15	215.02
363.53	215.06
363.91	215.08
364.29	215.07
364.67	214.80
365.05	214.76
365.43	214.77
365.81	214.93
366.19	215.03
366.57	215.15
366.95	215.15
367.33	215.06
367.71	215.00
368.09	215.04
368.47	215.02
368.85	215.11
369.23	215.14
369.61	215.00
369.99	215.09
370.37	215.09
370.75	215.20
371.13	215.13
371.51	215.05
371.89	215.07
372.27	215.11
372.65	215.11
373.03	215.09
373.41	215.05
373.78	214.87
374.16	214.71
374.54	214.53
374.92	214.43
375.30	214.40
375.68	214.30
376.06	214.17
376.44	214.13
376.82	214.00
377.19	213.91
377.57	213.85
377.95	213.67
378.33	213.61
378.71	213.35
379.09	213.40
379.47	213.35
379.84	213.22
380.22	213.05
380.60	212.91
380.98	212.87
381.36	212.79
381.73	212.72
382.11	212.72
382.49	212.72
382.87	212.61
383.25	212.55
383.62	212.90
384.00	212.90
384.38	212.89
384.76	212.96
385.13	213.05
385.51	213.05
385.89	212.98
386.27	212.96
386.64	213.07
387.02	212.89
387.40	212.89
387.78	212.88
388.15	212.91
388.53	212.81
388.91	212.75
389.29	212.77
389.66	212.82
390.04	212.72
390.42	212.72
390.79	212.75
391.17	212.74
391.55	212.41
391.92	212.38
392.30	212.40
392.68	212.27
393.05	212.22
393.43	212.24
393.81	212.24
394.18	212.18
394.56	212.09
394.94	212.23
395.31	212.19
395.69	212.27
396.06	212.36
396.44	212.46
396.82	212.42
397.19	212.58
397.57	212.51
397.95	212.58
398.32	212.54
398.70	212.56
399.07	212.71
399.45	212.65
399.82	212.73
400.20	212.65
400.58	212.69
400.95	212.60
401.33	212.63
401.70	212.89
402.08	213.02
402.45	213.08
402.83	213.20
403.20	213.34
403.58	213.38
403.95	213.50
404.33	213.58
404.71	213.86
405.08	214.17
405.46	214.34
405.83	214.52
406.21	214.65
406.58	214.81
406.96	214.94
407.33	215.14
407.70	215.34
408.08	215.88
408.45	216.19
408.83	216.54
409.20	216.78
409.58	216.92
409.95	217.20
410.33	217.53
410.70	217.79
411.08	218.16
411.45	218.63
411.82	219.00
412.20	219.58
412.57	220.15
412.95	220.35
413.32	221.02
413.69	221.59
414.07	222.24
414.44	223.00
414.82	223.74
415.19	224.53
415.56	225.34
415.94	226.05
416.31	226.97
416.68	227.94
417.06	229.07
417.43	230.20
417.81	231.49
418.18	232.81
418.55	234.08
418.93	235.53
419.30	236.97
419.67	238.51
420.04	240.16
420.42	241.76
420.79	243.88
421.16	245.68
421.54	247.80
421.91	249.88
422.28	251.99
422.66	254.18
423.03	256.68
423.40	258.98
423.77	261.43
424.15	263.99
424.52	266.60
424.89	269.55
425.26	272.22
425.64	274.76
426.01	277.54
426.38	280.58
426.75	283.67
427.13	286.82
427.50	290.25
427.87	293.54
428.24	297.02
428.61	300.17
428.99	303.95
429.36	307.75
429.73	311.61
430.10	315.60
430.47	319.59
430.85	323.50
431.22	327.89
431.59	332.62
431.96	337.06
432.33	341.86
432.70	346.52
433.08	352.08
433.45	357.29
433.82	362.53
434.19	368.27
434.56	373.95
434.93	379.30
435.30	384.48
435.68	390.36
436.05	396.20
436.42	401.87
436.79	407.01
437.16	412.63
437.53	418.62
437.90	424.51
438.27	430.34
438.64	436.30
439.01	441.92
439.38	446.81
439.75	451.56
440.13	456.97
440.50	462.05
440.87	466.36
441.24	470.65
441.61	475.45
441.98	479.05
442.35	482.93
442.72	487.11
443.09	491.23
443.46	493.68
443.83	495.35
444.20	496.80
444.57	498.84
444.94	499.78
445.31	500.68
445.68	501.71
446.05	502.02
446.42	501.34
446.79	500.55
447.16	499.60
447.53	499.00
447.90	496.81
448.27	494.45
448.64	491.25
449.01	489.01
449.37	485.04
449.74	481.09
450.11	476.79
450.48	471.74
450.85	466.45
451.22	461.88
451.59	457.48
451.96	453.51
452.33	448.23
452.70	443.34
453.07	437.64
453.43	431.51
453.80	425.90
454.17	420.74
454.54	415.69
454.91	410.27
455.28	405.01
455.65	400.04
456.02	395.61
456.38	391.25
456.75	386.13
457.12	381.70
457.49	377.42
457.86	373.02
458.23	369.55
458.59	365.77
458.96	362.06
459.33	358.68
459.70	355.09
460.07	352.32
460.43	349.08
460.80	346.11
461.17	343.62
461.54	340.91
461.91	338.25
462.27	335.52
462.64	333.22
463.01	330.69
463.38	328.46
463.74	325.60
464.11	323.56
464.48	321.63
464.85	319.66
465.21	318.17
465.58	316.64
465.95	314.61
466.32	313.03
466.68	311.34
467.05	309.77
467.42	308.20
467.78	306.53
468.15	305.14
468.52	304.07
468.88	302.58
469.25	301.36
469.62	300.35
469.98	299.32
470.35	298.34
470.72	297.37
471.08	296.23
471.45	295.48
471.82	294.69
472.18	293.82
472.55	293.25
472.92	292.44
473.28	291.75
473.65	291.15
474.02	290.54
474.38	290.24
474.75	289.92
475.11	289.60
475.48	289.43
475.85	289.29
476.21	289.09
476.58	289.00
476.94	288.90
477.31	288.84
477.67	288.85
478.04	288.90
478.41	289.13
478.77	289.63
479.14	289.82
479.50	290.14
479.87	290.61
480.23	291.02
480.60	291.39
480.96	291.86
481.33	292.56
481.69	293.22
482.06	293.76
482.42	294.49
482.79	295.26
483.15	296.18
483.52	297.23
483.88	298.28
484.25	299.40
484.61	300.57
484.98	301.82
485.34	303.29
485.71	304.93
486.07	306.51
486.44	307.91
486.80	309.69
487.17	311.53
487.53	313.64
487.90	316.01
488.26	318.51
488.62	321.04
488.99	323.58
489.35	326.22
489.72	329.11
490.08	332.14
490.44	335.30
490.81	338.54
491.17	341.95
491.54	345.69
491.90	349.58
492.26	353.62
492.63	357.76
492.99	362.11
493.36	366.76
493.72	371.67
494.08	376.81
494.45	382.18
494.81	387.68
495.17	393.40
495.54	399.36
495.90	405.61
496.26	412.15
496.63	418.85
496.99	425.98
497.35	433.32
497.72	440.90
498.08	448.82
498.44	457.18
498.80	465.88
499.17	474.79
499.53	483.96
499.89	493.67
500.26	503.70
500.62	513.72
500.98	524.44
501.34	535.50
501.71	547.00
502.07	558.70
502.43	570.78
502.79	582.95
503.16	595.85
503.52	608.98
503.88	622.62
504.24	636.68
504.60	651.05
504.97	666.02
505.33	681.09
505.69	697.18
506.05	713.31
506.41	729.76
506.78	746.50
507.14	763.65
507.50	781.16
507.86	799.30
508.22	818.00
508.59	836.53
508.95	855.69
509.31	874.95
509.67	894.87
510.03	915.23
510.39	936.30
510.75	957.16
511.12	978.58
511.48	1000.22
511.84	1022.32
512.20	1044.42
512.56	1067.20
512.92	1090.48
513.28	1113.36
513.64	1136.65
514.00	1160.37
514.37	1184.24
514.73	1208.47
515.09	1233.18
515.45	1257.43
515.81	1281.94
516.17	1306.81
516.53	1332.09
516.89	1357.42
517.25	1382.64
517.61	1408.11
517.97	1433.04
518.33	1458.44
518.69	1483.97
519.05	1509.61
519.41	1535.33
519.77	1561.60
520.13	1586.93
520.49	1612.11
520.85	1638.00
521.21	1663.86
521.57	1689.85
521.93	1715.14
522.29	1741.77
522.65	1767.48
523.01	1793.54
523.37	1818.71
523.73	1844.15
524.09	1869.25
524.45	1894.80
524.81	1920.24
525.17	1945.49
525.53	1970.99
525.89	1996.22
526.25	2021.05
526.61	2045.34
526.97	2069.43
527.33	2093.45
527.68	2118.02
528.04	2141.81
528.40	2164.76
528.76	2187.63
529.12	2210.97
529.48	2234.79
529.84	2257.02
530.20	2279.35
530.56	2301.67
530.91	2325.01
531.27	2347.95
531.63	2369.81
531.99	2391.26
532.35	2412.42
532.71	2433.11
533.07	2454.21
533.42	2474.67
533.78	2495.29
534.14	2515.30
534.50	2534.35
534.86	2553.84
535.21	2571.55
535.57	2590.83
535.93	2609.21
536.29	2627.40
536.65	2644.95
537.00	2661.32
537.36	2677.46
537.72	2693.49
538.08	2709.17
538.44	2724.35
538.79	2739.74
539.15	2755.10
539.51	2770.05
539.87	2785.14
540.22	2799.83
540.58	2814.83
540.94	2828.69
541.29	2841.14
541.65	2853.38
542.01	2866.15
542.37	2878.00
542.72	2890.58
543.08	2901.72
543.44	2913.80
543.79	2924.26
544.15	2933.43
544.51	2944.14
544.87	2954.47
545.22	2963.84
545.58	2972.72
545.94	2980.35
546.29	2987.11
546.65	2993.44
547.01	2999.81
547.36	3005.83
547.72	3011.39
548.07	3015.61
548.43	3019.88
548.79	3024.00
549.14	3028.28
549.50	3032.26
549.86	3035.11
550.21	3038.03
550.57	3041.26
550.92	3042.44
551.28	3043.93
551.64	3046.68
551.99	3048.85
552.35	3049.93
552.70	3051.17
553.06	3051.90
553.41	3053.36
553.77	3053.85
554.13	3054.35
554.48	3054.84
554.84	3054.99
555.19	3054.40
555.55	3053.18
555.90	3051.70
556.26	3050.58
556.61	3048.90
556.97	3046.57
557.32	3045.08
557.68	3042.10
558.03	3039.00
558.39	3037.03
558.74	3036.15
559.10	3033.80
559.45	3030.71
559.81	3028.46
560.16	3024.71
560.52	3022.12
560.87	3018.30
561.23	3014.25
561.58	3010.97
561.94	3006.24
562.29	3001.17
562.64	2997.09
563.00	2993.32
563.35	2990.23
563.71	2987.19
564.06	2983.51
564.42	2980.28
564.77	2976.87
565.12	2973.87
565.48	2970.10
565.83	2966.40
566.19	2962.07
566.54	2956.32
566.89	2950.59
567.25	2945.44
567.60	2941.22
567.96	2935.63
568.31	2930.69
568.66	2925.06
569.02	2918.93
569.37	2912.51
569.72	2907.29
570.08	2900.94
570.43	2894.46
570.78	2886.98
571.14	2879.34
571.49	2871.90
571.84	2865.05
572.20	2856.60
572.55	2848.89
572.90	2840.25
573.26	2830.94
573.61	2821.83
573.96	2813.60
574.31	2804.23
574.67	2794.38
575.02	2783.94
575.37	2774.35
575.72	2763.86
576.08	2755.35
576.43	2745.22
576.78	2736.32
577.13	2726.78
577.49	2717.76
577.84	2708.30
578.19	2699.90
578.54	2691.32
578.90	2683.12
579.25	2673.39
579.60	2663.47
579.95	2652.92
580.30	2643.95
580.66	2635.55
581.01	2625.89
581.36	2615.99
581.71	2606.91
582.06	2597.78
582.42	2588.78
582.77	2578.49
583.12	2569.29
583.47	2559.97
583.82	2551.42
584.17	2542.06
584.53	2532.54
584.88	2522.75
585.23	2513.04
585.58	2503.26
585.93	2493.11
586.28	2483.51
586.63	2473.63
586.98	2464.74
587.34	2456.50
587.69	2447.13
588.04	2437.70
588.39	2428.40
588.74	2418.94
589.09	2410.25
589.44	2400.46
589.79	2391.91
590.14	2383.53
590.49	2374.08
590.84	2364.59
591.19	2356.10
591.54	2347.07
591.89	2336.38
592.25	2327.13
592.60	2317.38
592.95	2307.08
593.30	2296.63
593.65	2286.02
594.00	2276.27
594.35	2268.07
594.70	2258.24
595.05	2248.97
595.40	2239.21
595.75	2229.18
596.10	2220.51
596.45	2211.10
596.80	2202.55
597.15	2193.61
597.50	2184.35
597.85	2175.85
598.19	2166.43
598.54	2157.08
598.89	2148.30
599.24	2141.19
599.59	2132.84
599.94	2125.28
600.29	2117.55
600.64	2109.84
600.99	2101.23
601.34	2093.31
601.69	2083.44
602.04	2074.60
602.39	2066.25
602.74	2057.87
603.08	2050.83
603.43	2043.35
603.78	2035.43
604.13	2027.41
604.48	2019.00
604.83	2012.00
605.18	2005.08
605.53	1996.98
605.87	1988.75
606.22	1981.05
606.57	1972.71
606.92	1964.37
607.27	1955.42
607.62	1946.90
607.96	1939.16
608.31	1932.12
608.66	1923.50
609.01	1915.24
609.36	1906.87
609.70	1897.35
610.05	1888.62
610.40	1879.69
610.75	1870.41
611.10	1862.35
611.44	1852.55
611.79	1843.13
612.14	1832.70
612.49	1822.09
612.83	1813.20
613.18	1802.95
613.53	1793.06
613.88	1782.57
614.22	1773.17
614.57	1763.38
614.92	1753.62
615.27	1743.45
615.61	1733.30
615.96	1724.38
616.31	1715.35
616.65	1706.98
617.00	1698.63
617.35	1689.38
617.70	1679.35
618.04	1669.15
618.39	1658.24
618.74	1649.31
619.08	1639.48
619.43	1630.34
619.78	1621.44
620.12	1611.95
620.47	1603.36
620.82	1593.75
621.16	1584.46
621.51	1574.85
621.85	1566.01
622.20	1556.65
622.55	1547.60
622.89	1538.38
623.24	1528.79
623.59	1518.88
623.93	1509.05
624.28	1499.84
624.62	1491.02
624.97	1482.31
625.32	1473.91
625.66	1465.70
626.01	1456.73
626.35	1448.73
626.70	1440.16
627.04	1432.04
627.39	1423.75
627.73	1415.25
628.08	1407.20
628.43	1398.89
628.77	1390.63
629.12	1382.12
629.46	1374.48
629.81	1366.32
630.15	1358.15
630.50	1350.10
630.84	1342.10
631.19	1333.99
631.53	1325.75
631.88	1316.94
632.22	1308.44
632.57	1300.68
632.91	1292.31
633.26	1284.31
633.60	1276.24
633.95	1268.67
634.29	1260.30
634.64	1252.67
634.98	1244.62
635.32	1237.07
635.67	1229.89
636.01	1222.35
636.36	1214.44
636.70	1206.69
637.05	1199.00
637.39	1191.78
637.73	1184.48
638.08	1177.88
638.42	1171.30
638.77	1164.26
639.11	1157.19
639.45	1150.38
639.80	1142.54
640.14	1135.01
640.49	1127.75
640.83	1120.36
641.17	1112.95
641.52	1105.78
641.86	1098.20
642.20	1091.07
642.55	1083.36
642.89	1075.90
643.23	1068.27
643.58	1061.86
643.92	1054.39
644.26	1047.43
644.61	1040.06
644.95	1032.73
645.29	1025.48
645.64	1017.77
645.98	1010.29
646.32	1003.77
646.66	996.50
647.01	989.63
647.35	983.34
647.69	976.10
648.04	969.25
648.38	962.31
648.72	955.44
649.06	948.40
649.41	941.58
649.75	934.72
650.09	928.14
650.43	921.63
650.78	914.26
651.12	907.50
651.46	900.65
651.80	894.24
652.14	887.65
652.49	880.87
652.83	874.17
653.17	867.47
653.51	860.50
653.85	854.18
654.20	847.69
654.54	840.90
654.88	834.65
655.22	828.23
655.56	821.90
655.90	815.29
656.25	809.04
656.59	802.72
656.93	796.76
657.27	790.77
657.61	784.27
657.95	778.35
658.29	772.54
658.64	767.05
658.98	760.99
659.32	754.91
659.66	749.14
660.00	743.32
660.34	737.69
660.68	731.63
661.02	725.81
661.36	720.33
661.70	714.94
662.05	709.78
662.39	704.85
662.73	699.65
663.07	694.83
663.41	689.86
663.75	684.75
664.09	679.46
664.43	674.02
664.77	669.30
665.11	664.27
665.45	659.42
665.79	654.35
666.13	649.57
666.47	644.79
666.81	640.09
667.15	635.34
667.49	630.93
667.83	627.09
668.17	622.68
668.51	618.44
668.85	614.05
669.19	609.73
669.53	605.30
669.87	601.09
670.21	596.77
670.55	592.52
670.89	588.93
671.23	585.20
671.57	581.39
671.91	577.47
672.25	573.72
672.58	569.80
672.92	565.93
673.26	562.33
673.60	558.85
673.94	555.04
674.28	551.56
674.62	548.20
674.96	544.46
675.30	541.04
675.64	537.52
675.97	534.22
676.31	530.90
676.65	527.50
676.99	524.25
677.33	520.82
677.67	517.50
678.01	513.75
678.34	510.59
678.68	507.38
679.02	504.19
679.36	500.95
679.70	497.77
680.04	494.60
680.37	491.35
680.71	488.19
681.05	485.31
681.39	482.33
681.73	479.23
682.06	476.45
682.40	473.65
682.74	470.73
683.08	467.94
683.42	464.90
683.75	462.08
684.09	459.03
684.43	456.25
684.77	453.38
685.10	450.81
685.44	447.91
685.78	445.06
686.12	442.43
686.45	439.94
686.79	437.35
687.13	434.89
687.46	432.32
687.80	429.89
688.14	427.21
688.48	424.85
688.81	422.24
689.15	419.62
689.49	417.00
689.82	414.66
690.16	411.98
690.50	409.46
690.83	407.00
691.17	404.58
691.51	402.28
691.84	400.10
692.18	397.79
692.52	395.68
692.85	393.72
693.19	391.68
693.52	389.40
693.86	387.28
694.20	385.22
694.53	383.19
694.87	381.03
695.21	378.99
695.54	376.76
695.88	374.67
696.21	372.62
696.55	370.75
696.88	368.69
697.22	366.69
697.56	364.99
697.89	363.09
698.23	361.36
698.56	359.49
698.90	357.74
699.23	355.84
699.57	353.91
699.90	352.02
700.24	350.06
700.58	348.33
700.91	346.69
701.25	345.16
701.58	343.49
701.92	341.92
702.25	340.32
702.59	338.72
702.92	337.11
703.26	335.67
703.59	334.10
703.93	332.90
704.26	331.52
704.60	330.01
704.93	328.55
705.26	327.00
705.60	325.64
705.93	324.16
706.27	322.88
706.60	321.56
706.94	320.47
707.27	319.16
707.61	317.85
707.94	316.42
708.27	314.89
708.61	313.55
708.94	312.21
709.28	311.04
709.61	309.92
709.94	308.90
710.28	307.76
710.61	306.68
710.95	305.23
711.28	304.26
711.61	303.11
711.95	302.03
712.28	300.95
712.61	299.92
712.95	299.03
713.28	298.16
713.61	297.14
713.95	296.03
714.28	295.15
714.61	294.21
714.95	293.25
715.28	292.23
715.61	291.25
715.95	290.35
716.28	289.30
716.61	288.31
716.95	287.26
717.28	286.25
717.61	285.29
717.94	284.40
718.28	283.35
718.61	282.50
718.94	281.60
719.27	280.76
719.61	279.94
719.94	279.07
720.27	278.05
720.60	277.20
720.94	276.30
721.27	275.55
721.60	274.81
721.93	274.14
722.27	273.60
722.60	272.99
722.93	272.23
723.26	271.68
723.59	270.92
723.93	270.30
724.26	269.62
724.59	268.94
724.92	268.33
725.25	267.74
725.59	267.15
725.92	266.66
726.25	266.10
726.58	265.53
726.91	264.90
727.24	264.37
727.57	263.83
727.91	263.16
728.24	262.52
728.57	261.93
728.90	261.38
729.23	260.66
729.56	260.22
729.89	259.64
730.22	259.10
730.55	258.62
730.89	258.13
731.22	257.66
731.55	257.13
731.88	256.70
732.21	256.12
732.54	255.53
732.87	255.00
733.20	254.39
733.53	253.83
733.86	253.37
734.19	252.88
734.52	252.38
734.85	252.29
735.18	251.80
735.51	251.45
735.84	250.94
736.17	250.58
736.50	249.99
736.83	250.04
737.16	249.50
737.49	249.07
737.82	248.63
738.15	248.22
738.48	247.83
738.81	247.32
739.14	246.87
739.47	246.54
739.80	246.10
740.13	245.83
740.46	245.42
740.79	244.94
741.12	244.53
741.45	244.15
741.78	243.49
742.11	243.19
742.44	242.74
742.77	242.41
743.10	242.05
743.43	241.63
743.75	240.90
744.08	240.97
744.41	240.58
744.74	240.15
745.07	239.74
745.40	239.53
745.73	239.44
746.06	239.15
746.39	238.88
746.71	238.58
747.04	238.24
747.37	237.94
747.70	237.78
748.03	237.53
748.36	237.30
748.68	237.02
749.01	236.65
749.34	236.35
749.67	236.08
750.00	235.86
750.33	235.93
750.65	235.61
750.98	234.96
751.31	234.74
751.64	234.55
751.97	234.55
752.29	234.19
752.62	233.66
752.95	233.47
753.28	233.18
753.60	232.89
753.93	232.72
754.26	232.56
754.59	232.17
754.91	231.85
755.24	231.63
755.57	231.45
755.90	231.28
756.22	231.02
756.55	230.80
756.88	230.46
757.20	229.96
757.53	229.66
757.86	229.45
758.19	229.19
758.51	229.04
758.84	228.60
759.17	228.43
759.49	228.36
759.82	228.28
760.15	228.06
760.47	227.88
760.80	227.58
761.13	227.38
761.45	227.16
761.78	227.01
762.11	226.78
762.43	226.62
762.76	226.39
763.08	226.28
763.41	226.13
763.74	226.04
764.06	225.90
764.39	225.78
764.71	225.62
765.04	225.46
765.37	225.30
765.69	225.18
766.02	225.03
766.34	224.83
766.67	224.55
767.00	224.47
767.32	224.51
767.65	224.55
767.97	224.37
768.30	224.23
768.62	224.09
768.95	223.92
769.27	223.73
769.60	223.70
769.92	223.51
770.25	223.30
770.57	222.97
770.90	222.83
771.22	222.66
771.55	222.59
771.87	222.52
772.20	222.26
772.52	222.39
772.85	222.65
773.17	222.49
773.50	222.35
773.82	222.15
774.15	221.83
774.47	221.56
774.80	221.45
775.12	221.35
775.45	221.20
775.77	221.14
776.09	221.01
776.42	220.85
776.74	220.90
777.07	220.79
777.39	220.81
777.72	220.67
778.04	220.55
778.36	220.38
778.69	220.29
779.01	220.27
779.33	219.87
779.66	219.42
779.98	219.34
780.31	219.24
780.63	219.35
780.95	219.37
781.28	219.22
781.60	219.07
781.92	219.00
782.25	218.90
782.57	218.82
782.89	218.67
783.22	218.61
783.54	218.44
783.86	218.36
784.19	218.25
784.51	218.29
784.83	218.27
785.16	218.19
785.48	218.14
785.80	218.01
786.12	218.02
786.45	217.85
786.77	217.85
787.09	217.78
787.42	217.58
787.74	217.52
788.06	217.53
788.38	217.55
788.71	217.44
789.03	217.41
789.35	217.44
789.67	217.40
789.99	217.26
790.32	217.16
790.64	217.20
790.96	217.48
791.28	217.35
791.61	217.31
791.93	217.25
792.25	217.16
792.57	217.43
792.89	217.33
793.21	217.35
793.54	217.23
793.86	217.17
794.18	217.10
794.50	217.04
794.82	216.96
795.14	216.94
795.47	216.98
795.79	216.92
796.11	216.70
796.43	216.73
796.75	216.73
797.07	216.71
797.39	216.59
797.71	216.29
798.04	216.26
798.36	216.21
798.68	216.21
799.00	216.17
799.32	215.95
799.64	215.89
799.96	215.84
800.28	215.80
800.60	215.76
800.92	215.81
801.24	215.71
801.56	215.72
801.89	215.62
802.21	215.61
802.53	215.60
802.85	215.68
803.17	215.75
803.49	215.66
803.81	215.66
804.13	215.64
804.45	215.54
804.77	215.58
805.09	215.53
805.41	215.46
805.73	215.45
806.05	215.36
806.37	215.35
806.69	215.32
807.01	215.35
807.33	215.44
807.65	215.25
807.97	215.41
808.28	215.33
808.60	215.30
808.92	215.22
809.24	215.34
809.56	215.28
809.88	215.20
810.20	215.21
810.52	215.15
810.84	215.09
811.16	215.10
811.48	215.05
811.80	215.17
812.12	215.09
812.43	215.12
812.75	215.15
813.07	215.11
813.39	215.14
813.71	215.00
814.03	214.86
814.35	214.85
814.67	214.65
814.98	214.60
815.30	214.55
815.62	214.50
815.94	214.30
816.26	214.30
816.58	214.20
816.89	214.21
817.21	214.15
817.53	214.14
817.85	214.14
818.17	214.02
818.48	213.88
818.80	213.94
819.12	213.85
819.44	213.75
819.76	213.69
820.07	213.60
820.39	213.66
820.71	213.70
821.03	213.77
821.34	213.78
821.66	213.80
821.98	213.87
822.30	213.81
822.61	213.99
822.93	213.88
823.25	213.84
823.57	213.76
823.88	213.85
824.20	213.84
824.52	213.89
824.83	213.87
825.15	213.82
825.47	213.82
825.79	213.85
826.10	213.79
826.42	213.79
826.74	213.89
827.05	213.76
827.37	213.82
827.69	213.72
828.00	213.70
828.32	213.74
828.64	213.64
828.95	213.85
829.27	213.84
829.58	213.85
829.90	213.90
830.22	213.96
830.53	213.84
830.85	213.89
831.17	213.71
831.48	213.68
831.80	213.77
832.11	213.74
832.43	213.62
832.75	213.64
833.06	213.82
833.38	213.66
833.69	213.74
834.01	213.72
834.32	213.76
834.64	213.63
834.96	213.56
835.27	213.57
835.59	213.44
835.90	213.28
836.22	213.32
836.53	213.24
836.85	213.16
837.16	213.51
837.48	213.43
837.79	213.57
838.11	213.64
838.42	213.58
838.74	213.62
839.05	213.55
839.37	213.53
839.68	213.40
840.00	213.41
840.31	213.39
840.63	213.25
840.94	213.16
841.26	213.23
841.57	213.29
841.88	213.30
842.20	213.24
842.51	213.17
842.83	213.11
843.14	213.38
843.46	213.31
843.77	213.07
844.08	212.97
844.40	212.86
844.71	212.78
845.03	212.70
845.34	212.65
845.65	212.71
845.97	212.66
846.28	212.60
846.60	212.62
846.91	212.55
847.22	212.58
847.54	212.73
847.85	212.67
848.16	212.57
848.48	212.49
848.79	212.60
849.10	212.68
849.42	212.74
849.73	212.39
850.04	212.43
850.36	212.29
850.67	212.40
850.98	212.41
851.30	212.47
851.61	212.50
851.92	212.46
852.23	212.54
852.55	212.55
852.86	212.58
853.17	212.61
853.49	212.67
853.80	212.68
854.11	212.60
854.42	212.65
854.74	212.60
855.05	212.70
855.36	212.51
855.67	212.50
855.99	212.47
856.30	212.99
856.61	212.94
856.92	212.96
857.23	212.97
857.55	212.94
857.86	212.89
858.17	212.90
858.48	212.82
858.79	212.75
859.11	212.75
859.42	212.69
859.73	212.65
860.04	212.65
860.35	212.59
860.66	212.47
860.98	212.45
861.29	212.45
861.60	212.33
861.91	212.38
862.22	212.32
862.53	212.31
862.84	211.88
863.16	211.96
863.47	211.89
863.78	211.80
864.09	211.79
864.40	211.84
864.71	211.82
865.02	211.89
865.33	211.85
865.64	211.89
865.95	211.87
866.27	212.01
866.58	211.92
866.89	211.89
867.20	211.88
867.51	211.80
867.82	211.82
868.13	211.92
868.44	211.89
868.75	211.91
869.06	211.87
869.37	211.88
869.68	211.79
869.99	211.87
870.30	211.94
870.61	211.96
870.92	211.89
871.23	211.87
871.54	211.89
871.85	211.89
872.16	211.84
872.47	211.82
872.78	211.63
873.09	211.71
873.40	211.62
873.71	211.66
874.02	211.70
874.33	211.62
874.64	211.56
874.95	211.59
875.26	211.51
875.56	211.46
875.87	211.45
876.18	211.42
876.49	211.71
876.80	211.67
877.11	211.61
877.42	211.60
877.73	211.55
878.04	211.47
878.35	211.53
878.66	211.53
878.96	211.53
879.27	211.51
879.58	211.46
879.89	211.55
880.20	211.65
880.51	211.64
880.82	211.69
881.12	211.69
881.43	211.65
881.74	211.67
882.05	211.62
882.36	211.70
882.67	211.78
882.97	211.41
883.28	211.35
883.59	211.37
883.90	211.40
884.21	211.45
884.51	211.44
884.82	211.36
885.13	211.40
885.44	211.43
885.74	211.35
886.05	211.36
886.36	211.32
886.67	211.24
886.98	211.40
887.28	211.43
887.59	211.47
887.90	211.44
888.20	211.42
888.51	211.65
888.82	211.55
889.13	211.56
889.43	211.89
889.74	211.94
890.05	211.90
890.35	211.90
890.66	211.86
890.97	211.87
891.28	211.82
891.58	211.86
891.89	211.80
892.20	211.85
892.50	211.76
892.81	211.76
893.12	211.76
893.42	211.68
893.73	211.68
894.04	211.64
894.34	211.68
894.65	211.73
894.95	211.58
895.26	211.64
895.57	211.72
895.87	211.38
896.18	211.32
896.48	211.35
896.79	211.32
897.10	211.45
897.40	211.52
897.71	211.66
898.01	211.52
898.32	211.60
898.63	211.54
898.93	211.60
899.24	211.64
899.54	211.59
899.85	211.51
900.15	211.54
900.46	211.55
900.76	211.56
901.07	211.53
901.38	211.52
901.68	211.44
901.99	211.30
902.29	211.35
902.60	211.35
902.90	211.32
903.21	211.32
903.51	211.27
903.82	211.27
904.12	211.26
904.43	211.33
904.73	211.34
905.03	211.43
905.34	211.76
905.64	211.75
905.95	211.76
906.25	211.78
906.56	211.78
906.86	211.80
907.17	211.82
907.47	211.83
907.77	211.79
908.08	211.80
908.38	211.82
908.69	211.77
908.99	211.85
909.30	211.92
909.60	211.85
909.90	211.81
910.21	211.75
910.51	211.70
910.81	211.70
911.12	211.65
911.42	211.76
911.73	211.40
912.03	211.40
912.33	211.41
912.64	211.36
912.94	211.31
913.24	211.28
913.55	211.25
913.85	211.19
914.15	211.19
914.46	211.23
914.76	211.20
915.06	211.23
915.37	211.18
915.67	211.17
915.97	211.23
916.27	211.15
916.58	211.15
916.88	211.14
917.18	211.11
917.49	211.33
917.79	211.19
918.09	211.28
918.39	211.42
918.70	211.43
919.00	211.49
919.30	211.60
919.60	211.45
919.91	211.47
920.21	211.49
920.51	211.51
920.81	211.50
921.12	211.51
921.42	211.52
921.72	211.57
922.02	211.54
922.32	211.64
922.63	211.69
922.93	211.85
923.23	211.85
923.53	211.85
923.83	211.68
924.13	211.76
924.44	211.79
924.74	211.83
925.04	211.95
925.34	211.94
925.64	211.85
925.94	212.01
926.24	212.17
926.55	212.16
926.85	212.19
927.15	212.15
927.45	212.13
927.75	212.15
928.05	212.13
928.35	212.12
928.65	212.17
928.95	212.19
929.26	212.04
929.56	212.06
929.86	212.07
930.16	212.03
930.46	211.92
930.76	211.85
931.06	211.70
931.36	211.58
931.66	211.65
931.96	211.63
932.26	211.61
932.56	211.46
932.86	211.51
933.16	211.55
933.46	211.55
933.76	211.58
934.06	211.62
934.36	211.79
934.66	211.84
934.96	211.81
935.26	211.77
935.56	211.84
935.86	211.72
936.16	211.70
936.46	211.72
936.76	211.82
937.06	211.75
937.36	211.77
937.66	211.79
937.96	211.73
938.26	211.70
938.56	211.69
938.86	211.73
939.16	211.79
939.46	211.77
939.76	211.84
940.06	211.81
940.35	211.72
940.65	211.53
940.95	211.58
941.25	211.44
941.55	211.49
941.85	211.47
942.15	211.53
942.45	211.60
942.75	211.52
943.04	211.49
943.34	211.61
943.64	211.54
943.94	211.50
944.24	211.48
944.54	211.51
944.84	211.49
945.13	211.37
945.43	211.26
945.73	211.31
946.03	211.28
946.33	211.24
946.62	211.27
946.92	211.31
947.22	211.26
947.52	211.37
947.82	211.41
948.11	211.42
948.41	211.38
948.71	211.26
949.01	211.33
949.31	211.29
949.60	211.28
949.90	211.36
950.20	211.36
950.50	211.40
950.79	211.35
951.09	211.39
951.39	211.43
951.69	211.45
951.98	211.40
952.28	211.32
952.58	211.38
952.87	211.36
953.17	211.34
953.47	211.26
953.76	211.22
954.06	211.08
954.36	211.02
954.66	211.05
954.95	211.20
955.25	211.20
955.55	211.27
955.84	211.21
956.14	211.25
956.44	211.28
956.73	211.21
957.03	211.26
957.32	211.27
957.62	211.29
957.92	211.36
958.21	211.39
958.51	211.88
958.81	211.86
959.10	211.85
959.40	211.92
959.69	211.99
959.99	212.03
960.29	212.08
960.58	212.05
960.88	212.19
961.17	212.14
961.47	212.16
961.76	212.07
962.06	212.06
962.36	211.99
962.65	211.95
962.95	212.02
963.24	211.97
963.54	211.91
963.83	211.94
964.13	211.94
964.42	211.85
964.72	211.52
965.01	211.55
965.31	211.58
965.60	211.53
965.90	211.78
966.19	211.67
966.49	211.74
966.78	211.73
967.08	211.66
967.37	211.68
967.67	211.63
967.96	211.70
968.26	211.74
968.55	211.73
968.85	211.79
969.14	211.73
969.43	211.75
969.73	211.75
970.02	211.71
970.32	211.69
970.61	211.64
970.91	211.50
971.20	211.37
971.49	211.36
971.79	211.37
972.08	211.05
972.38	211.05
972.67	210.92
972.96	210.97
973.26	210.97
973.55	210.98
973.85	211.01
974.14	211.01
974.43	211.07
974.73	211.03
975.02	210.97
975.31	210.99
975.61	211.01
975.90	211.03
976.19	210.99
976.49	210.96
976.78	211.02
977.07	211.06
977.37	211.15
977.66	211.23
977.95	211.15
978.24	211.22
978.54	211.34
978.83	211.33
979.12	211.32
979.42	211.29
979.71	211.26
980.00	211.20
980.29	211.23
980.59	211.13
980.88	211.27
981.17	211.24
981.46	211.19
981.76	211.15
982.05	211.15
982.34	211.20
982.63	211.13
982.93	211.16
983.22	211.26
983.51	211.26
983.80	211.26
984.09	211.33
984.39	211.29
984.68	211.27
984.97	211.34
985.26	211.26
985.55	211.29
985.85	211.21
986.14	211.35
986.43	211.40
986.72	211.38
987.01	211.25
987.30	211.30
987.59	211.36
987.89	211.43
988.18	211.45
988.47	211.42
988.76	211.55
989.05	211.52
989.34	211.45
989.63	211.58
989.92	211.49
990.22	211.48
990.51	211.47
990.80	211.40
991.09	211.46
991.38	211.55
991.67	211.48
991.96	211.54
992.25	211.49
992.54	211.37
992.83	211.40
993.12	211.42
993.41	211.49
993.70	211.65
993.99	211.61
994.28	211.59
994.58	211.62
994.87	211.57
995.16	211.57
995.45	211.52
995.74	211.33
996.03	211.39
996.32	211.41
996.61	211.54
996.90	211.58
997.19	211.50
997.48	211.51
997.77	211.50
998.06	211.49
998.34	211.45
998.63	211.52
998.92	211.54
999.21	211.55
999.50	211.47
999.79	211.32
1000.08	211.43
1000.37	211.45
1000.66	211.42
1000.95	211.47
1001.24	211.45
1001.53	211.57
1001.82	211.64
1002.11	211.57
1002.40	211.54
1002.68	211.63
1002.97	211.80
1003.26	211.81
1003.55	211.70
1003.84	211.77
1004.13	211.87
1004.42	211.88
1004.71	211.82
1004.99	211.82
1005.28	211.91
1005.57	211.93
1005.86	211.86
1006.15	211.80
1006.44	211.70
1006.72	211.79
1007.01	211.66
1007.30	211.68
1007.59	211.54
1007.88	211.42
1008.17	211.43
1008.45	211.36
1008.74	211.16
1009.03	210.98
1009.32	210.95
1009.60	211.00
1009.89	210.93
1010.18	210.77
1010.47	210.74
1010.76	210.75
1011.04	210.73
1011.33	210.92
1011.62	210.97
1011.91	210.99
1012.19	211.00
1012.48	211.00
1012.77	210.97
1013.05	211.18
1013.34	211.19
1013.63	211.24
1013.92	211.33
1014.20	211.29
1014.49	211.32
1014.78	211.35
1015.06	211.28
1015.35	211.30
1015.64	211.28
1015.92	211.30
1016.21	211.35
1016.50	211.37
1016.78	211.35
1017.07	211.34
1017.36	211.07
1017.64	210.98
1017.93	211.02
1018.22	210.96
1018.50	210.97
1018.79	210.96
1019.08	210.81
1019.36	210.80
1019.65	210.80
1019.93	210.85
1020.22	210.92
1020.51	211.10
1020.79	211.06
1021.08	210.35
1021.36	210.40
1021.65	211.45
1021.94	211.15
1022.22	211.00
1022.51	211.25
1022.79	212.30
1023.08	211.00
1023.36	214.65
1023.65	209.95
>>>>>End Processed Spectral Data<<<<<
