SpectraSuite Data File
++++++++++++++++++++++++++++++++++++
Date: Mon Feb 25 16:56:56 EST 2013
User: group
Dark Spectrum Present: No
Reference Spectrum Present: No
Number of Sampled Component Spectra: 1
Spectrometers: USB2E7196
Integration Time (usec): 104000 (USB2E7196)
Spectra Averaged: 20 (USB2E7196)
Boxcar Smoothing: 10 (USB2E7196)
Correct for Electrical Dark: No (USB2E7196)
Strobe/Lamp Enabled: No (USB2E7196)
Correct for Detector Non-linearity: No (USB2E7196)
Correct for Stray Light: No (USB2E7196)
Number of Pixels in Processed Spectrum: 2048
>>>>>Begin Processed Spectral Data<<<<<
339.09	0.00
339.48	199.10
339.86	201.40
340.24	201.60
340.63	202.45
341.01	210.05
341.39	206.25
341.78	207.70
342.16	209.60
342.54	207.85
342.93	198.55
343.31	208.58
343.69	209.10
344.07	209.60
344.46	210.09
344.84	210.55
345.22	210.56
345.60	210.80
345.99	210.99
346.37	211.02
346.75	211.17
347.13	211.22
347.52	211.29
347.90	211.42
348.28	211.43
348.66	211.45
349.05	211.37
349.43	211.48
349.81	211.52
350.19	211.50
350.57	211.62
350.96	211.72
351.34	211.77
351.72	211.95
352.10	211.97
352.48	212.01
352.87	212.02
353.25	212.15
353.63	212.25
354.01	212.33
354.39	212.44
354.77	212.46
355.15	212.59
355.54	212.64
355.92	212.60
356.30	212.69
356.68	213.04
357.06	213.07
357.44	213.07
357.82	213.13
358.20	213.21
358.58	213.26
358.97	213.32
359.35	213.50
359.73	213.50
360.11	213.61
360.49	213.66
360.87	213.71
361.25	213.82
361.63	213.95
362.01	213.94
362.39	214.00
362.77	214.05
363.15	214.04
363.53	214.11
363.91	214.17
364.29	214.27
364.67	213.97
365.05	214.01
365.43	214.07
365.81	214.12
366.19	214.34
366.57	214.55
366.95	214.53
367.33	214.40
367.71	214.40
368.09	214.35
368.47	214.39
368.85	214.39
369.23	214.40
369.61	214.24
369.99	214.40
370.37	214.37
370.75	214.55
371.13	214.47
371.51	214.34
371.89	214.25
372.27	214.14
372.65	214.15
373.03	214.19
373.41	214.18
373.78	214.17
374.16	213.89
374.54	213.64
374.92	213.57
375.30	213.60
375.68	213.47
376.06	213.46
376.44	213.29
376.82	213.26
377.19	213.13
377.57	213.10
377.95	212.85
378.33	212.87
378.71	212.56
379.09	212.58
379.47	212.63
379.84	212.64
380.22	212.55
380.60	212.49
380.98	212.42
381.36	212.29
381.73	212.15
382.11	212.17
382.49	212.16
382.87	212.08
383.25	212.11
383.62	212.54
384.00	212.48
384.38	212.52
384.76	212.54
385.13	212.69
385.51	212.65
385.89	212.67
386.27	212.55
386.64	212.63
387.02	212.53
387.40	212.45
387.78	212.38
388.15	212.50
388.53	212.35
388.91	212.29
389.29	212.29
389.66	212.31
390.04	212.26
390.42	212.33
390.79	212.27
391.17	212.17
391.55	211.78
391.92	211.79
392.30	211.83
392.68	211.80
393.05	211.78
393.43	211.79
393.81	211.82
394.18	211.77
394.56	211.77
394.94	211.92
395.31	211.89
395.69	212.01
396.06	212.02
396.44	212.14
396.82	212.16
397.19	212.40
397.57	212.41
397.95	212.44
398.32	212.39
398.70	212.50
399.07	212.69
399.45	212.70
399.82	212.68
400.20	212.72
400.58	212.74
400.95	212.65
401.33	212.91
401.70	213.23
402.08	213.48
402.45	213.57
402.83	213.78
403.20	213.96
403.58	214.10
403.95	214.35
404.33	214.60
404.71	214.81
405.08	215.14
405.46	215.49
405.83	215.83
406.21	216.13
406.58	216.59
406.96	216.84
407.33	217.27
407.70	217.83
408.08	218.57
408.45	219.18
408.83	219.85
409.20	220.27
409.58	220.65
409.95	221.28
410.33	222.09
410.70	222.68
411.08	223.58
411.45	224.47
411.82	225.36
412.20	226.45
412.57	227.76
412.95	228.66
413.32	229.90
413.69	231.29
414.07	232.75
414.44	234.25
414.82	235.89
415.19	237.72
415.56	239.53
415.94	241.37
416.31	243.63
416.68	245.87
417.06	248.41
417.43	250.93
417.81	253.81
418.18	256.69
418.55	259.83
418.93	263.10
419.30	266.58
419.67	270.19
420.04	273.92
420.42	277.79
420.79	282.43
421.16	287.02
421.54	291.87
421.91	296.84
422.28	301.93
422.66	307.44
423.03	312.92
423.40	318.58
423.77	324.65
424.15	330.65
424.52	337.03
424.89	344.05
425.26	350.91
425.64	357.38
426.01	364.57
426.38	372.05
426.75	379.64
427.13	387.47
427.50	395.74
427.87	404.45
428.24	413.21
428.61	421.43
428.99	430.48
429.36	440.32
429.73	449.96
430.10	459.74
430.47	469.73
430.85	480.09
431.22	491.17
431.59	502.78
431.96	514.16
432.33	526.60
432.70	538.66
433.08	552.99
433.45	566.48
433.82	579.97
434.19	594.74
434.56	609.46
434.93	623.69
435.30	637.87
435.68	653.71
436.05	669.44
436.42	685.13
436.79	699.67
437.16	715.15
437.53	731.89
437.90	748.28
438.27	764.51
438.64	781.35
439.01	797.00
439.38	811.32
439.75	825.14
440.13	840.69
440.50	855.57
440.87	867.84
441.24	880.54
441.61	894.82
441.98	905.83
442.35	918.42
442.72	930.91
443.09	943.11
443.46	950.78
443.83	956.24
444.20	961.38
444.57	968.13
444.94	971.92
445.31	975.83
445.68	979.53
446.05	981.84
446.42	981.52
446.79	980.96
447.16	980.00
447.53	979.71
447.90	974.94
448.27	970.23
448.64	962.92
449.01	957.93
449.37	947.92
449.74	938.61
450.11	927.06
450.48	914.35
450.85	901.48
451.22	890.45
451.59	880.29
451.96	870.13
452.33	856.62
452.70	844.35
453.07	829.38
453.43	814.45
453.80	800.00
454.17	785.95
454.54	772.79
454.91	758.74
455.28	744.68
455.65	731.90
456.02	718.64
456.38	707.67
456.75	693.83
457.12	682.34
457.49	670.81
457.86	659.68
458.23	650.18
458.59	639.83
458.96	629.37
459.33	619.85
459.70	610.55
460.07	602.94
460.43	594.46
460.80	586.30
461.17	579.22
461.54	571.54
461.91	564.55
462.27	557.16
462.64	550.76
463.01	543.88
463.38	537.32
463.74	530.94
464.11	525.02
464.48	520.15
464.85	514.72
465.21	510.53
465.58	506.04
465.95	500.72
466.32	496.03
466.68	491.61
467.05	487.04
467.42	482.77
467.78	478.14
468.15	473.69
468.52	470.43
468.88	466.00
469.25	462.23
469.62	459.09
469.98	455.65
470.35	452.56
470.72	449.61
471.08	446.22
471.45	443.32
471.82	440.56
472.18	437.48
472.55	435.21
472.92	432.53
473.28	430.21
473.65	428.02
474.02	425.93
474.38	424.00
474.75	422.42
475.11	420.57
475.48	419.23
475.85	418.00
476.21	416.80
476.58	415.99
476.94	415.34
477.31	414.57
477.67	413.93
478.04	413.21
478.41	412.95
478.77	412.91
479.14	412.62
479.50	412.60
479.87	412.62
480.23	412.67
480.60	412.70
480.96	412.84
481.33	413.47
481.69	413.96
482.06	414.40
482.42	414.75
482.79	415.20
483.15	416.13
483.52	417.18
483.88	418.15
484.25	418.97
484.61	420.00
484.98	421.06
485.34	422.47
485.71	424.15
486.07	425.79
486.44	427.28
486.80	429.08
487.17	430.96
487.53	433.26
487.90	435.82
488.26	438.47
488.62	441.21
488.99	443.75
489.35	446.46
489.72	449.43
490.08	452.70
490.44	456.05
490.81	459.32
491.17	462.75
491.54	466.35
491.90	470.09
492.26	474.08
492.63	478.20
492.99	482.30
493.36	486.71
493.72	491.30
494.08	495.96
494.45	500.95
494.81	506.17
495.17	511.34
495.54	516.66
495.90	522.23
496.26	527.64
496.63	533.42
496.99	539.36
497.35	545.64
497.72	551.79
498.08	558.17
498.44	564.74
498.80	571.69
499.17	578.61
499.53	585.89
499.89	593.09
500.26	600.14
500.62	607.30
500.98	614.71
501.34	622.07
501.71	629.79
502.07	637.42
502.43	644.92
502.79	652.42
503.16	659.96
503.52	667.56
503.88	675.39
504.24	683.21
504.60	691.18
504.97	699.19
505.33	707.04
505.69	715.43
506.05	723.58
506.41	731.36
506.78	739.17
507.14	746.83
507.50	754.66
507.86	762.61
508.22	770.71
508.59	778.36
508.95	786.26
509.31	794.06
509.67	801.85
510.03	809.49
510.39	817.62
510.75	825.56
511.12	833.45
511.48	841.14
511.84	848.83
512.20	856.18
512.56	863.76
512.92	871.57
513.28	878.75
513.64	885.80
514.00	892.99
514.37	900.00
514.73	907.30
515.09	914.35
515.45	921.16
515.81	927.99
516.17	934.71
516.53	941.39
516.89	947.76
517.25	953.63
517.61	960.04
517.97	965.59
518.33	971.11
518.69	976.68
519.05	982.53
519.41	988.02
519.77	994.07
520.13	999.09
520.49	1003.89
520.85	1008.79
521.21	1014.00
521.57	1019.08
521.93	1023.73
522.29	1028.61
522.65	1033.04
523.01	1037.75
523.37	1041.81
523.73	1046.41
524.09	1050.27
524.45	1054.40
524.81	1059.00
525.17	1063.16
525.53	1067.50
525.89	1071.76
526.25	1075.66
526.61	1079.07
526.97	1082.65
527.33	1085.87
527.68	1089.88
528.04	1093.77
528.40	1097.27
528.76	1100.34
529.12	1103.93
529.48	1107.92
529.84	1111.18
530.20	1114.57
530.56	1117.74
530.91	1121.38
531.27	1124.57
531.63	1127.82
531.99	1131.01
532.35	1133.78
532.71	1136.62
533.07	1139.70
533.42	1142.60
533.78	1145.55
534.14	1148.56
534.50	1151.26
534.86	1154.33
535.21	1156.66
535.57	1159.19
535.93	1161.85
536.29	1164.65
536.65	1167.00
537.00	1168.91
537.36	1170.81
537.72	1172.90
538.08	1175.07
538.44	1176.98
538.79	1179.20
539.15	1181.55
539.51	1183.88
539.87	1186.14
540.22	1188.44
540.58	1190.91
540.94	1193.21
541.29	1194.99
541.65	1196.75
542.01	1198.69
542.37	1200.35
542.72	1202.01
543.08	1203.55
543.44	1205.43
543.79	1206.74
544.15	1208.20
544.51	1210.34
544.87	1212.29
545.22	1214.08
545.58	1215.58
545.94	1216.97
546.29	1217.70
546.65	1218.51
547.01	1219.32
547.36	1220.70
547.72	1221.38
548.07	1221.97
548.43	1222.25
548.79	1222.87
549.14	1223.63
549.50	1224.36
549.86	1224.74
550.21	1225.36
550.57	1226.42
550.92	1226.71
551.28	1227.44
551.64	1227.80
551.99	1228.05
552.35	1228.15
552.70	1228.42
553.06	1229.00
553.41	1229.41
553.77	1230.52
554.13	1231.31
554.48	1232.22
554.84	1232.62
555.19	1233.32
555.55	1233.70
555.90	1234.17
556.26	1234.59
556.61	1234.60
556.97	1234.75
557.32	1234.97
557.68	1234.81
558.03	1234.27
558.39	1234.01
558.74	1234.02
559.10	1234.07
559.45	1234.07
559.81	1234.48
560.16	1234.11
560.52	1233.76
560.87	1233.87
561.23	1233.03
561.58	1232.92
561.94	1232.06
562.29	1231.38
562.64	1230.89
563.00	1230.51
563.35	1230.36
563.71	1230.44
564.06	1230.45
564.42	1230.43
564.77	1230.68
565.12	1230.97
565.48	1231.54
565.83	1231.50
566.19	1231.73
566.54	1231.43
566.89	1230.88
567.25	1230.80
567.60	1231.08
567.96	1231.25
568.31	1231.09
568.66	1230.90
569.02	1230.13
569.37	1229.56
569.72	1229.06
570.08	1228.41
570.43	1227.34
570.78	1226.50
571.14	1225.08
571.49	1223.82
571.84	1222.78
572.20	1221.09
572.55	1219.96
572.90	1217.93
573.26	1216.30
573.61	1214.15
573.96	1212.50
574.31	1210.58
574.67	1208.30
575.02	1205.71
575.37	1202.97
575.72	1200.28
576.08	1198.08
576.43	1195.49
576.78	1192.94
577.13	1190.65
577.49	1188.28
577.84	1185.99
578.19	1183.42
578.54	1181.53
578.90	1179.77
579.25	1177.06
579.60	1174.40
579.95	1171.23
580.30	1168.80
580.66	1166.56
581.01	1163.74
581.36	1160.55
581.71	1157.63
582.06	1154.76
582.42	1152.01
582.77	1149.13
583.12	1145.93
583.47	1142.83
583.82	1140.00
584.17	1137.20
584.53	1134.16
584.88	1130.67
585.23	1127.46
585.58	1124.22
585.93	1120.80
586.28	1117.36
586.63	1114.38
586.98	1111.46
587.34	1108.60
587.69	1105.26
588.04	1101.87
588.39	1099.11
588.74	1095.83
589.09	1093.03
589.44	1089.39
589.79	1086.21
590.14	1083.27
590.49	1080.33
590.84	1077.05
591.19	1074.26
591.54	1071.00
591.89	1067.21
592.25	1064.19
592.60	1060.52
592.95	1056.86
593.30	1052.83
593.65	1048.78
594.00	1044.67
594.35	1041.80
594.70	1037.98
595.05	1034.55
595.40	1030.92
595.75	1026.79
596.10	1023.25
596.45	1019.46
596.80	1016.10
597.15	1012.68
597.50	1008.71
597.85	1005.08
598.19	1001.15
598.54	997.14
598.89	993.48
599.24	990.49
599.59	986.84
599.94	983.52
600.29	979.97
600.64	976.61
600.99	973.02
601.34	969.64
601.69	965.03
602.04	961.24
602.39	957.46
602.74	953.78
603.08	950.63
603.43	947.62
603.78	943.97
604.13	940.33
604.48	936.55
604.83	933.44
605.18	930.22
605.53	926.85
605.87	922.95
606.22	919.48
606.57	915.49
606.92	911.78
607.27	907.84
607.62	904.37
607.96	900.87
608.31	897.67
608.66	893.94
609.01	890.31
609.36	886.60
609.70	882.53
610.05	878.53
610.40	874.44
610.75	870.11
611.10	866.53
611.44	862.35
611.79	858.25
612.14	853.96
612.49	849.28
612.83	845.20
613.18	841.31
613.53	836.97
613.88	832.63
614.22	828.53
614.57	824.65
614.92	820.66
615.27	816.43
615.61	812.25
615.96	808.48
616.31	804.63
616.65	801.12
617.00	797.50
617.35	793.72
617.70	789.90
618.04	785.86
618.39	781.49
618.74	777.78
619.08	773.97
619.43	770.04
619.78	766.55
620.12	762.97
620.47	759.32
620.82	755.43
621.16	751.64
621.51	747.82
621.85	744.01
622.20	740.03
622.55	736.22
622.89	732.27
623.24	728.18
623.59	724.13
623.93	720.05
624.28	716.35
624.62	713.08
624.97	709.31
625.32	705.68
625.66	702.24
626.01	698.68
626.35	695.01
626.70	691.26
627.04	687.66
627.39	684.05
627.73	680.55
628.08	677.45
628.43	674.03
628.77	670.65
629.12	667.07
629.46	663.90
629.81	660.72
630.15	657.47
630.50	654.22
630.84	650.91
631.19	647.65
631.53	644.35
631.88	640.63
632.22	637.28
632.57	634.32
632.91	631.31
633.26	628.01
633.60	624.82
633.95	621.93
634.29	618.79
634.64	615.84
634.98	612.57
635.32	609.56
635.67	606.77
636.01	603.84
636.36	601.07
636.70	598.15
637.05	595.13
637.39	592.35
637.73	589.74
638.08	587.38
638.42	584.74
638.77	582.02
639.11	579.41
639.45	576.83
639.80	573.86
640.14	570.80
640.49	568.02
640.83	565.31
641.17	562.51
641.52	559.77
641.86	556.84
642.20	554.19
642.55	551.24
642.89	548.28
643.23	545.40
643.58	542.84
643.92	539.98
644.26	537.49
644.61	534.71
644.95	531.84
645.29	528.88
645.64	526.24
645.98	523.64
646.32	520.83
646.66	518.07
647.01	515.58
647.35	513.13
647.69	510.52
648.04	508.07
648.38	505.56
648.72	503.05
649.06	500.51
649.41	497.96
649.75	495.50
650.09	493.10
650.43	490.73
650.78	488.05
651.12	485.52
651.46	482.81
651.80	480.53
652.14	478.36
652.49	476.05
652.83	473.60
653.17	471.01
653.51	468.71
653.85	466.48
654.20	464.12
654.54	461.76
654.88	459.41
655.22	457.12
655.56	454.72
655.90	452.27
656.25	449.92
656.59	447.65
656.93	445.43
657.27	443.37
657.61	440.95
657.95	438.80
658.29	436.66
658.64	434.77
658.98	432.50
659.32	430.11
659.66	427.97
660.00	425.70
660.34	423.62
660.68	421.42
661.02	419.30
661.36	417.34
661.70	415.19
662.05	413.17
662.39	411.26
662.73	409.45
663.07	407.72
663.41	405.91
663.75	404.02
664.09	402.16
664.43	400.19
664.77	398.50
665.11	396.64
665.45	394.80
665.79	393.00
666.13	391.21
666.47	389.50
666.81	387.70
667.15	385.97
667.49	384.37
667.83	382.88
668.17	381.22
668.51	379.54
668.85	378.15
669.19	376.81
669.53	375.14
669.87	373.39
670.21	371.82
670.55	370.26
670.89	369.01
671.23	367.63
671.57	366.14
671.91	364.76
672.25	363.39
672.58	362.21
672.92	360.65
673.26	359.21
673.60	357.89
673.94	356.50
674.28	355.23
674.62	353.87
674.96	352.56
675.30	351.22
675.64	349.94
675.97	348.61
676.31	347.24
676.65	346.01
676.99	345.01
677.33	343.73
677.67	342.50
678.01	340.97
678.34	339.60
678.68	338.40
679.02	337.07
679.36	335.81
679.70	334.48
680.04	333.40
680.37	332.30
680.71	331.16
681.05	330.12
681.39	328.92
681.73	327.76
682.06	326.65
682.40	325.59
682.74	324.49
683.08	323.46
683.42	322.33
683.75	321.24
684.09	320.07
684.43	319.01
684.77	318.00
685.10	317.10
685.44	316.02
685.78	314.99
686.12	314.00
686.45	312.99
686.79	311.90
687.13	310.84
687.46	309.86
687.80	308.79
688.14	307.67
688.48	306.72
688.81	305.78
689.15	304.74
689.49	303.63
689.82	302.57
690.16	301.50
690.50	300.50
690.83	299.59
691.17	298.54
691.51	297.65
691.84	296.68
692.18	295.64
692.52	294.86
692.85	294.02
693.19	293.22
693.52	292.34
693.86	291.45
694.20	290.63
694.53	289.82
694.87	288.98
695.21	288.20
695.54	287.41
695.88	286.51
696.21	285.65
696.55	284.95
696.88	284.23
697.22	283.36
697.56	282.68
697.89	281.85
698.23	281.12
698.56	280.33
698.90	279.64
699.23	278.91
699.57	278.05
699.90	277.16
700.24	276.32
700.58	275.64
700.91	275.02
701.25	274.53
701.58	273.87
701.92	273.20
702.25	272.48
702.59	271.76
702.92	271.05
703.26	270.35
703.59	269.67
703.93	269.38
704.26	268.78
704.60	268.12
704.93	267.47
705.26	266.88
705.60	266.35
705.93	265.64
706.27	265.13
706.60	264.70
706.94	264.36
707.27	263.80
707.61	263.21
707.94	262.65
708.27	261.86
708.61	261.15
708.94	260.66
709.28	260.18
709.61	259.63
709.94	259.24
710.28	258.83
710.61	258.43
710.95	257.56
711.28	257.36
711.61	256.81
711.95	256.47
712.28	255.98
712.61	255.44
712.95	255.25
713.28	254.89
713.61	254.40
713.95	253.81
714.28	253.34
714.61	252.96
714.95	252.56
715.28	252.15
715.61	251.75
715.95	251.29
716.28	250.88
716.61	250.51
716.95	249.97
717.28	249.52
717.61	249.06
717.94	248.69
718.28	248.05
718.61	247.74
718.94	247.30
719.27	246.92
719.61	246.54
719.94	246.09
720.27	245.61
720.60	245.22
720.94	244.94
721.27	244.69
721.60	244.44
721.93	243.99
722.27	243.81
722.60	243.57
722.93	243.25
723.26	242.98
723.59	242.71
723.93	242.52
724.26	242.22
724.59	241.84
724.92	241.56
725.25	241.29
725.59	241.06
725.92	240.80
726.25	240.51
726.58	240.28
726.91	239.93
727.24	239.78
727.57	239.49
727.91	239.04
728.24	238.76
728.57	238.33
728.90	238.17
729.23	237.77
729.56	237.64
729.89	237.35
730.22	236.97
730.55	236.64
730.89	236.43
731.22	236.19
731.55	235.98
731.88	235.74
732.21	235.52
732.54	235.16
732.87	234.88
733.20	234.69
733.53	234.39
733.86	234.25
734.19	233.81
734.52	233.64
734.85	233.74
735.18	233.52
735.51	233.47
735.84	233.28
736.17	233.14
736.50	232.73
736.83	232.91
737.16	232.81
737.49	232.60
737.82	232.29
738.15	232.14
738.48	231.95
738.81	231.68
739.14	231.34
739.47	231.17
739.80	230.97
740.13	230.76
740.46	230.61
740.79	230.23
741.12	230.04
741.45	229.78
741.78	229.39
742.11	229.34
742.44	229.01
742.77	228.85
743.10	228.65
743.43	228.42
743.75	227.94
744.08	228.14
744.41	227.99
744.74	227.75
745.07	227.47
745.40	227.36
745.73	227.34
746.06	227.25
746.39	227.08
746.71	226.92
747.04	226.71
747.37	226.46
747.70	226.49
748.03	226.41
748.36	226.30
748.68	226.14
749.01	225.71
749.34	225.63
749.67	225.41
750.00	225.30
750.33	225.44
750.65	225.33
750.98	224.73
751.31	224.55
751.64	224.50
751.97	224.60
752.29	224.47
752.62	224.24
752.95	224.13
753.28	223.95
753.60	223.79
753.93	223.84
754.26	223.73
754.59	223.41
754.91	223.24
755.24	223.12
755.57	223.00
755.90	222.95
756.22	222.75
756.55	222.59
756.88	222.41
757.20	222.10
757.53	221.85
757.86	221.78
758.19	221.70
758.51	221.58
758.84	221.27
759.17	221.04
759.49	220.97
759.82	221.01
760.15	220.94
760.47	220.80
760.80	220.55
761.13	220.59
761.45	220.54
761.78	220.40
762.11	220.35
762.43	220.22
762.76	220.07
763.08	220.00
763.41	219.96
763.74	219.88
764.06	219.70
764.39	219.64
764.71	219.52
765.04	219.35
765.37	219.23
765.69	219.13
766.02	219.20
766.34	219.03
766.67	218.79
767.00	218.76
767.32	218.87
767.65	218.96
767.97	218.81
768.30	218.74
768.62	218.66
768.95	218.50
769.27	218.46
769.60	218.45
769.92	218.36
770.25	218.21
770.57	218.11
770.90	218.10
771.22	217.94
771.55	217.89
771.87	217.85
772.20	217.71
772.52	217.90
772.85	218.13
773.17	218.09
773.50	218.01
773.82	217.88
774.15	217.70
774.47	217.47
774.80	217.35
775.12	217.33
775.45	217.29
775.77	217.19
776.09	217.18
776.42	217.14
776.74	217.19
777.07	217.10
777.39	217.03
777.72	216.94
778.04	216.99
778.36	216.83
778.69	216.92
779.01	216.99
779.33	216.62
779.66	216.21
779.98	216.08
780.31	216.05
780.63	216.15
780.95	216.12
781.28	216.06
781.60	216.00
781.92	215.89
782.25	215.86
782.57	215.87
782.89	215.75
783.22	215.73
783.54	215.58
783.86	215.59
784.19	215.53
784.51	215.57
784.83	215.42
785.16	215.44
785.48	215.37
785.80	215.33
786.12	215.35
786.45	215.31
786.77	215.25
787.09	215.17
787.42	215.02
787.74	214.95
788.06	214.92
788.38	214.90
788.71	214.85
789.03	214.81
789.35	214.78
789.67	214.71
789.99	214.67
790.32	214.58
790.64	214.64
790.96	214.84
791.28	214.67
791.61	214.66
791.93	214.62
792.25	214.48
792.57	214.72
792.89	214.63
793.21	214.65
793.54	214.62
793.86	214.59
794.18	214.56
794.50	214.43
794.82	214.42
795.14	214.35
795.47	214.43
795.79	214.40
796.11	214.30
796.43	214.32
796.75	214.22
797.07	214.27
797.39	214.24
797.71	214.02
798.04	214.10
798.36	214.13
798.68	214.21
799.00	214.19
799.32	213.90
799.64	213.98
799.96	213.88
800.28	213.95
800.60	213.87
800.92	213.85
801.24	213.87
801.56	213.86
801.89	213.90
802.21	213.91
802.53	213.89
802.85	214.00
803.17	214.09
803.49	214.05
803.81	214.00
804.13	213.93
804.45	213.86
804.77	213.83
805.09	213.76
805.41	213.63
805.73	213.62
806.05	213.61
806.37	213.55
806.69	213.55
807.01	213.51
807.33	213.58
807.65	213.50
807.97	213.63
808.28	213.57
808.60	213.47
808.92	213.40
809.24	213.61
809.56	213.48
809.88	213.41
810.20	213.45
810.52	213.51
810.84	213.41
811.16	213.42
811.48	213.38
811.80	213.51
812.12	213.52
812.43	213.59
812.75	213.51
813.07	213.40
813.39	213.46
813.71	213.39
814.03	213.35
814.35	213.34
814.67	213.15
814.98	213.14
815.30	213.20
815.62	213.10
815.94	212.81
816.26	212.86
816.58	212.69
816.89	212.74
817.21	212.58
817.53	212.62
817.85	212.51
818.17	212.55
818.48	212.38
818.80	212.41
819.12	212.33
819.44	212.35
819.76	212.34
820.07	212.28
820.39	212.26
820.71	212.26
821.03	212.26
821.34	212.31
821.66	212.35
821.98	212.29
822.30	212.23
822.61	212.43
822.93	212.39
823.25	212.42
823.57	212.39
823.88	212.53
824.20	212.49
824.52	212.60
824.83	212.54
825.15	212.55
825.47	212.47
825.79	212.54
826.10	212.48
826.42	212.43
826.74	212.41
827.05	212.42
827.37	212.42
827.69	212.36
828.00	212.36
828.32	212.34
828.64	212.34
828.95	212.64
829.27	212.54
829.58	212.44
829.90	212.52
830.22	212.49
830.53	212.40
830.85	212.41
831.17	212.31
831.48	212.32
831.80	212.34
832.11	212.37
832.43	212.37
832.75	212.32
833.06	212.55
833.38	212.44
833.69	212.44
834.01	212.47
834.32	212.50
834.64	212.50
834.96	212.45
835.27	212.48
835.59	212.30
835.90	212.23
836.22	212.26
836.53	212.15
836.85	212.16
837.16	212.46
837.48	212.42
837.79	212.56
838.11	212.56
838.42	212.50
838.74	212.50
839.05	212.32
839.37	212.36
839.68	212.11
840.00	212.12
840.31	212.15
840.63	212.10
840.94	212.04
841.26	211.95
841.57	211.92
841.88	211.93
842.20	211.88
842.51	211.82
842.83	211.92
843.14	212.25
843.46	212.20
843.77	211.95
844.08	211.98
844.40	211.82
844.71	211.79
845.03	211.79
845.34	211.76
845.65	211.77
845.97	211.77
846.28	211.78
846.60	211.81
846.91	211.78
847.22	211.67
847.54	211.72
847.85	211.79
848.16	211.82
848.48	211.73
848.79	211.86
849.10	211.91
849.42	211.81
849.73	211.58
850.04	211.55
850.36	211.46
850.67	211.48
850.98	211.52
851.30	211.56
851.61	211.54
851.92	211.60
852.23	211.75
852.55	211.73
852.86	211.77
853.17	211.79
853.49	211.89
853.80	212.08
854.11	212.08
854.42	212.12
854.74	212.08
855.05	212.14
855.36	211.93
855.67	211.93
855.99	211.96
856.30	212.32
856.61	212.26
856.92	212.30
857.23	212.37
857.55	212.28
857.86	212.21
858.17	212.21
858.48	212.13
858.79	212.05
859.11	212.03
859.42	212.00
859.73	211.98
860.04	211.90
860.35	211.78
860.66	211.72
860.98	211.69
861.29	211.74
861.60	211.70
861.91	211.76
862.22	211.73
862.53	211.70
862.84	211.32
863.16	211.44
863.47	211.35
863.78	211.32
864.09	211.38
864.40	211.39
864.71	211.46
865.02	211.50
865.33	211.47
865.64	211.50
865.95	211.59
866.27	211.82
866.58	211.80
866.89	211.86
867.20	211.80
867.51	211.77
867.82	211.78
868.13	211.88
868.44	211.87
868.75	211.94
869.06	211.93
869.37	211.91
869.68	211.86
869.99	211.86
870.30	211.82
870.61	211.86
870.92	211.84
871.23	211.77
871.54	211.85
871.85	211.93
872.16	211.95
872.47	211.87
872.78	211.63
873.09	211.69
873.40	211.64
873.71	211.74
874.02	211.74
874.33	211.70
874.64	211.57
874.95	211.61
875.26	211.47
875.56	211.41
875.87	211.45
876.18	211.40
876.49	211.85
876.80	211.87
877.11	211.73
877.42	211.76
877.73	211.76
878.04	211.71
878.35	211.70
878.66	211.72
878.96	211.70
879.27	211.69
879.58	211.67
879.89	211.64
880.20	211.69
880.51	211.66
880.82	211.64
881.12	211.63
881.43	211.56
881.74	211.56
882.05	211.56
882.36	211.50
882.67	211.55
882.97	211.04
883.28	210.92
883.59	210.99
883.90	211.04
884.21	211.09
884.51	211.09
884.82	210.99
885.13	210.92
885.44	210.90
885.74	210.96
886.05	210.94
886.36	210.91
886.67	210.77
886.98	210.98
887.28	211.04
887.59	211.08
887.90	211.10
888.20	211.16
888.51	211.25
888.82	211.20
889.13	211.21
889.43	211.64
889.74	211.70
890.05	211.64
890.35	211.58
890.66	211.48
890.97	211.43
891.28	211.37
891.58	211.46
891.89	211.54
892.20	211.48
892.50	211.47
892.81	211.49
893.12	211.60
893.42	211.37
893.73	211.37
894.04	211.35
894.34	211.31
894.65	211.31
894.95	211.28
895.26	211.41
895.57	211.55
895.87	211.20
896.18	211.22
896.48	211.33
896.79	211.34
897.10	211.40
897.40	211.45
897.71	211.56
898.01	211.48
898.32	211.47
898.63	211.45
898.93	211.43
899.24	211.47
899.54	211.40
899.85	211.46
900.15	211.47
900.46	211.51
900.76	211.63
901.07	211.57
901.38	211.55
901.68	211.55
901.99	211.39
902.29	211.44
902.60	211.44
902.90	211.38
903.21	211.33
903.51	211.31
903.82	211.39
904.12	211.45
904.43	211.48
904.73	211.49
905.03	211.52
905.34	211.95
905.64	211.89
905.95	211.92
906.25	211.88
906.56	211.82
906.86	211.80
907.17	211.80
907.47	211.86
907.77	211.80
908.08	211.70
908.38	211.76
908.69	211.73
908.99	211.84
909.30	211.86
909.60	211.96
909.90	212.00
910.21	211.88
910.51	211.76
910.81	211.77
911.12	211.76
911.42	211.69
911.73	211.23
912.03	211.26
912.33	211.30
912.64	211.30
912.94	211.26
913.24	211.19
913.55	211.15
913.85	211.13
914.15	211.26
914.46	211.35
914.76	211.32
915.06	211.21
915.37	211.17
915.67	211.17
915.97	211.12
916.27	211.05
916.58	211.08
916.88	211.01
917.18	210.95
917.49	211.22
917.79	211.25
918.09	211.30
918.39	211.42
918.70	211.40
919.00	211.44
919.30	211.61
919.60	211.58
919.91	211.51
920.21	211.50
920.51	211.42
920.81	211.37
921.12	211.35
921.42	211.45
921.72	211.40
922.02	211.38
922.32	211.34
922.63	211.31
922.93	211.49
923.23	211.58
923.53	211.52
923.83	211.25
924.13	211.35
924.44	211.36
924.74	211.33
925.04	211.45
925.34	211.43
925.64	211.26
925.94	211.33
926.24	211.53
926.55	211.50
926.85	211.64
927.15	211.64
927.45	211.67
927.75	211.69
928.05	211.73
928.35	211.75
928.65	211.85
928.95	211.90
929.26	211.74
929.56	211.80
929.86	211.86
930.16	211.80
930.46	211.74
930.76	211.79
931.06	211.69
931.36	211.56
931.66	211.60
931.96	211.70
932.26	211.72
932.56	211.57
932.86	211.64
933.16	211.55
933.46	211.51
933.76	211.49
934.06	211.50
934.36	211.61
934.66	211.65
934.96	211.65
935.26	211.68
935.56	211.73
935.86	211.65
936.16	211.71
936.46	211.75
936.76	211.73
937.06	211.66
937.36	211.64
937.66	211.60
937.96	211.54
938.26	211.35
938.56	211.31
938.86	211.33
939.16	211.35
939.46	211.39
939.76	211.37
940.06	211.35
940.35	211.31
940.65	211.09
940.95	211.08
941.25	210.96
941.55	210.85
941.85	210.80
942.15	210.86
942.45	210.85
942.75	210.88
943.04	210.85
943.34	210.92
943.64	210.90
943.94	210.95
944.24	211.01
944.54	211.08
944.84	211.08
945.13	211.03
945.43	210.96
945.73	210.89
946.03	210.94
946.33	210.90
946.62	210.82
946.92	210.80
947.22	210.78
947.52	210.82
947.82	211.00
948.11	210.98
948.41	210.91
948.71	210.84
949.01	210.86
949.31	210.88
949.60	210.76
949.90	210.88
950.20	210.80
950.50	210.69
950.79	210.67
951.09	210.71
951.39	210.67
951.69	210.66
951.98	210.76
952.28	210.75
952.58	210.75
952.87	210.80
953.17	210.90
953.47	210.86
953.76	210.88
954.06	210.75
954.36	210.64
954.66	210.67
954.95	210.77
955.25	210.76
955.55	210.77
955.84	210.79
956.14	210.73
956.44	210.78
956.73	210.74
957.03	210.75
957.32	210.79
957.62	210.78
957.92	210.82
958.21	210.79
958.51	211.15
958.81	211.21
959.10	211.26
959.40	211.27
959.69	211.29
959.99	211.35
960.29	211.33
960.58	211.44
960.88	211.60
961.17	211.50
961.47	211.55
961.76	211.56
962.06	211.65
962.36	211.66
962.65	211.66
962.95	211.79
963.24	211.73
963.54	211.76
963.83	211.82
964.13	211.88
964.42	211.81
964.72	211.56
965.01	211.58
965.31	211.51
965.60	211.42
965.90	211.66
966.19	211.56
966.49	211.57
966.78	211.50
967.08	211.47
967.37	211.51
967.67	211.42
967.96	211.43
968.26	211.40
968.55	211.43
968.85	211.46
969.14	211.38
969.43	211.39
969.73	211.31
970.02	211.29
970.32	211.24
970.61	211.17
970.91	211.09
971.20	211.04
971.49	210.99
971.79	211.13
972.08	210.86
972.38	210.90
972.67	210.92
972.96	210.95
973.26	210.80
973.55	210.99
973.85	210.93
974.14	210.96
974.43	210.97
974.73	210.88
975.02	210.78
975.31	210.85
975.61	210.94
975.90	210.86
976.19	210.83
976.49	210.82
976.78	210.89
977.07	210.85
977.37	210.85
977.66	210.90
977.95	210.82
978.24	210.85
978.54	210.90
978.83	210.84
979.12	210.78
979.42	210.81
979.71	210.69
980.00	210.70
980.29	210.72
980.59	210.67
980.88	210.82
981.17	210.91
981.46	210.92
981.76	210.87
982.05	211.08
982.34	211.09
982.63	211.06
982.93	211.03
983.22	211.17
983.51	211.20
983.80	211.19
984.09	211.27
984.39	211.23
984.68	211.16
984.97	211.27
985.26	211.32
985.55	211.41
985.85	211.34
986.14	211.40
986.43	211.41
986.72	211.40
987.01	211.22
987.30	211.15
987.59	211.09
987.89	211.13
988.18	210.98
988.47	210.94
988.76	210.97
989.05	210.96
989.34	210.87
989.63	210.97
989.92	211.07
990.22	210.91
990.51	210.98
990.80	211.02
991.09	211.02
991.38	211.05
991.67	210.96
991.96	210.92
992.25	210.98
992.54	210.92
992.83	210.94
993.12	210.97
993.41	211.04
993.70	211.14
993.99	211.15
994.28	211.20
994.58	211.34
994.87	211.32
995.16	211.31
995.45	211.29
995.74	211.19
996.03	211.10
996.32	211.20
996.61	211.28
996.90	211.21
997.19	211.16
997.48	211.16
997.77	211.15
998.06	211.17
998.34	211.13
998.63	211.08
998.92	211.04
999.21	211.13
999.50	211.16
999.79	211.03
1000.08	210.99
1000.37	210.98
1000.66	210.87
1000.95	210.87
1001.24	210.91
1001.53	210.98
1001.82	210.94
1002.11	210.94
1002.40	211.00
1002.68	211.02
1002.97	211.32
1003.26	211.29
1003.55	211.23
1003.84	211.21
1004.13	211.32
1004.42	211.26
1004.71	211.31
1004.99	211.34
1005.28	211.40
1005.57	211.36
1005.86	211.36
1006.15	211.35
1006.44	211.35
1006.72	211.45
1007.01	211.46
1007.30	211.46
1007.59	211.40
1007.88	211.43
1008.17	211.41
1008.45	211.32
1008.74	211.13
1009.03	210.98
1009.32	210.99
1009.60	211.00
1009.89	210.90
1010.18	210.74
1010.47	210.70
1010.76	210.66
1011.04	210.59
1011.33	210.55
1011.62	210.55
1011.91	210.59
1012.19	210.62
1012.48	210.57
1012.77	210.49
1013.05	210.62
1013.34	210.64
1013.63	210.66
1013.92	210.64
1014.20	210.58
1014.49	210.67
1014.78	210.75
1015.06	210.50
1015.35	210.49
1015.64	210.59
1015.92	210.77
1016.21	210.81
1016.50	210.86
1016.78	210.87
1017.07	210.98
1017.36	210.96
1017.64	210.92
1017.93	210.93
1018.22	210.87
1018.50	210.88
1018.79	210.94
1019.08	210.78
1019.36	210.70
1019.65	210.67
1019.93	210.82
1020.22	210.99
1020.51	211.13
1020.79	211.16
1021.08	209.65
1021.36	210.25
1021.65	211.75
1021.94	210.60
1022.22	209.40
1022.51	211.50
1022.79	212.85
1023.08	212.40
1023.36	216.15
1023.65	211.50
>>>>>End Processed Spectral Data<<<<<
