SpectraSuite Data File
++++++++++++++++++++++++++++++++++++
Date: Mon Feb 25 16:59:18 EST 2013
User: group
Dark Spectrum Present: No
Reference Spectrum Present: No
Number of Sampled Component Spectra: 1
Spectrometers: USB2E7196
Integration Time (usec): 104000 (USB2E7196)
Spectra Averaged: 20 (USB2E7196)
Boxcar Smoothing: 10 (USB2E7196)
Correct for Electrical Dark: No (USB2E7196)
Strobe/Lamp Enabled: No (USB2E7196)
Correct for Detector Non-linearity: No (USB2E7196)
Correct for Stray Light: No (USB2E7196)
Number of Pixels in Processed Spectrum: 2048
>>>>>Begin Processed Spectral Data<<<<<
339.09	0.00
339.48	198.35
339.86	198.65
340.24	202.00
340.63	201.95
341.01	208.90
341.39	205.40
341.78	207.80
342.16	209.00
342.54	208.60
342.93	198.11
343.31	208.12
343.69	208.61
344.07	209.12
344.46	209.52
344.84	209.99
345.22	210.09
345.60	210.33
345.99	210.47
346.37	210.55
346.75	210.64
347.13	210.67
347.52	210.78
347.90	210.98
348.28	210.97
348.66	210.97
349.05	210.90
349.43	210.99
349.81	211.02
350.19	211.07
350.57	211.14
350.96	211.15
351.34	211.26
351.72	211.41
352.10	211.53
352.48	211.56
352.87	211.55
353.25	211.56
353.63	211.61
354.01	211.63
354.39	211.65
354.77	211.71
355.15	211.82
355.54	211.88
355.92	211.84
356.30	211.95
356.68	212.28
357.06	212.35
357.44	212.37
357.82	212.42
358.20	212.52
358.58	212.51
358.97	212.69
359.35	212.84
359.73	212.95
360.11	212.99
360.49	213.05
360.87	213.11
361.25	213.29
361.63	213.45
362.01	213.60
362.39	213.68
362.77	213.75
363.15	213.83
363.53	213.76
363.91	213.78
364.29	213.75
364.67	213.40
365.05	213.39
365.43	213.40
365.81	213.51
366.19	213.66
366.57	213.86
366.95	213.88
367.33	213.76
367.71	213.79
368.09	213.85
368.47	213.95
368.85	213.98
369.23	214.00
369.61	213.89
369.99	213.89
370.37	213.92
370.75	214.07
371.13	213.98
371.51	213.96
371.89	213.96
372.27	213.95
372.65	214.04
373.03	214.01
373.41	213.94
373.78	213.85
374.16	213.68
374.54	213.50
374.92	213.30
375.30	213.30
375.68	213.15
376.06	213.11
376.44	212.99
376.82	212.89
377.19	212.81
377.57	212.70
377.95	212.65
378.33	212.62
378.71	212.34
379.09	212.35
379.47	212.36
379.84	212.25
380.22	212.17
380.60	212.01
380.98	211.91
381.36	211.91
381.73	211.85
382.11	211.86
382.49	211.86
382.87	211.87
383.25	211.76
383.62	212.10
384.00	212.00
384.38	211.91
384.76	211.94
385.13	212.01
385.51	212.01
385.89	211.92
386.27	211.88
386.64	211.89
387.02	211.77
387.40	211.72
387.78	211.71
388.15	211.65
388.53	211.60
388.91	211.65
389.29	211.56
389.66	211.57
390.04	211.48
390.42	211.47
390.79	211.46
391.17	211.48
391.55	211.14
391.92	211.08
392.30	211.16
392.68	211.11
393.05	211.06
393.43	211.06
393.81	211.03
394.18	211.02
394.56	211.07
394.94	211.18
395.31	211.17
395.69	211.32
396.06	211.40
396.44	211.51
396.82	211.46
397.19	211.64
397.57	211.62
397.95	211.70
398.32	211.64
398.70	211.71
399.07	211.84
399.45	211.87
399.82	211.92
400.20	211.94
400.58	211.96
400.95	211.89
401.33	212.03
401.70	212.35
402.08	212.44
402.45	212.50
402.83	212.70
403.20	212.75
403.58	212.80
403.95	213.00
404.33	213.10
404.71	213.31
405.08	213.70
405.46	213.93
405.83	214.16
406.21	214.45
406.58	214.73
406.96	214.99
407.33	215.30
407.70	215.68
408.08	216.32
408.45	216.75
408.83	217.22
409.20	217.53
409.58	217.77
409.95	218.30
410.33	218.90
410.70	219.28
411.08	220.06
411.45	220.72
411.82	221.36
412.20	222.24
412.57	223.30
412.95	223.79
413.32	224.72
413.69	225.54
414.07	226.50
414.44	227.58
414.82	228.67
415.19	230.10
415.56	231.55
415.94	232.84
416.31	234.51
416.68	236.20
417.06	238.12
417.43	239.97
417.81	242.00
418.18	244.04
418.55	246.36
418.93	248.68
419.30	251.12
419.67	253.74
420.04	256.46
420.42	259.21
420.79	262.61
421.16	265.95
421.54	269.64
421.91	273.23
422.28	277.00
422.66	281.02
423.03	284.85
423.40	288.86
423.77	293.20
424.15	297.46
424.52	301.96
424.89	306.96
425.26	311.72
425.64	316.28
426.01	321.48
426.38	326.71
426.75	332.03
427.13	337.75
427.50	343.61
427.87	349.71
428.24	355.92
428.61	361.95
428.99	368.51
429.36	375.53
429.73	382.49
430.10	389.41
430.47	396.46
430.85	403.84
431.22	411.73
431.59	420.02
431.96	428.22
432.33	437.22
432.70	445.97
433.08	456.31
433.45	465.98
433.82	475.58
434.19	486.20
434.56	496.80
434.93	506.92
435.30	517.20
435.68	528.56
436.05	539.75
436.42	550.84
436.79	561.13
437.16	572.29
437.53	584.18
437.90	595.95
438.27	607.59
438.64	619.72
439.01	631.03
439.38	641.29
439.75	651.20
440.13	662.28
440.50	672.82
440.87	681.52
441.24	690.63
441.61	700.82
441.98	708.73
442.35	717.78
442.72	726.75
443.09	735.27
443.46	740.65
443.83	744.62
444.20	748.09
444.57	752.98
444.94	755.70
445.31	758.55
445.68	761.30
446.05	762.97
446.42	762.69
446.79	762.12
447.16	761.46
447.53	761.11
447.90	757.88
448.27	754.48
448.64	749.32
449.01	745.86
449.37	738.75
449.74	732.00
450.11	723.85
450.48	714.81
450.85	705.77
451.22	698.06
451.59	690.56
451.96	683.56
452.33	673.80
452.70	665.14
453.07	654.38
453.43	643.36
453.80	632.92
454.17	622.85
454.54	613.39
454.91	603.11
455.28	593.06
455.65	583.72
456.02	574.61
456.38	566.66
456.75	556.66
457.12	548.56
457.49	540.36
457.86	532.21
458.23	525.29
458.59	517.76
458.96	510.13
459.33	503.42
459.70	496.74
460.07	491.35
460.43	484.96
460.80	479.09
461.17	474.08
461.54	468.85
461.91	463.77
462.27	458.51
462.64	454.11
463.01	449.23
463.38	444.42
463.74	439.40
464.11	435.27
464.48	431.63
464.85	427.45
465.21	424.46
465.58	421.14
465.95	417.30
466.32	414.05
466.68	410.86
467.05	407.63
467.42	404.35
467.78	400.90
468.15	397.77
468.52	395.45
468.88	392.38
469.25	389.38
469.62	387.10
469.98	384.64
470.35	382.20
470.72	380.02
471.08	377.66
471.45	375.68
471.82	373.61
472.18	371.51
472.55	370.03
472.92	368.11
473.28	366.53
473.65	364.92
474.02	363.28
474.38	361.91
474.75	360.80
475.11	359.51
475.48	358.56
475.85	357.52
476.21	356.55
476.58	355.80
476.94	355.32
477.31	354.72
477.67	354.09
478.04	353.67
478.41	353.22
478.77	353.18
479.14	352.65
479.50	352.43
479.87	352.20
480.23	352.03
480.60	351.72
480.96	351.58
481.33	351.91
481.69	352.01
482.06	352.19
482.42	352.26
482.79	352.47
483.15	352.93
483.52	353.61
483.88	354.13
484.25	354.53
484.61	355.12
484.98	355.63
485.34	356.51
485.71	357.46
486.07	358.49
486.44	359.19
486.80	360.34
487.17	361.43
487.53	362.95
487.90	364.40
488.26	366.15
488.62	367.90
488.99	369.42
489.35	371.10
489.72	372.81
490.08	374.72
490.44	376.58
490.81	378.43
491.17	380.34
491.54	382.48
491.90	384.63
492.26	386.83
492.63	389.19
492.99	391.50
493.36	394.05
493.72	396.69
494.08	399.43
494.45	402.37
494.81	405.44
495.17	408.39
495.54	411.46
495.90	414.36
496.26	417.48
496.63	420.68
496.99	424.02
497.35	427.51
497.72	430.90
498.08	434.61
498.44	438.12
498.80	442.08
499.17	445.91
499.53	449.70
499.89	453.68
500.26	457.35
500.62	461.16
500.98	464.94
501.34	468.77
501.71	472.64
502.07	476.44
502.43	480.14
502.79	483.90
503.16	487.74
503.52	491.71
503.88	495.50
504.24	499.23
504.60	502.95
504.97	506.68
505.33	510.36
505.69	514.11
506.05	517.98
506.41	521.30
506.78	524.71
507.14	528.08
507.50	531.50
507.86	535.14
508.22	538.64
508.59	541.88
508.95	545.23
509.31	548.45
509.67	551.57
510.03	554.80
510.39	557.79
510.75	560.69
511.12	563.49
511.48	566.19
511.84	568.91
512.20	571.63
512.56	574.29
512.92	577.10
513.28	579.59
513.64	581.95
514.00	584.35
514.37	586.65
514.73	589.02
515.09	591.15
515.45	593.15
515.81	594.95
516.17	596.87
516.53	598.73
516.89	600.48
517.25	602.23
517.61	603.69
517.97	605.26
518.33	606.60
518.69	608.05
519.05	609.49
519.41	610.96
519.77	612.53
520.13	613.79
520.49	614.79
520.85	615.80
521.21	617.02
521.57	618.06
521.93	619.03
522.29	620.25
522.65	621.32
523.01	622.37
523.37	623.39
523.73	624.38
524.09	625.07
524.45	625.90
524.81	626.80
525.17	627.99
525.53	629.00
525.89	630.07
526.25	630.99
526.61	631.82
526.97	632.47
527.33	633.29
527.68	634.40
528.04	635.28
528.40	636.24
528.76	637.07
529.12	638.18
529.48	639.46
529.84	640.23
530.20	641.27
530.56	642.37
530.91	643.69
531.27	645.03
531.63	646.43
531.99	647.76
532.35	648.89
532.71	650.09
533.07	651.63
533.42	653.34
533.78	654.92
534.14	656.67
534.50	658.38
534.86	660.05
535.21	661.58
535.57	663.53
535.93	665.30
536.29	667.21
536.65	669.01
537.00	670.60
537.36	672.47
537.72	674.19
538.08	675.94
538.44	677.76
538.79	679.72
539.15	681.73
539.51	683.89
539.87	686.19
540.22	688.40
540.58	690.54
540.94	692.55
541.29	694.54
541.65	696.25
542.01	698.50
542.37	700.51
542.72	702.73
543.08	704.93
543.44	707.36
543.79	709.30
544.15	711.77
544.51	714.39
544.87	716.95
545.22	719.40
545.58	721.99
545.94	724.23
546.29	726.35
546.65	728.42
547.01	730.36
547.36	732.56
547.72	734.72
548.07	736.93
548.43	738.97
548.79	741.24
549.14	743.77
549.50	746.09
549.86	748.30
550.21	750.49
550.57	752.78
550.92	754.88
551.28	757.45
551.64	759.54
551.99	761.68
552.35	763.76
552.70	765.88
553.06	767.97
553.41	770.25
553.77	772.88
554.13	775.23
554.48	777.87
554.84	780.50
555.19	782.92
555.55	785.35
555.90	787.74
556.26	789.93
556.61	791.99
556.97	793.85
557.32	795.87
557.68	797.73
558.03	799.71
558.39	801.41
558.74	803.35
559.10	805.31
559.45	807.14
559.81	809.42
560.16	811.35
560.52	813.26
560.87	815.23
561.23	816.70
561.58	818.90
561.94	820.34
562.29	821.74
562.64	823.39
563.00	824.91
563.35	826.65
563.71	828.78
564.06	830.61
564.42	832.61
564.77	834.65
565.12	836.69
565.48	838.65
565.83	840.62
566.19	842.50
566.54	844.07
566.89	845.79
567.25	847.41
567.60	849.17
567.96	850.98
568.31	852.60
568.66	854.14
569.02	855.25
569.37	856.40
569.72	857.58
570.08	858.58
570.43	859.71
570.78	860.60
571.14	861.07
571.49	861.88
571.84	862.45
572.20	862.96
572.55	863.62
572.90	863.71
573.26	863.96
573.61	864.20
573.96	864.27
574.31	864.25
574.67	864.00
575.02	863.64
575.37	863.22
575.72	862.45
576.08	862.23
576.43	861.82
576.78	861.73
577.13	861.42
577.49	861.17
577.84	860.45
578.19	860.02
578.54	860.00
578.90	859.74
579.25	859.31
579.60	858.56
579.95	857.62
580.30	857.06
580.66	856.53
581.01	855.33
581.36	854.40
581.71	853.55
582.06	852.73
582.42	851.95
582.77	850.87
583.12	849.99
583.47	849.03
583.82	847.99
584.17	846.81
584.53	845.95
584.88	844.58
585.23	843.67
585.58	842.33
585.93	840.85
586.28	839.49
586.63	838.00
586.98	836.95
587.34	835.96
587.69	834.54
588.04	833.04
588.39	832.20
588.74	830.82
589.09	829.58
589.44	827.89
589.79	826.56
590.14	825.33
590.49	824.10
590.84	822.47
591.19	821.17
591.54	819.99
591.89	817.98
592.25	817.00
592.60	815.20
592.95	813.50
593.30	811.50
593.65	809.55
594.00	807.92
594.35	806.96
594.70	804.95
595.05	803.33
595.40	801.55
595.75	799.34
596.10	797.88
596.45	796.00
596.80	794.46
597.15	792.65
597.50	790.58
597.85	788.79
598.19	786.88
598.54	785.00
598.89	783.08
599.24	781.56
599.59	779.40
599.94	777.55
600.29	775.76
600.64	773.88
600.99	772.09
601.34	770.29
601.69	767.48
602.04	765.17
602.39	762.99
602.74	760.95
603.08	759.22
603.43	757.33
603.78	755.24
604.13	753.08
604.48	750.95
604.83	749.31
605.18	747.64
605.53	745.39
605.87	743.16
606.22	741.04
606.57	738.69
606.92	736.34
607.27	734.12
607.62	732.05
607.96	729.97
608.31	727.94
608.66	725.45
609.01	723.06
609.36	721.11
609.70	718.73
610.05	716.36
610.40	713.86
610.75	711.24
611.10	709.04
611.44	706.50
611.79	704.00
612.14	701.27
612.49	698.31
612.83	695.98
613.18	693.41
613.53	690.78
613.88	688.20
614.22	685.58
614.57	683.05
614.92	680.20
615.27	677.70
615.61	675.01
615.96	672.82
616.31	670.45
616.65	668.03
617.00	665.59
617.35	663.20
617.70	660.55
618.04	657.78
618.39	654.95
618.74	652.48
619.08	649.91
619.43	647.46
619.78	645.15
620.12	642.77
620.47	640.28
620.82	637.51
621.16	634.71
621.51	632.32
621.85	629.77
622.20	627.36
622.55	624.63
622.89	621.95
623.24	619.26
623.59	616.46
623.93	613.79
624.28	611.35
624.62	609.07
624.97	606.55
625.32	604.23
625.66	601.90
626.01	599.36
626.35	597.02
626.70	594.44
627.04	591.92
627.39	589.47
627.73	587.19
628.08	585.15
628.43	582.93
628.77	580.44
629.12	577.90
629.46	575.62
629.81	573.39
630.15	570.88
630.50	568.33
630.84	565.99
631.19	563.55
631.53	561.09
631.88	558.33
632.22	555.92
632.57	553.72
632.91	551.35
633.26	549.21
633.60	546.56
633.95	544.41
634.29	542.00
634.64	539.78
634.98	537.20
635.32	534.93
635.67	532.78
636.01	530.63
636.36	528.51
636.70	526.46
637.05	524.31
637.39	522.31
637.73	520.38
638.08	518.61
638.42	516.79
638.77	514.76
639.11	512.90
639.45	511.04
639.80	508.80
640.14	506.57
640.49	504.29
640.83	502.38
641.17	500.15
641.52	498.13
641.86	495.75
642.20	494.01
642.55	491.53
642.89	489.45
643.23	487.44
643.58	485.60
643.92	483.28
644.26	481.15
644.61	479.18
644.95	477.06
645.29	474.73
645.64	472.50
645.98	470.44
646.32	468.41
646.66	466.22
647.01	464.24
647.35	462.29
647.69	460.35
648.04	458.46
648.38	456.52
648.72	454.54
649.06	452.66
649.41	450.47
649.75	448.60
650.09	446.81
650.43	444.84
650.78	442.62
651.12	440.72
651.46	438.75
651.80	436.87
652.14	435.03
652.49	433.26
652.83	431.37
653.17	429.41
653.51	427.41
653.85	425.72
654.20	423.90
654.54	422.13
654.88	420.21
655.22	418.40
655.56	416.37
655.90	414.51
656.25	412.70
656.59	410.86
656.93	409.21
657.27	407.32
657.61	405.46
657.95	403.84
658.29	402.10
658.64	400.54
658.98	398.59
659.32	396.70
659.66	394.79
660.00	393.10
660.34	391.35
660.68	389.65
661.02	387.89
661.36	386.05
661.70	384.37
662.05	382.88
662.39	381.30
662.73	379.95
663.07	378.56
663.41	377.07
663.75	375.57
664.09	374.04
664.43	372.38
664.77	370.89
665.11	369.32
665.45	367.84
665.79	366.44
666.13	365.16
666.47	363.84
666.81	362.63
667.15	361.10
667.49	359.82
667.83	358.59
668.17	357.10
668.51	355.99
668.85	354.73
669.19	353.55
669.53	352.17
669.87	350.77
670.21	349.46
670.55	348.28
670.89	347.20
671.23	346.02
671.57	344.94
671.91	343.80
672.25	342.70
672.58	341.69
672.92	340.35
673.26	339.22
673.60	338.06
673.94	336.86
674.28	335.88
674.62	334.89
674.96	333.80
675.30	332.79
675.64	331.57
675.97	330.51
676.31	329.33
676.65	328.24
676.99	327.37
677.33	326.21
677.67	325.06
678.01	323.82
678.34	322.76
678.68	321.77
679.02	320.60
679.36	319.56
679.70	318.46
680.04	317.51
680.37	316.50
680.71	315.58
681.05	314.61
681.39	313.56
681.73	312.57
682.06	311.56
682.40	310.59
682.74	309.87
683.08	308.97
683.42	308.04
683.75	307.13
684.09	306.02
684.43	305.10
684.77	304.04
685.10	303.14
685.44	302.16
685.78	301.24
686.12	300.45
686.45	299.52
686.79	298.61
687.13	297.75
687.46	296.92
687.80	296.15
688.14	295.24
688.48	294.49
688.81	293.62
689.15	292.89
689.49	292.04
689.82	291.15
690.16	290.26
690.50	289.37
690.83	288.56
691.17	287.75
691.51	286.94
691.84	286.26
692.18	285.54
692.52	284.84
692.85	284.18
693.19	283.50
693.52	282.69
693.86	281.91
694.20	281.18
694.53	280.36
694.87	279.53
695.21	278.89
695.54	278.19
695.88	277.45
696.21	276.65
696.55	276.04
696.88	275.28
697.22	274.65
697.56	274.12
697.89	273.39
698.23	272.89
698.56	272.23
698.90	271.71
699.23	271.06
699.57	270.42
699.90	269.65
700.24	268.95
700.58	268.36
700.91	267.85
701.25	267.54
701.58	267.11
701.92	266.60
702.25	265.95
702.59	265.27
702.92	264.74
703.26	264.17
703.59	263.65
703.93	263.43
704.26	262.78
704.60	262.18
704.93	261.76
705.26	261.07
705.60	260.66
705.93	260.04
706.27	259.51
706.60	259.19
706.94	258.89
707.27	258.40
707.61	257.91
707.94	257.43
708.27	256.64
708.61	255.97
708.94	255.53
709.28	255.09
709.61	254.66
709.94	254.15
710.28	253.72
710.61	253.29
710.95	252.46
711.28	252.27
711.61	251.87
711.95	251.44
712.28	251.07
712.61	250.62
712.95	250.44
713.28	250.23
713.61	249.76
713.95	249.25
714.28	248.87
714.61	248.58
714.95	248.14
715.28	247.72
715.61	247.45
715.95	247.04
716.28	246.66
716.61	246.32
716.95	245.90
717.28	245.51
717.61	245.13
717.94	244.82
718.28	244.35
718.61	243.99
718.94	243.69
719.27	243.43
719.61	243.16
719.94	242.71
720.27	242.24
720.60	241.79
720.94	241.43
721.27	241.09
721.60	240.73
721.93	240.38
722.27	240.26
722.60	240.05
722.93	239.77
723.26	239.52
723.59	239.21
723.93	239.04
724.26	238.86
724.59	238.55
724.92	238.31
725.25	238.04
725.59	237.76
725.92	237.47
726.25	237.16
726.58	236.84
726.91	236.51
727.24	236.37
727.57	236.16
727.91	235.91
728.24	235.73
728.57	235.44
728.90	235.30
729.23	234.93
729.56	234.71
729.89	234.38
730.22	234.08
730.55	233.69
730.89	233.50
731.22	233.23
731.55	233.08
731.88	232.89
732.21	232.60
732.54	232.42
732.87	232.20
733.20	231.99
733.53	231.78
733.86	231.67
734.19	231.41
734.52	231.32
734.85	231.35
735.18	231.06
735.51	231.02
735.84	230.81
736.17	230.71
736.50	230.36
736.83	230.66
737.16	230.48
737.49	230.45
737.82	230.19
738.15	230.00
738.48	229.74
738.81	229.48
739.14	229.26
739.47	228.98
739.80	228.78
740.13	228.68
740.46	228.48
740.79	228.27
741.12	228.08
741.45	227.75
741.78	227.40
742.11	227.42
742.44	227.16
742.77	227.04
743.10	226.82
743.43	226.67
743.75	226.04
744.08	226.32
744.41	226.13
744.74	225.94
745.07	225.71
745.40	225.63
745.73	225.67
746.06	225.53
746.39	225.51
746.71	225.35
747.04	225.13
747.37	225.02
747.70	224.85
748.03	224.70
748.36	224.65
748.68	224.54
749.01	224.29
749.34	224.09
749.67	223.92
750.00	223.85
750.33	223.97
750.65	223.99
750.98	223.48
751.31	223.35
751.64	223.33
751.97	223.34
752.29	223.20
752.62	222.85
752.95	222.75
753.28	222.56
753.60	222.51
753.93	222.50
754.26	222.36
754.59	222.13
754.91	221.95
755.24	221.88
755.57	221.72
755.90	221.60
756.22	221.50
756.55	221.38
756.88	221.16
757.20	220.86
757.53	220.62
757.86	220.45
758.19	220.36
758.51	220.24
758.84	220.04
759.17	219.91
759.49	219.84
759.82	219.91
760.15	219.82
760.47	219.67
760.80	219.47
761.13	219.44
761.45	219.37
761.78	219.36
762.11	219.22
762.43	219.14
762.76	219.08
763.08	219.13
763.41	219.09
763.74	219.03
764.06	218.90
764.39	218.79
764.71	218.75
765.04	218.66
765.37	218.53
765.69	218.40
766.02	218.34
766.34	218.35
766.67	218.13
767.00	218.13
767.32	218.25
767.65	218.38
767.97	218.23
768.30	218.25
768.62	218.14
768.95	218.07
769.27	217.99
769.60	217.93
769.92	217.77
770.25	217.56
770.57	217.49
770.90	217.44
771.22	217.40
771.55	217.40
771.87	217.37
772.20	217.26
772.52	217.47
772.85	217.72
773.17	217.61
773.50	217.55
773.82	217.44
774.15	217.15
774.47	216.89
774.80	216.81
775.12	216.73
775.45	216.63
775.77	216.64
776.09	216.60
776.42	216.54
776.74	216.55
777.07	216.53
777.39	216.51
777.72	216.42
778.04	216.39
778.36	216.33
778.69	216.16
779.01	216.19
779.33	215.84
779.66	215.50
779.98	215.39
780.31	215.34
780.63	215.45
780.95	215.50
781.28	215.40
781.60	215.30
781.92	215.26
782.25	215.21
782.57	215.11
782.89	215.04
783.22	214.99
783.54	214.87
783.86	214.86
784.19	214.70
784.51	214.79
784.83	214.75
785.16	214.62
785.48	214.68
785.80	214.61
786.12	214.61
786.45	214.47
786.77	214.50
787.09	214.47
787.42	214.35
787.74	214.29
788.06	214.30
788.38	214.29
788.71	214.17
789.03	214.18
789.35	214.24
789.67	214.18
789.99	214.09
790.32	214.06
790.64	214.05
790.96	214.35
791.28	214.17
791.61	214.06
791.93	214.11
792.25	214.03
792.57	214.29
792.89	214.18
793.21	214.25
793.54	214.17
793.86	214.14
794.18	214.08
794.50	213.98
794.82	213.93
795.14	213.95
795.47	214.03
795.79	214.01
796.11	213.84
796.43	213.75
796.75	213.82
797.07	213.80
797.39	213.82
797.71	213.58
798.04	213.60
798.36	213.53
798.68	213.51
799.00	213.55
799.32	213.34
799.64	213.51
799.96	213.49
800.28	213.59
800.60	213.62
800.92	213.66
801.24	213.72
801.56	213.72
801.89	213.75
802.21	213.70
802.53	213.63
802.85	213.74
803.17	213.95
803.49	213.80
803.81	213.76
804.13	213.68
804.45	213.61
804.77	213.62
805.09	213.71
805.41	213.68
805.73	213.61
806.05	213.47
806.37	213.35
806.69	213.39
807.01	213.36
807.33	213.31
807.65	213.15
807.97	213.23
808.28	213.21
808.60	213.20
808.92	213.20
809.24	213.41
809.56	213.32
809.88	213.22
810.20	213.27
810.52	213.31
810.84	213.26
811.16	213.22
811.48	213.16
811.80	213.32
812.12	213.19
812.43	213.25
812.75	213.31
813.07	213.27
813.39	213.24
813.71	213.12
814.03	213.01
814.35	213.01
814.67	212.87
814.98	212.83
815.30	212.82
815.62	212.73
815.94	212.49
816.26	212.48
816.58	212.40
816.89	212.39
817.21	212.27
817.53	212.28
817.85	212.29
818.17	212.30
818.48	212.08
818.80	212.18
819.12	212.09
819.44	212.02
819.76	211.99
820.07	211.91
820.39	211.96
820.71	212.01
821.03	211.96
821.34	211.95
821.66	211.92
821.98	211.97
822.30	212.03
822.61	212.20
822.93	212.15
823.25	212.07
823.57	212.04
823.88	212.16
824.20	212.15
824.52	212.32
824.83	212.31
825.15	212.26
825.47	212.24
825.79	212.25
826.10	212.20
826.42	212.19
826.74	212.24
827.05	212.14
827.37	212.14
827.69	212.12
828.00	212.15
828.32	212.20
828.64	212.13
828.95	212.24
829.27	212.11
829.58	212.11
829.90	212.19
830.22	212.18
830.53	212.06
830.85	212.04
831.17	211.82
831.48	211.85
831.80	211.84
832.11	211.80
832.43	211.71
832.75	211.77
833.06	211.95
833.38	211.85
833.69	211.93
834.01	211.95
834.32	211.95
834.64	211.99
834.96	211.95
835.27	211.93
835.59	211.81
835.90	211.80
836.22	211.78
836.53	211.77
836.85	211.80
837.16	212.11
837.48	212.11
837.79	212.28
838.11	212.28
838.42	212.30
838.74	212.42
839.05	212.44
839.37	212.40
839.68	212.17
840.00	212.19
840.31	212.18
840.63	212.13
840.94	212.09
841.26	211.95
841.57	211.93
841.88	211.92
842.20	211.90
842.51	211.88
842.83	211.90
843.14	212.19
843.46	212.21
843.77	212.08
844.08	212.06
844.40	211.89
844.71	211.83
845.03	211.88
845.34	211.78
845.65	211.77
845.97	211.75
846.28	211.80
846.60	211.76
846.91	211.65
847.22	211.69
847.54	211.75
847.85	211.83
848.16	211.82
848.48	211.74
848.79	211.86
849.10	211.89
849.42	211.85
849.73	211.49
850.04	211.40
850.36	211.25
850.67	211.22
850.98	211.21
851.30	211.23
851.61	211.18
851.92	211.17
852.23	211.25
852.55	211.23
852.86	211.18
853.17	211.20
853.49	211.30
853.80	211.33
854.11	211.38
854.42	211.34
854.74	211.33
855.05	211.37
855.36	211.14
855.67	211.08
855.99	211.12
856.30	211.55
856.61	211.58
856.92	211.59
857.23	211.66
857.55	211.63
857.86	211.55
858.17	211.57
858.48	211.52
858.79	211.52
859.11	211.57
859.42	211.58
859.73	211.55
860.04	211.56
860.35	211.46
860.66	211.40
860.98	211.43
861.29	211.42
861.60	211.43
861.91	211.54
862.22	211.53
862.53	211.46
862.84	211.05
863.16	211.15
863.47	211.05
863.78	211.00
864.09	211.05
864.40	211.14
864.71	211.14
865.02	211.28
865.33	211.17
865.64	211.16
865.95	211.15
866.27	211.37
866.58	211.30
866.89	211.37
867.20	211.30
867.51	211.22
867.82	211.23
868.13	211.33
868.44	211.33
868.75	211.42
869.06	211.48
869.37	211.51
869.68	211.39
869.99	211.49
870.30	211.56
870.61	211.69
870.92	211.58
871.23	211.53
871.54	211.49
871.85	211.56
872.16	211.56
872.47	211.57
872.78	211.35
873.09	211.41
873.40	211.39
873.71	211.46
874.02	211.44
874.33	211.41
874.64	211.26
874.95	211.24
875.26	211.20
875.56	211.20
875.87	211.22
876.18	211.26
876.49	211.54
876.80	211.56
877.11	211.40
877.42	211.48
877.73	211.51
878.04	211.47
878.35	211.47
878.66	211.51
878.96	211.54
879.27	211.47
879.58	211.44
879.89	211.46
880.20	211.56
880.51	211.62
880.82	211.59
881.12	211.66
881.43	211.60
881.74	211.58
882.05	211.55
882.36	211.55
882.67	211.60
882.97	211.24
883.28	211.14
883.59	211.13
883.90	211.07
884.21	211.20
884.51	211.17
884.82	211.15
885.13	211.13
885.44	211.13
885.74	211.24
886.05	211.25
886.36	211.19
886.67	211.01
886.98	211.19
887.28	211.32
887.59	211.26
887.90	211.29
888.20	211.24
888.51	211.23
888.82	211.13
889.13	211.12
889.43	211.44
889.74	211.40
890.05	211.42
890.35	211.46
890.66	211.32
890.97	211.30
891.28	211.25
891.58	211.27
891.89	211.25
892.20	211.17
892.50	211.11
892.81	211.09
893.12	211.11
893.42	210.91
893.73	210.90
894.04	210.90
894.34	210.95
894.65	210.89
894.95	210.83
895.26	210.92
895.57	211.04
895.87	210.71
896.18	210.84
896.48	210.87
896.79	210.86
897.10	210.91
897.40	210.93
897.71	211.02
898.01	210.99
898.32	211.04
898.63	211.05
898.93	211.04
899.24	211.01
899.54	210.97
899.85	210.95
900.15	210.91
900.46	210.94
900.76	210.90
901.07	210.92
901.38	210.94
901.68	210.90
901.99	210.72
902.29	210.68
902.60	210.56
902.90	210.51
903.21	210.52
903.51	210.55
903.82	210.63
904.12	210.59
904.43	210.62
904.73	210.63
905.03	210.69
905.34	211.04
905.64	211.07
905.95	211.11
906.25	211.13
906.56	211.08
906.86	211.07
907.17	211.09
907.47	211.22
907.77	211.26
908.08	211.20
908.38	211.18
908.69	211.18
908.99	211.28
909.30	211.35
909.60	211.33
909.90	211.30
910.21	211.22
910.51	211.20
910.81	211.15
911.12	211.15
911.42	211.13
911.73	210.81
912.03	210.87
912.33	210.90
912.64	210.96
912.94	211.00
913.24	210.96
913.55	210.92
913.85	210.86
914.15	210.87
914.46	210.90
914.76	210.90
915.06	210.98
915.37	210.88
915.67	210.83
915.97	210.85
916.27	210.80
916.58	210.82
916.88	210.75
917.18	210.78
917.49	210.96
917.79	210.92
918.09	211.01
918.39	211.01
918.70	211.01
919.00	210.96
919.30	211.04
919.60	211.09
919.91	211.11
920.21	211.05
920.51	210.99
920.81	211.01
921.12	211.09
921.42	211.06
921.72	211.16
922.02	211.21
922.32	211.20
922.63	211.20
922.93	211.32
923.23	211.41
923.53	211.35
923.83	211.14
924.13	211.19
924.44	211.10
924.74	211.14
925.04	211.26
925.34	211.28
925.64	211.19
925.94	211.13
926.24	211.29
926.55	211.23
926.85	211.26
927.15	211.27
927.45	211.28
927.75	211.22
928.05	211.17
928.35	211.08
928.65	211.16
928.95	211.15
929.26	210.96
929.56	210.93
929.86	211.02
930.16	211.05
930.46	211.01
930.76	211.06
931.06	210.97
931.36	210.89
931.66	210.92
931.96	211.01
932.26	210.99
932.56	210.84
932.86	210.94
933.16	211.04
933.46	211.01
933.76	210.92
934.06	210.96
934.36	211.11
934.66	211.15
934.96	211.04
935.26	211.12
935.56	211.21
935.86	211.17
936.16	211.12
936.46	211.09
936.76	211.11
937.06	211.08
937.36	211.12
937.66	211.10
937.96	211.01
938.26	210.96
938.56	210.99
938.86	211.02
939.16	211.13
939.46	211.07
939.76	211.10
940.06	211.13
940.35	211.07
940.65	210.92
940.95	210.87
941.25	210.89
941.55	210.85
941.85	210.83
942.15	210.94
942.45	211.09
942.75	211.07
943.04	211.05
943.34	211.14
943.64	211.09
943.94	210.98
944.24	211.08
944.54	211.04
944.84	210.93
945.13	210.92
945.43	210.82
945.73	210.78
946.03	210.69
946.33	210.65
946.62	210.76
946.92	210.73
947.22	210.75
947.52	210.76
947.82	210.80
948.11	210.75
948.41	210.62
948.71	210.51
949.01	210.48
949.31	210.49
949.60	210.35
949.90	210.39
950.20	210.41
950.50	210.34
950.79	210.31
951.09	210.50
951.39	210.43
951.69	210.43
951.98	210.54
952.28	210.56
952.58	210.53
952.87	210.50
953.17	210.57
953.47	210.54
953.76	210.50
954.06	210.47
954.36	210.44
954.66	210.49
954.95	210.52
955.25	210.57
955.55	210.55
955.84	210.58
956.14	210.58
956.44	210.60
956.73	210.60
957.03	210.67
957.32	210.60
957.62	210.61
957.92	210.68
958.21	210.58
958.51	211.01
958.81	211.18
959.10	211.22
959.40	211.27
959.69	211.40
959.99	211.53
960.29	211.46
960.58	211.45
960.88	211.59
961.17	211.51
961.47	211.58
961.76	211.57
962.06	211.60
962.36	211.63
962.65	211.62
962.95	211.58
963.24	211.49
963.54	211.55
963.83	211.61
964.13	211.58
964.42	211.57
964.72	211.24
965.01	211.16
965.31	211.05
965.60	210.93
965.90	211.10
966.19	210.99
966.49	211.06
966.78	211.09
967.08	211.02
967.37	211.12
967.67	211.00
967.96	211.05
968.26	211.03
968.55	211.03
968.85	211.08
969.14	211.09
969.43	211.11
969.73	211.07
970.02	210.97
970.32	210.90
970.61	210.90
970.91	210.83
971.20	210.82
971.49	210.90
971.79	211.05
972.08	210.78
972.38	210.80
972.67	210.78
972.96	210.83
973.26	210.83
973.55	210.84
973.85	210.90
974.14	210.93
974.43	210.98
974.73	210.95
975.02	210.91
975.31	210.93
975.61	210.99
975.90	210.94
976.19	210.95
976.49	211.02
976.78	211.04
977.07	211.04
977.37	211.03
977.66	210.96
977.95	210.87
978.24	210.97
978.54	211.06
978.83	211.03
979.12	210.91
979.42	210.90
979.71	210.87
980.00	210.84
980.29	210.77
980.59	210.73
980.88	210.81
981.17	210.82
981.46	210.84
981.76	210.75
982.05	210.92
982.34	210.97
982.63	210.97
982.93	210.90
983.22	211.04
983.51	211.12
983.80	211.17
984.09	211.19
984.39	211.13
984.68	211.04
984.97	211.05
985.26	211.12
985.55	211.11
985.85	210.98
986.14	211.03
986.43	211.07
986.72	210.98
987.01	210.85
987.30	210.84
987.59	210.80
987.89	210.85
988.18	210.74
988.47	210.65
988.76	210.58
989.05	210.60
989.34	210.50
989.63	210.51
989.92	210.46
990.22	210.39
990.51	210.37
990.80	210.31
991.09	210.40
991.38	210.40
991.67	210.40
991.96	210.44
992.25	210.37
992.54	210.32
992.83	210.34
993.12	210.33
993.41	210.35
993.70	210.55
993.99	210.64
994.28	210.62
994.58	210.75
994.87	210.77
995.16	210.85
995.45	210.82
995.74	210.72
996.03	210.79
996.32	210.85
996.61	210.84
996.90	210.87
997.19	210.81
997.48	210.81
997.77	210.82
998.06	210.86
998.34	210.94
998.63	210.98
998.92	211.04
999.21	211.08
999.50	211.10
999.79	211.00
1000.08	210.97
1000.37	211.02
1000.66	210.89
1000.95	210.98
1001.24	211.01
1001.53	211.08
1001.82	211.08
1002.11	211.05
1002.40	211.10
1002.68	211.30
1002.97	211.55
1003.26	211.53
1003.55	211.51
1003.84	211.46
1004.13	211.54
1004.42	211.53
1004.71	211.51
1004.99	211.43
1005.28	211.56
1005.57	211.54
1005.86	211.44
1006.15	211.32
1006.44	211.23
1006.72	211.36
1007.01	211.29
1007.30	211.18
1007.59	211.11
1007.88	211.05
1008.17	211.01
1008.45	210.95
1008.74	210.78
1009.03	210.64
1009.32	210.65
1009.60	210.64
1009.89	210.61
1010.18	210.53
1010.47	210.52
1010.76	210.50
1011.04	210.57
1011.33	210.57
1011.62	210.60
1011.91	210.61
1012.19	210.63
1012.48	210.69
1012.77	210.63
1013.05	210.77
1013.34	210.81
1013.63	210.84
1013.92	210.95
1014.20	210.96
1014.49	210.96
1014.78	210.97
1015.06	210.81
1015.35	210.78
1015.64	210.83
1015.92	210.96
1016.21	210.98
1016.50	210.89
1016.78	210.90
1017.07	210.85
1017.36	210.75
1017.64	210.68
1017.93	210.80
1018.22	210.81
1018.50	210.77
1018.79	210.78
1019.08	210.60
1019.36	210.64
1019.65	210.60
1019.93	210.66
1020.22	210.73
1020.51	210.84
1020.79	210.81
1021.08	209.95
1021.36	209.70
1021.65	210.80
1021.94	210.05
1022.22	211.60
1022.51	210.35
1022.79	212.55
1023.08	211.20
1023.36	213.70
1023.65	209.95
>>>>>End Processed Spectral Data<<<<<
