SpectraSuite Data File
++++++++++++++++++++++++++++++++++++
Date: Mon Feb 25 17:05:15 EST 2013
User: group
Dark Spectrum Present: No
Reference Spectrum Present: No
Number of Sampled Component Spectra: 1
Spectrometers: USB2E7196
Integration Time (usec): 104000 (USB2E7196)
Spectra Averaged: 20 (USB2E7196)
Boxcar Smoothing: 10 (USB2E7196)
Correct for Electrical Dark: No (USB2E7196)
Strobe/Lamp Enabled: No (USB2E7196)
Correct for Detector Non-linearity: No (USB2E7196)
Correct for Stray Light: No (USB2E7196)
Number of Pixels in Processed Spectrum: 2048
>>>>>Begin Processed Spectral Data<<<<<
339.09	0.00
339.48	199.50
339.86	200.65
340.24	201.80
340.63	203.10
341.01	210.40
341.39	207.35
341.78	208.25
342.16	208.50
342.54	208.95
342.93	198.53
343.31	208.56
343.69	209.00
344.07	209.46
344.46	209.90
344.84	210.27
345.22	210.22
345.60	210.31
345.99	210.43
346.37	210.48
346.75	210.56
347.13	210.58
347.52	210.56
347.90	210.62
348.28	210.53
348.66	210.55
349.05	210.39
349.43	210.47
349.81	210.42
350.19	210.39
350.57	210.41
350.96	210.38
351.34	210.38
351.72	210.43
352.10	210.46
352.48	210.43
352.87	210.38
353.25	210.43
353.63	210.48
354.01	210.48
354.39	210.61
354.77	210.65
355.15	210.79
355.54	210.80
355.92	210.73
356.30	210.88
356.68	211.14
357.06	211.21
357.44	211.18
357.82	211.29
358.20	211.43
358.58	211.52
358.97	211.66
359.35	211.77
359.73	211.94
360.11	211.95
360.49	212.07
360.87	212.12
361.25	212.24
361.63	212.39
362.01	212.49
362.39	212.50
362.77	212.50
363.15	212.60
363.53	212.70
363.91	212.74
364.29	212.75
364.67	212.43
365.05	212.47
365.43	212.61
365.81	212.68
366.19	212.86
366.57	213.01
366.95	213.08
367.33	213.03
367.71	213.03
368.09	213.17
368.47	213.13
368.85	213.18
369.23	213.26
369.61	213.16
369.99	213.33
370.37	213.44
370.75	213.70
371.13	213.58
371.51	213.56
371.89	213.58
372.27	213.57
372.65	213.62
373.03	213.63
373.41	213.57
373.78	213.55
374.16	213.37
374.54	213.16
374.92	213.04
375.30	213.10
375.68	213.01
376.06	212.92
376.44	212.78
376.82	212.73
377.19	212.69
377.57	212.61
377.95	212.38
378.33	212.18
378.71	211.94
379.09	211.93
379.47	211.92
379.84	211.86
380.22	211.80
380.60	211.74
380.98	211.69
381.36	211.62
381.73	211.55
382.11	211.59
382.49	211.62
382.87	211.60
383.25	211.49
383.62	211.87
384.00	211.71
384.38	211.78
384.76	211.79
385.13	211.84
385.51	211.87
385.89	211.82
386.27	211.83
386.64	211.81
387.02	211.78
387.40	211.70
387.78	211.64
388.15	211.64
388.53	211.50
388.91	211.39
389.29	211.29
389.66	211.29
390.04	211.16
390.42	211.13
390.79	211.11
391.17	211.11
391.55	210.72
391.92	210.81
392.30	210.82
392.68	210.73
393.05	210.65
393.43	210.69
393.81	210.61
394.18	210.55
394.56	210.47
394.94	210.49
395.31	210.40
395.69	210.49
396.06	210.49
396.44	210.57
396.82	210.57
397.19	210.78
397.57	210.67
397.95	210.72
398.32	210.65
398.70	210.69
399.07	210.74
399.45	210.67
399.82	210.58
400.20	210.56
400.58	210.61
400.95	210.49
401.33	210.48
401.70	210.83
402.08	210.84
402.45	210.90
402.83	211.01
403.20	211.17
403.58	211.17
403.95	211.26
404.33	211.44
404.71	211.56
405.08	211.75
405.46	211.87
405.83	211.96
406.21	212.06
406.58	212.13
406.96	212.26
407.33	212.50
407.70	212.75
408.08	213.23
408.45	213.50
408.83	213.76
409.20	213.99
409.58	213.95
409.95	214.29
410.33	214.55
410.70	214.72
411.08	215.01
411.45	215.43
411.82	215.73
412.20	216.08
412.57	216.68
412.95	216.82
413.32	217.35
413.69	217.81
414.07	218.39
414.44	218.94
414.82	219.50
415.19	220.17
415.56	220.76
415.94	221.24
416.31	222.10
416.68	222.96
417.06	223.87
417.43	224.91
417.81	225.96
418.18	227.10
418.55	228.18
418.93	229.34
419.30	230.54
419.67	231.86
420.04	233.28
420.42	234.63
420.79	236.52
421.16	238.13
421.54	239.97
421.91	241.70
422.28	243.51
422.66	245.52
423.03	247.61
423.40	249.67
423.77	251.80
424.15	253.84
424.52	256.10
424.89	258.59
425.26	260.89
425.64	263.15
426.01	265.63
426.38	268.35
426.75	271.07
427.13	273.83
427.50	276.70
427.87	279.65
428.24	282.64
428.61	285.29
428.99	288.53
429.36	291.89
429.73	295.29
430.10	298.73
430.47	302.25
430.85	305.71
431.22	309.54
431.59	313.84
431.96	317.70
432.33	322.00
432.70	326.22
433.08	331.12
433.45	335.78
433.82	340.34
434.19	345.61
434.56	350.71
434.93	355.54
435.30	360.41
435.68	365.78
436.05	371.19
436.42	376.50
436.79	381.46
437.16	386.67
437.53	392.35
437.90	398.00
438.27	403.50
438.64	409.22
439.01	414.68
439.38	419.26
439.75	424.05
440.13	429.36
440.50	434.32
440.87	438.50
441.24	442.79
441.61	447.69
441.98	451.06
442.35	455.10
442.72	459.24
443.09	463.40
443.46	465.97
443.83	467.70
444.20	469.42
444.57	471.53
444.94	472.78
445.31	473.99
445.68	475.52
446.05	476.24
446.42	475.99
446.79	475.62
447.16	475.13
447.53	474.88
447.90	473.09
448.27	471.35
448.64	468.81
449.01	466.98
449.37	463.61
449.74	460.27
450.11	456.61
450.48	452.32
450.85	447.62
451.22	443.83
451.59	440.33
451.96	436.85
452.33	432.09
452.70	427.89
453.07	422.69
453.43	417.06
453.80	411.91
454.17	407.05
454.54	402.36
454.91	397.48
455.28	392.62
455.65	388.15
456.02	384.02
456.38	380.09
456.75	375.34
457.12	371.14
457.49	367.30
457.86	363.13
458.23	359.87
458.59	356.32
458.96	352.65
459.33	349.31
459.70	346.00
460.07	343.55
460.43	340.57
460.80	337.86
461.17	335.38
461.54	332.80
461.91	330.37
462.27	327.88
462.64	325.80
463.01	323.39
463.38	321.22
463.74	318.47
464.11	316.50
464.48	314.82
464.85	312.93
465.21	311.46
465.58	309.99
465.95	308.05
466.32	306.52
466.68	304.90
467.05	303.29
467.42	301.74
467.78	299.98
468.15	298.45
468.52	297.33
468.88	295.80
469.25	294.44
469.62	293.30
469.98	292.13
470.35	290.96
470.72	289.95
471.08	288.67
471.45	287.78
471.82	286.87
472.18	285.78
472.55	285.05
472.92	284.02
473.28	283.15
473.65	282.26
474.02	281.40
474.38	280.81
474.75	280.29
475.11	279.63
475.48	279.17
475.85	278.69
476.21	278.08
476.58	277.62
476.94	277.35
477.31	276.93
477.67	276.59
478.04	276.29
478.41	275.98
478.77	276.11
479.14	275.79
479.50	275.52
479.87	275.42
480.23	275.24
480.60	275.09
480.96	274.90
481.33	275.04
481.69	275.12
482.06	275.09
482.42	275.00
482.79	275.06
483.15	275.12
483.52	275.32
483.88	275.43
484.25	275.61
484.61	275.72
484.98	275.89
485.34	276.20
485.71	276.49
486.07	276.88
486.44	276.92
486.80	277.30
487.17	277.69
487.53	278.13
487.90	278.70
488.26	279.36
488.62	280.10
488.99	280.54
489.35	281.14
489.72	281.74
490.08	282.46
490.44	283.18
490.81	284.03
491.17	284.76
491.54	285.65
491.90	286.45
492.26	287.28
492.63	288.27
492.99	289.14
493.36	290.15
493.72	291.20
494.08	292.21
494.45	293.18
494.81	294.33
495.17	295.45
495.54	296.65
495.90	297.78
496.26	298.91
496.63	300.16
496.99	301.40
497.35	302.68
497.72	303.96
498.08	305.19
498.44	306.43
498.80	307.77
499.17	309.06
499.53	310.42
499.89	311.85
500.26	313.18
500.62	314.55
500.98	315.85
501.34	317.21
501.71	318.60
502.07	320.04
502.43	321.40
502.79	322.64
503.16	323.87
503.52	325.20
503.88	326.33
504.24	327.66
504.60	328.94
504.97	330.23
505.33	331.39
505.69	332.90
506.05	334.21
506.41	335.27
506.78	336.48
507.14	337.62
507.50	338.71
507.86	339.79
508.22	340.92
508.59	341.92
508.95	342.92
509.31	344.03
509.67	345.08
510.03	345.94
510.39	346.94
510.75	347.94
511.12	348.80
511.48	349.79
511.84	350.74
512.20	351.58
512.56	352.50
512.92	353.47
513.28	354.21
513.64	354.97
514.00	355.90
514.37	356.77
514.73	357.63
515.09	358.50
515.45	359.36
515.81	360.05
516.17	360.78
516.53	361.37
516.89	361.93
517.25	362.62
517.61	363.56
517.97	364.25
518.33	364.99
518.69	365.84
519.05	366.70
519.41	367.43
519.77	368.46
520.13	369.15
520.49	369.82
520.85	370.67
521.21	371.67
521.57	372.64
521.93	373.36
522.29	374.25
522.65	375.13
523.01	376.17
523.37	377.15
523.73	378.28
524.09	379.51
524.45	380.66
524.81	381.98
525.17	383.08
525.53	384.50
525.89	385.73
526.25	387.06
526.61	388.23
526.97	389.65
527.33	390.85
527.68	392.74
528.04	394.33
528.40	395.80
528.76	397.27
529.12	398.89
529.48	400.71
529.84	402.50
530.20	404.34
530.56	406.20
530.91	408.25
531.27	410.22
531.63	412.29
531.99	414.32
532.35	416.25
532.71	418.24
533.07	420.39
533.42	422.97
533.78	425.15
534.14	427.61
534.50	429.75
534.86	432.22
535.21	434.19
535.57	436.59
535.93	438.85
536.29	441.44
536.65	443.91
537.00	446.32
537.36	448.67
537.72	451.13
538.08	453.63
538.44	456.06
538.79	458.64
539.15	461.11
539.51	463.71
539.87	466.37
540.22	469.14
540.58	471.86
540.94	474.22
541.29	476.93
541.65	479.43
542.01	482.35
542.37	485.08
542.72	487.89
543.08	490.63
543.44	493.56
543.79	495.87
544.15	498.57
544.51	501.49
544.87	504.43
545.22	507.27
545.58	509.99
545.94	512.76
546.29	515.50
546.65	518.15
547.01	520.91
547.36	523.61
547.72	526.32
548.07	528.88
548.43	531.45
548.79	534.01
549.14	536.65
549.50	539.09
549.86	541.62
550.21	544.15
550.57	546.81
550.92	549.27
551.28	552.03
551.64	554.63
551.99	557.11
552.35	559.41
552.70	561.62
553.06	564.05
553.41	566.35
553.77	569.00
554.13	571.58
554.48	574.04
554.84	576.43
555.19	578.71
555.55	581.27
555.90	583.50
556.26	585.74
556.61	588.03
556.97	590.16
557.32	592.24
557.68	594.38
558.03	596.34
558.39	598.36
558.74	600.32
559.10	602.28
559.45	604.29
559.81	606.38
560.16	608.32
560.52	610.19
560.87	612.35
561.23	613.98
561.58	616.07
561.94	617.95
562.29	619.73
562.64	621.60
563.00	623.09
563.35	624.88
563.71	626.75
564.06	628.40
564.42	630.29
564.77	631.97
565.12	633.63
565.48	635.68
565.83	637.51
566.19	639.31
566.54	640.74
566.89	642.01
567.25	643.73
567.60	645.41
567.96	647.05
568.31	648.36
568.66	649.63
569.02	650.43
569.37	651.39
569.72	652.49
570.08	653.35
570.43	654.23
570.78	655.07
571.14	655.81
571.49	656.51
571.84	657.16
572.20	657.82
572.55	658.50
572.90	658.61
573.26	658.84
573.61	659.05
573.96	659.39
574.31	659.58
574.67	659.42
575.02	659.25
575.37	659.02
575.72	658.65
576.08	658.64
576.43	658.65
576.78	658.62
577.13	658.60
577.49	658.50
577.84	658.39
578.19	658.45
578.54	658.47
578.90	658.57
579.25	658.51
579.60	658.15
579.95	657.80
580.30	657.72
580.66	657.64
581.01	657.43
581.36	657.03
581.71	656.88
582.06	656.84
582.42	656.70
582.77	656.52
583.12	656.40
583.47	656.31
583.82	656.12
584.17	655.75
584.53	655.60
584.88	655.31
585.23	655.22
585.58	654.72
585.93	654.28
586.28	653.95
586.63	653.42
586.98	653.27
587.34	653.10
587.69	652.50
588.04	652.05
588.39	651.64
588.74	651.20
589.09	650.87
589.44	650.07
589.79	649.76
590.14	649.20
590.49	648.60
590.84	647.96
591.19	647.45
591.54	646.78
591.89	645.65
592.25	645.26
592.60	644.21
592.95	643.49
593.30	642.49
593.65	641.36
594.00	640.38
594.35	640.37
594.70	639.19
595.05	638.42
595.40	637.47
595.75	636.26
596.10	635.38
596.45	634.38
596.80	633.76
597.15	632.80
597.50	631.84
597.85	631.16
598.19	630.02
598.54	628.83
598.89	627.86
599.24	627.29
599.59	626.16
599.94	625.46
600.29	624.70
600.64	623.90
600.99	623.09
601.34	622.32
601.69	620.31
602.04	619.38
602.39	618.38
602.74	617.45
603.08	616.83
603.43	616.33
603.78	615.37
604.13	614.35
604.48	613.44
604.83	612.70
605.18	611.98
605.53	611.14
605.87	610.25
606.22	609.54
606.57	608.47
606.92	607.48
607.27	606.42
607.62	605.15
607.96	604.28
608.31	603.38
608.66	602.40
609.01	601.41
609.36	600.25
609.70	599.11
610.05	598.00
610.40	596.80
610.75	595.24
611.10	594.08
611.44	592.64
611.79	591.01
612.14	589.57
612.49	587.81
612.83	586.47
613.18	584.95
613.53	583.24
613.88	581.63
614.22	580.05
614.57	578.47
614.92	576.90
615.27	575.27
615.61	573.58
615.96	572.02
616.31	570.47
616.65	569.24
617.00	567.80
617.35	566.12
617.70	564.35
618.04	562.62
618.39	560.80
618.74	559.30
619.08	557.75
619.43	555.98
619.78	554.27
620.12	552.57
620.47	550.96
620.82	549.24
621.16	547.46
621.51	545.86
621.85	544.12
622.20	542.39
622.55	540.49
622.89	538.66
623.24	536.95
623.59	535.16
623.93	533.29
624.28	531.51
624.62	530.20
624.97	528.70
625.32	527.19
625.66	525.50
626.01	523.81
626.35	522.24
626.70	520.55
627.04	519.26
627.39	517.43
627.73	516.00
628.08	514.61
628.43	513.04
628.77	511.25
629.12	509.63
629.46	508.34
629.81	506.84
630.15	505.31
630.50	503.56
630.84	501.85
631.19	500.18
631.53	498.49
631.88	496.38
632.22	494.58
632.57	493.03
632.91	491.37
633.26	489.80
633.60	488.14
633.95	486.66
634.29	484.86
634.64	483.42
634.98	481.63
635.32	479.95
635.67	478.39
636.01	476.95
636.36	475.35
636.70	473.70
637.05	472.11
637.39	470.53
637.73	469.07
638.08	467.88
638.42	466.44
638.77	465.03
639.11	463.49
639.45	462.06
639.80	460.29
640.14	458.63
640.49	457.02
640.83	455.33
641.17	453.74
641.52	451.99
641.86	450.44
642.20	449.02
642.55	447.27
642.89	445.64
643.23	443.95
643.58	442.51
643.92	440.81
644.26	439.25
644.61	437.81
644.95	436.22
645.29	434.40
645.64	432.81
645.98	431.13
646.32	429.66
646.66	427.92
647.01	426.35
647.35	424.96
647.69	423.35
648.04	422.00
648.38	420.43
648.72	418.83
649.06	417.13
649.41	415.35
649.75	414.00
650.09	412.58
650.43	411.00
650.78	409.35
651.12	407.71
651.46	406.08
651.80	404.57
652.14	402.92
652.49	401.42
652.83	399.76
653.17	398.05
653.51	396.39
653.85	395.01
654.20	393.51
654.54	391.87
654.88	390.24
655.22	388.63
655.56	387.11
655.90	385.61
656.25	384.08
656.59	382.58
656.93	381.01
657.27	379.58
657.61	378.10
657.95	376.63
658.29	375.34
658.64	373.95
658.98	372.33
659.32	370.79
659.66	369.40
660.00	367.94
660.34	366.62
660.68	365.33
661.02	363.91
661.36	362.60
661.70	361.29
662.05	360.01
662.39	358.76
662.73	357.49
663.07	356.46
663.41	355.21
663.75	353.95
664.09	352.63
664.43	351.19
664.77	349.97
665.11	348.66
665.45	347.46
665.79	346.33
666.13	345.20
666.47	344.10
666.81	342.76
667.15	341.61
667.49	340.45
667.83	339.35
668.17	338.06
668.51	336.92
668.85	335.91
669.19	335.00
669.53	333.82
669.87	332.60
670.21	331.37
670.55	330.35
670.89	329.54
671.23	328.59
671.57	327.63
671.91	326.52
672.25	325.53
672.58	324.51
672.92	323.40
673.26	322.32
673.60	321.39
673.94	320.56
674.28	319.66
674.62	318.71
674.96	317.74
675.30	316.83
675.64	315.84
675.97	314.84
676.31	313.80
676.65	312.88
676.99	312.12
677.33	311.15
677.67	310.30
678.01	309.15
678.34	308.25
678.68	307.40
679.02	306.55
679.36	305.68
679.70	304.69
680.04	303.93
680.37	303.10
680.71	302.18
681.05	301.38
681.39	300.43
681.73	299.62
682.06	298.72
682.40	297.99
682.74	297.25
683.08	296.57
683.42	295.70
683.75	294.92
684.09	294.08
684.43	293.39
684.77	292.43
685.10	291.67
685.44	290.80
685.78	289.99
686.12	289.27
686.45	288.55
686.79	287.80
687.13	287.05
687.46	286.37
687.80	285.69
688.14	284.88
688.48	284.30
688.81	283.62
689.15	283.06
689.49	282.25
689.82	281.55
690.16	280.66
690.50	279.99
690.83	279.27
691.17	278.48
691.51	277.72
691.84	277.08
692.18	276.44
692.52	275.81
692.85	275.25
693.19	274.68
693.52	274.06
693.86	273.38
694.20	272.67
694.53	271.99
694.87	271.20
695.21	270.50
695.54	269.83
695.88	269.14
696.21	268.39
696.55	267.80
696.88	267.15
697.22	266.52
697.56	265.98
697.89	265.41
698.23	264.92
698.56	264.28
698.90	263.94
699.23	263.28
699.57	262.71
699.90	262.08
700.24	261.46
700.58	260.87
700.91	260.37
701.25	260.08
701.58	259.67
701.92	259.42
702.25	258.94
702.59	258.36
702.92	257.90
703.26	257.40
703.59	256.94
703.93	256.84
704.26	256.45
704.60	255.95
704.93	255.37
705.26	254.78
705.60	254.47
705.93	253.77
706.27	253.51
706.60	253.18
706.94	252.92
707.27	252.37
707.61	251.99
707.94	251.54
708.27	250.93
708.61	250.42
708.94	249.96
709.28	249.53
709.61	249.13
709.94	248.75
710.28	248.39
710.61	248.11
710.95	247.29
711.28	247.19
711.61	246.83
711.95	246.63
712.28	246.29
712.61	245.88
712.95	245.80
713.28	245.51
713.61	245.18
713.95	244.73
714.28	244.44
714.61	244.08
714.95	243.73
715.28	243.23
715.61	242.81
715.95	242.41
716.28	242.11
716.61	241.88
716.95	241.48
717.28	241.13
717.61	240.71
717.94	240.45
718.28	239.84
718.61	239.50
718.94	239.13
719.27	238.93
719.61	238.67
719.94	238.25
720.27	237.80
720.60	237.41
720.94	237.08
721.27	236.81
721.60	236.62
721.93	236.37
722.27	236.34
722.60	236.18
722.93	235.96
723.26	235.74
723.59	235.42
723.93	235.21
724.26	234.99
724.59	234.75
724.92	234.55
725.25	234.43
725.59	234.21
725.92	234.05
726.25	233.79
726.58	233.55
726.91	233.33
727.24	233.16
727.57	232.96
727.91	232.72
728.24	232.66
728.57	232.37
728.90	232.22
729.23	231.89
729.56	231.86
729.89	231.70
730.22	231.47
730.55	231.27
730.89	231.07
731.22	230.85
731.55	230.70
731.88	230.54
732.21	230.29
732.54	230.07
732.87	229.82
733.20	229.67
733.53	229.51
733.86	229.36
734.19	229.06
734.52	228.98
734.85	229.04
735.18	228.71
735.51	228.70
735.84	228.53
736.17	228.50
736.50	228.15
736.83	228.32
737.16	228.25
737.49	228.10
737.82	227.95
738.15	227.82
738.48	227.65
738.81	227.49
739.14	227.36
739.47	227.19
739.80	227.05
740.13	226.88
740.46	226.67
740.79	226.50
741.12	226.48
741.45	226.20
741.78	225.85
742.11	225.84
742.44	225.58
742.77	225.49
743.10	225.24
743.43	225.12
743.75	224.67
744.08	224.92
744.41	224.80
744.74	224.63
745.07	224.50
745.40	224.43
745.73	224.40
746.06	224.27
746.39	224.19
746.71	224.09
747.04	223.97
747.37	223.88
747.70	223.81
748.03	223.69
748.36	223.70
748.68	223.61
749.01	223.44
749.34	223.29
749.67	223.20
750.00	223.15
750.33	223.24
750.65	223.22
750.98	222.68
751.31	222.53
751.64	222.50
751.97	222.60
752.29	222.53
752.62	222.30
752.95	222.14
753.28	222.04
753.60	221.92
753.93	221.84
754.26	221.72
754.59	221.49
754.91	221.32
755.24	221.21
755.57	221.06
755.90	221.00
756.22	220.95
756.55	220.80
756.88	220.56
757.20	220.20
757.53	219.88
757.86	219.77
758.19	219.72
758.51	219.69
758.84	219.36
759.17	219.24
759.49	219.19
759.82	219.30
760.15	219.21
760.47	219.06
760.80	218.94
761.13	218.98
761.45	218.94
761.78	218.89
762.11	218.79
762.43	218.81
762.76	218.59
763.08	218.57
763.41	218.52
763.74	218.57
764.06	218.53
764.39	218.55
764.71	218.47
765.04	218.40
765.37	218.20
765.69	218.09
766.02	218.05
766.34	217.90
766.67	217.69
767.00	217.69
767.32	217.89
767.65	217.95
767.97	217.79
768.30	217.73
768.62	217.64
768.95	217.52
769.27	217.39
769.60	217.43
769.92	217.25
770.25	217.11
770.57	216.99
770.90	216.91
771.22	216.72
771.55	216.69
771.87	216.72
772.20	216.65
772.52	216.95
772.85	217.21
773.17	217.17
773.50	217.07
773.82	217.00
774.15	216.74
774.47	216.48
774.80	216.39
775.12	216.34
775.45	216.25
775.77	216.27
776.09	216.20
776.42	216.14
776.74	216.19
777.07	216.11
777.39	216.07
777.72	216.02
778.04	216.06
778.36	215.96
778.69	215.83
779.01	215.83
779.33	215.49
779.66	215.04
779.98	214.99
780.31	214.95
780.63	215.06
780.95	215.08
781.28	215.12
781.60	215.02
781.92	215.00
782.25	215.01
782.57	214.93
782.89	214.89
783.22	214.81
783.54	214.68
783.86	214.67
784.19	214.64
784.51	214.68
784.83	214.56
785.16	214.52
785.48	214.48
785.80	214.43
786.12	214.41
786.45	214.36
786.77	214.35
787.09	214.30
787.42	214.06
787.74	213.98
788.06	213.96
788.38	213.94
788.71	213.85
789.03	213.81
789.35	213.85
789.67	213.78
789.99	213.75
790.32	213.66
790.64	213.63
790.96	213.92
791.28	213.78
791.61	213.80
791.93	213.77
792.25	213.74
792.57	213.99
792.89	213.85
793.21	213.94
793.54	213.86
793.86	213.82
794.18	213.85
794.50	213.82
794.82	213.75
795.14	213.79
795.47	213.85
795.79	213.79
796.11	213.67
796.43	213.65
796.75	213.57
797.07	213.63
797.39	213.68
797.71	213.30
798.04	213.35
798.36	213.39
798.68	213.43
799.00	213.38
799.32	213.15
799.64	213.23
799.96	213.16
800.28	213.21
800.60	213.18
800.92	213.20
801.24	213.16
801.56	213.16
801.89	213.00
802.21	212.98
802.53	212.93
802.85	212.96
803.17	213.13
803.49	213.12
803.81	213.03
804.13	213.04
804.45	213.04
804.77	213.00
805.09	212.89
805.41	212.84
805.73	212.81
806.05	212.79
806.37	212.82
806.69	212.76
807.01	212.74
807.33	212.75
807.65	212.64
807.97	212.78
808.28	212.77
808.60	212.87
808.92	212.79
809.24	213.01
809.56	212.95
809.88	212.79
810.20	212.85
810.52	212.93
810.84	212.81
811.16	212.79
811.48	212.77
811.80	212.91
812.12	212.82
812.43	212.95
812.75	212.94
813.07	212.79
813.39	212.78
813.71	212.77
814.03	212.71
814.35	212.63
814.67	212.51
814.98	212.46
815.30	212.39
815.62	212.36
815.94	212.11
816.26	212.11
816.58	212.08
816.89	212.05
817.21	211.92
817.53	211.93
817.85	211.94
818.17	211.92
818.48	211.77
818.80	211.91
819.12	211.85
819.44	211.74
819.76	211.74
820.07	211.73
820.39	211.62
820.71	211.68
821.03	211.73
821.34	211.61
821.66	211.65
821.98	211.72
822.30	211.67
822.61	211.90
822.93	211.89
823.25	211.80
823.57	211.71
823.88	211.85
824.20	211.82
824.52	211.83
824.83	211.78
825.15	211.84
825.47	211.76
825.79	211.72
826.10	211.71
826.42	211.75
826.74	211.82
827.05	211.85
827.37	211.90
827.69	211.90
828.00	211.93
828.32	211.95
828.64	211.89
828.95	212.09
829.27	211.94
829.58	211.95
829.90	212.05
830.22	212.07
830.53	211.99
830.85	211.92
831.17	211.83
831.48	211.82
831.80	211.80
832.11	211.76
832.43	211.67
832.75	211.67
833.06	211.80
833.38	211.66
833.69	211.65
834.01	211.62
834.32	211.55
834.64	211.59
834.96	211.55
835.27	211.55
835.59	211.51
835.90	211.42
836.22	211.41
836.53	211.34
836.85	211.30
837.16	211.58
837.48	211.68
837.79	211.87
838.11	211.92
838.42	211.85
838.74	211.93
839.05	211.96
839.37	211.97
839.68	211.79
840.00	211.80
840.31	211.85
840.63	211.78
840.94	211.80
841.26	211.69
841.57	211.66
841.88	211.76
842.20	211.61
842.51	211.62
842.83	211.59
843.14	211.93
843.46	212.01
843.77	211.85
844.08	211.81
844.40	211.66
844.71	211.64
845.03	211.64
845.34	211.55
845.65	211.55
845.97	211.55
846.28	211.61
846.60	211.63
846.91	211.59
847.22	211.63
847.54	211.69
847.85	211.70
848.16	211.74
848.48	211.63
848.79	211.79
849.10	211.83
849.42	211.89
849.73	211.49
850.04	211.43
850.36	211.35
850.67	211.39
850.98	211.40
851.30	211.41
851.61	211.37
851.92	211.42
852.23	211.51
852.55	211.48
852.86	211.44
853.17	211.51
853.49	211.55
853.80	211.55
854.11	211.59
854.42	211.63
854.74	211.58
855.05	211.60
855.36	211.41
855.67	211.40
855.99	211.35
856.30	211.83
856.61	211.87
856.92	211.89
857.23	211.85
857.55	211.74
857.86	211.71
858.17	211.79
858.48	211.71
858.79	211.57
859.11	211.66
859.42	211.63
859.73	211.59
860.04	211.59
860.35	211.49
860.66	211.41
860.98	211.38
861.29	211.44
861.60	211.38
861.91	211.43
862.22	211.46
862.53	211.39
862.84	210.98
863.16	211.05
863.47	210.94
863.78	210.91
864.09	210.91
864.40	210.86
864.71	210.89
865.02	210.95
865.33	210.98
865.64	210.87
865.95	210.89
866.27	211.01
866.58	211.08
866.89	211.17
867.20	211.15
867.51	211.16
867.82	211.12
868.13	211.26
868.44	211.27
868.75	211.22
869.06	211.26
869.37	211.30
869.68	211.23
869.99	211.32
870.30	211.36
870.61	211.52
870.92	211.54
871.23	211.49
871.54	211.49
871.85	211.57
872.16	211.61
872.47	211.52
872.78	211.36
873.09	211.33
873.40	211.27
873.71	211.24
874.02	211.27
874.33	211.20
874.64	211.07
874.95	211.11
875.26	211.09
875.56	211.15
875.87	211.11
876.18	211.11
876.49	211.41
876.80	211.42
877.11	211.33
877.42	211.33
877.73	211.39
878.04	211.41
878.35	211.46
878.66	211.51
878.96	211.62
879.27	211.59
879.58	211.63
879.89	211.66
880.20	211.86
880.51	211.78
880.82	211.86
881.12	211.91
881.43	211.81
881.74	211.75
882.05	211.70
882.36	211.72
882.67	211.72
882.97	211.43
883.28	211.39
883.59	211.35
883.90	211.40
884.21	211.34
884.51	211.32
884.82	211.28
885.13	211.26
885.44	211.25
885.74	211.21
886.05	211.10
886.36	211.12
886.67	210.95
886.98	211.21
887.28	211.22
887.59	211.22
887.90	211.26
888.20	211.32
888.51	211.33
888.82	211.29
889.13	211.31
889.43	211.57
889.74	211.54
890.05	211.56
890.35	211.60
890.66	211.60
890.97	211.54
891.28	211.49
891.58	211.41
891.89	211.42
892.20	211.43
892.50	211.44
892.81	211.41
893.12	211.40
893.42	211.13
893.73	211.13
894.04	211.14
894.34	211.13
894.65	211.08
894.95	211.10
895.26	211.08
895.57	211.21
895.87	210.92
896.18	210.96
896.48	210.96
896.79	210.88
897.10	210.97
897.40	210.97
897.71	210.94
898.01	211.01
898.32	211.02
898.63	211.07
898.93	210.97
899.24	211.02
899.54	210.92
899.85	211.00
900.15	210.95
900.46	210.95
900.76	211.01
901.07	211.01
901.38	210.93
901.68	210.96
901.99	210.83
902.29	210.74
902.60	210.72
902.90	210.71
903.21	210.74
903.51	210.65
903.82	210.72
904.12	210.68
904.43	210.72
904.73	210.65
905.03	210.64
905.34	210.98
905.64	210.86
905.95	210.96
906.25	210.90
906.56	210.90
906.86	210.87
907.17	210.91
907.47	210.98
907.77	210.93
908.08	210.92
908.38	210.90
908.69	210.91
908.99	210.96
909.30	210.95
909.60	210.91
909.90	210.94
910.21	210.82
910.51	210.80
910.81	210.74
911.12	210.85
911.42	210.81
911.73	210.47
912.03	210.54
912.33	210.53
912.64	210.56
912.94	210.47
913.24	210.46
913.55	210.37
913.85	210.31
914.15	210.47
914.46	210.49
914.76	210.45
915.06	210.48
915.37	210.44
915.67	210.42
915.97	210.44
916.27	210.36
916.58	210.39
916.88	210.40
917.18	210.39
917.49	210.56
917.79	210.59
918.09	210.68
918.39	210.71
918.70	210.73
919.00	210.75
919.30	210.97
919.60	210.94
919.91	210.99
920.21	211.05
920.51	210.91
920.81	210.83
921.12	210.91
921.42	210.90
921.72	210.92
922.02	210.95
922.32	210.96
922.63	210.99
922.93	211.10
923.23	211.10
923.53	211.07
923.83	210.85
924.13	210.87
924.44	210.89
924.74	211.00
925.04	211.02
925.34	210.97
925.64	210.82
925.94	210.80
926.24	210.95
926.55	210.90
926.85	211.04
927.15	211.09
927.45	211.06
927.75	211.01
928.05	211.03
928.35	210.97
928.65	210.99
928.95	211.03
929.26	211.00
929.56	211.10
929.86	211.10
930.16	211.08
930.46	211.11
930.76	211.11
931.06	210.95
931.36	210.94
931.66	210.94
931.96	210.98
932.26	211.02
932.56	210.89
932.86	210.90
933.16	210.83
933.46	210.82
933.76	210.78
934.06	210.87
934.36	210.94
934.66	210.99
934.96	211.02
935.26	211.08
935.56	211.13
935.86	211.06
936.16	211.06
936.46	211.02
936.76	210.96
937.06	210.90
937.36	210.85
937.66	210.82
937.96	210.89
938.26	210.86
938.56	210.84
938.86	210.84
939.16	210.95
939.46	210.97
939.76	211.03
940.06	211.05
940.35	211.01
940.65	210.84
940.95	210.78
941.25	210.69
941.55	210.54
941.85	210.52
942.15	210.61
942.45	210.72
942.75	210.73
943.04	210.69
943.34	210.75
943.64	210.79
943.94	210.74
944.24	210.72
944.54	210.70
944.84	210.71
945.13	210.61
945.43	210.57
945.73	210.56
946.03	210.46
946.33	210.43
946.62	210.40
946.92	210.41
947.22	210.47
947.52	210.50
947.82	210.61
948.11	210.54
948.41	210.44
948.71	210.29
949.01	210.30
949.31	210.33
949.60	210.33
949.90	210.39
950.20	210.48
950.50	210.45
950.79	210.40
951.09	210.43
951.39	210.43
951.69	210.29
951.98	210.35
952.28	210.40
952.58	210.34
952.87	210.40
953.17	210.46
953.47	210.51
953.76	210.56
954.06	210.42
954.36	210.42
954.66	210.45
954.95	210.56
955.25	210.62
955.55	210.64
955.84	210.60
956.14	210.65
956.44	210.60
956.73	210.54
957.03	210.64
957.32	210.65
957.62	210.64
957.92	210.75
958.21	210.68
958.51	211.09
958.81	211.19
959.10	211.17
959.40	211.26
959.69	211.20
959.99	211.21
960.29	211.22
960.58	211.13
960.88	211.21
961.17	211.25
961.47	211.32
961.76	211.33
962.06	211.38
962.36	211.32
962.65	211.34
962.95	211.45
963.24	211.41
963.54	211.43
963.83	211.50
964.13	211.55
964.42	211.51
964.72	211.25
965.01	211.19
965.31	211.23
965.60	211.09
965.90	211.33
966.19	211.25
966.49	211.31
966.78	211.37
967.08	211.40
967.37	211.34
967.67	211.19
967.96	211.28
968.26	211.22
968.55	211.30
968.85	211.27
969.14	211.27
969.43	211.27
969.73	211.22
970.02	211.16
970.32	211.13
970.61	211.12
970.91	211.03
971.20	211.00
971.49	210.99
971.79	211.06
972.08	210.89
972.38	210.95
972.67	210.85
972.96	210.84
973.26	210.73
973.55	210.84
973.85	210.83
974.14	210.77
974.43	210.81
974.73	210.72
975.02	210.70
975.31	210.65
975.61	210.66
975.90	210.65
976.19	210.64
976.49	210.57
976.78	210.66
977.07	210.63
977.37	210.68
977.66	210.64
977.95	210.57
978.24	210.53
978.54	210.64
978.83	210.74
979.12	210.78
979.42	210.84
979.71	210.77
980.00	210.81
980.29	210.80
980.59	210.68
980.88	210.79
981.17	210.78
981.46	210.74
981.76	210.72
982.05	210.83
982.34	210.84
982.63	210.88
982.93	210.81
983.22	210.95
983.51	211.00
983.80	211.07
984.09	211.16
984.39	211.18
984.68	211.09
984.97	211.02
985.26	210.99
985.55	211.00
985.85	210.97
986.14	210.96
986.43	211.08
986.72	211.14
987.01	210.98
987.30	210.99
987.59	210.98
987.89	211.02
988.18	210.93
988.47	210.86
988.76	210.89
989.05	210.90
989.34	210.85
989.63	210.92
989.92	210.83
990.22	210.80
990.51	210.79
990.80	210.75
991.09	210.83
991.38	210.89
991.67	210.88
991.96	210.83
992.25	210.86
992.54	210.75
992.83	210.75
993.12	210.78
993.41	210.85
993.70	210.99
993.99	211.02
994.28	211.06
994.58	211.18
994.87	211.07
995.16	211.08
995.45	210.91
995.74	210.75
996.03	210.86
996.32	210.89
996.61	210.90
996.90	210.91
997.19	210.97
997.48	211.00
997.77	210.95
998.06	210.91
998.34	210.89
998.63	210.85
998.92	210.86
999.21	210.97
999.50	210.94
999.79	210.89
1000.08	210.84
1000.37	210.83
1000.66	210.78
1000.95	210.89
1001.24	210.92
1001.53	211.08
1001.82	211.09
1002.11	210.94
1002.40	210.95
1002.68	211.04
1002.97	211.30
1003.26	211.21
1003.55	211.09
1003.84	211.10
1004.13	211.29
1004.42	211.28
1004.71	211.32
1004.99	211.30
1005.28	211.34
1005.57	211.35
1005.86	211.28
1006.15	211.29
1006.44	211.18
1006.72	211.22
1007.01	211.13
1007.30	211.14
1007.59	211.09
1007.88	211.12
1008.17	211.19
1008.45	211.15
1008.74	211.03
1009.03	210.92
1009.32	210.95
1009.60	211.02
1009.89	210.96
1010.18	210.79
1010.47	210.75
1010.76	210.72
1011.04	210.72
1011.33	211.08
1011.62	211.09
1011.91	211.13
1012.19	211.10
1012.48	211.18
1012.77	211.16
1013.05	211.35
1013.34	211.26
1013.63	211.23
1013.92	211.20
1014.20	211.14
1014.49	211.13
1014.78	211.15
1015.06	210.94
1015.35	210.94
1015.64	210.92
1015.92	211.00
1016.21	211.01
1016.50	211.06
1016.78	211.14
1017.07	211.12
1017.36	210.65
1017.64	210.57
1017.93	210.54
1018.22	210.51
1018.50	210.46
1018.79	210.51
1019.08	210.36
1019.36	210.44
1019.65	210.37
1019.93	210.50
1020.22	210.56
1020.51	210.68
1020.79	210.61
1021.08	210.05
1021.36	209.70
1021.65	211.60
1021.94	210.50
1022.22	210.85
1022.51	209.15
1022.79	212.60
1023.08	210.75
1023.36	213.75
1023.65	209.10
>>>>>End Processed Spectral Data<<<<<
