SpectraSuite Data File
++++++++++++++++++++++++++++++++++++
Date: Mon Feb 25 17:00:04 EST 2013
User: group
Dark Spectrum Present: No
Reference Spectrum Present: No
Number of Sampled Component Spectra: 1
Spectrometers: USB2E7196
Integration Time (usec): 104000 (USB2E7196)
Spectra Averaged: 20 (USB2E7196)
Boxcar Smoothing: 10 (USB2E7196)
Correct for Electrical Dark: No (USB2E7196)
Strobe/Lamp Enabled: No (USB2E7196)
Correct for Detector Non-linearity: No (USB2E7196)
Correct for Stray Light: No (USB2E7196)
Number of Pixels in Processed Spectrum: 2048
>>>>>Begin Processed Spectral Data<<<<<
339.09	0.00
339.48	198.40
339.86	200.65
340.24	201.45
340.63	202.95
341.01	209.70
341.39	206.15
341.78	207.15
342.16	208.70
342.54	208.50
342.93	198.33
343.31	208.34
343.69	208.84
344.07	209.32
344.46	209.79
344.84	210.20
345.22	210.26
345.60	210.53
345.99	210.70
346.37	210.84
346.75	210.94
347.13	210.98
347.52	211.04
347.90	211.11
348.28	211.14
348.66	211.20
349.05	211.14
349.43	211.18
349.81	211.18
350.19	211.20
350.57	211.24
350.96	211.21
351.34	211.34
351.72	211.47
352.10	211.53
352.48	211.55
352.87	211.53
353.25	211.62
353.63	211.60
354.01	211.68
354.39	211.75
354.77	211.84
355.15	212.05
355.54	212.06
355.92	212.15
356.30	212.23
356.68	212.45
357.06	212.58
357.44	212.60
357.82	212.66
358.20	212.73
358.58	212.73
358.97	212.91
359.35	212.93
359.73	212.99
360.11	213.00
360.49	213.06
360.87	213.05
361.25	213.16
361.63	213.35
362.01	213.35
362.39	213.30
362.77	213.33
363.15	213.33
363.53	213.35
363.91	213.34
364.29	213.31
364.67	213.11
365.05	213.09
365.43	213.16
365.81	213.20
366.19	213.33
366.57	213.54
366.95	213.48
367.33	213.44
367.71	213.51
368.09	213.58
368.47	213.57
368.85	213.65
369.23	213.62
369.61	213.50
369.99	213.66
370.37	213.68
370.75	213.88
371.13	213.80
371.51	213.83
371.89	213.80
372.27	213.83
372.65	213.80
373.03	213.82
373.41	213.72
373.78	213.66
374.16	213.39
374.54	213.27
374.92	213.24
375.30	213.21
375.68	213.04
376.06	213.03
376.44	212.98
376.82	212.92
377.19	212.85
377.57	212.77
377.95	212.56
378.33	212.55
378.71	212.23
379.09	212.23
379.47	212.18
379.84	212.05
380.22	211.81
380.60	211.73
380.98	211.63
381.36	211.59
381.73	211.50
382.11	211.59
382.49	211.54
382.87	211.45
383.25	211.43
383.62	211.80
384.00	211.67
384.38	211.66
384.76	211.66
385.13	211.71
385.51	211.66
385.89	211.56
386.27	211.51
386.64	211.60
387.02	211.52
387.40	211.40
387.78	211.43
388.15	211.52
388.53	211.45
388.91	211.36
389.29	211.34
389.66	211.40
390.04	211.27
390.42	211.33
390.79	211.35
391.17	211.27
391.55	210.93
391.92	210.91
392.30	210.91
392.68	210.82
393.05	210.89
393.43	210.91
393.81	210.99
394.18	210.90
394.56	210.83
394.94	210.87
395.31	210.90
395.69	211.01
396.06	211.11
396.44	211.09
396.82	211.03
397.19	211.27
397.57	211.17
397.95	211.32
398.32	211.17
398.70	211.08
399.07	211.15
399.45	211.12
399.82	211.14
400.20	211.13
400.58	211.13
400.95	210.94
401.33	211.03
401.70	211.29
402.08	211.44
402.45	211.52
402.83	211.70
403.20	211.80
403.58	211.88
403.95	212.04
404.33	212.25
404.71	212.53
405.08	212.78
405.46	213.04
405.83	213.22
406.21	213.42
406.58	213.78
406.96	213.96
407.33	214.21
407.70	214.55
408.08	215.12
408.45	215.54
408.83	216.06
409.20	216.38
409.58	216.59
409.95	217.07
410.33	217.61
410.70	218.03
411.08	218.64
411.45	219.25
411.82	219.82
412.20	220.53
412.57	221.36
412.95	221.76
413.32	222.68
413.69	223.49
414.07	224.48
414.44	225.48
414.82	226.60
415.19	227.83
415.56	229.12
415.94	230.33
416.31	231.97
416.68	233.44
417.06	235.20
417.43	236.86
417.81	238.75
418.18	240.65
418.55	242.71
418.93	244.82
419.30	247.12
419.67	249.49
420.04	252.05
420.42	254.66
420.79	257.99
421.16	260.87
421.54	264.10
421.91	267.37
422.28	270.75
422.66	274.34
423.03	278.14
423.40	281.78
423.77	285.77
424.15	289.74
424.52	293.94
424.89	298.50
425.26	303.05
425.64	307.30
426.01	311.98
426.38	316.86
426.75	321.97
427.13	327.17
427.50	332.64
427.87	338.19
428.24	343.77
428.61	348.99
428.99	355.17
429.36	361.62
429.73	367.98
430.10	374.48
430.47	381.11
430.85	387.90
431.22	395.29
431.59	403.14
431.96	410.52
432.33	418.69
432.70	426.58
433.08	435.86
433.45	444.61
433.82	453.39
434.19	463.15
434.56	472.60
434.93	481.86
435.30	491.19
435.68	501.56
436.05	511.90
436.42	522.16
436.79	531.65
437.16	541.88
437.53	552.65
437.90	563.24
438.27	573.81
438.64	584.60
439.01	594.80
439.38	603.63
439.75	612.48
440.13	622.61
440.50	632.16
440.87	640.12
441.24	648.38
441.61	657.62
441.98	664.58
442.35	672.57
442.72	680.70
443.09	688.56
443.46	693.60
443.83	697.26
444.20	700.60
444.57	704.91
444.94	707.39
445.31	710.10
445.68	712.75
446.05	714.22
446.42	714.02
446.79	713.46
447.16	712.96
447.53	712.75
447.90	709.71
448.27	706.78
448.64	702.10
449.01	699.03
449.37	692.73
449.74	686.71
450.11	679.59
450.48	671.45
450.85	663.10
451.22	655.86
451.59	648.97
451.96	642.51
452.33	633.62
452.70	625.54
453.07	615.79
453.43	605.83
453.80	596.33
454.17	587.35
454.54	578.71
454.91	569.38
455.28	560.28
455.65	551.67
456.02	543.20
456.38	535.95
456.75	526.73
457.12	519.00
457.49	511.40
457.86	504.00
458.23	497.63
458.59	490.62
458.96	483.80
459.33	477.65
459.70	471.37
460.07	466.37
460.43	460.79
460.80	455.40
461.17	450.63
461.54	445.76
461.91	441.02
462.27	436.35
462.64	432.42
463.01	427.93
463.38	423.68
463.74	419.12
464.11	415.30
464.48	412.09
464.85	408.58
465.21	406.04
465.58	403.09
465.95	399.55
466.32	396.65
466.68	393.65
467.05	390.71
467.42	387.82
467.78	384.84
468.15	381.89
468.52	379.69
468.88	376.78
469.25	374.20
469.62	372.08
469.98	369.78
470.35	367.57
470.72	365.68
471.08	363.55
471.45	361.83
471.82	359.90
472.18	357.84
472.55	356.30
472.92	354.35
473.28	352.75
473.65	351.12
474.02	349.60
474.38	348.42
474.75	347.46
475.11	346.17
475.48	345.15
475.85	344.32
476.21	343.48
476.58	342.85
476.94	342.42
477.31	341.81
477.67	341.12
478.04	340.74
478.41	340.22
478.77	340.18
479.14	339.78
479.50	339.63
479.87	339.52
480.23	339.49
480.60	339.40
480.96	339.23
481.33	339.63
481.69	339.92
482.06	339.92
482.42	339.82
482.79	339.96
483.15	340.32
483.52	340.75
483.88	341.14
484.25	341.69
484.61	341.98
484.98	342.43
485.34	343.28
485.71	343.99
486.07	345.04
486.44	345.54
486.80	346.36
487.17	347.36
487.53	348.55
487.90	349.66
488.26	351.11
488.62	352.61
488.99	353.79
489.35	355.05
489.72	356.63
490.08	358.26
490.44	360.02
490.81	361.82
491.17	363.50
491.54	365.37
491.90	367.25
492.26	369.36
492.63	371.38
492.99	373.40
493.36	375.60
493.72	377.76
494.08	380.14
494.45	382.71
494.81	385.32
495.17	387.82
495.54	390.58
495.90	393.09
496.26	395.67
496.63	398.52
496.99	401.44
497.35	404.38
497.72	407.42
498.08	410.39
498.44	413.36
498.80	416.61
499.17	419.72
499.53	422.79
499.89	425.99
500.26	429.24
500.62	432.37
500.98	435.65
501.34	438.92
501.71	442.26
502.07	445.46
502.43	448.57
502.79	451.59
503.16	454.69
503.52	457.84
503.88	461.01
504.24	464.06
504.60	467.06
504.97	470.07
505.33	472.86
505.69	476.01
506.05	479.00
506.41	481.86
506.78	484.70
507.14	487.30
507.50	490.01
507.86	492.70
508.22	495.34
508.59	497.74
508.95	500.15
509.31	502.56
509.67	504.82
510.03	507.01
510.39	509.53
510.75	511.78
511.12	513.90
511.48	515.80
511.84	517.69
512.20	519.70
512.56	521.67
512.92	523.64
513.28	525.33
513.64	526.75
514.00	528.24
514.37	529.65
514.73	531.24
515.09	532.61
515.45	533.77
515.81	535.01
516.17	536.25
516.53	537.26
516.89	538.20
517.25	539.06
517.61	540.11
517.97	540.84
518.33	541.48
518.69	542.26
519.05	543.16
519.41	543.97
519.77	544.85
520.13	545.36
520.49	545.93
520.85	546.46
521.21	547.17
521.57	547.80
521.93	548.10
522.29	548.70
522.65	549.05
523.01	549.61
523.37	549.95
523.73	550.40
524.09	550.81
524.45	551.24
524.81	551.87
525.17	552.32
525.53	552.92
525.89	553.54
526.25	554.03
526.61	554.40
526.97	554.76
527.33	555.09
527.68	556.02
528.04	556.55
528.40	557.00
528.76	557.67
529.12	558.30
529.48	559.40
529.84	560.09
530.20	560.93
530.56	561.83
530.91	562.92
531.27	564.00
531.63	565.12
531.99	566.14
532.35	567.10
532.71	568.28
533.07	569.53
533.42	571.06
533.78	572.39
534.14	573.86
534.50	575.45
534.86	577.09
535.21	578.29
535.57	580.10
535.93	581.64
536.29	583.40
536.65	585.05
537.00	586.53
537.36	588.11
537.72	589.93
538.08	591.79
538.44	593.64
538.79	595.45
539.15	597.39
539.51	599.50
539.87	601.62
540.22	603.68
540.58	605.85
540.94	607.75
541.29	610.02
541.65	612.10
542.01	614.37
542.37	616.30
542.72	618.50
543.08	620.44
543.44	622.93
543.79	624.77
544.15	627.14
544.51	629.80
544.87	632.33
545.22	634.76
545.58	637.05
545.94	639.33
546.29	641.64
546.65	643.76
547.01	646.03
547.36	648.46
547.72	650.72
548.07	653.00
548.43	655.29
548.79	657.45
549.14	659.71
549.50	661.92
549.86	664.42
550.21	666.90
550.57	669.72
550.92	672.06
551.28	674.80
551.64	677.18
551.99	679.63
552.35	682.05
552.70	684.30
553.06	686.82
553.41	689.30
553.77	691.98
554.13	694.82
554.48	697.45
554.84	700.30
555.19	702.99
555.55	705.70
555.90	708.04
556.26	710.34
556.61	712.89
556.97	715.30
557.32	717.64
557.68	719.90
558.03	721.91
558.39	724.09
558.74	726.38
559.10	728.63
559.45	730.81
559.81	733.14
560.16	735.22
560.52	737.39
560.87	739.54
561.23	741.21
561.58	743.40
561.94	745.18
562.29	746.72
562.64	748.60
563.00	750.21
563.35	752.28
563.71	754.70
564.06	756.52
564.42	758.47
564.77	760.63
565.12	762.53
565.48	764.80
565.83	766.91
566.19	768.81
566.54	770.58
566.89	772.16
567.25	774.13
567.60	776.29
567.96	778.29
568.31	780.26
568.66	782.11
569.02	783.21
569.37	784.72
569.72	786.38
570.08	787.75
570.43	789.05
570.78	790.20
571.14	790.99
571.49	792.10
571.84	793.23
572.20	794.04
572.55	794.95
572.90	795.34
573.26	795.69
573.61	795.97
573.96	796.39
574.31	796.64
574.67	796.53
575.02	796.30
575.37	796.09
575.72	795.63
576.08	795.73
576.43	795.64
576.78	795.56
577.13	795.30
577.49	795.15
577.84	794.91
578.19	794.75
578.54	794.98
578.90	795.00
579.25	794.45
579.60	793.73
579.95	793.07
580.30	792.68
580.66	792.45
581.01	791.83
581.36	791.21
581.71	790.54
582.06	790.14
582.42	789.51
582.77	788.75
583.12	788.21
583.47	787.49
583.82	786.91
584.17	786.29
584.53	785.66
584.88	784.74
585.23	784.06
585.58	782.99
585.93	781.64
586.28	780.61
586.63	779.80
586.98	779.03
587.34	778.40
587.69	777.32
588.04	776.21
588.39	775.65
588.74	774.52
589.09	773.94
589.44	772.61
589.79	771.76
590.14	770.72
590.49	769.60
590.84	768.40
591.19	767.53
591.54	766.15
591.89	764.58
592.25	763.71
592.60	762.23
592.95	760.91
593.30	759.38
593.65	757.75
594.00	756.05
594.35	755.56
594.70	753.85
595.05	752.50
595.40	751.03
595.75	749.15
596.10	747.89
596.45	746.34
596.80	745.12
597.15	743.88
597.50	742.20
597.85	740.85
598.19	739.03
598.54	737.38
598.89	736.04
599.24	734.96
599.59	733.06
599.94	731.60
600.29	730.16
600.64	728.55
600.99	727.03
601.34	725.55
601.69	722.86
602.04	721.13
602.39	719.40
602.74	717.88
603.08	716.51
603.43	715.11
603.78	713.29
604.13	711.41
604.48	709.61
604.83	708.30
605.18	706.71
605.53	704.99
605.87	703.24
606.22	701.43
606.57	699.36
606.92	697.32
607.27	695.35
607.62	693.46
607.96	691.91
608.31	690.06
608.66	688.26
609.01	686.39
609.36	684.50
609.70	682.46
610.05	680.15
610.40	678.03
610.75	675.68
611.10	673.84
611.44	671.64
611.79	669.13
612.14	666.84
612.49	664.20
612.83	662.26
613.18	659.83
613.53	657.57
613.88	655.19
614.22	653.23
614.57	651.02
614.92	648.85
615.27	646.49
615.61	644.28
615.96	642.16
616.31	640.10
616.65	638.20
617.00	636.06
617.35	634.02
617.70	631.71
618.04	629.35
618.39	626.73
618.74	624.55
619.08	622.32
619.43	620.00
619.78	617.91
620.12	615.64
620.47	613.62
620.82	611.10
621.16	608.72
621.51	606.54
621.85	604.24
622.20	601.94
622.55	599.51
622.89	597.13
623.24	594.67
623.59	592.07
623.93	589.64
624.28	587.40
624.62	585.55
624.97	583.41
625.32	581.25
625.66	579.16
626.01	576.85
626.35	574.76
626.70	572.44
627.04	570.44
627.39	568.15
627.73	565.93
628.08	564.12
628.43	562.10
628.77	559.61
629.12	557.46
629.46	555.29
629.81	553.28
630.15	551.04
630.50	548.85
630.84	546.74
631.19	544.56
631.53	542.28
631.88	539.60
632.22	537.26
632.57	535.25
632.91	533.01
633.26	530.85
633.60	528.65
633.95	526.75
634.29	524.38
634.64	522.49
634.98	520.25
635.32	518.23
635.67	516.31
636.01	514.51
636.36	512.41
636.70	510.56
637.05	508.53
637.39	506.64
637.73	504.85
638.08	503.29
638.42	501.47
638.77	499.77
639.11	497.96
639.45	496.19
639.80	494.03
640.14	492.09
640.49	490.20
640.83	488.32
641.17	486.38
641.52	484.52
641.86	482.45
642.20	480.69
642.55	478.42
642.89	476.33
643.23	474.36
643.58	472.72
643.92	470.61
644.26	468.75
644.61	466.90
644.95	464.89
645.29	462.74
645.64	460.84
645.98	458.90
646.32	457.12
646.66	455.08
647.01	453.28
647.35	451.56
647.69	449.69
648.04	447.91
648.38	445.97
648.72	444.18
649.06	442.38
649.41	440.43
649.75	438.61
650.09	436.86
650.43	434.97
650.78	432.92
651.12	431.04
651.46	429.20
651.80	427.48
652.14	425.79
652.49	424.14
652.83	422.27
653.17	420.25
653.51	418.23
653.85	416.54
654.20	414.76
654.54	412.84
654.88	411.12
655.22	409.40
655.56	407.59
655.90	405.70
656.25	403.87
656.59	402.10
656.93	400.47
657.27	398.81
657.61	397.02
657.95	395.51
658.29	393.91
658.64	392.34
658.98	390.49
659.32	388.62
659.66	386.81
660.00	385.15
660.34	383.57
660.68	382.03
661.02	380.48
661.36	379.03
661.70	377.49
662.05	375.89
662.39	374.40
662.73	373.09
663.07	371.86
663.41	370.51
663.75	369.05
664.09	367.66
664.43	366.13
664.77	364.78
665.11	363.17
665.45	361.82
665.79	360.39
666.13	359.07
666.47	357.81
666.81	356.49
667.15	355.08
667.49	353.91
667.83	352.71
668.17	351.31
668.51	349.95
668.85	348.86
669.19	347.85
669.53	346.51
669.87	345.19
670.21	343.80
670.55	342.49
670.89	341.56
671.23	340.44
671.57	339.31
671.91	338.19
672.25	337.09
672.58	335.97
672.92	334.83
673.26	333.78
673.60	332.65
673.94	331.55
674.28	330.50
674.62	329.52
674.96	328.38
675.30	327.50
675.64	326.44
675.97	325.34
676.31	324.19
676.65	323.20
676.99	322.38
677.33	321.38
677.67	320.49
678.01	319.28
678.34	318.26
678.68	317.38
679.02	316.36
679.36	315.41
679.70	314.46
680.04	313.48
680.37	312.44
680.71	311.47
681.05	310.67
681.39	309.81
681.73	308.85
682.06	308.03
682.40	306.98
682.74	306.16
683.08	305.32
683.42	304.39
683.75	303.54
684.09	302.51
684.43	301.69
684.77	300.68
685.10	299.85
685.44	298.87
685.78	297.95
686.12	297.15
686.45	296.37
686.79	295.46
687.13	294.74
687.46	294.01
687.80	293.34
688.14	292.46
688.48	291.66
688.81	290.78
689.15	290.09
689.49	289.31
689.82	288.50
690.16	287.56
690.50	286.80
690.83	285.95
691.17	285.10
691.51	284.22
691.84	283.55
692.18	282.81
692.52	282.18
692.85	281.57
693.19	280.95
693.52	280.24
693.86	279.55
694.20	278.91
694.53	278.09
694.87	277.37
695.21	276.61
695.54	275.91
695.88	275.10
696.21	274.17
696.55	273.54
696.88	272.86
697.22	272.32
697.56	271.80
697.89	271.14
698.23	270.55
698.56	269.98
698.90	269.44
699.23	268.73
699.57	268.18
699.90	267.50
700.24	266.80
700.58	266.12
700.91	265.62
701.25	265.22
701.58	264.90
701.92	264.36
702.25	263.86
702.59	263.35
702.92	262.94
703.26	262.44
703.59	261.95
703.93	261.80
704.26	261.20
704.60	260.60
704.93	260.11
705.26	259.53
705.60	259.12
705.93	258.57
706.27	258.21
706.60	257.84
706.94	257.55
707.27	257.05
707.61	256.63
707.94	256.14
708.27	255.42
708.61	254.80
708.94	254.33
709.28	253.90
709.61	253.34
709.94	252.90
710.28	252.51
710.61	252.10
710.95	251.31
711.28	251.15
711.61	250.75
711.95	250.39
712.28	250.01
712.61	249.58
712.95	249.31
713.28	249.11
713.61	248.59
713.95	248.07
714.28	247.73
714.61	247.34
714.95	246.91
715.28	246.45
715.61	246.11
715.95	245.73
716.28	245.30
716.61	245.02
716.95	244.64
717.28	244.29
717.61	243.91
717.94	243.58
718.28	243.00
718.61	242.63
718.94	242.27
719.27	241.89
719.61	241.63
719.94	241.23
720.27	240.72
720.60	240.35
720.94	240.01
721.27	239.73
721.60	239.48
721.93	239.19
722.27	239.08
722.60	238.83
722.93	238.55
723.26	238.39
723.59	237.99
723.93	237.73
724.26	237.43
724.59	237.15
724.92	236.85
725.25	236.68
725.59	236.50
725.92	236.29
726.25	236.15
726.58	235.89
726.91	235.63
727.24	235.38
727.57	235.16
727.91	234.82
728.24	234.59
728.57	234.34
728.90	234.17
729.23	233.78
729.56	233.76
729.89	233.50
730.22	233.21
730.55	233.05
730.89	232.95
731.22	232.71
731.55	232.48
731.88	232.35
732.21	232.07
732.54	231.79
732.87	231.60
733.20	231.40
733.53	231.11
733.86	230.94
734.19	230.67
734.52	230.46
734.85	230.58
735.18	230.37
735.51	230.29
735.84	230.09
736.17	230.05
736.50	229.62
736.83	229.88
737.16	229.71
737.49	229.55
737.82	229.26
738.15	229.14
738.48	228.93
738.81	228.68
739.14	228.44
739.47	228.27
739.80	228.04
740.13	227.89
740.46	227.73
740.79	227.54
741.12	227.44
741.45	227.26
741.78	226.91
742.11	226.79
742.44	226.48
742.77	226.35
743.10	226.06
743.43	225.91
743.75	225.37
744.08	225.66
744.41	225.47
744.74	225.32
745.07	225.07
745.40	225.07
745.73	225.04
746.06	224.98
746.39	224.84
746.71	224.66
747.04	224.43
747.37	224.37
747.70	224.26
748.03	224.09
748.36	224.08
748.68	223.88
749.01	223.69
749.34	223.60
749.67	223.42
750.00	223.44
750.33	223.56
750.65	223.45
750.98	222.92
751.31	222.80
751.64	222.69
751.97	222.92
752.29	222.72
752.62	222.54
752.95	222.31
753.28	222.15
753.60	222.10
753.93	222.11
754.26	221.97
754.59	221.75
754.91	221.62
755.24	221.46
755.57	221.39
755.90	221.29
756.22	221.13
756.55	221.01
756.88	220.75
757.20	220.39
757.53	220.17
757.86	220.03
758.19	219.96
758.51	219.87
758.84	219.46
759.17	219.31
759.49	219.20
759.82	219.37
760.15	219.34
760.47	219.21
760.80	219.06
761.13	218.99
761.45	218.95
761.78	218.87
762.11	218.78
762.43	218.73
762.76	218.64
763.08	218.61
763.41	218.62
763.74	218.64
764.06	218.57
764.39	218.56
764.71	218.45
765.04	218.34
765.37	218.18
765.69	218.19
766.02	218.16
766.34	218.07
766.67	217.91
767.00	217.88
767.32	218.00
767.65	218.07
767.97	217.97
768.30	217.91
768.62	217.81
768.95	217.68
769.27	217.58
769.60	217.54
769.92	217.44
770.25	217.27
770.57	217.16
770.90	217.10
771.22	217.00
771.55	217.00
771.87	216.99
772.20	216.95
772.52	217.10
772.85	217.46
773.17	217.41
773.50	217.31
773.82	217.17
774.15	216.97
774.47	216.74
774.80	216.68
775.12	216.62
775.45	216.57
775.77	216.61
776.09	216.63
776.42	216.65
776.74	216.72
777.07	216.62
777.39	216.55
777.72	216.47
778.04	216.43
778.36	216.30
778.69	216.22
779.01	216.26
779.33	216.01
779.66	215.52
779.98	215.46
780.31	215.42
780.63	215.59
780.95	215.53
781.28	215.48
781.60	215.34
781.92	215.30
782.25	215.28
782.57	215.17
782.89	215.09
783.22	214.98
783.54	214.85
783.86	214.94
784.19	214.87
784.51	214.91
784.83	214.85
785.16	214.83
785.48	214.83
785.80	214.75
786.12	214.73
786.45	214.73
786.77	214.74
787.09	214.66
787.42	214.51
787.74	214.60
788.06	214.63
788.38	214.64
788.71	214.60
789.03	214.57
789.35	214.66
789.67	214.59
789.99	214.60
790.32	214.53
790.64	214.47
790.96	214.78
791.28	214.72
791.61	214.67
791.93	214.67
792.25	214.62
792.57	214.88
792.89	214.79
793.21	214.82
793.54	214.77
793.86	214.73
794.18	214.72
794.50	214.55
794.82	214.53
795.14	214.55
795.47	214.59
795.79	214.54
796.11	214.33
796.43	214.33
796.75	214.30
797.07	214.32
797.39	214.27
797.71	213.90
798.04	213.92
798.36	213.96
798.68	213.94
799.00	213.95
799.32	213.75
799.64	213.80
799.96	213.78
800.28	213.80
800.60	213.85
800.92	213.78
801.24	213.75
801.56	213.73
801.89	213.68
802.21	213.60
802.53	213.56
802.85	213.64
803.17	213.67
803.49	213.59
803.81	213.53
804.13	213.56
804.45	213.63
804.77	213.57
805.09	213.49
805.41	213.41
805.73	213.28
806.05	213.19
806.37	213.09
806.69	213.05
807.01	213.02
807.33	212.99
807.65	212.90
807.97	213.08
808.28	213.05
808.60	212.98
808.92	212.98
809.24	213.17
809.56	213.12
809.88	213.00
810.20	213.01
810.52	213.14
810.84	213.06
811.16	212.99
811.48	212.94
811.80	213.08
812.12	213.12
812.43	213.26
812.75	213.26
813.07	213.28
813.39	213.30
813.71	213.26
814.03	213.20
814.35	213.15
814.67	213.04
814.98	212.98
815.30	212.99
815.62	212.96
815.94	212.70
816.26	212.69
816.58	212.63
816.89	212.60
817.21	212.49
817.53	212.49
817.85	212.54
818.17	212.60
818.48	212.50
818.80	212.56
819.12	212.50
819.44	212.51
819.76	212.45
820.07	212.49
820.39	212.37
820.71	212.37
821.03	212.50
821.34	212.42
821.66	212.44
821.98	212.51
822.30	212.45
822.61	212.68
822.93	212.70
823.25	212.79
823.57	212.85
823.88	212.93
824.20	212.89
824.52	212.89
824.83	212.82
825.15	212.77
825.47	212.78
825.79	212.78
826.10	212.60
826.42	212.55
826.74	212.52
827.05	212.54
827.37	212.52
827.69	212.43
828.00	212.43
828.32	212.42
828.64	212.36
828.95	212.54
829.27	212.50
829.58	212.50
829.90	212.48
830.22	212.37
830.53	212.24
830.85	212.26
831.17	212.11
831.48	212.15
831.80	212.17
832.11	212.06
832.43	211.99
832.75	212.06
833.06	212.27
833.38	212.17
833.69	212.21
834.01	212.24
834.32	212.20
834.64	212.20
834.96	212.15
835.27	212.11
835.59	212.05
835.90	211.87
836.22	211.83
836.53	211.75
836.85	211.85
837.16	212.10
837.48	212.10
837.79	212.25
838.11	212.24
838.42	212.16
838.74	212.23
839.05	212.18
839.37	212.09
839.68	211.85
840.00	211.78
840.31	211.75
840.63	211.69
840.94	211.63
841.26	211.55
841.57	211.61
841.88	211.67
842.20	211.61
842.51	211.65
842.83	211.60
843.14	211.92
843.46	211.82
843.77	211.67
844.08	211.61
844.40	211.49
844.71	211.34
845.03	211.30
845.34	211.26
845.65	211.22
845.97	211.32
846.28	211.29
846.60	211.34
846.91	211.32
847.22	211.30
847.54	211.46
847.85	211.52
848.16	211.40
848.48	211.29
848.79	211.40
849.10	211.44
849.42	211.53
849.73	211.24
850.04	211.20
850.36	211.08
850.67	211.13
850.98	211.18
851.30	211.27
851.61	211.31
851.92	211.33
852.23	211.49
852.55	211.45
852.86	211.48
853.17	211.57
853.49	211.61
853.80	211.72
854.11	211.70
854.42	211.77
854.74	211.79
855.05	211.90
855.36	211.74
855.67	211.69
855.99	211.53
856.30	211.88
856.61	211.92
856.92	212.00
857.23	211.96
857.55	211.89
857.86	211.85
858.17	211.90
858.48	211.81
858.79	211.75
859.11	211.82
859.42	211.86
859.73	211.80
860.04	211.81
860.35	211.74
860.66	211.64
860.98	211.58
861.29	211.61
861.60	211.54
861.91	211.58
862.22	211.60
862.53	211.62
862.84	211.27
863.16	211.40
863.47	211.29
863.78	211.30
864.09	211.38
864.40	211.39
864.71	211.36
865.02	211.43
865.33	211.36
865.64	211.36
865.95	211.33
866.27	211.50
866.58	211.47
866.89	211.50
867.20	211.48
867.51	211.47
867.82	211.48
868.13	211.50
868.44	211.43
868.75	211.44
869.06	211.45
869.37	211.45
869.68	211.26
869.99	211.30
870.30	211.34
870.61	211.35
870.92	211.29
871.23	211.36
871.54	211.37
871.85	211.49
872.16	211.45
872.47	211.48
872.78	211.30
873.09	211.33
873.40	211.26
873.71	211.27
874.02	211.25
874.33	211.21
874.64	211.16
874.95	211.31
875.26	211.23
875.56	211.31
875.87	211.28
876.18	211.29
876.49	211.66
876.80	211.59
877.11	211.53
877.42	211.56
877.73	211.51
878.04	211.37
878.35	211.39
878.66	211.36
878.96	211.29
879.27	211.28
879.58	211.21
879.89	211.19
880.20	211.28
880.51	211.30
880.82	211.34
881.12	211.40
881.43	211.22
881.74	211.23
882.05	211.20
882.36	211.20
882.67	211.25
882.97	210.88
883.28	210.82
883.59	210.79
883.90	210.90
884.21	210.96
884.51	211.08
884.82	210.98
885.13	211.01
885.44	211.01
885.74	211.07
886.05	211.06
886.36	211.08
886.67	210.90
886.98	211.06
887.28	211.05
887.59	211.05
887.90	211.11
888.20	211.12
888.51	211.15
888.82	211.11
889.13	211.16
889.43	211.30
889.74	211.38
890.05	211.40
890.35	211.29
890.66	211.27
890.97	211.18
891.28	211.16
891.58	211.12
891.89	211.18
892.20	211.02
892.50	211.02
892.81	210.96
893.12	211.07
893.42	210.88
893.73	210.98
894.04	210.95
894.34	211.03
894.65	211.05
894.95	211.00
895.26	211.04
895.57	211.17
895.87	210.92
896.18	210.93
896.48	210.93
896.79	211.00
897.10	210.99
897.40	211.06
897.71	211.12
898.01	211.08
898.32	211.12
898.63	211.15
898.93	211.18
899.24	211.27
899.54	211.25
899.85	211.27
900.15	211.21
900.46	211.21
900.76	211.17
901.07	211.15
901.38	211.23
901.68	211.25
901.99	211.06
902.29	211.06
902.60	211.01
902.90	210.97
903.21	210.92
903.51	210.90
903.82	210.91
904.12	210.90
904.43	210.99
904.73	210.92
905.03	210.96
905.34	211.28
905.64	211.26
905.95	211.27
906.25	211.18
906.56	211.10
906.86	211.17
907.17	211.14
907.47	211.17
907.77	211.09
908.08	211.01
908.38	211.07
908.69	211.12
908.99	211.19
909.30	211.26
909.60	211.27
909.90	211.25
910.21	211.17
910.51	211.12
910.81	211.07
911.12	211.10
911.42	211.12
911.73	210.77
912.03	210.75
912.33	210.76
912.64	210.86
912.94	210.88
913.24	210.80
913.55	210.77
913.85	210.66
914.15	210.74
914.46	210.86
914.76	210.80
915.06	210.80
915.37	210.70
915.67	210.64
915.97	210.70
916.27	210.68
916.58	210.71
916.88	210.70
917.18	210.64
917.49	210.79
917.79	210.75
918.09	210.82
918.39	210.90
918.70	210.85
919.00	210.77
919.30	210.96
919.60	210.91
919.91	210.90
920.21	210.99
920.51	210.94
920.81	210.90
921.12	211.00
921.42	211.02
921.72	211.12
922.02	211.17
922.32	211.17
922.63	211.19
922.93	211.32
923.23	211.36
923.53	211.37
923.83	211.24
924.13	211.30
924.44	211.30
924.74	211.38
925.04	211.44
925.34	211.53
925.64	211.38
925.94	211.38
926.24	211.53
926.55	211.45
926.85	211.48
927.15	211.45
927.45	211.41
927.75	211.33
928.05	211.34
928.35	211.38
928.65	211.47
928.95	211.49
929.26	211.39
929.56	211.42
929.86	211.51
930.16	211.47
930.46	211.49
930.76	211.50
931.06	211.33
931.36	211.32
931.66	211.29
931.96	211.32
932.26	211.41
932.56	211.29
932.86	211.40
933.16	211.36
933.46	211.35
933.76	211.34
934.06	211.51
934.36	211.59
934.66	211.51
934.96	211.39
935.26	211.35
935.56	211.44
935.86	211.35
936.16	211.29
936.46	211.30
936.76	211.25
937.06	211.22
937.36	211.19
937.66	211.19
937.96	211.21
938.26	211.14
938.56	211.04
938.86	211.00
939.16	210.99
939.46	211.01
939.76	211.06
940.06	211.00
940.35	210.87
940.65	210.72
940.95	210.77
941.25	210.72
941.55	210.68
941.85	210.62
942.15	210.75
942.45	210.85
942.75	210.84
943.04	210.88
943.34	210.89
943.64	210.93
943.94	210.92
944.24	210.89
944.54	210.94
944.84	210.99
945.13	210.99
945.43	210.97
945.73	210.94
946.03	210.89
946.33	210.85
946.62	210.85
946.92	210.79
947.22	210.82
947.52	210.89
947.82	211.04
948.11	211.04
948.41	210.89
948.71	210.75
949.01	210.73
949.31	210.64
949.60	210.61
949.90	210.72
950.20	210.67
950.50	210.68
950.79	210.61
951.09	210.59
951.39	210.62
951.69	210.61
951.98	210.74
952.28	210.67
952.58	210.76
952.87	210.70
953.17	210.77
953.47	210.70
953.76	210.75
954.06	210.61
954.36	210.53
954.66	210.64
954.95	210.79
955.25	210.82
955.55	210.90
955.84	210.86
956.14	210.87
956.44	210.85
956.73	210.85
957.03	210.84
957.32	210.89
957.62	210.80
957.92	210.86
958.21	210.80
958.51	211.23
958.81	211.21
959.10	211.36
959.40	211.44
959.69	211.50
959.99	211.47
960.29	211.50
960.58	211.51
960.88	211.65
961.17	211.58
961.47	211.56
961.76	211.51
962.06	211.59
962.36	211.57
962.65	211.58
962.95	211.54
963.24	211.59
963.54	211.65
963.83	211.75
964.13	211.64
964.42	211.61
964.72	211.34
965.01	211.37
965.31	211.28
965.60	211.20
965.90	211.44
966.19	211.37
966.49	211.46
966.78	211.46
967.08	211.38
967.37	211.37
967.67	211.33
967.96	211.40
968.26	211.39
968.55	211.40
968.85	211.41
969.14	211.48
969.43	211.43
969.73	211.40
970.02	211.40
970.32	211.51
970.61	211.47
970.91	211.40
971.20	211.38
971.49	211.35
971.79	211.44
972.08	211.16
972.38	211.19
972.67	211.08
972.96	211.12
973.26	211.07
973.55	211.21
973.85	211.17
974.14	211.14
974.43	211.15
974.73	211.04
975.02	211.03
975.31	210.99
975.61	211.02
975.90	211.01
976.19	210.92
976.49	210.93
976.78	211.00
977.07	210.97
977.37	210.97
977.66	211.02
977.95	210.93
978.24	210.94
978.54	211.01
978.83	211.03
979.12	210.96
979.42	210.96
979.71	210.85
980.00	210.90
980.29	210.95
980.59	210.89
980.88	211.05
981.17	211.08
981.46	211.04
981.76	211.02
982.05	211.13
982.34	211.20
982.63	211.08
982.93	211.07
983.22	211.11
983.51	211.09
983.80	211.18
984.09	211.22
984.39	211.20
984.68	211.12
984.97	211.12
985.26	211.18
985.55	211.18
985.85	211.13
986.14	211.15
986.43	211.14
986.72	211.15
987.01	211.02
987.30	210.94
987.59	210.98
987.89	211.00
988.18	210.83
988.47	210.80
988.76	210.81
989.05	210.77
989.34	210.70
989.63	210.86
989.92	210.81
990.22	210.72
990.51	210.72
990.80	210.69
991.09	210.74
991.38	210.70
991.67	210.60
991.96	210.53
992.25	210.54
992.54	210.49
992.83	210.40
993.12	210.38
993.41	210.47
993.70	210.56
993.99	210.66
994.28	210.65
994.58	210.73
994.87	210.65
995.16	210.60
995.45	210.56
995.74	210.36
996.03	210.39
996.32	210.45
996.61	210.50
996.90	210.50
997.19	210.48
997.48	210.52
997.77	210.60
998.06	210.64
998.34	210.61
998.63	210.57
998.92	210.60
999.21	210.65
999.50	210.65
999.79	210.58
1000.08	210.51
1000.37	210.53
1000.66	210.39
1000.95	210.52
1001.24	210.62
1001.53	210.75
1001.82	210.76
1002.11	210.61
1002.40	210.68
1002.68	210.79
1002.97	211.07
1003.26	211.03
1003.55	210.95
1003.84	210.94
1004.13	211.13
1004.42	211.11
1004.71	211.13
1004.99	211.14
1005.28	211.20
1005.57	211.20
1005.86	211.11
1006.15	211.18
1006.44	211.13
1006.72	211.19
1007.01	211.19
1007.30	211.11
1007.59	211.07
1007.88	211.12
1008.17	211.14
1008.45	211.06
1008.74	210.90
1009.03	210.73
1009.32	210.75
1009.60	210.76
1009.89	210.74
1010.18	210.53
1010.47	210.51
1010.76	210.51
1011.04	210.53
1011.33	210.55
1011.62	210.60
1011.91	210.66
1012.19	210.62
1012.48	210.70
1012.77	210.73
1013.05	210.83
1013.34	210.83
1013.63	210.72
1013.92	210.65
1014.20	210.67
1014.49	210.69
1014.78	210.66
1015.06	210.63
1015.35	210.62
1015.64	210.67
1015.92	210.73
1016.21	210.76
1016.50	210.85
1016.78	210.85
1017.07	210.87
1017.36	210.84
1017.64	210.79
1017.93	210.83
1018.22	210.77
1018.50	210.72
1018.79	210.70
1019.08	210.60
1019.36	210.69
1019.65	210.69
1019.93	210.85
1020.22	210.91
1020.51	211.13
1020.79	211.18
1021.08	210.20
1021.36	209.75
1021.65	210.85
1021.94	211.40
1022.22	211.60
1022.51	209.00
1022.79	212.90
1023.08	211.05
1023.36	215.85
1023.65	210.80
>>>>>End Processed Spectral Data<<<<<
