SpectraSuite Data File
++++++++++++++++++++++++++++++++++++
Date: Mon Feb 25 17:17:01 EST 2013
User: group
Dark Spectrum Present: No
Reference Spectrum Present: No
Number of Sampled Component Spectra: 1
Spectrometers: USB2E7196
Integration Time (usec): 104000 (USB2E7196)
Spectra Averaged: 20 (USB2E7196)
Boxcar Smoothing: 10 (USB2E7196)
Correct for Electrical Dark: No (USB2E7196)
Strobe/Lamp Enabled: No (USB2E7196)
Correct for Detector Non-linearity: No (USB2E7196)
Correct for Stray Light: No (USB2E7196)
Number of Pixels in Processed Spectrum: 2048
>>>>>Begin Processed Spectral Data<<<<<
339.09	0.00
339.48	199.20
339.86	201.05
340.24	201.10
340.63	204.15
341.01	210.60
341.39	204.80
341.78	209.20
342.16	210.05
342.54	210.25
342.93	198.99
343.31	208.99
343.69	209.50
344.07	209.97
344.46	210.49
344.84	210.89
345.22	210.94
345.60	211.35
345.99	211.53
346.37	211.66
346.75	211.76
347.13	211.83
347.52	211.92
347.90	212.12
348.28	212.19
348.66	212.35
349.05	212.17
349.43	212.22
349.81	212.31
350.19	212.35
350.57	212.47
350.96	212.59
351.34	212.66
351.72	212.77
352.10	212.90
352.48	213.00
352.87	213.02
353.25	213.06
353.63	213.02
354.01	213.02
354.39	213.10
354.77	213.13
355.15	213.29
355.54	213.32
355.92	213.23
356.30	213.24
356.68	213.42
357.06	213.57
357.44	213.51
357.82	213.53
358.20	213.65
358.58	213.65
358.97	213.67
359.35	213.82
359.73	213.97
360.11	214.01
360.49	214.01
360.87	214.01
361.25	214.13
361.63	214.26
362.01	214.32
362.39	214.25
362.77	214.31
363.15	214.22
363.53	214.13
363.91	214.18
364.29	214.21
364.67	213.83
365.05	213.77
365.43	213.83
365.81	213.80
366.19	213.88
366.57	214.02
366.95	214.06
367.33	214.06
367.71	213.96
368.09	213.89
368.47	213.81
368.85	213.85
369.23	213.88
369.61	213.73
369.99	213.85
370.37	213.86
370.75	213.99
371.13	213.97
371.51	213.95
371.89	213.98
372.27	213.96
372.65	214.05
373.03	214.09
373.41	214.02
373.78	214.04
374.16	213.89
374.54	213.69
374.92	213.53
375.30	213.50
375.68	213.43
376.06	213.49
376.44	213.45
376.82	213.39
377.19	213.30
377.57	213.30
377.95	213.12
378.33	213.10
378.71	212.81
379.09	212.77
379.47	212.86
379.84	212.73
380.22	212.66
380.60	212.56
380.98	212.53
381.36	212.50
381.73	212.45
382.11	212.41
382.49	212.37
382.87	212.37
383.25	212.23
383.62	212.61
384.00	212.50
384.38	212.50
384.76	212.52
385.13	212.60
385.51	212.56
385.89	212.42
386.27	212.41
386.64	212.47
387.02	212.45
387.40	212.36
387.78	212.45
388.15	212.48
388.53	212.43
388.91	212.37
389.29	212.31
389.66	212.34
390.04	212.31
390.42	212.44
390.79	212.50
391.17	212.51
391.55	212.21
391.92	212.20
392.30	212.21
392.68	212.16
393.05	212.07
393.43	212.14
393.81	212.21
394.18	212.13
394.56	212.13
394.94	212.23
395.31	212.26
395.69	212.35
396.06	212.37
396.44	212.42
396.82	212.39
397.19	212.63
397.57	212.60
397.95	212.71
398.32	212.57
398.70	212.58
399.07	212.68
399.45	212.56
399.82	212.55
400.20	212.56
400.58	212.53
400.95	212.49
401.33	212.59
401.70	212.85
402.08	212.92
402.45	212.95
402.83	213.01
403.20	212.95
403.58	212.99
403.95	213.10
404.33	213.25
404.71	213.42
405.08	213.67
405.46	213.76
405.83	213.83
406.21	213.96
406.58	214.08
406.96	214.17
407.33	214.40
407.70	214.67
408.08	215.15
408.45	215.50
408.83	215.88
409.20	216.01
409.58	216.06
409.95	216.40
410.33	216.80
410.70	217.06
411.08	217.60
411.45	217.90
411.82	218.25
412.20	218.77
412.57	219.38
412.95	219.58
413.32	220.16
413.69	220.77
414.07	221.39
414.44	222.07
414.82	222.79
415.19	223.57
415.56	224.36
415.94	224.91
416.31	225.82
416.68	226.66
417.06	227.77
417.43	228.92
417.81	230.02
418.18	231.23
418.55	232.54
418.93	233.76
419.30	235.23
419.67	236.74
420.04	238.18
420.42	239.63
420.79	241.63
421.16	243.37
421.54	245.30
421.91	247.16
422.28	249.12
422.66	251.27
423.03	253.55
423.40	255.70
423.77	258.13
424.15	260.36
424.52	262.83
424.89	265.53
425.26	268.01
425.64	270.49
426.01	273.04
426.38	275.73
426.75	278.69
427.13	281.60
427.50	284.70
427.87	287.94
428.24	291.17
428.61	294.13
428.99	297.75
429.36	301.41
429.73	305.12
430.10	308.72
430.47	312.34
430.85	315.98
431.22	320.00
431.59	324.37
431.96	328.53
432.33	333.01
432.70	337.32
433.08	342.44
433.45	347.24
433.82	352.04
434.19	357.43
434.56	362.65
434.93	367.57
435.30	372.45
435.68	377.86
436.05	383.37
436.42	388.74
436.79	393.56
437.16	398.76
437.53	404.24
437.90	409.81
438.27	415.31
438.64	421.00
439.01	426.31
439.38	430.86
439.75	435.29
440.13	440.40
440.50	445.24
440.87	449.07
441.24	453.12
441.61	457.68
441.98	460.80
442.35	464.48
442.72	468.42
443.09	472.25
443.46	474.55
443.83	475.99
444.20	477.15
444.57	478.97
444.94	479.80
445.31	480.77
445.68	481.88
446.05	482.12
446.42	481.34
446.79	480.65
447.16	479.69
447.53	479.14
447.90	476.96
448.27	474.66
448.64	471.81
449.01	469.68
449.37	465.86
449.74	462.30
450.11	458.30
450.48	453.46
450.85	448.58
451.22	444.41
451.59	440.43
451.96	436.76
452.33	431.87
452.70	427.33
453.07	421.89
453.43	416.14
453.80	410.92
454.17	406.09
454.54	401.10
454.91	396.12
455.28	391.22
455.65	386.63
456.02	382.56
456.38	378.66
456.75	373.88
457.12	369.95
457.49	366.09
457.86	361.91
458.23	358.79
458.59	355.28
458.96	351.55
459.33	348.30
459.70	344.98
460.07	342.32
460.43	339.42
460.80	336.82
461.17	334.52
461.54	332.05
461.91	329.53
462.27	327.13
462.64	325.07
463.01	322.79
463.38	320.63
463.74	317.98
464.11	315.96
464.48	314.27
464.85	312.36
465.21	310.97
465.58	309.54
465.95	307.67
466.32	306.16
466.68	304.72
467.05	303.33
467.42	301.99
467.78	300.47
468.15	299.13
468.52	298.00
468.88	296.54
469.25	295.32
469.62	294.38
469.98	293.35
470.35	292.34
470.72	291.42
471.08	290.36
471.45	289.55
471.82	288.81
472.18	287.87
472.55	287.25
472.92	286.43
473.28	285.86
473.65	285.31
474.02	284.70
474.38	284.41
474.75	284.05
475.11	283.58
475.48	283.34
475.85	283.09
476.21	282.85
476.58	282.78
476.94	282.75
477.31	282.66
477.67	282.70
478.04	282.86
478.41	283.11
478.77	283.68
479.14	283.88
479.50	284.08
479.87	284.50
480.23	284.92
480.60	285.29
480.96	285.71
481.33	286.33
481.69	286.98
482.06	287.46
482.42	288.08
482.79	288.85
483.15	289.62
483.52	290.62
483.88	291.63
484.25	292.65
484.61	293.73
484.98	294.94
485.34	296.40
485.71	297.76
486.07	299.10
486.44	300.26
486.80	301.87
487.17	303.60
487.53	305.43
487.90	307.46
488.26	309.74
488.62	312.02
488.99	314.29
489.35	316.74
489.72	319.35
490.08	322.15
490.44	324.97
490.81	328.07
491.17	331.03
491.54	334.36
491.90	337.78
492.26	341.50
492.63	345.35
492.99	349.16
493.36	353.30
493.72	357.73
494.08	362.29
494.45	367.21
494.81	372.33
495.17	377.57
495.54	383.15
495.90	388.85
496.26	394.77
496.63	401.08
496.99	407.54
497.35	414.31
497.72	421.25
498.08	428.48
498.44	435.88
498.80	443.88
499.17	452.04
499.53	460.39
499.89	469.21
500.26	478.24
500.62	487.54
500.98	497.38
501.34	507.45
501.71	518.18
502.07	528.85
502.43	539.81
502.79	551.13
503.16	562.78
503.52	574.79
503.88	587.04
504.24	599.58
504.60	612.47
504.97	625.85
505.33	639.65
505.69	654.17
506.05	669.06
506.41	683.87
506.78	699.00
507.14	714.60
507.50	730.48
507.86	746.82
508.22	763.66
508.59	780.44
508.95	797.73
509.31	815.25
509.67	833.38
510.03	851.77
510.39	870.84
510.75	889.79
511.12	909.38
511.48	929.36
511.84	949.43
512.20	969.65
512.56	990.43
512.92	1011.43
513.28	1032.78
513.64	1053.92
514.00	1075.36
514.37	1097.25
514.73	1119.60
515.09	1142.10
515.45	1164.40
515.81	1186.89
516.17	1209.59
516.53	1232.49
516.89	1255.39
517.25	1278.32
517.61	1301.86
517.97	1324.83
518.33	1347.92
518.69	1370.83
519.05	1394.13
519.41	1417.89
519.77	1441.85
520.13	1465.25
520.49	1488.58
520.85	1511.89
521.21	1536.02
521.57	1560.25
521.93	1583.51
522.29	1607.32
522.65	1630.82
523.01	1654.40
523.37	1677.56
523.73	1701.10
524.09	1724.30
524.45	1747.53
524.81	1770.86
525.17	1794.16
525.53	1817.30
525.89	1840.64
526.25	1863.56
526.61	1885.79
526.97	1907.70
527.33	1930.02
527.68	1952.52
528.04	1973.95
528.40	1995.14
528.76	2015.79
529.12	2037.08
529.48	2059.02
529.84	2079.78
530.20	2100.56
530.56	2121.50
530.91	2142.92
531.27	2163.90
531.63	2184.36
531.99	2204.90
532.35	2224.35
532.71	2243.38
533.07	2262.86
533.42	2281.89
533.78	2301.23
534.14	2320.17
534.50	2337.63
534.86	2355.35
535.21	2372.09
535.57	2390.01
535.93	2406.92
536.29	2423.82
536.65	2440.31
537.00	2455.62
537.36	2470.49
537.72	2485.35
538.08	2499.98
538.44	2513.97
538.79	2528.00
539.15	2542.11
539.51	2555.49
539.87	2570.18
540.22	2583.42
540.58	2597.08
540.94	2609.67
541.29	2620.95
541.65	2631.89
542.01	2643.54
542.37	2655.06
542.72	2666.59
543.08	2677.00
543.44	2688.28
543.79	2697.95
544.15	2706.89
544.51	2716.89
544.87	2726.91
545.22	2735.64
545.58	2743.53
545.94	2750.56
546.29	2756.96
546.65	2763.13
547.01	2768.86
547.36	2773.55
547.72	2779.00
548.07	2783.23
548.43	2787.46
548.79	2791.82
549.14	2796.27
549.50	2800.70
549.86	2803.53
550.21	2806.04
550.57	2809.22
550.92	2810.55
551.28	2812.31
551.64	2814.36
551.99	2816.16
552.35	2817.15
552.70	2818.47
553.06	2819.87
553.41	2821.04
553.77	2822.02
554.13	2822.64
554.48	2823.59
554.84	2824.75
555.19	2824.41
555.55	2823.40
555.90	2822.21
556.26	2820.90
556.61	2819.55
556.97	2817.28
557.32	2815.67
557.68	2813.16
558.03	2810.43
558.39	2808.30
558.74	2806.89
559.10	2804.86
559.45	2802.24
559.81	2800.26
560.16	2796.95
560.52	2794.21
560.87	2791.51
561.23	2787.57
561.58	2784.79
561.94	2780.52
562.29	2775.43
562.64	2771.89
563.00	2768.77
563.35	2765.67
563.71	2763.25
564.06	2759.85
564.42	2757.19
564.77	2753.96
565.12	2751.31
565.48	2748.12
565.83	2744.66
566.19	2741.28
566.54	2736.32
566.89	2731.10
567.25	2726.26
567.60	2722.16
567.96	2717.05
568.31	2712.08
568.66	2707.26
569.02	2701.16
569.37	2695.24
569.72	2690.05
570.08	2683.73
570.43	2677.43
570.78	2670.98
571.14	2663.70
571.49	2656.59
571.84	2650.12
572.20	2642.45
572.55	2635.71
572.90	2627.43
573.26	2619.56
573.61	2610.81
573.96	2602.89
574.31	2594.32
574.67	2585.30
575.02	2576.02
575.37	2567.11
575.72	2557.80
576.08	2549.78
576.43	2540.79
576.78	2532.52
577.13	2524.49
577.49	2516.42
577.84	2507.84
578.19	2499.85
578.54	2492.48
578.90	2485.18
579.25	2476.44
579.60	2467.41
579.95	2457.47
580.30	2449.61
580.66	2441.73
581.01	2432.95
581.36	2424.20
581.71	2416.01
582.06	2407.67
582.42	2399.34
582.77	2390.07
583.12	2381.64
583.47	2373.25
583.82	2365.30
584.17	2356.96
584.53	2348.48
584.88	2339.65
585.23	2330.49
585.58	2321.54
585.93	2312.04
586.28	2303.02
586.63	2293.87
586.98	2285.40
587.34	2277.71
587.69	2268.82
588.04	2260.06
588.39	2252.02
588.74	2243.02
589.09	2234.71
589.44	2226.02
589.79	2218.06
590.14	2210.56
590.49	2201.83
590.84	2193.27
591.19	2185.40
591.54	2177.12
591.89	2167.18
592.25	2158.55
592.60	2149.88
592.95	2140.65
593.30	2131.03
593.65	2121.47
594.00	2112.53
594.35	2105.32
594.70	2096.28
595.05	2088.05
595.40	2079.23
595.75	2069.94
596.10	2062.16
596.45	2054.10
596.80	2046.20
597.15	2038.05
597.50	2029.55
597.85	2021.86
598.19	2013.04
598.54	2004.79
598.89	1996.84
599.24	1990.14
599.59	1982.40
599.94	1975.95
600.29	1968.46
600.64	1961.24
600.99	1953.48
601.34	1946.31
601.69	1937.38
602.04	1929.47
602.39	1921.50
602.74	1914.20
603.08	1907.55
603.43	1900.74
603.78	1892.92
604.13	1885.48
604.48	1877.84
604.83	1871.51
605.18	1865.00
605.53	1857.61
605.87	1849.60
606.22	1842.72
606.57	1835.08
606.92	1827.53
607.27	1819.10
607.62	1811.46
607.96	1804.54
608.31	1797.77
608.66	1789.71
609.01	1781.65
609.36	1773.95
609.70	1765.68
610.05	1757.20
610.40	1749.18
610.75	1740.46
611.10	1732.75
611.44	1723.59
611.79	1714.73
612.14	1705.25
612.49	1695.29
612.83	1686.83
613.18	1677.73
613.53	1668.07
613.88	1658.42
614.22	1649.80
614.57	1640.58
614.92	1631.80
615.27	1622.28
615.61	1613.15
615.96	1604.44
616.31	1596.54
616.65	1588.81
617.00	1580.83
617.35	1572.51
617.70	1563.30
618.04	1553.97
618.39	1544.37
618.74	1536.05
619.08	1527.31
619.43	1518.68
619.78	1510.74
620.12	1502.17
620.47	1494.02
620.82	1485.12
621.16	1476.54
621.51	1467.74
621.85	1459.61
622.20	1450.91
622.55	1442.51
622.89	1433.73
623.24	1425.62
623.59	1416.50
623.93	1407.45
624.28	1398.88
624.62	1390.38
624.97	1382.17
625.32	1374.75
625.66	1367.31
626.01	1359.33
626.35	1351.67
626.70	1343.80
627.04	1336.09
627.39	1328.61
627.73	1321.04
628.08	1313.90
628.43	1306.12
628.77	1298.44
629.12	1290.68
629.46	1283.76
629.81	1276.38
630.15	1269.04
630.50	1261.27
630.84	1253.79
631.19	1246.43
631.53	1238.83
631.88	1230.90
632.22	1223.25
632.57	1215.60
632.91	1207.82
633.26	1200.41
633.60	1193.11
633.95	1185.98
634.29	1178.41
634.64	1171.31
634.98	1163.63
635.32	1156.27
635.67	1149.93
636.01	1143.10
636.36	1136.00
636.70	1128.95
637.05	1121.93
637.39	1115.21
637.73	1108.68
638.08	1102.88
638.42	1096.45
638.77	1090.14
639.11	1083.76
639.45	1077.21
639.80	1070.42
640.14	1063.70
640.49	1057.17
640.83	1050.42
641.17	1043.79
641.52	1037.21
641.86	1030.15
642.20	1023.83
642.55	1017.04
642.89	1009.91
643.23	1002.94
643.58	996.80
643.92	989.67
644.26	983.07
644.61	976.40
644.95	969.68
645.29	962.64
645.64	955.58
645.98	948.87
646.32	942.74
646.66	936.20
647.01	929.86
647.35	923.75
647.69	917.01
648.04	910.77
648.38	904.28
648.72	897.91
649.06	891.61
649.41	885.34
649.75	879.14
650.09	873.10
650.43	866.93
650.78	860.19
651.12	853.96
651.46	847.80
651.80	841.93
652.14	835.91
652.49	829.90
652.83	824.04
653.17	817.66
653.51	811.29
653.85	805.21
654.20	799.21
654.54	793.16
654.88	787.23
655.22	781.20
655.56	775.21
655.90	769.24
656.25	763.44
656.59	757.52
656.93	751.99
657.27	746.37
657.61	740.60
657.95	735.09
658.29	729.95
658.64	724.67
658.98	718.97
659.32	713.41
659.66	707.98
660.00	702.35
660.34	697.21
660.68	691.78
661.02	686.70
661.36	681.65
661.70	676.45
662.05	671.76
662.39	667.18
662.73	662.66
663.07	658.13
663.41	653.51
663.75	648.83
664.09	644.01
664.43	639.16
664.77	634.78
665.11	630.37
665.45	625.88
665.79	621.45
666.13	616.97
666.47	612.72
666.81	608.38
667.15	604.38
667.49	600.46
667.83	596.64
668.17	592.67
668.51	588.86
668.85	585.21
669.19	581.52
669.53	577.41
669.87	573.28
670.21	569.43
670.55	565.51
670.89	562.23
671.23	558.78
671.57	555.28
671.91	551.58
672.25	547.99
672.58	544.37
672.92	540.75
673.26	537.39
673.60	533.95
673.94	530.54
674.28	527.27
674.62	523.91
674.96	520.67
675.30	517.43
675.64	514.15
675.97	510.85
676.31	507.61
676.65	504.53
676.99	501.82
677.33	498.72
677.67	495.69
678.01	492.32
678.34	489.22
678.68	486.35
679.02	483.30
679.36	480.44
679.70	477.58
680.04	474.66
680.37	471.67
680.71	468.73
681.05	466.05
681.39	463.26
681.73	460.52
682.06	457.82
682.40	455.21
682.74	452.50
683.08	449.83
683.42	446.95
683.75	444.32
684.09	441.42
684.43	438.84
684.77	436.22
685.10	433.61
685.44	430.93
685.78	428.23
686.12	425.87
686.45	423.36
686.79	420.96
687.13	418.76
687.46	416.65
687.80	414.47
688.14	411.95
688.48	409.56
688.81	407.24
689.15	404.86
689.49	402.46
689.82	400.16
690.16	397.72
690.50	395.42
690.83	393.13
691.17	390.81
691.51	388.55
691.84	386.48
692.18	384.53
692.52	382.70
692.85	380.97
693.19	379.18
693.52	377.30
693.86	375.23
694.20	373.20
694.53	371.14
694.87	369.06
695.21	367.23
695.54	365.22
695.88	363.15
696.21	361.32
696.55	359.58
696.88	357.77
697.22	356.03
697.56	354.43
697.89	352.70
698.23	350.97
698.56	349.34
698.90	347.82
699.23	346.11
699.57	344.40
699.90	342.61
700.24	340.80
700.58	339.02
700.91	337.47
701.25	336.06
701.58	334.65
701.92	333.20
702.25	331.73
702.59	330.31
702.92	328.97
703.26	327.48
703.59	326.08
703.93	325.05
704.26	323.70
704.60	322.35
704.93	320.99
705.26	319.69
705.60	318.38
705.93	317.01
706.27	315.73
706.60	314.54
706.94	313.43
707.27	312.09
707.61	310.94
707.94	309.64
708.27	308.25
708.61	306.90
708.94	305.82
709.28	304.60
709.61	303.49
709.94	302.37
710.28	301.40
710.61	300.32
710.95	298.83
711.28	297.93
711.61	296.90
711.95	296.02
712.28	295.04
712.61	294.08
712.95	293.17
713.28	292.39
713.61	291.35
713.95	290.27
714.28	289.44
714.61	288.39
714.95	287.49
715.28	286.50
715.61	285.63
715.95	284.64
716.28	283.77
716.61	282.91
716.95	282.08
717.28	281.15
717.61	280.33
717.94	279.63
718.28	278.69
718.61	277.86
718.94	276.96
719.27	276.25
719.61	275.46
719.94	274.61
720.27	273.65
720.60	272.86
720.94	272.11
721.27	271.36
721.60	270.79
721.93	270.16
722.27	269.62
722.60	269.03
722.93	268.39
723.26	267.78
723.59	267.15
723.93	266.54
724.26	265.98
724.59	265.23
724.92	264.65
725.25	264.22
725.59	263.62
725.92	263.20
726.25	262.52
726.58	262.00
726.91	261.48
727.24	260.99
727.57	260.45
727.91	259.93
728.24	259.53
728.57	259.00
728.90	258.56
729.23	257.99
729.56	257.58
729.89	257.09
730.22	256.53
730.55	256.05
730.89	255.55
731.22	255.05
731.55	254.63
731.88	254.13
732.21	253.48
732.54	252.92
732.87	252.41
733.20	252.01
733.53	251.57
733.86	251.09
734.19	250.55
734.52	250.23
734.85	250.07
735.18	249.58
735.51	249.20
735.84	248.77
736.17	248.46
736.50	248.01
736.83	248.03
737.16	247.68
737.49	247.33
737.82	246.87
738.15	246.50
738.48	246.21
738.81	245.79
739.14	245.42
739.47	245.11
739.80	244.63
740.13	244.32
740.46	243.91
740.79	243.53
741.12	243.26
741.45	242.85
741.78	242.25
742.11	241.98
742.44	241.63
742.77	241.31
743.10	240.97
743.43	240.58
743.75	239.82
744.08	239.92
744.41	239.46
744.74	239.13
745.07	238.77
745.40	238.48
745.73	238.33
746.06	238.04
746.39	237.75
746.71	237.44
747.04	237.18
747.37	236.92
747.70	236.70
748.03	236.35
748.36	236.11
748.68	235.82
749.01	235.48
749.34	235.28
749.67	235.01
750.00	234.77
750.33	234.69
750.65	234.46
750.98	233.73
751.31	233.48
751.64	233.34
751.97	233.33
752.29	233.02
752.62	232.62
752.95	232.39
753.28	232.16
753.60	232.00
753.93	231.81
754.26	231.55
754.59	231.23
754.91	231.02
755.24	230.73
755.57	230.58
755.90	230.27
756.22	229.89
756.55	229.56
756.88	229.25
757.20	228.77
757.53	228.47
757.86	228.42
758.19	228.29
758.51	228.02
758.84	227.59
759.17	227.35
759.49	227.14
759.82	227.12
760.15	226.91
760.47	226.66
760.80	226.35
761.13	226.20
761.45	226.04
761.78	225.82
762.11	225.75
762.43	225.43
762.76	225.33
763.08	225.20
763.41	225.16
763.74	224.96
764.06	224.81
764.39	224.66
764.71	224.38
765.04	224.22
765.37	224.02
765.69	223.94
766.02	223.77
766.34	223.65
766.67	223.35
767.00	223.26
767.32	223.33
767.65	223.39
767.97	223.19
768.30	223.00
768.62	222.88
768.95	222.61
769.27	222.53
769.60	222.45
769.92	222.30
770.25	222.10
770.57	221.96
770.90	221.85
771.22	221.74
771.55	221.60
771.87	221.41
772.20	221.34
772.52	221.46
772.85	221.81
773.17	221.69
773.50	221.63
773.82	221.47
774.15	221.17
774.47	220.87
774.80	220.74
775.12	220.67
775.45	220.56
775.77	220.51
776.09	220.46
776.42	220.38
776.74	220.43
777.07	220.27
777.39	220.28
777.72	220.17
778.04	220.08
778.36	219.99
778.69	219.98
779.01	219.89
779.33	219.52
779.66	219.03
779.98	218.94
780.31	218.84
780.63	218.90
780.95	218.88
781.28	218.78
781.60	218.67
781.92	218.61
782.25	218.48
782.57	218.39
782.89	218.33
783.22	218.20
783.54	218.04
783.86	218.07
784.19	217.93
784.51	217.99
784.83	217.96
785.16	217.87
785.48	217.77
785.80	217.73
786.12	217.68
786.45	217.64
786.77	217.64
787.09	217.53
787.42	217.35
787.74	217.30
788.06	217.30
788.38	217.28
788.71	217.19
789.03	217.21
789.35	217.18
789.67	217.05
789.99	217.02
790.32	216.96
790.64	216.89
790.96	217.11
791.28	216.90
791.61	216.82
791.93	216.77
792.25	216.77
792.57	216.93
792.89	216.82
793.21	216.71
793.54	216.66
793.86	216.58
794.18	216.60
794.50	216.53
794.82	216.51
795.14	216.56
795.47	216.61
795.79	216.59
796.11	216.52
796.43	216.50
796.75	216.49
797.07	216.41
797.39	216.41
797.71	216.12
798.04	216.13
798.36	216.09
798.68	216.09
799.00	216.06
799.32	215.85
799.64	215.88
799.96	215.90
800.28	215.82
800.60	215.74
800.92	215.72
801.24	215.72
801.56	215.71
801.89	215.61
802.21	215.61
802.53	215.53
802.85	215.60
803.17	215.74
803.49	215.61
803.81	215.59
804.13	215.48
804.45	215.42
804.77	215.41
805.09	215.38
805.41	215.29
805.73	215.26
806.05	215.16
806.37	215.11
806.69	215.02
807.01	214.96
807.33	215.00
807.65	214.83
807.97	214.86
808.28	214.82
808.60	214.80
808.92	214.68
809.24	214.85
809.56	214.69
809.88	214.51
810.20	214.57
810.52	214.62
810.84	214.62
811.16	214.56
811.48	214.52
811.80	214.64
812.12	214.63
812.43	214.68
812.75	214.67
813.07	214.66
813.39	214.72
813.71	214.68
814.03	214.64
814.35	214.63
814.67	214.47
814.98	214.35
815.30	214.24
815.62	214.20
815.94	213.96
816.26	214.02
816.58	214.04
816.89	214.01
817.21	213.88
817.53	213.88
817.85	213.93
818.17	213.95
818.48	213.81
818.80	213.89
819.12	213.77
819.44	213.70
819.76	213.66
820.07	213.62
820.39	213.67
820.71	213.67
821.03	213.63
821.34	213.69
821.66	213.77
821.98	213.85
822.30	213.82
822.61	214.05
822.93	213.96
823.25	213.85
823.57	213.83
823.88	213.94
824.20	213.85
824.52	213.90
824.83	213.86
825.15	213.88
825.47	213.84
825.79	213.85
826.10	213.84
826.42	213.74
826.74	213.75
827.05	213.59
827.37	213.62
827.69	213.58
828.00	213.55
828.32	213.49
828.64	213.45
828.95	213.65
829.27	213.43
829.58	213.48
829.90	213.56
830.22	213.52
830.53	213.37
830.85	213.37
831.17	213.21
831.48	213.23
831.80	213.15
832.11	213.09
832.43	212.99
832.75	213.00
833.06	213.20
833.38	213.08
833.69	213.14
834.01	213.09
834.32	213.08
834.64	212.94
834.96	212.89
835.27	212.86
835.59	212.70
835.90	212.70
836.22	212.60
836.53	212.46
836.85	212.46
837.16	212.83
837.48	212.80
837.79	212.95
838.11	212.85
838.42	212.85
838.74	212.92
839.05	212.91
839.37	212.82
839.68	212.68
840.00	212.65
840.31	212.68
840.63	212.60
840.94	212.63
841.26	212.66
841.57	212.68
841.88	212.75
842.20	212.69
842.51	212.60
842.83	212.58
843.14	212.97
843.46	212.90
843.77	212.67
844.08	212.67
844.40	212.54
844.71	212.54
845.03	212.47
845.34	212.39
845.65	212.31
845.97	212.34
846.28	212.26
846.60	212.23
846.91	212.25
847.22	212.31
847.54	212.37
847.85	212.42
848.16	212.38
848.48	212.32
848.79	212.50
849.10	212.58
849.42	212.68
849.73	212.34
850.04	212.35
850.36	212.24
850.67	212.32
850.98	212.32
851.30	212.33
851.61	212.39
851.92	212.45
852.23	212.66
852.55	212.73
852.86	212.73
853.17	212.83
853.49	212.85
853.80	212.92
854.11	212.90
854.42	212.95
854.74	212.93
855.05	212.89
855.36	212.69
855.67	212.65
855.99	212.58
856.30	212.97
856.61	213.03
856.92	213.04
857.23	212.97
857.55	212.94
857.86	212.93
858.17	213.00
858.48	212.92
858.79	212.71
859.11	212.67
859.42	212.73
859.73	212.66
860.04	212.66
860.35	212.56
860.66	212.49
860.98	212.41
861.29	212.44
861.60	212.37
861.91	212.45
862.22	212.47
862.53	212.44
862.84	212.10
863.16	212.16
863.47	212.11
863.78	212.04
864.09	212.05
864.40	212.08
864.71	212.01
865.02	212.00
865.33	212.03
865.64	211.99
865.95	211.91
866.27	212.18
866.58	212.12
866.89	212.16
867.20	212.21
867.51	212.21
867.82	212.21
868.13	212.31
868.44	212.21
868.75	212.16
869.06	212.20
869.37	212.19
869.68	212.03
869.99	212.05
870.30	212.09
870.61	212.16
870.92	212.04
871.23	212.01
871.54	212.07
871.85	212.15
872.16	212.19
872.47	212.25
872.78	211.97
873.09	211.97
873.40	211.90
873.71	211.91
874.02	211.94
874.33	211.83
874.64	211.80
874.95	211.92
875.26	211.90
875.56	211.88
875.87	211.83
876.18	211.93
876.49	212.22
876.80	212.21
877.11	212.05
877.42	212.19
877.73	212.20
878.04	212.19
878.35	212.20
878.66	212.25
878.96	212.18
879.27	212.20
879.58	212.16
879.89	212.16
880.20	212.17
880.51	212.10
880.82	212.17
881.12	212.10
881.43	211.96
881.74	211.94
882.05	211.96
882.36	211.90
882.67	211.91
882.97	211.60
883.28	211.61
883.59	211.70
883.90	211.70
884.21	211.68
884.51	211.61
884.82	211.56
885.13	211.51
885.44	211.49
885.74	211.45
886.05	211.50
886.36	211.54
886.67	211.48
886.98	211.60
887.28	211.68
887.59	211.74
887.90	211.73
888.20	211.73
888.51	211.80
888.82	211.84
889.13	211.79
889.43	212.04
889.74	212.00
890.05	211.92
890.35	211.82
890.66	211.80
890.97	211.79
891.28	211.79
891.58	211.76
891.89	211.78
892.20	211.77
892.50	211.75
892.81	211.64
893.12	211.65
893.42	211.53
893.73	211.50
894.04	211.49
894.34	211.53
894.65	211.55
894.95	211.42
895.26	211.35
895.57	211.46
895.87	211.16
896.18	211.25
896.48	211.30
896.79	211.33
897.10	211.40
897.40	211.45
897.71	211.45
898.01	211.42
898.32	211.48
898.63	211.46
898.93	211.41
899.24	211.49
899.54	211.46
899.85	211.47
900.15	211.44
900.46	211.47
900.76	211.48
901.07	211.48
901.38	211.52
901.68	211.55
901.99	211.42
902.29	211.46
902.60	211.43
902.90	211.36
903.21	211.36
903.51	211.30
903.82	211.34
904.12	211.31
904.43	211.39
904.73	211.36
905.03	211.41
905.34	211.78
905.64	211.76
905.95	211.77
906.25	211.82
906.56	211.83
906.86	211.83
907.17	211.80
907.47	211.84
907.77	211.80
908.08	211.80
908.38	211.80
908.69	211.80
908.99	211.86
909.30	211.99
909.60	212.03
909.90	212.05
910.21	212.00
910.51	212.01
910.81	211.99
911.12	212.00
911.42	212.01
911.73	211.66
912.03	211.67
912.33	211.70
912.64	211.66
912.94	211.65
913.24	211.57
913.55	211.52
913.85	211.48
914.15	211.52
914.46	211.56
914.76	211.52
915.06	211.51
915.37	211.45
915.67	211.35
915.97	211.30
916.27	211.24
916.58	211.19
916.88	211.17
917.18	211.15
917.49	211.35
917.79	211.31
918.09	211.35
918.39	211.44
918.70	211.28
919.00	211.30
919.30	211.40
919.60	211.40
919.91	211.46
920.21	211.42
920.51	211.42
920.81	211.37
921.12	211.45
921.42	211.46
921.72	211.49
922.02	211.53
922.32	211.64
922.63	211.61
922.93	211.70
923.23	211.76
923.53	211.69
923.83	211.49
924.13	211.55
924.44	211.49
924.74	211.55
925.04	211.83
925.34	211.79
925.64	211.65
925.94	211.67
926.24	211.91
926.55	211.93
926.85	211.92
927.15	211.88
927.45	211.87
927.75	211.84
928.05	211.82
928.35	211.77
928.65	211.80
928.95	211.92
929.26	211.91
929.56	211.97
929.86	212.06
930.16	212.06
930.46	212.04
930.76	212.10
931.06	211.95
931.36	211.82
931.66	211.90
931.96	211.97
932.26	211.94
932.56	211.71
932.86	211.75
933.16	211.82
933.46	211.86
933.76	211.85
934.06	211.92
934.36	212.10
934.66	212.17
934.96	212.12
935.26	212.15
935.56	212.18
935.86	212.08
936.16	212.03
936.46	211.98
936.76	211.99
937.06	211.88
937.36	211.90
937.66	211.92
937.96	211.87
938.26	211.79
938.56	211.80
938.86	211.82
939.16	211.89
939.46	211.82
939.76	211.81
940.06	211.84
940.35	211.74
940.65	211.49
940.95	211.45
941.25	211.34
941.55	211.23
941.85	211.21
942.15	211.24
942.45	211.29
942.75	211.28
943.04	211.29
943.34	211.35
943.64	211.34
943.94	211.23
944.24	211.24
944.54	211.27
944.84	211.25
945.13	211.17
945.43	211.05
945.73	211.06
946.03	211.06
946.33	210.95
946.62	210.96
946.92	210.98
947.22	210.98
947.52	211.06
947.82	211.09
948.11	211.07
948.41	211.12
948.71	211.04
949.01	211.10
949.31	211.01
949.60	211.05
949.90	211.04
950.20	211.05
950.50	211.05
950.79	211.14
951.09	211.20
951.39	211.22
951.69	211.25
951.98	211.30
952.28	211.33
952.58	211.41
952.87	211.46
953.17	211.51
953.47	211.51
953.76	211.46
954.06	211.51
954.36	211.44
954.66	211.37
954.95	211.37
955.25	211.41
955.55	211.46
955.84	211.41
956.14	211.46
956.44	211.47
956.73	211.35
957.03	211.29
957.32	211.27
957.62	211.31
957.92	211.33
958.21	211.28
958.51	211.64
958.81	211.65
959.10	211.67
959.40	211.76
959.69	211.74
959.99	211.77
960.29	211.64
960.58	211.63
960.88	211.74
961.17	211.75
961.47	211.73
961.76	211.63
962.06	211.70
962.36	211.62
962.65	211.64
962.95	211.70
963.24	211.69
963.54	211.70
963.83	211.74
964.13	211.73
964.42	211.72
964.72	211.37
965.01	211.35
965.31	211.36
965.60	211.27
965.90	211.48
966.19	211.43
966.49	211.49
966.78	211.50
967.08	211.45
967.37	211.49
967.67	211.40
967.96	211.52
968.26	211.49
968.55	211.61
968.85	211.56
969.14	211.56
969.43	211.48
969.73	211.39
970.02	211.30
970.32	211.31
970.61	211.28
970.91	211.25
971.20	211.20
971.49	211.13
971.79	211.17
972.08	210.94
972.38	210.90
972.67	210.93
972.96	211.01
973.26	210.92
973.55	211.00
973.85	211.11
974.14	211.04
974.43	211.05
974.73	210.97
975.02	210.93
975.31	210.98
975.61	211.03
975.90	211.14
976.19	211.11
976.49	211.09
976.78	211.10
977.07	211.02
977.37	211.11
977.66	211.09
977.95	211.08
978.24	211.14
978.54	211.28
978.83	211.19
979.12	211.15
979.42	211.16
979.71	211.09
980.00	211.01
980.29	211.09
980.59	210.98
980.88	211.01
981.17	211.08
981.46	211.06
981.76	211.03
982.05	211.05
982.34	211.13
982.63	211.20
982.93	211.18
983.22	211.32
983.51	211.26
983.80	211.36
984.09	211.32
984.39	211.30
984.68	211.20
984.97	211.25
985.26	211.19
985.55	211.24
985.85	211.14
986.14	211.22
986.43	211.23
986.72	211.27
987.01	211.21
987.30	211.14
987.59	211.15
987.89	211.20
988.18	211.14
988.47	211.11
988.76	211.10
989.05	211.12
989.34	211.05
989.63	211.09
989.92	211.02
990.22	210.97
990.51	210.98
990.80	210.92
991.09	210.97
991.38	211.01
991.67	210.98
991.96	210.98
992.25	210.93
992.54	210.90
992.83	210.85
993.12	210.87
993.41	211.03
993.70	211.14
993.99	211.17
994.28	211.22
994.58	211.16
994.87	211.06
995.16	211.10
995.45	211.01
995.74	210.97
996.03	211.01
996.32	211.08
996.61	211.14
996.90	211.18
997.19	211.20
997.48	211.20
997.77	211.16
998.06	211.18
998.34	211.15
998.63	211.12
998.92	211.19
999.21	211.27
999.50	211.22
999.79	211.09
1000.08	211.11
1000.37	211.07
1000.66	211.06
1000.95	211.13
1001.24	211.05
1001.53	211.20
1001.82	211.14
1002.11	211.05
1002.40	211.18
1002.68	211.25
1002.97	211.50
1003.26	211.44
1003.55	211.41
1003.84	211.44
1004.13	211.56
1004.42	211.56
1004.71	211.57
1004.99	211.52
1005.28	211.54
1005.57	211.52
1005.86	211.45
1006.15	211.41
1006.44	211.39
1006.72	211.50
1007.01	211.47
1007.30	211.51
1007.59	211.44
1007.88	211.44
1008.17	211.39
1008.45	211.30
1008.74	211.14
1009.03	211.03
1009.32	210.97
1009.60	210.98
1009.89	210.95
1010.18	210.75
1010.47	210.74
1010.76	210.74
1011.04	210.75
1011.33	210.81
1011.62	210.79
1011.91	210.79
1012.19	210.77
1012.48	210.74
1012.77	210.68
1013.05	210.83
1013.34	210.83
1013.63	210.87
1013.92	210.95
1014.20	210.89
1014.49	210.84
1014.78	210.85
1015.06	210.64
1015.35	210.68
1015.64	210.68
1015.92	210.70
1016.21	210.82
1016.50	210.80
1016.78	210.87
1017.07	210.89
1017.36	210.76
1017.64	210.76
1017.93	210.87
1018.22	210.88
1018.50	210.89
1018.79	210.87
1019.08	210.73
1019.36	210.74
1019.65	210.72
1019.93	210.81
1020.22	210.95
1020.51	211.12
1020.79	211.14
1021.08	211.00
1021.36	210.15
1021.65	210.35
1021.94	211.35
1022.22	210.90
1022.51	211.00
1022.79	213.55
1023.08	210.95
1023.36	214.70
1023.65	210.50
>>>>>End Processed Spectral Data<<<<<
