SpectraSuite Data File
++++++++++++++++++++++++++++++++++++
Date: Mon Feb 25 17:02:20 EST 2013
User: group
Dark Spectrum Present: No
Reference Spectrum Present: No
Number of Sampled Component Spectra: 1
Spectrometers: USB2E7196
Integration Time (usec): 104000 (USB2E7196)
Spectra Averaged: 20 (USB2E7196)
Boxcar Smoothing: 10 (USB2E7196)
Correct for Electrical Dark: No (USB2E7196)
Strobe/Lamp Enabled: No (USB2E7196)
Correct for Detector Non-linearity: No (USB2E7196)
Correct for Stray Light: No (USB2E7196)
Number of Pixels in Processed Spectrum: 2048
>>>>>Begin Processed Spectral Data<<<<<
339.09	0.00
339.48	198.40
339.86	199.85
340.24	201.55
340.63	202.30
341.01	208.70
341.39	206.75
341.78	207.60
342.16	208.00
342.54	209.00
342.93	198.18
343.31	208.20
343.69	208.76
344.07	209.17
344.46	209.60
344.84	209.98
345.22	210.04
345.60	210.19
345.99	210.31
346.37	210.44
346.75	210.49
347.13	210.54
347.52	210.54
347.90	210.75
348.28	210.77
348.66	210.81
349.05	210.70
349.43	210.62
349.81	210.68
350.19	210.67
350.57	210.66
350.96	210.71
351.34	210.80
351.72	210.87
352.10	210.97
352.48	211.02
352.87	211.05
353.25	211.12
353.63	211.17
354.01	211.23
354.39	211.34
354.77	211.43
355.15	211.56
355.54	211.61
355.92	211.49
356.30	211.57
356.68	211.88
357.06	211.90
357.44	211.95
357.82	211.99
358.20	212.08
358.58	212.18
358.97	212.28
359.35	212.38
359.73	212.46
360.11	212.50
360.49	212.49
360.87	212.59
361.25	212.66
361.63	212.77
362.01	212.84
362.39	212.80
362.77	212.88
363.15	212.94
363.53	212.96
363.91	212.98
364.29	212.94
364.67	212.59
365.05	212.60
365.43	212.71
365.81	212.74
366.19	212.80
366.57	212.86
366.95	212.86
367.33	212.74
367.71	212.68
368.09	212.79
368.47	212.81
368.85	212.71
369.23	212.74
369.61	212.66
369.99	212.75
370.37	212.71
370.75	212.82
371.13	212.69
371.51	212.63
371.89	212.68
372.27	212.71
372.65	212.75
373.03	212.80
373.41	212.64
373.78	212.60
374.16	212.47
374.54	212.39
374.92	212.24
375.30	212.19
375.68	212.17
376.06	212.14
376.44	212.08
376.82	212.07
377.19	212.07
377.57	212.02
377.95	211.89
378.33	211.90
378.71	211.67
379.09	211.68
379.47	211.68
379.84	211.57
380.22	211.48
380.60	211.35
380.98	211.31
381.36	211.32
381.73	211.22
382.11	211.16
382.49	211.13
382.87	211.04
383.25	211.01
383.62	211.36
384.00	211.19
384.38	211.17
384.76	211.21
385.13	211.22
385.51	211.16
385.89	211.05
386.27	210.93
386.64	210.94
387.02	210.86
387.40	210.79
387.78	210.82
388.15	210.88
388.53	210.87
388.91	210.79
389.29	210.75
389.66	210.73
390.04	210.76
390.42	210.84
390.79	210.80
391.17	210.77
391.55	210.35
391.92	210.44
392.30	210.44
392.68	210.41
393.05	210.40
393.43	210.39
393.81	210.42
394.18	210.41
394.56	210.41
394.94	210.51
395.31	210.50
395.69	210.57
396.06	210.63
396.44	210.69
396.82	210.67
397.19	210.88
397.57	210.90
397.95	211.02
398.32	210.92
398.70	211.03
399.07	211.11
399.45	211.15
399.82	211.12
400.20	211.17
400.58	211.20
400.95	211.10
401.33	211.25
401.70	211.54
402.08	211.68
402.45	211.72
402.83	211.88
403.20	211.94
403.58	211.97
403.95	212.07
404.33	212.22
404.71	212.39
405.08	212.69
405.46	212.89
405.83	213.00
406.21	213.13
406.58	213.39
406.96	213.60
407.33	213.81
407.70	214.06
408.08	214.55
408.45	214.81
408.83	215.16
409.20	215.41
409.58	215.52
409.95	215.91
410.33	216.33
410.70	216.55
411.08	217.04
411.45	217.57
411.82	217.97
412.20	218.49
412.57	219.21
412.95	219.55
413.32	220.21
413.69	220.89
414.07	221.61
414.44	222.39
414.82	223.22
415.19	224.07
415.56	225.03
415.94	225.84
416.31	227.00
416.68	228.16
417.06	229.50
417.43	230.81
417.81	232.19
418.18	233.65
418.55	235.22
418.93	236.89
419.30	238.63
419.67	240.42
420.04	242.27
420.42	244.15
420.79	246.58
421.16	248.86
421.54	251.34
421.91	253.78
422.28	256.27
422.66	258.96
423.03	261.96
423.40	264.77
423.77	267.76
424.15	270.73
424.52	273.82
424.89	277.24
425.26	280.53
425.64	283.76
426.01	287.22
426.38	290.97
426.75	294.76
427.13	298.57
427.50	302.69
427.87	306.97
428.24	311.20
428.61	315.17
428.99	319.66
429.36	324.43
429.73	329.27
430.10	334.17
430.47	339.22
430.85	344.16
431.22	349.47
431.59	355.39
431.96	360.94
432.33	367.25
432.70	373.27
433.08	380.23
433.45	386.88
433.82	393.66
434.19	400.87
434.56	408.15
434.93	415.12
435.30	422.23
435.68	430.06
436.05	437.83
436.42	445.39
436.79	452.42
437.16	459.99
437.53	468.17
437.90	476.21
438.27	484.07
438.64	492.26
439.01	500.00
439.38	506.84
439.75	513.61
440.13	521.20
440.50	528.28
440.87	534.30
441.24	540.45
441.61	547.16
441.98	552.53
442.35	558.45
442.72	564.60
443.09	570.34
443.46	574.01
443.83	576.83
444.20	579.29
444.57	582.65
444.94	584.61
445.31	586.41
445.68	588.35
446.05	589.63
446.42	589.42
446.79	589.12
447.16	588.51
447.53	588.34
447.90	585.87
448.27	583.63
448.64	580.06
449.01	577.67
449.37	572.91
449.74	568.35
450.11	562.95
450.48	556.66
450.85	550.32
451.22	545.00
451.59	539.78
451.96	535.01
452.33	528.19
452.70	522.19
453.07	514.93
453.43	507.20
453.80	499.76
454.17	492.99
454.54	486.49
454.91	479.49
455.28	472.48
455.65	466.07
456.02	459.84
456.38	454.42
456.75	447.63
457.12	441.91
457.49	436.24
457.86	430.59
458.23	425.90
458.59	420.77
458.96	415.40
459.33	410.70
459.70	406.00
460.07	402.40
460.43	397.97
460.80	393.90
461.17	390.52
461.54	386.99
461.91	383.36
462.27	379.74
462.64	376.71
463.01	373.45
463.38	370.21
463.74	366.72
464.11	363.83
464.48	361.30
464.85	358.66
465.21	356.56
465.58	354.30
465.95	351.66
466.32	349.51
466.68	347.26
467.05	344.96
467.42	342.53
467.78	340.09
468.15	337.82
468.52	336.24
468.88	334.00
469.25	331.94
469.62	330.35
469.98	328.61
470.35	326.99
470.72	325.47
471.08	323.86
471.45	322.48
471.82	321.10
472.18	319.49
472.55	318.23
472.92	316.82
473.28	315.53
473.65	314.30
474.02	313.06
474.38	312.19
474.75	311.48
475.11	310.68
475.48	309.97
475.85	309.42
476.21	308.70
476.58	308.19
476.94	307.68
477.31	307.18
477.67	306.70
478.04	306.24
478.41	305.96
478.77	305.89
479.14	305.44
479.50	305.22
479.87	305.12
480.23	305.20
480.60	305.00
480.96	304.91
481.33	305.17
481.69	305.23
482.06	305.27
482.42	305.25
482.79	305.35
483.15	305.59
483.52	305.92
483.88	306.08
484.25	306.24
484.61	306.53
484.98	306.83
485.34	307.26
485.71	307.85
486.07	308.27
486.44	308.51
486.80	309.11
487.17	309.73
487.53	310.52
487.90	311.28
488.26	312.25
488.62	313.20
488.99	313.86
489.35	314.81
489.72	315.85
490.08	316.82
490.44	317.73
490.81	318.80
491.17	319.87
491.54	321.04
491.90	322.32
492.26	323.66
492.63	324.94
492.99	326.32
493.36	327.72
493.72	329.22
494.08	330.74
494.45	332.29
494.81	333.86
495.17	335.45
495.54	336.95
495.90	338.50
496.26	340.29
496.63	342.09
496.99	343.73
497.35	345.51
497.72	347.36
498.08	349.23
498.44	351.11
498.80	353.04
499.17	354.91
499.53	356.84
499.89	358.82
500.26	360.78
500.62	362.63
500.98	364.60
501.34	366.35
501.71	368.26
502.07	370.15
502.43	371.85
502.79	373.38
503.16	375.00
503.52	376.65
503.88	378.08
504.24	379.60
504.60	381.24
504.97	382.79
505.33	384.25
505.69	385.96
506.05	387.37
506.41	388.70
506.78	389.95
507.14	391.08
507.50	392.21
507.86	393.37
508.22	394.44
508.59	395.29
508.95	396.31
509.31	397.31
509.67	398.16
510.03	399.18
510.39	400.22
510.75	401.09
511.12	401.98
511.48	402.60
511.84	403.20
512.20	403.82
512.56	404.25
512.92	404.88
513.28	405.23
513.64	405.39
514.00	405.61
514.37	406.06
514.73	406.42
515.09	406.59
515.45	406.61
515.81	406.74
516.17	406.70
516.53	406.67
516.89	406.50
517.25	406.43
517.61	406.32
517.97	406.20
518.33	406.02
518.69	405.79
519.05	405.78
519.41	405.75
519.77	405.77
520.13	405.57
520.49	405.14
520.85	404.85
521.21	404.98
521.57	404.79
521.93	404.38
522.29	404.21
522.65	403.97
523.01	403.82
523.37	403.61
523.73	403.75
524.09	403.78
524.45	403.81
524.81	403.77
525.17	403.84
525.53	403.84
525.89	403.91
526.25	404.06
526.61	404.12
526.97	404.32
527.33	404.36
527.68	404.95
528.04	405.40
528.40	405.69
528.76	406.04
529.12	406.70
529.48	407.41
529.84	408.05
530.20	408.89
530.56	409.82
530.91	410.82
531.27	411.50
531.63	412.35
531.99	413.26
532.35	414.22
532.71	415.26
533.07	416.43
533.42	418.03
533.78	419.18
534.14	420.46
534.50	421.57
534.86	422.98
535.21	424.20
535.57	425.76
535.93	427.23
536.29	428.95
536.65	430.62
537.00	432.08
537.36	433.63
537.72	435.14
538.08	436.94
538.44	438.45
538.79	440.40
539.15	442.23
539.51	444.20
539.87	446.26
540.22	448.25
540.58	450.42
540.94	452.36
541.29	454.54
541.65	456.79
542.01	459.27
542.37	461.51
542.72	463.62
543.08	465.77
543.44	468.41
543.79	470.52
544.15	472.87
544.51	475.62
544.87	478.36
545.22	481.10
545.58	483.63
545.94	486.31
546.29	488.93
546.65	491.68
547.01	494.30
547.36	497.18
547.72	499.82
548.07	502.40
548.43	504.79
548.79	507.44
549.14	510.15
549.50	512.78
549.86	515.51
550.21	518.37
550.57	521.27
550.92	523.91
551.28	526.75
551.64	529.40
551.99	532.20
552.35	534.68
552.70	537.34
553.06	539.98
553.41	542.70
553.77	545.40
554.13	548.05
554.48	550.82
554.84	553.61
555.19	556.29
555.55	559.15
555.90	561.85
556.26	564.30
556.61	566.83
556.97	569.19
557.32	571.68
557.68	574.19
558.03	576.56
558.39	578.79
558.74	581.25
559.10	583.71
559.45	586.03
559.81	588.50
560.16	590.63
560.52	592.85
560.87	595.35
561.23	597.59
561.58	600.11
561.94	602.22
562.29	604.08
562.64	606.25
563.00	608.21
563.35	610.54
563.71	612.85
564.06	615.02
564.42	617.49
564.77	619.66
565.12	621.84
565.48	624.36
565.83	626.63
566.19	628.78
566.54	630.56
566.89	632.46
567.25	634.40
567.60	636.74
567.96	639.03
568.31	641.01
568.66	642.88
569.02	644.18
569.37	645.75
569.72	647.33
570.08	648.84
570.43	650.25
570.78	651.44
571.14	652.64
571.49	653.67
571.84	654.73
572.20	655.75
572.55	656.82
572.90	657.17
573.26	657.98
573.61	658.72
573.96	659.52
574.31	660.00
574.67	660.55
575.02	660.69
575.37	660.77
575.72	660.62
576.08	660.94
576.43	661.24
576.78	661.57
577.13	661.95
577.49	662.24
577.84	662.50
578.19	662.73
578.54	663.26
578.90	663.83
579.25	664.01
579.60	663.96
579.95	663.75
580.30	664.02
580.66	664.19
581.01	664.11
581.36	664.03
581.71	664.14
582.06	664.42
582.42	664.46
582.77	664.42
583.12	664.50
583.47	664.41
583.82	664.53
584.17	664.43
584.53	664.46
584.88	664.36
585.23	664.30
585.58	664.14
585.93	663.70
586.28	663.28
586.63	662.95
586.98	662.85
587.34	662.74
587.69	662.26
588.04	661.83
588.39	661.65
588.74	661.24
589.09	660.93
589.44	660.10
589.79	659.74
590.14	659.17
590.49	658.65
590.84	658.10
591.19	657.54
591.54	656.97
591.89	655.93
592.25	655.44
592.60	654.49
592.95	653.69
593.30	652.73
593.65	651.71
594.00	650.63
594.35	650.52
594.70	649.50
595.05	648.73
595.40	647.69
595.75	646.40
596.10	645.58
596.45	644.65
596.80	643.91
597.15	643.10
597.50	642.08
597.85	641.29
598.19	640.18
598.54	639.14
598.89	638.25
599.24	637.61
599.59	636.36
599.94	635.51
600.29	634.46
600.64	633.59
600.99	632.55
601.34	631.75
601.69	629.84
602.04	628.65
602.39	627.51
602.74	626.50
603.08	625.75
603.43	624.97
603.78	623.84
604.13	622.81
604.48	621.63
604.83	620.97
605.18	620.07
605.53	619.09
605.87	618.00
606.22	616.90
606.57	615.62
606.92	614.43
607.27	613.06
607.62	611.77
607.96	610.62
608.31	609.81
608.66	608.56
609.01	607.33
609.36	606.18
609.70	604.94
610.05	603.67
610.40	602.27
610.75	600.60
611.10	599.47
611.44	597.80
611.79	596.09
612.14	594.25
612.49	592.41
612.83	590.96
613.18	589.30
613.53	587.70
613.88	585.96
614.22	584.35
614.57	582.95
614.92	581.43
615.27	579.79
615.61	577.89
615.96	576.22
616.31	574.81
616.65	573.39
617.00	571.72
617.35	570.07
617.70	568.28
618.04	566.56
618.39	564.50
618.74	562.86
619.08	561.18
619.43	559.56
619.78	557.83
620.12	555.95
620.47	554.30
620.82	552.28
621.16	550.43
621.51	548.79
621.85	546.91
622.20	545.20
622.55	543.28
622.89	541.31
623.24	539.67
623.59	537.66
623.93	535.76
624.28	534.06
624.62	532.68
624.97	531.15
625.32	529.47
625.66	527.99
626.01	526.24
626.35	524.65
626.70	522.81
627.04	521.43
627.39	519.78
627.73	518.27
628.08	516.85
628.43	515.30
628.77	513.54
629.12	511.84
629.46	510.33
629.81	508.73
630.15	507.25
630.50	505.37
630.84	503.79
631.19	502.16
631.53	500.42
631.88	498.17
632.22	496.14
632.57	494.61
632.91	492.81
633.26	491.19
633.60	489.46
633.95	487.88
634.29	485.92
634.64	484.43
634.98	482.54
635.32	481.02
635.67	479.49
636.01	477.97
636.36	476.18
636.70	474.50
637.05	472.90
637.39	471.13
637.73	469.81
638.08	468.39
638.42	467.06
638.77	465.62
639.11	464.17
639.45	462.70
639.80	460.87
640.14	459.09
640.49	457.42
640.83	455.78
641.17	454.21
641.52	452.62
641.86	450.77
642.20	449.37
642.55	447.42
642.89	445.71
643.23	444.03
643.58	442.75
643.92	441.01
644.26	439.42
644.61	437.94
644.95	436.13
645.29	434.42
645.64	432.60
645.98	430.84
646.32	429.37
646.66	427.79
647.01	426.27
647.35	424.85
647.69	423.18
648.04	421.65
648.38	420.05
648.72	418.45
649.06	416.90
649.41	415.17
649.75	413.74
650.09	412.17
650.43	410.50
650.78	408.76
651.12	407.18
651.46	405.71
651.80	404.30
652.14	402.87
652.49	401.36
652.83	399.86
653.17	398.33
653.51	396.69
653.85	395.30
654.20	393.76
654.54	392.25
654.88	390.73
655.22	389.20
655.56	387.61
655.90	386.13
656.25	384.59
656.59	383.07
656.93	381.61
657.27	380.32
657.61	378.71
657.95	377.32
658.29	375.92
658.64	374.47
658.98	372.90
659.32	371.34
659.66	369.78
660.00	368.23
660.34	366.75
660.68	365.26
661.02	363.65
661.36	362.36
661.70	360.96
662.05	359.73
662.39	358.54
662.73	357.34
663.07	356.10
663.41	354.96
663.75	353.62
664.09	352.36
664.43	350.86
664.77	349.77
665.11	348.36
665.45	347.15
665.79	345.92
666.13	344.70
666.47	343.46
666.81	342.31
667.15	341.08
667.49	340.10
667.83	339.21
668.17	338.16
668.51	337.05
668.85	336.02
669.19	335.08
669.53	333.84
669.87	332.70
670.21	331.60
670.55	330.49
670.89	329.69
671.23	328.65
671.57	327.70
671.91	326.64
672.25	325.73
672.58	324.82
672.92	323.77
673.26	322.78
673.60	321.90
673.94	321.05
674.28	320.23
674.62	319.29
674.96	318.24
675.30	317.36
675.64	316.35
675.97	315.38
676.31	314.39
676.65	313.64
676.99	312.89
677.33	311.94
677.67	311.08
678.01	309.97
678.34	309.11
678.68	308.28
679.02	307.40
679.36	306.59
679.70	305.60
680.04	304.81
680.37	303.95
680.71	303.05
681.05	302.17
681.39	301.31
681.73	300.51
682.06	299.70
682.40	298.91
682.74	298.13
683.08	297.47
683.42	296.56
683.75	295.64
684.09	294.73
684.43	293.97
684.77	293.13
685.10	292.41
685.44	291.51
685.78	290.65
686.12	290.01
686.45	289.25
686.79	288.52
687.13	287.78
687.46	287.12
687.80	286.58
688.14	285.85
688.48	285.10
688.81	284.35
689.15	283.76
689.49	282.96
689.82	282.33
690.16	281.42
690.50	280.75
690.83	280.05
691.17	279.32
691.51	278.63
691.84	277.94
692.18	277.19
692.52	276.57
692.85	276.05
693.19	275.49
693.52	274.87
693.86	274.25
694.20	273.59
694.53	272.93
694.87	272.14
695.21	271.45
695.54	270.83
695.88	270.09
696.21	269.27
696.55	268.71
696.88	268.08
697.22	267.52
697.56	266.97
697.89	266.45
698.23	265.96
698.56	265.33
698.90	264.89
699.23	264.43
699.57	263.90
699.90	263.22
700.24	262.57
700.58	262.03
700.91	261.49
701.25	261.14
701.58	260.72
701.92	260.31
702.25	259.83
702.59	259.38
702.92	258.98
703.26	258.58
703.59	258.10
703.93	258.02
704.26	257.55
704.60	257.14
704.93	256.62
705.26	256.09
705.60	255.67
705.93	255.13
706.27	254.72
706.60	254.33
706.94	254.15
707.27	253.68
707.61	253.23
707.94	252.86
708.27	252.23
708.61	251.65
708.94	251.27
709.28	250.78
709.61	250.31
709.94	249.91
710.28	249.45
710.61	248.99
710.95	248.19
711.28	248.06
711.61	247.61
711.95	247.35
712.28	246.98
712.61	246.66
712.95	246.49
713.28	246.37
713.61	245.90
713.95	245.42
714.28	245.10
714.61	244.69
714.95	244.29
715.28	243.91
715.61	243.60
715.95	243.24
716.28	242.94
716.61	242.61
716.95	242.13
717.28	241.85
717.61	241.51
717.94	241.18
718.28	240.68
718.61	240.33
718.94	239.95
719.27	239.63
719.61	239.35
719.94	238.91
720.27	238.29
720.60	238.01
720.94	237.68
721.27	237.36
721.60	237.18
721.93	236.89
722.27	236.76
722.60	236.61
722.93	236.27
723.26	235.99
723.59	235.74
723.93	235.65
724.26	235.40
724.59	235.22
724.92	235.03
725.25	234.78
725.59	234.60
725.92	234.43
726.25	234.16
726.58	233.92
726.91	233.72
727.24	233.59
727.57	233.34
727.91	233.00
728.24	232.94
728.57	232.65
728.90	232.45
729.23	232.12
729.56	232.07
729.89	231.94
730.22	231.73
730.55	231.48
730.89	231.24
731.22	231.01
731.55	230.79
731.88	230.64
732.21	230.41
732.54	230.18
732.87	229.96
733.20	229.88
733.53	229.69
733.86	229.49
734.19	229.24
734.52	229.15
734.85	229.30
735.18	228.95
735.51	228.91
735.84	228.81
736.17	228.73
736.50	228.35
736.83	228.47
737.16	228.38
737.49	228.29
737.82	228.10
738.15	227.97
738.48	227.75
738.81	227.53
739.14	227.40
739.47	227.20
739.80	227.00
740.13	226.85
740.46	226.63
740.79	226.48
741.12	226.36
741.45	226.13
741.78	225.83
742.11	225.86
742.44	225.52
742.77	225.42
743.10	225.25
743.43	225.11
743.75	224.61
744.08	224.92
744.41	224.73
744.74	224.62
745.07	224.44
745.40	224.42
745.73	224.45
746.06	224.24
746.39	224.25
746.71	224.14
747.04	223.94
747.37	223.84
747.70	223.73
748.03	223.62
748.36	223.62
748.68	223.50
749.01	223.21
749.34	223.19
749.67	223.14
750.00	223.11
750.33	223.24
750.65	223.13
750.98	222.59
751.31	222.55
751.64	222.42
751.97	222.56
752.29	222.47
752.62	222.21
752.95	222.03
753.28	221.94
753.60	221.81
753.93	221.81
754.26	221.79
754.59	221.54
754.91	221.36
755.24	221.23
755.57	221.08
755.90	221.08
756.22	220.88
756.55	220.67
756.88	220.44
757.20	220.11
757.53	220.00
757.86	219.88
758.19	219.76
758.51	219.69
758.84	219.40
759.17	219.24
759.49	219.13
759.82	219.24
760.15	219.05
760.47	219.00
760.80	218.74
761.13	218.57
761.45	218.58
761.78	218.54
762.11	218.47
762.43	218.42
762.76	218.26
763.08	218.33
763.41	218.28
763.74	218.29
764.06	218.15
764.39	218.10
764.71	218.01
765.04	217.86
765.37	217.80
765.69	217.73
766.02	217.67
766.34	217.55
766.67	217.39
767.00	217.45
767.32	217.46
767.65	217.72
767.97	217.68
768.30	217.64
768.62	217.57
768.95	217.53
769.27	217.45
769.60	217.45
769.92	217.36
770.25	217.30
770.57	217.16
770.90	217.12
771.22	217.04
771.55	217.02
771.87	217.03
772.20	216.99
772.52	217.12
772.85	217.42
773.17	217.45
773.50	217.35
773.82	217.19
774.15	217.02
774.47	216.68
774.80	216.58
775.12	216.48
775.45	216.49
775.77	216.40
776.09	216.38
776.42	216.37
776.74	216.36
777.07	216.21
777.39	216.16
777.72	216.06
778.04	215.99
778.36	215.90
778.69	215.85
779.01	215.71
779.33	215.45
779.66	215.06
779.98	214.96
780.31	215.02
780.63	215.20
780.95	215.25
781.28	215.24
781.60	215.16
781.92	215.08
782.25	215.00
782.57	214.91
782.89	214.85
783.22	214.72
783.54	214.58
783.86	214.56
784.19	214.55
784.51	214.64
784.83	214.60
785.16	214.49
785.48	214.41
785.80	214.40
786.12	214.40
786.45	214.40
786.77	214.41
787.09	214.29
787.42	214.06
787.74	214.00
788.06	213.99
788.38	213.99
788.71	214.02
789.03	213.96
789.35	213.99
789.67	213.91
789.99	213.92
790.32	213.91
790.64	213.91
790.96	214.12
791.28	213.98
791.61	213.94
791.93	214.02
792.25	214.05
792.57	214.26
792.89	214.14
793.21	214.16
793.54	214.03
793.86	213.99
794.18	214.00
794.50	213.90
794.82	213.82
795.14	213.80
795.47	213.77
795.79	213.75
796.11	213.64
796.43	213.59
796.75	213.57
797.07	213.54
797.39	213.55
797.71	213.30
798.04	213.30
798.36	213.33
798.68	213.33
799.00	213.25
799.32	213.07
799.64	213.09
799.96	213.00
800.28	213.05
800.60	213.02
800.92	213.01
801.24	213.02
801.56	213.05
801.89	213.00
802.21	213.07
802.53	212.98
802.85	213.00
803.17	213.08
803.49	213.02
803.81	212.98
804.13	212.88
804.45	212.80
804.77	212.83
805.09	212.82
805.41	212.70
805.73	212.65
806.05	212.59
806.37	212.54
806.69	212.52
807.01	212.60
807.33	212.68
807.65	212.60
807.97	212.74
808.28	212.72
808.60	212.72
808.92	212.66
809.24	212.93
809.56	212.85
809.88	212.78
810.20	212.80
810.52	212.89
810.84	212.92
811.16	212.85
811.48	212.84
811.80	212.94
812.12	212.96
812.43	213.01
812.75	213.01
813.07	213.01
813.39	212.96
813.71	212.83
814.03	212.75
814.35	212.72
814.67	212.50
814.98	212.40
815.30	212.44
815.62	212.35
815.94	212.11
816.26	212.19
816.58	212.09
816.89	212.11
817.21	211.92
817.53	211.89
817.85	211.93
818.17	211.93
818.48	211.79
818.80	211.91
819.12	211.94
819.44	211.81
819.76	211.78
820.07	211.79
820.39	211.83
820.71	211.91
821.03	211.93
821.34	211.98
821.66	212.10
821.98	212.12
822.30	212.14
822.61	212.31
822.93	212.30
823.25	212.37
823.57	212.32
823.88	212.50
824.20	212.49
824.52	212.60
824.83	212.52
825.15	212.48
825.47	212.35
825.79	212.27
826.10	212.31
826.42	212.33
826.74	212.43
827.05	212.36
827.37	212.35
827.69	212.34
828.00	212.32
828.32	212.35
828.64	212.32
828.95	212.52
829.27	212.44
829.58	212.36
829.90	212.38
830.22	212.35
830.53	212.21
830.85	212.20
831.17	212.08
831.48	212.12
831.80	212.19
832.11	212.19
832.43	212.21
832.75	212.22
833.06	212.39
833.38	212.27
833.69	212.26
834.01	212.23
834.32	212.16
834.64	212.09
834.96	212.00
835.27	212.02
835.59	211.84
835.90	211.78
836.22	211.87
836.53	211.77
836.85	211.84
837.16	212.13
837.48	212.12
837.79	212.25
838.11	212.25
838.42	212.15
838.74	212.18
839.05	212.11
839.37	212.07
839.68	211.86
840.00	211.81
840.31	211.96
840.63	211.86
840.94	211.85
841.26	211.84
841.57	211.83
841.88	211.79
842.20	211.75
842.51	211.68
842.83	211.65
843.14	212.02
843.46	212.00
843.77	211.79
844.08	211.83
844.40	211.70
844.71	211.63
845.03	211.61
845.34	211.59
845.65	211.63
845.97	211.62
846.28	211.65
846.60	211.73
846.91	211.63
847.22	211.65
847.54	211.71
847.85	211.74
848.16	211.72
848.48	211.67
848.79	211.83
849.10	211.91
849.42	211.89
849.73	211.55
850.04	211.46
850.36	211.40
850.67	211.38
850.98	211.40
851.30	211.47
851.61	211.50
851.92	211.49
852.23	211.60
852.55	211.67
852.86	211.65
853.17	211.65
853.49	211.70
853.80	211.77
854.11	211.75
854.42	211.79
854.74	211.82
855.05	211.87
855.36	211.61
855.67	211.63
855.99	211.65
856.30	211.98
856.61	212.06
856.92	212.11
857.23	212.15
857.55	212.10
857.86	212.07
858.17	212.04
858.48	211.98
858.79	211.89
859.11	211.90
859.42	211.91
859.73	211.83
860.04	211.78
860.35	211.67
860.66	211.68
860.98	211.62
861.29	211.68
861.60	211.61
861.91	211.72
862.22	211.61
862.53	211.58
862.84	211.18
863.16	211.27
863.47	211.15
863.78	211.09
864.09	211.15
864.40	211.24
864.71	211.25
865.02	211.35
865.33	211.25
865.64	211.23
865.95	211.22
866.27	211.45
866.58	211.43
866.89	211.53
867.20	211.54
867.51	211.57
867.82	211.50
868.13	211.74
868.44	211.71
868.75	211.79
869.06	211.82
869.37	211.89
869.68	211.73
869.99	211.81
870.30	211.90
870.61	211.87
870.92	211.77
871.23	211.86
871.54	211.86
871.85	212.01
872.16	212.00
872.47	211.99
872.78	211.79
873.09	211.80
873.40	211.66
873.71	211.69
874.02	211.66
874.33	211.63
874.64	211.47
874.95	211.50
875.26	211.42
875.56	211.38
875.87	211.41
876.18	211.39
876.49	211.65
876.80	211.58
877.11	211.51
877.42	211.50
877.73	211.49
878.04	211.40
878.35	211.34
878.66	211.32
878.96	211.28
879.27	211.28
879.58	211.28
879.89	211.33
880.20	211.36
880.51	211.29
880.82	211.25
881.12	211.25
881.43	211.16
881.74	211.19
882.05	211.18
882.36	211.18
882.67	211.20
882.97	210.82
883.28	210.77
883.59	210.76
883.90	210.82
884.21	210.79
884.51	210.85
884.82	210.82
885.13	210.83
885.44	210.83
885.74	210.80
886.05	210.78
886.36	210.79
886.67	210.73
886.98	210.96
887.28	211.04
887.59	211.06
887.90	211.12
888.20	211.04
888.51	211.06
888.82	211.03
889.13	211.06
889.43	211.36
889.74	211.39
890.05	211.47
890.35	211.41
890.66	211.36
890.97	211.30
891.28	211.33
891.58	211.38
891.89	211.40
892.20	211.40
892.50	211.36
892.81	211.31
893.12	211.24
893.42	211.00
893.73	210.97
894.04	210.94
894.34	210.96
894.65	210.88
894.95	210.82
895.26	210.80
895.57	210.97
895.87	210.69
896.18	210.77
896.48	210.75
896.79	210.77
897.10	210.90
897.40	210.98
897.71	210.97
898.01	210.85
898.32	210.89
898.63	210.89
898.93	210.97
899.24	211.06
899.54	211.04
899.85	211.13
900.15	211.15
900.46	211.19
900.76	211.23
901.07	211.33
901.38	211.35
901.68	211.40
901.99	211.22
902.29	211.24
902.60	211.24
902.90	211.21
903.21	211.15
903.51	211.10
903.82	211.13
904.12	211.16
904.43	211.27
904.73	211.18
905.03	211.21
905.34	211.55
905.64	211.50
905.95	211.58
906.25	211.61
906.56	211.60
906.86	211.60
907.17	211.53
907.47	211.53
907.77	211.56
908.08	211.54
908.38	211.56
908.69	211.65
908.99	211.63
909.30	211.67
909.60	211.77
909.90	211.78
910.21	211.68
910.51	211.55
910.81	211.52
911.12	211.64
911.42	211.60
911.73	211.22
912.03	211.26
912.33	211.32
912.64	211.25
912.94	211.16
913.24	211.12
913.55	211.15
913.85	211.22
914.15	211.26
914.46	211.25
914.76	211.17
915.06	211.13
915.37	211.07
915.67	210.94
915.97	210.92
916.27	210.86
916.58	210.92
916.88	211.00
917.18	211.03
917.49	211.28
917.79	211.36
918.09	211.40
918.39	211.45
918.70	211.40
919.00	211.35
919.30	211.53
919.60	211.53
919.91	211.45
920.21	211.38
920.51	211.31
920.81	211.34
921.12	211.43
921.42	211.43
921.72	211.49
922.02	211.64
922.32	211.65
922.63	211.70
922.93	211.85
923.23	211.83
923.53	211.71
923.83	211.39
924.13	211.41
924.44	211.50
924.74	211.61
925.04	211.74
925.34	211.85
925.64	211.74
925.94	211.75
926.24	211.95
926.55	211.97
926.85	212.01
927.15	212.02
927.45	211.97
927.75	211.90
928.05	211.87
928.35	211.75
928.65	211.79
928.95	211.87
929.26	211.75
929.56	211.80
929.86	211.97
930.16	211.96
930.46	211.89
930.76	211.85
931.06	211.72
931.36	211.59
931.66	211.56
931.96	211.65
932.26	211.66
932.56	211.59
932.86	211.65
933.16	211.67
933.46	211.65
933.76	211.66
934.06	211.77
934.36	211.93
934.66	211.96
934.96	211.87
935.26	211.70
935.56	211.67
935.86	211.60
936.16	211.44
936.46	211.44
936.76	211.41
937.06	211.34
937.36	211.22
937.66	211.23
937.96	211.21
938.26	211.10
938.56	211.04
938.86	211.00
939.16	211.00
939.46	211.01
939.76	210.98
940.06	210.93
940.35	210.87
940.65	210.63
940.95	210.63
941.25	210.62
941.55	210.63
941.85	210.61
942.15	210.70
942.45	210.80
942.75	210.78
943.04	210.76
943.34	210.79
943.64	210.78
943.94	210.74
944.24	210.72
944.54	210.71
944.84	210.76
945.13	210.64
945.43	210.56
945.73	210.50
946.03	210.53
946.33	210.46
946.62	210.48
946.92	210.50
947.22	210.57
947.52	210.62
947.82	210.67
948.11	210.62
948.41	210.52
948.71	210.45
949.01	210.46
949.31	210.40
949.60	210.35
949.90	210.44
950.20	210.38
950.50	210.34
950.79	210.39
951.09	210.32
951.39	210.37
951.69	210.29
951.98	210.36
952.28	210.32
952.58	210.34
952.87	210.29
953.17	210.37
953.47	210.27
953.76	210.25
954.06	210.12
954.36	210.13
954.66	210.17
954.95	210.26
955.25	210.24
955.55	210.32
955.84	210.30
956.14	210.37
956.44	210.43
956.73	210.38
957.03	210.34
957.32	210.43
957.62	210.38
957.92	210.49
958.21	210.46
958.51	210.85
958.81	210.94
959.10	211.02
959.40	211.09
959.69	211.13
959.99	211.18
960.29	211.28
960.58	211.27
960.88	211.45
961.17	211.39
961.47	211.49
961.76	211.51
962.06	211.57
962.36	211.50
962.65	211.49
962.95	211.55
963.24	211.56
963.54	211.56
963.83	211.61
964.13	211.55
964.42	211.52
964.72	211.32
965.01	211.28
965.31	211.27
965.60	211.15
965.90	211.41
966.19	211.25
966.49	211.28
966.78	211.26
967.08	211.15
967.37	211.15
967.67	211.10
967.96	211.12
968.26	211.11
968.55	211.14
968.85	211.15
969.14	211.15
969.43	211.15
969.73	211.09
970.02	211.12
970.32	211.17
970.61	211.12
970.91	210.94
971.20	210.91
971.49	210.83
971.79	210.84
972.08	210.60
972.38	210.68
972.67	210.67
972.96	210.76
973.26	210.75
973.55	210.86
973.85	210.81
974.14	210.81
974.43	210.83
974.73	210.73
975.02	210.71
975.31	210.73
975.61	210.73
975.90	210.74
976.19	210.69
976.49	210.71
976.78	210.75
977.07	210.77
977.37	210.81
977.66	210.93
977.95	210.94
978.24	210.98
978.54	211.10
978.83	211.07
979.12	210.96
979.42	211.02
979.71	210.93
980.00	210.98
980.29	210.93
980.59	210.87
980.88	211.02
981.17	210.99
981.46	210.99
981.76	211.01
982.05	211.12
982.34	211.10
982.63	211.07
982.93	211.10
983.22	211.15
983.51	211.15
983.80	211.12
984.09	211.15
984.39	211.06
984.68	211.02
984.97	211.03
985.26	211.05
985.55	210.98
985.85	210.89
986.14	210.95
986.43	210.99
986.72	211.01
987.01	210.90
987.30	210.90
987.59	210.85
987.89	210.84
988.18	210.78
988.47	210.74
988.76	210.77
989.05	210.72
989.34	210.69
989.63	210.82
989.92	210.80
990.22	210.71
990.51	210.68
990.80	210.64
991.09	210.76
991.38	210.85
991.67	210.79
991.96	210.84
992.25	210.76
992.54	210.75
992.83	210.73
993.12	210.75
993.41	210.81
993.70	210.95
993.99	210.96
994.28	210.97
994.58	211.06
994.87	210.96
995.16	210.96
995.45	210.91
995.74	210.77
996.03	210.80
996.32	210.86
996.61	210.96
996.90	210.87
997.19	210.74
997.48	210.72
997.77	210.74
998.06	210.72
998.34	210.75
998.63	210.70
998.92	210.73
999.21	210.72
999.50	210.74
999.79	210.63
1000.08	210.64
1000.37	210.62
1000.66	210.56
1000.95	210.73
1001.24	210.73
1001.53	210.80
1001.82	210.81
1002.11	210.77
1002.40	210.76
1002.68	210.89
1002.97	211.18
1003.26	211.17
1003.55	211.15
1003.84	211.12
1004.13	211.20
1004.42	211.18
1004.71	211.15
1004.99	211.16
1005.28	211.31
1005.57	211.33
1005.86	211.31
1006.15	211.27
1006.44	211.20
1006.72	211.29
1007.01	211.22
1007.30	211.23
1007.59	211.26
1007.88	211.24
1008.17	211.20
1008.45	211.21
1008.74	211.04
1009.03	210.85
1009.32	210.84
1009.60	210.82
1009.89	210.86
1010.18	210.76
1010.47	210.74
1010.76	210.77
1011.04	210.78
1011.33	210.73
1011.62	210.68
1011.91	210.65
1012.19	210.68
1012.48	210.71
1012.77	210.69
1013.05	210.86
1013.34	210.87
1013.63	210.82
1013.92	210.90
1014.20	210.97
1014.49	210.99
1014.78	211.02
1015.06	210.97
1015.35	211.03
1015.64	211.07
1015.92	211.21
1016.21	211.23
1016.50	211.18
1016.78	211.24
1017.07	211.26
1017.36	211.14
1017.64	211.09
1017.93	211.14
1018.22	211.12
1018.50	211.11
1018.79	211.13
1019.08	210.93
1019.36	210.95
1019.65	210.94
1019.93	210.98
1020.22	210.98
1020.51	211.16
1020.79	211.11
1021.08	210.30
1021.36	210.05
1021.65	211.65
1021.94	210.85
1022.22	210.90
1022.51	211.00
1022.79	212.70
1023.08	211.35
1023.36	215.70
1023.65	209.75
>>>>>End Processed Spectral Data<<<<<
