SpectraSuite Data File
++++++++++++++++++++++++++++++++++++
Date: Mon Feb 25 16:58:58 EST 2013
User: group
Dark Spectrum Present: No
Reference Spectrum Present: No
Number of Sampled Component Spectra: 1
Spectrometers: USB2E7196
Integration Time (usec): 104000 (USB2E7196)
Spectra Averaged: 20 (USB2E7196)
Boxcar Smoothing: 10 (USB2E7196)
Correct for Electrical Dark: No (USB2E7196)
Strobe/Lamp Enabled: No (USB2E7196)
Correct for Detector Non-linearity: No (USB2E7196)
Correct for Stray Light: No (USB2E7196)
Number of Pixels in Processed Spectrum: 2048
>>>>>Begin Processed Spectral Data<<<<<
339.09	0.00
339.48	198.25
339.86	198.85
340.24	201.40
340.63	203.00
341.01	209.50
341.39	205.65
341.78	207.65
342.16	209.00
342.54	209.50
342.93	198.08
343.31	208.07
343.69	208.68
344.07	209.25
344.46	209.74
344.84	210.15
345.22	210.21
345.60	210.49
345.99	210.62
346.37	210.79
346.75	210.84
347.13	210.94
347.52	211.07
347.90	211.30
348.28	211.35
348.66	211.44
349.05	211.34
349.43	211.47
349.81	211.54
350.19	211.63
350.57	211.64
350.96	211.80
351.34	211.96
351.72	212.03
352.10	212.11
352.48	212.16
352.87	212.18
353.25	212.20
353.63	212.24
354.01	212.35
354.39	212.44
354.77	212.53
355.15	212.70
355.54	212.79
355.92	212.72
356.30	212.83
356.68	213.10
357.06	213.21
357.44	213.21
357.82	213.24
358.20	213.35
358.58	213.40
358.97	213.41
359.35	213.52
359.73	213.66
360.11	213.70
360.49	213.71
360.87	213.85
361.25	213.91
361.63	214.09
362.01	214.15
362.39	214.14
362.77	214.20
363.15	214.20
363.53	214.07
363.91	214.11
364.29	214.12
364.67	213.81
365.05	213.78
365.43	213.76
365.81	213.80
366.19	213.94
366.57	214.10
366.95	214.03
367.33	213.85
367.71	213.75
368.09	213.78
368.47	213.78
368.85	213.66
369.23	213.77
369.61	213.57
369.99	213.64
370.37	213.62
370.75	213.70
371.13	213.58
371.51	213.57
371.89	213.56
372.27	213.55
372.65	213.59
373.03	213.57
373.41	213.53
373.78	213.46
374.16	213.20
374.54	213.04
374.92	212.97
375.30	213.05
375.68	213.01
376.06	212.98
376.44	212.83
376.82	212.82
377.19	212.73
377.57	212.69
377.95	212.50
378.33	212.38
378.71	212.18
379.09	212.15
379.47	212.11
379.84	212.04
380.22	211.97
380.60	211.83
380.98	211.79
381.36	211.78
381.73	211.74
382.11	211.79
382.49	211.76
382.87	211.68
383.25	211.55
383.62	211.86
384.00	211.77
384.38	211.83
384.76	211.82
385.13	211.86
385.51	211.87
385.89	211.79
386.27	211.76
386.64	211.77
387.02	211.75
387.40	211.76
387.78	211.72
388.15	211.70
388.53	211.68
388.91	211.70
389.29	211.59
389.66	211.62
390.04	211.57
390.42	211.55
390.79	211.52
391.17	211.54
391.55	211.16
391.92	211.14
392.30	211.13
392.68	211.13
393.05	211.16
393.43	211.17
393.81	211.21
394.18	211.18
394.56	211.18
394.94	211.22
395.31	211.17
395.69	211.30
396.06	211.30
396.44	211.39
396.82	211.31
397.19	211.52
397.57	211.47
397.95	211.42
398.32	211.31
398.70	211.38
399.07	211.49
399.45	211.54
399.82	211.58
400.20	211.64
400.58	211.64
400.95	211.54
401.33	211.59
401.70	211.92
402.08	211.93
402.45	212.01
402.83	212.16
403.20	212.32
403.58	212.38
403.95	212.64
404.33	212.86
404.71	213.05
405.08	213.34
405.46	213.56
405.83	213.89
406.21	214.17
406.58	214.49
406.96	214.67
407.33	214.93
407.70	215.27
408.08	215.90
408.45	216.35
408.83	216.85
409.20	217.27
409.58	217.47
409.95	218.07
410.33	218.64
410.70	219.11
411.08	219.80
411.45	220.50
411.82	221.13
412.20	221.89
412.57	223.00
412.95	223.59
413.32	224.58
413.69	225.54
414.07	226.65
414.44	227.81
414.82	229.09
415.19	230.47
415.56	231.98
415.94	233.35
416.31	235.00
416.68	236.71
417.06	238.70
417.43	240.55
417.81	242.70
418.18	244.84
418.55	247.25
418.93	249.76
419.30	252.29
419.67	254.95
420.04	257.74
420.42	260.54
420.79	264.18
421.16	267.66
421.54	271.40
421.91	275.11
422.28	279.06
422.66	283.18
423.03	287.38
423.40	291.55
423.77	296.00
424.15	300.59
424.52	305.43
424.89	310.68
425.26	315.75
425.64	320.61
426.01	325.99
426.38	331.53
426.75	337.20
427.13	343.13
427.50	349.41
427.87	355.96
428.24	362.50
428.61	368.59
428.99	375.48
429.36	382.86
429.73	390.23
430.10	397.57
430.47	405.11
430.85	413.01
431.22	421.38
431.59	430.33
431.96	438.95
432.33	448.32
432.70	457.50
433.08	468.20
433.45	478.38
433.82	488.58
434.19	499.95
434.56	511.02
434.93	521.74
435.30	532.31
435.68	544.12
436.05	555.89
436.42	567.65
436.79	578.38
437.16	589.98
437.53	602.40
437.90	614.64
438.27	626.88
438.64	639.62
439.01	651.41
439.38	662.10
439.75	672.42
440.13	684.07
440.50	695.18
440.87	704.36
441.24	713.90
441.61	724.48
441.98	732.39
442.35	741.70
442.72	751.09
443.09	760.29
443.46	766.15
443.83	770.44
444.20	774.28
444.57	779.46
444.94	782.39
445.31	785.40
445.68	788.40
446.05	790.05
446.42	789.54
446.79	789.07
447.16	788.25
447.53	788.15
447.90	784.57
448.27	780.83
448.64	775.64
449.01	772.08
449.37	764.78
449.74	757.95
450.11	749.35
450.48	740.01
450.85	730.40
451.22	722.19
451.59	714.35
451.96	706.92
452.33	696.77
452.70	687.70
453.07	676.52
453.43	665.04
453.80	654.26
454.17	643.80
454.54	633.84
454.91	623.05
455.28	612.40
455.65	602.79
456.02	593.05
456.38	584.73
456.75	574.13
457.12	565.49
457.49	556.78
457.86	548.42
458.23	541.14
458.59	533.23
458.96	525.26
459.33	518.22
459.70	511.11
460.07	505.38
460.43	498.85
460.80	492.66
461.17	487.27
461.54	481.45
461.91	476.16
462.27	470.58
462.64	465.92
463.01	460.74
463.38	455.74
463.74	450.71
464.11	446.21
464.48	442.48
464.85	438.26
465.21	435.14
465.58	431.72
465.95	427.58
466.32	424.24
466.68	420.80
467.05	417.39
467.42	413.95
467.78	410.45
468.15	406.99
468.52	404.52
468.88	401.28
469.25	398.37
469.62	395.94
469.98	393.50
470.35	391.13
470.72	388.87
471.08	386.35
471.45	384.28
471.82	382.16
472.18	379.88
472.55	378.21
472.92	376.19
473.28	374.39
473.65	372.70
474.02	370.93
474.38	369.59
474.75	368.36
475.11	367.06
475.48	365.94
475.85	365.07
476.21	364.15
476.58	363.36
476.94	362.81
477.31	362.10
477.67	361.40
478.04	360.87
478.41	360.48
478.77	360.41
479.14	360.01
479.50	359.85
479.87	359.84
480.23	359.77
480.60	359.57
480.96	359.56
481.33	359.87
481.69	360.05
482.06	360.16
482.42	360.36
482.79	360.58
483.15	361.08
483.52	361.79
483.88	362.24
484.25	362.72
484.61	363.30
484.98	363.91
485.34	364.80
485.71	365.78
486.07	366.77
486.44	367.51
486.80	368.74
487.17	369.97
487.53	371.31
487.90	372.82
488.26	374.60
488.62	376.38
488.99	378.07
489.35	379.88
489.72	381.78
490.08	383.75
490.44	385.81
490.81	387.99
491.17	389.95
491.54	392.37
491.90	394.77
492.26	397.30
492.63	399.96
492.99	402.56
493.36	405.30
493.72	408.22
494.08	411.24
494.45	414.32
494.81	417.63
495.17	420.93
495.54	424.23
495.90	427.60
496.26	431.06
496.63	434.55
496.99	438.27
497.35	441.94
497.72	445.82
498.08	449.75
498.44	453.72
498.80	457.99
499.17	462.10
499.53	466.31
499.89	470.46
500.26	474.52
500.62	478.62
500.98	482.96
501.34	487.23
501.71	491.58
502.07	495.76
502.43	499.86
502.79	503.99
503.16	508.21
503.52	512.40
503.88	516.47
504.24	520.57
504.60	524.67
504.97	529.11
505.33	533.00
505.69	537.32
506.05	541.40
506.41	545.25
506.78	548.92
507.14	552.72
507.50	556.66
507.86	560.58
508.22	564.40
508.59	567.95
508.95	571.55
509.31	575.06
509.67	578.65
510.03	582.24
510.39	585.74
510.75	589.14
511.12	592.46
511.48	595.71
511.84	598.96
512.20	602.02
512.56	605.00
512.92	608.19
513.28	611.08
513.64	613.84
514.00	616.54
514.37	619.32
514.73	622.16
515.09	624.79
515.45	627.31
515.81	629.86
516.17	632.30
516.53	634.53
516.89	636.77
517.25	638.86
517.61	640.97
517.97	642.89
518.33	644.77
518.69	646.73
519.05	648.60
519.41	650.36
519.77	652.35
520.13	653.81
520.49	655.29
520.85	656.68
521.21	658.25
521.57	659.80
521.93	661.23
522.29	662.63
522.65	663.95
523.01	665.30
523.37	666.31
523.73	667.57
524.09	668.77
524.45	670.02
524.81	671.19
525.17	672.54
525.53	673.81
525.89	675.05
526.25	676.11
526.61	677.20
526.97	678.34
527.33	679.40
527.68	680.97
528.04	682.40
528.40	683.44
528.76	684.54
529.12	685.87
529.48	687.41
529.84	688.70
530.20	690.00
530.56	691.37
530.91	693.10
531.27	694.57
531.63	696.04
531.99	697.44
532.35	699.09
532.71	700.36
533.07	702.10
533.42	704.03
533.78	705.68
534.14	707.39
534.50	708.87
534.86	710.58
535.21	711.93
535.57	713.83
535.93	715.89
536.29	717.88
536.65	719.82
537.00	721.32
537.36	723.08
537.72	724.87
538.08	726.72
538.44	728.44
538.79	730.53
539.15	732.52
539.51	734.66
539.87	736.76
540.22	738.92
540.58	741.38
540.94	743.25
541.29	745.48
541.65	747.57
542.01	749.99
542.37	752.26
542.72	754.44
543.08	756.27
543.44	758.62
543.79	760.41
544.15	762.51
544.51	765.08
544.87	767.51
545.22	769.91
545.58	772.07
545.94	774.30
546.29	776.32
546.65	778.49
547.01	780.64
547.36	782.77
547.72	785.04
548.07	786.80
548.43	788.74
548.79	790.61
549.14	792.59
549.50	794.76
549.86	796.75
550.21	798.92
550.57	801.28
550.92	803.08
551.28	805.55
551.64	807.71
551.99	809.86
552.35	811.82
552.70	813.63
553.06	815.81
553.41	817.93
553.77	820.35
554.13	822.60
554.48	825.00
554.84	827.43
555.19	829.56
555.55	831.86
555.90	833.92
556.26	836.16
556.61	838.22
556.97	839.92
557.32	841.94
557.68	843.89
558.03	845.70
558.39	847.50
558.74	849.18
559.10	850.89
559.45	852.61
559.81	854.53
560.16	856.41
560.52	858.18
560.87	859.98
561.23	861.30
561.58	863.09
561.94	864.33
562.29	865.32
562.64	866.73
563.00	868.18
563.35	869.79
563.71	871.53
564.06	873.24
564.42	875.16
564.77	876.82
565.12	878.52
565.48	880.37
565.83	882.07
566.19	883.92
566.54	885.42
566.89	886.78
567.25	888.31
567.60	889.81
567.96	891.52
568.31	893.21
568.66	894.68
569.02	895.58
569.37	896.63
569.72	898.10
570.08	899.10
570.43	899.88
570.78	900.84
571.14	901.40
571.49	901.96
571.84	902.58
572.20	902.90
572.55	903.32
572.90	903.15
573.26	903.23
573.61	903.15
573.96	903.12
574.31	902.95
574.67	902.43
575.02	901.95
575.37	901.26
575.72	900.34
576.08	899.90
576.43	899.18
576.78	898.44
577.13	897.84
577.49	897.33
577.84	896.69
578.19	896.12
578.54	895.67
578.90	895.41
579.25	894.66
579.60	893.82
579.95	892.75
580.30	891.97
580.66	891.20
581.01	890.28
581.36	889.23
581.71	888.13
582.06	887.34
582.42	886.36
582.77	885.13
583.12	884.10
583.47	882.86
583.82	882.13
584.17	881.15
584.53	879.91
584.88	878.49
585.23	877.08
585.58	875.56
585.93	873.99
586.28	872.52
586.63	870.99
586.98	869.85
587.34	868.78
587.69	867.08
588.04	865.55
588.39	864.18
588.74	862.48
589.09	861.18
589.44	859.30
589.79	857.88
590.14	856.43
590.49	854.87
590.84	853.11
591.19	851.43
591.54	849.85
591.89	847.88
592.25	846.54
592.60	844.80
592.95	842.82
593.30	840.71
593.65	838.29
594.00	836.10
594.35	834.66
594.70	832.29
595.05	830.65
595.40	828.60
595.75	826.27
596.10	824.62
596.45	822.62
596.80	820.98
597.15	818.99
597.50	816.68
597.85	814.66
598.19	812.56
598.54	810.40
598.89	808.38
599.24	806.73
599.59	804.41
599.94	802.25
600.29	800.35
600.64	798.28
600.99	796.17
601.34	794.45
601.69	791.42
602.04	789.17
602.39	786.71
602.74	784.44
603.08	782.44
603.43	780.58
603.78	778.23
604.13	775.79
604.48	773.57
604.83	771.84
605.18	769.80
605.53	767.58
605.87	765.29
606.22	762.95
606.57	760.31
606.92	757.82
607.27	755.65
607.62	753.20
607.96	751.17
608.31	749.16
608.66	746.49
609.01	744.05
609.36	741.76
609.70	739.37
610.05	736.95
610.40	734.54
610.75	731.68
611.10	729.46
611.44	726.64
611.79	723.80
612.14	720.77
612.49	717.74
612.83	715.18
613.18	712.34
613.53	709.55
613.88	706.68
614.22	704.02
614.57	701.08
614.92	698.33
615.27	695.40
615.61	692.55
615.96	689.92
616.31	687.34
616.65	684.70
617.00	682.09
617.35	679.34
617.70	676.36
618.04	673.50
618.39	670.21
618.74	667.77
619.08	664.93
619.43	662.39
619.78	660.04
620.12	657.33
620.47	654.77
620.82	651.91
621.16	649.10
621.51	646.38
621.85	643.74
622.20	640.98
622.55	638.18
622.89	635.20
623.24	632.42
623.59	629.56
623.93	626.93
624.28	624.31
624.62	622.06
624.97	619.58
625.32	616.91
625.66	614.53
626.01	611.80
626.35	609.50
626.70	606.83
627.04	604.10
627.39	601.56
627.73	599.18
628.08	597.01
628.43	594.58
628.77	592.10
629.12	589.54
629.46	587.15
629.81	584.70
630.15	582.30
630.50	579.64
630.84	577.13
631.19	574.44
631.53	571.95
631.88	569.05
632.22	566.40
632.57	564.16
632.91	561.74
633.26	559.53
633.60	556.99
633.95	554.69
634.29	552.20
634.64	549.93
634.98	547.28
635.32	544.89
635.67	542.87
636.01	540.54
636.36	538.26
636.70	536.17
637.05	533.97
637.39	531.93
637.73	530.13
638.08	528.20
638.42	526.29
638.77	524.28
639.11	522.32
639.45	520.37
639.80	518.02
640.14	515.70
640.49	513.30
640.83	511.16
641.17	509.00
641.52	506.85
641.86	504.63
642.20	502.62
642.55	500.20
642.89	497.78
643.23	495.55
643.58	493.63
643.92	491.20
644.26	488.96
644.61	486.84
644.95	484.57
645.29	482.43
645.64	480.35
645.98	478.06
646.32	475.88
646.66	473.55
647.01	471.40
647.35	469.54
647.69	467.46
648.04	465.48
648.38	463.38
648.72	461.32
649.06	459.10
649.41	457.05
649.75	455.05
650.09	453.11
650.43	451.15
650.78	448.86
651.12	446.92
651.46	444.90
651.80	442.91
652.14	441.02
652.49	439.14
652.83	437.05
653.17	434.98
653.51	433.04
653.85	431.22
654.20	429.36
654.54	427.26
654.88	425.34
655.22	423.34
655.56	421.42
655.90	419.50
656.25	417.63
656.59	415.62
656.93	413.82
657.27	412.12
657.61	410.16
657.95	408.46
658.29	406.60
658.64	404.98
658.98	403.05
659.32	401.09
659.66	399.24
660.00	397.45
660.34	395.69
660.68	393.88
661.02	392.04
661.36	390.25
661.70	388.62
662.05	387.06
662.39	385.54
662.73	384.00
663.07	382.60
663.41	381.10
663.75	379.54
664.09	378.06
664.43	376.36
664.77	374.94
665.11	373.35
665.45	371.96
665.79	370.44
666.13	369.00
666.47	367.46
666.81	365.89
667.15	364.35
667.49	362.98
667.83	361.78
668.17	360.36
668.51	359.16
668.85	357.89
669.19	356.72
669.53	355.18
669.87	353.71
670.21	352.33
670.55	351.00
670.89	349.97
671.23	348.71
671.57	347.54
671.91	346.21
672.25	345.05
672.58	343.88
672.92	342.59
673.26	341.44
673.60	340.28
673.94	339.13
674.28	338.01
674.62	336.97
674.96	335.77
675.30	334.78
675.64	333.58
675.97	332.41
676.31	331.10
676.65	330.15
676.99	329.27
677.33	328.02
677.67	326.95
678.01	325.78
678.34	324.58
678.68	323.54
679.02	322.44
679.36	321.28
679.70	320.17
680.04	319.09
680.37	318.09
680.71	317.11
681.05	316.13
681.39	315.19
681.73	314.21
682.06	313.22
682.40	312.28
682.74	311.35
683.08	310.50
683.42	309.59
683.75	308.64
684.09	307.60
684.43	306.76
684.77	305.75
685.10	304.80
685.44	303.87
685.78	302.82
686.12	301.96
686.45	301.12
686.79	300.25
687.13	299.55
687.46	298.64
687.80	297.95
688.14	297.14
688.48	296.30
688.81	295.39
689.15	294.61
689.49	293.71
689.82	292.83
690.16	291.85
690.50	290.97
690.83	290.06
691.17	289.20
691.51	288.31
691.84	287.62
692.18	286.80
692.52	286.10
692.85	285.48
693.19	284.90
693.52	284.13
693.86	283.27
694.20	282.43
694.53	281.74
694.87	280.88
695.21	280.05
695.54	279.31
695.88	278.47
696.21	277.58
696.55	276.90
696.88	276.18
697.22	275.57
697.56	275.00
697.89	274.30
698.23	273.64
698.56	273.02
698.90	272.33
699.23	271.60
699.57	270.88
699.90	270.09
700.24	269.31
700.58	268.68
700.91	268.18
701.25	267.82
701.58	267.26
701.92	266.75
702.25	266.20
702.59	265.53
702.92	265.06
703.26	264.54
703.59	263.94
703.93	263.70
704.26	263.07
704.60	262.42
704.93	261.91
705.26	261.32
705.60	260.79
705.93	260.18
706.27	259.86
706.60	259.58
706.94	259.31
707.27	258.70
707.61	258.28
707.94	257.75
708.27	256.94
708.61	256.34
708.94	255.77
709.28	255.34
709.61	254.85
709.94	254.44
710.28	253.96
710.61	253.58
710.95	252.81
711.28	252.62
711.61	252.18
711.95	251.81
712.28	251.36
712.61	250.99
712.95	250.83
713.28	250.41
713.61	249.86
713.95	249.28
714.28	249.04
714.61	248.53
714.95	248.11
715.28	247.68
715.61	247.31
715.95	246.90
716.28	246.42
716.61	246.17
716.95	245.71
717.28	245.43
717.61	245.02
717.94	244.67
718.28	244.06
718.61	243.69
718.94	243.20
719.27	242.85
719.61	242.49
719.94	242.05
720.27	241.58
720.60	241.22
720.94	240.99
721.27	240.64
721.60	240.45
721.93	240.19
722.27	240.05
722.60	239.85
722.93	239.55
723.26	239.35
723.59	238.96
723.93	238.74
724.26	238.43
724.59	238.11
724.92	237.84
725.25	237.67
725.59	237.47
725.92	237.39
726.25	237.22
726.58	237.05
726.91	236.76
727.24	236.56
727.57	236.37
727.91	236.06
728.24	235.94
728.57	235.69
728.90	235.55
729.23	235.26
729.56	235.11
729.89	234.90
730.22	234.69
730.55	234.53
730.89	234.30
731.22	234.03
731.55	233.91
731.88	233.83
732.21	233.55
732.54	233.29
732.87	233.06
733.20	232.83
733.53	232.57
733.86	232.38
734.19	232.12
734.52	231.92
734.85	231.97
735.18	231.67
735.51	231.57
735.84	231.31
736.17	231.19
736.50	230.87
736.83	231.13
737.16	230.90
737.49	230.69
737.82	230.44
738.15	230.39
738.48	230.11
738.81	229.83
739.14	229.69
739.47	229.46
739.80	229.14
740.13	229.02
740.46	228.81
740.79	228.63
741.12	228.44
741.45	228.23
741.78	227.85
742.11	227.74
742.44	227.42
742.77	227.32
743.10	227.12
743.43	226.92
743.75	226.37
744.08	226.71
744.41	226.49
744.74	226.39
745.07	226.13
745.40	226.04
745.73	226.09
746.06	225.86
746.39	225.81
746.71	225.73
747.04	225.51
747.37	225.33
747.70	225.21
748.03	225.10
748.36	225.05
748.68	224.86
749.01	224.65
749.34	224.54
749.67	224.42
750.00	224.23
750.33	224.38
750.65	224.20
750.98	223.70
751.31	223.61
751.64	223.52
751.97	223.60
752.29	223.46
752.62	223.11
752.95	223.02
753.28	222.86
753.60	222.76
753.93	222.69
754.26	222.63
754.59	222.42
754.91	222.34
755.24	222.16
755.57	222.03
755.90	221.85
756.22	221.74
756.55	221.55
756.88	221.45
757.20	221.14
757.53	220.98
757.86	220.80
758.19	220.79
758.51	220.68
758.84	220.41
759.17	220.28
759.49	220.27
759.82	220.31
760.15	220.24
760.47	220.13
760.80	219.93
761.13	219.94
761.45	219.81
761.78	219.74
762.11	219.70
762.43	219.63
762.76	219.59
763.08	219.55
763.41	219.49
763.74	219.40
764.06	219.26
764.39	219.24
764.71	219.12
765.04	218.89
765.37	218.69
765.69	218.55
766.02	218.49
766.34	218.40
766.67	218.18
767.00	218.10
767.32	218.21
767.65	218.37
767.97	218.26
768.30	218.27
768.62	218.17
768.95	218.01
769.27	217.98
769.60	218.02
769.92	217.88
770.25	217.70
770.57	217.60
770.90	217.53
771.22	217.40
771.55	217.37
771.87	217.42
772.20	217.39
772.52	217.68
772.85	217.92
773.17	217.82
773.50	217.81
773.82	217.78
774.15	217.55
774.47	217.27
774.80	217.15
775.12	217.10
775.45	217.05
775.77	217.02
776.09	216.93
776.42	216.80
776.74	216.85
777.07	216.84
777.39	216.85
777.72	216.78
778.04	216.78
778.36	216.66
778.69	216.58
779.01	216.60
779.33	216.19
779.66	215.88
779.98	215.80
780.31	215.76
780.63	215.85
780.95	215.83
781.28	215.77
781.60	215.62
781.92	215.53
782.25	215.44
782.57	215.41
782.89	215.38
783.22	215.34
783.54	215.13
783.86	215.09
784.19	215.01
784.51	215.10
784.83	215.04
785.16	215.01
785.48	214.98
785.80	214.90
786.12	214.88
786.45	214.82
786.77	214.80
787.09	214.75
787.42	214.59
787.74	214.57
788.06	214.60
788.38	214.59
788.71	214.52
789.03	214.54
789.35	214.55
789.67	214.41
789.99	214.40
790.32	214.40
790.64	214.39
790.96	214.58
791.28	214.44
791.61	214.46
791.93	214.44
792.25	214.40
792.57	214.60
792.89	214.56
793.21	214.45
793.54	214.38
793.86	214.26
794.18	214.19
794.50	214.13
794.82	214.14
795.14	214.18
795.47	214.24
795.79	214.18
796.11	214.05
796.43	214.05
796.75	213.98
797.07	214.05
797.39	214.03
797.71	213.76
798.04	213.76
798.36	213.72
798.68	213.61
799.00	213.60
799.32	213.36
799.64	213.41
799.96	213.46
800.28	213.51
800.60	213.49
800.92	213.55
801.24	213.47
801.56	213.41
801.89	213.33
802.21	213.28
802.53	213.19
802.85	213.29
803.17	213.44
803.49	213.36
803.81	213.29
804.13	213.24
804.45	213.21
804.77	213.17
805.09	213.11
805.41	213.09
805.73	213.06
806.05	212.97
806.37	212.96
806.69	212.87
807.01	212.81
807.33	212.85
807.65	212.66
807.97	212.88
808.28	212.83
808.60	212.89
808.92	212.83
809.24	213.04
809.56	213.02
809.88	212.90
810.20	212.94
810.52	212.96
810.84	212.89
811.16	212.82
811.48	212.78
811.80	212.88
812.12	212.88
812.43	212.92
812.75	213.03
813.07	212.92
813.39	212.90
813.71	212.89
814.03	212.84
814.35	212.86
814.67	212.62
814.98	212.50
815.30	212.40
815.62	212.31
815.94	212.06
816.26	212.02
816.58	211.98
816.89	211.99
817.21	211.89
817.53	211.98
817.85	211.97
818.17	211.95
818.48	211.81
818.80	211.86
819.12	211.70
819.44	211.49
819.76	211.50
820.07	211.57
820.39	211.57
820.71	211.60
821.03	211.63
821.34	211.68
821.66	211.76
821.98	211.82
822.30	211.81
822.61	212.05
822.93	211.95
823.25	211.92
823.57	211.91
823.88	211.97
824.20	211.87
824.52	211.95
824.83	211.94
825.15	211.87
825.47	211.88
825.79	211.93
826.10	211.99
826.42	212.00
826.74	211.98
827.05	211.95
827.37	211.97
827.69	211.92
828.00	211.90
828.32	211.90
828.64	211.92
828.95	212.12
829.27	212.00
829.58	212.04
829.90	212.03
830.22	212.00
830.53	211.91
830.85	211.91
831.17	211.81
831.48	211.80
831.80	211.85
832.11	211.84
832.43	211.85
832.75	211.86
833.06	212.03
833.38	211.95
833.69	211.95
834.01	211.97
834.32	211.97
834.64	211.94
834.96	211.90
835.27	211.81
835.59	211.71
835.90	211.69
836.22	211.65
836.53	211.65
836.85	211.65
837.16	211.97
837.48	211.98
837.79	212.08
838.11	212.20
838.42	212.18
838.74	212.23
839.05	212.17
839.37	212.21
839.68	211.95
840.00	211.89
840.31	211.92
840.63	211.88
840.94	211.80
841.26	211.65
841.57	211.68
841.88	211.73
842.20	211.65
842.51	211.61
842.83	211.61
843.14	211.89
843.46	211.88
843.77	211.76
844.08	211.79
844.40	211.72
844.71	211.66
845.03	211.61
845.34	211.54
845.65	211.58
845.97	211.51
846.28	211.55
846.60	211.60
846.91	211.47
847.22	211.45
847.54	211.56
847.85	211.69
848.16	211.61
848.48	211.57
848.79	211.71
849.10	211.75
849.42	211.79
849.73	211.45
850.04	211.44
850.36	211.34
850.67	211.33
850.98	211.31
851.30	211.25
851.61	211.32
851.92	211.34
852.23	211.40
852.55	211.48
852.86	211.54
853.17	211.55
853.49	211.65
853.80	211.70
854.11	211.79
854.42	211.77
854.74	211.86
855.05	211.80
855.36	211.65
855.67	211.59
855.99	211.55
856.30	211.92
856.61	211.88
856.92	211.84
857.23	211.87
857.55	211.88
857.86	211.90
858.17	211.95
858.48	211.88
858.79	211.75
859.11	211.70
859.42	211.66
859.73	211.63
860.04	211.66
860.35	211.54
860.66	211.41
860.98	211.45
861.29	211.40
861.60	211.43
861.91	211.52
862.22	211.48
862.53	211.44
862.84	211.08
863.16	211.16
863.47	211.06
863.78	211.00
864.09	211.02
864.40	210.99
864.71	210.97
865.02	211.04
865.33	211.02
865.64	211.06
865.95	211.02
866.27	211.25
866.58	211.25
866.89	211.28
867.20	211.29
867.51	211.25
867.82	211.29
868.13	211.39
868.44	211.28
868.75	211.36
869.06	211.40
869.37	211.41
869.68	211.27
869.99	211.35
870.30	211.34
870.61	211.40
870.92	211.39
871.23	211.32
871.54	211.37
871.85	211.44
872.16	211.44
872.47	211.44
872.78	211.19
873.09	211.21
873.40	211.25
873.71	211.27
874.02	211.32
874.33	211.22
874.64	211.11
874.95	211.25
875.26	211.18
875.56	211.15
875.87	211.15
876.18	211.18
876.49	211.48
876.80	211.55
877.11	211.37
877.42	211.44
877.73	211.47
878.04	211.37
878.35	211.42
878.66	211.38
878.96	211.39
879.27	211.45
879.58	211.41
879.89	211.33
880.20	211.35
880.51	211.34
880.82	211.39
881.12	211.44
881.43	211.29
881.74	211.25
882.05	211.26
882.36	211.26
882.67	211.33
882.97	211.03
883.28	210.94
883.59	210.99
883.90	211.07
884.21	211.12
884.51	211.06
884.82	211.04
885.13	211.05
885.44	211.07
885.74	211.09
886.05	211.05
886.36	211.08
886.67	211.05
886.98	211.21
887.28	211.30
887.59	211.25
887.90	211.35
888.20	211.36
888.51	211.46
888.82	211.43
889.13	211.39
889.43	211.64
889.74	211.72
890.05	211.78
890.35	211.65
890.66	211.57
890.97	211.65
891.28	211.58
891.58	211.62
891.89	211.65
892.20	211.58
892.50	211.54
892.81	211.55
893.12	211.54
893.42	211.30
893.73	211.27
894.04	211.35
894.34	211.31
894.65	211.35
894.95	211.29
895.26	211.31
895.57	211.47
895.87	211.14
896.18	211.13
896.48	211.12
896.79	211.20
897.10	211.34
897.40	211.32
897.71	211.36
898.01	211.32
898.32	211.34
898.63	211.35
898.93	211.43
899.24	211.43
899.54	211.39
899.85	211.43
900.15	211.45
900.46	211.35
900.76	211.38
901.07	211.36
901.38	211.32
901.68	211.41
901.99	211.25
902.29	211.31
902.60	211.31
902.90	211.26
903.21	211.15
903.51	211.04
903.82	211.10
904.12	211.14
904.43	211.15
904.73	211.01
905.03	211.09
905.34	211.38
905.64	211.33
905.95	211.33
906.25	211.34
906.56	211.30
906.86	211.30
907.17	211.26
907.47	211.26
907.77	211.26
908.08	211.09
908.38	211.11
908.69	211.13
908.99	211.12
909.30	211.10
909.60	211.12
909.90	211.15
910.21	211.15
910.51	211.07
910.81	211.12
911.12	211.19
911.42	211.12
911.73	210.76
912.03	210.84
912.33	210.87
912.64	210.82
912.94	210.81
913.24	210.84
913.55	210.78
913.85	210.77
914.15	210.79
914.46	210.88
914.76	210.87
915.06	210.74
915.37	210.70
915.67	210.75
915.97	210.75
916.27	210.69
916.58	210.63
916.88	210.61
917.18	210.56
917.49	210.83
917.79	210.85
918.09	210.93
918.39	210.98
918.70	211.03
919.00	211.08
919.30	211.27
919.60	211.20
919.91	211.19
920.21	211.26
920.51	211.25
920.81	211.28
921.12	211.35
921.42	211.40
921.72	211.40
922.02	211.41
922.32	211.45
922.63	211.54
922.93	211.69
923.23	211.70
923.53	211.68
923.83	211.40
924.13	211.38
924.44	211.33
924.74	211.34
925.04	211.37
925.34	211.35
925.64	211.10
925.94	211.09
926.24	211.24
926.55	211.14
926.85	211.16
927.15	211.11
927.45	211.13
927.75	211.13
928.05	211.14
928.35	211.11
928.65	211.13
928.95	211.04
929.26	210.93
929.56	211.06
929.86	211.04
930.16	211.06
930.46	211.01
930.76	211.05
931.06	210.98
931.36	210.87
931.66	210.90
931.96	211.00
932.26	211.04
932.56	210.95
932.86	211.02
933.16	211.03
933.46	211.01
933.76	210.88
934.06	210.99
934.36	211.14
934.66	211.10
934.96	211.10
935.26	211.13
935.56	211.23
935.86	211.07
936.16	210.99
936.46	210.95
936.76	210.96
937.06	210.90
937.36	210.89
937.66	210.94
937.96	210.90
938.26	210.83
938.56	210.82
938.86	210.83
939.16	210.83
939.46	210.84
939.76	210.87
940.06	210.94
940.35	210.82
940.65	210.71
940.95	210.76
941.25	210.67
941.55	210.68
941.85	210.57
942.15	210.67
942.45	210.85
942.75	210.83
943.04	210.87
943.34	210.90
943.64	210.89
943.94	210.83
944.24	210.94
944.54	210.95
944.84	210.96
945.13	210.87
945.43	210.81
945.73	210.75
946.03	210.73
946.33	210.67
946.62	210.69
946.92	210.65
947.22	210.67
947.52	210.71
947.82	210.73
948.11	210.69
948.41	210.62
948.71	210.50
949.01	210.62
949.31	210.57
949.60	210.55
949.90	210.54
950.20	210.59
950.50	210.45
950.79	210.41
951.09	210.55
951.39	210.59
951.69	210.60
951.98	210.71
952.28	210.67
952.58	210.68
952.87	210.72
953.17	210.75
953.47	210.70
953.76	210.72
954.06	210.67
954.36	210.62
954.66	210.64
954.95	210.79
955.25	210.74
955.55	210.76
955.84	210.72
956.14	210.77
956.44	210.85
956.73	210.87
957.03	210.90
957.32	210.77
957.62	210.75
957.92	210.87
958.21	210.86
958.51	211.30
958.81	211.36
959.10	211.36
959.40	211.42
959.69	211.43
959.99	211.40
960.29	211.37
960.58	211.33
960.88	211.44
961.17	211.34
961.47	211.38
961.76	211.36
962.06	211.44
962.36	211.44
962.65	211.33
962.95	211.35
963.24	211.36
963.54	211.41
963.83	211.39
964.13	211.35
964.42	211.20
964.72	210.88
965.01	210.89
965.31	210.86
965.60	210.79
965.90	211.03
966.19	210.96
966.49	211.03
966.78	211.04
967.08	210.99
967.37	211.01
967.67	210.95
967.96	210.97
968.26	210.95
968.55	210.94
968.85	210.97
969.14	210.94
969.43	210.95
969.73	210.95
970.02	210.95
970.32	210.90
970.61	210.97
970.91	210.94
971.20	210.80
971.49	210.78
971.79	210.87
972.08	210.58
972.38	210.71
972.67	210.73
972.96	210.87
973.26	210.83
973.55	210.89
973.85	210.94
974.14	210.93
974.43	210.91
974.73	210.85
975.02	210.85
975.31	210.79
975.61	210.74
975.90	210.69
976.19	210.75
976.49	210.75
976.78	210.78
977.07	210.74
977.37	210.77
977.66	210.85
977.95	210.78
978.24	210.92
978.54	210.94
978.83	210.92
979.12	210.85
979.42	210.81
979.71	210.75
980.00	210.66
980.29	210.71
980.59	210.72
980.88	210.87
981.17	210.85
981.46	210.98
981.76	210.99
982.05	211.11
982.34	211.07
982.63	211.16
982.93	211.14
983.22	211.26
983.51	211.27
983.80	211.28
984.09	211.29
984.39	211.23
984.68	211.14
984.97	211.12
985.26	211.12
985.55	211.20
985.85	211.19
986.14	211.28
986.43	211.35
986.72	211.31
987.01	211.24
987.30	211.20
987.59	211.20
987.89	211.19
988.18	211.03
988.47	211.07
988.76	210.92
989.05	210.94
989.34	210.85
989.63	210.96
989.92	210.83
990.22	210.80
990.51	210.82
990.80	210.84
991.09	210.82
991.38	210.79
991.67	210.77
991.96	210.76
992.25	210.79
992.54	210.66
992.83	210.68
993.12	210.62
993.41	210.70
993.70	210.78
993.99	210.91
994.28	210.95
994.58	211.03
994.87	211.10
995.16	211.07
995.45	210.98
995.74	210.85
996.03	210.95
996.32	210.99
996.61	210.99
996.90	210.95
997.19	210.95
997.48	210.98
997.77	210.91
998.06	210.95
998.34	210.90
998.63	210.92
998.92	210.94
999.21	210.95
999.50	210.95
999.79	210.84
1000.08	210.81
1000.37	210.86
1000.66	210.86
1000.95	210.93
1001.24	211.00
1001.53	211.13
1001.82	211.24
1002.11	211.17
1002.40	211.20
1002.68	211.35
1002.97	211.62
1003.26	211.60
1003.55	211.59
1003.84	211.58
1004.13	211.62
1004.42	211.62
1004.71	211.62
1004.99	211.56
1005.28	211.63
1005.57	211.60
1005.86	211.54
1006.15	211.53
1006.44	211.43
1006.72	211.39
1007.01	211.23
1007.30	211.21
1007.59	211.26
1007.88	211.18
1008.17	211.28
1008.45	211.23
1008.74	211.06
1009.03	210.95
1009.32	211.01
1009.60	211.00
1009.89	211.03
1010.18	210.95
1010.47	210.95
1010.76	210.90
1011.04	210.88
1011.33	210.94
1011.62	210.98
1011.91	211.08
1012.19	211.08
1012.48	211.13
1012.77	211.12
1013.05	211.38
1013.34	211.37
1013.63	211.24
1013.92	211.26
1014.20	211.14
1014.49	211.15
1014.78	211.15
1015.06	210.98
1015.35	210.95
1015.64	210.99
1015.92	211.05
1016.21	211.05
1016.50	211.04
1016.78	211.17
1017.07	211.26
1017.36	211.17
1017.64	211.10
1017.93	211.09
1018.22	211.05
1018.50	211.02
1018.79	210.99
1019.08	210.78
1019.36	210.73
1019.65	210.76
1019.93	210.88
1020.22	210.96
1020.51	211.06
1020.79	211.05
1021.08	210.40
1021.36	210.05
1021.65	210.90
1021.94	210.10
1022.22	210.15
1022.51	210.60
1022.79	213.10
1023.08	211.40
1023.36	213.70
1023.65	210.45
>>>>>End Processed Spectral Data<<<<<
