SpectraSuite Data File
++++++++++++++++++++++++++++++++++++
Date: Mon Feb 25 17:10:39 EST 2013
User: group
Dark Spectrum Present: No
Reference Spectrum Present: No
Number of Sampled Component Spectra: 1
Spectrometers: USB2E7196
Integration Time (usec): 104000 (USB2E7196)
Spectra Averaged: 20 (USB2E7196)
Boxcar Smoothing: 10 (USB2E7196)
Correct for Electrical Dark: No (USB2E7196)
Strobe/Lamp Enabled: No (USB2E7196)
Correct for Detector Non-linearity: No (USB2E7196)
Correct for Stray Light: No (USB2E7196)
Number of Pixels in Processed Spectrum: 2048
>>>>>Begin Processed Spectral Data<<<<<
339.09	0.00
339.48	199.15
339.86	199.95
340.24	200.25
340.63	201.75
341.01	208.75
341.39	205.15
341.78	207.80
342.16	209.00
342.54	206.95
342.93	197.71
343.31	207.68
343.69	208.20
344.07	208.70
344.46	209.21
344.84	209.60
345.22	209.68
345.60	210.00
345.99	210.11
346.37	210.22
346.75	210.28
347.13	210.30
347.52	210.42
347.90	210.58
348.28	210.57
348.66	210.65
349.05	210.54
349.43	210.61
349.81	210.69
350.19	210.75
350.57	210.80
350.96	210.89
351.34	211.00
351.72	211.01
352.10	211.03
352.48	211.05
352.87	211.15
353.25	211.23
353.63	211.20
354.01	211.27
354.39	211.25
354.77	211.38
355.15	211.56
355.54	211.55
355.92	211.56
356.30	211.68
356.68	212.00
357.06	212.15
357.44	212.11
357.82	212.22
358.20	212.30
358.58	212.37
358.97	212.43
359.35	212.50
359.73	212.70
360.11	212.72
360.49	212.82
360.87	212.84
361.25	212.88
361.63	213.04
362.01	213.11
362.39	213.18
362.77	213.33
363.15	213.33
363.53	213.40
363.91	213.44
364.29	213.47
364.67	213.17
365.05	213.18
365.43	213.29
365.81	213.26
366.19	213.41
366.57	213.54
366.95	213.52
367.33	213.55
367.71	213.52
368.09	213.60
368.47	213.54
368.85	213.51
369.23	213.58
369.61	213.50
369.99	213.60
370.37	213.68
370.75	213.86
371.13	213.74
371.51	213.66
371.89	213.66
372.27	213.62
372.65	213.63
373.03	213.59
373.41	213.52
373.78	213.44
374.16	213.24
374.54	213.10
374.92	213.07
375.30	212.99
375.68	212.85
376.06	212.91
376.44	212.91
376.82	212.89
377.19	212.76
377.57	212.66
377.95	212.48
378.33	212.35
378.71	212.02
379.09	212.08
379.47	212.02
379.84	211.87
380.22	211.83
380.60	211.71
380.98	211.65
381.36	211.55
381.73	211.50
382.11	211.48
382.49	211.45
382.87	211.32
383.25	211.27
383.62	211.58
384.00	211.43
384.38	211.38
384.76	211.35
385.13	211.51
385.51	211.50
385.89	211.45
386.27	211.46
386.64	211.42
387.02	211.30
387.40	211.29
387.78	211.31
388.15	211.25
388.53	211.16
388.91	211.13
389.29	211.08
389.66	211.11
390.04	211.02
390.42	211.02
390.79	211.05
391.17	211.00
391.55	210.65
391.92	210.61
392.30	210.55
392.68	210.49
393.05	210.41
393.43	210.38
393.81	210.32
394.18	210.28
394.56	210.33
394.94	210.39
395.31	210.29
395.69	210.34
396.06	210.37
396.44	210.50
396.82	210.49
397.19	210.72
397.57	210.65
397.95	210.80
398.32	210.70
398.70	210.81
399.07	210.85
399.45	210.87
399.82	210.88
400.20	210.90
400.58	210.98
400.95	210.86
401.33	210.97
401.70	211.22
402.08	211.29
402.45	211.27
402.83	211.38
403.20	211.49
403.58	211.55
403.95	211.70
404.33	211.73
404.71	211.83
405.08	212.05
405.46	212.11
405.83	212.15
406.21	212.27
406.58	212.25
406.96	212.43
407.33	212.55
407.70	212.72
408.08	213.07
408.45	213.23
408.83	213.46
409.20	213.55
409.58	213.56
409.95	213.77
410.33	214.04
410.70	214.11
411.08	214.43
411.45	214.65
411.82	214.83
412.20	215.19
412.57	215.67
412.95	215.73
413.32	216.15
413.69	216.49
414.07	216.92
414.44	217.38
414.82	217.83
415.19	218.33
415.56	218.83
415.94	219.28
416.31	219.96
416.68	220.61
417.06	221.36
417.43	222.13
417.81	222.89
418.18	223.59
418.55	224.47
418.93	225.31
419.30	226.21
419.67	227.20
420.04	228.14
420.42	229.05
420.79	230.47
421.16	231.73
421.54	233.17
421.91	234.51
422.28	235.89
422.66	237.32
423.03	239.04
423.40	240.49
423.77	242.02
424.15	243.50
424.52	245.05
424.89	246.82
425.26	248.54
425.64	250.17
426.01	252.15
426.38	254.07
426.75	255.98
427.13	257.97
427.50	260.07
427.87	262.22
428.24	264.42
428.61	266.30
428.99	268.68
429.36	271.02
429.73	273.41
430.10	275.85
430.47	278.35
430.85	280.70
431.22	283.43
431.59	286.61
431.96	289.49
432.33	292.63
432.70	295.66
433.08	299.06
433.45	302.42
433.82	305.63
434.19	309.21
434.56	312.82
434.93	316.24
435.30	319.62
435.68	323.55
436.05	327.24
436.42	330.90
436.79	334.28
437.16	337.94
437.53	341.77
437.90	345.62
438.27	349.49
438.64	353.31
439.01	357.03
439.38	359.93
439.75	363.02
440.13	366.52
440.50	369.76
440.87	372.59
441.24	375.40
441.61	378.56
441.98	380.88
442.35	383.58
442.72	386.33
443.09	389.10
443.46	390.59
443.83	391.80
444.20	392.85
444.57	394.19
444.94	394.83
445.31	395.62
445.68	396.59
446.05	396.81
446.42	396.44
446.79	396.07
447.16	395.68
447.53	395.42
447.90	394.07
448.27	392.80
448.64	390.79
449.01	389.45
449.37	386.95
449.74	384.54
450.11	381.86
450.48	378.74
450.85	375.37
451.22	372.66
451.59	369.94
451.96	367.45
452.33	364.08
452.70	361.03
453.07	357.31
453.43	353.30
453.80	349.71
454.17	346.46
454.54	343.12
454.91	339.59
455.28	336.09
455.65	332.91
456.02	330.20
456.38	327.58
456.75	324.14
457.12	321.25
457.49	318.55
457.86	315.72
458.23	313.45
458.59	310.93
458.96	308.34
459.33	306.13
459.70	303.85
460.07	302.05
460.43	299.95
460.80	298.08
461.17	296.41
461.54	294.60
461.91	292.82
462.27	291.15
462.64	289.67
463.01	288.12
463.38	286.63
463.74	284.51
464.11	283.04
464.48	281.95
464.85	280.65
465.21	279.62
465.58	278.50
465.95	277.15
466.32	276.14
466.68	275.08
467.05	273.95
467.42	272.80
467.78	271.65
468.15	270.61
468.52	269.88
468.88	268.72
469.25	267.86
469.62	267.13
469.98	266.36
470.35	265.53
470.72	264.82
471.08	264.03
471.45	263.56
471.82	262.98
472.18	262.24
472.55	261.88
472.92	261.25
473.28	260.77
473.65	260.25
474.02	259.76
474.38	259.37
474.75	259.04
475.11	258.73
475.48	258.42
475.85	258.20
476.21	257.86
476.58	257.78
476.94	257.52
477.31	257.32
477.67	257.11
478.04	257.00
478.41	256.93
478.77	257.14
479.14	256.91
479.50	256.92
479.87	256.96
480.23	256.93
480.60	256.89
480.96	256.83
481.33	257.09
481.69	257.18
482.06	257.31
482.42	257.52
482.79	257.70
483.15	258.04
483.52	258.38
483.88	258.58
484.25	258.80
484.61	259.17
484.98	259.48
485.34	259.98
485.71	260.50
486.07	260.95
486.44	261.19
486.80	261.77
487.17	262.32
487.53	263.00
487.90	263.72
488.26	264.77
488.62	265.71
488.99	266.39
489.35	267.34
489.72	268.27
490.08	269.26
490.44	270.28
490.81	271.33
491.17	272.37
491.54	273.62
491.90	275.00
492.26	276.32
492.63	277.65
492.99	278.97
493.36	280.55
493.72	282.24
494.08	283.91
494.45	285.78
494.81	287.63
495.17	289.42
495.54	291.35
495.90	293.14
496.26	295.22
496.63	297.40
496.99	299.50
497.35	301.82
497.72	304.29
498.08	306.70
498.44	309.14
498.80	311.88
499.17	314.61
499.53	317.38
499.89	320.35
500.26	323.34
500.62	326.47
500.98	329.70
501.34	332.81
501.71	336.11
502.07	339.49
502.43	342.91
502.79	346.35
503.16	350.00
503.52	353.92
503.88	357.72
504.24	361.73
504.60	365.94
504.97	370.26
505.33	374.46
505.69	379.05
506.05	383.55
506.41	388.09
506.78	392.70
507.14	397.35
507.50	402.13
507.86	407.14
508.22	412.17
508.59	417.25
508.95	422.53
509.31	428.09
509.67	433.45
510.03	439.04
510.39	444.86
510.75	450.67
511.12	456.37
511.48	462.30
511.84	468.25
512.20	474.33
512.56	480.34
512.92	486.61
513.28	492.90
513.64	499.37
514.00	505.81
514.37	512.33
514.73	519.05
515.09	525.75
515.45	532.37
515.81	539.10
516.17	545.83
516.53	552.69
516.89	559.44
517.25	566.44
517.61	573.56
517.97	580.57
518.33	587.67
518.69	594.81
519.05	602.07
519.41	609.40
519.77	616.83
520.13	624.14
520.49	631.35
520.85	638.55
521.21	645.91
521.57	653.42
521.93	660.90
522.29	668.41
522.65	675.94
523.01	683.52
523.37	690.89
523.73	698.58
524.09	705.97
524.45	713.45
524.81	721.12
525.17	728.75
525.53	736.45
525.89	744.02
526.25	751.76
526.61	759.13
526.97	766.68
527.33	774.09
527.68	782.00
528.04	789.50
528.40	797.01
528.76	804.33
529.12	811.87
529.48	819.60
529.84	827.12
530.20	834.70
530.56	842.43
530.91	850.21
531.27	857.63
531.63	865.39
531.99	872.85
532.35	879.97
532.71	887.12
533.07	894.67
533.42	902.04
533.78	909.09
534.14	916.34
534.50	923.01
534.86	930.15
535.21	936.44
535.57	943.45
535.93	950.18
536.29	957.04
536.65	963.41
537.00	969.47
537.36	975.62
537.72	981.56
538.08	987.46
538.44	993.49
538.79	999.73
539.15	1005.37
539.51	1011.14
539.87	1017.23
540.22	1022.81
540.58	1028.39
540.94	1033.93
541.29	1039.33
541.65	1044.22
542.01	1049.55
542.37	1054.54
542.72	1059.90
543.08	1064.60
543.44	1069.84
543.79	1074.16
544.15	1078.70
544.51	1083.52
544.87	1088.10
545.22	1092.72
545.58	1096.86
545.94	1100.62
546.29	1103.97
546.65	1107.55
547.01	1111.10
547.36	1114.48
547.72	1117.83
548.07	1120.67
548.43	1123.35
548.79	1126.00
549.14	1128.78
549.50	1131.81
549.86	1134.10
550.21	1136.18
550.57	1138.80
550.92	1140.41
551.28	1142.74
551.64	1145.02
551.99	1146.80
552.35	1148.54
552.70	1150.19
553.06	1151.81
553.41	1153.51
553.77	1155.40
554.13	1157.29
554.48	1158.95
554.84	1160.52
555.19	1161.77
555.55	1163.20
555.90	1164.08
556.26	1165.06
556.61	1166.02
556.97	1166.19
557.32	1166.73
557.68	1167.01
558.03	1167.27
558.39	1167.79
558.74	1168.34
559.10	1168.68
559.45	1169.08
559.81	1169.86
560.16	1169.95
560.52	1170.24
560.87	1170.44
561.23	1170.28
561.58	1170.12
561.94	1169.89
562.29	1169.41
562.64	1169.31
563.00	1168.77
563.35	1168.82
563.71	1169.30
564.06	1169.22
564.42	1169.32
564.77	1169.52
565.12	1169.90
565.48	1169.91
565.83	1169.83
566.19	1169.68
566.54	1169.02
566.89	1168.31
567.25	1167.32
567.60	1166.78
567.96	1166.14
568.31	1165.61
568.66	1164.62
569.02	1163.48
569.37	1161.73
569.72	1160.51
570.08	1159.29
570.43	1158.09
570.78	1156.46
571.14	1154.23
571.49	1152.39
571.84	1150.88
572.20	1148.72
572.55	1147.10
572.90	1144.88
573.26	1142.50
573.61	1139.99
573.96	1137.75
574.31	1135.31
574.67	1132.70
575.02	1129.94
575.37	1127.20
575.72	1124.32
576.08	1121.89
576.43	1119.09
576.78	1117.03
577.13	1114.77
577.49	1112.24
577.84	1109.77
578.19	1107.57
578.54	1105.57
578.90	1103.56
579.25	1100.94
579.60	1098.46
579.95	1095.30
580.30	1092.68
580.66	1090.67
581.01	1088.19
581.36	1085.30
581.71	1082.73
582.06	1080.17
582.42	1077.81
582.77	1074.90
583.12	1072.14
583.47	1069.66
583.82	1067.36
584.17	1064.88
584.53	1062.36
584.88	1059.72
585.23	1056.96
585.58	1054.37
585.93	1051.38
586.28	1048.85
586.63	1046.36
586.98	1043.74
587.34	1041.45
587.69	1038.95
588.04	1036.08
588.39	1033.74
588.74	1031.15
589.09	1028.79
589.44	1026.12
589.79	1023.43
590.14	1021.25
590.49	1018.86
590.84	1016.02
591.19	1013.86
591.54	1011.28
591.89	1007.99
592.25	1005.42
592.60	1002.42
592.95	999.30
593.30	996.15
593.65	992.75
594.00	989.55
594.35	988.00
594.70	985.11
595.05	982.41
595.40	979.62
595.75	976.36
596.10	973.84
596.45	970.96
596.80	968.53
597.15	966.06
597.50	963.11
597.85	960.22
598.19	957.43
598.54	954.43
598.89	951.67
599.24	949.51
599.59	946.76
599.94	944.71
600.29	942.17
600.64	939.74
600.99	937.42
601.34	934.99
601.69	931.14
602.04	928.26
602.39	925.40
602.74	922.86
603.08	920.60
603.43	918.53
603.78	916.26
604.13	913.48
604.48	910.66
604.83	908.61
605.18	906.52
605.53	904.17
605.87	901.52
606.22	899.20
606.57	896.61
606.92	893.87
607.27	890.82
607.62	888.35
607.96	886.02
608.31	883.53
608.66	880.82
609.01	877.93
609.36	875.14
609.70	872.19
610.05	869.27
610.40	866.32
610.75	862.99
611.10	860.14
611.44	856.81
611.79	853.61
612.14	849.95
612.49	846.28
612.83	843.00
613.18	839.47
613.53	835.91
613.88	832.15
614.22	829.01
614.57	825.70
614.92	822.18
615.27	818.78
615.61	815.24
615.96	811.90
616.31	808.80
616.65	806.03
617.00	802.93
617.35	799.55
617.70	796.09
618.04	792.49
618.39	788.67
618.74	785.52
619.08	782.12
619.43	778.85
619.78	775.70
620.12	772.46
620.47	769.47
620.82	765.98
621.16	762.54
621.51	759.24
621.85	755.80
622.20	752.51
622.55	749.00
622.89	745.63
623.24	742.32
623.59	738.88
623.93	735.39
624.28	732.11
624.62	729.01
624.97	725.82
625.32	722.69
625.66	719.70
626.01	716.54
626.35	713.49
626.70	710.56
627.04	707.70
627.39	704.44
627.73	701.25
628.08	698.43
628.43	695.37
628.77	692.02
629.12	689.03
629.46	686.06
629.81	683.11
630.15	679.94
630.50	676.92
630.84	673.79
631.19	670.55
631.53	667.46
631.88	664.12
632.22	660.92
632.57	658.05
632.91	654.78
633.26	651.66
633.60	648.76
633.95	645.79
634.29	642.64
634.64	639.82
634.98	636.88
635.32	634.00
635.67	631.38
636.01	628.69
636.36	625.85
636.70	623.12
637.05	620.17
637.39	617.46
637.73	614.75
638.08	612.38
638.42	609.79
638.77	607.19
639.11	604.51
639.45	601.78
639.80	598.84
640.14	596.16
640.49	593.39
640.83	590.63
641.17	587.80
641.52	584.88
641.86	582.10
642.20	579.38
642.55	576.32
642.89	573.46
643.23	570.50
643.58	567.95
643.92	564.80
644.26	562.03
644.61	559.36
644.95	556.56
645.29	553.61
645.64	550.85
645.98	547.99
646.32	545.18
646.66	542.44
647.01	539.79
647.35	537.14
647.69	534.53
648.04	531.92
648.38	529.24
648.72	526.68
649.06	523.97
649.41	521.21
649.75	518.68
650.09	516.15
650.43	513.47
650.78	510.66
651.12	508.11
651.46	505.55
651.80	503.11
652.14	500.56
652.49	498.06
652.83	495.47
653.17	492.84
653.51	490.29
653.85	487.93
654.20	485.47
654.54	482.96
654.88	480.44
655.22	477.85
655.56	475.28
655.90	472.70
656.25	470.20
656.59	467.67
656.93	465.26
657.27	462.90
657.61	460.48
657.95	458.02
658.29	455.76
658.64	453.45
658.98	450.89
659.32	448.31
659.66	445.98
660.00	443.69
660.34	441.37
660.68	439.16
661.02	436.80
661.36	434.47
661.70	432.23
662.05	430.08
662.39	428.12
662.73	426.11
663.07	424.23
663.41	422.20
663.75	420.10
664.09	417.97
664.43	415.77
664.77	413.83
665.11	411.90
665.45	409.95
665.79	408.08
666.13	406.07
666.47	404.24
666.81	402.20
667.15	400.11
667.49	398.30
667.83	396.56
668.17	394.76
668.51	393.15
668.85	391.45
669.19	389.90
669.53	387.92
669.87	386.17
670.21	384.27
670.55	382.65
670.89	381.32
671.23	379.85
671.57	378.26
671.91	376.68
672.25	375.03
672.58	373.54
672.92	371.87
673.26	370.53
673.60	369.08
673.94	367.64
674.28	366.30
674.62	365.02
674.96	363.60
675.30	362.21
675.64	360.60
675.97	359.24
676.31	357.72
676.65	356.45
676.99	355.21
677.33	353.85
677.67	352.41
678.01	350.88
678.34	349.50
678.68	348.21
679.02	346.84
679.36	345.53
679.70	344.05
680.04	342.75
680.37	341.29
680.71	339.90
681.05	338.70
681.39	337.41
681.73	336.10
682.06	334.82
682.40	333.57
682.74	332.43
683.08	331.27
683.42	329.98
683.75	328.83
684.09	327.45
684.43	326.22
684.77	324.96
685.10	323.73
685.44	322.44
685.78	321.19
686.12	320.11
686.45	318.93
686.79	317.98
687.13	316.97
687.46	315.90
687.80	314.93
688.14	313.72
688.48	312.71
688.81	311.55
689.15	310.41
689.49	309.29
689.82	308.29
690.16	307.02
690.50	305.94
690.83	304.76
691.17	303.68
691.51	302.76
691.84	301.84
692.18	300.85
692.52	300.00
692.85	299.16
693.19	298.33
693.52	297.41
693.86	296.29
694.20	295.30
694.53	294.44
694.87	293.43
695.21	292.50
695.54	291.57
695.88	290.55
696.21	289.66
696.55	288.78
696.88	287.86
697.22	287.15
697.56	286.38
697.89	285.54
698.23	284.85
698.56	283.92
698.90	283.10
699.23	282.18
699.57	281.31
699.90	280.33
700.24	279.35
700.58	278.57
700.91	277.95
701.25	277.44
701.58	276.65
701.92	276.02
702.25	275.35
702.59	274.53
702.92	273.95
703.26	273.20
703.59	272.56
703.93	272.12
704.26	271.40
704.60	270.69
704.93	269.95
705.26	269.18
705.60	268.60
705.93	267.91
706.27	267.40
706.60	266.88
706.94	266.50
707.27	265.83
707.61	265.24
707.94	264.51
708.27	263.65
708.61	263.01
708.94	262.33
709.28	261.74
709.61	261.18
709.94	260.58
710.28	260.11
710.61	259.61
710.95	258.72
711.28	258.35
711.61	257.80
711.95	257.35
712.28	256.92
712.61	256.41
712.95	256.10
713.28	255.75
713.61	255.12
713.95	254.49
714.28	254.16
714.61	253.71
714.95	253.24
715.28	252.73
715.61	252.32
715.95	251.91
716.28	251.43
716.61	251.03
716.95	250.58
717.28	250.06
717.61	249.66
717.94	249.22
718.28	248.62
718.61	248.20
718.94	247.82
719.27	247.30
719.61	246.90
719.94	246.38
720.27	245.81
720.60	245.42
720.94	245.05
721.27	244.70
721.60	244.42
721.93	244.02
722.27	243.85
722.60	243.54
722.93	243.15
723.26	242.84
723.59	242.44
723.93	242.22
724.26	241.94
724.59	241.57
724.92	241.35
725.25	241.14
725.59	240.88
725.92	240.68
726.25	240.46
726.58	240.20
726.91	239.88
727.24	239.63
727.57	239.30
727.91	238.96
728.24	238.63
728.57	238.27
728.90	238.11
729.23	237.64
729.56	237.49
729.89	237.20
730.22	236.93
730.55	236.70
730.89	236.40
731.22	236.07
731.55	235.85
731.88	235.55
732.21	235.21
732.54	234.95
732.87	234.65
733.20	234.39
733.53	234.11
733.86	233.93
734.19	233.71
734.52	233.58
734.85	233.66
735.18	233.40
735.51	233.23
735.84	233.02
736.17	232.93
736.50	232.57
736.83	232.85
737.16	232.59
737.49	232.36
737.82	232.04
738.15	231.94
738.48	231.69
738.81	231.50
739.14	231.21
739.47	230.95
739.80	230.71
740.13	230.54
740.46	230.29
740.79	230.03
741.12	229.76
741.45	229.58
741.78	229.12
742.11	229.03
742.44	228.77
742.77	228.64
743.10	228.48
743.43	228.21
743.75	227.63
744.08	227.93
744.41	227.69
744.74	227.61
745.07	227.42
745.40	227.25
745.73	227.25
746.06	227.13
746.39	227.05
746.71	226.85
747.04	226.62
747.37	226.48
747.70	226.44
748.03	226.44
748.36	226.30
748.68	226.17
749.01	225.89
749.34	225.68
749.67	225.57
750.00	225.37
750.33	225.57
750.65	225.42
750.98	224.82
751.31	224.74
751.64	224.62
751.97	224.63
752.29	224.50
752.62	224.21
752.95	224.04
753.28	223.85
753.60	223.79
753.93	223.75
754.26	223.70
754.59	223.44
754.91	223.19
755.24	223.00
755.57	222.91
755.90	222.81
756.22	222.76
756.55	222.57
756.88	222.38
757.20	221.95
757.53	221.78
757.86	221.75
758.19	221.64
758.51	221.48
758.84	221.25
759.17	221.09
759.49	221.07
759.82	221.10
760.15	220.96
760.47	220.83
760.80	220.67
761.13	220.53
761.45	220.42
761.78	220.32
762.11	220.29
762.43	220.15
762.76	220.06
763.08	219.96
763.41	219.90
763.74	219.84
764.06	219.77
764.39	219.69
764.71	219.55
765.04	219.42
765.37	219.31
765.69	219.16
766.02	219.09
766.34	218.91
766.67	218.70
767.00	218.75
767.32	218.80
767.65	218.88
767.97	218.64
768.30	218.62
768.62	218.55
768.95	218.41
769.27	218.30
769.60	218.21
769.92	218.07
770.25	217.87
770.57	217.74
770.90	217.60
771.22	217.46
771.55	217.35
771.87	217.32
772.20	217.19
772.52	217.35
772.85	217.74
773.17	217.75
773.50	217.65
773.82	217.53
774.15	217.30
774.47	216.99
774.80	217.03
775.12	216.94
775.45	216.85
775.77	216.85
776.09	216.80
776.42	216.75
776.74	216.82
777.07	216.78
777.39	216.74
777.72	216.66
778.04	216.64
778.36	216.57
778.69	216.53
779.01	216.54
779.33	216.19
779.66	215.74
779.98	215.59
780.31	215.58
780.63	215.63
780.95	215.65
781.28	215.67
781.60	215.63
781.92	215.60
782.25	215.59
782.57	215.52
782.89	215.51
783.22	215.45
783.54	215.34
783.86	215.34
784.19	215.30
784.51	215.42
784.83	215.40
785.16	215.35
785.48	215.23
785.80	215.21
786.12	215.25
786.45	215.16
786.77	215.12
787.09	215.10
787.42	215.03
787.74	215.01
788.06	214.92
788.38	214.81
788.71	214.74
789.03	214.71
789.35	214.70
789.67	214.60
789.99	214.59
790.32	214.46
790.64	214.50
790.96	214.76
791.28	214.65
791.61	214.59
791.93	214.63
792.25	214.68
792.57	214.87
792.89	214.76
793.21	214.82
793.54	214.79
793.86	214.71
794.18	214.66
794.50	214.59
794.82	214.58
795.14	214.63
795.47	214.67
795.79	214.69
796.11	214.54
796.43	214.46
796.75	214.44
797.07	214.50
797.39	214.40
797.71	214.15
798.04	214.09
798.36	214.08
798.68	214.01
799.00	214.02
799.32	213.78
799.64	213.82
799.96	213.67
800.28	213.69
800.60	213.61
800.92	213.54
801.24	213.51
801.56	213.52
801.89	213.48
802.21	213.39
802.53	213.29
802.85	213.34
803.17	213.46
803.49	213.40
803.81	213.38
804.13	213.39
804.45	213.32
804.77	213.36
805.09	213.35
805.41	213.32
805.73	213.21
806.05	213.18
806.37	213.18
806.69	213.25
807.01	213.21
807.33	213.23
807.65	213.13
807.97	213.19
808.28	213.14
808.60	213.11
808.92	213.15
809.24	213.31
809.56	213.27
809.88	213.19
810.20	213.21
810.52	213.25
810.84	213.20
811.16	213.09
811.48	213.08
811.80	213.17
812.12	213.20
812.43	213.22
812.75	213.15
813.07	213.09
813.39	213.11
813.71	213.03
814.03	212.96
814.35	213.02
814.67	212.91
814.98	212.93
815.30	212.87
815.62	212.72
815.94	212.50
816.26	212.52
816.58	212.47
816.89	212.51
817.21	212.40
817.53	212.43
817.85	212.53
818.17	212.53
818.48	212.42
818.80	212.44
819.12	212.43
819.44	212.41
819.76	212.33
820.07	212.26
820.39	212.30
820.71	212.41
821.03	212.43
821.34	212.40
821.66	212.44
821.98	212.51
822.30	212.52
822.61	212.77
822.93	212.74
823.25	212.68
823.57	212.57
823.88	212.70
824.20	212.65
824.52	212.67
824.83	212.64
825.15	212.56
825.47	212.51
825.79	212.48
826.10	212.41
826.42	212.42
826.74	212.45
827.05	212.45
827.37	212.41
827.69	212.35
828.00	212.35
828.32	212.31
828.64	212.18
828.95	212.38
829.27	212.22
829.58	212.24
829.90	212.34
830.22	212.45
830.53	212.33
830.85	212.30
831.17	212.24
831.48	212.10
831.80	212.16
832.11	212.12
832.43	212.09
832.75	212.22
833.06	212.40
833.38	212.30
833.69	212.25
834.01	212.24
834.32	212.22
834.64	212.21
834.96	212.23
835.27	212.27
835.59	212.16
835.90	212.09
836.22	212.05
836.53	211.97
836.85	211.85
837.16	212.11
837.48	212.09
837.79	212.11
838.11	212.17
838.42	212.18
838.74	212.21
839.05	212.17
839.37	212.12
839.68	211.93
840.00	211.91
840.31	211.96
840.63	211.96
840.94	211.91
841.26	211.88
841.57	211.85
841.88	211.90
842.20	211.85
842.51	211.79
842.83	211.76
843.14	212.08
843.46	212.08
843.77	211.85
844.08	211.80
844.40	211.74
844.71	211.79
845.03	211.69
845.34	211.67
845.65	211.69
845.97	211.67
846.28	211.65
846.60	211.69
846.91	211.62
847.22	211.60
847.54	211.68
847.85	211.66
848.16	211.59
848.48	211.54
848.79	211.68
849.10	211.72
849.42	211.73
849.73	211.42
850.04	211.41
850.36	211.32
850.67	211.37
850.98	211.41
851.30	211.40
851.61	211.40
851.92	211.32
852.23	211.44
852.55	211.39
852.86	211.44
853.17	211.50
853.49	211.58
853.80	211.62
854.11	211.71
854.42	211.75
854.74	211.74
855.05	211.70
855.36	211.46
855.67	211.42
855.99	211.46
856.30	211.84
856.61	211.81
856.92	211.85
857.23	211.87
857.55	211.82
857.86	211.83
858.17	211.90
858.48	211.91
858.79	211.85
859.11	211.91
859.42	211.86
859.73	211.80
860.04	211.74
860.35	211.71
860.66	211.58
860.98	211.65
861.29	211.68
861.60	211.66
861.91	211.82
862.22	211.85
862.53	211.82
862.84	211.47
863.16	211.58
863.47	211.48
863.78	211.49
864.09	211.53
864.40	211.56
864.71	211.46
865.02	211.53
865.33	211.50
865.64	211.50
865.95	211.56
866.27	211.76
866.58	211.75
866.89	211.80
867.20	211.75
867.51	211.64
867.82	211.62
868.13	211.78
868.44	211.69
868.75	211.72
869.06	211.67
869.37	211.63
869.68	211.60
869.99	211.70
870.30	211.64
870.61	211.65
870.92	211.55
871.23	211.73
871.54	211.71
871.85	211.76
872.16	211.76
872.47	211.67
872.78	211.51
873.09	211.54
873.40	211.42
873.71	211.44
874.02	211.45
874.33	211.47
874.64	211.40
874.95	211.45
875.26	211.36
875.56	211.42
875.87	211.36
876.18	211.36
876.49	211.66
876.80	211.72
877.11	211.64
877.42	211.60
877.73	211.52
878.04	211.46
878.35	211.42
878.66	211.37
878.96	211.40
879.27	211.39
879.58	211.34
879.89	211.35
880.20	211.45
880.51	211.43
880.82	211.38
881.12	211.33
881.43	211.27
881.74	211.24
882.05	211.20
882.36	211.25
882.67	211.28
882.97	210.91
883.28	210.83
883.59	210.84
883.90	210.98
884.21	211.00
884.51	211.01
884.82	211.05
885.13	211.13
885.44	211.14
885.74	211.18
886.05	211.24
886.36	211.20
886.67	211.13
886.98	211.33
887.28	211.39
887.59	211.40
887.90	211.42
888.20	211.43
888.51	211.54
888.82	211.53
889.13	211.48
889.43	211.81
889.74	211.82
890.05	211.82
890.35	211.74
890.66	211.73
890.97	211.70
891.28	211.65
891.58	211.63
891.89	211.61
892.20	211.54
892.50	211.48
892.81	211.55
893.12	211.49
893.42	211.30
893.73	211.32
894.04	211.34
894.34	211.35
894.65	211.35
894.95	211.29
895.26	211.33
895.57	211.50
895.87	211.15
896.18	211.23
896.48	211.28
896.79	211.28
897.10	211.28
897.40	211.33
897.71	211.38
898.01	211.34
898.32	211.33
898.63	211.27
898.93	211.35
899.24	211.27
899.54	211.27
899.85	211.28
900.15	211.23
900.46	211.18
900.76	211.18
901.07	211.18
901.38	211.13
901.68	211.11
901.99	210.92
902.29	210.99
902.60	210.91
902.90	210.80
903.21	210.77
903.51	210.78
903.82	210.79
904.12	210.77
904.43	210.83
904.73	210.80
905.03	210.84
905.34	211.12
905.64	211.07
905.95	211.06
906.25	210.95
906.56	210.98
906.86	210.96
907.17	210.93
907.47	210.97
907.77	210.93
908.08	210.87
908.38	210.90
908.69	210.90
908.99	211.04
909.30	211.13
909.60	211.09
909.90	211.04
910.21	211.01
910.51	210.91
910.81	210.86
911.12	210.93
911.42	210.95
911.73	210.56
912.03	210.65
912.33	210.76
912.64	210.84
912.94	210.82
913.24	210.84
913.55	210.84
913.85	210.84
914.15	210.94
914.46	211.02
914.76	211.02
915.06	210.95
915.37	210.85
915.67	210.85
915.97	210.86
916.27	210.80
916.58	210.80
916.88	210.80
917.18	210.81
917.49	211.00
917.79	210.96
918.09	211.04
918.39	211.14
918.70	211.16
919.00	211.14
919.30	211.32
919.60	211.28
919.91	211.32
920.21	211.24
920.51	211.13
920.81	211.07
921.12	211.08
921.42	211.14
921.72	211.11
922.02	211.07
922.32	211.10
922.63	211.17
922.93	211.26
923.23	211.31
923.53	211.34
923.83	211.19
924.13	211.20
924.44	211.22
924.74	211.24
925.04	211.24
925.34	211.24
925.64	211.11
925.94	211.12
926.24	211.25
926.55	211.27
926.85	211.31
927.15	211.31
927.45	211.31
927.75	211.32
928.05	211.36
928.35	211.36
928.65	211.47
928.95	211.45
929.26	211.39
929.56	211.50
929.86	211.49
930.16	211.42
930.46	211.36
930.76	211.38
931.06	211.25
931.36	211.21
931.66	211.31
931.96	211.32
932.26	211.30
932.56	211.21
932.86	211.31
933.16	211.35
933.46	211.34
933.76	211.31
934.06	211.44
934.36	211.63
934.66	211.64
934.96	211.58
935.26	211.65
935.56	211.71
935.86	211.55
936.16	211.49
936.46	211.56
936.76	211.59
937.06	211.52
937.36	211.58
937.66	211.49
937.96	211.42
938.26	211.36
938.56	211.37
938.86	211.37
939.16	211.36
939.46	211.35
939.76	211.40
940.06	211.39
940.35	211.21
940.65	210.95
940.95	210.93
941.25	210.84
941.55	210.81
941.85	210.79
942.15	210.84
942.45	210.99
942.75	210.92
943.04	211.01
943.34	211.09
943.64	211.01
943.94	211.11
944.24	211.12
944.54	211.17
944.84	211.17
945.13	211.12
945.43	211.10
945.73	211.09
946.03	211.05
946.33	211.01
946.62	210.98
946.92	210.99
947.22	211.10
947.52	211.10
947.82	211.11
948.11	211.08
948.41	211.08
948.71	210.97
949.01	210.99
949.31	210.93
949.60	210.90
949.90	211.00
950.20	210.88
950.50	210.86
950.79	210.77
951.09	210.80
951.39	210.84
951.69	210.77
951.98	210.85
952.28	210.94
952.58	211.04
952.87	211.10
953.17	211.19
953.47	211.10
953.76	211.13
954.06	211.04
954.36	210.99
954.66	210.96
954.95	211.00
955.25	211.05
955.55	211.04
955.84	211.00
956.14	210.98
956.44	211.05
956.73	211.03
957.03	211.09
957.32	211.15
957.62	211.11
957.92	211.21
958.21	211.18
958.51	211.54
958.81	211.47
959.10	211.52
959.40	211.58
959.69	211.57
959.99	211.62
960.29	211.70
960.58	211.65
960.88	211.87
961.17	211.89
961.47	211.88
961.76	211.89
962.06	211.99
962.36	211.97
962.65	212.02
962.95	212.13
963.24	212.10
963.54	212.14
963.83	212.10
964.13	212.05
964.42	211.92
964.72	211.59
965.01	211.65
965.31	211.55
965.60	211.47
965.90	211.74
966.19	211.74
966.49	211.70
966.78	211.75
967.08	211.62
967.37	211.62
967.67	211.62
967.96	211.66
968.26	211.65
968.55	211.74
968.85	211.63
969.14	211.52
969.43	211.46
969.73	211.40
970.02	211.40
970.32	211.39
970.61	211.39
970.91	211.23
971.20	211.17
971.49	211.13
971.79	211.19
972.08	210.87
972.38	210.80
972.67	210.81
972.96	210.86
973.26	210.75
973.55	210.85
973.85	210.79
974.14	210.76
974.43	210.69
974.73	210.56
975.02	210.64
975.31	210.64
975.61	210.69
975.90	210.71
976.19	210.78
976.49	210.79
976.78	210.81
977.07	210.90
977.37	210.89
977.66	210.90
977.95	210.78
978.24	210.85
978.54	210.96
978.83	210.92
979.12	210.93
979.42	210.97
979.71	210.90
980.00	210.94
980.29	210.93
980.59	210.94
980.88	211.05
981.17	211.06
981.46	211.11
981.76	211.08
982.05	211.12
982.34	211.07
982.63	211.06
982.93	211.07
983.22	211.05
983.51	211.09
983.80	211.19
984.09	211.27
984.39	211.32
984.68	211.24
984.97	211.22
985.26	211.13
985.55	211.14
985.85	211.01
986.14	211.01
986.43	211.08
986.72	211.03
987.01	210.91
987.30	210.89
987.59	210.84
987.89	210.89
988.18	210.77
988.47	210.75
988.76	210.70
989.05	210.74
989.34	210.75
989.63	210.82
989.92	210.83
990.22	210.81
990.51	210.76
990.80	210.79
991.09	210.86
991.38	210.93
991.67	210.94
991.96	210.90
992.25	210.92
992.54	210.82
992.83	210.84
993.12	210.86
993.41	210.88
993.70	211.02
993.99	211.05
994.28	211.15
994.58	211.21
994.87	211.25
995.16	211.20
995.45	211.21
995.74	211.05
996.03	211.12
996.32	211.16
996.61	211.24
996.90	211.25
997.19	211.25
997.48	211.19
997.77	211.20
998.06	211.28
998.34	211.25
998.63	211.22
998.92	211.24
999.21	211.28
999.50	211.27
999.79	211.18
1000.08	211.11
1000.37	211.10
1000.66	211.06
1000.95	211.18
1001.24	211.14
1001.53	211.15
1001.82	211.19
1002.11	211.04
1002.40	211.06
1002.68	211.10
1002.97	211.28
1003.26	211.22
1003.55	211.26
1003.84	211.23
1004.13	211.36
1004.42	211.35
1004.71	211.44
1004.99	211.41
1005.28	211.50
1005.57	211.55
1005.86	211.57
1006.15	211.60
1006.44	211.48
1006.72	211.50
1007.01	211.43
1007.30	211.54
1007.59	211.43
1007.88	211.37
1008.17	211.44
1008.45	211.40
1008.74	211.23
1009.03	211.05
1009.32	211.00
1009.60	210.93
1009.89	210.92
1010.18	210.73
1010.47	210.68
1010.76	210.62
1011.04	210.62
1011.33	210.63
1011.62	210.60
1011.91	210.51
1012.19	210.55
1012.48	210.56
1012.77	210.55
1013.05	210.74
1013.34	210.72
1013.63	210.81
1013.92	210.91
1014.20	210.88
1014.49	210.83
1014.78	210.89
1015.06	210.73
1015.35	210.83
1015.64	210.92
1015.92	210.94
1016.21	210.99
1016.50	210.96
1016.78	211.01
1017.07	210.97
1017.36	210.84
1017.64	210.75
1017.93	210.77
1018.22	210.70
1018.50	210.82
1018.79	210.80
1019.08	210.55
1019.36	210.51
1019.65	210.46
1019.93	210.55
1020.22	210.60
1020.51	210.79
1020.79	210.77
1021.08	210.35
1021.36	211.65
1021.65	210.20
1021.94	210.40
1022.22	210.10
1022.51	210.55
1022.79	212.85
1023.08	211.75
1023.36	214.60
1023.65	210.50
>>>>>End Processed Spectral Data<<<<<
