SpectraSuite Data File
++++++++++++++++++++++++++++++++++++
Date: Mon Feb 25 17:05:08 EST 2013
User: group
Dark Spectrum Present: No
Reference Spectrum Present: No
Number of Sampled Component Spectra: 1
Spectrometers: USB2E7196
Integration Time (usec): 104000 (USB2E7196)
Spectra Averaged: 20 (USB2E7196)
Boxcar Smoothing: 10 (USB2E7196)
Correct for Electrical Dark: No (USB2E7196)
Strobe/Lamp Enabled: No (USB2E7196)
Correct for Detector Non-linearity: No (USB2E7196)
Correct for Stray Light: No (USB2E7196)
Number of Pixels in Processed Spectrum: 2048
>>>>>Begin Processed Spectral Data<<<<<
339.09	0.00
339.48	197.20
339.86	199.15
340.24	200.60
340.63	201.50
341.01	210.00
341.39	205.65
341.78	206.90
342.16	208.55
342.54	208.35
342.93	197.83
343.31	207.83
343.69	208.40
344.07	208.91
344.46	209.49
344.84	209.89
345.22	209.88
345.60	210.11
345.99	210.30
346.37	210.45
346.75	210.55
347.13	210.60
347.52	210.70
347.90	210.91
348.28	210.92
348.66	210.91
349.05	210.86
349.43	210.91
349.81	210.94
350.19	211.03
350.57	211.06
350.96	211.20
351.34	211.30
351.72	211.42
352.10	211.54
352.48	211.54
352.87	211.62
353.25	211.75
353.63	211.82
354.01	211.87
354.39	211.93
354.77	212.04
355.15	212.25
355.54	212.34
355.92	212.25
356.30	212.34
356.68	212.64
357.06	212.75
357.44	212.79
357.82	212.85
358.20	212.86
358.58	212.82
358.97	212.83
359.35	213.01
359.73	213.10
360.11	213.12
360.49	213.09
360.87	213.16
361.25	213.25
361.63	213.41
362.01	213.46
362.39	213.45
362.77	213.52
363.15	213.49
363.53	213.42
363.91	213.49
364.29	213.49
364.67	213.19
365.05	213.17
365.43	213.20
365.81	213.29
366.19	213.50
366.57	213.72
366.95	213.72
367.33	213.53
367.71	213.55
368.09	213.57
368.47	213.61
368.85	213.52
369.23	213.47
369.61	213.28
369.99	213.32
370.37	213.34
370.75	213.47
371.13	213.38
371.51	213.28
371.89	213.28
372.27	213.26
372.65	213.23
373.03	213.15
373.41	213.06
373.78	213.00
374.16	212.73
374.54	212.54
374.92	212.47
375.30	212.44
375.68	212.36
376.06	212.31
376.44	212.17
376.82	212.18
377.19	212.15
377.57	212.15
377.95	212.03
378.33	211.95
378.71	211.65
379.09	211.65
379.47	211.64
379.84	211.53
380.22	211.45
380.60	211.28
380.98	211.20
381.36	211.16
381.73	211.01
382.11	211.16
382.49	211.05
382.87	211.02
383.25	211.00
383.62	211.31
384.00	211.14
384.38	211.17
384.76	211.20
385.13	211.26
385.51	211.20
385.89	211.08
386.27	211.10
386.64	211.14
387.02	211.03
387.40	211.03
387.78	211.04
388.15	211.02
388.53	211.05
388.91	211.03
389.29	211.00
389.66	211.08
390.04	210.91
390.42	211.00
390.79	210.89
391.17	210.84
391.55	210.36
391.92	210.47
392.30	210.50
392.68	210.37
393.05	210.35
393.43	210.35
393.81	210.43
394.18	210.31
394.56	210.31
394.94	210.38
395.31	210.27
395.69	210.37
396.06	210.45
396.44	210.46
396.82	210.41
397.19	210.59
397.57	210.52
397.95	210.62
398.32	210.50
398.70	210.62
399.07	210.71
399.45	210.75
399.82	210.71
400.20	210.79
400.58	210.80
400.95	210.62
401.33	210.72
401.70	210.91
402.08	210.95
402.45	211.01
402.83	211.11
403.20	211.21
403.58	211.19
403.95	211.31
404.33	211.44
404.71	211.59
405.08	211.80
405.46	211.90
405.83	211.93
406.21	212.07
406.58	212.14
406.96	212.24
407.33	212.43
407.70	212.61
408.08	212.92
408.45	213.20
408.83	213.50
409.20	213.65
409.58	213.71
409.95	214.02
410.33	214.25
410.70	214.43
411.08	214.84
411.45	215.15
411.82	215.41
412.20	215.89
412.57	216.49
412.95	216.64
413.32	217.17
413.69	217.67
414.07	218.25
414.44	218.89
414.82	219.51
415.19	220.19
415.56	220.91
415.94	221.49
416.31	222.40
416.68	223.22
417.06	224.17
417.43	225.18
417.81	226.20
418.18	227.28
418.55	228.42
418.93	229.60
419.30	230.85
419.67	232.24
420.04	233.58
420.42	234.88
420.79	236.73
421.16	238.36
421.54	240.22
421.91	242.01
422.28	243.79
422.66	245.71
423.03	247.88
423.40	249.89
423.77	251.97
424.15	254.03
424.52	256.30
424.89	258.80
425.26	261.15
425.64	263.40
426.01	265.89
426.38	268.55
426.75	271.27
427.13	274.07
427.50	276.95
427.87	279.88
428.24	282.90
428.61	285.67
428.99	289.04
429.36	292.39
429.73	295.82
430.10	299.40
430.47	302.96
430.85	306.43
431.22	310.31
431.59	314.56
431.96	318.47
432.33	322.85
432.70	327.15
433.08	332.10
433.45	336.86
433.82	341.59
434.19	346.85
434.56	352.08
434.93	356.97
435.30	361.94
435.68	367.46
436.05	372.92
436.42	378.27
436.79	383.23
437.16	388.45
437.53	394.17
437.90	399.75
438.27	405.36
438.64	411.15
439.01	416.54
439.38	421.32
439.75	426.07
440.13	431.50
440.50	436.48
440.87	440.63
441.24	444.90
441.61	449.78
441.98	453.36
442.35	457.44
442.72	461.65
443.09	465.84
443.46	468.51
443.83	470.33
444.20	472.12
444.57	474.30
444.94	475.66
445.31	476.89
445.68	478.49
446.05	479.29
446.42	478.95
446.79	478.67
447.16	478.21
447.53	478.11
447.90	476.27
448.27	474.45
448.64	471.82
449.01	470.19
449.37	466.80
449.74	463.45
450.11	459.61
450.48	455.29
450.85	450.59
451.22	446.61
451.59	443.04
451.96	439.55
452.33	434.81
452.70	430.57
453.07	425.30
453.43	419.52
453.80	414.39
454.17	409.62
454.54	404.97
454.91	399.98
455.28	395.01
455.65	390.47
456.02	386.46
456.38	382.57
456.75	377.67
457.12	373.52
457.49	369.59
457.86	365.49
458.23	362.23
458.59	358.62
458.96	354.97
459.33	351.59
459.70	348.20
460.07	345.50
460.43	342.50
460.80	339.82
461.17	337.42
461.54	334.76
461.91	332.23
462.27	329.54
462.64	327.35
463.01	325.02
463.38	322.76
463.74	319.97
464.11	318.01
464.48	316.20
464.85	314.23
465.21	312.75
465.58	311.12
465.95	309.09
466.32	307.53
466.68	305.89
467.05	304.32
467.42	302.68
467.78	301.05
468.15	299.39
468.52	298.11
468.88	296.56
469.25	295.14
469.62	294.06
469.98	292.95
470.35	291.85
470.72	290.70
471.08	289.53
471.45	288.59
471.82	287.61
472.18	286.58
472.55	285.76
472.92	284.73
473.28	283.83
473.65	282.90
474.02	282.08
474.38	281.46
474.75	280.87
475.11	280.25
475.48	279.72
475.85	279.19
476.21	278.70
476.58	278.28
476.94	277.89
477.31	277.47
477.67	277.13
478.04	276.77
478.41	276.52
478.77	276.52
479.14	276.16
479.50	276.00
479.87	275.87
480.23	275.78
480.60	275.72
480.96	275.73
481.33	276.01
481.69	275.98
482.06	275.89
482.42	275.90
482.79	275.93
483.15	275.93
483.52	276.14
483.88	276.25
484.25	276.33
484.61	276.58
484.98	276.71
485.34	277.07
485.71	277.50
486.07	277.80
486.44	277.86
486.80	278.25
487.17	278.58
487.53	279.06
487.90	279.59
488.26	280.28
488.62	280.93
488.99	281.33
489.35	281.97
489.72	282.69
490.08	283.39
490.44	284.12
490.81	284.93
491.17	285.68
491.54	286.55
491.90	287.51
492.26	288.41
492.63	289.36
492.99	290.25
493.36	291.11
493.72	292.24
494.08	293.32
494.45	294.45
494.81	295.69
495.17	296.80
495.54	297.99
495.90	299.04
496.26	300.12
496.63	301.35
496.99	302.66
497.35	303.95
497.72	305.18
498.08	306.48
498.44	307.84
498.80	309.24
499.17	310.58
499.53	311.83
499.89	313.24
500.26	314.56
500.62	315.83
500.98	317.30
501.34	318.51
501.71	319.86
502.07	321.12
502.43	322.40
502.79	323.65
503.16	324.96
503.52	326.23
503.88	327.41
504.24	328.70
504.60	329.85
504.97	331.09
505.33	332.26
505.69	333.59
506.05	334.81
506.41	335.91
506.78	337.01
507.14	338.14
507.50	339.16
507.86	340.37
508.22	341.55
508.59	342.47
508.95	343.56
509.31	344.73
509.67	345.79
510.03	346.68
510.39	347.71
510.75	348.54
511.12	349.49
511.48	350.47
511.84	351.40
512.20	352.26
512.56	353.10
512.92	354.07
513.28	354.89
513.64	355.62
514.00	356.40
514.37	357.15
514.73	358.00
515.09	358.77
515.45	359.44
515.81	360.11
516.17	360.89
516.53	361.55
516.89	362.04
517.25	362.71
517.61	363.44
517.97	364.12
518.33	364.89
518.69	365.60
519.05	366.27
519.41	366.95
519.77	367.90
520.13	368.63
520.49	369.30
520.85	369.96
521.21	370.99
521.57	371.82
521.93	372.55
522.29	373.40
522.65	374.28
523.01	375.20
523.37	375.98
523.73	376.96
524.09	378.00
524.45	379.09
524.81	380.16
525.17	381.30
525.53	382.51
525.89	383.77
526.25	385.00
526.61	386.20
526.97	387.55
527.33	388.78
527.68	390.51
528.04	392.01
528.40	393.50
528.76	394.80
529.12	396.52
529.48	398.37
529.84	399.93
530.20	401.71
530.56	403.50
530.91	405.59
531.27	407.36
531.63	409.40
531.99	411.42
532.35	413.44
532.71	415.43
533.07	417.50
533.42	419.80
533.78	421.90
534.14	424.20
534.50	426.27
534.86	428.54
535.21	430.41
535.57	432.67
535.93	434.96
536.29	437.62
536.65	439.89
537.00	442.01
537.36	444.55
537.72	446.94
538.08	449.34
538.44	451.63
538.79	454.36
539.15	456.76
539.51	459.21
539.87	461.76
540.22	464.32
540.58	466.95
540.94	469.43
541.29	471.96
541.65	474.54
542.01	477.36
542.37	480.23
542.72	483.03
543.08	485.73
543.44	488.70
543.79	491.16
544.15	494.04
544.51	497.18
544.87	500.03
545.22	502.73
545.58	505.55
545.94	508.33
546.29	510.86
546.65	513.61
547.01	516.30
547.36	519.10
547.72	521.90
548.07	524.60
548.43	527.22
548.79	529.96
549.14	532.65
549.50	535.31
549.86	537.56
550.21	540.02
550.57	542.62
550.92	544.81
551.28	547.37
551.64	549.82
551.99	552.12
552.35	554.34
552.70	556.72
553.06	559.09
553.41	561.43
553.77	564.00
554.13	566.37
554.48	568.99
554.84	571.37
555.19	573.81
555.55	576.28
555.90	578.49
556.26	580.60
556.61	582.71
556.97	584.65
557.32	586.81
557.68	588.96
558.03	590.97
558.39	593.09
558.74	595.14
559.10	597.13
559.45	599.12
559.81	601.45
560.16	603.45
560.52	605.51
560.87	607.52
561.23	609.24
561.58	611.38
561.94	613.08
562.29	614.84
562.64	616.40
563.00	617.83
563.35	619.67
563.71	621.68
564.06	623.53
564.42	625.45
564.77	627.30
565.12	629.18
565.48	631.20
565.83	632.95
566.19	634.61
566.54	636.11
566.89	637.58
567.25	639.06
567.60	640.63
567.96	642.31
568.31	644.01
568.66	645.59
569.02	646.33
569.37	647.38
569.72	648.59
570.08	649.75
570.43	650.76
570.78	651.54
571.14	652.10
571.49	652.73
571.84	653.42
572.20	653.97
572.55	654.44
572.90	654.57
573.26	654.87
573.61	655.07
573.96	655.42
574.31	655.50
574.67	655.63
575.02	655.53
575.37	655.16
575.72	654.71
576.08	654.67
576.43	654.83
576.78	654.75
577.13	654.66
577.49	654.68
577.84	654.65
578.19	654.85
578.54	655.25
578.90	655.60
579.25	655.45
579.60	655.32
579.95	654.96
580.30	655.07
580.66	655.07
581.01	654.90
581.36	654.50
581.71	654.40
582.06	654.16
582.42	654.11
582.77	653.90
583.12	653.89
583.47	653.69
583.82	653.44
584.17	653.36
584.53	653.29
584.88	652.90
585.23	652.83
585.58	652.23
585.93	651.79
586.28	651.16
586.63	650.93
586.98	650.61
587.34	650.50
587.69	649.92
588.04	649.56
588.39	649.25
588.74	648.81
589.09	648.45
589.44	647.71
589.79	647.24
590.14	646.78
590.49	646.05
590.84	645.29
591.19	644.97
591.54	644.22
591.89	643.19
592.25	642.66
592.60	641.63
592.95	640.87
593.30	639.68
593.65	638.71
594.00	637.58
594.35	637.53
594.70	636.55
595.05	635.73
595.40	634.76
595.75	633.61
596.10	632.95
596.45	632.20
596.80	631.58
597.15	630.70
597.50	629.73
597.85	629.01
598.19	628.03
598.54	626.88
598.89	625.93
599.24	625.31
599.59	624.35
599.94	623.66
600.29	622.73
600.64	622.08
600.99	621.26
601.34	620.51
601.69	618.69
602.04	617.79
602.39	616.81
602.74	615.94
603.08	615.40
603.43	614.66
603.78	613.62
604.13	612.55
604.48	611.62
604.83	611.00
605.18	610.21
605.53	609.36
605.87	608.53
606.22	607.73
606.57	606.69
606.92	605.53
607.27	604.38
607.62	603.51
607.96	602.50
608.31	601.57
608.66	600.63
609.01	599.49
609.36	598.19
609.70	596.91
610.05	595.55
610.40	594.34
610.75	592.89
611.10	591.74
611.44	590.35
611.79	588.87
612.14	587.24
612.49	585.42
612.83	584.05
613.18	582.35
613.53	580.86
613.88	579.24
614.22	577.76
614.57	576.21
614.92	574.68
615.27	573.08
615.61	571.28
615.96	569.75
616.31	568.40
616.65	567.25
617.00	565.80
617.35	564.38
617.70	562.62
618.04	560.92
618.39	559.06
618.74	557.80
619.08	556.19
619.43	554.59
619.78	553.35
620.12	551.68
620.47	550.18
620.82	548.38
621.16	546.62
621.51	545.10
621.85	543.42
622.20	541.71
622.55	539.90
622.89	538.31
623.24	536.46
623.59	534.66
623.93	532.79
624.28	531.31
624.62	529.98
624.97	528.46
625.32	526.80
625.66	525.24
626.01	523.41
626.35	521.79
626.70	520.16
627.04	518.60
627.39	516.95
627.73	515.49
628.08	514.03
628.43	512.36
628.77	510.61
629.12	509.02
629.46	507.47
629.81	506.01
630.15	504.30
630.50	502.78
630.84	501.03
631.19	499.38
631.53	497.59
631.88	495.58
632.22	493.70
632.57	492.34
632.91	490.85
633.26	489.17
633.60	487.58
633.95	485.99
634.29	484.11
634.64	482.59
634.98	480.79
635.32	479.22
635.67	477.88
636.01	476.31
636.36	474.71
636.70	473.33
637.05	471.68
637.39	470.19
637.73	468.64
638.08	467.46
638.42	466.02
638.77	464.65
639.11	463.09
639.45	461.71
639.80	459.86
640.14	458.08
640.49	456.48
640.83	454.80
641.17	453.23
641.52	451.58
641.86	449.92
642.20	448.45
642.55	446.61
642.89	444.95
643.23	443.39
643.58	442.00
643.92	440.11
644.26	438.49
644.61	436.97
644.95	435.35
645.29	433.47
645.64	431.90
645.98	430.19
646.32	428.64
646.66	427.00
647.01	425.44
647.35	424.03
647.69	422.39
648.04	420.96
648.38	419.41
648.72	417.94
649.06	416.19
649.41	414.52
649.75	413.05
650.09	411.50
650.43	409.89
650.78	408.08
651.12	406.44
651.46	404.99
651.80	403.54
652.14	402.00
652.49	400.65
652.83	398.99
653.17	397.33
653.51	395.80
653.85	394.27
654.20	392.83
654.54	391.26
654.88	389.78
655.22	388.28
655.56	386.62
655.90	385.10
656.25	383.64
656.59	382.25
656.93	380.78
657.27	379.49
657.61	377.97
657.95	376.68
658.29	375.32
658.64	373.99
658.98	372.41
659.32	370.79
659.66	369.29
660.00	367.88
660.34	366.43
660.68	364.98
661.02	363.51
661.36	362.10
661.70	360.73
662.05	359.39
662.39	358.12
662.73	357.01
663.07	355.96
663.41	354.80
663.75	353.43
664.09	352.16
664.43	350.65
664.77	349.42
665.11	348.12
665.45	346.91
665.79	345.64
666.13	344.40
666.47	343.36
666.81	342.11
667.15	340.89
667.49	339.90
667.83	338.83
668.17	337.77
668.51	336.72
668.85	335.71
669.19	334.88
669.53	333.67
669.87	332.52
670.21	331.23
670.55	330.12
670.89	329.30
671.23	328.38
671.57	327.33
671.91	326.30
672.25	325.24
672.58	324.32
672.92	323.26
673.26	322.37
673.60	321.34
673.94	320.42
674.28	319.49
674.62	318.57
674.96	317.63
675.30	316.70
675.64	315.74
675.97	314.70
676.31	313.67
676.65	312.85
676.99	312.09
677.33	311.16
677.67	310.37
678.01	309.31
678.34	308.44
678.68	307.72
679.02	306.84
679.36	305.91
679.70	304.98
680.04	304.10
680.37	303.18
680.71	302.33
681.05	301.52
681.39	300.71
681.73	299.80
682.06	298.97
682.40	298.12
682.74	297.35
683.08	296.65
683.42	295.76
683.75	294.94
684.09	293.99
684.43	293.15
684.77	292.20
685.10	291.44
685.44	290.48
685.78	289.65
686.12	288.85
686.45	288.21
686.79	287.44
687.13	286.78
687.46	286.11
687.80	285.57
688.14	284.82
688.48	284.00
688.81	283.26
689.15	282.55
689.49	281.84
689.82	281.11
690.16	280.27
690.50	279.50
690.83	278.79
691.17	278.06
691.51	277.39
691.84	276.77
692.18	275.98
692.52	275.39
692.85	274.80
693.19	274.40
693.52	273.60
693.86	272.89
694.20	272.26
694.53	271.56
694.87	270.72
695.21	270.01
695.54	269.51
695.88	268.89
696.21	268.21
696.55	267.59
696.88	266.97
697.22	266.26
697.56	265.76
697.89	265.17
698.23	264.57
698.56	264.02
698.90	263.60
699.23	263.06
699.57	262.50
699.90	261.88
700.24	261.06
700.58	260.71
700.91	260.25
701.25	259.91
701.58	259.50
701.92	259.11
702.25	258.61
702.59	258.08
702.92	257.59
703.26	257.13
703.59	256.64
703.93	256.48
704.26	256.10
704.60	255.67
704.93	255.22
705.26	254.82
705.60	254.40
705.93	253.80
706.27	253.50
706.60	253.15
706.94	252.90
707.27	252.48
707.61	251.96
707.94	251.46
708.27	250.83
708.61	250.32
708.94	249.88
709.28	249.49
709.61	249.04
709.94	248.67
710.28	248.26
710.61	247.89
710.95	247.14
711.28	247.10
711.61	246.66
711.95	246.33
712.28	245.90
712.61	245.63
712.95	245.38
713.28	245.08
713.61	244.62
713.95	244.15
714.28	243.83
714.61	243.48
714.95	243.24
715.28	242.84
715.61	242.41
715.95	242.16
716.28	241.85
716.61	241.65
716.95	241.33
717.28	241.02
717.61	240.77
717.94	240.51
718.28	239.93
718.61	239.65
718.94	239.29
719.27	239.01
719.61	238.63
719.94	238.31
720.27	237.92
720.60	237.68
720.94	237.33
721.27	237.13
721.60	236.87
721.93	236.59
722.27	236.49
722.60	236.41
722.93	236.05
723.26	235.91
723.59	235.59
723.93	235.34
724.26	235.10
724.59	234.81
724.92	234.54
725.25	234.45
725.59	234.24
725.92	234.08
726.25	233.88
726.58	233.67
726.91	233.46
727.24	233.32
727.57	233.14
727.91	232.85
728.24	232.68
728.57	232.50
728.90	232.30
729.23	231.95
729.56	231.92
729.89	231.76
730.22	231.45
730.55	231.15
730.89	230.96
731.22	230.75
731.55	230.54
731.88	230.38
732.21	230.08
732.54	229.80
732.87	229.62
733.20	229.46
733.53	229.31
733.86	229.19
734.19	228.89
734.52	228.77
734.85	228.90
735.18	228.72
735.51	228.66
735.84	228.56
736.17	228.49
736.50	228.13
736.83	228.31
737.16	228.21
737.49	228.18
737.82	228.09
738.15	227.98
738.48	227.92
738.81	227.76
739.14	227.56
739.47	227.43
739.80	227.21
740.13	227.10
740.46	226.80
740.79	226.52
741.12	226.44
741.45	226.20
741.78	225.81
742.11	225.71
742.44	225.48
742.77	225.37
743.10	225.27
743.43	225.08
743.75	224.58
744.08	224.84
744.41	224.62
744.74	224.44
745.07	224.25
745.40	224.10
745.73	224.13
746.06	223.97
746.39	223.90
746.71	223.83
747.04	223.56
747.37	223.47
747.70	223.44
748.03	223.33
748.36	223.28
748.68	223.20
749.01	222.97
749.34	222.85
749.67	222.76
750.00	222.61
750.33	222.72
750.65	222.67
750.98	222.08
751.31	222.01
751.64	221.82
751.97	221.96
752.29	221.80
752.62	221.54
752.95	221.43
753.28	221.25
753.60	221.14
753.93	221.17
754.26	221.16
754.59	220.97
754.91	220.78
755.24	220.61
755.57	220.49
755.90	220.35
756.22	220.26
756.55	220.06
756.88	219.84
757.20	219.56
757.53	219.37
757.86	219.32
758.19	219.29
758.51	219.27
758.84	219.00
759.17	218.90
759.49	218.88
759.82	218.95
760.15	218.91
760.47	218.79
760.80	218.63
761.13	218.56
761.45	218.49
761.78	218.49
762.11	218.45
762.43	218.33
762.76	218.26
763.08	218.16
763.41	218.10
763.74	218.07
764.06	217.97
764.39	217.95
764.71	217.87
765.04	217.65
765.37	217.49
765.69	217.39
766.02	217.30
766.34	217.08
766.67	216.95
767.00	216.92
767.32	217.05
767.65	217.17
767.97	217.13
768.30	217.07
768.62	216.96
768.95	216.83
769.27	216.82
769.60	216.79
769.92	216.72
770.25	216.56
770.57	216.48
770.90	216.35
771.22	216.25
771.55	216.26
771.87	216.26
772.20	216.33
772.52	216.51
772.85	216.84
773.17	216.89
773.50	216.78
773.82	216.70
774.15	216.43
774.47	216.20
774.80	216.05
775.12	216.03
775.45	216.03
775.77	216.02
776.09	215.96
776.42	215.96
776.74	216.02
777.07	216.03
777.39	215.95
777.72	215.94
778.04	215.90
778.36	215.80
778.69	215.73
779.01	215.66
779.33	215.35
779.66	214.94
779.98	214.88
780.31	214.93
780.63	215.03
780.95	215.08
781.28	214.95
781.60	214.95
781.92	214.89
782.25	214.76
782.57	214.69
782.89	214.61
783.22	214.52
783.54	214.47
783.86	214.55
784.19	214.54
784.51	214.61
784.83	214.57
785.16	214.51
785.48	214.59
785.80	214.57
786.12	214.65
786.45	214.65
786.77	214.61
787.09	214.55
787.42	214.41
787.74	214.42
788.06	214.50
788.38	214.43
788.71	214.39
789.03	214.43
789.35	214.45
789.67	214.38
789.99	214.43
790.32	214.30
790.64	214.25
790.96	214.43
791.28	214.30
791.61	214.27
791.93	214.28
792.25	214.15
792.57	214.30
792.89	214.17
793.21	214.18
793.54	214.16
793.86	214.10
794.18	214.06
794.50	214.00
794.82	213.97
795.14	213.99
795.47	214.05
795.79	214.07
796.11	213.95
796.43	213.96
796.75	213.93
797.07	213.94
797.39	213.87
797.71	213.71
798.04	213.68
798.36	213.61
798.68	213.59
799.00	213.62
799.32	213.44
799.64	213.45
799.96	213.33
800.28	213.39
800.60	213.29
800.92	213.33
801.24	213.25
801.56	213.24
801.89	213.20
802.21	213.15
802.53	212.96
802.85	213.06
803.17	213.16
803.49	213.06
803.81	213.03
804.13	212.95
804.45	212.85
804.77	212.90
805.09	212.96
805.41	212.92
805.73	212.90
806.05	212.81
806.37	212.85
806.69	212.87
807.01	212.81
807.33	212.88
807.65	212.75
807.97	212.85
808.28	212.85
808.60	212.77
808.92	212.72
809.24	213.03
809.56	212.97
809.88	212.90
810.20	212.91
810.52	212.94
810.84	212.90
811.16	212.92
811.48	212.86
811.80	212.94
812.12	212.94
812.43	213.00
812.75	212.93
813.07	212.81
813.39	212.84
813.71	212.80
814.03	212.71
814.35	212.68
814.67	212.53
814.98	212.46
815.30	212.49
815.62	212.38
815.94	212.13
816.26	212.10
816.58	211.94
816.89	211.93
817.21	211.83
817.53	211.86
817.85	211.79
818.17	211.77
818.48	211.60
818.80	211.62
819.12	211.52
819.44	211.49
819.76	211.49
820.07	211.46
820.39	211.39
820.71	211.46
821.03	211.47
821.34	211.49
821.66	211.57
821.98	211.56
822.30	211.53
822.61	211.70
822.93	211.68
823.25	211.74
823.57	211.74
823.88	211.82
824.20	211.90
824.52	211.94
824.83	211.93
825.15	211.93
825.47	211.89
825.79	211.94
826.10	211.88
826.42	211.91
826.74	211.95
827.05	212.03
827.37	212.03
827.69	211.99
828.00	211.93
828.32	211.89
828.64	211.84
828.95	212.01
829.27	212.00
829.58	212.00
829.90	212.10
830.22	212.07
830.53	211.95
830.85	211.86
831.17	211.79
831.48	211.81
831.80	211.83
832.11	211.77
832.43	211.71
832.75	211.82
833.06	211.98
833.38	211.82
833.69	211.73
834.01	211.73
834.32	211.77
834.64	211.80
834.96	211.80
835.27	211.85
835.59	211.78
835.90	211.64
836.22	211.61
836.53	211.49
836.85	211.44
837.16	211.76
837.48	211.75
837.79	211.83
838.11	211.78
838.42	211.74
838.74	211.83
839.05	211.79
839.37	211.72
839.68	211.55
840.00	211.59
840.31	211.66
840.63	211.63
840.94	211.53
841.26	211.46
841.57	211.40
841.88	211.45
842.20	211.36
842.51	211.36
842.83	211.36
843.14	211.69
843.46	211.76
843.77	211.66
844.08	211.56
844.40	211.49
844.71	211.50
845.03	211.49
845.34	211.43
845.65	211.45
845.97	211.47
846.28	211.42
846.60	211.47
846.91	211.41
847.22	211.41
847.54	211.56
847.85	211.66
848.16	211.70
848.48	211.62
848.79	211.79
849.10	211.78
849.42	211.83
849.73	211.49
850.04	211.49
850.36	211.33
850.67	211.48
850.98	211.49
851.30	211.51
851.61	211.49
851.92	211.53
852.23	211.57
852.55	211.60
852.86	211.57
853.17	211.59
853.49	211.65
853.80	211.62
854.11	211.70
854.42	211.64
854.74	211.59
855.05	211.61
855.36	211.46
855.67	211.51
855.99	211.45
856.30	211.87
856.61	211.80
856.92	211.84
857.23	211.83
857.55	211.83
857.86	211.72
858.17	211.83
858.48	211.79
858.79	211.75
859.11	211.82
859.42	211.85
859.73	211.76
860.04	211.82
860.35	211.80
860.66	211.56
860.98	211.56
861.29	211.65
861.60	211.63
861.91	211.75
862.22	211.66
862.53	211.66
862.84	211.29
863.16	211.47
863.47	211.32
863.78	211.30
864.09	211.33
864.40	211.44
864.71	211.37
865.02	211.43
865.33	211.42
865.64	211.28
865.95	211.27
866.27	211.56
866.58	211.54
866.89	211.56
867.20	211.66
867.51	211.63
867.82	211.56
868.13	211.62
868.44	211.44
868.75	211.54
869.06	211.58
869.37	211.64
869.68	211.47
869.99	211.64
870.30	211.62
870.61	211.64
870.92	211.62
871.23	211.60
871.54	211.61
871.85	211.70
872.16	211.80
872.47	211.75
872.78	211.49
873.09	211.41
873.40	211.35
873.71	211.29
874.02	211.35
874.33	211.31
874.64	211.25
874.95	211.38
875.26	211.23
875.56	211.19
875.87	211.11
876.18	211.11
876.49	211.43
876.80	211.41
877.11	211.36
877.42	211.42
877.73	211.46
878.04	211.37
878.35	211.38
878.66	211.40
878.96	211.40
879.27	211.40
879.58	211.42
879.89	211.44
880.20	211.63
880.51	211.57
880.82	211.67
881.12	211.70
881.43	211.59
881.74	211.63
882.05	211.60
882.36	211.53
882.67	211.54
882.97	211.14
883.28	211.10
883.59	211.07
883.90	211.05
884.21	211.12
884.51	211.08
884.82	211.02
885.13	210.97
885.44	211.01
885.74	211.02
886.05	210.98
886.36	211.01
886.67	210.84
886.98	211.09
887.28	211.00
887.59	211.00
887.90	211.02
888.20	211.07
888.51	211.10
888.82	211.13
889.13	211.20
889.43	211.42
889.74	211.41
890.05	211.42
890.35	211.29
890.66	211.17
890.97	211.23
891.28	211.20
891.58	211.17
891.89	211.19
892.20	211.10
892.50	211.11
892.81	211.11
893.12	211.18
893.42	210.93
893.73	210.97
894.04	210.95
894.34	210.95
894.65	210.86
894.95	210.87
895.26	210.88
895.57	210.95
895.87	210.72
896.18	210.80
896.48	210.83
896.79	210.90
897.10	210.96
897.40	210.99
897.71	211.02
898.01	211.02
898.32	210.99
898.63	211.06
898.93	211.07
899.24	211.08
899.54	211.00
899.85	210.95
900.15	210.97
900.46	210.96
900.76	210.96
901.07	211.02
901.38	211.05
901.68	211.14
901.99	211.04
902.29	210.99
902.60	210.98
902.90	210.98
903.21	210.96
903.51	210.89
903.82	210.91
904.12	210.90
904.43	210.92
904.73	210.92
905.03	210.96
905.34	211.28
905.64	211.23
905.95	211.20
906.25	211.28
906.56	211.20
906.86	211.16
907.17	211.18
907.47	211.17
907.77	211.10
908.08	210.99
908.38	210.95
908.69	210.99
908.99	210.98
909.30	210.99
909.60	211.07
909.90	211.15
910.21	211.02
910.51	210.95
910.81	210.95
911.12	210.96
911.42	210.92
911.73	210.59
912.03	210.58
912.33	210.71
912.64	210.70
912.94	210.67
913.24	210.72
913.55	210.69
913.85	210.63
914.15	210.75
914.46	210.81
914.76	210.80
915.06	210.82
915.37	210.84
915.67	210.71
915.97	210.63
916.27	210.54
916.58	210.61
916.88	210.59
917.18	210.57
917.49	210.77
917.79	210.73
918.09	210.78
918.39	210.88
918.70	210.84
919.00	210.81
919.30	210.99
919.60	210.95
919.91	210.91
920.21	211.00
920.51	210.90
920.81	210.92
921.12	210.91
921.42	210.89
921.72	210.89
922.02	210.94
922.32	211.04
922.63	211.09
922.93	211.25
923.23	211.31
923.53	211.27
923.83	211.07
924.13	211.09
924.44	211.13
924.74	211.20
925.04	211.33
925.34	211.32
925.64	211.25
925.94	211.29
926.24	211.47
926.55	211.41
926.85	211.50
927.15	211.38
927.45	211.44
927.75	211.48
928.05	211.45
928.35	211.46
928.65	211.47
928.95	211.50
929.26	211.32
929.56	211.37
929.86	211.34
930.16	211.29
930.46	211.30
930.76	211.26
931.06	211.12
931.36	210.91
931.66	211.03
931.96	211.07
932.26	211.04
932.56	210.92
932.86	210.96
933.16	210.94
933.46	210.99
933.76	210.95
934.06	210.97
934.36	211.10
934.66	211.10
934.96	211.08
935.26	211.05
935.56	211.14
935.86	211.15
936.16	211.21
936.46	211.18
936.76	211.23
937.06	211.18
937.36	211.16
937.66	211.24
937.96	211.16
938.26	211.13
938.56	211.19
938.86	211.25
939.16	211.35
939.46	211.38
939.76	211.45
940.06	211.44
940.35	211.45
940.65	211.32
940.95	211.32
941.25	211.28
941.55	211.25
941.85	211.17
942.15	211.16
942.45	211.26
942.75	211.29
943.04	211.32
943.34	211.45
943.64	211.38
943.94	211.26
944.24	211.24
944.54	211.14
944.84	211.08
945.13	210.99
945.43	210.85
945.73	210.83
946.03	210.81
946.33	210.76
946.62	210.64
946.92	210.57
947.22	210.69
947.52	210.67
947.82	210.74
948.11	210.70
948.41	210.68
948.71	210.58
949.01	210.68
949.31	210.50
949.60	210.44
949.90	210.52
950.20	210.54
950.50	210.60
950.79	210.59
951.09	210.61
951.39	210.63
951.69	210.67
951.98	210.66
952.28	210.70
952.58	210.69
952.87	210.75
953.17	210.76
953.47	210.65
953.76	210.65
954.06	210.54
954.36	210.55
954.66	210.52
954.95	210.57
955.25	210.55
955.55	210.69
955.84	210.57
956.14	210.62
956.44	210.68
956.73	210.53
957.03	210.59
957.32	210.58
957.62	210.53
957.92	210.55
958.21	210.50
958.51	210.83
958.81	210.91
959.10	210.92
959.40	211.01
959.69	210.98
959.99	211.06
960.29	211.03
960.58	211.01
960.88	211.12
961.17	211.12
961.47	211.16
961.76	211.11
962.06	211.26
962.36	211.18
962.65	211.19
962.95	211.28
963.24	211.25
963.54	211.27
963.83	211.37
964.13	211.42
964.42	211.37
964.72	211.07
965.01	211.03
965.31	211.03
965.60	210.98
965.90	211.22
966.19	211.07
966.49	211.17
966.78	211.15
967.08	211.10
967.37	211.08
967.67	211.00
967.96	211.07
968.26	210.98
968.55	211.09
968.85	211.05
969.14	211.08
969.43	211.04
969.73	210.98
970.02	210.92
970.32	210.84
970.61	210.83
970.91	210.72
971.20	210.70
971.49	210.65
971.79	210.68
972.08	210.47
972.38	210.55
972.67	210.52
972.96	210.53
973.26	210.53
973.55	210.58
973.85	210.60
974.14	210.53
974.43	210.56
974.73	210.48
975.02	210.53
975.31	210.50
975.61	210.53
975.90	210.47
976.19	210.47
976.49	210.45
976.78	210.49
977.07	210.52
977.37	210.64
977.66	210.69
977.95	210.65
978.24	210.67
978.54	210.67
978.83	210.66
979.12	210.71
979.42	210.66
979.71	210.60
980.00	210.56
980.29	210.61
980.59	210.52
980.88	210.53
981.17	210.45
981.46	210.42
981.76	210.45
982.05	210.60
982.34	210.63
982.63	210.69
982.93	210.69
983.22	210.79
983.51	210.74
983.80	210.78
984.09	210.82
984.39	210.78
984.68	210.80
984.97	210.85
985.26	210.85
985.55	210.89
985.85	210.94
986.14	210.99
986.43	210.99
986.72	211.03
987.01	211.01
987.30	211.02
987.59	211.04
987.89	211.11
988.18	211.02
988.47	210.92
988.76	210.91
989.05	210.87
989.34	210.77
989.63	210.80
989.92	210.77
990.22	210.70
990.51	210.67
990.80	210.63
991.09	210.69
991.38	210.72
991.67	210.69
991.96	210.55
992.25	210.57
992.54	210.48
992.83	210.49
993.12	210.43
993.41	210.53
993.70	210.60
993.99	210.67
994.28	210.73
994.58	210.79
994.87	210.74
995.16	210.73
995.45	210.71
995.74	210.63
996.03	210.65
996.32	210.75
996.61	210.93
996.90	210.90
997.19	210.87
997.48	210.82
997.77	210.82
998.06	210.93
998.34	210.85
998.63	210.88
998.92	210.87
999.21	211.01
999.50	210.99
999.79	210.93
1000.08	210.85
1000.37	210.78
1000.66	210.78
1000.95	210.90
1001.24	210.99
1001.53	211.02
1001.82	211.08
1002.11	210.99
1002.40	210.94
1002.68	210.93
1002.97	211.14
1003.26	211.01
1003.55	211.03
1003.84	211.07
1004.13	211.18
1004.42	211.16
1004.71	211.23
1004.99	211.21
1005.28	211.22
1005.57	211.17
1005.86	211.18
1006.15	211.17
1006.44	211.15
1006.72	211.13
1007.01	211.01
1007.30	211.01
1007.59	210.97
1007.88	210.92
1008.17	210.96
1008.45	210.94
1008.74	210.81
1009.03	210.72
1009.32	210.80
1009.60	210.79
1009.89	210.74
1010.18	210.55
1010.47	210.58
1010.76	210.53
1011.04	210.57
1011.33	210.95
1011.62	211.05
1011.91	211.01
1012.19	211.02
1012.48	211.03
1012.77	211.09
1013.05	211.24
1013.34	211.25
1013.63	211.28
1013.92	211.24
1014.20	211.19
1014.49	211.21
1014.78	211.26
1015.06	211.10
1015.35	211.07
1015.64	211.08
1015.92	211.16
1016.21	211.25
1016.50	211.25
1016.78	211.34
1017.07	211.39
1017.36	210.93
1017.64	210.85
1017.93	210.95
1018.22	210.92
1018.50	210.95
1018.79	210.91
1019.08	210.75
1019.36	210.75
1019.65	210.72
1019.93	210.86
1020.22	211.00
1020.51	211.16
1020.79	211.05
1021.08	210.45
1021.36	210.80
1021.65	210.35
1021.94	209.75
1022.22	211.00
1022.51	210.65
1022.79	212.45
1023.08	211.90
1023.36	214.55
1023.65	208.60
>>>>>End Processed Spectral Data<<<<<
