SpectraSuite Data File
++++++++++++++++++++++++++++++++++++
Date: Mon Feb 25 17:00:02 EST 2013
User: group
Dark Spectrum Present: No
Reference Spectrum Present: No
Number of Sampled Component Spectra: 1
Spectrometers: USB2E7196
Integration Time (usec): 104000 (USB2E7196)
Spectra Averaged: 20 (USB2E7196)
Boxcar Smoothing: 10 (USB2E7196)
Correct for Electrical Dark: No (USB2E7196)
Strobe/Lamp Enabled: No (USB2E7196)
Correct for Detector Non-linearity: No (USB2E7196)
Correct for Stray Light: No (USB2E7196)
Number of Pixels in Processed Spectrum: 2048
>>>>>Begin Processed Spectral Data<<<<<
339.09	0.00
339.48	197.25
339.86	199.75
340.24	200.30
340.63	202.05
341.01	209.65
341.39	205.45
341.78	206.80
342.16	209.45
342.54	208.20
342.93	198.13
343.31	208.13
343.69	208.71
344.07	209.20
344.46	209.71
344.84	210.07
345.22	210.10
345.60	210.42
345.99	210.59
346.37	210.67
346.75	210.78
347.13	210.81
347.52	210.88
347.90	210.98
348.28	211.01
348.66	211.04
349.05	210.86
349.43	210.93
349.81	210.92
350.19	210.95
350.57	210.98
350.96	211.04
351.34	211.17
351.72	211.24
352.10	211.35
352.48	211.30
352.87	211.40
353.25	211.43
353.63	211.44
354.01	211.52
354.39	211.59
354.77	211.68
355.15	211.88
355.54	211.92
355.92	211.95
356.30	211.97
356.68	212.27
357.06	212.35
357.44	212.31
357.82	212.37
358.20	212.43
358.58	212.53
358.97	212.57
359.35	212.65
359.73	212.86
360.11	212.85
360.49	212.94
360.87	212.97
361.25	213.13
361.63	213.22
362.01	213.30
362.39	213.31
362.77	213.34
363.15	213.36
363.53	213.40
363.91	213.42
364.29	213.57
364.67	213.32
365.05	213.33
365.43	213.37
365.81	213.45
366.19	213.72
366.57	213.79
366.95	213.79
367.33	213.71
367.71	213.68
368.09	213.81
368.47	213.89
368.85	213.90
369.23	213.96
369.61	213.84
369.99	213.90
370.37	214.03
370.75	214.17
371.13	214.07
371.51	214.03
371.89	214.08
372.27	214.02
372.65	214.04
373.03	214.02
373.41	214.03
373.78	213.99
374.16	213.65
374.54	213.54
374.92	213.52
375.30	213.56
375.68	213.36
376.06	213.25
376.44	213.14
376.82	213.19
377.19	213.10
377.57	213.09
377.95	212.95
378.33	212.75
378.71	212.56
379.09	212.55
379.47	212.50
379.84	212.37
380.22	212.30
380.60	212.13
380.98	212.11
381.36	211.99
381.73	211.87
382.11	211.95
382.49	211.93
382.87	211.80
383.25	211.70
383.62	212.10
384.00	211.99
384.38	212.01
384.76	212.02
385.13	212.14
385.51	212.06
385.89	211.96
386.27	212.00
386.64	211.94
387.02	211.83
387.40	211.78
387.78	211.74
388.15	211.67
388.53	211.61
388.91	211.62
389.29	211.55
389.66	211.58
390.04	211.48
390.42	211.42
390.79	211.52
391.17	211.45
391.55	211.05
391.92	211.07
392.30	211.09
392.68	210.95
393.05	210.85
393.43	210.91
393.81	210.93
394.18	210.79
394.56	210.77
394.94	210.87
395.31	210.83
395.69	211.01
396.06	211.11
396.44	211.18
396.82	211.06
397.19	211.28
397.57	211.21
397.95	211.32
398.32	211.31
398.70	211.28
399.07	211.40
399.45	211.37
399.82	211.36
400.20	211.37
400.58	211.40
400.95	211.25
401.33	211.35
401.70	211.70
402.08	211.87
402.45	211.98
402.83	212.14
403.20	212.28
403.58	212.29
403.95	212.43
404.33	212.61
404.71	212.85
405.08	213.18
405.46	213.36
405.83	213.49
406.21	213.65
406.58	213.84
406.96	214.09
407.33	214.42
407.70	214.74
408.08	215.21
408.45	215.56
408.83	216.05
409.20	216.35
409.58	216.51
409.95	216.94
410.33	217.44
410.70	217.83
411.08	218.42
411.45	218.98
411.82	219.60
412.20	220.31
412.57	221.20
412.95	221.65
413.32	222.56
413.69	223.46
414.07	224.45
414.44	225.55
414.82	226.60
415.19	227.73
415.56	228.97
415.94	230.18
416.31	231.72
416.68	233.22
417.06	234.93
417.43	236.54
417.81	238.39
418.18	240.34
418.55	242.37
418.93	244.61
419.30	246.96
419.67	249.40
420.04	251.87
420.42	254.42
420.79	257.65
421.16	260.77
421.54	263.99
421.91	267.34
422.28	270.69
422.66	274.31
423.03	278.10
423.40	281.84
423.77	285.84
424.15	289.84
424.52	294.08
424.89	298.69
425.26	303.26
425.64	307.57
426.01	312.28
426.38	317.22
426.75	322.23
427.13	327.40
427.50	332.77
427.87	338.56
428.24	344.26
428.61	349.69
428.99	355.69
429.36	362.22
429.73	368.64
430.10	375.12
430.47	381.75
430.85	388.53
431.22	395.83
431.59	403.56
431.96	411.01
432.33	419.17
432.70	427.31
433.08	436.66
433.45	445.44
433.82	454.25
434.19	464.15
434.56	473.78
434.93	483.08
435.30	492.47
435.68	502.69
436.05	512.93
436.42	523.15
436.79	532.55
437.16	542.87
437.53	553.60
437.90	564.35
438.27	574.94
438.64	585.81
439.01	596.33
439.38	605.68
439.75	614.68
440.13	624.97
440.50	634.53
440.87	642.58
441.24	651.01
441.61	660.42
441.98	667.45
442.35	675.40
442.72	683.57
443.09	691.48
443.46	696.61
443.83	700.27
444.20	703.59
444.57	708.10
444.94	710.36
445.31	713.08
445.68	715.59
446.05	717.12
446.42	716.97
446.79	716.12
447.16	715.42
447.53	715.30
447.90	712.06
448.27	708.98
448.64	704.19
449.01	700.98
449.37	694.34
449.74	688.35
450.11	681.35
450.48	673.11
450.85	664.70
451.22	657.38
451.59	650.51
451.96	643.97
452.33	635.10
452.70	627.00
453.07	617.05
453.43	607.05
453.80	597.51
454.17	588.40
454.54	579.78
454.91	570.39
455.28	561.09
455.65	552.58
456.02	544.13
456.38	536.85
456.75	527.66
457.12	520.12
457.49	512.53
457.86	504.85
458.23	498.56
458.59	491.62
458.96	484.80
459.33	478.77
459.70	472.52
460.07	467.39
460.43	461.88
460.80	456.59
461.17	451.95
461.54	447.01
461.91	442.25
462.27	437.51
462.64	433.51
463.01	428.99
463.38	424.70
463.74	420.09
464.11	416.26
464.48	412.90
464.85	409.28
465.21	406.36
465.58	403.39
465.95	399.79
466.32	396.76
466.68	393.78
467.05	390.71
467.42	387.71
467.78	384.53
468.15	381.54
468.52	379.34
468.88	376.47
469.25	373.86
469.62	371.86
469.98	369.56
470.35	367.50
470.72	365.56
471.08	363.31
471.45	361.50
471.82	359.61
472.18	357.55
472.55	356.07
472.92	354.24
473.28	352.64
473.65	351.13
474.02	349.58
474.38	348.26
474.75	347.26
475.11	346.10
475.48	345.32
475.85	344.49
476.21	343.61
476.58	342.91
476.94	342.42
477.31	341.79
477.67	341.23
478.04	340.54
478.41	340.10
478.77	340.19
479.14	339.65
479.50	339.48
479.87	339.44
480.23	339.30
480.60	339.15
480.96	339.09
481.33	339.29
481.69	339.52
482.06	339.68
482.42	339.69
482.79	339.85
483.15	340.10
483.52	340.49
483.88	340.88
484.25	341.26
484.61	341.71
484.98	342.17
485.34	342.99
485.71	343.92
486.07	344.83
486.44	345.29
486.80	346.43
487.17	347.46
487.53	348.69
487.90	349.94
488.26	351.48
488.62	352.96
488.99	354.20
489.35	355.62
489.72	357.18
490.08	358.79
490.44	360.41
490.81	362.21
491.17	363.88
491.54	365.82
491.90	367.70
492.26	369.71
492.63	371.71
492.99	373.77
493.36	375.86
493.72	378.09
494.08	380.52
494.45	382.97
494.81	385.42
495.17	387.99
495.54	390.66
495.90	393.15
496.26	395.77
496.63	398.78
496.99	401.62
497.35	404.48
497.72	407.50
498.08	410.49
498.44	413.47
498.80	416.81
499.17	420.02
499.53	423.24
499.89	426.47
500.26	429.74
500.62	432.92
500.98	436.31
501.34	439.52
501.71	442.82
502.07	446.00
502.43	449.20
502.79	452.23
503.16	455.32
503.52	458.45
503.88	461.59
504.24	464.48
504.60	467.58
504.97	470.67
505.33	473.71
505.69	476.90
506.05	479.83
506.41	482.58
506.78	485.26
507.14	487.97
507.50	490.62
507.86	493.19
508.22	495.83
508.59	498.23
508.95	500.81
509.31	503.30
509.67	505.60
510.03	507.79
510.39	510.25
510.75	512.36
511.12	514.49
511.48	516.34
511.84	518.47
512.20	520.28
512.56	522.22
512.92	524.07
513.28	525.76
513.64	527.51
514.00	529.14
514.37	530.76
514.73	532.44
515.09	533.90
515.45	535.37
515.81	536.66
516.17	537.92
516.53	539.03
516.89	539.98
517.25	541.08
517.61	542.20
517.97	542.93
518.33	543.84
518.69	544.72
519.05	545.74
519.41	546.40
519.77	547.47
520.13	547.97
520.49	548.49
520.85	549.05
521.21	549.67
521.57	550.30
521.93	550.63
522.29	551.09
522.65	551.55
523.01	552.02
523.37	552.47
523.73	552.94
524.09	553.31
524.45	553.66
524.81	554.18
525.17	554.77
525.53	555.45
525.89	555.98
526.25	556.44
526.61	556.76
526.97	557.15
527.33	557.62
527.68	558.51
528.04	559.18
528.40	559.75
528.76	560.32
529.12	561.07
529.48	561.97
529.84	562.71
530.20	563.65
530.56	564.62
530.91	565.64
531.27	566.78
531.63	567.92
531.99	569.18
532.35	570.26
532.71	571.42
533.07	572.66
533.42	574.32
533.78	575.80
534.14	577.33
534.50	578.86
534.86	580.46
535.21	581.68
535.57	583.33
535.93	584.92
536.29	586.74
536.65	588.41
537.00	590.15
537.36	591.88
537.72	593.52
538.08	595.43
538.44	597.25
538.79	599.10
539.15	601.01
539.51	602.97
539.87	605.08
540.22	607.12
540.58	609.43
540.94	611.41
541.29	613.40
541.65	615.33
542.01	617.52
542.37	619.58
542.72	621.84
543.08	624.00
543.44	626.42
543.79	628.41
544.15	630.75
544.51	633.22
544.87	635.90
545.22	638.46
545.58	640.59
545.94	642.81
546.29	645.14
546.65	647.45
547.01	649.80
547.36	652.17
547.72	654.56
548.07	656.74
548.43	658.82
548.79	661.16
549.14	663.69
549.50	666.22
549.86	668.72
550.21	671.41
550.57	674.07
550.92	676.50
551.28	679.17
551.64	681.50
551.99	683.96
552.35	686.27
552.70	688.63
553.06	691.38
553.41	694.03
553.77	696.71
554.13	699.40
554.48	702.08
554.84	704.81
555.19	707.43
555.55	710.09
555.90	712.53
556.26	715.00
556.61	717.34
556.97	719.52
557.32	721.74
557.68	723.60
558.03	725.61
558.39	727.60
558.74	729.76
559.10	732.17
559.45	734.33
559.81	736.48
560.16	738.55
560.52	740.48
560.87	742.49
561.23	744.27
561.58	746.54
561.94	748.32
562.29	750.01
562.64	751.80
563.00	753.61
563.35	755.66
563.71	757.87
564.06	759.92
564.42	762.10
564.77	764.17
565.12	766.49
565.48	768.75
565.83	770.93
566.19	772.93
566.54	774.54
566.89	776.06
567.25	777.77
567.60	779.73
567.96	781.85
568.31	783.90
568.66	785.82
569.02	786.93
569.37	788.20
569.72	789.66
570.08	791.02
570.43	792.33
570.78	793.62
571.14	794.36
571.49	795.23
571.84	796.07
572.20	796.77
572.55	797.37
572.90	797.66
573.26	798.20
573.61	798.61
573.96	799.10
574.31	799.48
574.67	799.64
575.02	799.37
575.37	799.23
575.72	798.64
576.08	798.33
576.43	798.10
576.78	798.06
577.13	798.00
577.49	797.89
577.84	797.50
578.19	797.21
578.54	797.27
578.90	797.48
579.25	797.19
579.60	796.72
579.95	796.16
580.30	795.67
580.66	795.20
581.01	794.67
581.36	793.93
581.71	793.44
582.06	793.11
582.42	792.88
582.77	792.08
583.12	791.51
583.47	790.88
583.82	790.30
584.17	789.53
584.53	788.85
584.88	787.87
585.23	787.14
585.58	786.13
585.93	785.13
586.28	784.11
586.63	783.22
586.98	782.42
587.34	781.87
587.69	781.02
588.04	780.03
588.39	779.28
588.74	778.21
589.09	777.28
589.44	775.81
589.79	774.73
590.14	773.68
590.49	772.63
590.84	771.48
591.19	770.57
591.54	769.61
591.89	767.94
592.25	767.04
592.60	765.42
592.95	764.04
593.30	762.36
593.65	760.54
594.00	758.84
594.35	758.23
594.70	756.40
595.05	755.21
595.40	753.57
595.75	751.76
596.10	750.50
596.45	748.89
596.80	747.77
597.15	746.17
597.50	744.53
597.85	743.06
598.19	741.46
598.54	739.78
598.89	738.13
599.24	736.98
599.59	735.17
599.94	734.04
600.29	732.39
600.64	730.93
600.99	729.37
601.34	727.82
601.69	725.08
602.04	723.38
602.39	721.48
602.74	719.92
603.08	718.50
603.43	716.96
603.78	715.22
604.13	713.30
604.48	711.47
604.83	710.06
605.18	708.54
605.53	706.75
605.87	704.95
606.22	703.17
606.57	701.28
606.92	699.29
607.27	697.12
607.62	695.49
607.96	693.64
608.31	691.94
608.66	690.09
609.01	688.22
609.36	686.30
609.70	684.30
610.05	682.20
610.40	679.98
610.75	677.72
611.10	675.79
611.44	673.53
611.79	671.50
612.14	669.00
612.49	666.47
612.83	664.25
613.18	661.83
613.53	659.61
613.88	657.23
614.22	655.09
614.57	652.92
614.92	650.65
615.27	648.39
615.61	646.03
615.96	644.02
616.31	641.90
616.65	639.95
617.00	637.56
617.35	635.28
617.70	632.98
618.04	630.61
618.39	628.04
618.74	625.78
619.08	623.31
619.43	621.06
619.78	619.00
620.12	616.96
620.47	614.83
620.82	612.27
621.16	609.70
621.51	607.43
621.85	605.09
622.20	602.58
622.55	600.21
622.89	597.70
623.24	595.14
623.59	592.71
623.93	590.31
624.28	588.16
624.62	586.29
624.97	584.02
625.32	581.69
625.66	579.49
626.01	577.17
626.35	575.05
626.70	572.75
627.04	570.49
627.39	568.09
627.73	565.87
628.08	564.05
628.43	562.04
628.77	559.85
629.12	557.54
629.46	555.53
629.81	553.45
630.15	551.33
630.50	549.13
630.84	546.92
631.19	544.59
631.53	542.38
631.88	539.82
632.22	537.60
632.57	535.76
632.91	533.69
633.26	531.73
633.60	529.49
633.95	527.54
634.29	525.25
634.64	523.14
634.98	520.93
635.32	518.75
635.67	516.78
636.01	514.70
636.36	512.68
636.70	510.74
637.05	508.80
637.39	506.93
637.73	505.13
638.08	503.64
638.42	501.98
638.77	500.25
639.11	498.39
639.45	496.47
639.80	494.30
640.14	492.36
640.49	490.39
640.83	488.46
641.17	486.56
641.52	484.69
641.86	482.82
642.20	481.25
642.55	479.13
642.89	477.24
643.23	475.31
643.58	473.75
643.92	471.65
644.26	469.74
644.61	467.85
644.95	465.83
645.29	463.50
645.64	461.50
645.98	459.41
646.32	457.52
646.66	455.49
647.01	453.62
647.35	451.84
647.69	449.89
648.04	448.15
648.38	446.22
648.72	444.40
649.06	442.34
649.41	440.22
649.75	438.46
650.09	436.60
650.43	434.79
650.78	432.68
651.12	430.95
651.46	429.06
651.80	427.31
652.14	425.52
652.49	423.82
652.83	422.06
653.17	420.25
653.51	418.41
653.85	417.00
654.20	415.30
654.54	413.38
654.88	411.56
655.22	409.78
655.56	407.86
655.90	406.07
656.25	404.45
656.59	402.68
656.93	400.98
657.27	399.34
657.61	397.56
657.95	395.94
658.29	394.26
658.64	392.69
658.98	391.05
659.32	389.39
659.66	387.69
660.00	385.94
660.34	384.28
660.68	382.62
661.02	380.78
661.36	379.15
661.70	377.71
662.05	376.25
662.39	374.85
662.73	373.68
663.07	372.36
663.41	370.97
663.75	369.57
664.09	368.16
664.43	366.60
664.77	365.29
665.11	363.74
665.45	362.38
665.79	360.97
666.13	359.52
666.47	358.18
666.81	356.94
667.15	355.54
667.49	354.37
667.83	353.25
668.17	352.02
668.51	350.77
668.85	349.62
669.19	348.58
669.53	347.21
669.87	345.82
670.21	344.51
670.55	343.27
670.89	342.26
671.23	341.00
671.57	339.91
671.91	338.65
672.25	337.66
672.58	336.56
672.92	335.48
673.26	334.34
673.60	333.30
673.94	332.04
674.28	330.93
674.62	329.95
674.96	328.76
675.30	327.74
675.64	326.69
675.97	325.55
676.31	324.45
676.65	323.43
676.99	322.61
677.33	321.55
677.67	320.60
678.01	319.38
678.34	318.40
678.68	317.43
679.02	316.45
679.36	315.41
679.70	314.28
680.04	313.27
680.37	312.35
680.71	311.31
681.05	310.53
681.39	309.68
681.73	308.60
682.06	307.75
682.40	306.75
682.74	305.92
683.08	305.10
683.42	304.15
683.75	303.35
684.09	302.25
684.43	301.41
684.77	300.46
685.10	299.70
685.44	298.81
685.78	297.88
686.12	297.11
686.45	296.30
686.79	295.58
687.13	294.88
687.46	294.04
687.80	293.35
688.14	292.53
688.48	291.82
688.81	291.04
689.15	290.24
689.49	289.48
689.82	288.67
690.16	287.74
690.50	286.80
690.83	285.91
691.17	285.15
691.51	284.40
691.84	283.66
692.18	282.93
692.52	282.23
692.85	281.62
693.19	281.03
693.52	280.25
693.86	279.53
694.20	278.78
694.53	278.14
694.87	277.37
695.21	276.64
695.54	275.87
695.88	275.15
696.21	274.41
696.55	273.79
696.88	273.09
697.22	272.46
697.56	271.97
697.89	271.34
698.23	270.64
698.56	269.93
698.90	269.34
699.23	268.64
699.57	268.11
699.90	267.41
700.24	266.62
700.58	266.03
700.91	265.58
701.25	265.13
701.58	264.62
701.92	264.13
702.25	263.60
702.59	263.05
702.92	262.58
703.26	262.05
703.59	261.56
703.93	261.35
704.26	260.91
704.60	260.42
704.93	259.92
705.26	259.43
705.60	258.95
705.93	258.44
706.27	258.15
706.60	257.75
706.94	257.48
707.27	256.99
707.61	256.59
707.94	255.92
708.27	255.19
708.61	254.63
708.94	254.10
709.28	253.71
709.61	253.28
709.94	252.80
710.28	252.43
710.61	252.02
710.95	251.27
711.28	251.01
711.61	250.61
711.95	250.29
712.28	249.90
712.61	249.54
712.95	249.30
713.28	248.94
713.61	248.47
713.95	247.91
714.28	247.60
714.61	247.20
714.95	246.86
715.28	246.52
715.61	246.12
715.95	245.80
716.28	245.28
716.61	244.88
716.95	244.45
717.28	244.08
717.61	243.70
717.94	243.42
718.28	242.88
718.61	242.49
718.94	242.11
719.27	241.76
719.61	241.47
719.94	241.04
720.27	240.60
720.60	240.23
720.94	239.97
721.27	239.73
721.60	239.50
721.93	239.23
722.27	239.09
722.60	238.89
722.93	238.60
723.26	238.45
723.59	238.13
723.93	237.96
724.26	237.70
724.59	237.39
724.92	237.14
725.25	236.94
725.59	236.71
725.92	236.44
726.25	236.22
726.58	235.99
726.91	235.74
727.24	235.53
727.57	235.33
727.91	235.06
728.24	234.85
728.57	234.50
728.90	234.38
729.23	234.08
729.56	234.04
729.89	233.76
730.22	233.55
730.55	233.35
730.89	233.15
731.22	232.92
731.55	232.70
731.88	232.43
732.21	232.18
732.54	231.90
732.87	231.72
733.20	231.53
733.53	231.35
733.86	231.10
734.19	230.85
734.52	230.71
734.85	230.72
735.18	230.51
735.51	230.46
735.84	230.17
736.17	230.00
736.50	229.62
736.83	229.85
737.16	229.64
737.49	229.55
737.82	229.34
738.15	229.20
738.48	229.05
738.81	228.91
739.14	228.72
739.47	228.59
739.80	228.44
740.13	228.25
740.46	227.93
740.79	227.80
741.12	227.52
741.45	227.29
741.78	226.95
742.11	226.82
742.44	226.55
742.77	226.53
743.10	226.40
743.43	226.22
743.75	225.78
744.08	226.11
744.41	225.88
744.74	225.70
745.07	225.57
745.40	225.44
745.73	225.46
746.06	225.37
746.39	225.32
746.71	225.10
747.04	224.98
747.37	224.90
747.70	224.79
748.03	224.72
748.36	224.76
748.68	224.70
749.01	224.41
749.34	224.27
749.67	224.10
750.00	223.92
750.33	224.00
750.65	223.85
750.98	223.24
751.31	223.12
751.64	223.04
751.97	222.97
752.29	222.85
752.62	222.57
752.95	222.33
753.28	222.19
753.60	222.10
753.93	222.06
754.26	221.93
754.59	221.67
754.91	221.62
755.24	221.35
755.57	221.19
755.90	221.14
756.22	221.05
756.55	220.77
756.88	220.53
757.20	220.22
757.53	220.00
757.86	219.89
758.19	219.82
758.51	219.69
758.84	219.44
759.17	219.35
759.49	219.30
759.82	219.39
760.15	219.23
760.47	219.19
760.80	218.95
761.13	219.02
761.45	218.98
761.78	218.86
762.11	218.82
762.43	218.70
762.76	218.57
763.08	218.50
763.41	218.59
763.74	218.63
764.06	218.61
764.39	218.56
764.71	218.50
765.04	218.45
765.37	218.42
765.69	218.37
766.02	218.24
766.34	218.11
766.67	217.96
767.00	217.98
767.32	218.05
767.65	218.24
767.97	218.05
768.30	218.04
768.62	217.96
768.95	217.86
769.27	217.79
769.60	217.76
769.92	217.62
770.25	217.46
770.57	217.39
770.90	217.31
771.22	217.33
771.55	217.22
771.87	217.05
772.20	216.91
772.52	217.16
772.85	217.59
773.17	217.53
773.50	217.50
773.82	217.41
774.15	217.14
774.47	216.88
774.80	216.80
775.12	216.71
775.45	216.61
775.77	216.50
776.09	216.55
776.42	216.57
776.74	216.65
777.07	216.69
777.39	216.67
777.72	216.54
778.04	216.46
778.36	216.41
778.69	216.50
779.01	216.50
779.33	216.17
779.66	215.72
779.98	215.70
780.31	215.63
780.63	215.72
780.95	215.85
781.28	215.78
781.60	215.71
781.92	215.65
782.25	215.67
782.57	215.68
782.89	215.53
783.22	215.41
783.54	215.29
783.86	215.16
784.19	215.05
784.51	215.15
784.83	215.10
785.16	215.10
785.48	215.08
785.80	215.01
786.12	215.03
786.45	214.99
786.77	214.93
787.09	214.89
787.42	214.80
787.74	214.76
788.06	214.77
788.38	214.80
788.71	214.78
789.03	214.73
789.35	214.74
789.67	214.71
789.99	214.62
790.32	214.58
790.64	214.64
790.96	214.98
791.28	214.85
791.61	214.73
791.93	214.72
792.25	214.69
792.57	214.93
792.89	214.74
793.21	214.69
793.54	214.63
793.86	214.49
794.18	214.42
794.50	214.31
794.82	214.32
795.14	214.37
795.47	214.37
795.79	214.32
796.11	214.25
796.43	214.20
796.75	214.24
797.07	214.21
797.39	214.15
797.71	213.83
798.04	213.83
798.36	213.94
798.68	213.89
799.00	213.81
799.32	213.55
799.64	213.67
799.96	213.69
800.28	213.78
800.60	213.76
800.92	213.73
801.24	213.61
801.56	213.59
801.89	213.49
802.21	213.54
802.53	213.48
802.85	213.53
803.17	213.70
803.49	213.68
803.81	213.69
804.13	213.70
804.45	213.60
804.77	213.60
805.09	213.49
805.41	213.45
805.73	213.44
806.05	213.38
806.37	213.36
806.69	213.26
807.01	213.22
807.33	213.20
807.65	213.07
807.97	213.23
808.28	213.23
808.60	213.16
808.92	213.10
809.24	213.27
809.56	213.16
809.88	213.00
810.20	212.99
810.52	213.02
810.84	212.95
811.16	212.92
811.48	212.91
811.80	213.06
812.12	213.02
812.43	213.08
812.75	213.15
813.07	213.03
813.39	213.08
813.71	212.97
814.03	213.02
814.35	213.03
814.67	212.88
814.98	212.79
815.30	212.83
815.62	212.75
815.94	212.48
816.26	212.45
816.58	212.39
816.89	212.39
817.21	212.24
817.53	212.21
817.85	212.18
818.17	212.14
818.48	212.01
818.80	212.09
819.12	212.00
819.44	211.94
819.76	211.97
820.07	211.97
820.39	211.94
820.71	211.96
821.03	211.98
821.34	212.00
821.66	212.09
821.98	212.10
822.30	212.09
822.61	212.29
822.93	212.30
823.25	212.28
823.57	212.20
823.88	212.30
824.20	212.29
824.52	212.42
824.83	212.33
825.15	212.22
825.47	212.14
825.79	212.14
826.10	212.04
826.42	211.94
826.74	211.97
827.05	211.99
827.37	211.96
827.69	211.91
828.00	211.90
828.32	211.83
828.64	211.74
828.95	211.89
829.27	211.81
829.58	211.88
829.90	211.92
830.22	212.00
830.53	211.91
830.85	211.94
831.17	211.79
831.48	211.83
831.80	211.88
832.11	211.88
832.43	211.83
832.75	211.81
833.06	212.01
833.38	211.90
833.69	211.82
834.01	211.82
834.32	211.84
834.64	211.75
834.96	211.76
835.27	211.83
835.59	211.71
835.90	211.66
836.22	211.59
836.53	211.57
836.85	211.50
837.16	211.82
837.48	211.78
837.79	211.88
838.11	211.87
838.42	211.85
838.74	211.89
839.05	211.89
839.37	211.90
839.68	211.71
840.00	211.68
840.31	211.83
840.63	211.83
840.94	211.83
841.26	211.83
841.57	211.81
841.88	211.76
842.20	211.72
842.51	211.73
842.83	211.67
843.14	211.88
843.46	211.86
843.77	211.68
844.08	211.70
844.40	211.60
844.71	211.59
845.03	211.57
845.34	211.57
845.65	211.55
845.97	211.60
846.28	211.58
846.60	211.62
846.91	211.48
847.22	211.43
847.54	211.51
847.85	211.52
848.16	211.41
848.48	211.36
848.79	211.55
849.10	211.55
849.42	211.60
849.73	211.27
850.04	211.26
850.36	211.14
850.67	211.23
850.98	211.25
851.30	211.28
851.61	211.21
851.92	211.16
852.23	211.26
852.55	211.23
852.86	211.24
853.17	211.20
853.49	211.29
853.80	211.39
854.11	211.38
854.42	211.47
854.74	211.56
855.05	211.58
855.36	211.35
855.67	211.35
855.99	211.34
856.30	211.80
856.61	211.80
856.92	211.77
857.23	211.69
857.55	211.59
857.86	211.55
858.17	211.62
858.48	211.60
858.79	211.50
859.11	211.58
859.42	211.56
859.73	211.57
860.04	211.50
860.35	211.44
860.66	211.33
860.98	211.31
861.29	211.30
861.60	211.33
861.91	211.45
862.22	211.39
862.53	211.33
862.84	210.96
863.16	210.99
863.47	211.04
863.78	211.03
864.09	211.09
864.40	211.14
864.71	211.17
865.02	211.24
865.33	211.23
865.64	211.15
865.95	211.14
866.27	211.39
866.58	211.40
866.89	211.41
867.20	211.37
867.51	211.25
867.82	211.20
868.13	211.26
868.44	211.22
868.75	211.28
869.06	211.32
869.37	211.36
869.68	211.30
869.99	211.29
870.30	211.36
870.61	211.44
870.92	211.43
871.23	211.36
871.54	211.35
871.85	211.47
872.16	211.47
872.47	211.44
872.78	211.13
873.09	211.19
873.40	211.12
873.71	211.16
874.02	211.24
874.33	211.25
874.64	211.24
874.95	211.27
875.26	211.32
875.56	211.31
875.87	211.30
876.18	211.24
876.49	211.56
876.80	211.48
877.11	211.40
877.42	211.36
877.73	211.44
878.04	211.41
878.35	211.44
878.66	211.42
878.96	211.51
879.27	211.59
879.58	211.51
879.89	211.47
880.20	211.59
880.51	211.56
880.82	211.56
881.12	211.49
881.43	211.41
881.74	211.29
882.05	211.25
882.36	211.24
882.67	211.32
882.97	210.94
883.28	210.93
883.59	210.91
883.90	210.98
884.21	211.02
884.51	211.05
884.82	210.91
885.13	211.04
885.44	211.01
885.74	211.01
886.05	211.06
886.36	211.14
886.67	211.02
886.98	211.20
887.28	211.24
887.59	211.25
887.90	211.20
888.20	211.24
888.51	211.35
888.82	211.31
889.13	211.40
889.43	211.71
889.74	211.67
890.05	211.68
890.35	211.60
890.66	211.52
890.97	211.53
891.28	211.55
891.58	211.43
891.89	211.39
892.20	211.29
892.50	211.20
892.81	211.14
893.12	211.13
893.42	211.00
893.73	210.98
894.04	211.00
894.34	211.00
894.65	210.97
894.95	210.93
895.26	210.94
895.57	210.99
895.87	210.63
896.18	210.72
896.48	210.72
896.79	210.75
897.10	210.81
897.40	210.78
897.71	210.85
898.01	210.88
898.32	211.00
898.63	211.04
898.93	211.06
899.24	211.13
899.54	211.14
899.85	211.08
900.15	211.12
900.46	211.09
900.76	211.15
901.07	211.22
901.38	211.17
901.68	211.26
901.99	211.12
902.29	211.18
902.60	211.14
902.90	211.10
903.21	211.04
903.51	210.97
903.82	210.95
904.12	210.92
904.43	210.96
904.73	210.91
905.03	210.96
905.34	211.35
905.64	211.32
905.95	211.25
906.25	211.24
906.56	211.24
906.86	211.23
907.17	211.20
907.47	211.12
907.77	211.12
908.08	211.03
908.38	211.03
908.69	211.06
908.99	211.17
909.30	211.24
909.60	211.32
909.90	211.35
910.21	211.31
910.51	211.25
910.81	211.16
911.12	211.16
911.42	211.12
911.73	210.77
912.03	210.77
912.33	210.89
912.64	210.92
912.94	210.90
913.24	210.82
913.55	210.71
913.85	210.78
914.15	210.89
914.46	210.92
914.76	210.94
915.06	210.89
915.37	210.83
915.67	210.83
915.97	210.84
916.27	210.74
916.58	210.73
916.88	210.74
917.18	210.75
917.49	210.98
917.79	210.96
918.09	210.98
918.39	211.10
918.70	211.13
919.00	211.15
919.30	211.24
919.60	211.23
919.91	211.32
920.21	211.29
920.51	211.25
920.81	211.23
921.12	211.31
921.42	211.35
921.72	211.39
922.02	211.40
922.32	211.40
922.63	211.48
922.93	211.62
923.23	211.60
923.53	211.61
923.83	211.41
924.13	211.51
924.44	211.56
924.74	211.56
925.04	211.60
925.34	211.61
925.64	211.48
925.94	211.54
926.24	211.77
926.55	211.71
926.85	211.68
927.15	211.68
927.45	211.70
927.75	211.67
928.05	211.61
928.35	211.56
928.65	211.63
928.95	211.65
929.26	211.55
929.56	211.63
929.86	211.65
930.16	211.51
930.46	211.43
930.76	211.47
931.06	211.37
931.36	211.28
931.66	211.31
931.96	211.44
932.26	211.47
932.56	211.30
932.86	211.31
933.16	211.30
933.46	211.25
933.76	211.13
934.06	211.18
934.36	211.36
934.66	211.29
934.96	211.19
935.26	211.21
935.56	211.23
935.86	211.14
936.16	211.15
936.46	211.20
936.76	211.17
937.06	211.07
937.36	211.09
937.66	211.08
937.96	211.03
938.26	210.89
938.56	210.79
938.86	210.84
939.16	210.93
939.46	210.97
939.76	211.01
940.06	211.02
940.35	210.98
940.65	210.77
940.95	210.88
941.25	210.82
941.55	210.76
941.85	210.73
942.15	210.88
942.45	210.92
942.75	210.97
943.04	211.01
943.34	211.05
943.64	210.91
943.94	210.88
944.24	210.89
944.54	210.95
944.84	210.99
945.13	210.88
945.43	210.80
945.73	210.80
946.03	210.78
946.33	210.75
946.62	210.70
946.92	210.71
947.22	210.76
947.52	210.81
947.82	210.85
948.11	210.88
948.41	210.76
948.71	210.66
949.01	210.65
949.31	210.60
949.60	210.60
949.90	210.65
950.20	210.67
950.50	210.66
950.79	210.68
951.09	210.74
951.39	210.71
951.69	210.67
951.98	210.72
952.28	210.69
952.58	210.71
952.87	210.73
953.17	210.80
953.47	210.75
953.76	210.78
954.06	210.80
954.36	210.75
954.66	210.72
954.95	210.78
955.25	210.82
955.55	210.93
955.84	210.95
956.14	211.01
956.44	211.04
956.73	211.02
957.03	211.02
957.32	211.03
957.62	211.01
957.92	211.11
958.21	211.08
958.51	211.50
958.81	211.55
959.10	211.57
959.40	211.61
959.69	211.56
959.99	211.59
960.29	211.55
960.58	211.49
960.88	211.65
961.17	211.75
961.47	211.75
961.76	211.61
962.06	211.62
962.36	211.66
962.65	211.65
962.95	211.65
963.24	211.56
963.54	211.57
963.83	211.65
964.13	211.74
964.42	211.64
964.72	211.35
965.01	211.34
965.31	211.34
965.60	211.22
965.90	211.44
966.19	211.32
966.49	211.31
966.78	211.38
967.08	211.29
967.37	211.19
967.67	211.15
967.96	211.24
968.26	211.17
968.55	211.15
968.85	211.12
969.14	211.10
969.43	211.14
969.73	211.09
970.02	211.09
970.32	210.97
970.61	211.02
970.91	210.95
971.20	210.85
971.49	210.82
971.79	210.88
972.08	210.65
972.38	210.67
972.67	210.68
972.96	210.72
973.26	210.70
973.55	210.79
973.85	210.74
974.14	210.73
974.43	210.80
974.73	210.75
975.02	210.69
975.31	210.68
975.61	210.63
975.90	210.62
976.19	210.62
976.49	210.68
976.78	210.66
977.07	210.63
977.37	210.73
977.66	210.77
977.95	210.71
978.24	210.82
978.54	210.96
978.83	210.93
979.12	210.90
979.42	210.90
979.71	210.84
980.00	210.84
980.29	210.88
980.59	210.81
980.88	210.89
981.17	210.95
981.46	210.95
981.76	211.01
982.05	211.07
982.34	211.04
982.63	211.03
982.93	211.11
983.22	211.25
983.51	211.30
983.80	211.31
984.09	211.36
984.39	211.29
984.68	211.27
984.97	211.35
985.26	211.30
985.55	211.34
985.85	211.29
986.14	211.35
986.43	211.34
986.72	211.35
987.01	211.20
987.30	211.21
987.59	211.20
987.89	211.20
988.18	211.16
988.47	211.10
988.76	211.09
989.05	211.03
989.34	210.92
989.63	210.94
989.92	210.84
990.22	210.77
990.51	210.75
990.80	210.62
991.09	210.58
991.38	210.60
991.67	210.55
991.96	210.55
992.25	210.55
992.54	210.47
992.83	210.43
993.12	210.44
993.41	210.48
993.70	210.67
993.99	210.67
994.28	210.70
994.58	210.79
994.87	210.75
995.16	210.70
995.45	210.65
995.74	210.52
996.03	210.58
996.32	210.59
996.61	210.63
996.90	210.69
997.19	210.63
997.48	210.72
997.77	210.64
998.06	210.62
998.34	210.61
998.63	210.57
998.92	210.63
999.21	210.69
999.50	210.64
999.79	210.52
1000.08	210.52
1000.37	210.50
1000.66	210.50
1000.95	210.55
1001.24	210.63
1001.53	210.72
1001.82	210.69
1002.11	210.64
1002.40	210.77
1002.68	210.84
1002.97	211.09
1003.26	211.07
1003.55	210.94
1003.84	210.99
1004.13	211.11
1004.42	211.10
1004.71	211.17
1004.99	211.16
1005.28	211.24
1005.57	211.26
1005.86	211.18
1006.15	211.18
1006.44	211.13
1006.72	211.18
1007.01	211.08
1007.30	211.02
1007.59	210.95
1007.88	210.98
1008.17	211.01
1008.45	210.93
1008.74	210.80
1009.03	210.63
1009.32	210.67
1009.60	210.69
1009.89	210.73
1010.18	210.60
1010.47	210.57
1010.76	210.56
1011.04	210.56
1011.33	210.55
1011.62	210.54
1011.91	210.55
1012.19	210.55
1012.48	210.57
1012.77	210.56
1013.05	210.77
1013.34	210.80
1013.63	210.78
1013.92	210.77
1014.20	210.75
1014.49	210.79
1014.78	210.86
1015.06	210.73
1015.35	210.70
1015.64	210.75
1015.92	210.79
1016.21	210.90
1016.50	210.90
1016.78	210.91
1017.07	210.92
1017.36	210.87
1017.64	210.81
1017.93	210.91
1018.22	210.89
1018.50	210.86
1018.79	210.77
1019.08	210.67
1019.36	210.71
1019.65	210.68
1019.93	210.82
1020.22	210.92
1020.51	211.05
1020.79	211.05
1021.08	210.45
1021.36	209.25
1021.65	210.10
1021.94	211.90
1022.22	211.75
1022.51	209.55
1022.79	212.70
1023.08	211.90
1023.36	214.95
1023.65	210.95
>>>>>End Processed Spectral Data<<<<<
