SpectraSuite Data File
++++++++++++++++++++++++++++++++++++
Date: Mon Feb 25 17:11:50 EST 2013
User: group
Dark Spectrum Present: No
Reference Spectrum Present: No
Number of Sampled Component Spectra: 1
Spectrometers: USB2E7196
Integration Time (usec): 104000 (USB2E7196)
Spectra Averaged: 20 (USB2E7196)
Boxcar Smoothing: 10 (USB2E7196)
Correct for Electrical Dark: No (USB2E7196)
Strobe/Lamp Enabled: No (USB2E7196)
Correct for Detector Non-linearity: No (USB2E7196)
Correct for Stray Light: No (USB2E7196)
Number of Pixels in Processed Spectrum: 2048
>>>>>Begin Processed Spectral Data<<<<<
339.09	0.00
339.48	199.55
339.86	199.65
340.24	200.35
340.63	203.45
341.01	209.05
341.39	204.75
341.78	207.20
342.16	208.60
342.54	209.45
342.93	198.07
343.31	208.07
343.69	208.61
344.07	209.06
344.46	209.55
344.84	209.90
345.22	210.00
345.60	210.30
345.99	210.43
346.37	210.55
346.75	210.54
347.13	210.59
347.52	210.57
347.90	210.75
348.28	210.80
348.66	210.86
349.05	210.77
349.43	210.82
349.81	210.84
350.19	210.83
350.57	210.85
350.96	210.84
351.34	210.87
351.72	210.87
352.10	210.97
352.48	211.00
352.87	210.97
353.25	210.95
353.63	210.96
354.01	211.02
354.39	211.16
354.77	211.26
355.15	211.45
355.54	211.48
355.92	211.32
356.30	211.35
356.68	211.63
357.06	211.69
357.44	211.70
357.82	211.72
358.20	211.85
358.58	211.95
358.97	212.05
359.35	212.22
359.73	212.40
360.11	212.45
360.49	212.55
360.87	212.61
361.25	212.77
361.63	212.94
362.01	212.94
362.39	212.96
362.77	213.09
363.15	213.07
363.53	213.16
363.91	213.33
364.29	213.40
364.67	213.11
365.05	213.17
365.43	213.35
365.81	213.51
366.19	213.69
366.57	213.85
366.95	213.88
367.33	213.84
367.71	213.77
368.09	213.85
368.47	213.81
368.85	213.89
369.23	213.95
369.61	213.82
369.99	214.03
370.37	213.99
370.75	214.08
371.13	213.99
371.51	213.91
371.89	213.89
372.27	213.91
372.65	213.97
373.03	213.95
373.41	213.84
373.78	213.78
374.16	213.55
374.54	213.41
374.92	213.25
375.30	213.17
375.68	213.08
376.06	213.09
376.44	213.10
376.82	213.06
377.19	213.00
377.57	212.99
377.95	212.84
378.33	212.75
378.71	212.56
379.09	212.63
379.47	212.70
379.84	212.57
380.22	212.45
380.60	212.30
380.98	212.25
381.36	212.12
381.73	212.02
382.11	212.09
382.49	212.04
382.87	212.06
383.25	212.03
383.62	212.46
384.00	212.30
384.38	212.27
384.76	212.28
385.13	212.39
385.51	212.35
385.89	212.33
386.27	212.32
386.64	212.31
387.02	212.24
387.40	212.09
387.78	212.10
388.15	212.14
388.53	212.09
388.91	212.13
389.29	212.16
389.66	212.18
390.04	212.07
390.42	212.10
390.79	212.10
391.17	212.05
391.55	211.64
391.92	211.62
392.30	211.57
392.68	211.41
393.05	211.26
393.43	211.21
393.81	211.13
394.18	211.10
394.56	211.00
394.94	211.09
395.31	211.11
395.69	211.16
396.06	211.16
396.44	211.22
396.82	211.14
397.19	211.23
397.57	211.19
397.95	211.24
398.32	211.13
398.70	211.15
399.07	211.23
399.45	211.19
399.82	211.22
400.20	211.21
400.58	211.27
400.95	211.13
401.33	211.28
401.70	211.56
402.08	211.57
402.45	211.55
402.83	211.58
403.20	211.59
403.58	211.60
403.95	211.63
404.33	211.71
404.71	211.78
405.08	212.00
405.46	212.06
405.83	212.08
406.21	212.17
406.58	212.30
406.96	212.39
407.33	212.52
407.70	212.68
408.08	213.11
408.45	213.30
408.83	213.60
409.20	213.71
409.58	213.64
409.95	213.96
410.33	214.24
410.70	214.32
411.08	214.62
411.45	214.90
411.82	215.14
412.20	215.47
412.57	215.94
412.95	215.99
413.32	216.36
413.69	216.70
414.07	217.18
414.44	217.55
414.82	217.99
415.19	218.53
415.56	219.01
415.94	219.42
416.31	220.10
416.68	220.74
417.06	221.42
417.43	222.18
417.81	222.81
418.18	223.64
418.55	224.45
418.93	225.39
419.30	226.27
419.67	227.34
420.04	228.28
420.42	229.31
420.79	230.82
421.16	232.10
421.54	233.65
421.91	234.94
422.28	236.32
422.66	237.79
423.03	239.41
423.40	240.88
423.77	242.40
424.15	243.88
424.52	245.46
424.89	247.35
425.26	248.96
425.64	250.74
426.01	252.47
426.38	254.43
426.75	256.35
427.13	258.42
427.50	260.51
427.87	262.70
428.24	264.77
428.61	266.61
428.99	269.06
429.36	271.35
429.73	273.77
430.10	276.19
430.47	278.70
430.85	281.12
431.22	283.87
431.59	286.98
431.96	289.81
432.33	292.96
432.70	295.93
433.08	299.53
433.45	302.76
433.82	306.10
434.19	309.72
434.56	313.38
434.93	316.73
435.30	320.10
435.68	323.94
436.05	327.70
436.42	331.39
436.79	334.68
437.16	338.38
437.53	342.23
437.90	346.09
438.27	349.85
438.64	353.64
439.01	357.28
439.38	360.19
439.75	363.28
440.13	366.86
440.50	370.17
440.87	372.95
441.24	375.83
441.61	379.10
441.98	381.47
442.35	383.98
442.72	386.76
443.09	389.54
443.46	391.05
443.83	392.21
444.20	393.18
444.57	394.48
444.94	395.16
445.31	395.92
445.68	396.96
446.05	397.19
446.42	396.86
446.79	396.50
447.16	396.16
447.53	395.90
447.90	394.40
448.27	393.04
448.64	390.96
449.01	389.40
449.37	386.80
449.74	384.36
450.11	381.76
450.48	378.43
450.85	374.97
451.22	372.20
451.59	369.47
451.96	366.99
452.33	363.66
452.70	360.47
453.07	356.66
453.43	352.53
453.80	349.00
454.17	345.62
454.54	342.32
454.91	338.81
455.28	335.35
455.65	332.19
456.02	329.42
456.38	326.74
456.75	323.50
457.12	320.70
457.49	317.95
457.86	315.02
458.23	312.90
458.59	310.42
458.96	307.90
459.33	305.66
459.70	303.28
460.07	301.42
460.43	299.38
460.80	297.50
461.17	295.88
461.54	294.08
461.91	292.37
462.27	290.57
462.64	289.07
463.01	287.52
463.38	286.10
463.74	284.01
464.11	282.60
464.48	281.38
464.85	280.00
465.21	279.01
465.58	278.03
465.95	276.63
466.32	275.63
466.68	274.57
467.05	273.44
467.42	272.45
467.78	271.38
468.15	270.32
468.52	269.58
468.88	268.50
469.25	267.66
469.62	266.96
469.98	266.25
470.35	265.57
470.72	264.81
471.08	263.90
471.45	263.36
471.82	262.95
472.18	262.26
472.55	261.89
472.92	261.24
473.28	260.68
473.65	260.25
474.02	259.73
474.38	259.40
474.75	259.09
475.11	258.75
475.48	258.48
475.85	258.25
476.21	258.02
476.58	257.86
476.94	257.66
477.31	257.54
477.67	257.39
478.04	257.23
478.41	257.25
478.77	257.57
479.14	257.52
479.50	257.46
479.87	257.66
480.23	257.66
480.60	257.73
480.96	257.84
481.33	258.08
481.69	258.26
482.06	258.39
482.42	258.67
482.79	258.93
483.15	259.20
483.52	259.70
483.88	260.02
484.25	260.34
484.61	260.79
484.98	261.24
485.34	261.81
485.71	262.45
486.07	263.06
486.44	263.45
486.80	264.15
487.17	264.90
487.53	265.76
487.90	266.72
488.26	267.93
488.62	268.97
488.99	269.93
489.35	271.10
489.72	272.28
490.08	273.47
490.44	274.70
490.81	276.20
491.17	277.45
491.54	278.95
491.90	280.51
492.26	282.20
492.63	283.86
492.99	285.61
493.36	287.42
493.72	289.35
494.08	291.40
494.45	293.64
494.81	295.84
495.17	298.05
495.54	300.45
495.90	302.71
496.26	305.21
496.63	307.92
496.99	310.62
497.35	313.56
497.72	316.59
498.08	319.74
498.44	322.77
498.80	326.24
499.17	329.71
499.53	333.36
499.89	336.96
500.26	340.79
500.62	344.66
500.98	348.81
501.34	353.02
501.71	357.35
502.07	361.62
502.43	366.06
502.79	370.62
503.16	375.41
503.52	380.43
503.88	385.44
504.24	390.59
504.60	395.99
504.97	401.56
505.33	407.06
505.69	413.02
506.05	419.13
506.41	425.19
506.78	431.35
507.14	437.53
507.50	444.00
507.86	450.58
508.22	457.40
508.59	464.06
508.95	470.97
509.31	478.14
509.67	485.48
510.03	492.98
510.39	500.63
510.75	508.26
511.12	515.87
511.48	523.84
511.84	531.95
512.20	539.96
512.56	548.22
512.92	556.71
513.28	564.89
513.64	573.28
514.00	581.93
514.37	590.43
514.73	599.35
515.09	608.25
515.45	617.14
515.81	625.99
516.17	635.28
516.53	644.45
516.89	653.56
517.25	662.81
517.61	672.17
517.97	681.53
518.33	691.00
518.69	700.54
519.05	710.07
519.41	719.68
519.77	729.76
520.13	739.38
520.49	748.99
520.85	758.92
521.21	769.00
521.57	778.77
521.93	788.65
522.29	798.76
522.65	808.64
523.01	818.69
523.37	828.45
523.73	838.30
524.09	848.39
524.45	858.44
524.81	868.58
525.17	878.70
525.53	888.90
525.89	898.94
526.25	908.91
526.61	918.64
526.97	928.55
527.33	938.26
527.68	948.57
528.04	958.25
528.40	967.80
528.76	977.08
529.12	986.79
529.48	996.80
529.84	1006.42
530.20	1016.01
530.56	1025.57
530.91	1035.62
531.27	1045.40
531.63	1054.79
531.99	1064.37
532.35	1073.28
532.71	1082.34
533.07	1091.55
533.42	1100.75
533.78	1109.85
534.14	1118.97
534.50	1127.28
534.86	1135.95
535.21	1143.76
535.57	1152.76
535.93	1161.08
536.29	1169.43
536.65	1177.76
537.00	1185.61
537.36	1193.06
537.72	1200.48
538.08	1207.80
538.44	1215.19
538.79	1222.57
539.15	1229.65
539.51	1236.54
539.87	1244.11
540.22	1251.07
540.58	1258.07
540.94	1264.57
541.29	1270.77
541.65	1276.59
542.01	1282.95
542.37	1289.10
542.72	1295.33
543.08	1300.50
543.44	1306.60
543.79	1311.84
544.15	1316.92
544.51	1322.14
544.87	1327.85
545.22	1332.88
545.58	1337.90
545.94	1342.08
546.29	1345.75
546.65	1349.73
547.01	1353.50
547.36	1357.24
547.72	1360.93
548.07	1363.92
548.43	1366.97
548.79	1370.17
549.14	1373.21
549.50	1376.00
549.86	1377.90
550.21	1380.08
550.57	1382.68
550.92	1384.25
551.28	1386.14
551.64	1387.99
551.99	1389.97
552.35	1391.12
552.70	1392.73
553.06	1394.04
553.41	1395.64
553.77	1397.38
554.13	1398.63
554.48	1400.04
554.84	1401.25
555.19	1401.98
555.55	1402.55
555.90	1402.90
556.26	1403.07
556.61	1403.31
556.97	1403.39
557.32	1404.06
557.68	1403.83
558.03	1403.55
558.39	1403.68
558.74	1404.23
559.10	1404.15
559.45	1403.93
559.81	1404.10
560.16	1403.48
560.52	1403.39
560.87	1403.04
561.23	1402.09
561.58	1401.95
561.94	1400.93
562.29	1399.43
562.64	1398.63
563.00	1397.99
563.35	1397.60
563.71	1397.52
564.06	1397.35
564.42	1397.08
564.77	1396.50
565.12	1396.04
565.48	1395.68
565.83	1395.00
566.19	1394.13
566.54	1392.76
566.89	1391.32
567.25	1390.00
567.60	1389.10
567.96	1387.61
568.31	1386.15
568.66	1384.70
569.02	1382.65
569.37	1380.72
569.72	1378.93
570.08	1376.80
570.43	1374.61
570.78	1372.25
571.14	1369.41
571.49	1366.79
571.84	1364.40
572.20	1361.38
572.55	1358.91
572.90	1355.59
573.26	1352.60
573.61	1349.36
573.96	1346.47
574.31	1342.99
574.67	1339.31
575.02	1335.58
575.37	1332.00
575.72	1328.23
576.08	1325.17
576.43	1321.55
576.78	1318.17
577.13	1315.20
577.49	1311.91
577.84	1308.69
578.19	1305.35
578.54	1302.45
578.90	1299.53
579.25	1295.86
579.60	1292.02
579.95	1288.18
580.30	1285.05
580.66	1281.75
581.01	1278.03
581.36	1274.29
581.71	1271.07
582.06	1267.75
582.42	1264.56
582.77	1260.68
583.12	1257.03
583.47	1253.31
583.82	1250.06
584.17	1246.61
584.53	1243.01
584.88	1239.58
585.23	1235.75
585.58	1232.28
585.93	1228.27
586.28	1224.50
586.63	1220.88
586.98	1217.89
587.34	1214.66
587.69	1211.07
588.04	1207.49
588.39	1204.42
588.74	1200.84
589.09	1197.49
589.44	1193.58
589.79	1190.07
590.14	1186.88
590.49	1183.46
590.84	1179.97
591.19	1176.64
591.54	1173.26
591.89	1169.04
592.25	1165.39
592.60	1161.56
592.95	1157.50
593.30	1153.71
593.65	1149.40
594.00	1145.48
594.35	1142.65
594.70	1138.92
595.05	1135.33
595.40	1131.41
595.75	1127.04
596.10	1123.30
596.45	1119.63
596.80	1116.52
597.15	1113.02
597.50	1109.26
597.85	1105.95
598.19	1102.17
598.54	1098.54
598.89	1095.06
599.24	1092.26
599.59	1088.96
599.94	1086.21
600.29	1083.08
600.64	1079.81
600.99	1076.50
601.34	1073.48
601.69	1069.13
602.04	1065.55
602.39	1062.02
602.74	1058.87
603.08	1056.29
603.43	1053.93
603.78	1050.49
604.13	1047.17
604.48	1044.01
604.83	1041.45
605.18	1038.52
605.53	1035.34
605.87	1031.93
606.22	1028.81
606.57	1025.30
606.92	1021.82
607.27	1017.92
607.62	1014.67
607.96	1011.61
608.31	1008.72
608.66	1005.14
609.01	1001.59
609.36	998.05
609.70	994.35
610.05	990.51
610.40	986.76
610.75	982.55
611.10	979.21
611.44	974.97
611.79	970.73
612.14	966.08
612.49	961.54
612.83	957.53
613.18	953.23
613.53	948.96
613.88	944.51
614.22	940.56
614.57	936.42
614.92	932.09
615.27	927.70
615.61	923.42
615.96	919.24
616.31	915.35
616.65	911.84
617.00	907.93
617.35	903.85
617.70	899.46
618.04	894.98
618.39	890.35
618.74	886.49
619.08	882.35
619.43	878.52
619.78	874.60
620.12	870.55
620.47	866.78
620.82	862.38
621.16	858.18
621.51	853.84
621.85	850.00
622.20	845.89
622.55	841.52
622.89	837.31
623.24	833.18
623.59	829.02
623.93	824.42
624.28	820.57
624.62	816.84
624.97	812.99
625.32	809.41
625.66	805.63
626.01	801.72
626.35	798.12
626.70	794.09
627.04	790.45
627.39	786.67
627.73	782.99
628.08	779.64
628.43	775.89
628.77	772.20
629.12	768.35
629.46	765.12
629.81	761.67
630.15	758.01
630.50	754.43
630.84	750.73
631.19	747.42
631.53	743.68
631.88	739.54
632.22	735.50
632.57	731.99
632.91	728.41
633.26	724.66
633.60	720.92
633.95	717.79
634.29	714.08
634.64	710.77
634.98	706.96
635.32	703.58
635.67	700.62
636.01	697.07
636.36	693.58
636.70	690.07
637.05	686.75
637.39	683.48
637.73	680.51
638.08	677.55
638.42	674.40
638.77	671.30
639.11	668.23
639.45	665.03
639.80	661.50
640.14	658.14
640.49	655.10
640.83	651.85
641.17	648.36
641.52	645.08
641.86	641.66
642.20	638.60
642.55	634.86
642.89	631.22
643.23	628.05
643.58	625.06
643.92	621.48
644.26	618.27
644.61	614.85
644.95	611.32
645.29	608.01
645.64	604.54
645.98	601.26
646.32	598.15
646.66	594.95
647.01	591.80
647.35	588.81
647.69	585.22
648.04	582.12
648.38	578.96
648.72	575.86
649.06	572.60
649.41	569.32
649.75	566.32
650.09	563.41
650.43	560.35
650.78	556.97
651.12	553.81
651.46	550.75
651.80	547.90
652.14	544.87
652.49	541.74
652.83	538.48
653.17	535.28
653.51	532.23
653.85	529.48
654.20	526.48
654.54	523.26
654.88	520.50
655.22	517.57
655.56	514.59
655.90	511.54
656.25	508.68
656.59	505.90
656.93	503.10
657.27	500.31
657.61	497.33
657.95	494.76
658.29	492.14
658.64	489.37
658.98	486.61
659.32	483.77
659.66	480.99
660.00	478.32
660.34	475.47
660.68	472.63
661.02	469.83
661.36	467.31
661.70	464.89
662.05	462.43
662.39	459.99
662.73	457.70
663.07	455.47
663.41	453.11
663.75	450.67
664.09	448.22
664.43	445.66
664.77	443.33
665.11	440.92
665.45	438.55
665.79	436.29
666.13	433.99
666.47	431.71
666.81	429.52
667.15	427.35
667.49	425.42
667.83	423.50
668.17	421.44
668.51	419.45
668.85	417.44
669.19	415.61
669.53	413.51
669.87	411.29
670.21	409.20
670.55	407.10
670.89	405.30
671.23	403.45
671.57	401.60
671.91	399.80
672.25	397.90
672.58	396.20
672.92	394.41
673.26	392.62
673.60	390.99
673.94	389.20
674.28	387.52
674.62	385.86
674.96	384.16
675.30	382.53
675.64	380.80
675.97	378.99
676.31	377.27
676.65	375.64
676.99	374.29
677.33	372.63
677.67	371.09
678.01	369.30
678.34	367.85
678.68	366.35
679.02	364.70
679.36	363.29
679.70	361.68
680.04	360.12
680.37	358.53
680.71	356.96
681.05	355.52
681.39	354.05
681.73	352.45
682.06	351.05
682.40	349.63
682.74	348.25
683.08	347.06
683.42	345.60
683.75	344.33
684.09	342.80
684.43	341.43
684.77	339.97
685.10	338.75
685.44	337.21
685.78	335.85
686.12	334.68
686.45	333.25
686.79	331.93
687.13	330.71
687.46	329.56
687.80	328.37
688.14	327.08
688.48	325.94
688.81	324.79
689.15	323.55
689.49	322.22
689.82	320.90
690.16	319.42
690.50	318.15
690.83	316.88
691.17	315.65
691.51	314.40
691.84	313.36
692.18	312.14
692.52	311.05
692.85	310.01
693.19	308.99
693.52	307.91
693.86	306.77
694.20	305.63
694.53	304.55
694.87	303.41
695.21	302.30
695.54	301.17
695.88	299.90
696.21	298.77
696.55	297.82
696.88	296.80
697.22	295.80
697.56	294.94
697.89	293.95
698.23	293.02
698.56	292.09
698.90	291.24
699.23	290.27
699.57	289.40
699.90	288.39
700.24	287.34
700.58	286.48
700.91	285.77
701.25	285.17
701.58	284.37
701.92	283.60
702.25	282.82
702.59	281.95
702.92	281.21
703.26	280.44
703.59	279.63
703.93	279.13
704.26	278.56
704.60	277.71
704.93	276.95
705.26	276.17
705.60	275.48
705.93	274.66
706.27	274.08
706.60	273.43
706.94	272.99
707.27	272.31
707.61	271.57
707.94	270.77
708.27	269.91
708.61	269.11
708.94	268.40
709.28	267.75
709.61	267.10
709.94	266.62
710.28	266.04
710.61	265.51
710.95	264.61
711.28	264.18
711.61	263.55
711.95	263.01
712.28	262.45
712.61	261.87
712.95	261.53
713.28	261.04
713.61	260.42
713.95	259.61
714.28	259.03
714.61	258.54
714.95	258.04
715.28	257.34
715.61	256.85
715.95	256.40
716.28	255.89
716.61	255.43
716.95	254.84
717.28	254.38
717.61	253.89
717.94	253.51
718.28	252.73
718.61	252.33
718.94	251.73
719.27	251.26
719.61	250.81
719.94	250.23
720.27	249.64
720.60	249.27
720.94	248.85
721.27	248.50
721.60	248.02
721.93	247.61
722.27	247.33
722.60	246.97
722.93	246.56
723.26	246.11
723.59	245.66
723.93	245.33
724.26	244.92
724.59	244.52
724.92	244.17
725.25	244.03
725.59	243.62
725.92	243.42
726.25	243.10
726.58	242.80
726.91	242.45
727.24	242.17
727.57	241.78
727.91	241.46
728.24	241.15
728.57	240.86
728.90	240.57
729.23	240.20
729.56	240.08
729.89	239.82
730.22	239.60
730.55	239.34
730.89	239.06
731.22	238.73
731.55	238.49
731.88	238.18
732.21	237.84
732.54	237.54
732.87	237.27
733.20	237.01
733.53	236.71
733.86	236.43
734.19	236.12
734.52	236.01
734.85	236.06
735.18	235.77
735.51	235.66
735.84	235.50
736.17	235.34
736.50	234.95
736.83	235.06
737.16	234.79
737.49	234.55
737.82	234.30
738.15	234.07
738.48	233.82
738.81	233.60
739.14	233.29
739.47	233.13
739.80	232.89
740.13	232.61
740.46	232.37
740.79	232.16
741.12	231.97
741.45	231.59
741.78	231.14
742.11	231.04
742.44	230.71
742.77	230.52
743.10	230.26
743.43	229.98
743.75	229.37
744.08	229.64
744.41	229.39
744.74	229.20
745.07	229.00
745.40	228.81
745.73	228.74
746.06	228.51
746.39	228.33
746.71	228.15
747.04	227.98
747.37	227.80
747.70	227.67
748.03	227.53
748.36	227.50
748.68	227.33
749.01	227.02
749.34	226.90
749.67	226.77
750.00	226.73
750.33	226.87
750.65	226.81
750.98	226.25
751.31	226.14
751.64	225.99
751.97	226.06
752.29	225.85
752.62	225.50
752.95	225.38
753.28	225.16
753.60	225.00
753.93	224.99
754.26	224.90
754.59	224.64
754.91	224.38
755.24	224.17
755.57	224.05
755.90	223.93
756.22	223.71
756.55	223.43
756.88	223.24
757.20	222.86
757.53	222.56
757.86	222.42
758.19	222.36
758.51	222.19
758.84	221.95
759.17	221.82
759.49	221.73
759.82	221.76
760.15	221.69
760.47	221.62
760.80	221.37
761.13	221.28
761.45	221.29
761.78	221.29
762.11	221.23
762.43	221.06
762.76	220.91
763.08	220.83
763.41	220.71
763.74	220.57
764.06	220.45
764.39	220.41
764.71	220.28
765.04	220.13
765.37	220.03
765.69	219.82
766.02	219.76
766.34	219.74
766.67	219.50
767.00	219.49
767.32	219.48
767.65	219.60
767.97	219.48
768.30	219.27
768.62	219.11
768.95	218.91
769.27	218.85
769.60	218.89
769.92	218.79
770.25	218.70
770.57	218.58
770.90	218.46
771.22	218.32
771.55	218.26
771.87	218.17
772.20	218.10
772.52	218.37
772.85	218.67
773.17	218.56
773.50	218.49
773.82	218.42
774.15	218.18
774.47	217.88
774.80	217.76
775.12	217.70
775.45	217.62
775.77	217.65
776.09	217.64
776.42	217.57
776.74	217.57
777.07	217.48
777.39	217.42
777.72	217.31
778.04	217.26
778.36	217.20
778.69	217.14
779.01	217.07
779.33	216.71
779.66	216.23
779.98	216.16
780.31	216.11
780.63	216.09
780.95	216.14
781.28	216.10
781.60	216.05
781.92	215.97
782.25	215.90
782.57	215.82
782.89	215.74
783.22	215.53
783.54	215.48
783.86	215.50
784.19	215.44
784.51	215.60
784.83	215.51
785.16	215.38
785.48	215.36
785.80	215.41
786.12	215.36
786.45	215.38
786.77	215.33
787.09	215.27
787.42	215.20
787.74	215.17
788.06	215.12
788.38	215.00
788.71	215.04
789.03	215.11
789.35	215.06
789.67	214.95
789.99	215.02
790.32	214.93
790.64	214.93
790.96	215.21
791.28	215.04
791.61	215.07
791.93	215.11
792.25	215.04
792.57	215.15
792.89	215.08
793.21	215.02
793.54	214.99
793.86	214.97
794.18	214.89
794.50	214.77
794.82	214.76
795.14	214.85
795.47	214.84
795.79	214.70
796.11	214.64
796.43	214.60
796.75	214.66
797.07	214.62
797.39	214.55
797.71	214.15
798.04	214.10
798.36	214.10
798.68	214.10
799.00	214.16
799.32	213.98
799.64	214.01
799.96	213.97
800.28	214.04
800.60	214.04
800.92	214.03
801.24	213.97
801.56	213.93
801.89	213.91
802.21	213.98
802.53	214.00
802.85	214.10
803.17	214.30
803.49	214.13
803.81	214.13
804.13	214.12
804.45	214.23
804.77	214.24
805.09	214.23
805.41	214.15
805.73	214.07
806.05	214.04
806.37	214.00
806.69	214.04
807.01	213.92
807.33	213.90
807.65	213.81
807.97	213.97
808.28	213.93
808.60	213.90
808.92	213.82
809.24	214.03
809.56	213.90
809.88	213.73
810.20	213.78
810.52	213.89
810.84	213.86
811.16	213.72
811.48	213.67
811.80	213.70
812.12	213.73
812.43	213.74
812.75	213.75
813.07	213.71
813.39	213.71
813.71	213.64
814.03	213.57
814.35	213.60
814.67	213.43
814.98	213.42
815.30	213.43
815.62	213.25
815.94	213.00
816.26	212.98
816.58	212.92
816.89	212.91
817.21	212.77
817.53	212.75
817.85	212.78
818.17	212.78
818.48	212.65
818.80	212.69
819.12	212.66
819.44	212.57
819.76	212.49
820.07	212.45
820.39	212.54
820.71	212.56
821.03	212.52
821.34	212.55
821.66	212.57
821.98	212.57
822.30	212.59
822.61	212.73
822.93	212.67
823.25	212.69
823.57	212.65
823.88	212.71
824.20	212.63
824.52	212.72
824.83	212.68
825.15	212.75
825.47	212.71
825.79	212.73
826.10	212.69
826.42	212.65
826.74	212.69
827.05	212.64
827.37	212.61
827.69	212.58
828.00	212.55
828.32	212.54
828.64	212.48
828.95	212.68
829.27	212.64
829.58	212.71
829.90	212.76
830.22	212.75
830.53	212.69
830.85	212.68
831.17	212.56
831.48	212.62
831.80	212.56
832.11	212.49
832.43	212.38
832.75	212.39
833.06	212.62
833.38	212.49
833.69	212.40
834.01	212.41
834.32	212.40
834.64	212.35
834.96	212.36
835.27	212.29
835.59	212.17
835.90	212.06
836.22	211.98
836.53	211.82
836.85	211.71
837.16	212.04
837.48	212.08
837.79	212.16
838.11	212.20
838.42	212.19
838.74	212.26
839.05	212.32
839.37	212.33
839.68	212.11
840.00	212.13
840.31	212.22
840.63	212.16
840.94	212.17
841.26	212.13
841.57	212.12
841.88	212.22
842.20	212.16
842.51	212.08
842.83	212.12
843.14	212.48
843.46	212.62
843.77	212.37
844.08	212.35
844.40	212.27
844.71	212.17
845.03	212.11
845.34	212.07
845.65	211.98
845.97	211.93
846.28	211.92
846.60	212.01
846.91	211.99
847.22	211.98
847.54	211.97
847.85	212.02
848.16	211.96
848.48	211.89
848.79	212.02
849.10	212.05
849.42	212.07
849.73	211.75
850.04	211.66
850.36	211.54
850.67	211.59
850.98	211.64
851.30	211.67
851.61	211.67
851.92	211.66
852.23	211.75
852.55	211.79
852.86	211.85
853.17	211.77
853.49	211.81
853.80	211.94
854.11	211.92
854.42	211.89
854.74	211.83
855.05	211.81
855.36	211.65
855.67	211.74
855.99	211.69
856.30	212.09
856.61	212.12
856.92	212.13
857.23	212.04
857.55	211.97
857.86	211.99
858.17	212.09
858.48	212.02
858.79	211.95
859.11	211.95
859.42	211.90
859.73	211.82
860.04	211.73
860.35	211.60
860.66	211.51
860.98	211.52
861.29	211.60
861.60	211.62
861.91	211.74
862.22	211.65
862.53	211.56
862.84	211.13
863.16	211.15
863.47	211.08
863.78	211.13
864.09	211.13
864.40	211.10
864.71	211.03
865.02	211.08
865.33	211.06
865.64	210.97
865.95	211.04
866.27	211.30
866.58	211.29
866.89	211.35
867.20	211.35
867.51	211.34
867.82	211.31
868.13	211.37
868.44	211.24
868.75	211.28
869.06	211.31
869.37	211.43
869.68	211.28
869.99	211.41
870.30	211.36
870.61	211.40
870.92	211.30
871.23	211.24
871.54	211.24
871.85	211.29
872.16	211.40
872.47	211.34
872.78	211.13
873.09	211.25
873.40	211.14
873.71	211.17
874.02	211.21
874.33	211.21
874.64	211.12
874.95	211.13
875.26	211.05
875.56	211.10
875.87	210.95
876.18	210.95
876.49	211.22
876.80	211.26
877.11	211.17
877.42	211.21
877.73	211.25
878.04	211.22
878.35	211.25
878.66	211.19
878.96	211.20
879.27	211.13
879.58	211.05
879.89	211.07
880.20	211.18
880.51	211.08
880.82	211.06
881.12	211.10
881.43	211.12
881.74	211.08
882.05	211.10
882.36	211.15
882.67	211.21
882.97	210.78
883.28	210.69
883.59	210.65
883.90	210.67
884.21	210.79
884.51	210.81
884.82	210.79
885.13	210.79
885.44	210.72
885.74	210.81
886.05	210.77
886.36	210.73
886.67	210.65
886.98	210.83
887.28	210.86
887.59	210.84
887.90	210.89
888.20	210.90
888.51	210.95
888.82	210.88
889.13	210.93
889.43	211.30
889.74	211.29
890.05	211.30
890.35	211.35
890.66	211.28
890.97	211.16
891.28	211.09
891.58	211.11
891.89	211.08
892.20	211.07
892.50	211.08
892.81	211.11
893.12	211.14
893.42	210.96
893.73	211.01
894.04	211.09
894.34	211.05
894.65	211.07
894.95	211.00
895.26	211.07
895.57	211.18
895.87	210.88
896.18	211.02
896.48	211.12
896.79	211.02
897.10	211.09
897.40	211.18
897.71	211.22
898.01	211.16
898.32	211.22
898.63	211.14
898.93	211.13
899.24	211.20
899.54	211.12
899.85	211.18
900.15	211.06
900.46	211.01
900.76	211.12
901.07	211.09
901.38	211.09
901.68	211.16
901.99	211.06
902.29	211.00
902.60	210.94
902.90	210.93
903.21	211.00
903.51	210.90
903.82	211.05
904.12	211.11
904.43	211.20
904.73	211.20
905.03	211.32
905.34	211.67
905.64	211.61
905.95	211.62
906.25	211.62
906.56	211.74
906.86	211.80
907.17	211.69
907.47	211.77
907.77	211.70
908.08	211.64
908.38	211.63
908.69	211.70
908.99	211.78
909.30	211.79
909.60	211.78
909.90	211.80
910.21	211.69
910.51	211.61
910.81	211.60
911.12	211.59
911.42	211.56
911.73	211.20
912.03	211.24
912.33	211.39
912.64	211.38
912.94	211.34
913.24	211.31
913.55	211.36
913.85	211.31
914.15	211.45
914.46	211.41
914.76	211.36
915.06	211.40
915.37	211.33
915.67	211.28
915.97	211.28
916.27	211.27
916.58	211.23
916.88	211.22
917.18	211.20
917.49	211.45
917.79	211.43
918.09	211.49
918.39	211.63
918.70	211.58
919.00	211.58
919.30	211.78
919.60	211.73
919.91	211.60
920.21	211.62
920.51	211.47
920.81	211.55
921.12	211.60
921.42	211.57
921.72	211.55
922.02	211.63
922.32	211.68
922.63	211.66
922.93	211.86
923.23	211.80
923.53	211.75
923.83	211.55
924.13	211.53
924.44	211.54
924.74	211.58
925.04	211.64
925.34	211.63
925.64	211.42
925.94	211.40
926.24	211.69
926.55	211.65
926.85	211.75
927.15	211.74
927.45	211.74
927.75	211.65
928.05	211.67
928.35	211.59
928.65	211.67
928.95	211.66
929.26	211.49
929.56	211.62
929.86	211.67
930.16	211.57
930.46	211.60
930.76	211.59
931.06	211.42
931.36	211.37
931.66	211.43
931.96	211.44
932.26	211.44
932.56	211.22
932.86	211.23
933.16	211.26
933.46	211.22
933.76	211.17
934.06	211.30
934.36	211.43
934.66	211.40
934.96	211.31
935.26	211.35
935.56	211.45
935.86	211.35
936.16	211.34
936.46	211.45
936.76	211.37
937.06	211.23
937.36	211.25
937.66	211.21
937.96	211.14
938.26	211.05
938.56	211.02
938.86	211.00
939.16	211.08
939.46	211.09
939.76	211.11
940.06	211.18
940.35	211.12
940.65	210.93
940.95	211.01
941.25	210.89
941.55	210.89
941.85	210.86
942.15	210.96
942.45	210.99
942.75	210.90
943.04	211.01
943.34	211.16
943.64	211.13
943.94	211.10
944.24	211.09
944.54	211.16
944.84	211.16
945.13	211.19
945.43	211.12
945.73	211.09
946.03	211.14
946.33	211.06
946.62	211.00
946.92	210.98
947.22	210.98
947.52	211.02
947.82	210.99
948.11	210.97
948.41	210.90
948.71	210.86
949.01	210.95
949.31	210.90
949.60	210.90
949.90	210.96
950.20	210.97
950.50	210.96
950.79	211.03
951.09	211.18
951.39	211.16
951.69	211.15
951.98	211.21
952.28	211.09
952.58	211.11
952.87	211.11
953.17	211.15
953.47	211.12
953.76	211.09
954.06	211.08
954.36	210.98
954.66	210.90
954.95	211.06
955.25	211.08
955.55	211.06
955.84	210.97
956.14	211.02
956.44	211.00
956.73	211.05
957.03	210.98
957.32	210.95
957.62	210.99
957.92	211.05
958.21	210.97
958.51	211.39
958.81	211.47
959.10	211.55
959.40	211.72
959.69	211.74
959.99	211.88
960.29	211.88
960.58	211.93
960.88	212.14
961.17	212.04
961.47	211.97
961.76	211.96
962.06	212.07
962.36	211.95
962.65	211.97
962.95	211.94
963.24	211.92
963.54	211.91
963.83	211.91
964.13	211.82
964.42	211.76
964.72	211.50
965.01	211.44
965.31	211.39
965.60	211.27
965.90	211.49
966.19	211.32
966.49	211.33
966.78	211.31
967.08	211.21
967.37	211.18
967.67	211.15
967.96	211.20
968.26	211.11
968.55	211.19
968.85	211.17
969.14	211.16
969.43	211.18
969.73	211.12
970.02	211.02
970.32	211.05
970.61	210.99
970.91	210.92
971.20	210.88
971.49	210.87
971.79	210.86
972.08	210.62
972.38	210.69
972.67	210.68
972.96	210.71
973.26	210.70
973.55	210.79
973.85	210.82
974.14	210.82
974.43	210.84
974.73	210.72
975.02	210.77
975.31	210.82
975.61	210.77
975.90	210.75
976.19	210.82
976.49	210.88
976.78	210.92
977.07	210.95
977.37	210.94
977.66	210.98
977.95	211.02
978.24	211.02
978.54	211.09
978.83	211.11
979.12	211.09
979.42	211.03
979.71	210.99
980.00	210.96
980.29	211.02
980.59	211.01
980.88	211.16
981.17	211.12
981.46	211.10
981.76	211.12
982.05	211.28
982.34	211.26
982.63	211.29
982.93	211.34
983.22	211.41
983.51	211.47
983.80	211.52
984.09	211.49
984.39	211.42
984.68	211.40
984.97	211.42
985.26	211.42
985.55	211.54
985.85	211.49
986.14	211.55
986.43	211.60
986.72	211.57
987.01	211.49
987.30	211.47
987.59	211.48
987.89	211.45
988.18	211.29
988.47	211.27
988.76	211.23
989.05	211.22
989.34	211.19
989.63	211.27
989.92	211.16
990.22	211.17
990.51	211.27
990.80	211.25
991.09	211.28
991.38	211.27
991.67	211.23
991.96	211.20
992.25	211.19
992.54	211.07
992.83	211.14
993.12	211.06
993.41	211.15
993.70	211.34
993.99	211.43
994.28	211.59
994.58	211.69
994.87	211.64
995.16	211.63
995.45	211.53
995.74	211.47
996.03	211.61
996.32	211.61
996.61	211.66
996.90	211.66
997.19	211.63
997.48	211.67
997.77	211.61
998.06	211.68
998.34	211.69
998.63	211.65
998.92	211.65
999.21	211.78
999.50	211.75
999.79	211.59
1000.08	211.52
1000.37	211.45
1000.66	211.36
1000.95	211.44
1001.24	211.42
1001.53	211.44
1001.82	211.37
1002.11	211.31
1002.40	211.32
1002.68	211.40
1002.97	211.63
1003.26	211.56
1003.55	211.47
1003.84	211.48
1004.13	211.55
1004.42	211.53
1004.71	211.56
1004.99	211.46
1005.28	211.51
1005.57	211.49
1005.86	211.41
1006.15	211.41
1006.44	211.32
1006.72	211.34
1007.01	211.28
1007.30	211.26
1007.59	211.29
1007.88	211.23
1008.17	211.17
1008.45	211.13
1008.74	210.93
1009.03	210.72
1009.32	210.72
1009.60	210.73
1009.89	210.71
1010.18	210.57
1010.47	210.55
1010.76	210.54
1011.04	210.57
1011.33	210.50
1011.62	210.50
1011.91	210.59
1012.19	210.60
1012.48	210.59
1012.77	210.55
1013.05	210.72
1013.34	210.76
1013.63	210.65
1013.92	210.68
1014.20	210.65
1014.49	210.59
1014.78	210.66
1015.06	210.60
1015.35	210.60
1015.64	210.61
1015.92	210.58
1016.21	210.59
1016.50	210.59
1016.78	210.64
1017.07	210.61
1017.36	210.63
1017.64	210.55
1017.93	210.54
1018.22	210.42
1018.50	210.45
1018.79	210.54
1019.08	210.37
1019.36	210.39
1019.65	210.44
1019.93	210.56
1020.22	210.65
1020.51	210.86
1020.79	210.79
1021.08	208.55
1021.36	210.20
1021.65	212.05
1021.94	210.75
1022.22	210.95
1022.51	210.90
1022.79	212.25
1023.08	211.85
1023.36	214.25
1023.65	209.40
>>>>>End Processed Spectral Data<<<<<
