SpectraSuite Data File
++++++++++++++++++++++++++++++++++++
Date: Mon Feb 25 16:59:09 EST 2013
User: group
Dark Spectrum Present: No
Reference Spectrum Present: No
Number of Sampled Component Spectra: 1
Spectrometers: USB2E7196
Integration Time (usec): 104000 (USB2E7196)
Spectra Averaged: 20 (USB2E7196)
Boxcar Smoothing: 10 (USB2E7196)
Correct for Electrical Dark: No (USB2E7196)
Strobe/Lamp Enabled: No (USB2E7196)
Correct for Detector Non-linearity: No (USB2E7196)
Correct for Stray Light: No (USB2E7196)
Number of Pixels in Processed Spectrum: 2048
>>>>>Begin Processed Spectral Data<<<<<
339.09	0.00
339.48	197.50
339.86	201.25
340.24	200.55
340.63	202.55
341.01	208.05
341.39	204.75
341.78	207.00
342.16	208.95
342.54	209.05
342.93	197.97
343.31	207.96
343.69	208.55
344.07	208.98
344.46	209.58
344.84	209.99
345.22	210.09
345.60	210.38
345.99	210.58
346.37	210.70
346.75	210.68
347.13	210.70
347.52	210.73
347.90	210.92
348.28	210.99
348.66	211.10
349.05	211.06
349.43	211.12
349.81	211.25
350.19	211.36
350.57	211.50
350.96	211.56
351.34	211.73
351.72	211.83
352.10	211.92
352.48	211.88
352.87	211.88
353.25	211.97
353.63	212.02
354.01	212.10
354.39	212.21
354.77	212.36
355.15	212.58
355.54	212.65
355.92	212.59
356.30	212.66
356.68	212.90
357.06	213.00
357.44	213.01
357.82	213.04
358.20	213.17
358.58	213.22
358.97	213.28
359.35	213.40
359.73	213.54
360.11	213.59
360.49	213.66
360.87	213.77
361.25	213.82
361.63	214.02
362.01	214.05
362.39	214.00
362.77	214.11
363.15	214.09
363.53	214.13
363.91	214.19
364.29	214.19
364.67	213.97
365.05	213.95
365.43	213.98
365.81	213.96
366.19	214.04
366.57	214.17
366.95	214.19
367.33	214.05
367.71	213.97
368.09	214.00
368.47	213.92
368.85	213.90
369.23	214.05
369.61	213.84
369.99	213.97
370.37	214.02
370.75	214.18
371.13	214.03
371.51	213.95
371.89	213.95
372.27	213.98
372.65	213.92
373.03	213.87
373.41	213.86
373.78	213.84
374.16	213.59
374.54	213.40
374.92	213.27
375.30	213.31
375.68	213.23
376.06	213.17
376.44	213.10
376.82	213.07
377.19	212.93
377.57	212.87
377.95	212.63
378.33	212.58
378.71	212.24
379.09	212.32
379.47	212.33
379.84	212.20
380.22	212.08
380.60	211.96
380.98	211.97
381.36	211.91
381.73	211.80
382.11	211.81
382.49	211.76
382.87	211.69
383.25	211.56
383.62	211.90
384.00	211.82
384.38	211.83
384.76	211.88
385.13	211.99
385.51	212.00
385.89	211.97
386.27	211.95
386.64	212.02
387.02	211.99
387.40	211.93
387.78	211.93
388.15	211.95
388.53	211.94
388.91	211.85
389.29	211.77
389.66	211.80
390.04	211.73
390.42	211.79
390.79	211.84
391.17	211.84
391.55	211.50
391.92	211.43
392.30	211.49
392.68	211.34
393.05	211.29
393.43	211.31
393.81	211.40
394.18	211.34
394.56	211.28
394.94	211.28
395.31	211.26
395.69	211.48
396.06	211.51
396.44	211.60
396.82	211.65
397.19	211.86
397.57	211.89
397.95	212.00
398.32	211.92
398.70	211.98
399.07	212.09
399.45	212.09
399.82	212.17
400.20	212.15
400.58	212.22
400.95	212.14
401.33	212.28
401.70	212.54
402.08	212.60
402.45	212.76
402.83	212.90
403.20	213.01
403.58	212.96
403.95	213.13
404.33	213.31
404.71	213.45
405.08	213.78
405.46	213.94
405.83	214.16
406.21	214.34
406.58	214.58
406.96	214.79
407.33	215.10
407.70	215.50
408.08	216.13
408.45	216.62
408.83	217.07
409.20	217.42
409.58	217.64
409.95	218.21
410.33	218.74
410.70	219.18
411.08	219.85
411.45	220.47
411.82	221.08
412.20	221.86
412.57	222.90
412.95	223.39
413.32	224.38
413.69	225.36
414.07	226.41
414.44	227.50
414.82	228.73
415.19	230.16
415.56	231.48
415.94	232.80
416.31	234.36
416.68	236.03
417.06	238.01
417.43	239.90
417.81	241.90
418.18	244.13
418.55	246.48
418.93	248.87
419.30	251.39
419.67	254.11
420.04	256.85
420.42	259.69
420.79	263.20
421.16	266.57
421.54	270.16
421.91	273.85
422.28	277.61
422.66	281.75
423.03	285.75
423.40	289.89
423.77	294.25
424.15	298.72
424.52	303.51
424.89	308.58
425.26	313.47
425.64	318.24
426.01	323.45
426.38	328.97
426.75	334.58
427.13	340.48
427.50	346.54
427.87	352.90
428.24	359.19
428.61	365.38
428.99	372.18
429.36	379.40
429.73	386.62
430.10	393.87
430.47	401.12
430.85	408.74
431.22	416.84
431.59	425.64
431.96	433.77
432.33	442.90
432.70	451.79
433.08	462.17
433.45	472.12
433.82	482.06
434.19	492.96
434.56	503.76
434.93	514.15
435.30	524.55
435.68	536.17
436.05	547.84
436.42	559.09
436.79	569.71
437.16	581.05
437.53	593.20
437.90	605.11
438.27	616.99
438.64	629.33
439.01	640.88
439.38	651.09
439.75	661.36
440.13	672.88
440.50	683.81
440.87	692.83
441.24	702.14
441.61	712.49
441.98	720.31
442.35	729.22
442.72	738.26
443.09	747.01
443.46	752.57
443.83	756.44
444.20	760.30
444.57	765.25
444.94	768.03
445.31	770.79
445.68	773.72
446.05	775.37
446.42	774.97
446.79	774.55
447.16	774.04
447.53	773.80
447.90	770.14
448.27	766.59
448.64	761.42
449.01	757.75
449.37	750.51
449.74	743.70
450.11	735.60
450.48	726.51
450.85	717.15
451.22	709.23
451.59	701.84
451.96	694.47
452.33	684.40
452.70	675.38
453.07	664.53
453.43	653.35
453.80	642.65
454.17	632.55
454.54	622.64
454.91	611.93
455.28	601.69
455.65	592.07
456.02	582.56
456.38	574.51
456.75	564.41
457.12	555.92
457.49	547.61
457.86	539.45
458.23	532.50
458.59	524.94
458.96	517.16
459.33	510.05
459.70	503.14
460.07	497.61
460.43	491.43
460.80	485.54
461.17	480.32
461.54	474.94
461.91	469.60
462.27	464.44
462.64	460.04
463.01	455.10
463.38	450.41
463.74	445.40
464.11	441.04
464.48	437.18
464.85	433.13
465.21	430.00
465.58	426.56
465.95	422.51
466.32	419.13
466.68	415.75
467.05	412.56
467.42	409.19
467.78	405.69
468.15	402.42
468.52	399.86
468.88	396.55
469.25	393.69
469.62	391.47
469.98	388.88
470.35	386.59
470.72	384.29
471.08	381.80
471.45	379.76
471.82	377.73
472.18	375.54
472.55	373.90
472.92	371.91
473.28	370.26
473.65	368.64
474.02	367.05
474.38	365.69
474.75	364.48
475.11	363.28
475.48	362.37
475.85	361.37
476.21	360.46
476.58	359.74
476.94	359.14
477.31	358.27
477.67	357.64
478.04	356.99
478.41	356.65
478.77	356.52
479.14	356.00
479.50	355.82
479.87	355.84
480.23	355.79
480.60	355.66
480.96	355.53
481.33	355.82
481.69	355.98
482.06	356.13
482.42	356.30
482.79	356.58
483.15	356.98
483.52	357.67
483.88	358.19
484.25	358.85
484.61	359.39
484.98	360.15
485.34	361.06
485.71	362.04
486.07	363.00
486.44	363.87
486.80	365.10
487.17	366.27
487.53	367.70
487.90	369.18
488.26	370.70
488.62	372.40
488.99	373.96
489.35	375.68
489.72	377.59
490.08	379.45
490.44	381.30
490.81	383.36
491.17	385.32
491.54	387.61
491.90	389.92
492.26	392.33
492.63	394.74
492.99	397.21
493.36	399.87
493.72	402.60
494.08	405.41
494.45	408.41
494.81	411.46
495.17	414.40
495.54	417.67
495.90	420.93
496.26	424.19
496.63	427.46
496.99	430.83
497.35	434.34
497.72	438.01
498.08	441.79
498.44	445.44
498.80	449.40
499.17	453.33
499.53	457.21
499.89	461.35
500.26	465.31
500.62	469.15
500.98	473.24
501.34	477.32
501.71	481.48
502.07	485.42
502.43	489.40
502.79	493.29
503.16	497.18
503.52	501.25
503.88	505.19
504.24	509.15
504.60	513.18
504.97	517.39
505.33	521.27
505.69	525.46
506.05	529.46
506.41	533.27
506.78	536.87
507.14	540.46
507.50	544.00
507.86	547.59
508.22	551.35
508.59	554.73
508.95	558.11
509.31	561.45
509.67	564.80
510.03	568.01
510.39	571.51
510.75	574.84
511.12	577.82
511.48	580.84
511.84	583.88
512.20	586.76
512.56	589.52
512.92	592.39
513.28	595.01
513.64	597.54
514.00	599.97
514.37	602.51
514.73	605.18
515.09	607.74
515.45	610.16
515.81	612.48
516.17	614.59
516.53	616.55
516.89	618.53
517.25	620.51
517.61	622.47
517.97	624.25
518.33	625.74
518.69	627.45
519.05	629.03
519.41	630.68
519.77	632.61
520.13	634.00
520.49	635.24
520.85	636.35
521.21	637.80
521.57	639.32
521.93	640.24
522.29	641.51
522.65	642.50
523.01	643.63
523.37	644.42
523.73	645.46
524.09	646.53
524.45	647.64
524.81	648.72
525.17	649.85
525.53	650.86
525.89	651.89
526.25	653.12
526.61	654.05
526.97	655.08
527.33	655.82
527.68	657.10
528.04	658.28
528.40	659.23
528.76	660.14
529.12	661.13
529.48	662.62
529.84	663.61
530.20	664.90
530.56	666.11
530.91	667.61
531.27	669.02
531.63	670.48
531.99	671.99
532.35	673.38
532.71	674.99
533.07	676.57
533.42	678.54
533.78	679.99
534.14	681.70
534.50	683.15
534.86	684.91
535.21	686.36
535.57	688.18
535.93	689.99
536.29	692.00
536.65	693.79
537.00	695.66
537.36	697.31
537.72	699.12
538.08	700.98
538.44	702.87
538.79	704.98
539.15	706.86
539.51	708.78
539.87	710.95
540.22	712.91
540.58	715.10
540.94	717.05
541.29	719.26
541.65	721.34
542.01	723.64
542.37	725.83
542.72	727.92
543.08	730.00
543.44	732.40
543.79	734.40
544.15	736.67
544.51	738.92
544.87	741.71
545.22	744.01
545.58	746.47
545.94	748.72
546.29	750.80
546.65	753.03
547.01	755.11
547.36	757.21
547.72	759.44
548.07	761.56
548.43	763.56
548.79	765.57
549.14	767.84
549.50	770.12
549.86	772.14
550.21	774.49
550.57	776.91
550.92	779.09
551.28	781.34
551.64	783.60
551.99	785.83
552.35	787.62
552.70	789.66
553.06	791.71
553.41	793.88
553.77	796.30
554.13	798.87
554.48	801.45
554.84	803.98
555.19	806.35
555.55	808.85
555.90	810.96
556.26	813.09
556.61	815.05
556.97	816.90
557.32	819.16
557.68	820.89
558.03	822.56
558.39	824.36
558.74	826.28
559.10	828.13
559.45	830.05
559.81	832.24
560.16	834.04
560.52	836.02
560.87	838.03
561.23	839.61
561.58	841.34
561.94	842.76
562.29	844.03
562.64	845.36
563.00	846.76
563.35	848.59
563.71	850.38
564.06	852.16
564.42	854.00
564.77	855.64
565.12	857.64
565.48	859.60
565.83	861.30
566.19	863.21
566.54	864.62
566.89	866.14
567.25	867.67
567.60	869.48
567.96	871.21
568.31	872.93
568.66	874.27
569.02	875.25
569.37	876.37
569.72	877.75
570.08	879.06
570.43	880.05
570.78	880.98
571.14	881.66
571.49	882.39
571.84	883.11
572.20	883.50
572.55	883.83
572.90	883.94
573.26	884.20
573.61	884.15
573.96	884.49
574.31	884.52
574.67	884.11
575.02	883.64
575.37	883.00
575.72	882.06
576.08	881.93
576.43	881.40
576.78	881.00
577.13	880.51
577.49	879.85
577.84	879.20
578.19	878.64
578.54	878.34
578.90	878.06
579.25	877.38
579.60	876.44
579.95	875.56
580.30	874.86
580.66	874.43
581.01	873.60
581.36	872.58
581.71	871.35
582.06	870.50
582.42	869.63
582.77	868.33
583.12	867.30
583.47	865.91
583.82	864.86
584.17	863.64
584.53	862.63
584.88	861.49
585.23	860.27
585.58	858.84
585.93	857.39
586.28	855.76
586.63	854.27
586.98	853.03
587.34	852.00
587.69	850.59
588.04	848.80
588.39	847.47
588.74	845.75
589.09	844.61
589.44	843.02
589.79	841.44
590.14	840.40
590.49	838.99
590.84	837.54
591.19	836.22
591.54	834.61
591.89	832.64
592.25	831.10
592.60	829.10
592.95	827.35
593.30	825.17
593.65	823.18
594.00	821.10
594.35	820.20
594.70	817.98
595.05	816.07
595.40	814.34
595.75	812.11
596.10	810.49
596.45	808.48
596.80	806.85
597.15	805.24
597.50	802.97
597.85	801.19
598.19	799.07
598.54	796.87
598.89	794.94
599.24	793.30
599.59	791.21
599.94	789.62
600.29	787.68
600.64	785.95
600.99	783.94
601.34	782.20
601.69	779.15
602.04	776.88
602.39	774.64
602.74	772.46
603.08	770.61
603.43	768.69
603.78	766.61
604.13	764.26
604.48	762.00
604.83	760.27
605.18	758.23
605.53	756.14
605.87	753.97
606.22	752.00
606.57	749.34
606.92	747.02
607.27	744.65
607.62	742.29
607.96	740.10
608.31	738.20
608.66	735.78
609.01	733.43
609.36	731.38
609.70	729.10
610.05	726.51
610.40	724.04
610.75	721.48
611.10	719.10
611.44	716.38
611.79	713.58
612.14	710.84
612.49	707.82
612.83	705.31
613.18	702.66
613.53	699.86
613.88	697.29
614.22	694.52
614.57	691.82
614.92	689.20
615.27	686.51
615.61	683.53
615.96	681.17
616.31	678.76
616.65	676.39
617.00	673.81
617.35	671.38
617.70	668.66
618.04	665.78
618.39	662.68
618.74	660.12
619.08	657.47
619.43	654.81
619.78	652.44
620.12	649.86
620.47	647.43
620.82	644.65
621.16	641.90
621.51	639.28
621.85	636.73
622.20	634.05
622.55	631.32
622.89	628.69
623.24	625.75
623.59	622.98
623.93	620.10
624.28	617.71
624.62	615.41
624.97	612.99
625.32	610.41
625.66	608.11
626.01	605.63
626.35	603.10
626.70	600.43
627.04	598.04
627.39	595.52
627.73	593.17
628.08	590.96
628.43	588.60
628.77	586.23
629.12	583.58
629.46	581.26
629.81	578.92
630.15	576.51
630.50	574.08
630.84	571.46
631.19	569.10
631.53	566.56
631.88	563.79
632.22	561.24
632.57	559.07
632.91	556.61
633.26	554.32
633.60	552.10
633.95	549.86
634.29	547.26
634.64	544.87
634.98	542.26
635.32	539.98
635.67	537.92
636.01	535.73
636.36	533.46
636.70	531.20
637.05	528.96
637.39	526.80
637.73	524.86
638.08	523.26
638.42	521.35
638.77	519.35
639.11	517.20
639.45	514.98
639.80	512.73
640.14	510.65
640.49	508.47
640.83	506.31
641.17	504.17
641.52	502.09
641.86	500.10
642.20	498.08
642.55	495.70
642.89	493.42
643.23	491.21
643.58	489.37
643.92	487.21
644.26	485.19
644.61	483.19
644.95	481.00
645.29	478.62
645.64	476.32
645.98	474.10
646.32	472.14
646.66	470.05
647.01	468.07
647.35	466.08
647.69	464.01
648.04	462.08
648.38	460.04
648.72	458.11
649.06	455.87
649.41	453.85
649.75	451.84
650.09	450.01
650.43	448.06
650.78	445.94
651.12	444.01
651.46	441.99
651.80	440.04
652.14	438.22
652.49	436.39
652.83	434.40
653.17	432.44
653.51	430.45
653.85	428.77
654.20	426.82
654.54	424.86
654.88	422.92
655.22	421.05
655.56	419.18
655.90	417.17
656.25	415.39
656.59	413.60
656.93	411.92
657.27	410.16
657.61	408.24
657.95	406.44
658.29	404.59
658.64	402.91
658.98	401.12
659.32	399.14
659.66	397.30
660.00	395.57
660.34	393.75
660.68	391.96
661.02	390.13
661.36	388.36
661.70	386.75
662.05	385.18
662.39	383.58
662.73	382.04
663.07	380.70
663.41	379.19
663.75	377.48
664.09	375.92
664.43	374.12
664.77	372.78
665.11	371.30
665.45	369.86
665.79	368.41
666.13	366.84
666.47	365.43
666.81	364.06
667.15	362.54
667.49	361.23
667.83	360.03
668.17	358.70
668.51	357.50
668.85	356.20
669.19	355.06
669.53	353.63
669.87	352.20
670.21	350.82
670.55	349.55
670.89	348.57
671.23	347.39
671.57	346.33
671.91	344.97
672.25	343.69
672.58	342.49
672.92	341.13
673.26	339.99
673.60	338.84
673.94	337.65
674.28	336.61
674.62	335.49
674.96	334.25
675.30	333.11
675.64	332.01
675.97	330.90
676.31	329.68
676.65	328.59
676.99	327.70
677.33	326.58
677.67	325.56
678.01	324.31
678.34	323.23
678.68	322.18
679.02	321.15
679.36	320.12
679.70	319.09
680.04	318.04
680.37	317.03
680.71	316.06
681.05	315.06
681.39	314.05
681.73	313.12
682.06	312.23
682.40	311.28
682.74	310.24
683.08	309.43
683.42	308.46
683.75	307.60
684.09	306.61
684.43	305.65
684.77	304.65
685.10	303.81
685.44	302.90
685.78	301.90
686.12	301.00
686.45	300.06
686.79	299.30
687.13	298.56
687.46	297.61
687.80	296.91
688.14	296.02
688.48	295.34
688.81	294.49
689.15	293.72
689.49	292.78
689.82	292.08
690.16	291.00
690.50	290.25
690.83	289.31
691.17	288.46
691.51	287.70
691.84	286.89
692.18	286.05
692.52	285.27
692.85	284.64
693.19	284.02
693.52	283.34
693.86	282.48
694.20	281.84
694.53	281.25
694.87	280.36
695.21	279.61
695.54	278.81
695.88	277.97
696.21	277.12
696.55	276.51
696.88	275.70
697.22	275.07
697.56	274.36
697.89	273.70
698.23	273.04
698.56	272.30
698.90	271.77
699.23	271.10
699.57	270.45
699.90	269.63
700.24	268.86
700.58	268.33
700.91	267.78
701.25	267.30
701.58	266.75
701.92	266.15
702.25	265.67
702.59	265.00
702.92	264.55
703.26	263.94
703.59	263.47
703.93	263.19
704.26	262.69
704.60	262.16
704.93	261.68
705.26	261.13
705.60	260.76
705.93	260.11
706.27	259.70
706.60	259.31
706.94	259.02
707.27	258.51
707.61	257.95
707.94	257.42
708.27	256.71
708.61	256.12
708.94	255.67
709.28	255.08
709.61	254.69
709.94	254.26
710.28	253.89
710.61	253.42
710.95	252.72
711.28	252.54
711.61	252.05
711.95	251.65
712.28	251.22
712.61	250.75
712.95	250.52
713.28	250.25
713.61	249.78
713.95	249.27
714.28	248.93
714.61	248.48
714.95	248.09
715.28	247.59
715.61	247.20
715.95	246.87
716.28	246.49
716.61	246.13
716.95	245.60
717.28	245.25
717.61	244.88
717.94	244.50
718.28	243.85
718.61	243.56
718.94	243.23
719.27	242.84
719.61	242.51
719.94	242.16
720.27	241.66
720.60	241.38
720.94	241.12
721.27	240.80
721.60	240.56
721.93	240.24
722.27	240.12
722.60	239.90
722.93	239.50
723.26	239.27
723.59	238.90
723.93	238.67
724.26	238.40
724.59	238.09
724.92	237.86
725.25	237.70
725.59	237.41
725.92	237.14
726.25	236.88
726.58	236.60
726.91	236.34
727.24	236.10
727.57	235.80
727.91	235.47
728.24	235.28
728.57	235.03
728.90	234.88
729.23	234.53
729.56	234.45
729.89	234.30
730.22	234.08
730.55	233.89
730.89	233.68
731.22	233.47
731.55	233.22
731.88	233.01
732.21	232.71
732.54	232.43
732.87	232.22
733.20	232.05
733.53	231.91
733.86	231.70
734.19	231.49
734.52	231.34
734.85	231.44
735.18	231.17
735.51	231.10
735.84	230.89
736.17	230.84
736.50	230.43
736.83	230.69
737.16	230.52
737.49	230.41
737.82	230.18
738.15	229.99
738.48	229.85
738.81	229.68
739.14	229.48
739.47	229.34
739.80	229.20
740.13	229.09
740.46	228.81
740.79	228.56
741.12	228.33
741.45	228.07
741.78	227.67
742.11	227.62
742.44	227.35
742.77	227.22
743.10	226.99
743.43	226.88
743.75	226.28
744.08	226.59
744.41	226.27
744.74	226.10
745.07	225.95
745.40	225.88
745.73	225.86
746.06	225.71
746.39	225.64
746.71	225.39
747.04	225.16
747.37	225.04
747.70	224.95
748.03	224.87
748.36	224.82
748.68	224.72
749.01	224.44
749.34	224.29
749.67	224.10
750.00	223.99
750.33	224.08
750.65	223.95
750.98	223.35
751.31	223.27
751.64	223.17
751.97	223.20
752.29	223.01
752.62	222.70
752.95	222.62
753.28	222.42
753.60	222.35
753.93	222.37
754.26	222.26
754.59	222.10
754.91	221.91
755.24	221.79
755.57	221.59
755.90	221.51
756.22	221.40
756.55	221.29
756.88	221.11
757.20	220.70
757.53	220.47
757.86	220.38
758.19	220.39
758.51	220.26
758.84	220.00
759.17	219.81
759.49	219.68
759.82	219.72
760.15	219.71
760.47	219.59
760.80	219.39
761.13	219.37
761.45	219.25
761.78	219.14
762.11	219.00
762.43	218.97
762.76	218.92
763.08	218.81
763.41	218.73
763.74	218.70
764.06	218.66
764.39	218.60
764.71	218.47
765.04	218.27
765.37	218.22
765.69	218.13
766.02	218.10
766.34	218.11
766.67	217.85
767.00	217.77
767.32	217.85
767.65	217.95
767.97	217.86
768.30	217.83
768.62	217.83
768.95	217.79
769.27	217.69
769.60	217.65
769.92	217.60
770.25	217.55
770.57	217.44
770.90	217.37
771.22	217.40
771.55	217.37
771.87	217.32
772.20	217.23
772.52	217.45
772.85	217.82
773.17	217.69
773.50	217.61
773.82	217.52
774.15	217.34
774.47	217.18
774.80	217.06
775.12	216.99
775.45	216.94
775.77	216.88
776.09	216.79
776.42	216.71
776.74	216.76
777.07	216.58
777.39	216.61
777.72	216.54
778.04	216.47
778.36	216.44
778.69	216.44
779.01	216.41
779.33	216.01
779.66	215.59
779.98	215.62
780.31	215.62
780.63	215.70
780.95	215.63
781.28	215.51
781.60	215.47
781.92	215.38
782.25	215.39
782.57	215.30
782.89	215.30
783.22	215.18
783.54	215.05
783.86	215.13
784.19	214.95
784.51	215.04
784.83	214.94
785.16	214.81
785.48	214.76
785.80	214.70
786.12	214.79
786.45	214.71
786.77	214.66
787.09	214.60
787.42	214.46
787.74	214.50
788.06	214.51
788.38	214.42
788.71	214.44
789.03	214.35
789.35	214.42
789.67	214.34
789.99	214.39
790.32	214.32
790.64	214.28
790.96	214.57
791.28	214.41
791.61	214.35
791.93	214.40
792.25	214.36
792.57	214.58
792.89	214.42
793.21	214.40
793.54	214.27
793.86	214.22
794.18	214.24
794.50	214.16
794.82	214.16
795.14	214.22
795.47	214.23
795.79	214.26
796.11	214.15
796.43	214.12
796.75	214.08
797.07	214.02
797.39	213.97
797.71	213.74
798.04	213.69
798.36	213.78
798.68	213.78
799.00	213.76
799.32	213.63
799.64	213.67
799.96	213.70
800.28	213.88
800.60	213.88
800.92	213.80
801.24	213.75
801.56	213.70
801.89	213.65
802.21	213.64
802.53	213.57
802.85	213.60
803.17	213.78
803.49	213.70
803.81	213.75
804.13	213.70
804.45	213.64
804.77	213.67
805.09	213.59
805.41	213.52
805.73	213.53
806.05	213.41
806.37	213.42
806.69	213.36
807.01	213.25
807.33	213.23
807.65	213.16
807.97	213.41
808.28	213.33
808.60	213.32
808.92	213.20
809.24	213.38
809.56	213.36
809.88	213.19
810.20	213.22
810.52	213.29
810.84	213.24
811.16	213.27
811.48	213.25
811.80	213.40
812.12	213.46
812.43	213.49
812.75	213.51
813.07	213.45
813.39	213.46
813.71	213.38
814.03	213.36
814.35	213.40
814.67	213.10
814.98	213.08
815.30	212.99
815.62	212.92
815.94	212.65
816.26	212.64
816.58	212.57
816.89	212.59
817.21	212.47
817.53	212.56
817.85	212.47
818.17	212.44
818.48	212.31
818.80	212.31
819.12	212.28
819.44	212.24
819.76	212.18
820.07	212.19
820.39	212.19
820.71	212.24
821.03	212.20
821.34	212.29
821.66	212.39
821.98	212.51
822.30	212.57
822.61	212.78
822.93	212.70
823.25	212.65
823.57	212.57
823.88	212.69
824.20	212.62
824.52	212.74
824.83	212.75
825.15	212.69
825.47	212.65
825.79	212.54
826.10	212.45
826.42	212.40
826.74	212.43
827.05	212.34
827.37	212.31
827.69	212.27
828.00	212.20
828.32	212.12
828.64	212.05
828.95	212.27
829.27	212.18
829.58	212.15
829.90	212.29
830.22	212.29
830.53	212.16
830.85	212.16
831.17	211.96
831.48	211.90
831.80	211.82
832.11	211.74
832.43	211.83
832.75	211.90
833.06	212.13
833.38	212.01
833.69	212.04
834.01	212.00
834.32	212.03
834.64	212.05
834.96	212.10
835.27	212.12
835.59	211.92
835.90	211.85
836.22	211.89
836.53	211.73
836.85	211.71
837.16	212.07
837.48	212.02
837.79	212.18
838.11	212.23
838.42	212.25
838.74	212.33
839.05	212.20
839.37	212.15
839.68	211.93
840.00	211.87
840.31	211.97
840.63	211.96
840.94	211.92
841.26	211.83
841.57	211.80
841.88	211.78
842.20	211.68
842.51	211.66
842.83	211.67
843.14	212.00
843.46	212.00
843.77	211.74
844.08	211.75
844.40	211.63
844.71	211.67
845.03	211.76
845.34	211.72
845.65	211.75
845.97	211.77
846.28	211.77
846.60	211.92
846.91	211.82
847.22	211.82
847.54	211.91
847.85	211.92
848.16	211.94
848.48	211.90
848.79	212.14
849.10	212.15
849.42	212.11
849.73	211.80
850.04	211.75
850.36	211.62
850.67	211.70
850.98	211.69
851.30	211.65
851.61	211.56
851.92	211.53
852.23	211.60
852.55	211.64
852.86	211.61
853.17	211.56
853.49	211.65
853.80	211.75
854.11	211.80
854.42	211.85
854.74	211.77
855.05	211.75
855.36	211.54
855.67	211.56
855.99	211.63
856.30	212.00
856.61	212.01
856.92	212.07
857.23	212.04
857.55	212.04
857.86	212.02
858.17	212.09
858.48	212.03
858.79	212.04
859.11	212.06
859.42	212.09
859.73	212.03
860.04	212.04
860.35	211.94
860.66	211.84
860.98	211.90
861.29	211.89
861.60	211.88
861.91	211.94
862.22	211.87
862.53	211.73
862.84	211.32
863.16	211.44
863.47	211.39
863.78	211.39
864.09	211.42
864.40	211.41
864.71	211.43
865.02	211.57
865.33	211.48
865.64	211.41
865.95	211.37
866.27	211.67
866.58	211.63
866.89	211.70
867.20	211.63
867.51	211.50
867.82	211.57
868.13	211.65
868.44	211.62
868.75	211.67
869.06	211.79
869.37	211.90
869.68	211.86
869.99	211.94
870.30	211.93
870.61	211.98
870.92	212.00
871.23	211.91
871.54	211.90
871.85	212.04
872.16	212.10
872.47	212.15
872.78	211.87
873.09	211.91
873.40	211.82
873.71	211.86
874.02	211.90
874.33	211.81
874.64	211.81
874.95	211.83
875.26	211.79
875.56	211.75
875.87	211.66
876.18	211.63
876.49	211.91
876.80	211.89
877.11	211.80
877.42	211.80
877.73	211.85
878.04	211.78
878.35	211.71
878.66	211.73
878.96	211.65
879.27	211.60
879.58	211.58
879.89	211.57
880.20	211.65
880.51	211.67
880.82	211.75
881.12	211.75
881.43	211.75
881.74	211.68
882.05	211.65
882.36	211.72
882.67	211.75
882.97	211.40
883.28	211.40
883.59	211.43
883.90	211.45
884.21	211.49
884.51	211.45
884.82	211.39
885.13	211.32
885.44	211.36
885.74	211.36
886.05	211.35
886.36	211.37
886.67	211.25
886.98	211.49
887.28	211.53
887.59	211.49
887.90	211.39
888.20	211.40
888.51	211.44
888.82	211.40
889.13	211.41
889.43	211.67
889.74	211.69
890.05	211.63
890.35	211.58
890.66	211.55
890.97	211.59
891.28	211.53
891.58	211.53
891.89	211.57
892.20	211.63
892.50	211.58
892.81	211.46
893.12	211.46
893.42	211.24
893.73	211.16
894.04	211.19
894.34	211.26
894.65	211.32
894.95	211.25
895.26	211.26
895.57	211.42
895.87	211.11
896.18	211.13
896.48	211.14
896.79	211.13
897.10	211.14
897.40	211.06
897.71	211.12
898.01	211.11
898.32	211.08
898.63	211.01
898.93	211.02
899.24	211.13
899.54	211.13
899.85	211.10
900.15	211.12
900.46	211.11
900.76	211.04
901.07	210.98
901.38	210.99
901.68	211.00
901.99	210.81
902.29	210.84
902.60	210.75
902.90	210.72
903.21	210.74
903.51	210.71
903.82	210.88
904.12	210.86
904.43	210.83
904.73	210.81
905.03	210.79
905.34	211.21
905.64	211.17
905.95	211.16
906.25	211.10
906.56	211.09
906.86	211.15
907.17	211.19
907.47	211.22
907.77	211.23
908.08	211.19
908.38	211.20
908.69	211.20
908.99	211.33
909.30	211.42
909.60	211.35
909.90	211.44
910.21	211.30
910.51	211.31
910.81	211.36
911.12	211.50
911.42	211.57
911.73	211.16
912.03	211.22
912.33	211.29
912.64	211.36
912.94	211.35
913.24	211.26
913.55	211.22
913.85	211.26
914.15	211.36
914.46	211.39
914.76	211.39
915.06	211.42
915.37	211.37
915.67	211.33
915.97	211.42
916.27	211.32
916.58	211.35
916.88	211.38
917.18	211.33
917.49	211.50
917.79	211.47
918.09	211.53
918.39	211.65
918.70	211.63
919.00	211.61
919.30	211.69
919.60	211.62
919.91	211.65
920.21	211.57
920.51	211.43
920.81	211.39
921.12	211.48
921.42	211.40
921.72	211.36
922.02	211.38
922.32	211.42
922.63	211.48
922.93	211.63
923.23	211.63
923.53	211.71
923.83	211.50
924.13	211.48
924.44	211.50
924.74	211.48
925.04	211.59
925.34	211.59
925.64	211.52
925.94	211.66
926.24	211.85
926.55	211.80
926.85	211.88
927.15	211.86
927.45	211.83
927.75	211.83
928.05	211.83
928.35	211.84
928.65	211.78
928.95	211.75
929.26	211.66
929.56	211.73
929.86	211.71
930.16	211.66
930.46	211.74
930.76	211.61
931.06	211.50
931.36	211.38
931.66	211.43
931.96	211.44
932.26	211.37
932.56	211.23
932.86	211.28
933.16	211.26
933.46	211.28
933.76	211.26
934.06	211.42
934.36	211.55
934.66	211.46
934.96	211.52
935.26	211.50
935.56	211.44
935.86	211.32
936.16	211.26
936.46	211.20
936.76	211.13
937.06	211.12
937.36	211.15
937.66	211.10
937.96	211.09
938.26	211.07
938.56	211.06
938.86	211.10
939.16	211.24
939.46	211.24
939.76	211.22
940.06	211.13
940.35	210.98
940.65	210.79
940.95	210.92
941.25	210.78
941.55	210.69
941.85	210.71
942.15	210.74
942.45	210.81
942.75	210.85
943.04	210.89
943.34	210.95
943.64	210.87
943.94	210.87
944.24	210.85
944.54	210.81
944.84	210.85
945.13	210.79
945.43	210.67
945.73	210.65
946.03	210.62
946.33	210.61
946.62	210.63
946.92	210.62
947.22	210.57
947.52	210.60
947.82	210.72
948.11	210.68
948.41	210.65
948.71	210.52
949.01	210.53
949.31	210.47
949.60	210.50
949.90	210.52
950.20	210.51
950.50	210.50
950.79	210.48
951.09	210.45
951.39	210.41
951.69	210.39
951.98	210.48
952.28	210.56
952.58	210.57
952.87	210.56
953.17	210.67
953.47	210.68
953.76	210.69
954.06	210.65
954.36	210.65
954.66	210.58
954.95	210.71
955.25	210.76
955.55	210.76
955.84	210.70
956.14	210.75
956.44	210.77
956.73	210.74
957.03	210.73
957.32	210.75
957.62	210.72
957.92	210.80
958.21	210.77
958.51	211.09
958.81	211.14
959.10	211.17
959.40	211.16
959.69	211.16
959.99	211.17
960.29	211.19
960.58	211.11
960.88	211.32
961.17	211.29
961.47	211.27
961.76	211.31
962.06	211.36
962.36	211.32
962.65	211.33
962.95	211.37
963.24	211.35
963.54	211.35
963.83	211.43
964.13	211.39
964.42	211.31
964.72	211.04
965.01	211.09
965.31	211.03
965.60	211.01
965.90	211.21
966.19	211.13
966.49	211.11
966.78	211.16
967.08	211.14
967.37	211.13
967.67	211.05
967.96	211.15
968.26	211.15
968.55	211.21
968.85	211.20
969.14	211.22
969.43	211.21
969.73	211.19
970.02	211.18
970.32	211.16
970.61	211.11
970.91	211.03
971.20	210.94
971.49	210.94
971.79	211.01
972.08	210.76
972.38	210.83
972.67	210.83
972.96	210.89
973.26	210.80
973.55	210.96
973.85	211.03
974.14	210.90
974.43	210.95
974.73	210.90
975.02	210.89
975.31	210.84
975.61	210.91
975.90	210.91
976.19	210.90
976.49	210.90
976.78	210.94
977.07	210.91
977.37	210.92
977.66	210.99
977.95	210.95
978.24	210.98
978.54	211.07
978.83	211.06
979.12	211.04
979.42	211.01
979.71	210.98
980.00	210.94
980.29	211.01
980.59	210.89
980.88	210.94
981.17	210.87
981.46	210.89
981.76	210.85
982.05	210.84
982.34	210.89
982.63	210.90
982.93	210.95
983.22	211.12
983.51	211.10
983.80	211.19
984.09	211.26
984.39	211.23
984.68	211.15
984.97	211.22
985.26	211.15
985.55	211.21
985.85	211.07
986.14	211.10
986.43	211.14
986.72	211.15
987.01	211.15
987.30	211.23
987.59	211.23
987.89	211.25
988.18	211.25
988.47	211.20
988.76	211.22
989.05	211.15
989.34	211.03
989.63	211.13
989.92	211.04
990.22	210.90
990.51	210.89
990.80	210.87
991.09	210.84
991.38	210.94
991.67	210.94
991.96	211.00
992.25	211.04
992.54	210.99
992.83	211.03
993.12	210.95
993.41	210.98
993.70	211.06
993.99	211.12
994.28	211.19
994.58	211.20
994.87	211.15
995.16	211.16
995.45	211.20
995.74	211.11
996.03	211.17
996.32	211.26
996.61	211.36
996.90	211.43
997.19	211.45
997.48	211.43
997.77	211.36
998.06	211.43
998.34	211.35
998.63	211.28
998.92	211.32
999.21	211.36
999.50	211.33
999.79	211.23
1000.08	211.25
1000.37	211.23
1000.66	211.22
1000.95	211.30
1001.24	211.27
1001.53	211.25
1001.82	211.24
1002.11	211.13
1002.40	211.18
1002.68	211.22
1002.97	211.37
1003.26	211.30
1003.55	211.26
1003.84	211.24
1004.13	211.30
1004.42	211.30
1004.71	211.36
1004.99	211.26
1005.28	211.36
1005.57	211.38
1005.86	211.38
1006.15	211.29
1006.44	211.17
1006.72	211.19
1007.01	211.08
1007.30	211.14
1007.59	211.15
1007.88	211.11
1008.17	211.13
1008.45	210.99
1008.74	210.79
1009.03	210.63
1009.32	210.64
1009.60	210.62
1009.89	210.63
1010.18	210.45
1010.47	210.45
1010.76	210.47
1011.04	210.41
1011.33	210.42
1011.62	210.40
1011.91	210.43
1012.19	210.51
1012.48	210.53
1012.77	210.55
1013.05	210.72
1013.34	210.65
1013.63	210.61
1013.92	210.69
1014.20	210.70
1014.49	210.73
1014.78	210.84
1015.06	210.78
1015.35	210.78
1015.64	210.80
1015.92	210.82
1016.21	210.83
1016.50	210.85
1016.78	210.80
1017.07	210.83
1017.36	210.73
1017.64	210.64
1017.93	210.63
1018.22	210.57
1018.50	210.66
1018.79	210.59
1019.08	210.45
1019.36	210.49
1019.65	210.54
1019.93	210.59
1020.22	210.60
1020.51	210.80
1020.79	210.79
1021.08	210.20
1021.36	211.65
1021.65	210.05
1021.94	210.40
1022.22	210.15
1022.51	211.70
1022.79	212.35
1023.08	211.05
1023.36	214.90
1023.65	210.65
>>>>>End Processed Spectral Data<<<<<
