SpectraSuite Data File
++++++++++++++++++++++++++++++++++++
Date: Mon Feb 25 16:59:36 EST 2013
User: group
Dark Spectrum Present: No
Reference Spectrum Present: No
Number of Sampled Component Spectra: 1
Spectrometers: USB2E7196
Integration Time (usec): 104000 (USB2E7196)
Spectra Averaged: 20 (USB2E7196)
Boxcar Smoothing: 10 (USB2E7196)
Correct for Electrical Dark: No (USB2E7196)
Strobe/Lamp Enabled: No (USB2E7196)
Correct for Detector Non-linearity: No (USB2E7196)
Correct for Stray Light: No (USB2E7196)
Number of Pixels in Processed Spectrum: 2048
>>>>>Begin Processed Spectral Data<<<<<
339.09	0.00
339.48	198.20
339.86	201.00
340.24	201.45
340.63	201.95
341.01	209.35
341.39	206.50
341.78	206.55
342.16	208.10
342.54	208.95
342.93	198.40
343.31	208.41
343.69	209.05
344.07	209.50
344.46	210.00
344.84	210.44
345.22	210.54
345.60	210.80
345.99	211.06
346.37	211.19
346.75	211.29
347.13	211.36
347.52	211.44
347.90	211.63
348.28	211.68
348.66	211.80
349.05	211.72
349.43	211.73
349.81	211.83
350.19	211.89
350.57	211.97
350.96	211.99
351.34	212.07
351.72	212.15
352.10	212.18
352.48	212.21
352.87	212.27
353.25	212.30
353.63	212.32
354.01	212.31
354.39	212.42
354.77	212.45
355.15	212.62
355.54	212.71
355.92	212.58
356.30	212.61
356.68	212.84
357.06	212.82
357.44	212.73
357.82	212.77
358.20	212.85
358.58	212.94
358.97	213.02
359.35	213.20
359.73	213.24
360.11	213.32
360.49	213.34
360.87	213.37
361.25	213.37
361.63	213.51
362.01	213.61
362.39	213.61
362.77	213.77
363.15	213.75
363.53	213.77
363.91	213.90
364.29	213.95
364.67	213.67
365.05	213.69
365.43	213.80
365.81	213.81
366.19	213.98
366.57	214.09
366.95	214.00
367.33	213.78
367.71	213.73
368.09	213.79
368.47	213.77
368.85	213.75
369.23	213.88
369.61	213.73
369.99	213.82
370.37	213.81
370.75	213.85
371.13	213.72
371.51	213.58
371.89	213.52
372.27	213.50
372.65	213.49
373.03	213.42
373.41	213.38
373.78	213.29
374.16	213.04
374.54	212.84
374.92	212.87
375.30	212.91
375.68	212.75
376.06	212.75
376.44	212.66
376.82	212.60
377.19	212.48
377.57	212.41
377.95	212.24
378.33	212.20
378.71	211.92
379.09	211.92
379.47	211.93
379.84	211.93
380.22	211.83
380.60	211.70
380.98	211.69
381.36	211.61
381.73	211.52
382.11	211.54
382.49	211.55
382.87	211.42
383.25	211.34
383.62	211.79
384.00	211.61
384.38	211.58
384.76	211.75
385.13	211.86
385.51	211.81
385.89	211.70
386.27	211.66
386.64	211.68
387.02	211.64
387.40	211.52
387.78	211.47
388.15	211.42
388.53	211.37
388.91	211.36
389.29	211.37
389.66	211.45
390.04	211.36
390.42	211.39
390.79	211.44
391.17	211.42
391.55	210.96
391.92	211.01
392.30	211.10
392.68	210.92
393.05	210.92
393.43	211.01
393.81	211.01
394.18	210.96
394.56	210.98
394.94	210.98
395.31	210.96
395.69	211.00
396.06	211.11
396.44	211.17
396.82	211.13
397.19	211.24
397.57	211.17
397.95	211.29
398.32	211.17
398.70	211.26
399.07	211.40
399.45	211.46
399.82	211.44
400.20	211.41
400.58	211.49
400.95	211.32
401.33	211.41
401.70	211.75
402.08	211.83
402.45	211.94
402.83	212.14
403.20	212.33
403.58	212.45
403.95	212.57
404.33	212.68
404.71	212.83
405.08	213.20
405.46	213.37
405.83	213.50
406.21	213.73
406.58	213.93
406.96	214.14
407.33	214.43
407.70	214.88
408.08	215.45
408.45	215.78
408.83	216.25
409.20	216.61
409.58	216.82
409.95	217.35
410.33	217.85
410.70	218.24
411.08	218.87
411.45	219.46
411.82	220.09
412.20	220.96
412.57	221.93
412.95	222.47
413.32	223.41
413.69	224.26
414.07	225.32
414.44	226.43
414.82	227.55
415.19	228.93
415.56	230.12
415.94	231.42
416.31	233.08
416.68	234.67
417.06	236.50
417.43	238.30
417.81	240.22
418.18	242.30
418.55	244.54
418.93	246.76
419.30	249.11
419.67	251.69
420.04	254.30
420.42	257.01
420.79	260.34
421.16	263.54
421.54	267.07
421.91	270.53
422.28	274.16
422.66	277.95
423.03	281.74
423.40	285.65
423.77	289.87
424.15	294.05
424.52	298.45
424.89	303.25
425.26	307.98
425.64	312.62
426.01	317.54
426.38	322.71
426.75	328.08
427.13	333.62
427.50	339.33
427.87	345.32
428.24	351.35
428.61	356.98
428.99	363.36
429.36	370.24
429.73	376.91
430.10	383.64
430.47	390.64
430.85	397.81
431.22	405.64
431.59	413.77
431.96	421.59
432.33	430.21
432.70	438.65
433.08	448.49
433.45	457.63
433.82	466.80
434.19	477.09
434.56	487.12
434.93	496.92
435.30	506.85
435.68	517.67
436.05	528.45
436.42	539.28
436.79	549.34
437.16	560.08
437.53	571.37
437.90	582.67
438.27	593.80
438.64	605.62
439.01	616.31
439.38	625.95
439.75	635.58
440.13	646.21
440.50	656.50
440.87	664.86
441.24	673.74
441.61	683.71
441.98	691.05
442.35	699.79
442.72	708.33
443.09	716.67
443.46	722.02
443.83	725.98
444.20	729.62
444.57	734.30
444.94	736.75
445.31	739.61
445.68	742.37
446.05	744.07
446.42	743.70
446.79	743.24
447.16	742.65
447.53	742.25
447.90	739.17
448.27	735.92
448.64	731.06
449.01	727.68
449.37	720.85
449.74	714.60
450.11	706.73
450.48	698.26
450.85	689.23
451.22	681.78
451.59	674.55
451.96	667.50
452.33	657.90
452.70	649.53
453.07	639.34
453.43	628.64
453.80	618.49
454.17	608.78
454.54	599.64
454.91	589.82
455.28	580.25
455.65	571.16
456.02	562.05
456.38	554.38
456.75	544.73
457.12	536.76
457.49	528.81
457.86	520.98
458.23	514.18
458.59	506.98
458.96	499.64
459.33	493.03
459.70	486.50
460.07	481.38
460.43	475.41
460.80	469.73
461.17	464.91
461.54	459.79
461.91	454.78
462.27	449.76
462.64	445.46
463.01	440.74
463.38	436.11
463.74	431.47
464.11	427.40
464.48	423.96
464.85	420.12
465.21	417.21
465.58	414.20
465.95	410.42
466.32	407.23
466.68	404.13
467.05	400.99
467.42	397.84
467.78	394.48
468.15	391.37
468.52	389.03
468.88	385.90
469.25	383.13
469.62	380.98
469.98	378.47
470.35	376.26
470.72	374.15
471.08	371.94
471.45	369.95
471.82	368.01
472.18	365.75
472.55	364.24
472.92	362.30
473.28	360.50
473.65	359.00
474.02	357.43
474.38	355.99
474.75	354.95
475.11	353.61
475.48	352.76
475.85	351.86
476.21	350.98
476.58	350.33
476.94	349.83
477.31	349.21
477.67	348.72
478.04	348.20
478.41	347.86
478.77	347.87
479.14	347.44
479.50	347.17
479.87	347.20
480.23	347.18
480.60	346.98
480.96	346.96
481.33	347.18
481.69	347.35
482.06	347.48
482.42	347.44
482.79	347.79
483.15	348.09
483.52	348.62
483.88	349.01
484.25	349.44
484.61	349.94
484.98	350.39
485.34	351.17
485.71	351.97
486.07	352.69
486.44	353.26
486.80	354.32
487.17	355.46
487.53	356.69
487.90	357.87
488.26	359.35
488.62	360.86
488.99	362.35
489.35	363.88
489.72	365.65
490.08	367.55
490.44	369.37
490.81	371.27
491.17	373.13
491.54	375.18
491.90	377.35
492.26	379.51
492.63	381.84
492.99	384.04
493.36	386.49
493.72	389.09
494.08	391.77
494.45	394.51
494.81	397.30
495.17	400.04
495.54	403.02
495.90	405.94
496.26	408.89
496.63	411.89
496.99	415.08
497.35	418.20
497.72	421.44
498.08	424.51
498.44	427.76
498.80	431.27
499.17	434.80
499.53	438.29
499.89	441.94
500.26	445.43
500.62	448.94
500.98	452.66
501.34	456.17
501.71	459.72
502.07	463.19
502.43	466.70
502.79	470.20
503.16	473.53
503.52	477.06
503.88	480.50
504.24	484.02
504.60	487.50
504.97	490.93
505.33	494.29
505.69	498.00
506.05	501.57
506.41	504.75
506.78	507.91
507.14	510.92
507.50	513.96
507.86	516.99
508.22	520.13
508.59	522.80
508.95	525.68
509.31	528.63
509.67	531.57
510.03	534.36
510.39	537.14
510.75	539.88
511.12	542.41
511.48	544.92
511.84	547.37
512.20	549.70
512.56	552.16
512.92	554.55
513.28	556.68
513.64	558.53
514.00	560.73
514.37	562.60
514.73	564.64
515.09	566.47
515.45	568.41
515.81	570.12
516.17	571.83
516.53	573.48
516.89	574.80
517.25	576.12
517.61	577.43
517.97	578.70
518.33	579.79
518.69	580.95
519.05	582.12
519.41	583.25
519.77	584.55
520.13	585.44
520.49	586.29
520.85	587.10
521.21	588.09
521.57	588.85
521.93	589.43
522.29	590.27
522.65	591.15
523.01	591.77
523.37	592.31
523.73	592.95
524.09	593.42
524.45	594.25
524.81	595.03
525.17	595.89
525.53	596.76
525.89	597.51
526.25	598.24
526.61	598.93
526.97	599.60
527.33	600.14
527.68	601.10
528.04	601.90
528.40	602.65
528.76	603.46
529.12	604.37
529.48	605.58
529.84	606.45
530.20	607.33
530.56	608.50
530.91	609.83
531.27	611.15
531.63	612.48
531.99	613.79
532.35	615.00
532.71	616.15
533.07	617.50
533.42	619.30
533.78	620.87
534.14	622.46
534.50	623.72
534.86	625.40
535.21	626.73
535.57	628.37
535.93	630.12
536.29	632.05
536.65	633.94
537.00	635.60
537.36	637.27
537.72	638.97
538.08	640.65
538.44	642.36
538.79	644.25
539.15	646.20
539.51	648.07
539.87	650.17
540.22	652.25
540.58	654.42
540.94	656.35
541.29	658.42
541.65	660.27
542.01	662.68
542.37	664.83
542.72	667.04
543.08	669.23
543.44	671.69
543.79	673.69
544.15	675.86
544.51	678.62
544.87	681.26
545.22	683.79
545.58	686.24
545.94	688.59
546.29	690.82
546.65	693.16
547.01	695.50
547.36	697.68
547.72	699.91
548.07	702.20
548.43	704.39
548.79	706.51
549.14	709.10
549.50	711.40
549.86	713.72
550.21	716.12
550.57	718.58
550.92	720.69
551.28	723.13
551.64	725.38
551.99	727.67
552.35	729.91
552.70	732.30
553.06	734.65
553.41	737.10
553.77	739.70
554.13	742.17
554.48	744.73
554.84	747.37
555.19	749.79
555.55	752.32
555.90	754.69
556.26	757.01
556.61	759.10
556.97	761.24
557.32	763.35
557.68	765.57
558.03	767.56
558.39	769.54
558.74	771.62
559.10	773.76
559.45	775.63
559.81	777.66
560.16	779.44
560.52	781.54
560.87	783.47
561.23	785.09
561.58	787.14
561.94	788.68
562.29	790.23
562.64	791.98
563.00	793.41
563.35	795.20
563.71	797.35
564.06	799.12
564.42	801.08
564.77	803.08
565.12	804.97
565.48	807.09
565.83	809.09
566.19	810.95
566.54	812.45
566.89	814.05
567.25	816.06
567.60	818.06
567.96	819.84
568.31	821.76
568.66	823.43
569.02	824.61
569.37	825.95
569.72	827.40
570.08	828.73
570.43	830.01
570.78	831.24
571.14	831.87
571.49	832.71
571.84	833.66
572.20	834.24
572.55	835.04
572.90	835.23
573.26	835.49
573.61	835.79
573.96	836.20
574.31	836.50
574.67	836.11
575.02	835.79
575.37	835.51
575.72	834.75
576.08	834.55
576.43	834.21
576.78	834.01
577.13	833.76
577.49	833.59
577.84	833.20
578.19	832.73
578.54	832.82
578.90	832.69
579.25	832.19
579.60	831.65
579.95	830.75
580.30	830.25
580.66	829.72
581.01	828.81
581.36	827.98
581.71	827.10
582.06	826.67
582.42	826.14
582.77	825.17
583.12	824.50
583.47	823.52
583.82	822.75
584.17	821.74
584.53	820.85
584.88	819.65
585.23	818.60
585.58	817.38
585.93	815.96
586.28	814.82
586.63	813.63
586.98	812.72
587.34	811.86
587.69	810.85
588.04	809.87
588.39	809.09
588.74	807.96
589.09	806.91
589.44	805.29
589.79	803.81
590.14	802.78
590.49	801.52
590.84	800.17
591.19	799.05
591.54	797.89
591.89	796.09
592.25	795.00
592.60	793.37
592.95	791.93
593.30	790.24
593.65	788.27
594.00	786.53
594.35	785.58
594.70	783.61
595.05	781.91
595.40	780.13
595.75	778.16
596.10	776.56
596.45	774.98
596.80	773.54
597.15	772.06
597.50	770.16
597.85	768.53
598.19	767.03
598.54	765.16
598.89	763.41
599.24	762.02
599.59	760.01
599.94	758.46
600.29	756.72
600.64	755.02
600.99	753.43
601.34	751.76
601.69	748.88
602.04	746.82
602.39	745.00
602.74	743.16
603.08	741.43
603.43	740.00
603.78	737.92
604.13	736.00
604.48	734.01
604.83	732.35
605.18	730.70
605.53	728.65
605.87	726.58
606.22	724.70
606.57	722.46
606.92	720.40
607.27	718.27
607.62	716.27
607.96	714.45
608.31	712.67
608.66	710.42
609.01	708.35
609.36	706.40
609.70	704.18
610.05	701.80
610.40	699.54
610.75	696.90
611.10	694.96
611.44	692.50
611.79	689.95
612.14	687.37
612.49	684.64
612.83	682.26
613.18	679.90
613.53	677.41
613.88	675.10
614.22	672.76
614.57	670.33
614.92	667.93
615.27	665.32
615.61	662.72
615.96	660.51
616.31	658.30
616.65	656.20
617.00	653.75
617.35	651.44
617.70	649.03
618.04	646.38
618.39	643.45
618.74	640.98
619.08	638.58
619.43	636.15
619.78	633.90
620.12	631.50
620.47	629.09
620.82	626.55
621.16	623.89
621.51	621.41
621.85	619.07
622.20	616.41
622.55	613.91
622.89	611.40
623.24	608.92
623.59	606.29
623.93	603.82
624.28	601.38
624.62	599.40
624.97	597.06
625.32	594.84
625.66	592.72
626.01	590.47
626.35	588.29
626.70	585.90
627.04	583.56
627.39	581.16
627.73	578.96
628.08	576.78
628.43	574.50
628.77	572.10
629.12	569.58
629.46	567.43
629.81	565.11
630.15	562.81
630.50	560.40
630.84	558.03
631.19	555.68
631.53	553.43
631.88	550.60
632.22	548.22
632.57	546.18
632.91	543.83
633.26	541.55
633.60	539.23
633.95	537.15
634.29	534.88
634.64	532.85
634.98	530.43
635.32	528.19
635.67	526.31
636.01	524.23
636.36	522.23
636.70	520.23
637.05	518.25
637.39	516.24
637.73	514.32
638.08	512.71
638.42	510.82
638.77	509.03
639.11	507.18
639.45	505.29
639.80	503.00
640.14	500.95
640.49	498.96
640.83	496.92
641.17	494.89
641.52	492.81
641.86	490.68
642.20	488.88
642.55	486.66
642.89	484.55
643.23	482.52
643.58	480.65
643.92	478.52
644.26	476.48
644.61	474.59
644.95	472.47
645.29	470.29
645.64	468.25
645.98	466.05
646.32	463.99
646.66	461.83
647.01	459.96
647.35	458.21
647.69	456.26
648.04	454.45
648.38	452.41
648.72	450.61
649.06	448.63
649.41	446.55
649.75	444.70
650.09	442.80
650.43	440.97
650.78	438.80
651.12	436.93
651.46	435.04
651.80	433.19
652.14	431.41
652.49	429.55
652.83	427.68
653.17	425.80
653.51	424.08
653.85	422.25
654.20	420.49
654.54	418.37
654.88	416.51
655.22	414.61
655.56	412.79
655.90	410.85
656.25	409.02
656.59	407.25
656.93	405.60
657.27	403.93
657.61	402.16
657.95	400.46
658.29	398.79
658.64	397.20
658.98	395.39
659.32	393.60
659.66	391.84
660.00	390.07
660.34	388.42
660.68	386.55
661.02	384.94
661.36	383.26
661.70	381.70
662.05	380.15
662.39	378.72
662.73	377.35
663.07	375.95
663.41	374.48
663.75	372.98
664.09	371.45
664.43	369.80
664.77	368.32
665.11	366.88
665.45	365.43
665.79	363.99
666.13	362.55
666.47	361.14
666.81	359.91
667.15	358.51
667.49	357.22
667.83	356.07
668.17	354.77
668.51	353.51
668.85	352.40
669.19	351.18
669.53	349.76
669.87	348.39
670.21	347.01
670.55	345.74
670.89	344.64
671.23	343.50
671.57	342.41
671.91	341.25
672.25	340.24
672.58	339.13
672.92	337.92
673.26	336.82
673.60	335.69
673.94	334.39
674.28	333.33
674.62	332.18
674.96	331.04
675.30	330.01
675.64	328.85
675.97	327.75
676.31	326.72
676.65	325.65
676.99	324.89
677.33	323.84
677.67	322.93
678.01	321.75
678.34	320.65
678.68	319.65
679.02	318.51
679.36	317.38
679.70	316.31
680.04	315.37
680.37	314.41
680.71	313.49
681.05	312.64
681.39	311.72
681.73	310.79
682.06	309.89
682.40	308.92
682.74	307.99
683.08	307.16
683.42	306.18
683.75	305.31
684.09	304.21
684.43	303.31
684.77	302.34
685.10	301.50
685.44	300.63
685.78	299.71
686.12	298.99
686.45	298.23
686.79	297.43
687.13	296.58
687.46	295.77
687.80	294.98
688.14	294.14
688.48	293.43
688.81	292.62
689.15	291.81
689.49	291.03
689.82	290.22
690.16	289.20
690.50	288.31
690.83	287.53
691.17	286.66
691.51	285.89
691.84	285.15
692.18	284.40
692.52	283.54
692.85	283.03
693.19	282.43
693.52	281.67
693.86	280.78
694.20	280.14
694.53	279.32
694.87	278.56
695.21	277.78
695.54	276.95
695.88	276.13
696.21	275.41
696.55	274.74
696.88	274.12
697.22	273.50
697.56	272.92
697.89	272.26
698.23	271.60
698.56	270.97
698.90	270.41
699.23	269.80
699.57	269.25
699.90	268.39
700.24	267.56
700.58	266.89
700.91	266.44
701.25	266.04
701.58	265.57
701.92	265.08
702.25	264.55
702.59	264.02
702.92	263.59
703.26	263.04
703.59	262.51
703.93	262.18
704.26	261.70
704.60	261.13
704.93	260.60
705.26	260.09
705.60	259.62
705.93	258.98
706.27	258.52
706.60	258.16
706.94	257.90
707.27	257.46
707.61	257.12
707.94	256.56
708.27	255.80
708.61	255.20
708.94	254.73
709.28	254.20
709.61	253.66
709.94	253.27
710.28	252.88
710.61	252.55
710.95	251.83
711.28	251.65
711.61	251.33
711.95	250.93
712.28	250.53
712.61	250.11
712.95	249.98
713.28	249.70
713.61	249.26
713.95	248.80
714.28	248.40
714.61	247.93
714.95	247.60
715.28	247.17
715.61	246.82
715.95	246.48
716.28	246.13
716.61	245.88
716.95	245.44
717.28	245.06
717.61	244.61
717.94	244.34
718.28	243.69
718.61	243.31
718.94	242.99
719.27	242.65
719.61	242.33
719.94	241.89
720.27	241.48
720.60	241.19
720.94	240.75
721.27	240.47
721.60	240.21
721.93	239.92
722.27	239.84
722.60	239.63
722.93	239.15
723.26	239.01
723.59	238.64
723.93	238.35
724.26	238.11
724.59	237.84
724.92	237.61
725.25	237.45
725.59	237.23
725.92	236.96
726.25	236.77
726.58	236.56
726.91	236.25
727.24	236.03
727.57	235.73
727.91	235.50
728.24	235.25
728.57	234.97
728.90	234.73
729.23	234.38
729.56	234.35
729.89	234.31
730.22	233.95
730.55	233.67
730.89	233.52
731.22	233.30
731.55	233.06
731.88	232.81
732.21	232.57
732.54	232.31
732.87	232.09
733.20	231.88
733.53	231.68
733.86	231.53
734.19	231.29
734.52	231.16
734.85	231.20
735.18	231.08
735.51	231.09
735.84	230.94
736.17	230.84
736.50	230.45
736.83	230.61
737.16	230.49
737.49	230.36
737.82	230.14
738.15	229.98
738.48	229.82
738.81	229.62
739.14	229.37
739.47	229.09
739.80	228.92
740.13	228.81
740.46	228.55
740.79	228.32
741.12	228.11
741.45	227.93
741.78	227.55
742.11	227.43
742.44	227.11
742.77	226.95
743.10	226.69
743.43	226.51
743.75	225.95
744.08	226.18
744.41	226.03
744.74	225.88
745.07	225.67
745.40	225.58
745.73	225.58
746.06	225.50
746.39	225.53
746.71	225.40
747.04	225.20
747.37	225.07
747.70	225.01
748.03	224.87
748.36	224.74
748.68	224.59
749.01	224.33
749.34	224.21
749.67	224.04
750.00	223.89
750.33	224.02
750.65	223.92
750.98	223.40
751.31	223.27
751.64	223.12
751.97	223.14
752.29	222.99
752.62	222.67
752.95	222.55
753.28	222.40
753.60	222.26
753.93	222.19
754.26	222.05
754.59	221.83
754.91	221.73
755.24	221.60
755.57	221.49
755.90	221.36
756.22	221.27
756.55	221.17
756.88	221.06
757.20	220.70
757.53	220.53
757.86	220.41
758.19	220.32
758.51	220.24
758.84	219.99
759.17	219.84
759.49	219.80
759.82	219.78
760.15	219.67
760.47	219.59
760.80	219.39
761.13	219.43
761.45	219.30
761.78	219.21
762.11	219.05
762.43	218.90
762.76	218.92
763.08	218.84
763.41	218.79
763.74	218.74
764.06	218.70
764.39	218.67
764.71	218.62
765.04	218.55
765.37	218.45
765.69	218.39
766.02	218.30
766.34	218.25
766.67	218.04
767.00	218.03
767.32	218.12
767.65	218.25
767.97	218.18
768.30	218.18
768.62	218.11
768.95	218.03
769.27	218.11
769.60	218.02
769.92	217.88
770.25	217.73
770.57	217.61
770.90	217.47
771.22	217.33
771.55	217.28
771.87	217.20
772.20	217.14
772.52	217.38
772.85	217.72
773.17	217.56
773.50	217.52
773.82	217.32
774.15	217.09
774.47	216.80
774.80	216.66
775.12	216.64
775.45	216.58
775.77	216.66
776.09	216.54
776.42	216.45
776.74	216.44
777.07	216.38
777.39	216.34
777.72	216.36
778.04	216.39
778.36	216.32
778.69	216.35
779.01	216.33
779.33	215.98
779.66	215.57
779.98	215.59
780.31	215.58
780.63	215.72
780.95	215.68
781.28	215.65
781.60	215.57
781.92	215.47
782.25	215.40
782.57	215.30
782.89	215.20
783.22	215.21
783.54	215.07
783.86	215.08
784.19	215.02
784.51	214.99
784.83	214.81
785.16	214.73
785.48	214.71
785.80	214.70
786.12	214.67
786.45	214.61
786.77	214.58
787.09	214.53
787.42	214.38
787.74	214.36
788.06	214.35
788.38	214.26
788.71	214.10
789.03	214.11
789.35	214.14
789.67	214.20
789.99	214.11
790.32	214.13
790.64	214.07
790.96	214.35
791.28	214.25
791.61	214.30
791.93	214.31
792.25	214.19
792.57	214.32
792.89	214.26
793.21	214.27
793.54	214.15
793.86	214.08
794.18	214.10
794.50	214.05
794.82	214.07
795.14	214.14
795.47	214.28
795.79	214.27
796.11	214.16
796.43	214.03
796.75	214.06
797.07	213.96
797.39	213.97
797.71	213.73
798.04	213.72
798.36	213.66
798.68	213.64
799.00	213.65
799.32	213.46
799.64	213.51
799.96	213.45
800.28	213.53
800.60	213.53
800.92	213.52
801.24	213.50
801.56	213.48
801.89	213.48
802.21	213.50
802.53	213.42
802.85	213.47
803.17	213.66
803.49	213.57
803.81	213.63
804.13	213.53
804.45	213.49
804.77	213.50
805.09	213.52
805.41	213.41
805.73	213.37
806.05	213.30
806.37	213.25
806.69	213.16
807.01	213.19
807.33	213.17
807.65	213.03
807.97	213.14
808.28	213.15
808.60	213.01
808.92	212.96
809.24	213.20
809.56	213.15
809.88	212.98
810.20	212.99
810.52	213.11
810.84	213.15
811.16	213.11
811.48	213.08
811.80	213.16
812.12	213.19
812.43	213.20
812.75	213.23
813.07	213.20
813.39	213.32
813.71	213.17
814.03	213.17
814.35	213.21
814.67	213.08
814.98	212.97
815.30	213.06
815.62	212.95
815.94	212.67
816.26	212.64
816.58	212.57
816.89	212.61
817.21	212.44
817.53	212.40
817.85	212.43
818.17	212.48
818.48	212.37
818.80	212.47
819.12	212.45
819.44	212.43
819.76	212.43
820.07	212.39
820.39	212.39
820.71	212.37
821.03	212.33
821.34	212.33
821.66	212.39
821.98	212.42
822.30	212.42
822.61	212.65
822.93	212.68
823.25	212.60
823.57	212.54
823.88	212.60
824.20	212.62
824.52	212.61
824.83	212.62
825.15	212.64
825.47	212.59
825.79	212.55
826.10	212.50
826.42	212.43
826.74	212.46
827.05	212.52
827.37	212.58
827.69	212.57
828.00	212.62
828.32	212.63
828.64	212.58
828.95	212.72
829.27	212.60
829.58	212.53
829.90	212.59
830.22	212.55
830.53	212.48
830.85	212.43
831.17	212.32
831.48	212.22
831.80	212.17
832.11	212.10
832.43	212.05
832.75	212.06
833.06	212.25
833.38	212.12
833.69	212.09
834.01	212.00
834.32	211.99
834.64	211.87
834.96	211.86
835.27	211.77
835.59	211.65
835.90	211.54
836.22	211.51
836.53	211.50
836.85	211.55
837.16	211.81
837.48	211.79
837.79	211.94
838.11	211.94
838.42	211.94
838.74	211.99
839.05	211.95
839.37	211.90
839.68	211.70
840.00	211.70
840.31	211.70
840.63	211.66
840.94	211.62
841.26	211.60
841.57	211.51
841.88	211.57
842.20	211.50
842.51	211.50
842.83	211.47
843.14	211.76
843.46	211.76
843.77	211.60
844.08	211.52
844.40	211.41
844.71	211.43
845.03	211.45
845.34	211.40
845.65	211.43
845.97	211.37
846.28	211.37
846.60	211.32
846.91	211.21
847.22	211.25
847.54	211.33
847.85	211.36
848.16	211.40
848.48	211.32
848.79	211.48
849.10	211.47
849.42	211.52
849.73	211.15
850.04	211.10
850.36	211.03
850.67	211.20
850.98	211.17
851.30	211.23
851.61	211.16
851.92	211.18
852.23	211.31
852.55	211.38
852.86	211.45
853.17	211.58
853.49	211.70
853.80	211.80
854.11	211.78
854.42	211.85
854.74	211.80
855.05	211.80
855.36	211.60
855.67	211.63
855.99	211.68
856.30	212.14
856.61	212.13
856.92	212.13
857.23	212.11
857.55	212.10
857.86	212.05
858.17	212.08
858.48	212.04
858.79	211.96
859.11	212.00
859.42	211.93
859.73	211.88
860.04	211.89
860.35	211.80
860.66	211.76
860.98	211.78
861.29	211.81
861.60	211.84
861.91	211.95
862.22	211.88
862.53	211.80
862.84	211.41
863.16	211.51
863.47	211.44
863.78	211.40
864.09	211.38
864.40	211.39
864.71	211.43
865.02	211.41
865.33	211.35
865.64	211.28
865.95	211.30
866.27	211.50
866.58	211.48
866.89	211.56
867.20	211.50
867.51	211.44
867.82	211.45
868.13	211.57
868.44	211.50
868.75	211.57
869.06	211.50
869.37	211.54
869.68	211.39
869.99	211.49
870.30	211.50
870.61	211.53
870.92	211.44
871.23	211.39
871.54	211.47
871.85	211.51
872.16	211.54
872.47	211.50
872.78	211.29
873.09	211.31
873.40	211.17
873.71	211.26
874.02	211.27
874.33	211.18
874.64	211.06
874.95	211.14
875.26	211.04
875.56	211.12
875.87	211.09
876.18	211.14
876.49	211.41
876.80	211.38
877.11	211.34
877.42	211.32
877.73	211.34
878.04	211.23
878.35	211.22
878.66	211.30
878.96	211.30
879.27	211.35
879.58	211.23
879.89	211.23
880.20	211.31
880.51	211.24
880.82	211.31
881.12	211.36
881.43	211.26
881.74	211.28
882.05	211.23
882.36	211.25
882.67	211.25
882.97	210.88
883.28	210.86
883.59	210.90
883.90	211.00
884.21	211.01
884.51	210.95
884.82	210.93
885.13	210.95
885.44	210.90
885.74	210.83
886.05	210.90
886.36	210.95
886.67	210.81
886.98	211.00
887.28	210.99
887.59	211.01
887.90	211.00
888.20	210.96
888.51	211.08
888.82	211.02
889.13	211.11
889.43	211.38
889.74	211.30
890.05	211.30
890.35	211.27
890.66	211.22
890.97	211.30
891.28	211.30
891.58	211.26
891.89	211.32
892.20	211.33
892.50	211.23
892.81	211.24
893.12	211.20
893.42	211.05
893.73	211.08
894.04	211.05
894.34	211.11
894.65	211.13
894.95	211.02
895.26	211.05
895.57	211.16
895.87	210.87
896.18	210.99
896.48	210.96
896.79	210.89
897.10	210.94
897.40	210.92
897.71	210.96
898.01	210.94
898.32	210.94
898.63	210.99
898.93	211.08
899.24	211.05
899.54	211.00
899.85	210.95
900.15	211.01
900.46	210.97
900.76	210.92
901.07	210.95
901.38	211.03
901.68	211.05
901.99	210.90
902.29	210.88
902.60	210.84
902.90	210.83
903.21	210.87
903.51	210.78
903.82	210.87
904.12	210.90
904.43	210.84
904.73	210.82
905.03	210.76
905.34	211.11
905.64	211.06
905.95	211.10
906.25	211.10
906.56	211.08
906.86	211.12
907.17	211.17
907.47	211.18
907.77	211.15
908.08	211.04
908.38	211.05
908.69	211.13
908.99	211.13
909.30	211.18
909.60	211.18
909.90	211.32
910.21	211.23
910.51	211.17
910.81	211.24
911.12	211.28
911.42	211.28
911.73	210.90
912.03	210.93
912.33	210.98
912.64	210.93
912.94	210.80
913.24	210.74
913.55	210.67
913.85	210.66
914.15	210.66
914.46	210.78
914.76	210.75
915.06	210.71
915.37	210.68
915.67	210.63
915.97	210.65
916.27	210.55
916.58	210.59
916.88	210.59
917.18	210.50
917.49	210.77
917.79	210.75
918.09	210.75
918.39	210.86
918.70	210.90
919.00	210.96
919.30	211.16
919.60	211.17
919.91	211.17
920.21	211.19
920.51	211.16
920.81	211.07
921.12	211.10
921.42	211.20
921.72	211.23
922.02	211.26
922.32	211.35
922.63	211.31
922.93	211.40
923.23	211.39
923.53	211.39
923.83	211.07
924.13	211.11
924.44	211.15
924.74	211.17
925.04	211.22
925.34	211.27
925.64	211.10
925.94	211.05
926.24	211.27
926.55	211.22
926.85	211.26
927.15	211.30
927.45	211.25
927.75	211.19
928.05	211.15
928.35	211.14
928.65	211.16
928.95	211.17
929.26	211.06
929.56	211.19
929.86	211.26
930.16	211.33
930.46	211.27
930.76	211.24
931.06	211.09
931.36	211.03
931.66	211.10
931.96	211.17
932.26	211.29
932.56	211.11
932.86	211.15
933.16	211.18
933.46	211.21
933.76	211.22
934.06	211.19
934.36	211.38
934.66	211.35
934.96	211.27
935.26	211.32
935.56	211.34
935.86	211.22
936.16	211.19
936.46	211.09
936.76	211.17
937.06	211.16
937.36	211.21
937.66	211.17
937.96	211.05
938.26	211.05
938.56	210.99
938.86	210.97
939.16	211.05
939.46	211.08
939.76	211.06
940.06	211.06
940.35	211.10
940.65	210.85
940.95	210.91
941.25	210.86
941.55	210.81
941.85	210.84
942.15	210.94
942.45	211.00
942.75	211.05
943.04	210.97
943.34	211.04
943.64	211.01
943.94	211.03
944.24	211.07
944.54	211.10
944.84	211.07
945.13	211.08
945.43	211.05
945.73	210.95
946.03	210.95
946.33	210.86
946.62	210.76
946.92	210.85
947.22	210.86
947.52	210.85
947.82	210.96
948.11	210.88
948.41	210.77
948.71	210.70
949.01	210.69
949.31	210.70
949.60	210.60
949.90	210.66
950.20	210.60
950.50	210.60
950.79	210.50
951.09	210.63
951.39	210.57
951.69	210.50
951.98	210.63
952.28	210.62
952.58	210.71
952.87	210.72
953.17	210.71
953.47	210.69
953.76	210.75
954.06	210.67
954.36	210.64
954.66	210.62
954.95	210.71
955.25	210.76
955.55	210.85
955.84	210.89
956.14	210.93
956.44	211.00
956.73	210.92
957.03	210.96
957.32	210.84
957.62	210.93
957.92	210.97
958.21	210.88
958.51	211.26
958.81	211.33
959.10	211.39
959.40	211.46
959.69	211.46
959.99	211.36
960.29	211.33
960.58	211.33
960.88	211.47
961.17	211.43
961.47	211.45
961.76	211.36
962.06	211.43
962.36	211.33
962.65	211.30
962.95	211.33
963.24	211.28
963.54	211.33
963.83	211.32
964.13	211.31
964.42	211.27
964.72	210.99
965.01	210.95
965.31	210.90
965.60	210.77
965.90	210.93
966.19	210.99
966.49	210.96
966.78	211.01
967.08	210.97
967.37	210.96
967.67	210.90
967.96	210.94
968.26	210.87
968.55	210.98
968.85	210.97
969.14	210.99
969.43	211.06
969.73	211.02
970.02	210.94
970.32	210.95
970.61	210.94
970.91	210.85
971.20	210.82
971.49	210.84
971.79	210.95
972.08	210.75
972.38	210.76
972.67	210.75
972.96	210.81
973.26	210.78
973.55	210.91
973.85	210.90
974.14	210.95
974.43	211.00
974.73	210.94
975.02	210.90
975.31	210.95
975.61	210.94
975.90	210.98
976.19	210.99
976.49	211.03
976.78	211.08
977.07	211.10
977.37	211.19
977.66	211.23
977.95	211.15
978.24	211.26
978.54	211.33
978.83	211.39
979.12	211.30
979.42	211.26
979.71	211.16
980.00	211.12
980.29	211.12
980.59	211.03
980.88	211.16
981.17	211.19
981.46	211.23
981.76	211.23
982.05	211.26
982.34	211.31
982.63	211.28
982.93	211.27
983.22	211.38
983.51	211.33
983.80	211.41
984.09	211.59
984.39	211.53
984.68	211.53
984.97	211.55
985.26	211.60
985.55	211.66
985.85	211.58
986.14	211.75
986.43	211.75
986.72	211.77
987.01	211.56
987.30	211.60
987.59	211.50
987.89	211.51
988.18	211.47
988.47	211.43
988.76	211.42
989.05	211.45
989.34	211.36
989.63	211.46
989.92	211.31
990.22	211.12
990.51	211.08
990.80	211.05
991.09	211.07
991.38	211.10
991.67	211.06
991.96	211.05
992.25	211.01
992.54	210.93
992.83	210.93
993.12	210.92
993.41	210.88
993.70	211.00
993.99	211.04
994.28	211.06
994.58	211.11
994.87	211.08
995.16	211.01
995.45	210.95
995.74	210.78
996.03	210.89
996.32	210.99
996.61	211.03
996.90	210.97
997.19	210.96
997.48	210.95
997.77	210.86
998.06	210.89
998.34	210.83
998.63	210.86
998.92	210.85
999.21	210.99
999.50	211.00
999.79	210.94
1000.08	210.90
1000.37	210.91
1000.66	210.91
1000.95	210.97
1001.24	210.96
1001.53	211.05
1001.82	210.97
1002.11	210.85
1002.40	210.93
1002.68	211.00
1002.97	211.25
1003.26	211.16
1003.55	211.10
1003.84	211.12
1004.13	211.18
1004.42	211.17
1004.71	211.15
1004.99	211.13
1005.28	211.27
1005.57	211.32
1005.86	211.18
1006.15	211.15
1006.44	211.10
1006.72	211.10
1007.01	211.08
1007.30	211.10
1007.59	211.04
1007.88	211.13
1008.17	211.10
1008.45	210.91
1008.74	210.74
1009.03	210.60
1009.32	210.60
1009.60	210.64
1009.89	210.60
1010.18	210.45
1010.47	210.46
1010.76	210.43
1011.04	210.44
1011.33	210.39
1011.62	210.35
1011.91	210.40
1012.19	210.44
1012.48	210.38
1012.77	210.38
1013.05	210.52
1013.34	210.50
1013.63	210.53
1013.92	210.61
1014.20	210.70
1014.49	210.74
1014.78	210.88
1015.06	210.75
1015.35	210.74
1015.64	210.74
1015.92	210.92
1016.21	210.96
1016.50	210.88
1016.78	210.95
1017.07	210.97
1017.36	210.84
1017.64	210.80
1017.93	210.83
1018.22	210.75
1018.50	210.85
1018.79	210.85
1019.08	210.68
1019.36	210.69
1019.65	210.62
1019.93	210.68
1020.22	210.75
1020.51	210.91
1020.79	210.83
1021.08	209.30
1021.36	211.20
1021.65	211.35
1021.94	210.60
1022.22	210.50
1022.51	210.20
1022.79	212.75
1023.08	212.25
1023.36	214.25
1023.65	210.15
>>>>>End Processed Spectral Data<<<<<
