SpectraSuite Data File
++++++++++++++++++++++++++++++++++++
Date: Mon Feb 25 17:05:30 EST 2013
User: group
Dark Spectrum Present: No
Reference Spectrum Present: No
Number of Sampled Component Spectra: 1
Spectrometers: USB2E7196
Integration Time (usec): 104000 (USB2E7196)
Spectra Averaged: 20 (USB2E7196)
Boxcar Smoothing: 10 (USB2E7196)
Correct for Electrical Dark: No (USB2E7196)
Strobe/Lamp Enabled: No (USB2E7196)
Correct for Detector Non-linearity: No (USB2E7196)
Correct for Stray Light: No (USB2E7196)
Number of Pixels in Processed Spectrum: 2048
>>>>>Begin Processed Spectral Data<<<<<
339.09	0.00
339.48	197.35
339.86	198.90
340.24	200.70
340.63	203.50
341.01	209.55
341.39	204.35
341.78	206.50
342.16	207.80
342.54	207.40
342.93	197.77
343.31	207.81
343.69	208.32
344.07	208.85
344.46	209.32
344.84	209.60
345.22	209.65
345.60	209.87
345.99	210.11
346.37	210.25
346.75	210.40
347.13	210.41
347.52	210.53
347.90	210.68
348.28	210.69
348.66	210.83
349.05	210.70
349.43	210.75
349.81	210.78
350.19	210.77
350.57	210.87
350.96	210.99
351.34	211.02
351.72	211.19
352.10	211.25
352.48	211.30
352.87	211.38
353.25	211.42
353.63	211.48
354.01	211.57
354.39	211.61
354.77	211.75
355.15	211.99
355.54	211.96
355.92	211.92
356.30	211.97
356.68	212.15
357.06	212.32
357.44	212.40
357.82	212.46
358.20	212.60
358.58	212.64
358.97	212.69
359.35	212.86
359.73	212.99
360.11	213.03
360.49	213.13
360.87	213.24
361.25	213.36
361.63	213.54
362.01	213.47
362.39	213.51
362.77	213.51
363.15	213.43
363.53	213.44
363.91	213.40
364.29	213.48
364.67	213.25
365.05	213.29
365.43	213.29
365.81	213.31
366.19	213.43
366.57	213.61
366.95	213.58
367.33	213.49
367.71	213.48
368.09	213.54
368.47	213.51
368.85	213.46
369.23	213.55
369.61	213.38
369.99	213.54
370.37	213.59
370.75	213.73
371.13	213.64
371.51	213.65
371.89	213.73
372.27	213.60
372.65	213.63
373.03	213.52
373.41	213.44
373.78	213.38
374.16	213.10
374.54	212.91
374.92	212.77
375.30	212.66
375.68	212.53
376.06	212.49
376.44	212.36
376.82	212.24
377.19	212.10
377.57	212.09
377.95	211.92
378.33	211.80
378.71	211.51
379.09	211.56
379.47	211.44
379.84	211.32
380.22	211.35
380.60	211.18
380.98	211.16
381.36	211.12
381.73	210.96
382.11	211.06
382.49	210.98
382.87	210.98
383.25	210.98
383.62	211.32
384.00	211.15
384.38	211.13
384.76	211.20
385.13	211.22
385.51	211.18
385.89	211.06
386.27	211.05
386.64	211.06
387.02	210.99
387.40	210.93
387.78	210.92
388.15	210.84
388.53	210.71
388.91	210.69
389.29	210.70
389.66	210.77
390.04	210.64
390.42	210.69
390.79	210.68
391.17	210.55
391.55	210.12
391.92	210.20
392.30	210.25
392.68	210.16
393.05	210.14
393.43	210.10
393.81	210.14
394.18	210.08
394.56	210.05
394.94	210.12
395.31	210.13
395.69	210.21
396.06	210.24
396.44	210.31
396.82	210.32
397.19	210.45
397.57	210.41
397.95	210.49
398.32	210.43
398.70	210.49
399.07	210.72
399.45	210.72
399.82	210.68
400.20	210.64
400.58	210.70
400.95	210.55
401.33	210.66
401.70	210.92
402.08	210.98
402.45	211.01
402.83	211.07
403.20	211.10
403.58	211.12
403.95	211.24
404.33	211.45
404.71	211.42
405.08	211.68
405.46	211.80
405.83	211.89
406.21	211.99
406.58	212.10
406.96	212.18
407.33	212.35
407.70	212.54
408.08	212.96
408.45	213.18
408.83	213.52
409.20	213.70
409.58	213.73
409.95	214.02
410.33	214.37
410.70	214.59
411.08	214.95
411.45	215.29
411.82	215.57
412.20	215.93
412.57	216.61
412.95	216.74
413.32	217.21
413.69	217.68
414.07	218.18
414.44	218.73
414.82	219.26
415.19	219.94
415.56	220.62
415.94	221.23
416.31	222.00
416.68	222.77
417.06	223.69
417.43	224.60
417.81	225.56
418.18	226.53
418.55	227.59
418.93	228.74
419.30	229.96
419.67	231.20
420.04	232.43
420.42	233.65
420.79	235.51
421.16	237.13
421.54	239.01
421.91	240.70
422.28	242.47
422.66	244.35
423.03	246.36
423.40	248.23
423.77	250.25
424.15	252.28
424.52	254.51
424.89	256.93
425.26	259.21
425.64	261.37
426.01	263.82
426.38	266.40
426.75	269.09
427.13	271.75
427.50	274.62
427.87	277.62
428.24	280.58
428.61	283.15
428.99	286.34
429.36	289.50
429.73	292.88
430.10	296.16
430.47	299.59
430.85	302.95
431.22	306.79
431.59	310.93
431.96	314.75
432.33	318.92
432.70	323.07
433.08	327.83
433.45	332.47
433.82	336.88
434.19	341.86
434.56	346.77
434.93	351.50
435.30	356.16
435.68	361.41
436.05	366.69
436.42	371.85
436.79	376.67
437.16	381.79
437.53	387.16
437.90	392.52
438.27	397.87
438.64	403.48
439.01	408.64
439.38	413.17
439.75	417.67
440.13	422.80
440.50	427.60
440.87	431.60
441.24	435.68
441.61	440.37
441.98	443.81
442.35	447.76
442.72	451.90
443.09	455.93
443.46	458.30
443.83	459.99
444.20	461.60
444.57	463.63
444.94	464.87
445.31	466.23
445.68	467.69
446.05	468.40
446.42	468.20
446.79	467.80
447.16	467.31
447.53	467.18
447.90	465.41
448.27	463.58
448.64	461.17
449.01	459.43
449.37	456.16
449.74	452.98
450.11	449.41
450.48	445.02
450.85	440.58
451.22	436.93
451.59	433.40
451.96	430.05
452.33	425.50
452.70	421.21
453.07	416.08
453.43	410.75
453.80	405.82
454.17	401.04
454.54	396.66
454.91	391.86
455.28	387.12
455.65	382.84
456.02	378.96
456.38	375.21
456.75	370.63
457.12	366.67
457.49	362.82
457.86	358.94
458.23	355.84
458.59	352.35
458.96	348.77
459.33	345.58
459.70	342.35
460.07	339.79
460.43	336.96
460.80	334.23
461.17	331.84
461.54	329.33
461.91	326.94
462.27	324.41
462.64	322.32
463.01	320.00
463.38	317.83
463.74	315.13
464.11	313.07
464.48	311.32
464.85	309.47
465.21	308.09
465.58	306.45
465.95	304.57
466.32	303.03
466.68	301.62
467.05	300.07
467.42	298.49
467.78	296.86
468.15	295.41
468.52	294.33
468.88	292.89
469.25	291.54
469.62	290.48
469.98	289.32
470.35	288.26
470.72	287.28
471.08	286.02
471.45	285.17
471.82	284.29
472.18	283.30
472.55	282.61
472.92	281.62
473.28	280.78
473.65	279.95
474.02	279.23
474.38	278.50
474.75	277.95
475.11	277.34
475.48	276.86
475.85	276.32
476.21	275.90
476.58	275.45
476.94	275.10
477.31	274.73
477.67	274.39
478.04	274.03
478.41	273.78
478.77	274.01
479.14	273.69
479.50	273.61
479.87	273.47
480.23	273.33
480.60	273.20
480.96	273.05
481.33	273.18
481.69	273.20
482.06	273.19
482.42	273.21
482.79	273.37
483.15	273.49
483.52	273.78
483.88	273.78
484.25	273.96
484.61	274.13
484.98	274.26
485.34	274.65
485.71	275.09
486.07	275.44
486.44	275.46
486.80	275.80
487.17	276.12
487.53	276.68
487.90	277.22
488.26	277.97
488.62	278.61
488.99	279.11
489.35	279.72
489.72	280.38
490.08	281.06
490.44	281.72
490.81	282.46
491.17	283.08
491.54	284.11
491.90	284.93
492.26	285.84
492.63	286.77
492.99	287.65
493.36	288.48
493.72	289.44
494.08	290.42
494.45	291.63
494.81	292.81
495.17	293.90
495.54	295.06
495.90	296.05
496.26	297.24
496.63	298.43
496.99	299.65
497.35	300.91
497.72	302.20
498.08	303.46
498.44	304.78
498.80	306.19
499.17	307.29
499.53	308.59
499.89	309.99
500.26	311.33
500.62	312.75
500.98	314.21
501.34	315.55
501.71	316.97
502.07	318.30
502.43	319.61
502.79	320.81
503.16	322.02
503.52	323.37
503.88	324.60
504.24	325.93
504.60	327.21
504.97	328.52
505.33	329.83
505.69	331.23
506.05	332.37
506.41	333.54
506.78	334.84
507.14	336.11
507.50	337.33
507.86	338.68
508.22	339.75
508.59	340.83
508.95	342.14
509.31	343.34
509.67	344.41
510.03	345.56
510.39	346.70
510.75	347.86
511.12	348.88
511.48	350.01
511.84	351.04
512.20	352.07
512.56	353.16
512.92	354.18
513.28	355.26
513.64	356.32
514.00	357.37
514.37	358.42
514.73	359.38
515.09	360.43
515.45	361.29
515.81	362.26
516.17	363.23
516.53	364.12
516.89	364.89
517.25	365.88
517.61	366.77
517.97	367.69
518.33	368.61
518.69	369.65
519.05	370.67
519.41	371.61
519.77	372.91
520.13	373.85
520.49	374.77
520.85	375.68
521.21	376.87
521.57	377.98
521.93	379.03
522.29	380.24
522.65	381.18
523.01	382.33
523.37	383.50
523.73	384.85
524.09	386.01
524.45	387.44
524.81	388.87
525.17	390.31
525.53	391.81
525.89	393.33
526.25	394.85
526.61	396.28
526.97	397.92
527.33	399.25
527.68	401.21
528.04	402.88
528.40	404.50
528.76	406.31
529.12	408.21
529.48	410.17
529.84	411.95
530.20	414.05
530.56	416.15
530.91	418.32
531.27	420.39
531.63	422.63
531.99	424.68
532.35	426.67
532.71	428.91
533.07	431.19
533.42	433.93
533.78	436.18
534.14	438.68
534.50	440.99
534.86	443.55
535.21	445.73
535.57	448.44
535.93	451.05
536.29	453.65
536.65	456.13
537.00	458.49
537.36	461.02
537.72	463.47
538.08	465.98
538.44	468.51
538.79	471.09
539.15	473.60
539.51	476.32
539.87	479.13
540.22	481.71
540.58	484.50
540.94	486.92
541.29	489.68
541.65	492.23
542.01	495.28
542.37	497.87
542.72	500.70
543.08	503.37
543.44	506.18
543.79	508.69
544.15	511.60
544.51	514.66
544.87	517.68
545.22	520.57
545.58	523.42
545.94	526.06
546.29	528.85
546.65	531.75
547.01	534.46
547.36	537.42
547.72	540.16
548.07	542.85
548.43	545.43
548.79	548.03
549.14	550.64
549.50	553.18
549.86	555.83
550.21	558.38
550.57	560.99
550.92	563.48
551.28	566.12
551.64	568.50
551.99	570.93
552.35	573.30
552.70	575.72
553.06	578.19
553.41	580.79
553.77	583.33
554.13	585.60
554.48	588.19
554.84	590.30
555.19	592.58
555.55	594.97
555.90	597.06
556.26	599.25
556.61	601.41
556.97	603.14
557.32	605.21
557.68	607.17
558.03	608.97
558.39	610.94
558.74	612.94
559.10	614.96
559.45	616.88
559.81	618.95
560.16	620.81
560.52	622.64
560.87	624.35
561.23	625.88
561.58	627.87
561.94	629.46
562.29	631.20
562.64	632.73
563.00	634.19
563.35	635.91
563.71	637.74
564.06	639.42
564.42	641.13
564.77	642.82
565.12	644.63
565.48	646.63
565.83	648.19
566.19	649.83
566.54	650.99
566.89	652.30
567.25	653.76
567.60	655.25
567.96	656.72
568.31	658.28
568.66	659.69
569.02	660.42
569.37	661.28
569.72	662.31
570.08	663.47
570.43	664.39
570.78	665.06
571.14	665.56
571.49	666.09
571.84	666.90
572.20	667.34
572.55	667.83
572.90	667.82
573.26	668.24
573.61	668.30
573.96	668.65
574.31	668.73
574.67	668.40
575.02	668.32
575.37	668.10
575.72	667.79
576.08	667.65
576.43	667.74
576.78	667.67
577.13	667.62
577.49	667.53
577.84	667.43
578.19	667.50
578.54	667.69
578.90	667.85
579.25	667.70
579.60	667.29
579.95	666.76
580.30	666.71
580.66	666.50
581.01	666.34
581.36	666.10
581.71	665.79
582.06	665.88
582.42	665.54
582.77	665.06
583.12	664.82
583.47	664.66
583.82	664.38
584.17	664.14
584.53	663.91
584.88	663.41
585.23	663.07
585.58	662.63
585.93	662.13
586.28	661.73
586.63	661.24
586.98	661.11
587.34	660.91
587.69	660.46
588.04	660.01
588.39	659.55
588.74	658.87
589.09	658.60
589.44	657.76
589.79	657.37
590.14	656.94
590.49	656.23
590.84	655.44
591.19	654.96
591.54	654.27
591.89	653.25
592.25	652.81
592.60	651.75
592.95	650.76
593.30	649.63
593.65	648.47
594.00	647.38
594.35	647.41
594.70	646.29
595.05	645.40
595.40	644.39
595.75	643.15
596.10	642.54
596.45	641.70
596.80	640.86
597.15	639.89
597.50	638.78
597.85	637.90
598.19	636.90
598.54	635.82
598.89	634.79
599.24	633.97
599.59	632.78
599.94	632.05
600.29	631.30
600.64	630.52
600.99	629.50
601.34	628.68
601.69	626.68
602.04	625.70
602.39	624.49
602.74	623.49
603.08	622.74
603.43	621.90
603.78	620.71
604.13	619.83
604.48	618.82
604.83	618.31
605.18	617.47
605.53	616.48
605.87	615.54
606.22	614.72
606.57	613.69
606.92	612.62
607.27	611.61
607.62	610.49
607.96	609.46
608.31	608.60
608.66	607.60
609.01	606.34
609.36	605.32
609.70	604.13
610.05	602.91
610.40	601.74
610.75	600.21
611.10	599.05
611.44	597.52
611.79	596.00
612.14	594.21
612.49	592.49
612.83	591.09
613.18	589.45
613.53	587.85
613.88	586.21
614.22	584.67
614.57	583.04
614.92	581.48
615.27	579.80
615.61	578.23
615.96	576.68
616.31	575.40
616.65	573.97
617.00	572.38
617.35	570.82
617.70	568.97
618.04	567.20
618.39	565.27
618.74	563.66
619.08	561.99
619.43	560.21
619.78	558.77
620.12	557.04
620.47	555.38
620.82	553.39
621.16	551.55
621.51	549.89
621.85	548.09
622.20	546.37
622.55	544.62
622.89	542.77
623.24	540.85
623.59	538.86
623.93	536.98
624.28	535.37
624.62	533.96
624.97	532.34
625.32	530.73
625.66	529.12
626.01	527.40
626.35	525.80
626.70	524.25
627.04	522.58
627.39	521.00
627.73	519.48
628.08	518.07
628.43	516.43
628.77	514.74
629.12	513.15
629.46	511.53
629.81	509.93
630.15	508.29
630.50	506.63
630.84	504.97
631.19	503.30
631.53	501.69
631.88	499.53
632.22	497.71
632.57	496.08
632.91	494.51
633.26	492.85
633.60	491.14
633.95	489.62
634.29	487.87
634.64	486.18
634.98	484.34
635.32	482.72
635.67	481.26
636.01	479.84
636.36	478.21
636.70	476.73
637.05	475.14
637.39	473.73
637.73	472.31
638.08	471.00
638.42	469.49
638.77	468.00
639.11	466.44
639.45	464.90
639.80	463.28
640.14	461.56
640.49	459.84
640.83	458.21
641.17	456.58
641.52	454.95
641.86	453.39
642.20	451.92
642.55	450.12
642.89	448.46
643.23	446.59
643.58	445.23
643.92	443.43
644.26	441.80
644.61	440.21
644.95	438.49
645.29	436.69
645.64	435.07
645.98	433.35
646.32	431.87
646.66	430.22
647.01	428.53
647.35	427.09
647.69	425.47
648.04	423.96
648.38	422.32
648.72	420.81
649.06	419.07
649.41	417.34
649.75	415.80
650.09	414.32
650.43	412.91
650.78	411.01
651.12	409.36
651.46	407.67
651.80	406.02
652.14	404.53
652.49	403.04
652.83	401.53
653.17	399.91
653.51	398.27
653.85	396.89
654.20	395.51
654.54	393.81
654.88	392.35
655.22	390.85
655.56	389.35
655.90	387.67
656.25	386.11
656.59	384.71
656.93	383.22
657.27	381.68
657.61	379.99
657.95	378.70
658.29	377.32
658.64	376.01
658.98	374.45
659.32	372.83
659.66	371.31
660.00	369.77
660.34	368.34
660.68	366.88
661.02	365.35
661.36	363.86
661.70	362.40
662.05	361.05
662.39	359.85
662.73	358.65
663.07	357.68
663.41	356.49
663.75	355.10
664.09	353.84
664.43	352.49
664.77	351.21
665.11	349.73
665.45	348.46
665.79	347.17
666.13	346.02
666.47	344.80
666.81	343.60
667.15	342.28
667.49	341.17
667.83	340.17
668.17	339.09
668.51	338.01
668.85	337.10
669.19	336.14
669.53	334.81
669.87	333.58
670.21	332.30
670.55	331.24
670.89	330.32
671.23	329.35
671.57	328.43
671.91	327.39
672.25	326.48
672.58	325.59
672.92	324.59
673.26	323.60
673.60	322.67
673.94	321.72
674.28	320.76
674.62	319.83
674.96	318.91
675.30	317.95
675.64	316.99
675.97	315.93
676.31	314.91
676.65	313.97
676.99	313.19
677.33	312.19
677.67	311.24
678.01	310.22
678.34	309.28
678.68	308.28
679.02	307.44
679.36	306.49
679.70	305.57
680.04	304.71
680.37	303.82
680.71	302.98
681.05	302.12
681.39	301.33
681.73	300.44
682.06	299.50
682.40	298.70
682.74	297.88
683.08	297.24
683.42	296.36
683.75	295.62
684.09	294.69
684.43	293.90
684.77	292.98
685.10	292.15
685.44	291.35
685.78	290.59
686.12	289.81
686.45	289.10
686.79	288.26
687.13	287.57
687.46	286.77
687.80	286.05
688.14	285.34
688.48	284.62
688.81	283.90
689.15	283.29
689.49	282.46
689.82	281.73
690.16	280.77
690.50	280.08
690.83	279.31
691.17	278.52
691.51	277.86
691.84	277.28
692.18	276.66
692.52	275.97
692.85	275.39
693.19	274.84
693.52	274.20
693.86	273.56
694.20	272.82
694.53	272.26
694.87	271.59
695.21	270.88
695.54	270.28
695.88	269.53
696.21	268.79
696.55	268.25
696.88	267.68
697.22	267.09
697.56	266.56
697.89	265.99
698.23	265.48
698.56	264.89
698.90	264.38
699.23	263.74
699.57	263.18
699.90	262.47
700.24	261.80
700.58	261.27
700.91	260.76
701.25	260.50
701.58	259.94
701.92	259.45
702.25	258.95
702.59	258.43
702.92	258.10
703.26	257.63
703.59	257.13
703.93	256.87
704.26	256.49
704.60	256.00
704.93	255.55
705.26	255.01
705.60	254.52
705.93	253.98
706.27	253.62
706.60	253.28
706.94	253.07
707.27	252.57
707.61	252.08
707.94	251.58
708.27	250.91
708.61	250.46
708.94	250.11
709.28	249.77
709.61	249.34
709.94	248.91
710.28	248.49
710.61	248.11
710.95	247.36
711.28	247.12
711.61	246.73
711.95	246.45
712.28	246.08
712.61	245.75
712.95	245.58
713.28	245.36
713.61	244.96
713.95	244.54
714.28	244.27
714.61	243.88
714.95	243.56
715.28	243.16
715.61	242.85
715.95	242.43
716.28	241.99
716.61	241.63
716.95	241.23
717.28	240.93
717.61	240.62
717.94	240.35
718.28	239.89
718.61	239.51
718.94	239.12
719.27	238.83
719.61	238.56
719.94	238.16
720.27	237.65
720.60	237.36
720.94	237.01
721.27	236.76
721.60	236.55
721.93	236.39
722.27	236.28
722.60	236.07
722.93	235.85
723.26	235.60
723.59	235.34
723.93	235.18
724.26	234.93
724.59	234.60
724.92	234.55
725.25	234.44
725.59	234.37
725.92	234.14
726.25	233.92
726.58	233.68
726.91	233.51
727.24	233.42
727.57	233.19
727.91	232.94
728.24	232.80
728.57	232.60
728.90	232.38
729.23	232.10
729.56	232.03
729.89	231.72
730.22	231.58
730.55	231.40
730.89	231.19
731.22	230.97
731.55	230.81
731.88	230.54
732.21	230.25
732.54	229.90
732.87	229.76
733.20	229.64
733.53	229.41
733.86	229.23
734.19	228.93
734.52	228.80
734.85	228.90
735.18	228.62
735.51	228.50
735.84	228.32
736.17	228.33
736.50	228.04
736.83	228.37
737.16	228.20
737.49	228.01
737.82	227.83
738.15	227.70
738.48	227.59
738.81	227.37
739.14	227.11
739.47	226.97
739.80	226.76
740.13	226.62
740.46	226.42
740.79	226.21
741.12	226.12
741.45	225.96
741.78	225.61
742.11	225.58
742.44	225.37
742.77	225.20
743.10	224.91
743.43	224.73
743.75	224.22
744.08	224.59
744.41	224.43
744.74	224.25
745.07	224.08
745.40	224.01
745.73	224.05
746.06	223.97
746.39	223.90
746.71	223.76
747.04	223.63
747.37	223.53
747.70	223.45
748.03	223.24
748.36	223.16
748.68	223.05
749.01	222.80
749.34	222.76
749.67	222.65
750.00	222.58
750.33	222.71
750.65	222.62
750.98	221.98
751.31	221.87
751.64	221.79
751.97	221.85
752.29	221.64
752.62	221.34
752.95	221.16
753.28	221.02
753.60	220.92
753.93	220.88
754.26	220.80
754.59	220.63
754.91	220.53
755.24	220.38
755.57	220.23
755.90	220.13
756.22	219.94
756.55	219.84
756.88	219.66
757.20	219.26
757.53	219.08
757.86	219.00
758.19	219.01
758.51	218.93
758.84	218.69
759.17	218.56
759.49	218.49
759.82	218.61
760.15	218.57
760.47	218.51
760.80	218.30
761.13	218.30
761.45	218.22
761.78	218.16
762.11	218.13
762.43	218.00
762.76	217.95
763.08	217.93
763.41	217.83
763.74	217.83
764.06	217.81
764.39	217.80
764.71	217.80
765.04	217.64
765.37	217.50
765.69	217.47
766.02	217.49
766.34	217.42
766.67	217.27
767.00	217.30
767.32	217.44
767.65	217.63
767.97	217.46
768.30	217.43
768.62	217.40
768.95	217.28
769.27	217.31
769.60	217.32
769.92	217.25
770.25	217.14
770.57	217.03
770.90	216.96
771.22	216.78
771.55	216.75
771.87	216.72
772.20	216.65
772.52	216.88
772.85	217.15
773.17	217.15
773.50	217.06
773.82	216.90
774.15	216.61
774.47	216.33
774.80	216.22
775.12	216.14
775.45	216.07
775.77	215.96
776.09	215.94
776.42	215.82
776.74	215.81
777.07	215.74
777.39	215.64
777.72	215.63
778.04	215.64
778.36	215.46
778.69	215.45
779.01	215.42
779.33	215.10
779.66	214.71
779.98	214.61
780.31	214.55
780.63	214.61
780.95	214.65
781.28	214.54
781.60	214.49
781.92	214.49
782.25	214.42
782.57	214.50
782.89	214.37
783.22	214.35
783.54	214.23
783.86	214.28
784.19	214.25
784.51	214.25
784.83	214.19
785.16	214.17
785.48	214.13
785.80	214.10
786.12	214.04
786.45	214.05
786.77	214.06
787.09	214.05
787.42	213.97
787.74	213.98
788.06	214.09
788.38	214.09
788.71	214.01
789.03	213.93
789.35	213.89
789.67	213.77
789.99	213.75
790.32	213.72
790.64	213.73
790.96	214.01
791.28	213.92
791.61	213.90
791.93	213.90
792.25	213.85
792.57	214.09
792.89	214.02
793.21	213.99
793.54	213.92
793.86	213.89
794.18	213.83
794.50	213.75
794.82	213.68
795.14	213.72
795.47	213.75
795.79	213.78
796.11	213.69
796.43	213.76
796.75	213.84
797.07	213.85
797.39	213.77
797.71	213.43
798.04	213.43
798.36	213.41
798.68	213.43
799.00	213.44
799.32	213.34
799.64	213.41
799.96	213.37
800.28	213.37
800.60	213.34
800.92	213.42
801.24	213.40
801.56	213.36
801.89	213.27
802.21	213.30
802.53	213.19
802.85	213.30
803.17	213.46
803.49	213.30
803.81	213.19
804.13	213.13
804.45	213.12
804.77	213.14
805.09	213.15
805.41	213.11
805.73	213.02
806.05	212.90
806.37	212.81
806.69	212.77
807.01	212.80
807.33	212.82
807.65	212.60
807.97	212.74
808.28	212.73
808.60	212.76
808.92	212.65
809.24	212.89
809.56	212.82
809.88	212.63
810.20	212.61
810.52	212.75
810.84	212.80
811.16	212.80
811.48	212.83
811.80	212.92
812.12	212.89
812.43	212.97
812.75	212.95
813.07	213.01
813.39	213.07
813.71	213.03
814.03	212.95
814.35	213.00
814.67	212.86
814.98	212.84
815.30	212.75
815.62	212.70
815.94	212.49
816.26	212.44
816.58	212.33
816.89	212.36
817.21	212.25
817.53	212.27
817.85	212.26
818.17	212.21
818.48	212.07
818.80	212.06
819.12	211.98
819.44	211.94
819.76	211.81
820.07	211.71
820.39	211.66
820.71	211.71
821.03	211.69
821.34	211.65
821.66	211.63
821.98	211.72
822.30	211.75
822.61	212.03
822.93	211.98
823.25	212.07
823.57	212.08
823.88	212.20
824.20	212.15
824.52	212.22
824.83	212.23
825.15	212.24
825.47	212.31
825.79	212.30
826.10	212.29
826.42	212.32
826.74	212.40
827.05	212.41
827.37	212.42
827.69	212.41
828.00	212.37
828.32	212.34
828.64	212.25
828.95	212.42
829.27	212.28
829.58	212.33
829.90	212.35
830.22	212.36
830.53	212.23
830.85	212.16
831.17	212.04
831.48	211.98
831.80	211.96
832.11	211.86
832.43	211.86
832.75	211.82
833.06	211.97
833.38	211.87
833.69	211.80
834.01	211.80
834.32	211.79
834.64	211.79
834.96	211.85
835.27	211.91
835.59	211.78
835.90	211.73
836.22	211.75
836.53	211.66
836.85	211.63
837.16	212.03
837.48	212.03
837.79	212.15
838.11	212.14
838.42	212.06
838.74	212.09
839.05	212.04
839.37	212.03
839.68	211.82
840.00	211.76
840.31	211.84
840.63	211.76
840.94	211.70
841.26	211.73
841.57	211.67
841.88	211.63
842.20	211.57
842.51	211.45
842.83	211.41
843.14	211.75
843.46	211.73
843.77	211.42
844.08	211.37
844.40	211.26
844.71	211.18
845.03	211.21
845.34	211.20
845.65	211.24
845.97	211.23
846.28	211.35
846.60	211.37
846.91	211.23
847.22	211.27
847.54	211.28
847.85	211.30
848.16	211.33
848.48	211.25
848.79	211.41
849.10	211.51
849.42	211.46
849.73	211.15
850.04	211.11
850.36	211.04
850.67	211.11
850.98	211.09
851.30	211.18
851.61	211.19
851.92	211.19
852.23	211.26
852.55	211.33
852.86	211.24
853.17	211.29
853.49	211.47
853.80	211.49
854.11	211.56
854.42	211.57
854.74	211.50
855.05	211.55
855.36	211.43
855.67	211.42
855.99	211.46
856.30	211.87
856.61	211.81
856.92	211.74
857.23	211.79
857.55	211.78
857.86	211.78
858.17	211.85
858.48	211.77
858.79	211.69
859.11	211.68
859.42	211.69
859.73	211.68
860.04	211.60
860.35	211.57
860.66	211.48
860.98	211.38
861.29	211.45
861.60	211.41
861.91	211.39
862.22	211.27
862.53	211.24
862.84	210.83
863.16	211.01
863.47	211.06
863.78	211.02
864.09	211.07
864.40	211.09
864.71	211.04
865.02	211.15
865.33	211.13
865.64	211.11
865.95	211.11
866.27	211.40
866.58	211.45
866.89	211.45
867.20	211.52
867.51	211.50
867.82	211.45
868.13	211.59
868.44	211.57
868.75	211.70
869.06	211.70
869.37	211.66
869.68	211.55
869.99	211.58
870.30	211.57
870.61	211.59
870.92	211.52
871.23	211.58
871.54	211.60
871.85	211.73
872.16	211.74
872.47	211.71
872.78	211.41
873.09	211.39
873.40	211.40
873.71	211.31
874.02	211.33
874.33	211.39
874.64	211.28
874.95	211.33
875.26	211.26
875.56	211.29
875.87	211.32
876.18	211.28
876.49	211.63
876.80	211.61
877.11	211.51
877.42	211.50
877.73	211.47
878.04	211.41
878.35	211.36
878.66	211.42
878.96	211.42
879.27	211.45
879.58	211.40
879.89	211.31
880.20	211.51
880.51	211.56
880.82	211.50
881.12	211.57
881.43	211.49
881.74	211.45
882.05	211.40
882.36	211.43
882.67	211.50
882.97	211.10
883.28	211.04
883.59	211.05
883.90	211.12
884.21	211.12
884.51	211.10
884.82	210.96
885.13	210.91
885.44	210.89
885.74	210.84
886.05	210.83
886.36	210.89
886.67	210.67
886.98	210.86
887.28	210.93
887.59	210.83
887.90	210.85
888.20	210.84
888.51	210.90
888.82	210.82
889.13	210.81
889.43	211.17
889.74	211.14
890.05	211.12
890.35	211.08
890.66	211.04
890.97	211.01
891.28	211.05
891.58	211.05
891.89	211.01
892.20	211.06
892.50	211.11
892.81	211.07
893.12	211.14
893.42	210.94
893.73	210.89
894.04	210.98
894.34	210.98
894.65	210.93
894.95	210.95
895.26	211.00
895.57	211.09
895.87	210.73
896.18	210.83
896.48	210.91
896.79	210.90
897.10	210.91
897.40	210.97
897.71	211.03
898.01	211.03
898.32	211.06
898.63	211.00
898.93	210.96
899.24	210.92
899.54	210.94
899.85	210.91
900.15	210.88
900.46	210.86
900.76	210.98
901.07	211.03
901.38	210.93
901.68	210.91
901.99	210.78
902.29	210.81
902.60	210.80
902.90	210.75
903.21	210.74
903.51	210.77
903.82	210.74
904.12	210.72
904.43	210.74
904.73	210.80
905.03	210.81
905.34	211.17
905.64	211.16
905.95	211.09
906.25	211.09
906.56	211.10
906.86	211.07
907.17	210.99
907.47	210.97
907.77	211.05
908.08	210.99
908.38	211.00
908.69	211.03
908.99	211.07
909.30	211.10
909.60	211.10
909.90	211.05
910.21	211.04
910.51	211.01
910.81	211.00
911.12	210.96
911.42	211.00
911.73	210.62
912.03	210.70
912.33	210.78
912.64	210.78
912.94	210.74
913.24	210.69
913.55	210.66
913.85	210.69
914.15	210.76
914.46	210.80
914.76	210.82
915.06	210.76
915.37	210.73
915.67	210.74
915.97	210.75
916.27	210.78
916.58	210.75
916.88	210.74
917.18	210.71
917.49	210.91
917.79	210.86
918.09	210.93
918.39	210.98
918.70	210.94
919.00	211.01
919.30	211.20
919.60	211.25
919.91	211.25
920.21	211.27
920.51	211.16
920.81	211.22
921.12	211.24
921.42	211.20
921.72	211.26
922.02	211.21
922.32	211.21
922.63	211.21
922.93	211.45
923.23	211.43
923.53	211.40
923.83	211.20
924.13	211.26
924.44	211.29
924.74	211.35
925.04	211.44
925.34	211.40
925.64	211.34
925.94	211.31
926.24	211.47
926.55	211.42
926.85	211.47
927.15	211.39
927.45	211.35
927.75	211.42
928.05	211.38
928.35	211.38
928.65	211.51
928.95	211.47
929.26	211.28
929.56	211.33
929.86	211.41
930.16	211.42
930.46	211.35
930.76	211.40
931.06	211.27
931.36	211.16
931.66	211.21
931.96	211.10
932.26	211.15
932.56	211.04
932.86	211.12
933.16	211.09
933.46	211.10
933.76	211.08
934.06	211.20
934.36	211.30
934.66	211.26
934.96	211.21
935.26	211.28
935.56	211.42
935.86	211.37
936.16	211.29
936.46	211.31
936.76	211.35
937.06	211.22
937.36	211.24
937.66	211.26
937.96	211.23
938.26	211.27
938.56	211.20
938.86	211.16
939.16	211.19
939.46	211.21
939.76	211.24
940.06	211.32
940.35	211.15
940.65	210.94
940.95	210.97
941.25	210.89
941.55	210.82
941.85	210.75
942.15	210.82
942.45	210.92
942.75	210.92
943.04	210.91
943.34	211.00
943.64	210.95
943.94	210.95
944.24	210.96
944.54	211.00
944.84	211.00
945.13	211.02
945.43	210.96
945.73	210.96
946.03	210.97
946.33	210.84
946.62	210.86
946.92	210.93
947.22	210.94
947.52	210.94
947.82	211.07
948.11	210.98
948.41	210.87
948.71	210.75
949.01	210.69
949.31	210.69
949.60	210.67
949.90	210.80
950.20	210.72
950.50	210.68
950.79	210.62
951.09	210.67
951.39	210.65
951.69	210.61
951.98	210.68
952.28	210.76
952.58	210.82
952.87	210.82
953.17	210.85
953.47	210.83
953.76	210.89
954.06	210.72
954.36	210.76
954.66	210.80
954.95	210.90
955.25	210.98
955.55	210.96
955.84	210.93
956.14	210.90
956.44	210.97
956.73	210.90
957.03	210.85
957.32	210.89
957.62	210.83
957.92	210.93
958.21	210.89
958.51	211.11
958.81	211.11
959.10	211.12
959.40	211.22
959.69	211.28
959.99	211.25
960.29	211.33
960.58	211.23
960.88	211.37
961.17	211.30
961.47	211.25
961.76	211.25
962.06	211.25
962.36	211.25
962.65	211.21
962.95	211.26
963.24	211.30
963.54	211.28
963.83	211.37
964.13	211.34
964.42	211.23
964.72	210.98
965.01	211.03
965.31	211.08
965.60	210.99
965.90	211.15
966.19	211.07
966.49	211.05
966.78	211.12
967.08	211.04
967.37	211.07
967.67	211.04
967.96	211.13
968.26	211.15
968.55	211.16
968.85	211.19
969.14	211.21
969.43	211.23
969.73	211.17
970.02	211.14
970.32	211.13
970.61	211.14
970.91	211.11
971.20	211.05
971.49	211.02
971.79	211.02
972.08	210.79
972.38	210.83
972.67	210.82
972.96	210.82
973.26	210.77
973.55	210.90
973.85	210.89
974.14	210.80
974.43	210.85
974.73	210.80
975.02	210.75
975.31	210.74
975.61	210.67
975.90	210.60
976.19	210.55
976.49	210.50
976.78	210.52
977.07	210.48
977.37	210.55
977.66	210.61
977.95	210.54
978.24	210.60
978.54	210.66
978.83	210.60
979.12	210.59
979.42	210.60
979.71	210.48
980.00	210.47
980.29	210.53
980.59	210.49
980.88	210.56
981.17	210.59
981.46	210.58
981.76	210.65
982.05	210.81
982.34	210.82
982.63	210.86
982.93	210.89
983.22	210.97
983.51	210.89
983.80	210.83
984.09	210.86
984.39	210.86
984.68	210.81
984.97	210.86
985.26	210.84
985.55	210.88
985.85	210.87
986.14	210.90
986.43	210.93
986.72	210.85
987.01	210.80
987.30	210.74
987.59	210.72
987.89	210.75
988.18	210.67
988.47	210.70
988.76	210.64
989.05	210.57
989.34	210.51
989.63	210.71
989.92	210.74
990.22	210.79
990.51	210.75
990.80	210.75
991.09	210.84
991.38	210.90
991.67	210.89
991.96	210.82
992.25	210.86
992.54	210.79
992.83	210.85
993.12	210.77
993.41	210.85
993.70	211.01
993.99	211.02
994.28	211.06
994.58	211.12
994.87	211.15
995.16	211.20
995.45	211.18
995.74	210.98
996.03	211.01
996.32	211.00
996.61	211.09
996.90	211.05
997.19	211.00
997.48	211.00
997.77	210.85
998.06	210.92
998.34	210.89
998.63	210.95
998.92	210.90
999.21	211.02
999.50	211.04
999.79	210.88
1000.08	210.90
1000.37	210.89
1000.66	210.81
1000.95	210.88
1001.24	210.92
1001.53	210.98
1001.82	210.96
1002.11	210.81
1002.40	210.88
1002.68	210.94
1002.97	211.19
1003.26	211.08
1003.55	210.96
1003.84	211.06
1004.13	211.06
1004.42	211.02
1004.71	210.95
1004.99	210.89
1005.28	210.97
1005.57	210.97
1005.86	210.98
1006.15	210.91
1006.44	210.82
1006.72	210.87
1007.01	210.82
1007.30	210.80
1007.59	210.76
1007.88	210.71
1008.17	210.76
1008.45	210.66
1008.74	210.48
1009.03	210.39
1009.32	210.43
1009.60	210.51
1009.89	210.49
1010.18	210.39
1010.47	210.40
1010.76	210.44
1011.04	210.45
1011.33	210.57
1011.62	210.63
1011.91	210.68
1012.19	210.73
1012.48	210.76
1012.77	210.78
1013.05	210.90
1013.34	210.90
1013.63	210.85
1013.92	210.97
1014.20	210.97
1014.49	210.97
1014.78	211.03
1015.06	210.92
1015.35	210.92
1015.64	210.91
1015.92	210.98
1016.21	211.11
1016.50	211.08
1016.78	211.07
1017.07	211.12
1017.36	210.88
1017.64	210.75
1017.93	210.71
1018.22	210.66
1018.50	210.68
1018.79	210.64
1019.08	210.47
1019.36	210.47
1019.65	210.51
1019.93	210.55
1020.22	210.64
1020.51	210.83
1020.79	210.81
1021.08	210.30
1021.36	210.45
1021.65	210.55
1021.94	210.15
1022.22	210.85
1022.51	210.95
1022.79	212.05
1023.08	211.70
1023.36	215.15
1023.65	210.00
>>>>>End Processed Spectral Data<<<<<
