SpectraSuite Data File
++++++++++++++++++++++++++++++++++++
Date: Mon Feb 25 17:10:15 EST 2013
User: group
Dark Spectrum Present: No
Reference Spectrum Present: No
Number of Sampled Component Spectra: 1
Spectrometers: USB2E7196
Integration Time (usec): 104000 (USB2E7196)
Spectra Averaged: 20 (USB2E7196)
Boxcar Smoothing: 10 (USB2E7196)
Correct for Electrical Dark: No (USB2E7196)
Strobe/Lamp Enabled: No (USB2E7196)
Correct for Detector Non-linearity: No (USB2E7196)
Correct for Stray Light: No (USB2E7196)
Number of Pixels in Processed Spectrum: 2048
>>>>>Begin Processed Spectral Data<<<<<
339.09	0.00
339.48	199.55
339.86	199.00
340.24	202.95
340.63	202.30
341.01	209.80
341.39	205.00
341.78	208.45
342.16	209.25
342.54	208.60
342.93	198.40
343.31	208.48
343.69	209.00
344.07	209.45
344.46	209.87
344.84	210.31
345.22	210.27
345.60	210.57
345.99	210.75
346.37	210.82
346.75	210.91
347.13	211.00
347.52	210.96
347.90	211.02
348.28	211.03
348.66	211.09
349.05	211.01
349.43	211.10
349.81	211.10
350.19	211.20
350.57	211.16
350.96	211.19
351.34	211.25
351.72	211.22
352.10	211.35
352.48	211.33
352.87	211.32
353.25	211.45
353.63	211.51
354.01	211.48
354.39	211.57
354.77	211.67
355.15	211.79
355.54	211.87
355.92	211.81
356.30	211.90
356.68	212.19
357.06	212.23
357.44	212.20
357.82	212.25
358.20	212.36
358.58	212.48
358.97	212.64
359.35	212.69
359.73	212.92
360.11	213.00
360.49	213.08
360.87	213.12
361.25	213.22
361.63	213.35
362.01	213.38
362.39	213.38
362.77	213.42
363.15	213.44
363.53	213.49
363.91	213.56
364.29	213.61
364.67	213.34
365.05	213.48
365.43	213.52
365.81	213.57
366.19	213.76
366.57	213.98
366.95	213.92
367.33	213.83
367.71	213.80
368.09	213.85
368.47	213.85
368.85	213.89
369.23	214.00
369.61	213.89
369.99	213.98
370.37	214.03
370.75	214.23
371.13	214.15
371.51	214.02
371.89	214.03
372.27	213.97
372.65	213.99
373.03	213.98
373.41	213.95
373.78	213.97
374.16	213.80
374.54	213.55
374.92	213.52
375.30	213.52
375.68	213.45
376.06	213.44
376.44	213.36
376.82	213.31
377.19	213.21
377.57	213.17
377.95	213.03
378.33	212.96
378.71	212.67
379.09	212.69
379.47	212.72
379.84	212.61
380.22	212.50
380.60	212.31
380.98	212.16
381.36	212.07
381.73	211.95
382.11	211.82
382.49	211.83
382.87	211.69
383.25	211.69
383.62	211.95
384.00	211.83
384.38	211.80
384.76	211.82
385.13	211.93
385.51	211.84
385.89	211.80
386.27	211.76
386.64	211.73
387.02	211.66
387.40	211.57
387.78	211.56
388.15	211.57
388.53	211.57
388.91	211.56
389.29	211.49
389.66	211.45
390.04	211.40
390.42	211.38
390.79	211.43
391.17	211.40
391.55	211.09
391.92	211.03
392.30	211.13
392.68	210.98
393.05	210.82
393.43	210.79
393.81	210.80
394.18	210.70
394.56	210.77
394.94	210.75
395.31	210.78
395.69	210.82
396.06	210.81
396.44	210.85
396.82	210.75
397.19	210.93
397.57	210.94
397.95	211.00
398.32	210.89
398.70	210.82
399.07	210.77
399.45	210.72
399.82	210.73
400.20	210.57
400.58	210.63
400.95	210.55
401.33	210.63
401.70	210.86
402.08	210.86
402.45	210.75
402.83	210.86
403.20	210.93
403.58	210.95
403.95	211.06
404.33	211.11
404.71	211.28
405.08	211.54
405.46	211.60
405.83	211.66
406.21	211.72
406.58	211.83
406.96	211.95
407.33	212.00
407.70	212.18
408.08	212.63
408.45	212.80
408.83	213.04
409.20	213.20
409.58	213.16
409.95	213.48
410.33	213.78
410.70	213.90
411.08	214.10
411.45	214.35
411.82	214.54
412.20	214.93
412.57	215.39
412.95	215.39
413.32	215.83
413.69	216.14
414.07	216.54
414.44	217.00
414.82	217.45
415.19	218.00
415.56	218.51
415.94	218.84
416.31	219.49
416.68	220.15
417.06	220.89
417.43	221.58
417.81	222.33
418.18	223.10
418.55	223.96
418.93	224.90
419.30	225.82
419.67	226.87
420.04	227.79
420.42	228.73
420.79	230.13
421.16	231.36
421.54	232.84
421.91	234.27
422.28	235.64
422.66	237.10
423.03	238.76
423.40	240.21
423.77	241.76
424.15	243.28
424.52	244.83
424.89	246.66
425.26	248.44
425.64	250.08
426.01	251.92
426.38	253.91
426.75	255.90
427.13	257.97
427.50	259.98
427.87	262.16
428.24	264.34
428.61	266.29
428.99	268.75
429.36	271.14
429.73	273.55
430.10	276.04
430.47	278.68
430.85	281.05
431.22	283.85
431.59	287.04
431.96	289.87
432.33	292.99
432.70	295.87
433.08	299.35
433.45	302.68
433.82	305.96
434.19	309.60
434.56	313.18
434.93	316.51
435.30	319.92
435.68	323.70
436.05	327.47
436.42	331.23
436.79	334.57
437.16	338.20
437.53	341.92
437.90	345.80
438.27	349.57
438.64	353.47
439.01	357.15
439.38	360.16
439.75	363.30
440.13	366.96
440.50	370.35
440.87	373.10
441.24	375.98
441.61	379.10
441.98	381.39
442.35	383.98
442.72	386.77
443.09	389.80
443.46	391.43
443.83	392.55
444.20	393.39
444.57	394.65
444.94	395.36
445.31	396.34
445.68	397.34
446.05	397.70
446.42	397.41
446.79	396.99
447.16	396.60
447.53	396.26
447.90	394.79
448.27	393.42
448.64	391.49
449.01	390.17
449.37	387.85
449.74	385.42
450.11	382.90
450.48	379.80
450.85	376.23
451.22	373.49
451.59	370.84
451.96	368.35
452.33	365.11
452.70	362.10
453.07	358.25
453.43	354.09
453.80	350.34
454.17	346.88
454.54	343.64
454.91	340.11
455.28	336.77
455.65	333.60
456.02	330.88
456.38	328.09
456.75	324.74
457.12	321.74
457.49	318.97
457.86	315.96
458.23	313.71
458.59	311.27
458.96	308.82
459.33	306.46
459.70	304.21
460.07	302.26
460.43	300.09
460.80	298.26
461.17	296.71
461.54	294.97
461.91	293.29
462.27	291.49
462.64	289.86
463.01	288.23
463.38	286.78
463.74	284.69
464.11	283.37
464.48	282.18
464.85	280.92
465.21	279.99
465.58	278.95
465.95	277.49
466.32	276.44
466.68	275.21
467.05	274.16
467.42	273.10
467.78	271.98
468.15	271.05
468.52	270.23
468.88	268.99
469.25	268.06
469.62	267.34
469.98	266.57
470.35	265.94
470.72	265.19
471.08	264.34
471.45	263.85
471.82	263.33
472.18	262.50
472.55	262.00
472.92	261.30
473.28	260.75
473.65	260.33
474.02	259.77
474.38	259.45
474.75	259.15
475.11	258.76
475.48	258.57
475.85	258.20
476.21	257.85
476.58	257.74
476.94	257.55
477.31	257.43
477.67	257.25
478.04	257.06
478.41	257.02
478.77	257.19
479.14	256.98
479.50	256.89
479.87	256.95
480.23	256.96
480.60	256.96
480.96	256.97
481.33	257.20
481.69	257.29
482.06	257.39
482.42	257.56
482.79	257.75
483.15	257.85
483.52	258.20
483.88	258.47
484.25	258.71
484.61	259.00
484.98	259.26
485.34	259.77
485.71	260.30
486.07	260.77
486.44	261.13
486.80	261.64
487.17	262.15
487.53	262.86
487.90	263.60
488.26	264.47
488.62	265.28
488.99	265.94
489.35	266.78
489.72	267.65
490.08	268.45
490.44	269.39
490.81	270.52
491.17	271.49
491.54	272.70
491.90	273.94
492.26	275.15
492.63	276.49
492.99	277.72
493.36	279.18
493.72	280.69
494.08	282.04
494.45	283.74
494.81	285.48
495.17	287.09
495.54	288.87
495.90	290.61
496.26	292.60
496.63	294.60
496.99	296.66
497.35	298.83
497.72	301.08
498.08	303.34
498.44	305.73
498.80	308.35
499.17	310.86
499.53	313.43
499.89	316.26
500.26	319.09
500.62	321.96
500.98	324.95
501.34	327.91
501.71	331.21
502.07	334.43
502.43	337.69
502.79	340.98
503.16	344.39
503.52	347.94
503.88	351.37
504.24	355.04
504.60	358.85
504.97	362.80
505.33	366.72
505.69	370.98
506.05	375.07
506.41	379.14
506.78	383.40
507.14	387.80
507.50	392.21
507.86	396.66
508.22	401.35
508.59	405.89
508.95	410.68
509.31	415.59
509.67	420.51
510.03	425.55
510.39	430.81
510.75	436.07
511.12	441.32
511.48	446.79
511.84	452.34
512.20	457.84
512.56	463.39
512.92	469.21
513.28	474.95
513.64	480.66
514.00	486.57
514.37	492.55
514.73	498.60
515.09	504.68
515.45	510.69
515.81	516.75
516.17	522.96
516.53	529.09
516.89	535.16
517.25	541.43
517.61	547.78
517.97	554.16
518.33	560.45
518.69	566.98
519.05	573.60
519.41	580.06
519.77	587.08
520.13	593.74
520.49	600.22
520.85	606.86
521.21	613.87
521.57	620.64
521.93	627.19
522.29	634.22
522.65	641.00
523.01	648.10
523.37	654.92
523.73	661.91
524.09	669.05
524.45	675.95
524.81	682.88
525.17	689.90
525.53	697.08
525.89	704.23
526.25	711.38
526.61	718.18
526.97	725.10
527.33	731.80
527.68	739.09
528.04	745.95
528.40	752.58
528.76	759.25
529.12	766.32
529.48	773.65
529.84	780.42
530.20	787.43
530.56	794.15
530.91	801.45
531.27	808.52
531.63	815.38
531.99	822.36
532.35	829.14
532.71	835.90
533.07	842.68
533.42	849.52
533.78	856.04
534.14	862.54
534.50	868.88
534.86	875.44
535.21	881.25
535.57	887.90
535.93	894.19
536.29	900.55
536.65	906.59
537.00	912.27
537.36	918.03
537.72	923.67
538.08	929.61
538.44	934.96
538.79	940.47
539.15	945.98
539.51	951.45
539.87	957.37
540.22	962.57
540.58	967.91
540.94	973.12
541.29	978.03
541.65	983.04
542.01	988.32
542.37	993.04
542.72	998.01
543.08	1002.50
543.44	1007.49
543.79	1011.59
544.15	1015.80
544.51	1020.33
544.87	1024.89
545.22	1029.03
545.58	1032.61
545.94	1036.38
546.29	1040.05
546.65	1043.35
547.01	1046.60
547.36	1049.63
547.72	1053.00
548.07	1055.66
548.43	1058.20
548.79	1060.92
549.14	1063.52
549.50	1066.01
549.86	1068.19
550.21	1070.39
550.57	1072.87
550.92	1074.64
551.28	1076.87
551.64	1078.99
551.99	1081.19
552.35	1082.73
552.70	1084.52
553.06	1086.47
553.41	1088.15
553.77	1089.78
554.13	1091.45
554.48	1093.36
554.84	1094.86
555.19	1096.08
555.55	1097.65
555.90	1098.75
556.26	1099.95
556.61	1100.97
556.97	1101.47
557.32	1102.61
557.68	1103.05
558.03	1103.33
558.39	1104.16
558.74	1104.94
559.10	1105.65
559.45	1105.95
559.81	1106.70
560.16	1106.86
560.52	1107.34
560.87	1107.66
561.23	1107.53
561.58	1107.98
561.94	1107.93
562.29	1107.60
562.64	1107.63
563.00	1107.41
563.35	1107.74
563.71	1108.20
564.06	1108.26
564.42	1108.53
564.77	1108.67
565.12	1109.12
565.48	1109.60
565.83	1109.49
566.19	1109.45
566.54	1108.74
566.89	1108.15
567.25	1107.66
567.60	1107.49
567.96	1107.14
568.31	1106.71
568.66	1106.19
569.02	1105.04
569.37	1103.78
569.72	1103.07
570.08	1102.07
570.43	1100.86
570.78	1099.52
571.14	1097.83
571.49	1096.42
571.84	1095.13
572.20	1093.25
572.55	1091.73
572.90	1089.52
573.26	1087.62
573.61	1085.52
573.96	1083.88
574.31	1081.53
574.67	1079.20
575.02	1076.74
575.37	1074.17
575.72	1071.52
576.08	1069.44
576.43	1067.13
576.78	1064.97
577.13	1062.77
577.49	1060.39
577.84	1058.23
578.19	1056.24
578.54	1054.20
578.90	1052.27
579.25	1049.92
579.60	1047.32
579.95	1044.62
580.30	1042.62
580.66	1040.52
581.01	1037.99
581.36	1035.40
581.71	1033.13
582.06	1031.07
582.42	1029.02
582.77	1026.72
583.12	1024.45
583.47	1022.15
583.82	1020.21
584.17	1017.92
584.53	1015.72
584.88	1013.41
585.23	1011.16
585.58	1008.58
585.93	1005.94
586.28	1003.73
586.63	1001.32
586.98	999.32
587.34	997.29
587.69	994.75
588.04	992.26
588.39	990.17
588.74	987.73
589.09	985.73
589.44	983.18
589.79	980.75
590.14	978.33
590.49	975.90
590.84	973.09
591.19	970.88
591.54	968.36
591.89	965.23
592.25	962.98
592.60	960.23
592.95	957.35
593.30	954.40
593.65	951.17
594.00	948.52
594.35	946.65
594.70	943.92
595.05	941.24
595.40	938.52
595.75	935.50
596.10	932.94
596.45	930.42
596.80	927.99
597.15	925.51
597.50	922.98
597.85	920.71
598.19	918.35
598.54	915.58
598.89	913.29
599.24	911.49
599.59	908.95
599.94	906.86
600.29	904.80
600.64	902.75
600.99	900.25
601.34	897.86
601.69	894.71
602.04	892.12
602.39	889.76
602.74	887.64
603.08	885.71
603.43	883.87
603.78	881.31
604.13	878.85
604.48	876.58
604.83	874.65
605.18	872.47
605.53	870.21
605.87	867.58
606.22	865.11
606.57	862.61
606.92	860.11
607.27	857.36
607.62	854.67
607.96	852.45
608.31	850.51
608.66	847.99
609.01	845.38
609.36	842.75
609.70	840.00
610.05	837.05
610.40	834.30
610.75	831.15
611.10	828.72
611.44	825.59
611.79	822.39
612.14	818.98
612.49	815.55
612.83	812.31
613.18	809.20
613.53	806.12
613.88	802.63
614.22	799.62
614.57	796.43
614.92	793.34
615.27	789.95
615.61	786.51
615.96	783.27
616.31	780.26
616.65	777.63
617.00	774.63
617.35	771.73
617.70	768.52
618.04	765.16
618.39	761.61
618.74	758.62
619.08	755.41
619.43	752.32
619.78	749.28
620.12	746.29
620.47	743.40
620.82	740.07
621.16	736.89
621.51	733.67
621.85	730.52
622.20	727.18
622.55	723.94
622.89	720.78
623.24	717.78
623.59	714.44
623.93	711.17
624.28	708.18
624.62	705.24
624.97	702.18
625.32	699.32
625.66	696.36
626.01	693.25
626.35	690.47
626.70	687.45
627.04	684.79
627.39	681.94
627.73	679.08
628.08	676.44
628.43	673.53
628.77	670.44
629.12	667.42
629.46	664.84
629.81	662.06
630.15	659.15
630.50	656.13
630.84	653.12
631.19	650.05
631.53	646.98
631.88	643.70
632.22	640.57
632.57	637.78
632.91	634.92
633.26	632.20
633.60	629.25
633.95	626.62
634.29	623.62
634.64	620.86
634.98	617.71
635.32	615.00
635.67	612.50
636.01	609.82
636.36	607.08
636.70	604.46
637.05	601.77
637.39	599.29
637.73	596.82
638.08	594.77
638.42	592.50
638.77	590.09
639.11	587.54
639.45	585.14
639.80	582.36
640.14	579.65
640.49	576.85
640.83	574.23
641.17	571.54
641.52	568.95
641.86	566.25
642.20	563.98
642.55	561.04
642.89	558.24
643.23	555.57
643.58	553.32
643.92	550.48
644.26	547.89
644.61	545.21
644.95	542.62
645.29	539.52
645.64	536.81
645.98	534.12
646.32	531.80
646.66	529.09
647.01	526.77
647.35	524.35
647.69	521.85
648.04	519.49
648.38	516.93
648.72	514.54
649.06	511.95
649.41	509.28
649.75	507.01
650.09	504.62
650.43	502.11
650.78	499.33
651.12	496.84
651.46	494.36
651.80	491.90
652.14	489.51
652.49	487.35
652.83	484.89
653.17	482.25
653.51	479.57
653.85	477.30
654.20	474.71
654.54	472.30
654.88	469.89
655.22	467.49
655.56	464.97
655.90	462.41
656.25	460.07
656.59	457.64
656.93	455.27
657.27	453.06
657.61	450.73
657.95	448.55
658.29	446.34
658.64	444.26
658.98	441.91
659.32	439.42
659.66	437.11
660.00	434.79
660.34	432.72
660.68	430.49
661.02	428.12
661.36	426.07
661.70	424.08
662.05	422.20
662.39	420.13
662.73	418.36
663.07	416.58
663.41	414.50
663.75	412.49
664.09	410.45
664.43	408.25
664.77	406.39
665.11	404.46
665.45	402.55
665.79	400.56
666.13	398.71
666.47	396.99
666.81	395.16
667.15	393.44
667.49	391.81
667.83	390.26
668.17	388.77
668.51	387.10
668.85	385.36
669.19	383.70
669.53	382.06
669.87	380.23
670.21	378.49
670.55	376.96
670.89	375.62
671.23	374.07
671.57	372.68
671.91	371.25
672.25	369.74
672.58	368.41
672.92	366.87
673.26	365.57
673.60	364.14
673.94	362.71
674.28	361.36
674.62	359.95
674.96	358.47
675.30	357.06
675.64	355.71
675.97	354.39
676.31	353.05
676.65	351.71
676.99	350.69
677.33	349.28
677.67	347.95
678.01	346.55
678.34	345.31
678.68	343.97
679.02	342.55
679.36	341.33
679.70	339.88
680.04	338.61
680.37	337.25
680.71	336.00
681.05	334.77
681.39	333.32
681.73	331.98
682.06	330.78
682.40	329.52
682.74	328.27
683.08	327.05
683.42	325.81
683.75	324.59
684.09	323.24
684.43	322.07
684.77	320.85
685.10	319.65
685.44	318.45
685.78	317.27
686.12	316.27
686.45	315.12
686.79	314.11
687.13	313.07
687.46	311.98
687.80	310.94
688.14	309.88
688.48	308.97
688.81	307.95
689.15	306.98
689.49	305.94
689.82	304.89
690.16	303.68
690.50	302.48
690.83	301.51
691.17	300.34
691.51	299.34
691.84	298.44
692.18	297.50
692.52	296.60
692.85	295.88
693.19	295.10
693.52	294.19
693.86	293.16
694.20	292.18
694.53	291.30
694.87	290.28
695.21	289.34
695.54	288.41
695.88	287.51
696.21	286.55
696.55	285.71
696.88	284.84
697.22	284.12
697.56	283.43
697.89	282.52
698.23	281.76
698.56	281.03
698.90	280.27
699.23	279.46
699.57	278.71
699.90	277.80
700.24	276.80
700.58	276.09
700.91	275.43
701.25	275.04
701.58	274.49
701.92	273.86
702.25	273.20
702.59	272.44
702.92	271.76
703.26	271.06
703.59	270.40
703.93	270.05
704.26	269.33
704.60	268.64
704.93	268.01
705.26	267.42
705.60	266.77
705.93	266.05
706.27	265.61
706.60	265.06
706.94	264.70
707.27	264.15
707.61	263.49
707.94	262.94
708.27	262.12
708.61	261.39
708.94	260.86
709.28	260.29
709.61	259.75
709.94	259.27
710.28	258.83
710.61	258.31
710.95	257.45
711.28	257.27
711.61	256.77
711.95	256.39
712.28	255.85
712.61	255.50
712.95	255.27
713.28	254.86
713.61	254.30
713.95	253.60
714.28	253.10
714.61	252.67
714.95	252.15
715.28	251.61
715.61	251.11
715.95	250.70
716.28	250.21
716.61	249.89
716.95	249.41
717.28	248.98
717.61	248.55
717.94	248.23
718.28	247.57
718.61	247.21
718.94	246.72
719.27	246.33
719.61	245.86
719.94	245.33
720.27	244.76
720.60	244.37
720.94	244.08
721.27	243.78
721.60	243.37
721.93	243.02
722.27	242.85
722.60	242.66
722.93	242.26
723.26	242.12
723.59	241.70
723.93	241.39
724.26	241.09
724.59	240.87
724.92	240.63
725.25	240.44
725.59	240.17
725.92	239.93
726.25	239.71
726.58	239.42
726.91	239.20
727.24	239.00
727.57	238.71
727.91	238.32
728.24	238.13
728.57	237.86
728.90	237.63
729.23	237.20
729.56	237.03
729.89	236.79
730.22	236.42
730.55	236.16
730.89	235.87
731.22	235.58
731.55	235.27
731.88	234.95
732.21	234.65
732.54	234.40
732.87	234.13
733.20	233.86
733.53	233.69
733.86	233.45
734.19	233.09
734.52	232.94
734.85	233.03
735.18	232.71
735.51	232.63
735.84	232.45
736.17	232.37
736.50	232.00
736.83	232.21
737.16	232.05
737.49	231.89
737.82	231.74
738.15	231.53
738.48	231.33
738.81	231.11
739.14	230.88
739.47	230.68
739.80	230.47
740.13	230.26
740.46	230.00
740.79	229.72
741.12	229.56
741.45	229.38
741.78	228.98
742.11	228.88
742.44	228.63
742.77	228.45
743.10	228.24
743.43	228.04
743.75	227.45
744.08	227.65
744.41	227.44
744.74	227.20
745.07	227.03
745.40	226.90
745.73	226.88
746.06	226.65
746.39	226.49
746.71	226.31
747.04	226.22
747.37	226.06
747.70	225.98
748.03	225.83
748.36	225.69
748.68	225.59
749.01	225.33
749.34	225.16
749.67	225.05
750.00	224.94
750.33	225.02
750.65	224.94
750.98	224.36
751.31	224.23
751.64	224.13
751.97	224.19
752.29	224.09
752.62	223.80
752.95	223.65
753.28	223.50
753.60	223.44
753.93	223.40
754.26	223.29
754.59	223.06
754.91	222.95
755.24	222.84
755.57	222.66
755.90	222.57
756.22	222.50
756.55	222.33
756.88	222.15
757.20	221.84
757.53	221.62
757.86	221.53
758.19	221.44
758.51	221.35
758.84	221.08
759.17	220.90
759.49	220.85
759.82	220.94
760.15	220.83
760.47	220.57
760.80	220.40
761.13	220.37
761.45	220.26
761.78	220.18
762.11	220.03
762.43	219.92
762.76	219.74
763.08	219.69
763.41	219.58
763.74	219.54
764.06	219.47
764.39	219.43
764.71	219.33
765.04	219.25
765.37	219.08
765.69	219.01
766.02	218.90
766.34	218.82
766.67	218.65
767.00	218.66
767.32	218.87
767.65	218.90
767.97	218.77
768.30	218.78
768.62	218.68
768.95	218.55
769.27	218.50
769.60	218.56
769.92	218.37
770.25	218.34
770.57	218.14
770.90	218.02
771.22	217.91
771.55	217.84
771.87	217.77
772.20	217.77
772.52	217.93
772.85	218.27
773.17	218.15
773.50	218.08
773.82	217.87
774.15	217.66
774.47	217.39
774.80	217.28
775.12	217.18
775.45	217.14
775.77	217.21
776.09	217.17
776.42	217.06
776.74	217.15
777.07	217.05
777.39	217.06
777.72	216.98
778.04	216.93
778.36	216.87
778.69	216.83
779.01	216.80
779.33	216.42
779.66	216.00
779.98	215.96
780.31	215.85
780.63	215.98
780.95	215.98
781.28	215.95
781.60	215.86
781.92	215.79
782.25	215.69
782.57	215.55
782.89	215.44
783.22	215.40
783.54	215.26
783.86	215.22
784.19	215.15
784.51	215.25
784.83	215.19
785.16	215.13
785.48	215.10
785.80	215.05
786.12	215.05
786.45	215.02
786.77	215.00
787.09	214.99
787.42	214.82
787.74	214.77
788.06	214.78
788.38	214.69
788.71	214.62
789.03	214.66
789.35	214.66
789.67	214.56
789.99	214.52
790.32	214.42
790.64	214.41
790.96	214.67
791.28	214.47
791.61	214.43
791.93	214.42
792.25	214.32
792.57	214.51
792.89	214.48
793.21	214.46
793.54	214.34
793.86	214.32
794.18	214.41
794.50	214.27
794.82	214.25
795.14	214.31
795.47	214.34
795.79	214.28
796.11	214.18
796.43	214.22
796.75	214.21
797.07	214.17
797.39	214.15
797.71	213.87
798.04	213.87
798.36	213.84
798.68	213.83
799.00	213.83
799.32	213.61
799.64	213.67
799.96	213.65
800.28	213.74
800.60	213.65
800.92	213.57
801.24	213.59
801.56	213.54
801.89	213.50
802.21	213.54
802.53	213.48
802.85	213.53
803.17	213.63
803.49	213.51
803.81	213.54
804.13	213.52
804.45	213.43
804.77	213.49
805.09	213.46
805.41	213.40
805.73	213.37
806.05	213.31
806.37	213.25
806.69	213.20
807.01	213.17
807.33	213.18
807.65	213.06
807.97	213.20
808.28	213.19
808.60	213.19
808.92	213.15
809.24	213.30
809.56	213.26
809.88	213.09
810.20	213.17
810.52	213.19
810.84	213.12
811.16	213.08
811.48	213.05
811.80	213.14
812.12	213.10
812.43	213.15
812.75	213.15
813.07	213.04
813.39	213.01
813.71	212.98
814.03	212.94
814.35	212.96
814.67	212.76
814.98	212.64
815.30	212.64
815.62	212.54
815.94	212.30
816.26	212.24
816.58	212.18
816.89	212.09
817.21	211.97
817.53	211.88
817.85	211.95
818.17	211.92
818.48	211.77
818.80	211.89
819.12	211.79
819.44	211.71
819.76	211.69
820.07	211.73
820.39	211.71
820.71	211.69
821.03	211.60
821.34	211.54
821.66	211.65
821.98	211.59
822.30	211.55
822.61	211.73
822.93	211.75
823.25	211.75
823.57	211.81
823.88	211.90
824.20	211.95
824.52	211.97
824.83	211.95
825.15	211.94
825.47	211.83
825.79	211.85
826.10	211.82
826.42	211.77
826.74	211.80
827.05	211.78
827.37	211.79
827.69	211.85
828.00	211.91
828.32	211.87
828.64	211.84
828.95	212.00
829.27	211.93
829.58	211.89
829.90	212.00
830.22	211.99
830.53	211.92
830.85	211.85
831.17	211.78
831.48	211.75
831.80	211.72
832.11	211.78
832.43	211.75
832.75	211.78
833.06	211.98
833.38	211.87
833.69	211.81
834.01	211.84
834.32	211.84
834.64	211.77
834.96	211.79
835.27	211.81
835.59	211.75
835.90	211.70
836.22	211.75
836.53	211.70
836.85	211.66
837.16	211.99
837.48	212.02
837.79	212.11
838.11	212.11
838.42	212.12
838.74	212.12
839.05	212.09
839.37	212.05
839.68	211.90
840.00	211.90
840.31	212.00
840.63	211.99
840.94	211.98
841.26	211.99
841.57	211.95
841.88	212.01
842.20	211.98
842.51	211.94
842.83	211.87
843.14	212.12
843.46	212.10
843.77	211.90
844.08	211.87
844.40	211.77
844.71	211.74
845.03	211.78
845.34	211.78
845.65	211.82
845.97	211.86
846.28	211.84
846.60	211.80
846.91	211.72
847.22	211.67
847.54	211.68
847.85	211.70
848.16	211.71
848.48	211.64
848.79	211.74
849.10	211.82
849.42	211.85
849.73	211.58
850.04	211.54
850.36	211.40
850.67	211.50
850.98	211.57
851.30	211.63
851.61	211.58
851.92	211.56
852.23	211.63
852.55	211.66
852.86	211.66
853.17	211.75
853.49	211.85
853.80	211.95
854.11	212.05
854.42	212.11
854.74	212.05
855.05	212.05
855.36	211.85
855.67	211.84
855.99	211.82
856.30	212.24
856.61	212.27
856.92	212.30
857.23	212.27
857.55	212.20
857.86	212.13
858.17	212.21
858.48	212.14
858.79	212.03
859.11	212.08
859.42	212.10
859.73	212.02
860.04	211.97
860.35	211.86
860.66	211.68
860.98	211.65
861.29	211.67
861.60	211.63
861.91	211.68
862.22	211.63
862.53	211.60
862.84	211.10
863.16	211.19
863.47	211.10
863.78	211.08
864.09	211.06
864.40	211.17
864.71	211.19
865.02	211.29
865.33	211.31
865.64	211.23
865.95	211.18
866.27	211.38
866.58	211.37
866.89	211.39
867.20	211.46
867.51	211.41
867.82	211.47
868.13	211.67
868.44	211.64
868.75	211.70
869.06	211.70
869.37	211.80
869.68	211.67
869.99	211.76
870.30	211.80
870.61	211.88
870.92	211.73
871.23	211.71
871.54	211.67
871.85	211.71
872.16	211.72
872.47	211.75
872.78	211.56
873.09	211.61
873.40	211.61
873.71	211.61
874.02	211.64
874.33	211.62
874.64	211.45
874.95	211.60
875.26	211.53
875.56	211.51
875.87	211.50
876.18	211.52
876.49	211.89
876.80	211.82
877.11	211.69
877.42	211.71
877.73	211.65
878.04	211.58
878.35	211.62
878.66	211.65
878.96	211.68
879.27	211.68
879.58	211.61
879.89	211.52
880.20	211.58
880.51	211.59
880.82	211.55
881.12	211.56
881.43	211.40
881.74	211.40
882.05	211.37
882.36	211.44
882.67	211.44
882.97	211.02
883.28	210.97
883.59	211.00
883.90	211.08
884.21	211.11
884.51	211.10
884.82	210.97
885.13	210.98
885.44	210.93
885.74	210.93
886.05	210.85
886.36	210.86
886.67	210.77
886.98	210.90
887.28	210.89
887.59	210.92
887.90	210.99
888.20	210.92
888.51	211.00
888.82	210.96
889.13	211.05
889.43	211.35
889.74	211.38
890.05	211.39
890.35	211.27
890.66	211.29
890.97	211.28
891.28	211.27
891.58	211.26
891.89	211.25
892.20	211.24
892.50	211.25
892.81	211.28
893.12	211.20
893.42	211.01
893.73	211.00
894.04	210.99
894.34	210.91
894.65	210.95
894.95	210.92
895.26	210.86
895.57	211.00
895.87	210.69
896.18	210.74
896.48	210.75
896.79	210.87
897.10	210.92
897.40	210.92
897.71	210.95
898.01	210.95
898.32	210.93
898.63	210.95
898.93	211.00
899.24	211.04
899.54	211.12
899.85	211.10
900.15	211.14
900.46	211.12
900.76	211.12
901.07	211.09
901.38	211.09
901.68	211.16
901.99	210.94
902.29	210.91
902.60	210.88
902.90	210.87
903.21	210.82
903.51	210.81
903.82	210.94
904.12	210.96
904.43	210.93
904.73	210.94
905.03	210.92
905.34	211.27
905.64	211.21
905.95	211.16
906.25	211.20
906.56	211.15
906.86	211.14
907.17	211.27
907.47	211.32
907.77	211.24
908.08	211.17
908.38	211.21
908.69	211.26
908.99	211.33
909.30	211.28
909.60	211.28
909.90	211.28
910.21	211.20
910.51	211.12
910.81	211.12
911.12	211.20
911.42	211.25
911.73	210.86
912.03	210.90
912.33	211.01
912.64	211.02
912.94	211.05
913.24	210.96
913.55	210.87
913.85	210.79
914.15	210.95
914.46	210.98
914.76	210.95
915.06	210.95
915.37	210.86
915.67	210.86
915.97	210.84
916.27	210.76
916.58	210.72
916.88	210.83
917.18	210.88
917.49	211.10
917.79	211.03
918.09	211.15
918.39	211.23
918.70	211.18
919.00	211.18
919.30	211.31
919.60	211.33
919.91	211.37
920.21	211.51
920.51	211.37
920.81	211.37
921.12	211.44
921.42	211.42
921.72	211.50
922.02	211.58
922.32	211.68
922.63	211.69
922.93	211.90
923.23	211.81
923.53	211.69
923.83	211.48
924.13	211.56
924.44	211.54
924.74	211.62
925.04	211.75
925.34	211.74
925.64	211.58
925.94	211.57
926.24	211.61
926.55	211.48
926.85	211.60
927.15	211.56
927.45	211.56
927.75	211.58
928.05	211.60
928.35	211.59
928.65	211.56
928.95	211.56
929.26	211.41
929.56	211.51
929.86	211.55
930.16	211.49
930.46	211.42
930.76	211.38
931.06	211.24
931.36	211.05
931.66	211.15
931.96	211.22
932.26	211.22
932.56	211.14
932.86	211.18
933.16	211.10
933.46	211.10
933.76	211.02
934.06	211.09
934.36	211.18
934.66	211.14
934.96	211.11
935.26	211.14
935.56	211.17
935.86	211.06
936.16	211.04
936.46	211.02
936.76	211.08
937.06	211.06
937.36	211.04
937.66	211.11
937.96	211.02
938.26	210.97
938.56	211.04
938.86	211.10
939.16	211.07
939.46	211.15
939.76	211.20
940.06	211.21
940.35	211.10
940.65	210.88
940.95	210.88
941.25	210.78
941.55	210.71
941.85	210.74
942.15	210.82
942.45	210.95
942.75	210.95
943.04	210.92
943.34	210.99
943.64	211.05
943.94	210.99
944.24	211.06
944.54	211.14
944.84	211.09
945.13	211.00
945.43	211.00
945.73	210.95
946.03	210.85
946.33	210.90
946.62	210.92
946.92	210.95
947.22	211.05
947.52	211.14
947.82	211.24
948.11	211.14
948.41	211.10
948.71	211.01
949.01	211.05
949.31	211.03
949.60	210.97
949.90	211.00
950.20	211.05
950.50	210.97
950.79	210.90
951.09	210.96
951.39	210.96
951.69	211.01
951.98	211.05
952.28	211.12
952.58	211.07
952.87	211.09
953.17	211.19
953.47	211.05
953.76	211.04
954.06	210.94
954.36	210.97
954.66	210.84
954.95	210.88
955.25	210.87
955.55	210.88
955.84	210.82
956.14	210.79
956.44	210.78
956.73	210.74
957.03	210.74
957.32	210.71
957.62	210.74
957.92	210.77
958.21	210.76
958.51	211.20
958.81	211.21
959.10	211.23
959.40	211.31
959.69	211.41
959.99	211.48
960.29	211.54
960.58	211.50
960.88	211.73
961.17	211.73
961.47	211.80
961.76	211.80
962.06	211.94
962.36	211.85
962.65	211.88
962.95	211.97
963.24	211.96
963.54	212.00
963.83	212.05
964.13	212.07
964.42	211.97
964.72	211.65
965.01	211.67
965.31	211.57
965.60	211.48
965.90	211.69
966.19	211.63
966.49	211.64
966.78	211.65
967.08	211.65
967.37	211.66
967.67	211.65
967.96	211.60
968.26	211.51
968.55	211.55
968.85	211.52
969.14	211.50
969.43	211.47
969.73	211.48
970.02	211.46
970.32	211.41
970.61	211.30
970.91	211.20
971.20	211.17
971.49	211.17
971.79	211.18
972.08	210.93
972.38	210.97
972.67	210.97
972.96	211.01
973.26	210.91
973.55	210.98
973.85	210.88
974.14	210.96
974.43	211.00
974.73	211.03
975.02	210.97
975.31	210.99
975.61	210.95
975.90	210.92
976.19	210.87
976.49	210.90
976.78	211.05
977.07	210.97
977.37	210.97
977.66	211.02
977.95	210.97
978.24	211.01
978.54	211.07
978.83	210.98
979.12	210.95
979.42	210.96
979.71	210.90
980.00	210.85
980.29	210.81
980.59	210.80
980.88	210.82
981.17	210.86
981.46	210.81
981.76	210.88
982.05	210.97
982.34	211.01
982.63	210.97
982.93	210.95
983.22	211.15
983.51	211.18
983.80	211.23
984.09	211.23
984.39	211.18
984.68	211.05
984.97	211.05
985.26	211.00
985.55	210.97
985.85	210.87
986.14	210.98
986.43	211.09
986.72	211.13
987.01	211.01
987.30	210.95
987.59	210.97
987.89	210.99
988.18	210.90
988.47	210.84
988.76	210.84
989.05	210.78
989.34	210.70
989.63	210.79
989.92	210.74
990.22	210.79
990.51	210.81
990.80	210.85
991.09	210.90
991.38	210.98
991.67	211.04
991.96	211.02
992.25	211.03
992.54	210.92
992.83	210.85
993.12	210.90
993.41	210.96
993.70	211.07
993.99	211.14
994.28	211.13
994.58	211.18
994.87	211.16
995.16	211.17
995.45	211.17
995.74	211.02
996.03	211.05
996.32	211.10
996.61	211.18
996.90	211.07
997.19	211.07
997.48	211.01
997.77	210.99
998.06	211.08
998.34	211.01
998.63	211.00
998.92	210.99
999.21	211.01
999.50	211.11
999.79	210.99
1000.08	210.92
1000.37	210.96
1000.66	210.92
1000.95	211.01
1001.24	211.04
1001.53	211.05
1001.82	210.99
1002.11	210.92
1002.40	210.91
1002.68	210.94
1002.97	211.24
1003.26	211.28
1003.55	211.21
1003.84	211.19
1004.13	211.26
1004.42	211.31
1004.71	211.30
1004.99	211.29
1005.28	211.35
1005.57	211.20
1005.86	211.19
1006.15	211.20
1006.44	211.21
1006.72	211.21
1007.01	211.14
1007.30	211.09
1007.59	211.04
1007.88	211.14
1008.17	211.20
1008.45	211.11
1008.74	210.91
1009.03	210.75
1009.32	210.66
1009.60	210.75
1009.89	210.70
1010.18	210.52
1010.47	210.50
1010.76	210.52
1011.04	210.56
1011.33	210.60
1011.62	210.65
1011.91	210.66
1012.19	210.67
1012.48	210.61
1012.77	210.67
1013.05	210.86
1013.34	210.89
1013.63	210.88
1013.92	210.84
1014.20	210.73
1014.49	210.76
1014.78	210.86
1015.06	210.78
1015.35	210.79
1015.64	210.78
1015.92	210.88
1016.21	210.97
1016.50	210.96
1016.78	210.99
1017.07	211.02
1017.36	210.88
1017.64	210.89
1017.93	210.85
1018.22	210.82
1018.50	210.80
1018.79	210.79
1019.08	210.58
1019.36	210.67
1019.65	210.69
1019.93	210.84
1020.22	210.94
1020.51	211.05
1020.79	210.99
1021.08	210.90
1021.36	209.95
1021.65	211.25
1021.94	210.40
1022.22	211.50
1022.51	210.95
1022.79	213.20
1023.08	211.20
1023.36	213.65
1023.65	209.90
>>>>>End Processed Spectral Data<<<<<
