SpectraSuite Data File
++++++++++++++++++++++++++++++++++++
Date: Mon Feb 25 17:09:01 EST 2013
User: group
Dark Spectrum Present: No
Reference Spectrum Present: No
Number of Sampled Component Spectra: 1
Spectrometers: USB2E7196
Integration Time (usec): 104000 (USB2E7196)
Spectra Averaged: 20 (USB2E7196)
Boxcar Smoothing: 10 (USB2E7196)
Correct for Electrical Dark: No (USB2E7196)
Strobe/Lamp Enabled: No (USB2E7196)
Correct for Detector Non-linearity: No (USB2E7196)
Correct for Stray Light: No (USB2E7196)
Number of Pixels in Processed Spectrum: 2048
>>>>>Begin Processed Spectral Data<<<<<
339.09	0.00
339.48	197.70
339.86	200.60
340.24	201.70
340.63	203.50
341.01	208.90
341.39	207.05
341.78	206.85
342.16	208.60
342.54	209.00
342.93	198.43
343.31	208.40
343.69	208.96
344.07	209.43
344.46	209.95
344.84	210.29
345.22	210.37
345.60	210.56
345.99	210.80
346.37	210.90
346.75	210.93
347.13	210.97
347.52	210.95
347.90	211.04
348.28	211.07
348.66	211.17
349.05	211.11
349.43	211.17
349.81	211.24
350.19	211.29
350.57	211.29
350.96	211.38
351.34	211.48
351.72	211.54
352.10	211.62
352.48	211.64
352.87	211.65
353.25	211.65
353.63	211.63
354.01	211.58
354.39	211.64
354.77	211.73
355.15	211.90
355.54	211.95
355.92	211.90
356.30	211.93
356.68	212.16
357.06	212.26
357.44	212.23
357.82	212.29
358.20	212.32
358.58	212.37
358.97	212.33
359.35	212.47
359.73	212.63
360.11	212.66
360.49	212.66
360.87	212.76
361.25	212.90
361.63	213.13
362.01	213.25
362.39	213.25
362.77	213.32
363.15	213.28
363.53	213.33
363.91	213.39
364.29	213.41
364.67	213.06
365.05	213.03
365.43	213.18
365.81	213.28
366.19	213.50
366.57	213.69
366.95	213.68
367.33	213.53
367.71	213.48
368.09	213.54
368.47	213.51
368.85	213.52
369.23	213.58
369.61	213.40
369.99	213.48
370.37	213.48
370.75	213.65
371.13	213.57
371.51	213.49
371.89	213.43
372.27	213.42
372.65	213.46
373.03	213.46
373.41	213.36
373.78	213.26
374.16	212.92
374.54	212.70
374.92	212.66
375.30	212.70
375.68	212.56
376.06	212.45
376.44	212.42
376.82	212.36
377.19	212.25
377.57	212.22
377.95	212.02
378.33	211.98
378.71	211.68
379.09	211.73
379.47	211.74
379.84	211.72
380.22	211.63
380.60	211.51
380.98	211.41
381.36	211.34
381.73	211.25
382.11	211.33
382.49	211.31
382.87	211.20
383.25	211.12
383.62	211.58
384.00	211.51
384.38	211.45
384.76	211.45
385.13	211.54
385.51	211.47
385.89	211.44
386.27	211.42
386.64	211.45
387.02	211.34
387.40	211.19
387.78	211.14
388.15	211.09
388.53	211.05
388.91	211.02
389.29	210.97
389.66	211.04
390.04	210.96
390.42	210.98
390.79	210.95
391.17	210.96
391.55	210.45
391.92	210.42
392.30	210.40
392.68	210.25
393.05	210.15
393.43	210.17
393.81	210.16
394.18	210.10
394.56	210.07
394.94	210.15
395.31	210.16
395.69	210.29
396.06	210.32
396.44	210.34
396.82	210.30
397.19	210.48
397.57	210.41
397.95	210.53
398.32	210.49
398.70	210.60
399.07	210.63
399.45	210.64
399.82	210.65
400.20	210.73
400.58	210.77
400.95	210.67
401.33	210.70
401.70	210.96
402.08	210.99
402.45	211.02
402.83	211.08
403.20	211.14
403.58	211.10
403.95	211.23
404.33	211.30
404.71	211.43
405.08	211.60
405.46	211.62
405.83	211.60
406.21	211.61
406.58	211.73
406.96	211.84
407.33	212.01
407.70	212.09
408.08	212.42
408.45	212.62
408.83	212.85
409.20	213.05
409.58	212.99
409.95	213.24
410.33	213.50
410.70	213.66
411.08	213.95
411.45	214.22
411.82	214.44
412.20	214.82
412.57	215.30
412.95	215.30
413.32	215.74
413.69	216.03
414.07	216.50
414.44	216.87
414.82	217.37
415.19	217.93
415.56	218.54
415.94	218.90
416.31	219.56
416.68	220.29
417.06	220.95
417.43	221.80
417.81	222.59
418.18	223.32
418.55	224.17
418.93	225.00
419.30	225.94
419.67	226.86
420.04	227.79
420.42	228.83
420.79	230.40
421.16	231.59
421.54	233.09
421.91	234.44
422.28	235.89
422.66	237.38
423.03	239.04
423.40	240.63
423.77	242.17
424.15	243.76
424.52	245.34
424.89	247.28
425.26	248.96
425.64	250.64
426.01	252.61
426.38	254.52
426.75	256.71
427.13	258.78
427.50	261.06
427.87	263.30
428.24	265.50
428.61	267.47
428.99	270.01
429.36	272.48
429.73	275.06
430.10	277.64
430.47	280.21
430.85	282.70
431.22	285.49
431.59	288.86
431.96	291.80
432.33	295.16
432.70	298.24
433.08	301.93
433.45	305.46
433.82	308.83
434.19	312.83
434.56	316.63
434.93	320.34
435.30	323.93
435.68	327.88
436.05	331.85
436.42	335.70
436.79	339.28
437.16	343.29
437.53	347.45
437.90	351.47
438.27	355.59
438.64	359.81
439.01	363.72
439.38	366.91
439.75	370.33
440.13	374.15
440.50	377.84
440.87	380.93
441.24	383.98
441.61	387.34
441.98	389.75
442.35	392.51
442.72	395.37
443.09	398.39
443.46	400.19
443.83	401.47
444.20	402.61
444.57	404.10
444.94	404.83
445.31	405.65
445.68	406.89
446.05	407.17
446.42	406.85
446.79	406.59
447.16	406.19
447.53	405.95
447.90	404.45
448.27	403.02
448.64	400.83
449.01	399.47
449.37	396.98
449.74	394.63
450.11	391.96
450.48	388.62
450.85	385.10
451.22	382.30
451.59	379.56
451.96	376.97
452.33	373.44
452.70	370.18
453.07	366.22
453.43	361.82
453.80	358.11
454.17	354.49
454.54	350.93
454.91	347.28
455.28	343.62
455.65	340.30
456.02	337.48
456.38	334.71
456.75	331.09
457.12	328.08
457.49	325.04
457.86	321.94
458.23	319.61
458.59	316.94
458.96	314.31
459.33	311.84
459.70	309.42
460.07	307.54
460.43	305.36
460.80	303.33
461.17	301.68
461.54	299.73
461.91	298.01
462.27	296.16
462.64	294.55
463.01	292.88
463.38	291.29
463.74	289.09
464.11	287.57
464.48	286.28
464.85	284.85
465.21	283.86
465.58	282.67
465.95	281.23
466.32	280.17
466.68	279.00
467.05	277.92
467.42	276.71
467.78	275.49
468.15	274.42
468.52	273.66
468.88	272.39
469.25	271.40
469.62	270.60
469.98	269.76
470.35	269.00
470.72	268.10
471.08	267.23
471.45	266.55
471.82	265.99
472.18	265.21
472.55	264.68
472.92	263.93
473.28	263.32
473.65	262.70
474.02	262.03
474.38	261.61
474.75	261.21
475.11	260.81
475.48	260.52
475.85	260.13
476.21	259.70
476.58	259.51
476.94	259.35
477.31	258.98
477.67	258.79
478.04	258.57
478.41	258.50
478.77	258.71
479.14	258.50
479.50	258.31
479.87	258.39
480.23	258.38
480.60	258.32
480.96	258.31
481.33	258.52
481.69	258.64
482.06	258.65
482.42	258.73
482.79	258.92
483.15	258.99
483.52	259.25
483.88	259.52
484.25	259.66
484.61	259.90
484.98	260.10
485.34	260.49
485.71	260.88
486.07	261.31
486.44	261.32
486.80	261.81
487.17	262.22
487.53	262.80
487.90	263.46
488.26	264.20
488.62	264.91
488.99	265.47
489.35	266.22
489.72	266.88
490.08	267.67
490.44	268.38
490.81	269.32
491.17	270.18
491.54	271.10
491.90	272.24
492.26	273.24
492.63	274.39
492.99	275.52
493.36	276.70
493.72	277.89
494.08	279.14
494.45	280.45
494.81	281.98
495.17	283.28
495.54	284.75
495.90	286.12
496.26	287.67
496.63	289.32
496.99	290.96
497.35	292.76
497.72	294.52
498.08	296.29
498.44	298.19
498.80	300.14
499.17	302.17
499.53	304.18
499.89	306.31
500.26	308.46
500.62	310.62
500.98	312.95
501.34	315.35
501.71	317.89
502.07	320.32
502.43	322.75
502.79	325.23
503.16	327.72
503.52	330.47
503.88	333.02
504.24	335.85
504.60	338.61
504.97	341.50
505.33	344.43
505.69	347.65
506.05	350.59
506.41	353.78
506.78	356.82
507.14	359.92
507.50	363.10
507.86	366.46
508.22	369.82
508.59	373.08
508.95	376.54
509.31	380.16
509.67	383.76
510.03	387.36
510.39	391.14
510.75	394.95
511.12	398.65
511.48	402.58
511.84	406.50
512.20	410.30
512.56	414.22
512.92	418.28
513.28	422.28
513.64	426.38
514.00	430.39
514.37	434.60
514.73	438.96
515.09	443.28
515.45	447.50
515.81	451.86
516.17	456.34
516.53	460.66
516.89	464.88
517.25	469.31
517.61	473.91
517.97	478.47
518.33	482.95
518.69	487.50
519.05	492.11
519.41	496.67
519.77	501.72
520.13	506.49
520.49	510.99
520.85	515.68
521.21	520.62
521.57	525.52
521.93	530.29
522.29	535.13
522.65	540.12
523.01	545.08
523.37	549.90
523.73	554.84
524.09	559.76
524.45	564.86
524.81	569.85
525.17	574.95
525.53	580.00
525.89	585.16
526.25	590.41
526.61	595.31
526.97	600.27
527.33	605.26
527.68	610.64
528.04	615.69
528.40	620.72
528.76	625.85
529.12	630.97
529.48	636.29
529.84	641.24
530.20	646.25
530.56	651.57
530.91	657.15
531.27	662.39
531.63	667.67
531.99	672.84
532.35	677.97
532.71	683.00
533.07	688.26
533.42	693.51
533.78	698.64
534.14	703.82
534.50	708.82
534.86	713.77
535.21	718.38
535.57	723.63
535.93	728.47
536.29	733.41
536.65	738.48
537.00	743.18
537.36	748.06
537.72	752.83
538.08	757.56
538.44	761.80
538.79	766.48
539.15	771.08
539.51	775.53
539.87	780.13
540.22	784.66
540.58	789.02
540.94	793.34
541.29	797.62
541.65	801.83
542.01	806.11
542.37	810.22
542.72	814.34
543.08	818.23
543.44	822.45
543.79	826.11
544.15	829.81
544.51	833.84
544.87	837.92
545.22	841.58
545.58	844.85
545.94	848.40
546.29	851.66
546.65	854.75
547.01	857.98
547.36	860.97
547.72	864.13
548.07	867.00
548.43	869.68
548.79	872.18
549.14	874.77
549.50	877.30
549.86	879.74
550.21	882.21
550.57	884.83
550.92	886.86
551.28	888.94
551.64	891.02
551.99	892.95
552.35	894.59
552.70	896.50
553.06	898.50
553.41	900.26
553.77	902.25
554.13	904.11
554.48	905.88
554.84	907.73
555.19	909.09
555.55	910.63
555.90	912.00
556.26	913.46
556.61	914.83
556.97	915.82
557.32	917.01
557.68	917.92
558.03	918.84
558.39	919.96
558.74	921.33
559.10	922.40
559.45	923.35
559.81	924.51
560.16	925.31
560.52	926.16
560.87	926.89
561.23	927.28
561.58	928.28
561.94	928.83
562.29	929.02
562.64	929.50
563.00	929.86
563.35	930.54
563.71	931.24
564.06	931.75
564.42	932.59
564.77	933.26
565.12	933.77
565.48	934.44
565.83	934.95
566.19	935.51
566.54	935.52
566.89	935.64
567.25	935.66
567.60	936.01
567.96	936.23
568.31	936.61
568.66	936.57
569.02	936.08
569.37	935.71
569.72	935.57
570.08	935.43
570.43	935.02
570.78	934.51
571.14	933.70
571.49	932.94
571.84	932.21
572.20	931.21
572.55	930.69
572.90	929.37
573.26	928.15
573.61	926.67
573.96	925.75
574.31	924.43
574.67	923.06
575.02	921.14
575.37	919.41
575.72	917.57
576.08	916.34
576.43	914.73
576.78	913.20
577.13	911.80
577.49	910.14
577.84	908.70
578.19	907.19
578.54	905.92
578.90	904.65
579.25	903.17
579.60	901.59
579.95	899.73
580.30	898.30
580.66	896.96
581.01	895.40
581.36	893.57
581.71	891.96
582.06	890.57
582.42	889.24
582.77	887.42
583.12	885.95
583.47	884.36
583.82	882.90
584.17	881.16
584.53	879.55
584.88	877.77
585.23	876.14
585.58	874.66
585.93	872.85
586.28	871.29
586.63	869.58
586.98	867.95
587.34	866.54
587.69	864.84
588.04	863.25
588.39	861.61
588.74	859.72
589.09	857.99
589.44	855.90
589.79	854.43
590.14	852.99
590.49	851.23
590.84	849.22
591.19	847.68
591.54	846.15
591.89	844.05
592.25	842.51
592.60	840.42
592.95	838.12
593.30	835.95
593.65	833.50
594.00	831.34
594.35	830.32
594.70	828.10
595.05	826.11
595.40	823.90
595.75	821.60
596.10	819.90
596.45	818.11
596.80	816.50
597.15	814.56
597.50	812.53
597.85	810.59
598.19	808.60
598.54	806.43
598.89	804.38
599.24	802.97
599.59	801.20
599.94	799.69
600.29	797.98
600.64	796.37
600.99	794.66
601.34	792.91
601.69	790.09
602.04	788.26
602.39	786.19
602.74	784.46
603.08	783.06
603.43	781.54
603.78	779.78
604.13	777.89
604.48	776.08
604.83	774.70
605.18	773.21
605.53	771.60
605.87	769.76
606.22	768.14
606.57	766.13
606.92	764.01
607.27	761.85
607.62	759.91
607.96	758.02
608.31	756.52
608.66	754.69
609.01	752.80
609.36	750.80
609.70	748.81
610.05	746.68
610.40	744.52
610.75	742.08
611.10	740.00
611.44	737.37
611.79	734.87
612.14	732.10
612.49	729.11
612.83	726.58
613.18	723.98
613.53	721.37
613.88	718.57
614.22	715.99
614.57	713.40
614.92	710.91
615.27	708.43
615.61	705.61
615.96	703.09
616.31	700.69
616.65	698.40
617.00	696.11
617.35	693.48
617.70	690.84
618.04	688.09
618.39	685.18
618.74	682.81
619.08	680.08
619.43	677.55
619.78	675.25
620.12	672.85
620.47	670.52
620.82	667.78
621.16	665.23
621.51	662.82
621.85	660.43
622.20	657.66
622.55	654.87
622.89	652.25
623.24	649.52
623.59	646.83
623.93	644.13
624.28	641.43
624.62	639.46
624.97	637.06
625.32	634.77
625.66	632.45
626.01	629.95
626.35	627.69
626.70	625.24
627.04	623.00
627.39	620.34
627.73	618.02
628.08	615.91
628.43	613.66
628.77	611.16
629.12	608.59
629.46	606.55
629.81	604.32
630.15	601.85
630.50	599.60
630.84	596.97
631.19	594.50
631.53	592.18
631.88	589.05
632.22	586.36
632.57	584.03
632.91	581.61
633.26	579.29
633.60	576.88
633.95	574.62
634.29	571.99
634.64	569.90
634.98	567.25
635.32	564.87
635.67	562.62
636.01	560.30
636.36	557.91
636.70	555.59
637.05	553.22
637.39	551.18
637.73	549.04
638.08	547.10
638.42	545.05
638.77	543.02
639.11	540.97
639.45	538.86
639.80	536.44
640.14	534.15
640.49	531.89
640.83	529.66
641.17	527.49
641.52	525.30
641.86	522.85
642.20	520.90
642.55	518.42
642.89	516.09
643.23	513.68
643.58	511.77
643.92	509.35
644.26	507.13
644.61	504.86
644.95	502.40
645.29	500.07
645.64	497.76
645.98	495.26
646.32	493.25
646.66	490.95
647.01	488.81
647.35	486.62
647.69	484.33
648.04	482.28
648.38	480.12
648.72	477.96
649.06	475.81
649.41	473.49
649.75	471.43
650.09	469.35
650.43	467.41
650.78	464.93
651.12	462.77
651.46	460.55
651.80	458.51
652.14	456.46
652.49	454.40
652.83	452.25
653.17	450.11
653.51	447.87
653.85	445.88
654.20	443.99
654.54	441.83
654.88	439.77
655.22	437.70
655.56	435.42
655.90	433.41
656.25	431.44
656.59	429.30
656.93	427.29
657.27	425.39
657.61	423.23
657.95	421.50
658.29	419.51
658.64	417.75
658.98	415.68
659.32	413.64
659.66	411.71
660.00	409.79
660.34	407.85
660.68	405.90
661.02	404.00
661.36	401.93
661.70	400.14
662.05	398.48
662.39	396.75
662.73	395.38
663.07	393.90
663.41	392.09
663.75	390.50
664.09	388.75
664.43	386.99
664.77	385.49
665.11	383.71
665.45	382.24
665.79	380.57
666.13	378.97
666.47	377.41
666.81	375.79
667.15	374.18
667.49	372.80
667.83	371.44
668.17	369.86
668.51	368.45
668.85	367.15
669.19	365.81
669.53	364.18
669.87	362.42
670.21	360.70
670.55	359.34
670.89	358.18
671.23	356.96
671.57	355.49
671.91	354.06
672.25	352.80
672.58	351.52
672.92	350.15
673.26	348.92
673.60	347.73
673.94	346.49
674.28	345.30
674.62	344.07
674.96	342.75
675.30	341.62
675.64	340.38
675.97	339.09
676.31	337.87
676.65	336.81
676.99	335.99
677.33	334.85
677.67	333.70
678.01	332.30
678.34	331.09
678.68	330.02
679.02	328.85
679.36	327.72
679.70	326.40
680.04	325.33
680.37	324.11
680.71	322.98
681.05	321.94
681.39	320.73
681.73	319.57
682.06	318.55
682.40	317.50
682.74	316.47
683.08	315.57
683.42	314.38
683.75	313.28
684.09	312.01
684.43	311.02
684.77	310.03
685.10	309.05
685.44	307.99
685.78	307.00
686.12	306.05
686.45	305.06
686.79	304.16
687.13	303.28
687.46	302.37
687.80	301.54
688.14	300.51
688.48	299.78
688.81	298.87
689.15	297.95
689.49	296.94
689.82	296.09
690.16	295.01
690.50	294.10
690.83	293.22
691.17	292.34
691.51	291.37
691.84	290.38
692.18	289.46
692.52	288.73
692.85	288.02
693.19	287.29
693.52	286.42
693.86	285.55
694.20	284.64
694.53	283.85
694.87	282.91
695.21	282.23
695.54	281.33
695.88	280.52
696.21	279.63
696.55	278.92
696.88	278.18
697.22	277.39
697.56	276.76
697.89	276.05
698.23	275.35
698.56	274.66
698.90	274.09
699.23	273.41
699.57	272.63
699.90	271.75
700.24	270.90
700.58	270.35
700.91	269.73
701.25	269.33
701.58	268.79
701.92	268.22
702.25	267.56
702.59	266.86
702.92	266.29
703.26	265.74
703.59	265.12
703.93	264.74
704.26	264.24
704.60	263.65
704.93	262.98
705.26	262.35
705.60	261.86
705.93	261.28
706.27	260.89
706.60	260.50
706.94	260.20
707.27	259.59
707.61	258.99
707.94	258.52
708.27	257.79
708.61	257.15
708.94	256.64
709.28	256.10
709.61	255.67
709.94	255.26
710.28	254.85
710.61	254.43
710.95	253.63
711.28	253.37
711.61	252.82
711.95	252.55
712.28	252.14
712.61	251.68
712.95	251.40
713.28	251.07
713.61	250.47
713.95	249.91
714.28	249.62
714.61	249.22
714.95	248.73
715.28	248.33
715.61	247.98
715.95	247.55
716.28	247.14
716.61	246.83
716.95	246.33
717.28	245.95
717.61	245.55
717.94	245.21
718.28	244.68
718.61	244.40
718.94	243.88
719.27	243.48
719.61	243.19
719.94	242.72
720.27	242.19
720.60	241.91
720.94	241.58
721.27	241.32
721.60	241.03
721.93	240.76
722.27	240.45
722.60	240.18
722.93	239.93
723.26	239.65
723.59	239.30
723.93	239.10
724.26	238.78
724.59	238.47
724.92	238.22
725.25	238.01
725.59	237.77
725.92	237.55
726.25	237.32
726.58	237.04
726.91	236.83
727.24	236.60
727.57	236.33
727.91	236.06
728.24	235.76
728.57	235.46
728.90	235.22
729.23	235.00
729.56	234.93
729.89	234.67
730.22	234.37
730.55	234.06
730.89	233.80
731.22	233.52
731.55	233.32
731.88	233.12
732.21	232.79
732.54	232.45
732.87	232.30
733.20	232.10
733.53	231.85
733.86	231.66
734.19	231.37
734.52	231.19
734.85	231.25
735.18	230.98
735.51	230.93
735.84	230.77
736.17	230.63
736.50	230.21
736.83	230.36
737.16	230.34
737.49	230.23
737.82	230.04
738.15	229.96
738.48	229.77
738.81	229.65
739.14	229.52
739.47	229.41
739.80	229.18
740.13	229.09
740.46	228.85
740.79	228.59
741.12	228.46
741.45	228.21
741.78	227.79
742.11	227.80
742.44	227.57
742.77	227.44
743.10	227.28
743.43	227.14
743.75	226.67
744.08	226.86
744.41	226.61
744.74	226.39
745.07	226.09
745.40	226.02
745.73	225.93
746.06	225.74
746.39	225.65
746.71	225.43
747.04	225.17
747.37	225.04
747.70	224.99
748.03	224.86
748.36	224.82
748.68	224.67
749.01	224.35
749.34	224.25
749.67	224.12
750.00	224.02
750.33	224.09
750.65	223.98
750.98	223.43
751.31	223.38
751.64	223.27
751.97	223.50
752.29	223.26
752.62	223.01
752.95	222.89
753.28	222.70
753.60	222.56
753.93	222.60
754.26	222.47
754.59	222.17
754.91	221.97
755.24	221.88
755.57	221.82
755.90	221.67
756.22	221.46
756.55	221.30
756.88	221.07
757.20	220.72
757.53	220.45
757.86	220.29
758.19	220.15
758.51	220.07
758.84	219.68
759.17	219.63
759.49	219.50
759.82	219.54
760.15	219.44
760.47	219.34
760.80	219.15
761.13	219.16
761.45	219.15
761.78	219.05
762.11	218.97
762.43	218.84
762.76	218.81
763.08	218.75
763.41	218.69
763.74	218.66
764.06	218.63
764.39	218.65
764.71	218.62
765.04	218.47
765.37	218.30
765.69	218.23
766.02	218.17
766.34	218.13
766.67	217.92
767.00	217.88
767.32	217.96
767.65	218.02
767.97	217.92
768.30	217.80
768.62	217.80
768.95	217.64
769.27	217.56
769.60	217.52
769.92	217.40
770.25	217.24
770.57	217.10
770.90	217.02
771.22	216.90
771.55	216.82
771.87	216.84
772.20	216.80
772.52	217.02
772.85	217.34
773.17	217.32
773.50	217.24
773.82	217.16
774.15	216.97
774.47	216.73
774.80	216.51
775.12	216.52
775.45	216.56
775.77	216.60
776.09	216.57
776.42	216.54
776.74	216.61
777.07	216.58
777.39	216.57
777.72	216.45
778.04	216.47
778.36	216.36
778.69	216.39
779.01	216.38
779.33	216.02
779.66	215.63
779.98	215.52
780.31	215.55
780.63	215.54
780.95	215.56
781.28	215.45
781.60	215.44
781.92	215.40
782.25	215.23
782.57	215.19
782.89	215.11
783.22	215.03
783.54	214.82
783.86	214.77
784.19	214.66
784.51	214.81
784.83	214.72
785.16	214.71
785.48	214.62
785.80	214.58
786.12	214.63
786.45	214.56
786.77	214.57
787.09	214.46
787.42	214.40
787.74	214.37
788.06	214.41
788.38	214.34
788.71	214.25
789.03	214.24
789.35	214.23
789.67	214.18
789.99	214.17
790.32	214.27
790.64	214.32
790.96	214.63
791.28	214.43
791.61	214.37
791.93	214.32
792.25	214.25
792.57	214.46
792.89	214.38
793.21	214.34
793.54	214.21
793.86	214.16
794.18	214.19
794.50	214.11
794.82	214.04
795.14	214.18
795.47	214.34
795.79	214.36
796.11	214.22
796.43	214.23
796.75	214.23
797.07	214.10
797.39	214.10
797.71	213.80
798.04	213.81
798.36	213.85
798.68	213.87
799.00	213.93
799.32	213.76
799.64	213.74
799.96	213.78
800.28	213.84
800.60	213.79
800.92	213.80
801.24	213.75
801.56	213.90
801.89	213.78
802.21	213.67
802.53	213.54
802.85	213.58
803.17	213.72
803.49	213.65
803.81	213.67
804.13	213.60
804.45	213.58
804.77	213.63
805.09	213.64
805.41	213.58
805.73	213.44
806.05	213.32
806.37	213.33
806.69	213.21
807.01	213.18
807.33	213.21
807.65	213.06
807.97	213.22
808.28	213.05
808.60	213.02
808.92	212.98
809.24	213.27
809.56	213.25
809.88	213.03
810.20	213.08
810.52	213.11
810.84	213.03
811.16	212.98
811.48	212.90
811.80	212.89
812.12	212.88
812.43	212.97
812.75	213.01
813.07	212.94
813.39	212.97
813.71	212.85
814.03	212.76
814.35	212.73
814.67	212.58
814.98	212.54
815.30	212.61
815.62	212.55
815.94	212.29
816.26	212.26
816.58	212.26
816.89	212.25
817.21	212.12
817.53	212.21
817.85	212.25
818.17	212.27
818.48	212.09
818.80	212.18
819.12	212.18
819.44	212.11
819.76	212.15
820.07	212.18
820.39	212.24
820.71	212.31
821.03	212.36
821.34	212.34
821.66	212.45
821.98	212.40
822.30	212.37
822.61	212.63
822.93	212.60
823.25	212.61
823.57	212.56
823.88	212.68
824.20	212.66
824.52	212.67
824.83	212.60
825.15	212.66
825.47	212.55
825.79	212.47
826.10	212.45
826.42	212.38
826.74	212.39
827.05	212.37
827.37	212.40
827.69	212.34
828.00	212.33
828.32	212.31
828.64	212.28
828.95	212.49
829.27	212.30
829.58	212.25
829.90	212.29
830.22	212.27
830.53	212.25
830.85	212.18
831.17	212.01
831.48	212.09
831.80	212.08
832.11	212.06
832.43	212.03
832.75	212.02
833.06	212.20
833.38	212.16
833.69	212.13
834.01	212.12
834.32	212.08
834.64	212.06
834.96	212.02
835.27	212.03
835.59	211.88
835.90	211.81
836.22	211.82
836.53	211.68
836.85	211.61
837.16	211.86
837.48	211.87
837.79	212.04
838.11	212.05
838.42	212.12
838.74	212.20
839.05	212.26
839.37	212.28
839.68	212.10
840.00	212.08
840.31	212.06
840.63	212.07
840.94	212.09
841.26	212.05
841.57	211.98
841.88	212.03
842.20	211.97
842.51	211.95
842.83	211.96
843.14	212.31
843.46	212.34
843.77	212.15
844.08	212.12
844.40	212.05
844.71	211.91
845.03	211.88
845.34	211.82
845.65	211.83
845.97	211.75
846.28	211.78
846.60	211.71
846.91	211.71
847.22	211.61
847.54	211.68
847.85	211.78
848.16	211.81
848.48	211.78
848.79	211.94
849.10	212.01
849.42	212.06
849.73	211.72
850.04	211.68
850.36	211.53
850.67	211.60
850.98	211.55
851.30	211.70
851.61	211.61
851.92	211.59
852.23	211.59
852.55	211.70
852.86	211.66
853.17	211.69
853.49	211.79
853.80	211.85
854.11	211.88
854.42	211.79
854.74	211.77
855.05	211.79
855.36	211.61
855.67	211.57
855.99	211.58
856.30	211.98
856.61	212.02
856.92	212.06
857.23	211.98
857.55	211.97
857.86	211.81
858.17	211.86
858.48	211.80
858.79	211.72
859.11	211.72
859.42	211.68
859.73	211.61
860.04	211.59
860.35	211.48
860.66	211.30
860.98	211.34
861.29	211.34
861.60	211.27
861.91	211.32
862.22	211.29
862.53	211.18
862.84	210.78
863.16	210.85
863.47	210.83
863.78	210.83
864.09	210.85
864.40	210.85
864.71	210.88
865.02	210.95
865.33	210.93
865.64	210.84
865.95	210.85
866.27	211.10
866.58	211.06
866.89	211.12
867.20	211.18
867.51	211.10
867.82	211.08
868.13	211.20
868.44	211.10
868.75	211.19
869.06	211.19
869.37	211.23
869.68	211.11
869.99	211.07
870.30	211.12
870.61	211.12
870.92	211.10
871.23	211.04
871.54	211.07
871.85	211.09
872.16	211.10
872.47	211.06
872.78	210.81
873.09	210.81
873.40	210.79
873.71	210.82
874.02	210.85
874.33	210.85
874.64	210.73
874.95	210.81
875.26	210.65
875.56	210.69
875.87	210.69
876.18	210.68
876.49	211.05
876.80	211.03
877.11	210.95
877.42	211.00
877.73	211.04
878.04	211.00
878.35	211.07
878.66	211.12
878.96	211.15
879.27	211.24
879.58	211.21
879.89	211.23
880.20	211.27
880.51	211.31
880.82	211.35
881.12	211.35
881.43	211.32
881.74	211.30
882.05	211.37
882.36	211.39
882.67	211.40
882.97	211.04
883.28	211.02
883.59	211.07
883.90	211.13
884.21	211.21
884.51	211.21
884.82	211.15
885.13	211.08
885.44	211.10
885.74	211.11
886.05	211.15
886.36	211.15
886.67	211.10
886.98	211.19
887.28	211.14
887.59	211.21
887.90	211.24
888.20	211.27
888.51	211.26
888.82	211.18
889.13	211.26
889.43	211.53
889.74	211.47
890.05	211.45
890.35	211.47
890.66	211.37
890.97	211.34
891.28	211.28
891.58	211.30
891.89	211.24
892.20	211.16
892.50	211.12
892.81	211.11
893.12	211.13
893.42	210.97
893.73	211.00
894.04	210.96
894.34	210.96
894.65	210.88
894.95	210.82
895.26	210.82
895.57	210.95
895.87	210.62
896.18	210.72
896.48	210.72
896.79	210.63
897.10	210.66
897.40	210.62
897.71	210.74
898.01	210.78
898.32	210.92
898.63	210.95
898.93	210.92
899.24	210.87
899.54	210.75
899.85	210.76
900.15	210.78
900.46	210.72
900.76	210.70
901.07	210.78
901.38	210.88
901.68	211.02
901.99	210.82
902.29	210.82
902.60	210.77
902.90	210.80
903.21	210.80
903.51	210.88
903.82	211.00
904.12	210.99
904.43	211.00
904.73	211.00
905.03	210.98
905.34	211.44
905.64	211.53
905.95	211.60
906.25	211.66
906.56	211.66
906.86	211.69
907.17	211.66
907.47	211.69
907.77	211.58
908.08	211.50
908.38	211.56
908.69	211.69
908.99	211.83
909.30	211.87
909.60	211.82
909.90	211.77
910.21	211.65
910.51	211.56
910.81	211.50
911.12	211.53
911.42	211.52
911.73	211.09
912.03	211.05
912.33	211.13
912.64	211.07
912.94	211.02
913.24	210.98
913.55	210.92
913.85	210.85
914.15	210.86
914.46	210.94
914.76	210.83
915.06	210.78
915.37	210.60
915.67	210.51
915.97	210.57
916.27	210.49
916.58	210.48
916.88	210.53
917.18	210.58
917.49	210.70
917.79	210.76
918.09	210.84
918.39	210.93
918.70	210.93
919.00	210.99
919.30	211.19
919.60	211.19
919.91	211.25
920.21	211.34
920.51	211.34
920.81	211.25
921.12	211.36
921.42	211.35
921.72	211.39
922.02	211.51
922.32	211.55
922.63	211.54
922.93	211.71
923.23	211.71
923.53	211.65
923.83	211.42
924.13	211.38
924.44	211.36
924.74	211.40
925.04	211.42
925.34	211.38
925.64	211.19
925.94	211.18
926.24	211.38
926.55	211.33
926.85	211.33
927.15	211.36
927.45	211.36
927.75	211.40
928.05	211.48
928.35	211.40
928.65	211.40
928.95	211.45
929.26	211.33
929.56	211.40
929.86	211.44
930.16	211.48
930.46	211.44
930.76	211.40
931.06	211.25
931.36	211.21
931.66	211.25
931.96	211.36
932.26	211.41
932.56	211.17
932.86	211.20
933.16	211.22
933.46	211.16
933.76	211.05
934.06	211.07
934.36	211.18
934.66	211.16
934.96	211.19
935.26	211.17
935.56	211.21
935.86	211.11
936.16	211.03
936.46	211.02
936.76	211.03
937.06	211.00
937.36	211.03
937.66	211.03
937.96	211.00
938.26	210.84
938.56	210.84
938.86	210.87
939.16	211.00
939.46	210.96
939.76	211.04
940.06	211.13
940.35	211.03
940.65	210.77
940.95	210.84
941.25	210.78
941.55	210.81
941.85	210.75
942.15	210.84
942.45	210.98
942.75	210.93
943.04	210.94
943.34	211.02
943.64	211.03
943.94	210.95
944.24	210.93
944.54	211.03
944.84	211.02
945.13	211.04
945.43	210.92
945.73	210.97
946.03	210.94
946.33	210.90
946.62	210.89
946.92	210.94
947.22	210.84
947.52	210.90
947.82	210.98
948.11	210.95
948.41	210.86
948.71	210.79
949.01	210.82
949.31	210.81
949.60	210.80
949.90	210.88
950.20	210.87
950.50	210.96
950.79	210.87
951.09	210.86
951.39	210.81
951.69	210.81
951.98	210.87
952.28	210.84
952.58	210.88
952.87	210.88
953.17	210.93
953.47	211.01
953.76	211.04
954.06	210.93
954.36	210.94
954.66	210.95
954.95	211.00
955.25	211.00
955.55	211.08
955.84	211.01
956.14	210.99
956.44	210.96
956.73	210.87
957.03	210.89
957.32	210.92
957.62	210.91
957.92	210.93
958.21	210.90
958.51	211.33
958.81	211.30
959.10	211.31
959.40	211.44
959.69	211.48
959.99	211.50
960.29	211.53
960.58	211.49
960.88	211.60
961.17	211.58
961.47	211.62
961.76	211.54
962.06	211.59
962.36	211.54
962.65	211.67
962.95	211.68
963.24	211.73
963.54	211.75
963.83	211.80
964.13	211.79
964.42	211.72
964.72	211.40
965.01	211.41
965.31	211.42
965.60	211.27
965.90	211.42
966.19	211.27
966.49	211.30
966.78	211.37
967.08	211.31
967.37	211.35
967.67	211.31
967.96	211.40
968.26	211.39
968.55	211.44
968.85	211.38
969.14	211.43
969.43	211.39
969.73	211.34
970.02	211.33
970.32	211.36
970.61	211.33
970.91	211.28
971.20	211.19
971.49	211.15
971.79	211.16
972.08	210.97
972.38	211.01
972.67	210.95
972.96	210.96
973.26	210.90
973.55	210.97
973.85	210.97
974.14	210.95
974.43	210.94
974.73	210.94
975.02	210.88
975.31	210.83
975.61	210.80
975.90	210.79
976.19	210.78
976.49	210.77
976.78	210.82
977.07	210.77
977.37	210.89
977.66	210.95
977.95	210.90
978.24	210.78
978.54	210.86
978.83	210.83
979.12	210.80
979.42	210.80
979.71	210.71
980.00	210.72
980.29	210.71
980.59	210.72
980.88	210.75
981.17	210.73
981.46	210.72
981.76	210.71
982.05	210.83
982.34	210.85
982.63	210.85
982.93	210.75
983.22	210.92
983.51	210.89
983.80	210.91
984.09	210.97
984.39	211.10
984.68	211.05
984.97	211.10
985.26	211.08
985.55	211.15
985.85	211.09
986.14	211.13
986.43	211.14
986.72	211.09
987.01	210.98
987.30	211.05
987.59	211.03
987.89	211.05
988.18	210.91
988.47	210.83
988.76	210.82
989.05	210.92
989.34	210.81
989.63	210.86
989.92	210.79
990.22	210.84
990.51	210.68
990.80	210.67
991.09	210.60
991.38	210.63
991.67	210.67
991.96	210.59
992.25	210.55
992.54	210.54
992.83	210.58
993.12	210.55
993.41	210.60
993.70	210.75
993.99	210.84
994.28	210.89
994.58	210.95
994.87	210.96
995.16	210.88
995.45	210.89
995.74	210.86
996.03	210.96
996.32	210.92
996.61	211.17
996.90	211.21
997.19	211.27
997.48	211.25
997.77	211.19
998.06	211.30
998.34	211.27
998.63	211.22
998.92	211.22
999.21	211.26
999.50	211.29
999.79	211.25
1000.08	211.25
1000.37	211.30
1000.66	211.26
1000.95	211.30
1001.24	211.37
1001.53	211.39
1001.82	211.34
1002.11	211.27
1002.40	211.28
1002.68	211.31
1002.97	211.49
1003.26	211.40
1003.55	211.43
1003.84	211.39
1004.13	211.46
1004.42	211.48
1004.71	211.48
1004.99	211.45
1005.28	211.54
1005.57	211.50
1005.86	211.43
1006.15	211.34
1006.44	211.27
1006.72	211.36
1007.01	211.29
1007.30	211.25
1007.59	211.19
1007.88	211.21
1008.17	211.20
1008.45	211.17
1008.74	211.03
1009.03	210.85
1009.32	210.91
1009.60	210.84
1009.89	210.91
1010.18	210.72
1010.47	210.71
1010.76	210.72
1011.04	210.75
1011.33	210.74
1011.62	210.75
1011.91	210.78
1012.19	210.79
1012.48	210.82
1012.77	210.85
1013.05	211.00
1013.34	211.01
1013.63	210.96
1013.92	210.97
1014.20	210.98
1014.49	211.06
1014.78	211.11
1015.06	211.00
1015.35	211.03
1015.64	211.07
1015.92	211.06
1016.21	211.16
1016.50	211.13
1016.78	211.12
1017.07	211.21
1017.36	211.16
1017.64	211.10
1017.93	211.12
1018.22	211.09
1018.50	211.04
1018.79	210.92
1019.08	210.77
1019.36	210.81
1019.65	210.91
1019.93	210.96
1020.22	211.06
1020.51	211.18
1020.79	211.10
1021.08	209.70
1021.36	209.60
1021.65	210.10
1021.94	210.70
1022.22	211.70
1022.51	211.45
1022.79	211.95
1023.08	212.80
1023.36	215.50
1023.65	209.55
>>>>>End Processed Spectral Data<<<<<
