SpectraSuite Data File
++++++++++++++++++++++++++++++++++++
Date: Mon Feb 25 17:20:24 EST 2013
User: group
Dark Spectrum Present: No
Reference Spectrum Present: No
Number of Sampled Component Spectra: 1
Spectrometers: USB2E7196
Integration Time (usec): 104000 (USB2E7196)
Spectra Averaged: 20 (USB2E7196)
Boxcar Smoothing: 10 (USB2E7196)
Correct for Electrical Dark: No (USB2E7196)
Strobe/Lamp Enabled: No (USB2E7196)
Correct for Detector Non-linearity: No (USB2E7196)
Correct for Stray Light: No (USB2E7196)
Number of Pixels in Processed Spectrum: 2048
>>>>>Begin Processed Spectral Data<<<<<
339.09	0.00
339.48	198.65
339.86	200.40
340.24	202.15
340.63	203.05
341.01	210.10
341.39	204.90
341.78	206.40
342.16	209.35
342.54	210.30
342.93	198.60
343.31	208.65
343.69	209.16
344.07	209.64
344.46	210.11
344.84	210.52
345.22	210.63
345.60	210.98
345.99	211.26
346.37	211.47
346.75	211.52
347.13	211.62
347.52	211.78
347.90	211.94
348.28	212.05
348.66	212.20
349.05	212.03
349.43	212.12
349.81	212.23
350.19	212.32
350.57	212.44
350.96	212.53
351.34	212.65
351.72	212.83
352.10	212.94
352.48	212.94
352.87	212.99
353.25	213.01
353.63	213.12
354.01	213.18
354.39	213.21
354.77	213.34
355.15	213.54
355.54	213.52
355.92	213.44
356.30	213.49
356.68	213.76
357.06	213.90
357.44	213.85
357.82	213.87
358.20	213.94
358.58	213.88
358.97	213.86
359.35	213.96
359.73	214.03
360.11	214.05
360.49	214.21
360.87	214.26
361.25	214.38
361.63	214.47
362.01	214.52
362.39	214.53
362.77	214.56
363.15	214.58
363.53	214.57
363.91	214.67
364.29	214.73
364.67	214.43
365.05	214.50
365.43	214.59
365.81	214.79
366.19	214.97
366.57	215.16
366.95	215.25
367.33	215.16
367.71	215.19
368.09	215.27
368.47	215.25
368.85	215.26
369.23	215.35
369.61	215.22
369.99	215.37
370.37	215.37
370.75	215.54
371.13	215.49
371.51	215.52
371.89	215.44
372.27	215.30
372.65	215.37
373.03	215.39
373.41	215.40
373.78	215.30
374.16	215.10
374.54	215.00
374.92	214.98
375.30	214.99
375.68	214.94
376.06	214.97
376.44	214.88
376.82	214.91
377.19	214.82
377.57	214.75
377.95	214.52
378.33	214.40
378.71	214.14
379.09	214.14
379.47	214.06
379.84	214.09
380.22	214.14
380.60	213.99
380.98	213.88
381.36	213.77
381.73	213.65
382.11	213.67
382.49	213.61
382.87	213.52
383.25	213.47
383.62	213.82
384.00	213.71
384.38	213.74
384.76	213.75
385.13	213.84
385.51	213.86
385.89	213.89
386.27	213.89
386.64	213.95
387.02	213.89
387.40	213.89
387.78	213.83
388.15	213.78
388.53	213.79
388.91	213.82
389.29	213.82
389.66	213.89
390.04	213.88
390.42	213.92
390.79	213.89
391.17	213.87
391.55	213.47
391.92	213.49
392.30	213.48
392.68	213.35
393.05	213.30
393.43	213.30
393.81	213.36
394.18	213.43
394.56	213.45
394.94	213.52
395.31	213.49
395.69	213.61
396.06	213.69
396.44	213.69
396.82	213.69
397.19	213.92
397.57	213.94
397.95	213.98
398.32	213.91
398.70	213.95
399.07	214.12
399.45	214.17
399.82	214.21
400.20	214.28
400.58	214.37
400.95	214.23
401.33	214.36
401.70	214.58
402.08	214.56
402.45	214.58
402.83	214.75
403.20	214.93
403.58	215.02
403.95	215.17
404.33	215.37
404.71	215.46
405.08	215.82
405.46	216.00
405.83	216.19
406.21	216.40
406.58	216.64
406.96	216.81
407.33	217.04
407.70	217.33
408.08	217.85
408.45	218.26
408.83	218.77
409.20	219.06
409.58	219.23
409.95	219.78
410.33	220.27
410.70	220.60
411.08	221.08
411.45	221.59
411.82	222.09
412.20	222.76
412.57	223.56
412.95	223.88
413.32	224.67
413.69	225.43
414.07	226.32
414.44	227.28
414.82	228.26
415.19	229.38
415.56	230.53
415.94	231.59
416.31	232.88
416.68	234.17
417.06	235.69
417.43	237.18
417.81	238.81
418.18	240.47
418.55	242.31
418.93	244.20
419.30	246.26
419.67	248.50
420.04	250.64
420.42	252.90
420.79	255.65
421.16	258.15
421.54	261.06
421.91	263.90
422.28	266.78
422.66	269.88
423.03	273.07
423.40	276.22
423.77	279.49
424.15	282.88
424.52	286.47
424.89	290.30
425.26	294.10
425.64	297.71
426.01	301.67
426.38	305.61
426.75	309.75
427.13	313.97
427.50	318.50
427.87	323.20
428.24	327.87
428.61	332.35
428.99	337.34
429.36	342.50
429.73	347.69
430.10	352.91
430.47	358.30
430.85	363.61
431.22	369.48
431.59	375.80
431.96	381.64
432.33	388.24
432.70	394.56
433.08	402.03
433.45	408.92
433.82	415.87
434.19	423.75
434.56	431.35
434.93	438.70
435.30	445.78
435.68	453.83
436.05	461.75
436.42	469.45
436.79	476.69
437.16	484.43
437.53	492.54
437.90	500.66
438.27	508.59
438.64	516.91
439.01	524.55
439.38	531.32
439.75	537.86
440.13	545.24
440.50	552.40
440.87	558.02
441.24	564.07
441.61	570.65
441.98	575.48
442.35	581.05
442.72	586.68
443.09	592.29
443.46	595.34
443.83	597.53
444.20	599.47
444.57	602.15
444.94	603.49
445.31	604.84
445.68	606.20
446.05	606.80
446.42	605.82
446.79	604.68
447.16	603.50
447.53	602.69
447.90	599.49
448.27	596.28
448.64	591.97
449.01	588.81
449.37	583.33
449.74	577.98
450.11	571.88
450.48	564.92
450.85	557.73
451.22	551.93
451.59	546.26
451.96	540.79
452.33	533.64
452.70	526.94
453.07	519.16
453.43	511.01
453.80	503.22
454.17	496.02
454.54	489.15
454.91	481.76
455.28	474.66
455.65	468.00
456.02	461.67
456.38	455.97
456.75	448.93
457.12	443.12
457.49	437.35
457.86	431.67
458.23	426.99
458.59	421.76
458.96	416.32
459.33	411.59
459.70	406.77
460.07	402.95
460.43	398.71
460.80	394.74
461.17	391.30
461.54	387.67
461.91	384.20
462.27	380.68
462.64	377.67
463.01	374.37
463.38	371.27
463.74	367.79
464.11	364.96
464.48	362.53
464.85	359.80
465.21	357.83
465.58	355.77
465.95	353.09
466.32	351.00
466.68	348.94
467.05	346.81
467.42	344.84
467.78	342.67
468.15	340.60
468.52	339.11
468.88	337.10
469.25	335.34
469.62	333.99
469.98	332.60
470.35	331.16
470.72	329.90
471.08	328.49
471.45	327.33
471.82	326.33
472.18	325.12
472.55	324.30
472.92	323.31
473.28	322.43
473.65	321.67
474.02	320.89
474.38	320.46
474.75	320.10
475.11	319.54
475.48	319.27
475.85	319.03
476.21	318.69
476.58	318.60
476.94	318.79
477.31	318.86
477.67	318.87
478.04	319.24
478.41	319.54
478.77	320.26
479.14	320.60
479.50	321.04
479.87	321.70
480.23	322.37
480.60	322.96
480.96	323.62
481.33	324.76
481.69	325.89
482.06	326.72
482.42	327.74
482.79	329.03
483.15	330.39
483.52	332.09
483.88	333.63
484.25	335.20
484.61	336.83
484.98	338.48
485.34	340.58
485.71	342.56
486.07	344.90
486.44	346.91
486.80	349.45
487.17	352.20
487.53	355.12
487.90	358.27
488.26	361.64
488.62	365.17
488.99	368.60
489.35	372.25
489.72	376.37
490.08	380.62
490.44	385.01
490.81	389.61
491.17	394.34
491.54	399.64
491.90	405.09
492.26	410.75
492.63	416.71
492.99	422.76
493.36	429.43
493.72	436.32
494.08	443.44
494.45	451.04
494.81	458.95
495.17	467.00
495.54	475.55
495.90	484.48
496.26	493.69
496.63	503.46
496.99	513.66
497.35	524.15
497.72	535.04
498.08	546.27
498.44	557.92
498.80	570.23
499.17	582.96
499.53	596.17
499.89	609.91
500.26	623.96
500.62	638.49
500.98	653.60
501.34	669.16
501.71	685.45
502.07	701.90
502.43	719.03
502.79	736.66
503.16	754.88
503.52	773.59
503.88	792.73
504.24	812.49
504.60	832.70
504.97	853.80
505.33	875.18
505.69	897.85
506.05	920.88
506.41	943.93
506.78	967.28
507.14	991.52
507.50	1016.23
507.86	1041.61
508.22	1067.51
508.59	1093.69
508.95	1120.50
509.31	1147.80
509.67	1176.04
510.03	1204.33
510.39	1233.78
510.75	1263.45
511.12	1293.67
511.48	1324.24
511.84	1355.27
512.20	1386.04
512.56	1417.89
512.92	1450.16
513.28	1482.23
513.64	1514.53
514.00	1547.12
514.37	1580.43
514.73	1613.95
515.09	1647.66
515.45	1681.28
515.81	1715.24
516.17	1749.20
516.53	1783.56
516.89	1817.71
517.25	1852.06
517.61	1886.95
517.97	1921.35
518.33	1955.59
518.69	1989.66
519.05	2024.45
519.41	2059.39
519.77	2095.11
520.13	2129.34
520.49	2163.47
520.85	2198.11
521.21	2233.55
521.57	2269.22
521.93	2303.46
522.29	2338.83
522.65	2374.00
523.01	2408.85
523.37	2442.76
523.73	2477.42
524.09	2511.54
524.45	2545.97
524.81	2579.69
525.17	2613.73
525.53	2647.58
525.89	2681.49
526.25	2714.92
526.61	2747.00
526.97	2779.27
527.33	2811.10
527.68	2843.64
528.04	2874.97
528.40	2905.62
528.76	2935.80
529.12	2966.86
529.48	2998.70
529.84	3028.66
530.20	3057.89
530.56	3087.86
530.91	3118.90
531.27	3148.76
531.63	3177.53
531.99	3206.10
532.35	3234.13
532.71	3261.27
533.07	3288.89
533.42	3315.07
533.78	3341.88
534.14	3368.17
534.50	3392.35
534.86	3417.92
535.21	3441.33
535.57	3466.59
535.93	3490.36
536.29	3513.56
536.65	3535.90
537.00	3557.08
537.36	3577.70
537.72	3598.50
538.08	3618.74
538.44	3638.51
538.79	3658.30
539.15	3678.49
539.51	3697.80
539.87	3717.83
540.22	3736.33
540.58	3754.85
540.94	3773.41
541.29	3789.80
541.65	3805.56
542.01	3822.42
542.37	3837.49
542.72	3853.41
543.08	3867.51
543.44	3882.82
543.79	3895.83
544.15	3908.25
544.51	3921.38
544.87	3935.00
545.22	3946.82
545.58	3957.69
545.94	3966.87
546.29	3975.29
546.65	3983.04
547.01	3990.69
547.36	3997.62
547.72	4004.75
548.07	4010.20
548.43	4014.69
548.79	4019.51
549.14	4024.82
549.50	4029.29
549.86	4032.56
550.21	4035.45
550.57	4039.15
550.92	4040.59
551.28	4042.81
551.64	4045.02
551.99	4047.32
552.35	4048.35
552.70	4049.42
553.06	4050.41
553.41	4051.53
553.77	4052.11
554.13	4052.68
554.48	4053.24
554.84	4053.55
555.19	4053.04
555.55	4051.61
555.90	4050.07
556.26	4048.31
556.61	4046.17
556.97	4043.01
557.32	4041.02
557.68	4038.25
558.03	4034.40
558.39	4031.32
558.74	4029.17
559.10	4026.42
559.45	4022.26
559.81	4018.67
560.16	4014.27
560.52	4010.38
560.87	4005.68
561.23	4000.14
561.58	3994.94
561.94	3988.61
562.29	3981.55
562.64	3975.49
563.00	3970.24
563.35	3965.61
563.71	3961.50
564.06	3956.40
564.42	3951.89
564.77	3947.01
565.12	3942.23
565.48	3936.76
565.83	3931.36
566.19	3925.79
566.54	3918.30
566.89	3910.94
567.25	3903.91
567.60	3897.01
567.96	3889.26
568.31	3882.35
568.66	3875.07
569.02	3866.68
569.37	3858.19
569.72	3850.30
570.08	3841.72
570.43	3832.26
570.78	3822.69
571.14	3812.36
571.49	3801.82
571.84	3793.03
572.20	3781.84
572.55	3771.74
572.90	3760.40
573.26	3748.90
573.61	3736.62
573.96	3725.49
574.31	3713.20
574.67	3700.34
575.02	3687.05
575.37	3674.36
575.72	3660.52
576.08	3648.91
576.43	3635.89
576.78	3623.71
577.13	3611.72
577.49	3599.40
577.84	3586.88
578.19	3575.25
578.54	3563.85
578.90	3552.99
579.25	3539.34
579.60	3525.75
579.95	3511.55
580.30	3499.63
580.66	3487.78
581.01	3474.40
581.36	3460.62
581.71	3447.44
582.06	3434.60
582.42	3422.90
582.77	3409.20
583.12	3395.83
583.47	3382.62
583.82	3370.81
584.17	3358.12
584.53	3345.10
584.88	3332.18
585.23	3319.36
585.58	3305.55
585.93	3291.52
586.28	3278.39
586.63	3265.35
586.98	3253.35
587.34	3241.21
587.69	3228.27
588.04	3215.01
588.39	3203.02
588.74	3189.94
589.09	3178.34
589.44	3165.64
589.79	3153.06
590.14	3141.41
590.49	3129.64
590.84	3116.78
591.19	3105.32
591.54	3093.03
591.89	3078.77
592.25	3065.55
592.60	3052.00
592.95	3038.28
593.30	3023.83
593.65	3009.40
594.00	2995.58
594.35	2983.91
594.70	2971.00
595.05	2958.59
595.40	2945.85
595.75	2932.31
596.10	2920.52
596.45	2908.11
596.80	2896.35
597.15	2884.69
597.50	2872.24
597.85	2860.27
598.19	2847.94
598.54	2835.08
598.89	2823.10
599.24	2813.53
599.59	2802.40
599.94	2792.29
600.29	2781.61
600.64	2771.24
600.99	2759.64
601.34	2749.25
601.69	2736.15
602.04	2724.20
602.39	2712.38
602.74	2700.95
603.08	2691.17
603.43	2680.76
603.78	2669.45
604.13	2658.07
604.48	2646.56
604.83	2636.85
605.18	2627.07
605.53	2616.12
605.87	2604.68
606.22	2594.06
606.57	2582.25
606.92	2570.85
607.27	2558.52
607.62	2547.15
607.96	2536.89
608.31	2527.14
608.66	2515.45
609.01	2504.07
609.36	2492.45
609.70	2480.05
610.05	2467.89
610.40	2455.60
610.75	2442.99
611.10	2431.88
611.44	2418.20
611.79	2405.19
612.14	2391.23
612.49	2377.22
612.83	2364.63
613.18	2351.29
613.53	2338.06
613.88	2324.14
614.22	2311.40
614.57	2298.65
614.92	2285.59
615.27	2271.53
615.61	2257.73
615.96	2245.39
616.31	2233.87
616.65	2222.30
617.00	2210.61
617.35	2198.40
617.70	2185.47
618.04	2172.15
618.39	2158.23
618.74	2146.58
619.08	2133.86
619.43	2121.67
619.78	2109.94
620.12	2097.88
620.47	2086.09
620.82	2072.81
621.16	2060.49
621.51	2047.81
621.85	2035.73
622.20	2023.20
622.55	2010.97
622.89	1998.63
623.24	1986.06
623.59	1972.92
623.93	1959.94
624.28	1947.74
624.62	1936.02
624.97	1924.10
625.32	1912.92
625.66	1901.87
626.01	1890.41
626.35	1879.66
626.70	1868.47
627.04	1857.50
627.39	1846.21
627.73	1835.04
628.08	1824.86
628.43	1813.38
628.77	1802.27
629.12	1790.94
629.46	1781.08
629.81	1770.55
630.15	1760.06
630.50	1749.28
630.84	1738.23
631.19	1727.57
631.53	1716.86
631.88	1705.19
632.22	1693.86
632.57	1683.46
632.91	1672.44
633.26	1661.71
633.60	1650.78
633.95	1640.55
634.29	1629.37
634.64	1618.93
634.98	1608.11
635.32	1597.75
635.67	1588.58
636.01	1578.68
636.36	1568.19
636.70	1557.75
637.05	1547.72
637.39	1537.84
637.73	1528.34
638.08	1519.55
638.42	1510.33
638.77	1500.88
639.11	1491.75
639.45	1482.32
639.80	1472.09
640.14	1462.03
640.49	1452.31
640.83	1442.41
641.17	1432.47
641.52	1422.75
641.86	1412.73
642.20	1403.32
642.55	1392.79
642.89	1382.32
643.23	1372.00
643.58	1362.95
643.92	1352.77
644.26	1343.07
644.61	1333.28
644.95	1323.15
645.29	1313.25
645.64	1303.22
645.98	1293.48
646.32	1284.04
646.66	1274.45
647.01	1265.32
647.35	1256.18
647.69	1246.05
648.04	1236.91
648.38	1227.39
648.72	1218.08
649.06	1208.70
649.41	1199.34
649.75	1190.30
650.09	1181.38
650.43	1172.56
650.78	1162.87
651.12	1153.65
651.46	1144.40
651.80	1135.64
652.14	1126.95
652.49	1117.76
652.83	1108.87
653.17	1099.17
653.51	1089.91
653.85	1081.22
654.20	1072.40
654.54	1063.41
654.88	1055.07
655.22	1046.20
655.56	1037.04
655.90	1028.25
656.25	1019.57
656.59	1010.86
656.93	1002.69
657.27	994.37
657.61	985.61
657.95	977.65
658.29	969.72
658.64	962.01
658.98	953.67
659.32	945.12
659.66	937.17
660.00	929.10
660.34	921.37
660.68	913.36
661.02	905.32
661.36	897.63
661.70	890.28
662.05	883.07
662.39	876.13
662.73	869.30
663.07	862.49
663.41	855.59
663.75	848.72
664.09	841.51
664.43	834.20
664.77	827.59
665.11	820.77
665.45	813.92
665.79	807.21
666.13	800.61
666.47	794.28
666.81	787.87
667.15	781.43
667.49	775.61
667.83	769.75
668.17	763.95
668.51	758.11
668.85	752.31
669.19	746.53
669.53	740.44
669.87	734.58
670.21	728.66
670.55	722.98
670.89	717.64
671.23	712.48
671.57	707.38
671.91	701.95
672.25	696.54
672.58	691.18
672.92	685.93
673.26	681.05
673.60	676.23
673.94	671.22
674.28	666.47
674.62	661.54
674.96	656.74
675.30	651.97
675.64	647.19
675.97	642.32
676.31	637.85
676.65	633.48
676.99	629.23
677.33	624.60
677.67	620.01
678.01	615.39
678.34	610.88
678.68	606.45
679.02	602.04
679.36	597.84
679.70	593.68
680.04	589.40
680.37	585.02
680.71	580.65
681.05	576.73
681.39	572.71
681.73	568.70
682.06	564.86
682.40	561.10
682.74	557.07
683.08	553.32
683.42	549.15
683.75	545.23
684.09	541.22
684.43	537.49
684.77	533.74
685.10	530.01
685.44	526.18
685.78	522.66
686.12	519.37
686.45	515.73
686.79	512.31
687.13	508.98
687.46	505.58
687.80	502.26
688.14	498.49
688.48	495.07
688.81	491.55
689.15	488.15
689.49	484.74
689.82	481.53
690.16	478.06
690.50	474.74
690.83	471.46
691.17	468.14
691.51	464.87
691.84	461.90
692.18	458.95
692.52	456.03
692.85	453.22
693.19	450.20
693.52	447.38
693.86	444.31
694.20	441.31
694.53	438.48
694.87	435.52
695.21	432.86
695.54	429.92
695.88	427.04
696.21	424.16
696.55	421.45
696.88	418.59
697.22	415.92
697.56	413.53
697.89	410.87
698.23	408.46
698.56	406.19
698.90	403.81
699.23	401.23
699.57	398.91
699.90	396.31
700.24	393.94
700.58	391.58
700.91	389.45
701.25	387.47
701.58	385.34
701.92	383.20
702.25	381.03
702.59	378.95
702.92	376.96
703.26	374.95
703.59	372.92
703.93	371.27
704.26	369.35
704.60	367.31
704.93	365.30
705.26	363.26
705.60	361.37
705.93	359.33
706.27	357.56
706.60	355.86
706.94	354.23
707.27	352.40
707.61	350.57
707.94	348.77
708.27	346.75
708.61	344.89
708.94	343.19
709.28	341.50
709.61	339.90
709.94	338.36
710.28	336.83
710.61	335.37
710.95	333.54
711.28	332.25
711.61	330.71
711.95	329.40
712.28	327.99
712.61	326.46
712.95	325.31
713.28	324.10
713.61	322.55
713.95	321.11
714.28	319.81
714.61	318.53
714.95	317.18
715.28	315.90
715.61	314.67
715.95	313.43
716.28	312.19
716.61	311.00
716.95	309.68
717.28	308.54
717.61	307.36
717.94	306.26
718.28	304.83
718.61	303.75
718.94	302.63
719.27	301.65
719.61	300.66
719.94	299.50
720.27	298.27
720.60	297.20
720.94	296.24
721.27	295.21
721.60	294.33
721.93	293.51
722.27	292.63
722.60	291.76
722.93	290.87
723.26	290.03
723.59	289.10
723.93	288.27
724.26	287.36
724.59	286.39
724.92	285.53
725.25	284.84
725.59	284.07
725.92	283.39
726.25	282.52
726.58	281.71
726.91	280.85
727.24	280.15
727.57	279.39
727.91	278.46
728.24	277.75
728.57	277.06
728.90	276.34
729.23	275.51
729.56	274.97
729.89	274.20
730.22	273.44
730.55	272.81
730.89	272.18
731.22	271.44
731.55	270.80
731.88	270.11
732.21	269.40
732.54	268.65
732.87	267.84
733.20	267.23
733.53	266.59
733.86	266.01
734.19	265.34
734.52	264.77
734.85	264.53
735.18	263.91
735.51	263.25
735.84	262.61
736.17	262.22
736.50	261.42
736.83	261.29
737.16	260.73
737.49	260.12
737.82	259.44
738.15	258.92
738.48	258.38
738.81	257.93
739.14	257.36
739.47	256.86
739.80	256.33
740.13	255.81
740.46	255.25
740.79	254.72
741.12	254.10
741.45	253.56
741.78	252.77
742.11	252.35
742.44	251.88
742.77	251.47
743.10	250.92
743.43	250.51
743.75	249.70
744.08	249.73
744.41	249.19
744.74	248.81
745.07	248.32
745.40	247.94
745.73	247.54
746.06	247.12
746.39	246.60
746.71	246.15
747.04	245.62
747.37	245.26
747.70	244.83
748.03	244.50
748.36	244.13
748.68	243.74
749.01	243.26
749.34	242.88
749.67	242.50
750.00	242.15
750.33	241.90
750.65	241.55
750.98	240.76
751.31	240.56
751.64	240.12
751.97	239.99
752.29	239.57
752.62	239.13
752.95	238.77
753.28	238.53
753.60	238.16
753.93	237.99
754.26	237.71
754.59	237.33
754.91	236.96
755.24	236.73
755.57	236.43
755.90	236.15
756.22	235.85
756.55	235.47
756.88	235.08
757.20	234.61
757.53	234.28
757.86	234.02
758.19	233.61
758.51	233.38
758.84	232.94
759.17	232.70
759.49	232.45
759.82	232.32
760.15	232.12
760.47	231.95
760.80	231.58
761.13	231.38
761.45	231.14
761.78	230.92
762.11	230.68
762.43	230.44
762.76	230.20
763.08	230.02
763.41	229.84
763.74	229.72
764.06	229.46
764.39	229.21
764.71	229.02
765.04	228.81
765.37	228.60
765.69	228.38
766.02	228.13
766.34	227.97
766.67	227.76
767.00	227.61
767.32	227.63
767.65	227.68
767.97	227.44
768.30	227.29
768.62	227.15
768.95	226.86
769.27	226.76
769.60	226.65
769.92	226.44
770.25	226.26
770.57	226.01
770.90	225.81
771.22	225.64
771.55	225.45
771.87	225.38
772.20	225.19
772.52	225.35
772.85	225.64
773.17	225.46
773.50	225.24
773.82	225.08
774.15	224.70
774.47	224.29
774.80	224.12
775.12	223.94
775.45	223.79
775.77	223.72
776.09	223.52
776.42	223.39
776.74	223.31
777.07	223.12
777.39	223.04
777.72	223.03
778.04	222.90
778.36	222.77
778.69	222.60
779.01	222.60
779.33	222.16
779.66	221.63
779.98	221.51
780.31	221.45
780.63	221.45
780.95	221.44
781.28	221.48
781.60	221.34
781.92	221.28
782.25	221.25
782.57	221.10
782.89	221.06
783.22	220.94
783.54	220.80
783.86	220.72
784.19	220.61
784.51	220.61
784.83	220.52
785.16	220.35
785.48	220.29
785.80	220.22
786.12	220.16
786.45	220.12
786.77	220.07
787.09	220.00
787.42	219.72
787.74	219.69
788.06	219.56
788.38	219.48
788.71	219.37
789.03	219.28
789.35	219.31
789.67	219.12
789.99	219.07
790.32	219.00
790.64	218.95
790.96	219.15
791.28	219.01
791.61	218.90
791.93	218.90
792.25	218.83
792.57	218.94
792.89	218.75
793.21	218.71
793.54	218.58
793.86	218.45
794.18	218.40
794.50	218.25
794.82	218.22
795.14	218.24
795.47	218.24
795.79	218.13
796.11	217.94
796.43	217.94
796.75	217.90
797.07	217.79
797.39	217.77
797.71	217.45
798.04	217.30
798.36	217.27
798.68	217.20
799.00	217.16
799.32	216.96
799.64	217.10
799.96	217.07
800.28	217.12
800.60	217.05
800.92	217.01
801.24	216.90
801.56	216.89
801.89	216.76
802.21	216.70
802.53	216.66
802.85	216.73
803.17	216.90
803.49	216.75
803.81	216.70
804.13	216.67
804.45	216.58
804.77	216.62
805.09	216.52
805.41	216.49
805.73	216.35
806.05	216.25
806.37	216.18
806.69	216.07
807.01	216.00
807.33	215.97
807.65	215.83
807.97	216.00
808.28	215.92
808.60	215.89
808.92	215.81
809.24	215.97
809.56	215.87
809.88	215.64
810.20	215.63
810.52	215.67
810.84	215.54
811.16	215.54
811.48	215.44
811.80	215.58
812.12	215.51
812.43	215.55
812.75	215.49
813.07	215.36
813.39	215.31
813.71	215.24
814.03	215.17
814.35	215.15
814.67	214.96
814.98	214.93
815.30	214.90
815.62	214.82
815.94	214.56
816.26	214.59
816.58	214.51
816.89	214.55
817.21	214.43
817.53	214.42
817.85	214.32
818.17	214.31
818.48	214.10
818.80	214.17
819.12	214.09
819.44	214.12
819.76	214.02
820.07	214.05
820.39	213.99
820.71	214.02
821.03	214.00
821.34	213.96
821.66	213.91
821.98	213.89
822.30	213.90
822.61	214.09
822.93	213.99
823.25	213.95
823.57	213.91
823.88	214.00
824.20	213.99
824.52	214.07
824.83	214.04
825.15	214.05
825.47	213.98
825.79	213.94
826.10	213.79
826.42	213.85
826.74	213.89
827.05	213.91
827.37	213.89
827.69	213.79
828.00	213.83
828.32	213.80
828.64	213.78
828.95	213.92
829.27	213.77
829.58	213.77
829.90	213.78
830.22	213.74
830.53	213.60
830.85	213.58
831.17	213.47
831.48	213.46
831.80	213.43
832.11	213.37
832.43	213.36
832.75	213.33
833.06	213.48
833.38	213.28
833.69	213.28
834.01	213.28
834.32	213.30
834.64	213.26
834.96	213.25
835.27	213.28
835.59	213.17
835.90	213.15
836.22	213.11
836.53	213.11
836.85	213.01
837.16	213.37
837.48	213.32
837.79	213.45
838.11	213.39
838.42	213.42
838.74	213.44
839.05	213.39
839.37	213.41
839.68	213.19
840.00	213.21
840.31	213.18
840.63	213.09
840.94	213.10
841.26	213.02
841.57	213.00
841.88	212.98
842.20	212.90
842.51	212.81
842.83	212.82
843.14	213.11
843.46	213.15
843.77	212.97
844.08	212.93
844.40	212.81
844.71	212.86
845.03	212.83
845.34	212.80
845.65	212.84
845.97	212.85
846.28	212.91
846.60	212.91
846.91	212.93
847.22	212.95
847.54	213.01
847.85	213.03
848.16	213.04
848.48	212.92
848.79	213.06
849.10	213.20
849.42	213.15
849.73	212.73
850.04	212.72
850.36	212.54
850.67	212.62
850.98	212.60
851.30	212.62
851.61	212.58
851.92	212.63
852.23	212.76
852.55	212.77
852.86	212.75
853.17	212.79
853.49	212.82
853.80	212.95
854.11	212.96
854.42	212.99
854.74	213.00
855.05	213.03
855.36	212.90
855.67	212.90
855.99	212.94
856.30	213.45
856.61	213.43
856.92	213.47
857.23	213.50
857.55	213.48
857.86	213.43
858.17	213.49
858.48	213.35
858.79	213.27
859.11	213.27
859.42	213.23
859.73	213.26
860.04	213.18
860.35	212.97
860.66	212.85
860.98	212.89
861.29	212.85
861.60	212.84
861.91	212.87
862.22	212.76
862.53	212.68
862.84	212.26
863.16	212.38
863.47	212.33
863.78	212.29
864.09	212.36
864.40	212.41
864.71	212.43
865.02	212.52
865.33	212.45
865.64	212.38
865.95	212.38
866.27	212.53
866.58	212.52
866.89	212.61
867.20	212.60
867.51	212.52
867.82	212.55
868.13	212.70
868.44	212.65
868.75	212.71
869.06	212.71
869.37	212.68
869.68	212.50
869.99	212.55
870.30	212.58
870.61	212.55
870.92	212.47
871.23	212.42
871.54	212.48
871.85	212.52
872.16	212.54
872.47	212.49
872.78	212.26
873.09	212.29
873.40	212.21
873.71	212.27
874.02	212.30
874.33	212.29
874.64	212.07
874.95	212.07
875.26	211.97
875.56	212.01
875.87	212.03
876.18	212.08
876.49	212.34
876.80	212.32
877.11	212.25
877.42	212.21
877.73	212.22
878.04	212.10
878.35	212.10
878.66	212.15
878.96	212.16
879.27	212.15
879.58	212.14
879.89	212.16
880.20	212.26
880.51	212.14
880.82	212.09
881.12	212.15
881.43	212.15
881.74	212.14
882.05	212.07
882.36	212.10
882.67	212.12
882.97	211.80
883.28	211.75
883.59	211.73
883.90	211.82
884.21	211.83
884.51	211.85
884.82	211.78
885.13	211.79
885.44	211.73
885.74	211.69
886.05	211.66
886.36	211.68
886.67	211.45
886.98	211.70
887.28	211.68
887.59	211.66
887.90	211.66
888.20	211.63
888.51	211.80
888.82	211.71
889.13	211.73
889.43	212.00
889.74	211.95
890.05	211.96
890.35	211.93
890.66	211.85
890.97	211.89
891.28	211.86
891.58	211.87
891.89	211.92
892.20	211.92
892.50	211.91
892.81	211.88
893.12	211.90
893.42	211.73
893.73	211.76
894.04	211.80
894.34	211.78
894.65	211.82
894.95	211.72
895.26	211.78
895.57	211.88
895.87	211.57
896.18	211.69
896.48	211.74
896.79	211.72
897.10	211.81
897.40	211.84
897.71	211.96
898.01	211.91
898.32	211.98
898.63	212.02
898.93	212.04
899.24	212.09
899.54	212.12
899.85	212.10
900.15	212.10
900.46	212.15
900.76	212.22
901.07	212.16
901.38	212.10
901.68	212.14
901.99	212.01
902.29	212.05
902.60	212.00
902.90	211.98
903.21	211.94
903.51	211.85
903.82	211.93
904.12	211.92
904.43	211.92
904.73	211.91
905.03	211.92
905.34	212.20
905.64	212.13
905.95	212.11
906.25	212.08
906.56	212.05
906.86	212.00
907.17	212.00
907.47	212.05
907.77	212.05
908.08	211.94
908.38	211.95
908.69	211.90
908.99	211.94
909.30	211.91
909.60	211.95
909.90	211.96
910.21	211.82
910.51	211.69
910.81	211.69
911.12	211.69
911.42	211.70
911.73	211.44
912.03	211.50
912.33	211.56
912.64	211.56
912.94	211.51
913.24	211.56
913.55	211.57
913.85	211.52
914.15	211.62
914.46	211.63
914.76	211.62
915.06	211.68
915.37	211.58
915.67	211.56
915.97	211.48
916.27	211.47
916.58	211.45
916.88	211.48
917.18	211.45
917.49	211.68
917.79	211.64
918.09	211.66
918.39	211.81
918.70	211.82
919.00	211.81
919.30	211.93
919.60	211.86
919.91	211.71
920.21	211.76
920.51	211.68
920.81	211.69
921.12	211.66
921.42	211.57
921.72	211.67
922.02	211.71
922.32	211.78
922.63	211.84
922.93	211.98
923.23	212.07
923.53	212.03
923.83	211.75
924.13	211.80
924.44	211.77
924.74	211.74
925.04	211.79
925.34	211.76
925.64	211.71
925.94	211.70
926.24	211.94
926.55	211.90
926.85	212.00
927.15	212.08
927.45	212.13
927.75	212.18
928.05	212.15
928.35	212.14
928.65	212.24
928.95	212.27
929.26	212.17
929.56	212.14
929.86	212.20
930.16	212.23
930.46	212.22
930.76	212.15
931.06	211.97
931.36	211.94
931.66	212.09
931.96	212.08
932.26	211.99
932.56	211.86
932.86	211.85
933.16	211.77
933.46	211.65
933.76	211.53
934.06	211.61
934.36	211.68
934.66	211.66
934.96	211.60
935.26	211.65
935.56	211.70
935.86	211.66
936.16	211.65
936.46	211.65
936.76	211.65
937.06	211.75
937.36	211.76
937.66	211.70
937.96	211.62
938.26	211.59
938.56	211.71
938.86	211.71
939.16	211.79
939.46	211.80
939.76	211.89
940.06	211.93
940.35	211.81
940.65	211.63
940.95	211.64
941.25	211.52
941.55	211.39
941.85	211.37
942.15	211.45
942.45	211.54
942.75	211.52
943.04	211.49
943.34	211.55
943.64	211.57
943.94	211.56
944.24	211.53
944.54	211.55
944.84	211.51
945.13	211.45
945.43	211.38
945.73	211.35
946.03	211.29
946.33	211.23
946.62	211.22
946.92	211.19
947.22	211.22
947.52	211.26
947.82	211.27
948.11	211.21
948.41	211.11
948.71	210.96
949.01	210.98
949.31	210.99
949.60	210.92
949.90	210.97
950.20	210.99
950.50	211.02
950.79	211.00
951.09	211.00
951.39	211.00
951.69	211.05
951.98	211.13
952.28	211.17
952.58	211.21
952.87	211.19
953.17	211.24
953.47	211.20
953.76	211.27
954.06	211.28
954.36	211.25
954.66	211.19
954.95	211.32
955.25	211.31
955.55	211.23
955.84	211.08
956.14	211.09
956.44	211.04
956.73	210.94
957.03	210.95
957.32	210.95
957.62	210.91
957.92	210.98
958.21	210.94
958.51	211.33
958.81	211.34
959.10	211.45
959.40	211.53
959.69	211.53
959.99	211.50
960.29	211.50
960.58	211.56
960.88	211.73
961.17	211.66
961.47	211.70
961.76	211.73
962.06	211.85
962.36	211.83
962.65	211.85
962.95	211.95
963.24	211.89
963.54	211.92
963.83	211.98
964.13	211.92
964.42	211.87
964.72	211.58
965.01	211.59
965.31	211.52
965.60	211.45
965.90	211.69
966.19	211.61
966.49	211.69
966.78	211.60
967.08	211.57
967.37	211.55
967.67	211.49
967.96	211.59
968.26	211.54
968.55	211.54
968.85	211.55
969.14	211.60
969.43	211.63
969.73	211.55
970.02	211.49
970.32	211.47
970.61	211.49
970.91	211.39
971.20	211.33
971.49	211.35
971.79	211.40
972.08	211.15
972.38	211.20
972.67	211.15
972.96	211.23
973.26	211.14
973.55	211.27
973.85	211.26
974.14	211.13
974.43	211.17
974.73	211.09
975.02	211.08
975.31	210.91
975.61	210.87
975.90	210.90
976.19	210.97
976.49	210.96
976.78	210.97
977.07	210.99
977.37	211.04
977.66	211.03
977.95	210.92
978.24	211.00
978.54	211.02
978.83	210.95
979.12	210.89
979.42	210.95
979.71	210.84
980.00	210.84
980.29	210.90
980.59	210.84
980.88	210.96
981.17	210.99
981.46	211.06
981.76	211.10
982.05	211.20
982.34	211.11
982.63	211.17
982.93	211.08
983.22	211.17
983.51	211.21
983.80	211.27
984.09	211.39
984.39	211.28
984.68	211.24
984.97	211.26
985.26	211.26
985.55	211.21
985.85	211.14
986.14	211.18
986.43	211.29
986.72	211.31
987.01	211.19
987.30	211.18
987.59	211.14
987.89	211.15
988.18	211.02
988.47	211.10
988.76	211.06
989.05	211.08
989.34	211.05
989.63	211.12
989.92	211.08
990.22	211.01
990.51	211.13
990.80	211.15
991.09	211.19
991.38	211.17
991.67	211.20
991.96	211.22
992.25	211.27
992.54	211.21
992.83	211.24
993.12	211.29
993.41	211.30
993.70	211.55
993.99	211.60
994.28	211.66
994.58	211.66
994.87	211.60
995.16	211.62
995.45	211.52
995.74	211.40
996.03	211.50
996.32	211.56
996.61	211.55
996.90	211.48
997.19	211.47
997.48	211.55
997.77	211.52
998.06	211.50
998.34	211.48
998.63	211.45
998.92	211.37
999.21	211.38
999.50	211.36
999.79	211.09
1000.08	211.10
1000.37	211.10
1000.66	211.09
1000.95	211.19
1001.24	211.20
1001.53	211.25
1001.82	211.27
1002.11	211.15
1002.40	211.11
1002.68	211.21
1002.97	211.50
1003.26	211.56
1003.55	211.46
1003.84	211.47
1004.13	211.63
1004.42	211.56
1004.71	211.57
1004.99	211.55
1005.28	211.63
1005.57	211.66
1005.86	211.70
1006.15	211.68
1006.44	211.67
1006.72	211.67
1007.01	211.56
1007.30	211.57
1007.59	211.53
1007.88	211.50
1008.17	211.51
1008.45	211.44
1008.74	211.29
1009.03	211.14
1009.32	211.05
1009.60	211.08
1009.89	211.10
1010.18	210.96
1010.47	210.98
1010.76	211.03
1011.04	211.07
1011.33	211.05
1011.62	211.03
1011.91	211.06
1012.19	211.08
1012.48	211.09
1012.77	211.12
1013.05	211.30
1013.34	211.27
1013.63	211.24
1013.92	211.22
1014.20	211.22
1014.49	211.31
1014.78	211.36
1015.06	211.24
1015.35	211.26
1015.64	211.30
1015.92	211.39
1016.21	211.36
1016.50	211.33
1016.78	211.35
1017.07	211.38
1017.36	211.37
1017.64	211.26
1017.93	211.33
1018.22	211.27
1018.50	211.20
1018.79	211.22
1019.08	211.08
1019.36	211.06
1019.65	210.98
1019.93	211.11
1020.22	211.10
1020.51	211.23
1020.79	211.18
1021.08	210.50
1021.36	210.15
1021.65	211.90
1021.94	211.15
1022.22	210.15
1022.51	208.95
1022.79	212.35
1023.08	210.45
1023.36	214.90
1023.65	210.10
>>>>>End Processed Spectral Data<<<<<
