SpectraSuite Data File
++++++++++++++++++++++++++++++++++++
Date: Mon Feb 25 17:12:02 EST 2013
User: group
Dark Spectrum Present: No
Reference Spectrum Present: No
Number of Sampled Component Spectra: 1
Spectrometers: USB2E7196
Integration Time (usec): 104000 (USB2E7196)
Spectra Averaged: 20 (USB2E7196)
Boxcar Smoothing: 10 (USB2E7196)
Correct for Electrical Dark: No (USB2E7196)
Strobe/Lamp Enabled: No (USB2E7196)
Correct for Detector Non-linearity: No (USB2E7196)
Correct for Stray Light: No (USB2E7196)
Number of Pixels in Processed Spectrum: 2048
>>>>>Begin Processed Spectral Data<<<<<
339.09	0.00
339.48	198.00
339.86	201.10
340.24	198.85
340.63	202.70
341.01	208.90
341.39	206.25
341.78	207.35
342.16	209.15
342.54	209.25
342.93	198.12
343.31	208.07
343.69	208.56
344.07	208.96
344.46	209.52
344.84	209.92
345.22	209.97
345.60	210.17
345.99	210.31
346.37	210.37
346.75	210.36
347.13	210.44
347.52	210.47
347.90	210.66
348.28	210.68
348.66	210.72
349.05	210.54
349.43	210.59
349.81	210.51
350.19	210.48
350.57	210.51
350.96	210.58
351.34	210.68
351.72	210.80
352.10	210.88
352.48	210.98
352.87	211.00
353.25	211.11
353.63	211.12
354.01	211.18
354.39	211.30
354.77	211.46
355.15	211.66
355.54	211.71
355.92	211.61
356.30	211.71
356.68	211.98
357.06	212.09
357.44	212.05
357.82	212.21
358.20	212.32
358.58	212.48
358.97	212.65
359.35	212.81
359.73	212.94
360.11	212.97
360.49	212.99
360.87	213.05
361.25	213.13
361.63	213.35
362.01	213.47
362.39	213.45
362.77	213.52
363.15	213.50
363.53	213.55
363.91	213.67
364.29	213.77
364.67	213.51
365.05	213.58
365.43	213.70
365.81	213.75
366.19	213.92
366.57	214.02
366.95	213.97
367.33	213.91
367.71	214.03
368.09	214.14
368.47	214.16
368.85	214.19
369.23	214.20
369.61	214.06
369.99	214.12
370.37	214.23
370.75	214.37
371.13	214.28
371.51	214.20
371.89	214.19
372.27	214.13
372.65	214.18
373.03	214.17
373.41	214.10
373.78	214.04
374.16	213.78
374.54	213.66
374.92	213.61
375.30	213.57
375.68	213.44
376.06	213.42
376.44	213.37
376.82	213.28
377.19	213.19
377.57	213.20
377.95	213.03
378.33	212.93
378.71	212.70
379.09	212.70
379.47	212.72
379.84	212.60
380.22	212.52
380.60	212.36
380.98	212.32
381.36	212.15
381.73	212.06
382.11	212.15
382.49	212.05
382.87	211.90
383.25	211.89
383.62	212.13
384.00	211.99
384.38	211.96
384.76	212.08
385.13	212.20
385.51	212.11
385.89	212.09
386.27	212.04
386.64	212.08
387.02	211.99
387.40	211.93
387.78	211.93
388.15	211.95
388.53	211.92
388.91	211.87
389.29	211.91
389.66	211.96
390.04	211.89
390.42	211.88
390.79	211.85
391.17	211.81
391.55	211.40
391.92	211.40
392.30	211.36
392.68	211.19
393.05	211.12
393.43	211.10
393.81	211.05
394.18	211.03
394.56	210.89
394.94	210.97
395.31	210.97
395.69	211.05
396.06	211.10
396.44	211.16
396.82	211.09
397.19	211.28
397.57	211.21
397.95	211.31
398.32	211.30
398.70	211.44
399.07	211.43
399.45	211.44
399.82	211.44
400.20	211.48
400.58	211.51
400.95	211.36
401.33	211.45
401.70	211.75
402.08	211.76
402.45	211.80
402.83	211.90
403.20	211.94
403.58	211.88
403.95	211.85
404.33	211.90
404.71	211.97
405.08	212.19
405.46	212.32
405.83	212.39
406.21	212.46
406.58	212.54
406.96	212.60
407.33	212.81
407.70	213.02
408.08	213.41
408.45	213.61
408.83	213.96
409.20	214.10
409.58	214.03
409.95	214.27
410.33	214.54
410.70	214.63
411.08	214.92
411.45	215.22
411.82	215.45
412.20	215.81
412.57	216.33
412.95	216.38
413.32	216.70
413.69	216.99
414.07	217.48
414.44	217.88
414.82	218.42
415.19	218.90
415.56	219.33
415.94	219.65
416.31	220.26
416.68	220.83
417.06	221.56
417.43	222.38
417.81	223.18
418.18	223.99
418.55	224.88
418.93	225.72
419.30	226.63
419.67	227.66
420.04	228.63
420.42	229.63
420.79	231.08
421.16	232.35
421.54	233.89
421.91	235.14
422.28	236.60
422.66	238.04
423.03	239.71
423.40	241.27
423.77	242.89
424.15	244.43
424.52	246.09
424.89	247.92
425.26	249.55
425.64	251.26
426.01	253.11
426.38	255.05
426.75	257.08
427.13	259.11
427.50	261.28
427.87	263.51
428.24	265.68
428.61	267.56
428.99	270.11
429.36	272.38
429.73	274.92
430.10	277.34
430.47	279.92
430.85	282.33
431.22	285.14
431.59	288.26
431.96	290.94
432.33	294.04
432.70	297.09
433.08	300.64
433.45	303.98
433.82	307.31
434.19	311.04
434.56	314.58
434.93	318.00
435.30	321.48
435.68	325.30
436.05	328.97
436.42	332.58
436.79	335.93
437.16	339.55
437.53	343.39
437.90	347.31
438.27	350.98
438.64	354.82
439.01	358.42
439.38	361.51
439.75	364.77
440.13	368.33
440.50	371.69
440.87	374.41
441.24	377.15
441.61	380.27
441.98	382.57
442.35	385.22
442.72	388.08
443.09	390.68
443.46	392.38
443.83	393.55
444.20	394.63
444.57	395.79
444.94	396.45
445.31	397.10
445.68	398.02
446.05	398.42
446.42	397.98
446.79	397.58
447.16	397.02
447.53	396.59
447.90	395.11
448.27	393.59
448.64	391.59
449.01	390.20
449.37	387.63
449.74	385.08
450.11	382.43
450.48	379.04
450.85	375.69
451.22	372.66
451.59	370.07
451.96	367.42
452.33	363.97
452.70	360.88
453.07	357.17
453.43	352.96
453.80	349.32
454.17	346.07
454.54	342.73
454.91	339.19
455.28	335.78
455.65	332.63
456.02	329.95
456.38	327.19
456.75	323.83
457.12	321.04
457.49	318.32
457.86	315.39
458.23	313.24
458.59	310.70
458.96	308.20
459.33	305.80
459.70	303.61
460.07	301.85
460.43	299.78
460.80	297.95
461.17	296.43
461.54	294.67
461.91	292.86
462.27	291.16
462.64	289.65
463.01	288.20
463.38	286.68
463.74	284.64
464.11	283.26
464.48	282.07
464.85	280.69
465.21	279.71
465.58	278.69
465.95	277.35
466.32	276.28
466.68	275.17
467.05	274.16
467.42	273.09
467.78	271.99
468.15	270.98
468.52	270.15
468.88	269.03
469.25	267.95
469.62	267.30
469.98	266.53
470.35	265.90
470.72	265.11
471.08	264.31
471.45	263.80
471.82	263.18
472.18	262.44
472.55	261.96
472.92	261.29
473.28	260.70
473.65	260.13
474.02	259.71
474.38	259.43
474.75	259.12
475.11	258.78
475.48	258.55
475.85	258.35
476.21	258.13
476.58	257.93
476.94	257.90
477.31	257.72
477.67	257.55
478.04	257.39
478.41	257.40
478.77	257.72
479.14	257.57
479.50	257.68
479.87	257.80
480.23	257.99
480.60	258.15
480.96	258.27
481.33	258.60
481.69	258.77
482.06	258.99
482.42	259.25
482.79	259.49
483.15	259.85
483.52	260.20
483.88	260.51
484.25	260.87
484.61	261.44
484.98	261.94
485.34	262.65
485.71	263.27
486.07	263.81
486.44	264.22
486.80	264.97
487.17	265.77
487.53	266.65
487.90	267.52
488.26	268.55
488.62	269.70
488.99	270.67
489.35	271.82
489.72	273.01
490.08	274.22
490.44	275.49
490.81	276.92
491.17	278.31
491.54	279.89
491.90	281.62
492.26	283.13
492.63	284.82
492.99	286.53
493.36	288.49
493.72	290.64
494.08	292.54
494.45	294.75
494.81	297.06
495.17	299.39
495.54	301.85
495.90	304.38
496.26	306.97
496.63	309.77
496.99	312.61
497.35	315.63
497.72	318.83
498.08	322.02
498.44	325.40
498.80	328.96
499.17	332.49
499.53	336.04
499.89	340.10
500.26	344.16
500.62	348.27
500.98	352.50
501.34	356.78
501.71	361.64
502.07	366.34
502.43	371.00
502.79	375.77
503.16	380.77
503.52	385.85
503.88	391.10
504.24	396.55
504.60	402.21
504.97	407.98
505.33	413.65
505.69	420.00
506.05	426.16
506.41	432.44
506.78	438.91
507.14	445.61
507.50	452.23
507.86	459.06
508.22	466.08
508.59	473.24
508.95	480.53
509.31	487.94
509.67	495.60
510.03	503.44
510.39	511.49
510.75	519.63
511.12	527.96
511.48	536.28
511.84	544.65
512.20	553.06
512.56	561.83
512.92	570.76
513.28	579.51
513.64	588.50
514.00	597.61
514.37	606.96
514.73	616.42
515.09	625.91
515.45	635.37
515.81	645.02
516.17	654.65
516.53	664.52
516.89	674.16
517.25	683.90
517.61	693.84
517.97	703.92
518.33	713.83
518.69	723.93
519.05	734.20
519.41	744.67
519.77	755.29
520.13	765.38
520.49	775.57
520.85	785.89
521.21	796.32
521.57	806.99
521.93	817.03
522.29	827.61
522.65	838.10
523.01	848.83
523.37	859.08
523.73	869.60
524.09	880.05
524.45	890.72
524.81	901.30
525.17	912.11
525.53	922.47
525.89	933.21
526.25	943.62
526.61	953.73
526.97	963.82
527.33	974.02
527.68	984.59
528.04	994.64
528.40	1004.72
528.76	1014.74
529.12	1024.76
529.48	1035.35
529.84	1045.15
530.20	1055.16
530.56	1065.09
530.91	1075.38
531.27	1085.54
531.63	1095.51
531.99	1105.13
532.35	1114.76
532.71	1123.91
533.07	1133.76
533.42	1143.22
533.78	1152.79
534.14	1162.11
534.50	1170.81
534.86	1179.87
535.21	1188.28
535.57	1197.44
535.93	1206.09
536.29	1214.64
536.65	1223.35
537.00	1231.15
537.36	1239.23
537.72	1247.05
538.08	1254.89
538.44	1262.57
538.79	1269.99
539.15	1277.49
539.51	1285.05
539.87	1292.45
540.22	1299.77
540.58	1307.01
540.94	1313.66
541.29	1320.22
541.65	1326.41
542.01	1333.17
542.37	1339.14
542.72	1345.55
543.08	1351.27
543.44	1357.52
543.79	1362.97
544.15	1367.93
544.51	1373.81
544.87	1379.26
545.22	1384.16
545.58	1388.70
545.94	1392.74
546.29	1396.97
546.65	1400.88
547.01	1404.58
547.36	1408.15
547.72	1411.80
548.07	1414.89
548.43	1417.90
548.79	1420.42
549.14	1423.44
549.50	1426.22
549.86	1428.72
550.21	1430.95
550.57	1433.58
550.92	1435.28
551.28	1437.22
551.64	1439.17
551.99	1440.91
552.35	1442.29
552.70	1444.14
553.06	1445.65
553.41	1447.44
553.77	1448.75
554.13	1449.96
554.48	1451.32
554.84	1452.66
555.19	1453.30
555.55	1453.70
555.90	1454.21
556.26	1454.70
556.61	1455.02
556.97	1454.98
557.32	1455.32
557.68	1455.00
558.03	1454.68
558.39	1454.46
558.74	1454.85
559.10	1454.82
559.45	1454.46
559.81	1454.48
560.16	1453.61
560.52	1453.21
560.87	1452.57
561.23	1451.68
561.58	1451.23
561.94	1450.30
562.29	1448.82
562.64	1447.85
563.00	1447.07
563.35	1446.64
563.71	1446.26
564.06	1445.65
564.42	1444.97
564.77	1444.35
565.12	1443.91
565.48	1443.05
565.83	1442.34
566.19	1441.49
566.54	1439.77
566.89	1438.23
567.25	1436.61
567.60	1435.45
567.96	1433.93
568.31	1432.56
568.66	1430.90
569.02	1428.55
569.37	1426.03
569.72	1424.36
570.08	1422.13
570.43	1419.96
570.78	1417.22
571.14	1414.15
571.49	1411.40
571.84	1408.95
572.20	1405.74
572.55	1402.97
572.90	1399.77
573.26	1396.44
573.61	1392.80
573.96	1389.95
574.31	1386.50
574.67	1382.78
575.02	1379.02
575.37	1375.39
575.72	1371.19
576.08	1367.87
576.43	1364.27
576.78	1360.79
577.13	1357.44
577.49	1353.99
577.84	1350.27
578.19	1347.07
578.54	1344.34
578.90	1341.20
579.25	1337.60
579.60	1333.86
579.95	1329.84
580.30	1326.36
580.66	1323.00
581.01	1319.04
581.36	1315.13
581.71	1311.40
582.06	1308.00
582.42	1304.38
582.77	1300.37
583.12	1296.73
583.47	1292.91
583.82	1289.51
584.17	1285.92
584.53	1282.28
584.88	1278.71
585.23	1274.87
585.58	1270.98
585.93	1266.77
586.28	1263.02
586.63	1259.21
586.98	1255.73
587.34	1252.59
587.69	1248.94
588.04	1245.36
588.39	1242.16
588.74	1238.13
589.09	1234.59
589.44	1230.51
589.79	1226.98
590.14	1223.48
590.49	1219.85
590.84	1216.09
591.19	1212.95
591.54	1209.31
591.89	1204.75
592.25	1200.97
592.60	1196.95
592.95	1192.86
593.30	1188.61
593.65	1184.22
594.00	1180.03
594.35	1177.28
594.70	1172.89
595.05	1169.04
595.40	1164.80
595.75	1160.31
596.10	1156.82
596.45	1153.26
596.80	1149.94
597.15	1146.38
597.50	1142.55
597.85	1138.86
598.19	1135.04
598.54	1130.95
598.89	1127.43
599.24	1124.59
599.59	1121.01
599.94	1118.12
600.29	1114.79
600.64	1111.47
600.99	1107.97
601.34	1104.87
601.69	1100.17
602.04	1096.62
602.39	1093.04
602.74	1089.76
603.08	1086.96
603.43	1084.07
603.78	1080.70
604.13	1077.01
604.48	1073.49
604.83	1070.76
605.18	1068.06
605.53	1064.67
605.87	1061.10
606.22	1057.81
606.57	1054.27
606.92	1050.56
607.27	1046.66
607.62	1042.96
607.96	1039.87
608.31	1036.60
608.66	1032.62
609.01	1028.90
609.36	1025.15
609.70	1021.21
610.05	1017.30
610.40	1013.17
610.75	1008.93
611.10	1004.98
611.44	1000.62
611.79	996.24
612.14	991.72
612.49	986.86
612.83	982.71
613.18	978.31
613.53	973.74
613.88	968.97
614.22	964.83
614.57	960.51
614.92	956.26
615.27	951.63
615.61	947.14
615.96	943.15
616.31	939.00
616.65	935.20
617.00	931.30
617.35	927.07
617.70	922.70
618.04	918.17
618.39	913.55
618.74	909.64
619.08	905.29
619.43	900.81
619.78	896.65
620.12	892.50
620.47	888.59
620.82	884.35
621.16	880.06
621.51	875.75
621.85	871.60
622.20	867.12
622.55	862.93
622.89	858.78
623.24	854.36
623.59	849.84
623.93	845.42
624.28	841.18
624.62	837.45
624.97	833.53
625.32	829.46
625.66	825.57
626.01	821.52
626.35	817.80
626.70	814.00
627.04	810.35
627.39	806.41
627.73	802.27
628.08	798.65
628.43	794.75
628.77	790.86
629.12	786.85
629.46	783.70
629.81	779.85
630.15	776.08
630.50	772.15
630.84	768.41
631.19	764.67
631.53	760.90
631.88	756.51
632.22	752.42
632.57	748.88
632.91	744.87
633.26	741.19
633.60	737.55
633.95	734.03
634.29	730.05
634.64	726.62
634.98	722.77
635.32	719.10
635.67	715.73
636.01	712.24
636.36	708.62
636.70	704.77
637.05	701.24
637.39	697.72
637.73	694.60
638.08	691.61
638.42	688.38
638.77	685.08
639.11	681.87
639.45	678.58
639.80	674.81
640.14	671.50
640.49	668.02
640.83	664.55
641.17	661.19
641.52	657.80
641.86	654.11
642.20	651.11
642.55	647.33
642.89	643.62
643.23	640.01
643.58	636.91
643.92	633.31
644.26	629.86
644.61	626.65
644.95	623.10
645.29	619.59
645.64	616.17
645.98	612.66
646.32	609.34
646.66	605.86
647.01	602.76
647.35	599.51
647.69	596.19
648.04	592.95
648.38	589.34
648.72	586.11
649.06	583.01
649.41	579.49
649.75	576.64
650.09	573.72
650.43	570.63
650.78	567.21
651.12	564.04
651.46	560.94
651.80	557.74
652.14	554.61
652.49	551.50
652.83	548.21
653.17	544.99
653.51	541.75
653.85	538.86
654.20	535.75
654.54	532.72
654.88	529.60
655.22	526.65
655.56	523.70
655.90	520.69
656.25	517.47
656.59	514.48
656.93	511.47
657.27	508.59
657.61	505.63
657.95	502.79
658.29	500.00
658.64	497.11
658.98	494.14
659.32	491.12
659.66	488.28
660.00	485.48
660.34	482.67
660.68	479.88
661.02	477.06
661.36	474.40
661.70	471.79
662.05	469.16
662.39	466.55
662.73	464.18
663.07	461.86
663.41	459.53
663.75	456.99
664.09	454.46
664.43	451.90
664.77	449.42
665.11	446.92
665.45	444.52
665.79	442.33
666.13	439.88
666.47	437.64
666.81	435.21
667.15	432.86
667.49	430.80
667.83	428.77
668.17	426.55
668.51	424.42
668.85	422.45
669.19	420.60
669.53	418.41
669.87	416.18
670.21	414.03
670.55	411.98
670.89	410.38
671.23	408.49
671.57	406.58
671.91	404.71
672.25	402.85
672.58	401.01
672.92	398.98
673.26	397.29
673.60	395.66
673.94	393.97
674.28	392.30
674.62	390.65
674.96	388.85
675.30	387.21
675.64	385.50
675.97	383.68
676.31	382.05
676.65	380.41
676.99	378.94
677.33	377.22
677.67	375.46
678.01	373.56
678.34	371.89
678.68	370.31
679.02	368.57
679.36	366.97
679.70	365.38
680.04	363.85
680.37	362.17
680.71	360.55
681.05	359.07
681.39	357.56
681.73	355.92
682.06	354.51
682.40	353.14
682.74	351.78
683.08	350.42
683.42	348.75
683.75	347.41
684.09	345.80
684.43	344.37
684.77	342.91
685.10	341.54
685.44	340.14
685.78	338.70
686.12	337.55
686.45	336.23
686.79	334.89
687.13	333.72
687.46	332.55
687.80	331.25
688.14	329.86
688.48	328.59
688.81	327.21
689.15	325.88
689.49	324.49
689.82	323.19
690.16	321.70
690.50	320.41
690.83	319.00
691.17	317.77
691.51	316.60
691.84	315.49
692.18	314.37
692.52	313.30
692.85	312.28
693.19	311.25
693.52	310.14
693.86	308.94
694.20	307.74
694.53	306.62
694.87	305.52
695.21	304.40
695.54	303.24
695.88	302.16
696.21	301.04
696.55	300.02
696.88	298.98
697.22	298.03
697.56	297.20
697.89	296.31
698.23	295.43
698.56	294.42
698.90	293.60
699.23	292.50
699.57	291.47
699.90	290.40
700.24	289.36
700.58	288.32
700.91	287.57
701.25	286.85
701.58	286.06
701.92	285.26
702.25	284.48
702.59	283.63
702.92	282.89
703.26	282.04
703.59	281.25
703.93	280.71
704.26	279.90
704.60	279.11
704.93	278.24
705.26	277.32
705.60	276.59
705.93	275.66
706.27	275.06
706.60	274.43
706.94	273.90
707.27	273.15
707.61	272.54
707.94	271.78
708.27	270.90
708.61	270.08
708.94	269.35
709.28	268.71
709.61	268.10
709.94	267.44
710.28	266.88
710.61	266.32
710.95	265.36
711.28	264.98
711.61	264.27
711.95	263.76
712.28	263.18
712.61	262.59
712.95	262.25
713.28	261.83
713.61	261.22
713.95	260.52
714.28	259.96
714.61	259.41
714.95	258.89
715.28	258.38
715.61	257.91
715.95	257.40
716.28	256.77
716.61	256.30
716.95	255.75
717.28	255.26
717.61	254.72
717.94	254.33
718.28	253.67
718.61	253.24
718.94	252.73
719.27	252.32
719.61	251.90
719.94	251.34
720.27	250.75
720.60	250.25
720.94	249.88
721.27	249.52
721.60	249.16
721.93	248.72
722.27	248.48
722.60	248.13
722.93	247.74
723.26	247.51
723.59	247.15
723.93	246.85
724.26	246.56
724.59	246.26
724.92	245.88
725.25	245.56
725.59	245.24
725.92	244.95
726.25	244.62
726.58	244.28
726.91	243.99
727.24	243.67
727.57	243.40
727.91	243.02
728.24	242.68
728.57	242.32
728.90	242.08
729.23	241.67
729.56	241.44
729.89	241.14
730.22	240.75
730.55	240.37
730.89	240.10
731.22	239.80
731.55	239.45
731.88	239.25
732.21	238.94
732.54	238.57
732.87	238.29
733.20	238.00
733.53	237.71
733.86	237.42
734.19	237.12
734.52	236.89
734.85	236.86
735.18	236.58
735.51	236.48
735.84	236.19
736.17	235.91
736.50	235.49
736.83	235.63
737.16	235.41
737.49	235.18
737.82	234.84
738.15	234.60
738.48	234.26
738.81	233.91
739.14	233.58
739.47	233.39
739.80	233.17
740.13	232.95
740.46	232.63
740.79	232.33
741.12	232.10
741.45	231.86
741.78	231.47
742.11	231.31
742.44	230.93
742.77	230.86
743.10	230.65
743.43	230.44
743.75	229.89
744.08	230.06
744.41	229.81
744.74	229.65
745.07	229.33
745.40	229.25
745.73	229.23
746.06	229.09
746.39	228.89
746.71	228.60
747.04	228.41
747.37	228.23
747.70	228.17
748.03	227.98
748.36	227.79
748.68	227.55
749.01	227.33
749.34	227.24
749.67	227.03
750.00	226.83
750.33	226.92
750.65	226.78
750.98	226.20
751.31	226.07
751.64	225.89
751.97	225.92
752.29	225.75
752.62	225.31
752.95	225.10
753.28	224.92
753.60	224.82
753.93	224.76
754.26	224.71
754.59	224.39
754.91	224.24
755.24	224.06
755.57	223.95
755.90	223.80
756.22	223.61
756.55	223.43
756.88	223.31
757.20	222.94
757.53	222.75
757.86	222.62
758.19	222.52
758.51	222.32
758.84	222.09
759.17	221.94
759.49	221.88
759.82	221.94
760.15	221.83
760.47	221.73
760.80	221.47
761.13	221.41
761.45	221.31
761.78	221.21
762.11	221.11
762.43	220.87
762.76	220.75
763.08	220.69
763.41	220.56
763.74	220.49
764.06	220.45
764.39	220.30
764.71	220.21
765.04	220.11
765.37	220.05
765.69	219.89
766.02	219.80
766.34	219.71
766.67	219.50
767.00	219.47
767.32	219.48
767.65	219.71
767.97	219.52
768.30	219.50
768.62	219.40
768.95	219.26
769.27	219.21
769.60	219.16
769.92	219.02
770.25	218.91
770.57	218.75
770.90	218.61
771.22	218.50
771.55	218.47
771.87	218.39
772.20	218.35
772.52	218.54
772.85	218.84
773.17	218.82
773.50	218.69
773.82	218.56
774.15	218.42
774.47	218.09
774.80	218.00
775.12	217.94
775.45	217.83
775.77	217.79
776.09	217.78
776.42	217.70
776.74	217.73
777.07	217.66
777.39	217.60
777.72	217.52
778.04	217.48
778.36	217.31
778.69	217.28
779.01	217.21
779.33	216.87
779.66	216.44
779.98	216.39
780.31	216.40
780.63	216.51
780.95	216.49
781.28	216.45
781.60	216.37
781.92	216.27
782.25	216.16
782.57	216.15
782.89	216.12
783.22	216.07
783.54	215.97
783.86	215.93
784.19	215.86
784.51	215.97
784.83	215.91
785.16	215.90
785.48	215.85
785.80	215.82
786.12	215.82
786.45	215.82
786.77	215.78
787.09	215.68
787.42	215.53
787.74	215.46
788.06	215.42
788.38	215.40
788.71	215.33
789.03	215.34
789.35	215.29
789.67	215.22
789.99	215.24
790.32	215.20
790.64	215.13
790.96	215.41
791.28	215.22
791.61	215.22
791.93	215.31
792.25	215.26
792.57	215.46
792.89	215.36
793.21	215.32
793.54	215.21
793.86	215.24
794.18	215.26
794.50	215.18
794.82	215.01
795.14	215.03
795.47	215.08
795.79	215.10
796.11	215.03
796.43	214.94
796.75	214.90
797.07	214.86
797.39	214.87
797.71	214.63
798.04	214.64
798.36	214.56
798.68	214.40
799.00	214.44
799.32	214.29
799.64	214.34
799.96	214.29
800.28	214.40
800.60	214.33
800.92	214.30
801.24	214.29
801.56	214.40
801.89	214.29
802.21	214.29
802.53	214.18
802.85	214.25
803.17	214.41
803.49	214.28
803.81	214.21
804.13	214.14
804.45	214.11
804.77	214.10
805.09	214.13
805.41	214.16
805.73	213.99
806.05	213.81
806.37	213.79
806.69	213.73
807.01	213.67
807.33	213.65
807.65	213.53
807.97	213.66
808.28	213.64
808.60	213.68
808.92	213.58
809.24	213.78
809.56	213.66
809.88	213.46
810.20	213.53
810.52	213.60
810.84	213.48
811.16	213.41
811.48	213.29
811.80	213.38
812.12	213.31
812.43	213.47
812.75	213.53
813.07	213.50
813.39	213.54
813.71	213.43
814.03	213.44
814.35	213.37
814.67	213.15
814.98	213.08
815.30	213.10
815.62	213.16
815.94	212.96
816.26	212.98
816.58	212.94
816.89	212.94
817.21	212.78
817.53	212.96
817.85	212.90
818.17	212.94
818.48	212.76
818.80	212.84
819.12	212.71
819.44	212.57
819.76	212.45
820.07	212.44
820.39	212.46
820.71	212.43
821.03	212.50
821.34	212.52
821.66	212.50
821.98	212.51
822.30	212.39
822.61	212.58
822.93	212.50
823.25	212.52
823.57	212.43
823.88	212.61
824.20	212.54
824.52	212.57
824.83	212.62
825.15	212.59
825.47	212.55
825.79	212.63
826.10	212.61
826.42	212.65
826.74	212.68
827.05	212.63
827.37	212.64
827.69	212.64
828.00	212.70
828.32	212.74
828.64	212.60
828.95	212.75
829.27	212.53
829.58	212.61
829.90	212.67
830.22	212.69
830.53	212.49
830.85	212.39
831.17	212.31
831.48	212.22
831.80	212.20
832.11	212.17
832.43	212.03
832.75	212.08
833.06	212.29
833.38	212.18
833.69	212.20
834.01	212.17
834.32	212.10
834.64	212.02
834.96	211.99
835.27	211.99
835.59	211.85
835.90	211.90
836.22	211.88
836.53	211.80
836.85	211.76
837.16	212.08
837.48	212.09
837.79	212.25
838.11	212.29
838.42	212.33
838.74	212.34
839.05	212.35
839.37	212.31
839.68	212.04
840.00	211.99
840.31	212.05
840.63	211.98
840.94	211.91
841.26	211.82
841.57	211.74
841.88	211.90
842.20	211.89
842.51	211.82
842.83	211.82
843.14	212.13
843.46	212.12
843.77	211.93
844.08	211.91
844.40	211.76
844.71	211.70
845.03	211.69
845.34	211.65
845.65	211.60
845.97	211.58
846.28	211.63
846.60	211.64
846.91	211.53
847.22	211.61
847.54	211.72
847.85	211.77
848.16	211.83
848.48	211.60
848.79	211.76
849.10	211.86
849.42	211.83
849.73	211.49
850.04	211.49
850.36	211.45
850.67	211.50
850.98	211.57
851.30	211.59
851.61	211.59
851.92	211.61
852.23	211.76
852.55	211.74
852.86	211.79
853.17	211.85
853.49	211.95
853.80	211.97
854.11	212.00
854.42	212.11
854.74	212.07
855.05	212.14
855.36	211.95
855.67	211.89
855.99	211.90
856.30	212.38
856.61	212.35
856.92	212.33
857.23	212.29
857.55	212.15
857.86	212.17
858.17	212.20
858.48	212.09
858.79	212.05
859.11	212.08
859.42	212.04
859.73	212.03
860.04	211.94
860.35	211.86
860.66	211.79
860.98	211.75
861.29	211.76
861.60	211.73
861.91	211.79
862.22	211.79
862.53	211.72
862.84	211.28
863.16	211.42
863.47	211.39
863.78	211.45
864.09	211.56
864.40	211.58
864.71	211.52
865.02	211.66
865.33	211.60
865.64	211.60
865.95	211.62
866.27	211.85
866.58	211.85
866.89	211.81
867.20	211.75
867.51	211.74
867.82	211.76
868.13	211.85
868.44	211.81
868.75	211.88
869.06	211.91
869.37	211.92
869.68	211.77
869.99	211.81
870.30	211.73
870.61	211.75
870.92	211.69
871.23	211.78
871.54	211.72
871.85	211.83
872.16	211.87
872.47	211.84
872.78	211.60
873.09	211.63
873.40	211.66
873.71	211.73
874.02	211.68
874.33	211.60
874.64	211.52
874.95	211.56
875.26	211.47
875.56	211.50
875.87	211.45
876.18	211.49
876.49	211.81
876.80	211.84
877.11	211.76
877.42	211.77
877.73	211.68
878.04	211.65
878.35	211.64
878.66	211.63
878.96	211.59
879.27	211.64
879.58	211.63
879.89	211.60
880.20	211.70
880.51	211.72
880.82	211.75
881.12	211.80
881.43	211.74
881.74	211.70
882.05	211.66
882.36	211.68
882.67	211.64
882.97	211.30
883.28	211.30
883.59	211.33
883.90	211.34
884.21	211.38
884.51	211.37
884.82	211.24
885.13	211.28
885.44	211.32
885.74	211.24
886.05	211.20
886.36	211.17
886.67	211.00
886.98	211.15
887.28	211.18
887.59	211.22
887.90	211.25
888.20	211.24
888.51	211.31
888.82	211.31
889.13	211.34
889.43	211.59
889.74	211.52
890.05	211.51
890.35	211.52
890.66	211.50
890.97	211.53
891.28	211.58
891.58	211.56
891.89	211.59
892.20	211.54
892.50	211.54
892.81	211.53
893.12	211.53
893.42	211.33
893.73	211.37
894.04	211.38
894.34	211.44
894.65	211.43
894.95	211.35
895.26	211.32
895.57	211.48
895.87	211.20
896.18	211.34
896.48	211.37
896.79	211.38
897.10	211.41
897.40	211.44
897.71	211.43
898.01	211.41
898.32	211.43
898.63	211.42
898.93	211.39
899.24	211.40
899.54	211.40
899.85	211.40
900.15	211.35
900.46	211.29
900.76	211.26
901.07	211.33
901.38	211.35
901.68	211.40
901.99	211.25
902.29	211.26
902.60	211.21
902.90	211.21
903.21	211.19
903.51	211.15
903.82	211.21
904.12	211.16
904.43	211.16
904.73	211.11
905.03	211.12
905.34	211.53
905.64	211.50
905.95	211.50
906.25	211.54
906.56	211.53
906.86	211.55
907.17	211.55
907.47	211.56
907.77	211.45
908.08	211.42
908.38	211.44
908.69	211.45
908.99	211.49
909.30	211.42
909.60	211.46
909.90	211.51
910.21	211.41
910.51	211.40
910.81	211.40
911.12	211.38
911.42	211.49
911.73	211.08
912.03	211.18
912.33	211.30
912.64	211.29
912.94	211.27
913.24	211.15
913.55	211.12
913.85	211.05
914.15	211.15
914.46	211.17
914.76	211.10
915.06	211.07
915.37	210.93
915.67	210.92
915.97	210.92
916.27	210.85
916.58	210.77
916.88	210.74
917.18	210.74
917.49	210.99
917.79	210.92
918.09	211.02
918.39	211.10
918.70	211.11
919.00	211.08
919.30	211.29
919.60	211.33
919.91	211.30
920.21	211.31
920.51	211.28
920.81	211.27
921.12	211.31
921.42	211.26
921.72	211.34
922.02	211.34
922.32	211.39
922.63	211.40
922.93	211.63
923.23	211.65
923.53	211.56
923.83	211.36
924.13	211.43
924.44	211.39
924.74	211.36
925.04	211.38
925.34	211.43
925.64	211.24
925.94	211.18
926.24	211.34
926.55	211.32
926.85	211.39
927.15	211.41
927.45	211.47
927.75	211.58
928.05	211.65
928.35	211.72
928.65	211.75
928.95	211.75
929.26	211.63
929.56	211.74
929.86	211.79
930.16	211.74
930.46	211.64
930.76	211.66
931.06	211.52
931.36	211.40
931.66	211.46
931.96	211.53
932.26	211.62
932.56	211.51
932.86	211.55
933.16	211.50
933.46	211.47
933.76	211.43
934.06	211.51
934.36	211.51
934.66	211.46
934.96	211.40
935.26	211.46
935.56	211.50
935.86	211.36
936.16	211.39
936.46	211.38
936.76	211.39
937.06	211.31
937.36	211.33
937.66	211.38
937.96	211.22
938.26	211.07
938.56	211.08
938.86	211.07
939.16	211.09
939.46	211.16
939.76	211.13
940.06	211.14
940.35	211.00
940.65	210.92
940.95	210.92
941.25	210.80
941.55	210.75
941.85	210.73
942.15	210.82
942.45	210.86
942.75	210.87
943.04	210.86
943.34	211.00
943.64	211.04
943.94	210.93
944.24	210.95
944.54	211.00
944.84	210.90
945.13	210.80
945.43	210.77
945.73	210.75
946.03	210.75
946.33	210.64
946.62	210.64
946.92	210.55
947.22	210.58
947.52	210.57
947.82	210.55
948.11	210.53
948.41	210.51
948.71	210.37
949.01	210.40
949.31	210.41
949.60	210.34
949.90	210.37
950.20	210.40
950.50	210.40
950.79	210.41
951.09	210.46
951.39	210.54
951.69	210.50
951.98	210.52
952.28	210.53
952.58	210.63
952.87	210.59
953.17	210.65
953.47	210.64
953.76	210.69
954.06	210.64
954.36	210.57
954.66	210.56
954.95	210.73
955.25	210.75
955.55	210.76
955.84	210.75
956.14	210.79
956.44	210.86
956.73	210.89
957.03	210.93
957.32	210.92
957.62	210.86
957.92	210.95
958.21	210.89
958.51	211.30
958.81	211.25
959.10	211.25
959.40	211.33
959.69	211.33
959.99	211.32
960.29	211.32
960.58	211.30
960.88	211.46
961.17	211.38
961.47	211.35
961.76	211.34
962.06	211.35
962.36	211.31
962.65	211.29
962.95	211.35
963.24	211.25
963.54	211.35
963.83	211.38
964.13	211.35
964.42	211.33
964.72	211.06
965.01	211.10
965.31	211.16
965.60	211.11
965.90	211.30
966.19	211.22
966.49	211.27
966.78	211.27
967.08	211.21
967.37	211.23
967.67	211.25
967.96	211.36
968.26	211.30
968.55	211.28
968.85	211.33
969.14	211.30
969.43	211.34
969.73	211.25
970.02	211.24
970.32	211.28
970.61	211.24
970.91	211.12
971.20	211.04
971.49	211.07
971.79	211.08
972.08	210.83
972.38	210.94
972.67	210.95
972.96	210.96
973.26	210.90
973.55	210.97
973.85	210.82
974.14	210.68
974.43	210.78
974.73	210.69
975.02	210.59
975.31	210.58
975.61	210.63
975.90	210.54
976.19	210.47
976.49	210.45
976.78	210.48
977.07	210.40
977.37	210.50
977.66	210.49
977.95	210.46
978.24	210.50
978.54	210.50
978.83	210.47
979.12	210.60
979.42	210.56
979.71	210.53
980.00	210.58
980.29	210.75
980.59	210.68
980.88	210.85
981.17	210.85
981.46	210.86
981.76	210.80
982.05	210.93
982.34	211.00
982.63	210.97
982.93	210.98
983.22	211.12
983.51	211.08
983.80	211.06
984.09	211.09
984.39	211.07
984.68	211.04
984.97	211.08
985.26	210.91
985.55	211.00
985.85	210.88
986.14	210.96
986.43	210.92
986.72	210.86
987.01	210.75
987.30	210.82
987.59	210.77
987.89	210.82
988.18	210.76
988.47	210.78
988.76	210.81
989.05	210.74
989.34	210.70
989.63	210.80
989.92	210.84
990.22	210.82
990.51	210.85
990.80	210.85
991.09	210.89
991.38	210.94
991.67	210.84
991.96	210.85
992.25	210.81
992.54	210.75
992.83	210.80
993.12	210.76
993.41	210.75
993.70	210.89
993.99	210.94
994.28	211.00
994.58	211.00
994.87	210.94
995.16	210.98
995.45	210.92
995.74	210.77
996.03	210.80
996.32	210.85
996.61	210.89
996.90	210.79
997.19	210.77
997.48	210.85
997.77	210.83
998.06	210.89
998.34	210.90
998.63	210.81
998.92	210.87
999.21	210.94
999.50	210.96
999.79	210.91
1000.08	210.85
1000.37	210.84
1000.66	210.79
1000.95	210.92
1001.24	210.92
1001.53	210.96
1001.82	210.98
1002.11	210.94
1002.40	210.92
1002.68	211.05
1002.97	211.37
1003.26	211.32
1003.55	211.23
1003.84	211.32
1004.13	211.42
1004.42	211.45
1004.71	211.51
1004.99	211.51
1005.28	211.60
1005.57	211.59
1005.86	211.55
1006.15	211.51
1006.44	211.47
1006.72	211.52
1007.01	211.42
1007.30	211.47
1007.59	211.46
1007.88	211.43
1008.17	211.43
1008.45	211.40
1008.74	211.25
1009.03	211.12
1009.32	211.13
1009.60	211.11
1009.89	211.04
1010.18	210.88
1010.47	210.83
1010.76	210.86
1011.04	210.84
1011.33	210.77
1011.62	210.78
1011.91	210.75
1012.19	210.76
1012.48	210.75
1012.77	210.75
1013.05	210.92
1013.34	210.84
1013.63	210.80
1013.92	210.85
1014.20	210.83
1014.49	210.81
1014.78	210.78
1015.06	210.61
1015.35	210.60
1015.64	210.63
1015.92	210.66
1016.21	210.75
1016.50	210.74
1016.78	210.76
1017.07	210.75
1017.36	210.72
1017.64	210.72
1017.93	210.75
1018.22	210.79
1018.50	210.78
1018.79	210.79
1019.08	210.66
1019.36	210.69
1019.65	210.70
1019.93	210.72
1020.22	210.79
1020.51	211.01
1020.79	211.00
1021.08	211.00
1021.36	209.75
1021.65	211.10
1021.94	211.30
1022.22	210.00
1022.51	210.60
1022.79	211.05
1023.08	212.20
1023.36	215.35
1023.65	210.75
>>>>>End Processed Spectral Data<<<<<
