SpectraSuite Data File
++++++++++++++++++++++++++++++++++++
Date: Mon Feb 25 17:08:31 EST 2013
User: group
Dark Spectrum Present: No
Reference Spectrum Present: No
Number of Sampled Component Spectra: 1
Spectrometers: USB2E7196
Integration Time (usec): 104000 (USB2E7196)
Spectra Averaged: 20 (USB2E7196)
Boxcar Smoothing: 10 (USB2E7196)
Correct for Electrical Dark: No (USB2E7196)
Strobe/Lamp Enabled: No (USB2E7196)
Correct for Detector Non-linearity: No (USB2E7196)
Correct for Stray Light: No (USB2E7196)
Number of Pixels in Processed Spectrum: 2048
>>>>>Begin Processed Spectral Data<<<<<
339.09	0.00
339.48	198.50
339.86	199.70
340.24	201.10
340.63	202.05
341.01	209.65
341.39	205.50
341.78	207.70
342.16	208.95
342.54	207.50
342.93	198.15
343.31	208.16
343.69	208.74
344.07	209.21
344.46	209.68
344.84	210.06
345.22	210.10
345.60	210.34
345.99	210.49
346.37	210.57
346.75	210.73
347.13	210.84
347.52	210.91
347.90	211.12
348.28	211.11
348.66	211.19
349.05	211.13
349.43	211.24
349.81	211.29
350.19	211.31
350.57	211.35
350.96	211.39
351.34	211.46
351.72	211.47
352.10	211.62
352.48	211.66
352.87	211.75
353.25	211.81
353.63	211.84
354.01	211.84
354.39	211.91
354.77	211.93
355.15	212.03
355.54	212.08
355.92	212.01
356.30	212.05
356.68	212.34
357.06	212.33
357.44	212.25
357.82	212.33
358.20	212.37
358.58	212.35
358.97	212.39
359.35	212.53
359.73	212.68
360.11	212.67
360.49	212.70
360.87	212.76
361.25	212.86
361.63	213.00
362.01	213.12
362.39	213.16
362.77	213.21
363.15	213.22
363.53	213.22
363.91	213.28
364.29	213.35
364.67	212.97
365.05	213.05
365.43	213.15
365.81	213.15
366.19	213.32
366.57	213.48
366.95	213.43
367.33	213.32
367.71	213.22
368.09	213.25
368.47	213.25
368.85	213.19
369.23	213.20
369.61	213.07
369.99	213.12
370.37	213.16
370.75	213.33
371.13	213.18
371.51	213.09
371.89	213.10
372.27	213.05
372.65	213.10
373.03	213.08
373.41	212.99
373.78	212.98
374.16	212.77
374.54	212.65
374.92	212.60
375.30	212.53
375.68	212.43
376.06	212.40
376.44	212.35
376.82	212.37
377.19	212.26
377.57	212.22
377.95	212.02
378.33	211.91
378.71	211.75
379.09	211.86
379.47	211.88
379.84	211.76
380.22	211.66
380.60	211.54
380.98	211.45
381.36	211.39
381.73	211.30
382.11	211.31
382.49	211.30
382.87	211.19
383.25	211.22
383.62	211.65
384.00	211.54
384.38	211.47
384.76	211.42
385.13	211.53
385.51	211.50
385.89	211.46
386.27	211.38
386.64	211.37
387.02	211.22
387.40	211.20
387.78	211.21
388.15	211.18
388.53	211.09
388.91	211.12
389.29	211.06
389.66	211.02
390.04	210.90
390.42	210.92
390.79	210.96
391.17	210.87
391.55	210.38
391.92	210.41
392.30	210.43
392.68	210.37
393.05	210.26
393.43	210.25
393.81	210.27
394.18	210.22
394.56	210.15
394.94	210.24
395.31	210.10
395.69	210.10
396.06	210.25
396.44	210.40
396.82	210.31
397.19	210.44
397.57	210.39
397.95	210.51
398.32	210.38
398.70	210.44
399.07	210.53
399.45	210.54
399.82	210.53
400.20	210.53
400.58	210.52
400.95	210.49
401.33	210.54
401.70	210.78
402.08	210.76
402.45	210.83
402.83	210.90
403.20	211.03
403.58	211.06
403.95	211.06
404.33	211.04
404.71	211.12
405.08	211.32
405.46	211.47
405.83	211.55
406.21	211.61
406.58	211.70
406.96	211.74
407.33	211.93
407.70	212.06
408.08	212.46
408.45	212.65
408.83	212.88
409.20	213.03
409.58	213.04
409.95	213.36
410.33	213.55
410.70	213.64
411.08	213.87
411.45	214.14
411.82	214.40
412.20	214.82
412.57	215.33
412.95	215.34
413.32	215.65
413.69	215.95
414.07	216.45
414.44	216.86
414.82	217.30
415.19	217.80
415.56	218.36
415.94	218.70
416.31	219.40
416.68	219.96
417.06	220.71
417.43	221.54
417.81	222.39
418.18	223.19
418.55	224.10
418.93	225.05
419.30	225.96
419.67	226.99
420.04	228.02
420.42	228.95
420.79	230.54
421.16	231.93
421.54	233.49
421.91	234.82
422.28	236.24
422.66	237.79
423.03	239.49
423.40	241.02
423.77	242.67
424.15	244.25
424.52	246.06
424.89	247.93
425.26	249.57
425.64	251.26
426.01	253.21
426.38	255.28
426.75	257.50
427.13	259.64
427.50	261.82
427.87	264.02
428.24	266.38
428.61	268.42
428.99	270.91
429.36	273.38
429.73	275.95
430.10	278.63
430.47	281.40
430.85	284.08
431.22	287.05
431.59	290.37
431.96	293.30
432.33	296.62
432.70	299.85
433.08	303.71
433.45	307.28
433.82	310.80
434.19	314.75
434.56	318.61
434.93	322.32
435.30	326.01
435.68	330.19
436.05	334.33
436.42	338.31
436.79	342.01
437.16	346.02
437.53	350.29
437.90	354.44
438.27	358.47
438.64	362.57
439.01	366.56
439.38	369.89
439.75	373.44
440.13	377.26
440.50	380.98
440.87	384.01
441.24	387.12
441.61	390.57
441.98	393.13
442.35	396.08
442.72	399.15
443.09	402.16
443.46	403.96
443.83	405.17
444.20	406.33
444.57	407.90
444.94	408.74
445.31	409.62
445.68	410.82
446.05	411.26
446.42	411.00
446.79	410.59
447.16	410.20
447.53	410.02
447.90	408.66
448.27	407.14
448.64	405.16
449.01	403.82
449.37	401.31
449.74	398.78
450.11	395.94
450.48	392.58
450.85	389.04
451.22	386.14
451.59	383.38
451.96	380.70
452.33	376.99
452.70	373.62
453.07	369.63
453.43	365.28
453.80	361.36
454.17	357.79
454.54	354.28
454.91	350.54
455.28	346.71
455.65	343.29
456.02	340.36
456.38	337.45
456.75	333.79
457.12	330.65
457.49	327.66
457.86	324.47
458.23	322.03
458.59	319.40
458.96	316.66
459.33	314.18
459.70	311.72
460.07	309.77
460.43	307.58
460.80	305.54
461.17	303.66
461.54	301.81
461.91	299.98
462.27	298.04
462.64	296.40
463.01	294.70
463.38	293.10
463.74	290.92
464.11	289.32
464.48	288.01
464.85	286.60
465.21	285.50
465.58	284.32
465.95	282.82
466.32	281.55
466.68	280.33
467.05	279.14
467.42	277.92
467.78	276.71
468.15	275.51
468.52	274.60
468.88	273.46
469.25	272.46
469.62	271.65
469.98	270.87
470.35	270.13
470.72	269.41
471.08	268.45
471.45	267.85
471.82	267.20
472.18	266.40
472.55	265.84
472.92	265.08
473.28	264.46
473.65	263.85
474.02	263.36
474.38	262.93
474.75	262.55
475.11	262.12
475.48	261.84
475.85	261.56
476.21	261.18
476.58	260.98
476.94	260.70
477.31	260.41
477.67	260.05
478.04	259.83
478.41	259.69
478.77	259.94
479.14	259.75
479.50	259.66
479.87	259.61
480.23	259.55
480.60	259.59
480.96	259.51
481.33	259.77
481.69	259.75
482.06	259.79
482.42	259.93
482.79	260.10
483.15	260.23
483.52	260.50
483.88	260.68
484.25	260.83
484.61	261.03
484.98	261.26
485.34	261.79
485.71	262.22
486.07	262.54
486.44	262.58
486.80	262.94
487.17	263.38
487.53	264.08
487.90	264.73
488.26	265.39
488.62	266.12
488.99	266.65
489.35	267.32
489.72	267.92
490.08	268.58
490.44	269.32
490.81	270.08
491.17	270.82
491.54	271.80
491.90	272.73
492.26	273.64
492.63	274.70
492.99	275.66
493.36	276.70
493.72	277.93
494.08	279.14
494.45	280.42
494.81	281.78
495.17	282.97
495.54	284.29
495.90	285.56
496.26	287.05
496.63	288.55
496.99	290.10
497.35	291.77
497.72	293.44
498.08	295.16
498.44	296.95
498.80	298.89
499.17	300.73
499.53	302.65
499.89	304.74
500.26	306.73
500.62	308.71
500.98	310.82
501.34	312.96
501.71	315.25
502.07	317.46
502.43	319.68
502.79	321.88
503.16	324.28
503.52	326.65
503.88	329.02
504.24	331.53
504.60	334.06
504.97	336.82
505.33	339.37
505.69	342.24
506.05	344.99
506.41	347.72
506.78	350.50
507.14	353.37
507.50	356.28
507.86	359.25
508.22	362.43
508.59	365.38
508.95	368.45
509.31	371.67
509.67	374.93
510.03	378.10
510.39	381.39
510.75	384.66
511.12	388.08
511.48	391.45
511.84	394.82
512.20	398.28
512.56	401.75
512.92	405.44
513.28	408.98
513.64	412.55
514.00	416.25
514.37	419.80
514.73	423.51
515.09	427.32
515.45	431.07
515.81	434.73
516.17	438.66
516.53	442.43
516.89	446.05
517.25	449.90
517.61	454.00
517.97	458.03
518.33	462.07
518.69	466.08
519.05	470.13
519.41	474.22
519.77	478.56
520.13	482.62
520.49	486.60
520.85	490.72
521.21	494.96
521.57	499.21
521.93	503.38
522.29	507.77
522.65	512.06
523.01	516.40
523.37	520.58
523.73	524.92
524.09	529.27
524.45	533.80
524.81	538.21
525.17	542.55
525.53	546.98
525.89	551.37
526.25	556.01
526.61	560.45
526.97	564.84
527.33	569.29
527.68	574.05
528.04	578.47
528.40	582.80
528.76	587.45
529.12	591.94
529.48	596.85
529.84	601.45
530.20	606.11
530.56	610.80
530.91	615.77
531.27	620.57
531.63	625.40
531.99	630.01
532.35	634.70
532.71	639.20
533.07	644.15
533.42	649.28
533.78	653.95
534.14	658.79
534.50	663.42
534.86	668.11
535.21	672.40
535.57	677.32
535.93	681.94
536.29	686.38
536.65	690.95
537.00	695.28
537.36	699.51
537.72	703.65
538.08	707.96
538.44	712.14
538.79	716.37
539.15	720.47
539.51	724.80
539.87	729.04
540.22	733.39
540.58	737.40
540.94	741.26
541.29	745.16
541.65	748.80
542.01	752.86
542.37	756.72
542.72	760.67
543.08	764.22
543.44	768.41
543.79	772.03
544.15	775.54
544.51	779.42
544.87	783.26
545.22	786.77
545.58	790.16
545.94	793.46
546.29	796.47
546.65	799.73
547.01	802.64
547.36	805.78
547.72	808.87
548.07	811.73
548.43	814.33
548.79	816.91
549.14	819.66
549.50	822.25
549.86	824.65
550.21	826.91
550.57	829.45
550.92	831.15
551.28	833.40
551.64	835.68
551.99	837.59
552.35	839.37
552.70	841.40
553.06	843.32
553.41	845.19
553.77	847.38
554.13	849.24
554.48	851.37
554.84	853.32
555.19	854.82
555.55	856.51
555.90	858.01
556.26	859.35
556.61	860.81
556.97	862.00
557.32	863.26
557.68	864.52
558.03	865.78
558.39	867.19
558.74	868.76
559.10	869.97
559.45	871.23
559.81	872.61
560.16	873.59
560.52	874.74
560.87	875.74
561.23	876.38
561.58	877.56
561.94	878.10
562.29	878.48
562.64	879.33
563.00	879.89
563.35	880.69
563.71	881.75
564.06	882.45
564.42	883.37
564.77	884.14
565.12	885.00
565.48	885.85
565.83	886.44
566.19	886.83
566.54	887.23
566.89	887.45
567.25	887.75
567.60	888.37
567.96	888.74
568.31	889.07
568.66	889.36
569.02	888.90
569.37	888.53
569.72	888.50
570.08	888.18
570.43	887.77
570.78	887.29
571.14	886.76
571.49	886.16
571.84	885.55
572.20	884.77
572.55	884.05
572.90	882.82
573.26	881.84
573.61	880.45
573.96	879.50
574.31	878.30
574.67	877.05
575.02	875.47
575.37	874.01
575.72	872.50
576.08	871.25
576.43	869.87
576.78	868.95
577.13	867.68
577.49	866.41
577.84	865.41
578.19	864.26
578.54	863.16
578.90	862.27
579.25	861.10
579.60	859.70
579.95	858.31
580.30	857.20
580.66	856.07
581.01	854.85
581.36	853.37
581.71	852.02
582.06	850.68
582.42	849.38
582.77	847.79
583.12	846.33
583.47	845.01
583.82	843.86
584.17	842.44
584.53	841.22
584.88	839.83
585.23	838.25
585.58	836.84
585.93	835.20
586.28	833.64
586.63	832.08
586.98	830.65
587.34	829.32
587.69	827.82
588.04	826.27
588.39	824.91
588.74	823.02
589.09	821.74
589.44	819.91
589.79	818.59
590.14	817.22
590.49	815.73
590.84	814.00
591.19	812.55
591.54	810.87
591.89	808.68
592.25	807.14
592.60	805.12
592.95	803.25
593.30	801.38
593.65	799.22
594.00	797.14
594.35	796.50
594.70	794.58
595.05	792.68
595.40	790.85
595.75	788.84
596.10	787.40
596.45	785.55
596.80	784.23
597.15	782.66
597.50	780.76
597.85	779.21
598.19	777.40
598.54	775.64
598.89	773.99
599.24	772.83
599.59	771.13
599.94	769.93
600.29	768.22
600.64	766.61
600.99	765.06
601.34	763.67
601.69	761.06
602.04	759.12
602.39	757.38
602.74	755.83
603.08	754.42
603.43	753.12
603.78	751.50
604.13	749.73
604.48	748.00
604.83	746.70
605.18	745.41
605.53	743.94
605.87	742.08
606.22	740.64
606.57	738.92
606.92	737.01
607.27	735.30
607.62	733.65
607.96	732.29
608.31	730.75
608.66	729.05
609.01	727.07
609.36	725.52
609.70	723.66
610.05	721.59
610.40	719.68
610.75	717.40
611.10	715.56
611.44	713.17
611.79	710.72
612.14	708.26
612.49	705.52
612.83	703.30
613.18	701.02
613.53	698.46
613.88	695.91
614.22	693.70
614.57	691.05
614.92	688.62
615.27	686.03
615.61	683.60
615.96	681.12
616.31	678.92
616.65	676.73
617.00	674.47
617.35	672.14
617.70	669.60
618.04	667.10
618.39	664.27
618.74	662.10
619.08	659.71
619.43	657.34
619.78	655.07
620.12	652.61
620.47	650.28
620.82	647.78
621.16	645.18
621.51	642.91
621.85	640.67
622.20	638.11
622.55	635.53
622.89	633.03
623.24	630.51
623.59	627.87
623.93	625.25
624.28	622.80
624.62	620.75
624.97	618.55
625.32	616.26
625.66	614.13
626.01	611.70
626.35	609.57
626.70	607.32
627.04	605.18
627.39	602.95
627.73	600.69
628.08	598.58
628.43	596.35
628.77	593.79
629.12	591.31
629.46	589.38
629.81	587.24
630.15	584.97
630.50	582.77
630.84	580.44
631.19	578.28
631.53	576.11
631.88	573.49
632.22	570.94
632.57	568.77
632.91	566.48
633.26	564.27
633.60	562.00
633.95	559.77
634.29	557.29
634.64	555.02
634.98	552.67
635.32	550.54
635.67	548.54
636.01	546.47
636.36	544.32
636.70	542.19
637.05	539.99
637.39	537.90
637.73	535.87
638.08	534.07
638.42	532.06
638.77	530.00
639.11	527.90
639.45	525.93
639.80	523.57
640.14	521.35
640.49	519.14
640.83	517.02
641.17	514.96
641.52	512.88
641.86	510.69
642.20	508.79
642.55	506.34
642.89	504.15
643.23	501.95
643.58	500.10
643.92	497.80
644.26	495.61
644.61	493.54
644.95	491.26
645.29	488.97
645.64	486.68
645.98	484.60
646.32	482.55
646.66	480.26
647.01	478.16
647.35	476.22
647.69	474.19
648.04	472.10
648.38	470.00
648.72	468.05
649.06	465.88
649.41	463.72
649.75	461.75
650.09	459.59
650.43	457.65
650.78	455.40
651.12	453.34
651.46	451.48
651.80	449.56
652.14	447.65
652.49	445.65
652.83	443.65
653.17	441.37
653.51	439.28
653.85	437.40
654.20	435.58
654.54	433.53
654.88	431.51
655.22	429.57
655.56	427.52
655.90	425.54
656.25	423.60
656.59	421.60
656.93	419.86
657.27	418.20
657.61	416.14
657.95	414.26
658.29	412.44
658.64	410.57
658.98	408.43
659.32	406.54
659.66	404.68
660.00	402.89
660.34	401.04
660.68	399.22
661.02	397.37
661.36	395.46
661.70	393.65
662.05	392.01
662.39	390.32
662.73	388.91
663.07	387.34
663.41	385.69
663.75	384.04
664.09	382.25
664.43	380.43
664.77	378.96
665.11	377.34
665.45	375.74
665.79	374.27
666.13	372.80
666.47	371.27
666.81	369.75
667.15	368.26
667.49	366.99
667.83	365.65
668.17	364.25
668.51	363.00
668.85	361.69
669.19	360.43
669.53	358.82
669.87	357.26
670.21	355.83
670.55	354.60
670.89	353.44
671.23	352.23
671.57	350.99
671.91	349.61
672.25	348.36
672.58	347.17
672.92	345.76
673.26	344.62
673.60	343.39
673.94	342.13
674.28	340.86
674.62	339.73
674.96	338.53
675.30	337.41
675.64	336.29
675.97	335.14
676.31	333.93
676.65	332.95
676.99	331.95
677.33	330.70
677.67	329.57
678.01	328.29
678.34	327.11
678.68	326.03
679.02	324.92
679.36	323.83
679.70	322.71
680.04	321.61
680.37	320.39
680.71	319.37
681.05	318.46
681.39	317.47
681.73	316.40
682.06	315.42
682.40	314.45
682.74	313.40
683.08	312.51
683.42	311.39
683.75	310.54
684.09	309.46
684.43	308.46
684.77	307.37
685.10	306.40
685.44	305.41
685.78	304.43
686.12	303.56
686.45	302.60
686.79	301.58
687.13	300.75
687.46	299.87
687.80	299.04
688.14	298.17
688.48	297.34
688.81	296.34
689.15	295.47
689.49	294.50
689.82	293.56
690.16	292.58
690.50	291.70
690.83	290.65
691.17	289.65
691.51	288.82
691.84	288.14
692.18	287.31
692.52	286.60
692.85	285.91
693.19	285.25
693.52	284.51
693.86	283.75
694.20	282.87
694.53	282.14
694.87	281.38
695.21	280.47
695.54	279.67
695.88	278.90
696.21	278.05
696.55	277.44
696.88	276.69
697.22	275.85
697.56	275.29
697.89	274.56
698.23	274.00
698.56	273.40
698.90	272.78
699.23	272.13
699.57	271.45
699.90	270.65
700.24	269.90
700.58	269.20
700.91	268.65
701.25	268.31
701.58	267.80
701.92	267.14
702.25	266.57
702.59	265.81
702.92	265.32
703.26	264.74
703.59	264.11
703.93	263.85
704.26	263.43
704.60	262.83
704.93	262.25
705.26	261.62
705.60	261.07
705.93	260.51
706.27	260.12
706.60	259.70
706.94	259.34
707.27	258.81
707.61	258.34
707.94	257.78
708.27	257.10
708.61	256.46
708.94	255.99
709.28	255.53
709.61	255.06
709.94	254.60
710.28	254.12
710.61	253.73
710.95	252.94
711.28	252.66
711.61	252.14
711.95	251.88
712.28	251.45
712.61	250.98
712.95	250.56
713.28	250.20
713.61	249.70
713.95	249.18
714.28	248.77
714.61	248.42
714.95	248.02
715.28	247.54
715.61	247.22
715.95	246.79
716.28	246.37
716.61	246.14
716.95	245.63
717.28	245.32
717.61	244.94
717.94	244.65
718.28	244.07
718.61	243.72
718.94	243.30
719.27	242.93
719.61	242.59
719.94	242.29
720.27	241.79
720.60	241.40
720.94	241.14
721.27	240.80
721.60	240.52
721.93	240.20
722.27	240.06
722.60	239.75
722.93	239.44
723.26	239.25
723.59	238.93
723.93	238.72
724.26	238.40
724.59	238.10
724.92	237.86
725.25	237.72
725.59	237.53
725.92	237.35
726.25	237.09
726.58	236.91
726.91	236.57
727.24	236.36
727.57	236.10
727.91	235.76
728.24	235.63
728.57	235.33
728.90	235.16
729.23	234.76
729.56	234.70
729.89	234.50
730.22	234.18
730.55	233.89
730.89	233.66
731.22	233.48
731.55	233.23
731.88	232.97
732.21	232.68
732.54	232.44
732.87	232.13
733.20	231.90
733.53	231.68
733.86	231.48
734.19	231.18
734.52	231.11
734.85	231.16
735.18	230.83
735.51	230.73
735.84	230.59
736.17	230.51
736.50	230.18
736.83	230.43
737.16	230.25
737.49	230.07
737.82	229.80
738.15	229.63
738.48	229.39
738.81	229.24
739.14	229.00
739.47	228.74
739.80	228.59
740.13	228.51
740.46	228.27
740.79	227.96
741.12	227.84
741.45	227.49
741.78	227.15
742.11	227.16
742.44	226.94
742.77	226.77
743.10	226.57
743.43	226.41
743.75	225.83
744.08	226.13
744.41	226.00
744.74	225.93
745.07	225.70
745.40	225.63
745.73	225.52
746.06	225.41
746.39	225.31
746.71	225.13
747.04	224.99
747.37	224.82
747.70	224.88
748.03	224.70
748.36	224.67
748.68	224.48
749.01	224.16
749.34	223.97
749.67	223.83
750.00	223.69
750.33	223.79
750.65	223.72
750.98	223.16
751.31	222.99
751.64	222.82
751.97	222.90
752.29	222.78
752.62	222.60
752.95	222.44
753.28	222.32
753.60	222.17
753.93	222.14
754.26	222.06
754.59	221.85
754.91	221.70
755.24	221.66
755.57	221.57
755.90	221.49
756.22	221.39
756.55	221.26
756.88	221.09
757.20	220.71
757.53	220.44
757.86	220.36
758.19	220.34
758.51	220.23
758.84	219.88
759.17	219.72
759.49	219.63
759.82	219.67
760.15	219.56
760.47	219.53
760.80	219.35
761.13	219.32
761.45	219.19
761.78	219.18
762.11	219.03
762.43	218.85
762.76	218.76
763.08	218.67
763.41	218.61
763.74	218.61
764.06	218.53
764.39	218.53
764.71	218.34
765.04	218.15
765.37	218.14
765.69	218.17
766.02	218.04
766.34	217.91
766.67	217.72
767.00	217.77
767.32	217.88
767.65	217.99
767.97	217.89
768.30	217.81
768.62	217.71
768.95	217.59
769.27	217.60
769.60	217.57
769.92	217.48
770.25	217.33
770.57	217.19
770.90	217.17
771.22	217.05
771.55	217.06
771.87	217.03
772.20	216.92
772.52	217.16
772.85	217.55
773.17	217.59
773.50	217.51
773.82	217.35
774.15	217.01
774.47	216.71
774.80	216.62
775.12	216.61
775.45	216.44
775.77	216.37
776.09	216.40
776.42	216.36
776.74	216.38
777.07	216.32
777.39	216.28
777.72	216.21
778.04	216.23
778.36	216.13
778.69	216.15
779.01	216.08
779.33	215.72
779.66	215.30
779.98	215.18
780.31	215.22
780.63	215.31
780.95	215.39
781.28	215.43
781.60	215.35
781.92	215.30
782.25	215.35
782.57	215.31
782.89	215.17
783.22	215.08
783.54	214.99
783.86	215.00
784.19	215.00
784.51	214.99
784.83	214.88
785.16	214.81
785.48	214.80
785.80	214.83
786.12	214.84
786.45	214.80
786.77	214.73
787.09	214.70
787.42	214.55
787.74	214.53
788.06	214.44
788.38	214.34
788.71	214.21
789.03	214.20
789.35	214.23
789.67	214.18
789.99	214.26
790.32	214.21
790.64	214.25
790.96	214.45
791.28	214.31
791.61	214.29
791.93	214.32
792.25	214.24
792.57	214.40
792.89	214.25
793.21	214.30
793.54	214.27
793.86	214.13
794.18	214.15
794.50	214.02
794.82	214.07
795.14	214.14
795.47	214.26
795.79	214.27
796.11	214.14
796.43	214.09
796.75	214.00
797.07	213.95
797.39	213.81
797.71	213.56
798.04	213.59
798.36	213.63
798.68	213.55
799.00	213.54
799.32	213.40
799.64	213.48
799.96	213.35
800.28	213.44
800.60	213.41
800.92	213.43
801.24	213.40
801.56	213.33
801.89	213.32
802.21	213.30
802.53	213.20
802.85	213.30
803.17	213.45
803.49	213.32
803.81	213.35
804.13	213.35
804.45	213.26
804.77	213.26
805.09	213.24
805.41	213.23
805.73	213.18
806.05	213.00
806.37	212.96
806.69	212.95
807.01	212.87
807.33	212.90
807.65	212.72
807.97	212.87
808.28	212.75
808.60	212.69
808.92	212.63
809.24	212.87
809.56	212.79
809.88	212.67
810.20	212.73
810.52	212.68
810.84	212.61
811.16	212.57
811.48	212.58
811.80	212.58
812.12	212.56
812.43	212.58
812.75	212.65
813.07	212.62
813.39	212.61
813.71	212.58
814.03	212.53
814.35	212.60
814.67	212.53
814.98	212.56
815.30	212.59
815.62	212.52
815.94	212.28
816.26	212.34
816.58	212.29
816.89	212.29
817.21	212.30
817.53	212.30
817.85	212.35
818.17	212.30
818.48	212.19
818.80	212.23
819.12	212.19
819.44	212.14
819.76	212.13
820.07	212.13
820.39	212.09
820.71	212.19
821.03	212.17
821.34	212.02
821.66	212.07
821.98	212.10
822.30	212.12
822.61	212.30
822.93	212.21
823.25	212.20
823.57	212.13
823.88	212.25
824.20	212.21
824.52	212.26
824.83	212.28
825.15	212.28
825.47	212.24
825.79	212.29
826.10	212.27
826.42	212.24
826.74	212.26
827.05	212.23
827.37	212.22
827.69	212.19
828.00	212.19
828.32	212.13
828.64	212.05
828.95	212.18
829.27	212.02
829.58	211.97
829.90	211.99
830.22	212.13
830.53	211.99
830.85	211.97
831.17	211.93
831.48	211.86
831.80	211.88
832.11	211.87
832.43	211.83
832.75	211.88
833.06	212.04
833.38	211.97
833.69	211.98
834.01	211.96
834.32	211.97
834.64	211.98
834.96	211.99
835.27	212.03
835.59	211.95
835.90	211.99
836.22	212.00
836.53	211.96
836.85	211.90
837.16	212.18
837.48	212.23
837.79	212.29
838.11	212.36
838.42	212.33
838.74	212.46
839.05	212.38
839.37	212.25
839.68	212.06
840.00	212.00
840.31	212.04
840.63	211.96
840.94	211.84
841.26	211.88
841.57	211.89
841.88	211.87
842.20	211.78
842.51	211.70
842.83	211.70
843.14	212.01
843.46	211.98
843.77	211.77
844.08	211.69
844.40	211.61
844.71	211.58
845.03	211.57
845.34	211.45
845.65	211.49
845.97	211.53
846.28	211.59
846.60	211.70
846.91	211.67
847.22	211.65
847.54	211.82
847.85	211.80
848.16	211.75
848.48	211.70
848.79	211.82
849.10	211.89
849.42	211.98
849.73	211.62
850.04	211.55
850.36	211.50
850.67	211.67
850.98	211.59
851.30	211.56
851.61	211.53
851.92	211.57
852.23	211.71
852.55	211.71
852.86	211.66
853.17	211.69
853.49	211.76
853.80	211.94
854.11	211.84
854.42	211.82
854.74	211.78
855.05	211.81
855.36	211.71
855.67	211.64
855.99	211.65
856.30	212.06
856.61	212.09
856.92	212.04
857.23	211.97
857.55	211.95
857.86	211.94
858.17	212.01
858.48	212.00
858.79	211.90
859.11	211.91
859.42	211.90
859.73	211.74
860.04	211.71
860.35	211.58
860.66	211.51
860.98	211.50
861.29	211.62
861.60	211.58
861.91	211.62
862.22	211.54
862.53	211.43
862.84	210.99
863.16	211.06
863.47	211.04
863.78	211.07
864.09	211.14
864.40	211.10
864.71	211.12
865.02	211.18
865.33	211.11
865.64	211.13
865.95	211.09
866.27	211.37
866.58	211.35
866.89	211.40
867.20	211.42
867.51	211.43
867.82	211.32
868.13	211.48
868.44	211.41
868.75	211.53
869.06	211.54
869.37	211.64
869.68	211.54
869.99	211.58
870.30	211.54
870.61	211.49
870.92	211.49
871.23	211.41
871.54	211.34
871.85	211.45
872.16	211.49
872.47	211.50
872.78	211.24
873.09	211.25
873.40	211.17
873.71	211.19
874.02	211.18
874.33	211.21
874.64	211.10
874.95	211.16
875.26	211.07
875.56	211.13
875.87	211.07
876.18	211.04
876.49	211.35
876.80	211.35
877.11	211.33
877.42	211.40
877.73	211.45
878.04	211.39
878.35	211.38
878.66	211.33
878.96	211.30
879.27	211.34
879.58	211.32
879.89	211.30
880.20	211.42
880.51	211.39
880.82	211.34
881.12	211.37
881.43	211.30
881.74	211.26
882.05	211.17
882.36	211.20
882.67	211.28
882.97	210.94
883.28	210.89
883.59	210.90
883.90	210.96
884.21	210.97
884.51	210.96
884.82	210.90
885.13	210.92
885.44	210.93
885.74	210.90
886.05	210.85
886.36	210.84
886.67	210.70
886.98	210.92
887.28	210.98
887.59	210.89
887.90	210.92
888.20	210.97
888.51	211.06
888.82	211.01
889.13	210.97
889.43	211.22
889.74	211.25
890.05	211.26
890.35	211.11
890.66	211.06
890.97	211.07
891.28	211.10
891.58	211.05
891.89	211.10
892.20	211.12
892.50	211.14
892.81	211.16
893.12	211.20
893.42	211.01
893.73	211.03
894.04	211.05
894.34	211.03
894.65	211.00
894.95	210.99
895.26	211.04
895.57	211.18
895.87	210.86
896.18	210.85
896.48	210.85
896.79	210.90
897.10	210.96
897.40	210.97
897.71	210.97
898.01	211.02
898.32	211.03
898.63	210.97
898.93	211.01
899.24	210.98
899.54	210.92
899.85	210.96
900.15	210.96
900.46	210.95
900.76	210.99
901.07	210.98
901.38	210.88
901.68	210.89
901.99	210.78
902.29	210.84
902.60	210.81
902.90	210.82
903.21	210.76
903.51	210.69
903.82	210.73
904.12	210.73
904.43	210.72
904.73	210.64
905.03	210.65
905.34	210.93
905.64	210.90
905.95	210.91
906.25	210.85
906.56	210.87
906.86	210.86
907.17	210.82
907.47	210.91
907.77	210.95
908.08	210.98
908.38	210.99
908.69	211.05
908.99	211.08
909.30	211.05
909.60	211.09
909.90	211.11
910.21	211.11
910.51	211.09
910.81	211.10
911.12	211.14
911.42	211.16
911.73	210.89
912.03	210.92
912.33	211.02
912.64	211.04
912.94	211.00
913.24	210.89
913.55	210.88
913.85	210.84
914.15	210.94
914.46	210.86
914.76	210.81
915.06	210.80
915.37	210.78
915.67	210.72
915.97	210.72
916.27	210.65
916.58	210.62
916.88	210.58
917.18	210.49
917.49	210.71
917.79	210.68
918.09	210.70
918.39	210.77
918.70	210.70
919.00	210.73
919.30	210.85
919.60	210.96
919.91	210.91
920.21	210.86
920.51	210.78
920.81	210.81
921.12	210.86
921.42	210.77
921.72	210.81
922.02	210.90
922.32	211.01
922.63	211.08
922.93	211.25
923.23	211.30
923.53	211.33
923.83	211.14
924.13	211.26
924.44	211.27
924.74	211.31
925.04	211.45
925.34	211.41
925.64	211.38
925.94	211.30
926.24	211.55
926.55	211.53
926.85	211.54
927.15	211.48
927.45	211.49
927.75	211.61
928.05	211.57
928.35	211.53
928.65	211.60
928.95	211.62
929.26	211.48
929.56	211.53
929.86	211.64
930.16	211.67
930.46	211.57
930.76	211.55
931.06	211.41
931.36	211.29
931.66	211.35
931.96	211.25
932.26	211.35
932.56	211.20
932.86	211.29
933.16	211.25
933.46	211.30
933.76	211.26
934.06	211.27
934.36	211.42
934.66	211.45
934.96	211.35
935.26	211.32
935.56	211.38
935.86	211.27
936.16	211.22
936.46	211.12
936.76	211.21
937.06	211.11
937.36	211.18
937.66	211.18
937.96	211.17
938.26	211.16
938.56	211.15
938.86	211.22
939.16	211.21
939.46	211.29
939.76	211.31
940.06	211.29
940.35	211.19
940.65	210.98
940.95	210.95
941.25	210.92
941.55	210.89
941.85	210.85
942.15	210.98
942.45	211.02
942.75	211.05
943.04	211.02
943.34	211.23
943.64	211.23
943.94	211.22
944.24	211.21
944.54	211.19
944.84	211.15
945.13	211.00
945.43	210.97
945.73	210.92
946.03	210.87
946.33	210.86
946.62	210.81
946.92	210.89
947.22	210.98
947.52	211.02
947.82	211.13
948.11	211.10
948.41	210.93
948.71	210.89
949.01	210.92
949.31	210.88
949.60	210.74
949.90	210.70
950.20	210.67
950.50	210.68
950.79	210.72
951.09	210.78
951.39	210.83
951.69	210.80
951.98	210.90
952.28	210.91
952.58	210.91
952.87	210.96
953.17	210.97
953.47	210.93
953.76	210.95
954.06	210.89
954.36	210.86
954.66	210.92
954.95	210.96
955.25	211.03
955.55	211.07
955.84	211.02
956.14	211.09
956.44	211.14
956.73	211.09
957.03	211.11
957.32	211.07
957.62	211.06
957.92	211.14
958.21	211.13
958.51	211.52
958.81	211.59
959.10	211.65
959.40	211.73
959.69	211.73
959.99	211.80
960.29	211.76
960.58	211.68
960.88	211.80
961.17	211.78
961.47	211.64
961.76	211.60
962.06	211.73
962.36	211.69
962.65	211.65
962.95	211.63
963.24	211.55
963.54	211.59
963.83	211.65
964.13	211.62
964.42	211.47
964.72	211.23
965.01	211.24
965.31	211.21
965.60	211.10
965.90	211.32
966.19	211.13
966.49	211.16
966.78	211.19
967.08	211.15
967.37	211.15
967.67	211.21
967.96	211.25
968.26	211.21
968.55	211.24
968.85	211.28
969.14	211.30
969.43	211.28
969.73	211.21
970.02	211.13
970.32	211.14
970.61	211.16
970.91	211.00
971.20	210.91
971.49	210.88
971.79	210.95
972.08	210.65
972.38	210.65
972.67	210.61
972.96	210.69
973.26	210.65
973.55	210.76
973.85	210.75
974.14	210.75
974.43	210.79
974.73	210.76
975.02	210.78
975.31	210.84
975.61	210.86
975.90	210.82
976.19	210.77
976.49	210.80
976.78	210.83
977.07	210.83
977.37	210.86
977.66	210.83
977.95	210.78
978.24	210.89
978.54	211.00
978.83	210.98
979.12	210.94
979.42	210.88
979.71	210.75
980.00	210.72
980.29	210.72
980.59	210.57
980.88	210.57
981.17	210.56
981.46	210.52
981.76	210.58
982.05	210.73
982.34	210.86
982.63	210.86
982.93	210.87
983.22	211.01
983.51	210.98
983.80	211.09
984.09	211.16
984.39	211.12
984.68	211.11
984.97	211.14
985.26	211.09
985.55	211.20
985.85	211.16
986.14	211.25
986.43	211.33
986.72	211.41
987.01	211.38
987.30	211.43
987.59	211.40
987.89	211.37
988.18	211.25
988.47	211.20
988.76	211.12
989.05	211.11
989.34	211.06
989.63	211.20
989.92	211.18
990.22	211.11
990.51	211.01
990.80	210.96
991.09	211.03
991.38	211.15
991.67	211.07
991.96	211.04
992.25	211.01
992.54	210.91
992.83	210.90
993.12	210.89
993.41	210.90
993.70	211.08
993.99	211.12
994.28	211.20
994.58	211.30
994.87	211.30
995.16	211.28
995.45	211.24
995.74	211.15
996.03	211.16
996.32	211.22
996.61	211.44
996.90	211.48
997.19	211.45
997.48	211.46
997.77	211.39
998.06	211.45
998.34	211.44
998.63	211.42
998.92	211.39
999.21	211.42
999.50	211.31
999.79	211.15
1000.08	211.18
1000.37	211.17
1000.66	211.01
1000.95	211.15
1001.24	211.14
1001.53	211.19
1001.82	211.20
1002.11	211.12
1002.40	211.16
1002.68	211.12
1002.97	211.34
1003.26	211.28
1003.55	211.17
1003.84	211.26
1004.13	211.38
1004.42	211.36
1004.71	211.35
1004.99	211.34
1005.28	211.47
1005.57	211.50
1005.86	211.44
1006.15	211.42
1006.44	211.36
1006.72	211.38
1007.01	211.32
1007.30	211.40
1007.59	211.33
1007.88	211.25
1008.17	211.27
1008.45	211.16
1008.74	211.04
1009.03	210.86
1009.32	210.84
1009.60	210.88
1009.89	210.87
1010.18	210.71
1010.47	210.70
1010.76	210.72
1011.04	210.75
1011.33	210.72
1011.62	210.80
1011.91	210.84
1012.19	210.85
1012.48	210.86
1012.77	210.90
1013.05	210.93
1013.34	210.90
1013.63	210.88
1013.92	210.94
1014.20	210.91
1014.49	210.89
1014.78	210.96
1015.06	210.88
1015.35	210.89
1015.64	210.91
1015.92	210.87
1016.21	210.86
1016.50	210.89
1016.78	210.97
1017.07	210.97
1017.36	210.84
1017.64	210.72
1017.93	210.73
1018.22	210.70
1018.50	210.75
1018.79	210.67
1019.08	210.63
1019.36	210.60
1019.65	210.59
1019.93	210.66
1020.22	210.75
1020.51	210.87
1020.79	210.85
1021.08	210.85
1021.36	211.10
1021.65	209.40
1021.94	211.10
1022.22	210.55
1022.51	209.95
1022.79	212.50
1023.08	211.85
1023.36	213.05
1023.65	210.85
>>>>>End Processed Spectral Data<<<<<
