SpectraSuite Data File
++++++++++++++++++++++++++++++++++++
Date: Mon Feb 25 17:18:16 EST 2013
User: group
Dark Spectrum Present: No
Reference Spectrum Present: No
Number of Sampled Component Spectra: 1
Spectrometers: USB2E7196
Integration Time (usec): 104000 (USB2E7196)
Spectra Averaged: 20 (USB2E7196)
Boxcar Smoothing: 10 (USB2E7196)
Correct for Electrical Dark: No (USB2E7196)
Strobe/Lamp Enabled: No (USB2E7196)
Correct for Detector Non-linearity: No (USB2E7196)
Correct for Stray Light: No (USB2E7196)
Number of Pixels in Processed Spectrum: 2048
>>>>>Begin Processed Spectral Data<<<<<
339.09	0.00
339.48	199.30
339.86	200.50
340.24	202.20
340.63	202.95
341.01	209.60
341.39	206.15
341.78	207.15
342.16	208.95
342.54	209.80
342.93	198.77
343.31	208.75
343.69	209.28
344.07	209.74
344.46	210.19
344.84	210.59
345.22	210.65
345.60	210.93
345.99	211.18
346.37	211.30
346.75	211.43
347.13	211.49
347.52	211.58
347.90	211.69
348.28	211.72
348.66	211.83
349.05	211.75
349.43	211.88
349.81	211.86
350.19	211.87
350.57	211.93
350.96	212.05
351.34	212.26
351.72	212.43
352.10	212.53
352.48	212.55
352.87	212.61
353.25	212.71
353.63	212.72
354.01	212.73
354.39	212.81
354.77	212.84
355.15	213.00
355.54	213.01
355.92	213.04
356.30	213.10
356.68	213.32
357.06	213.37
357.44	213.32
357.82	213.43
358.20	213.51
358.58	213.46
358.97	213.55
359.35	213.61
359.73	213.70
360.11	213.80
360.49	213.90
360.87	213.97
361.25	214.14
361.63	214.32
362.01	214.41
362.39	214.46
362.77	214.54
363.15	214.58
363.53	214.63
363.91	214.62
364.29	214.70
364.67	214.51
365.05	214.51
365.43	214.56
365.81	214.69
366.19	214.87
366.57	215.04
366.95	215.06
367.33	214.96
367.71	214.95
368.09	215.01
368.47	214.93
368.85	214.93
369.23	214.88
369.61	214.71
369.99	214.80
370.37	214.80
370.75	214.97
371.13	214.85
371.51	214.83
371.89	214.86
372.27	214.89
372.65	214.86
373.03	214.90
373.41	214.86
373.78	214.77
374.16	214.55
374.54	214.47
374.92	214.39
375.30	214.39
375.68	214.27
376.06	214.22
376.44	214.25
376.82	214.21
377.19	214.12
377.57	214.10
377.95	213.93
378.33	213.88
378.71	213.65
379.09	213.65
379.47	213.65
379.84	213.55
380.22	213.49
380.60	213.38
380.98	213.32
381.36	213.22
381.73	213.10
382.11	213.14
382.49	213.01
382.87	212.94
383.25	212.89
383.62	213.22
384.00	213.10
384.38	213.06
384.76	213.10
385.13	213.26
385.51	213.27
385.89	213.20
386.27	213.15
386.64	213.16
387.02	213.11
387.40	213.02
387.78	213.01
388.15	213.00
388.53	213.00
388.91	213.03
389.29	213.06
389.66	213.17
390.04	213.13
390.42	213.27
390.79	213.24
391.17	213.20
391.55	212.85
391.92	212.83
392.30	212.89
392.68	212.82
393.05	212.75
393.43	212.74
393.81	212.75
394.18	212.70
394.56	212.64
394.94	212.68
395.31	212.70
395.69	212.80
396.06	212.72
396.44	212.73
396.82	212.65
397.19	212.84
397.57	212.77
397.95	212.83
398.32	212.70
398.70	212.74
399.07	212.85
399.45	212.77
399.82	212.81
400.20	212.81
400.58	212.89
400.95	212.80
401.33	212.85
401.70	213.12
402.08	213.23
402.45	213.29
402.83	213.49
403.20	213.53
403.58	213.54
403.95	213.77
404.33	213.95
404.71	214.10
405.08	214.33
405.46	214.55
405.83	214.70
406.21	214.84
406.58	215.05
406.96	215.25
407.33	215.52
407.70	215.79
408.08	216.24
408.45	216.50
408.83	216.81
409.20	217.08
409.58	217.25
409.95	217.71
410.33	218.10
410.70	218.32
411.08	218.86
411.45	219.32
411.82	219.70
412.20	220.26
412.57	220.88
412.95	221.15
413.32	221.71
413.69	222.24
414.07	222.96
414.44	223.64
414.82	224.37
415.19	225.26
415.56	226.14
415.94	226.88
416.31	227.97
416.68	229.10
417.06	230.33
417.43	231.57
417.81	232.87
418.18	234.25
418.55	235.70
418.93	237.21
419.30	238.80
419.67	240.43
420.04	242.07
420.42	243.88
420.79	246.14
421.16	248.19
421.54	250.53
421.91	252.74
422.28	255.04
422.66	257.50
423.03	260.15
423.40	262.55
423.77	265.16
424.15	267.74
424.52	270.45
424.89	273.46
425.26	276.36
425.64	279.09
426.01	282.12
426.38	285.25
426.75	288.43
427.13	291.73
427.50	295.29
427.87	298.88
428.24	302.62
428.61	306.02
428.99	309.94
429.36	314.13
429.73	318.27
430.10	322.43
430.47	326.64
430.85	330.73
431.22	335.38
431.59	340.33
431.96	344.98
432.33	350.08
432.70	355.07
433.08	360.82
433.45	366.24
433.82	371.71
434.19	377.91
434.56	383.90
434.93	389.55
435.30	395.16
435.68	401.45
436.05	407.52
436.42	413.62
436.79	419.24
437.16	425.13
437.53	431.38
437.90	437.57
438.27	443.75
438.64	450.14
439.01	456.09
439.38	461.21
439.75	466.37
440.13	472.19
440.50	477.67
440.87	482.04
441.24	486.72
441.61	491.89
441.98	495.55
442.35	499.85
442.72	504.25
443.09	508.54
443.46	511.10
443.83	512.89
444.20	514.42
444.57	516.49
444.94	517.40
445.31	518.50
445.68	519.76
446.05	520.01
446.42	519.32
446.79	518.47
447.16	517.66
447.53	516.95
447.90	514.42
448.27	511.86
448.64	508.64
449.01	506.06
449.37	501.59
449.74	497.36
450.11	492.68
450.48	487.37
450.85	481.81
451.22	477.04
451.59	472.53
451.96	468.12
452.33	462.47
452.70	457.33
453.07	451.16
453.43	444.78
453.80	438.85
454.17	433.14
454.54	427.67
454.91	421.92
455.28	416.43
455.65	411.23
456.02	406.50
456.38	402.00
456.75	396.57
457.12	392.02
457.49	387.59
457.86	382.90
458.23	379.16
458.59	375.11
458.96	371.00
459.33	367.25
459.70	363.57
460.07	360.62
460.43	357.28
460.80	354.15
461.17	351.42
461.54	348.55
461.91	345.85
462.27	343.22
462.64	340.79
463.01	338.02
463.38	335.67
463.74	332.73
464.11	330.46
464.48	328.59
464.85	326.58
465.21	324.99
465.58	323.33
465.95	321.30
466.32	319.63
466.68	317.97
467.05	316.23
467.42	314.60
467.78	312.88
468.15	311.30
468.52	310.14
468.88	308.46
469.25	307.10
469.62	306.04
469.98	304.83
470.35	303.81
470.72	302.87
471.08	301.73
471.45	300.85
471.82	300.03
472.18	299.04
472.55	298.36
472.92	297.53
473.28	296.93
473.65	296.24
474.02	295.67
474.38	295.29
474.75	295.06
475.11	294.78
475.48	294.56
475.85	294.35
476.21	294.18
476.58	294.20
476.94	294.26
477.31	294.17
477.67	294.15
478.04	294.33
478.41	294.68
478.77	295.20
479.14	295.37
479.50	295.78
479.87	296.31
480.23	296.81
480.60	297.30
480.96	297.79
481.33	298.61
481.69	299.35
482.06	300.05
482.42	300.79
482.79	301.63
483.15	302.68
483.52	303.88
483.88	305.01
484.25	306.17
484.61	307.45
484.98	308.84
485.34	310.46
485.71	312.03
486.07	313.65
486.44	315.18
486.80	317.16
487.17	319.14
487.53	321.38
487.90	323.74
488.26	326.36
488.62	328.97
488.99	331.56
489.35	334.43
489.72	337.57
490.08	340.84
490.44	344.11
490.81	347.72
491.17	351.33
491.54	355.20
491.90	359.28
492.26	363.51
492.63	368.04
492.99	372.59
493.36	377.49
493.72	382.79
494.08	388.15
494.45	393.94
494.81	400.01
495.17	406.08
495.54	412.62
495.90	419.24
496.26	426.32
496.63	433.68
496.99	441.40
497.35	449.27
497.72	457.47
498.08	466.06
498.44	474.90
498.80	484.49
499.17	494.33
499.53	504.30
499.89	514.69
500.26	525.39
500.62	536.35
500.98	547.99
501.34	559.72
501.71	572.09
502.07	584.54
502.43	597.31
502.79	610.62
503.16	624.45
503.52	638.65
503.88	653.15
504.24	668.16
504.60	683.33
504.97	699.28
505.33	715.48
505.69	732.68
506.05	750.00
506.41	767.39
506.78	785.13
507.14	803.52
507.50	822.36
507.86	841.54
508.22	861.52
508.59	881.41
508.95	902.03
509.31	922.92
509.67	944.45
510.03	966.27
510.39	988.68
510.75	1011.29
511.12	1034.42
511.48	1057.77
511.84	1081.65
512.20	1105.63
512.56	1130.02
512.92	1154.90
513.28	1179.80
513.64	1204.79
514.00	1230.09
514.37	1255.83
514.73	1282.01
515.09	1308.09
515.45	1334.22
515.81	1360.52
516.17	1387.18
516.53	1413.76
516.89	1440.81
517.25	1467.68
517.61	1494.76
517.97	1521.76
518.33	1548.49
518.69	1575.15
519.05	1602.55
519.41	1629.96
519.77	1657.89
520.13	1685.07
520.49	1712.05
520.85	1739.10
521.21	1766.84
521.57	1794.69
521.93	1821.40
522.29	1849.26
522.65	1876.98
523.01	1904.53
523.37	1931.32
523.73	1958.29
524.09	1985.05
524.45	2011.90
524.81	2038.81
525.17	2066.10
525.53	2092.94
525.89	2119.62
526.25	2146.38
526.61	2171.76
526.97	2197.08
527.33	2222.38
527.68	2247.95
528.04	2272.71
528.40	2296.70
528.76	2321.30
529.12	2346.18
529.48	2371.70
529.84	2395.67
530.20	2419.36
530.56	2443.64
530.91	2468.30
531.27	2492.21
531.63	2515.74
531.99	2538.78
532.35	2560.85
532.71	2582.34
533.07	2605.03
533.42	2627.11
533.78	2648.93
534.14	2670.32
534.50	2690.09
534.86	2710.73
535.21	2729.92
535.57	2751.01
535.93	2770.56
536.29	2788.80
536.65	2807.37
537.00	2824.93
537.36	2841.83
537.72	2858.53
538.08	2874.59
538.44	2890.99
538.79	2907.25
539.15	2923.39
539.51	2938.94
539.87	2955.60
540.22	2970.86
540.58	2985.93
540.94	3000.19
541.29	3013.24
541.65	3026.22
542.01	3040.15
542.37	3052.75
542.72	3066.09
543.08	3077.19
543.44	3090.33
543.79	3101.53
544.15	3111.33
544.51	3122.16
544.87	3133.36
545.22	3143.12
545.58	3152.41
545.94	3159.82
546.29	3167.12
546.65	3173.52
547.01	3180.07
547.36	3185.93
547.72	3191.98
548.07	3196.27
548.43	3200.83
548.79	3205.48
549.14	3210.00
549.50	3214.29
549.86	3217.30
550.21	3220.02
550.57	3223.40
550.92	3224.55
551.28	3226.43
551.64	3228.80
551.99	3230.60
552.35	3231.66
552.70	3233.24
553.06	3234.87
553.41	3236.11
553.77	3236.54
554.13	3237.37
554.48	3238.08
554.84	3238.71
555.19	3238.22
555.55	3237.30
555.90	3235.78
556.26	3234.19
556.61	3232.67
556.97	3230.00
557.32	3228.49
557.68	3225.54
558.03	3222.52
558.39	3220.30
558.74	3219.24
559.10	3217.07
559.45	3214.16
559.81	3211.28
560.16	3207.45
560.52	3203.65
560.87	3200.06
561.23	3195.70
561.58	3192.00
561.94	3186.96
562.29	3181.03
562.64	3176.84
563.00	3172.82
563.35	3169.60
563.71	3166.59
564.06	3162.71
564.42	3159.42
564.77	3155.49
565.12	3152.29
565.48	3147.97
565.83	3143.50
566.19	3138.98
566.54	3132.84
566.89	3127.21
567.25	3121.79
567.60	3117.05
567.96	3110.95
568.31	3105.76
568.66	3100.16
569.02	3093.85
569.37	3086.94
569.72	3081.18
570.08	3074.37
570.43	3067.18
570.78	3059.45
571.14	3051.02
571.49	3042.56
571.84	3035.05
572.20	3026.05
572.55	3017.78
572.90	3008.86
573.26	2999.65
573.61	2989.63
573.96	2980.97
574.31	2970.82
574.67	2960.37
575.02	2949.34
575.37	2939.25
575.72	2928.28
576.08	2919.04
576.43	2908.26
576.78	2898.88
577.13	2889.44
577.49	2879.56
577.84	2869.32
578.19	2859.84
578.54	2851.02
578.90	2842.39
579.25	2831.92
579.60	2821.23
579.95	2810.14
580.30	2800.83
580.66	2791.62
581.01	2780.93
581.36	2770.13
581.71	2760.43
582.06	2750.27
582.42	2740.65
582.77	2730.10
583.12	2719.52
583.47	2709.30
583.82	2700.19
584.17	2689.90
584.53	2679.47
584.88	2669.39
585.23	2659.30
585.58	2648.80
585.93	2637.92
586.28	2627.67
586.63	2617.41
586.98	2608.09
587.34	2599.12
587.69	2588.78
588.04	2578.12
588.39	2568.86
588.74	2558.39
589.09	2548.96
589.44	2539.03
589.79	2529.59
590.14	2520.41
590.49	2511.05
590.84	2500.92
591.19	2491.76
591.54	2482.11
591.89	2470.73
592.25	2460.03
592.60	2449.50
592.95	2438.82
593.30	2427.39
593.65	2416.35
594.00	2405.77
594.35	2396.92
594.70	2386.44
595.05	2376.83
595.40	2367.20
595.75	2356.50
596.10	2347.38
596.45	2337.51
596.80	2328.36
597.15	2319.27
597.50	2309.29
597.85	2299.92
598.19	2290.04
598.54	2280.11
598.89	2271.12
599.24	2263.51
599.59	2254.60
599.94	2246.83
600.29	2238.43
600.64	2230.36
600.99	2221.28
601.34	2212.88
601.69	2202.45
602.04	2193.00
602.39	2183.49
602.74	2174.51
603.08	2166.78
603.43	2158.86
603.78	2149.82
604.13	2140.98
604.48	2131.89
604.83	2124.43
605.18	2117.08
605.53	2108.91
605.87	2099.80
606.22	2091.18
606.57	2082.10
606.92	2073.76
607.27	2064.16
607.62	2054.95
607.96	2046.55
608.31	2038.54
608.66	2029.29
609.01	2020.42
609.36	2011.43
609.70	2001.86
610.05	1992.35
610.40	1982.76
610.75	1972.77
611.10	1964.03
611.44	1953.49
611.79	1943.27
612.14	1932.52
612.49	1921.36
612.83	1911.21
613.18	1900.53
613.53	1889.92
613.88	1878.99
614.22	1868.72
614.57	1858.46
614.92	1848.29
615.27	1837.73
615.61	1826.99
615.96	1817.22
616.31	1808.05
616.65	1798.86
617.00	1789.56
617.35	1779.72
617.70	1769.42
618.04	1758.65
618.39	1747.78
618.74	1738.08
619.08	1728.04
619.43	1718.24
619.78	1708.62
620.12	1698.92
620.47	1689.76
620.82	1679.60
621.16	1669.57
621.51	1659.44
621.85	1650.12
622.20	1640.10
622.55	1630.22
622.89	1620.16
623.24	1610.09
623.59	1599.28
623.93	1589.15
624.28	1579.48
624.62	1570.16
624.97	1560.91
625.32	1552.12
625.66	1543.18
626.01	1534.25
626.35	1525.44
626.70	1516.29
627.04	1507.41
627.39	1498.48
627.73	1489.42
628.08	1481.16
628.43	1472.40
628.77	1463.57
629.12	1454.21
629.46	1446.36
629.81	1437.74
630.15	1429.50
630.50	1420.79
630.84	1412.20
631.19	1403.72
631.53	1395.05
631.88	1385.70
632.22	1376.31
632.57	1367.81
632.91	1359.21
633.26	1350.86
633.60	1342.33
633.95	1334.30
634.29	1325.46
634.64	1317.50
634.98	1309.21
635.32	1300.94
635.67	1293.53
636.01	1285.63
636.36	1277.46
636.70	1269.29
637.05	1261.35
637.39	1253.52
637.73	1246.32
638.08	1239.37
638.42	1232.01
638.77	1224.69
639.11	1217.55
639.45	1210.12
639.80	1202.16
640.14	1193.91
640.49	1185.82
640.83	1178.04
641.17	1170.29
641.52	1162.69
641.86	1154.38
642.20	1146.85
642.55	1138.90
642.89	1130.69
643.23	1122.78
643.58	1115.78
643.92	1107.45
644.26	1099.85
644.61	1092.16
644.95	1084.27
645.29	1076.30
645.64	1068.22
645.98	1060.57
646.32	1053.22
646.66	1045.71
647.01	1038.29
647.35	1031.52
647.69	1023.94
648.04	1016.62
648.38	1008.90
648.72	1001.63
649.06	994.41
649.41	986.92
649.75	979.69
650.09	972.73
650.43	965.55
650.78	957.73
651.12	950.56
651.46	943.50
651.80	936.52
652.14	929.47
652.49	922.56
652.83	915.57
653.17	907.92
653.51	900.70
653.85	894.10
654.20	887.28
654.54	880.07
654.88	873.40
655.22	866.62
655.56	859.78
655.90	852.88
656.25	846.20
656.59	839.62
656.93	833.08
657.27	826.66
657.61	820.00
657.95	813.89
658.29	807.83
658.64	801.58
658.98	795.01
659.32	788.43
659.66	782.07
660.00	775.85
660.34	769.83
660.68	763.47
661.02	757.19
661.36	751.35
661.70	745.64
662.05	740.11
662.39	734.58
662.73	729.40
663.07	724.24
663.41	718.79
663.75	713.27
664.09	707.83
664.43	702.08
664.77	696.84
665.11	691.42
665.45	686.32
665.79	681.12
666.13	676.23
666.47	671.29
666.81	666.21
667.15	661.25
667.49	656.77
667.83	652.37
668.17	647.70
668.51	643.29
668.85	638.74
669.19	634.24
669.53	629.62
669.87	624.89
670.21	620.36
670.55	616.04
670.89	612.05
671.23	608.10
671.57	604.05
671.91	599.84
672.25	595.69
672.58	591.39
672.92	587.30
673.26	583.46
673.60	579.61
673.94	575.68
674.28	571.73
674.62	567.88
674.96	564.07
675.30	560.48
675.64	556.58
675.97	552.93
676.31	549.39
676.65	545.78
676.99	542.55
677.33	539.06
677.67	535.62
678.01	531.69
678.34	528.03
678.68	524.59
679.02	521.18
679.36	517.95
679.70	514.74
680.04	511.37
680.37	507.77
680.71	504.58
681.05	501.61
681.39	498.65
681.73	495.36
682.06	492.35
682.40	489.29
682.74	486.27
683.08	483.29
683.42	480.01
683.75	477.00
684.09	473.75
684.43	470.62
684.77	467.47
685.10	464.73
685.44	461.70
685.78	458.79
686.12	456.14
686.45	453.30
686.79	450.61
687.13	447.95
687.46	445.45
687.80	442.80
688.14	439.94
688.48	437.31
688.81	434.70
689.15	431.97
689.49	429.41
689.82	426.71
690.16	423.80
690.50	421.15
690.83	418.57
691.17	415.94
691.51	413.43
691.84	411.02
692.18	408.71
692.52	406.56
692.85	404.31
693.19	402.10
693.52	399.81
693.86	397.39
694.20	395.23
694.53	392.99
694.87	390.63
695.21	388.51
695.54	386.15
695.88	383.86
696.21	381.72
696.55	379.61
696.88	377.58
697.22	375.58
697.56	373.87
697.89	371.80
698.23	369.96
698.56	367.98
698.90	366.22
699.23	364.03
699.57	362.06
699.90	360.13
700.24	358.14
700.58	356.28
700.91	354.51
701.25	352.82
701.58	351.08
701.92	349.39
702.25	347.58
702.59	346.03
702.92	344.44
703.26	342.73
703.59	341.11
703.93	339.76
704.26	338.25
704.60	336.67
704.93	335.20
705.26	333.60
705.60	332.25
705.93	330.66
706.27	329.47
706.60	328.10
706.94	326.84
707.27	325.36
707.61	323.98
707.94	322.47
708.27	320.83
708.61	319.44
708.94	318.18
709.28	316.98
709.61	315.64
709.94	314.44
710.28	313.21
710.61	311.88
710.95	310.32
711.28	309.36
711.61	308.04
711.95	307.00
712.28	305.80
712.61	304.63
712.95	303.77
713.28	302.65
713.61	301.52
713.95	300.37
714.28	299.44
714.61	298.28
714.95	297.29
715.28	296.25
715.61	295.11
715.95	294.04
716.28	293.02
716.61	292.01
716.95	290.92
717.28	289.95
717.61	289.05
717.94	288.20
718.28	287.10
718.61	286.23
718.94	285.24
719.27	284.44
719.61	283.59
719.94	282.53
720.27	281.60
720.60	280.73
720.94	279.95
721.27	279.07
721.60	278.43
721.93	277.61
722.27	277.05
722.60	276.48
722.93	275.68
723.26	274.90
723.59	274.15
723.93	273.58
724.26	272.90
724.59	272.24
724.92	271.53
725.25	270.93
725.59	270.26
725.92	269.70
726.25	268.99
726.58	268.33
726.91	267.68
727.24	267.06
727.57	266.39
727.91	265.67
728.24	265.15
728.57	264.52
728.90	264.14
729.23	263.43
729.56	263.04
729.89	262.54
730.22	262.05
730.55	261.56
730.89	260.97
731.22	260.39
731.55	259.89
731.88	259.39
732.21	258.79
732.54	258.21
732.87	257.59
733.20	257.11
733.53	256.62
733.86	256.17
734.19	255.67
734.52	255.30
734.85	255.09
735.18	254.56
735.51	254.17
735.84	253.56
736.17	253.15
736.50	252.53
736.83	252.49
737.16	252.03
737.49	251.52
737.82	250.99
738.15	250.59
738.48	250.10
738.81	249.67
739.14	249.22
739.47	248.79
739.80	248.39
740.13	248.05
740.46	247.59
740.79	247.10
741.12	246.67
741.45	246.23
741.78	245.58
742.11	245.26
742.44	244.82
742.77	244.56
743.10	244.15
743.43	243.69
743.75	242.88
744.08	242.90
744.41	242.59
744.74	242.30
745.07	241.92
745.40	241.63
745.73	241.41
746.06	241.02
746.39	240.80
746.71	240.50
747.04	240.08
747.37	239.76
747.70	239.49
748.03	239.25
748.36	238.91
748.68	238.71
749.01	238.30
749.34	238.02
749.67	237.75
750.00	237.48
750.33	237.41
750.65	237.16
750.98	236.47
751.31	236.13
751.64	235.81
751.97	235.76
752.29	235.44
752.62	235.04
752.95	234.75
753.28	234.45
753.60	234.16
753.93	234.05
754.26	233.80
754.59	233.45
754.91	233.12
755.24	232.90
755.57	232.57
755.90	232.39
756.22	232.07
756.55	231.71
756.88	231.37
757.20	230.91
757.53	230.58
757.86	230.35
758.19	230.18
758.51	229.91
758.84	229.43
759.17	229.16
759.49	228.98
759.82	228.94
760.15	228.64
760.47	228.33
760.80	227.98
761.13	227.82
761.45	227.61
761.78	227.46
762.11	227.24
762.43	227.04
762.76	226.76
763.08	226.60
763.41	226.45
763.74	226.32
764.06	226.10
764.39	225.96
764.71	225.72
765.04	225.49
765.37	225.34
765.69	225.27
766.02	225.09
766.34	224.86
766.67	224.59
767.00	224.50
767.32	224.62
767.65	224.60
767.97	224.42
768.30	224.33
768.62	224.16
768.95	223.99
769.27	223.79
769.60	223.70
769.92	223.51
770.25	223.33
770.57	223.18
770.90	223.12
771.22	222.95
771.55	222.87
771.87	222.77
772.20	222.63
772.52	222.83
772.85	223.10
773.17	223.00
773.50	222.85
773.82	222.70
774.15	222.43
774.47	222.12
774.80	221.96
775.12	221.85
775.45	221.73
775.77	221.60
776.09	221.64
776.42	221.51
776.74	221.48
777.07	221.39
777.39	221.35
777.72	221.25
778.04	221.20
778.36	221.05
778.69	221.00
779.01	220.99
779.33	220.55
779.66	220.12
779.98	220.06
780.31	219.99
780.63	220.09
780.95	220.04
781.28	220.02
781.60	219.93
781.92	219.84
782.25	219.72
782.57	219.68
782.89	219.45
783.22	219.40
783.54	219.21
783.86	219.13
784.19	219.01
784.51	218.98
784.83	218.84
785.16	218.73
785.48	218.68
785.80	218.62
786.12	218.54
786.45	218.49
786.77	218.38
787.09	218.29
787.42	218.05
787.74	218.02
788.06	217.95
788.38	217.87
788.71	217.74
789.03	217.70
789.35	217.69
789.67	217.60
789.99	217.55
790.32	217.54
790.64	217.51
790.96	217.70
791.28	217.51
791.61	217.46
791.93	217.51
792.25	217.38
792.57	217.47
792.89	217.35
793.21	217.30
793.54	217.18
793.86	217.08
794.18	216.99
794.50	216.90
794.82	216.85
795.14	216.81
795.47	216.89
795.79	216.85
796.11	216.71
796.43	216.69
796.75	216.58
797.07	216.50
797.39	216.43
797.71	216.15
798.04	216.12
798.36	216.12
798.68	216.02
799.00	216.01
799.32	215.77
799.64	215.84
799.96	215.78
800.28	215.90
800.60	215.88
800.92	215.88
801.24	215.78
801.56	215.80
801.89	215.70
802.21	215.70
802.53	215.62
802.85	215.64
803.17	215.76
803.49	215.71
803.81	215.64
804.13	215.58
804.45	215.51
804.77	215.54
805.09	215.52
805.41	215.41
805.73	215.25
806.05	215.20
806.37	215.12
806.69	215.04
807.01	214.87
807.33	214.82
807.65	214.69
807.97	214.87
808.28	214.74
808.60	214.71
808.92	214.57
809.24	214.67
809.56	214.60
809.88	214.48
810.20	214.46
810.52	214.52
810.84	214.48
811.16	214.41
811.48	214.35
811.80	214.40
812.12	214.39
812.43	214.47
812.75	214.51
813.07	214.44
813.39	214.53
813.71	214.53
814.03	214.48
814.35	214.45
814.67	214.25
814.98	214.16
815.30	214.10
815.62	214.04
815.94	213.89
816.26	213.91
816.58	213.74
816.89	213.74
817.21	213.65
817.53	213.62
817.85	213.62
818.17	213.60
818.48	213.46
818.80	213.46
819.12	213.39
819.44	213.25
819.76	213.23
820.07	213.14
820.39	213.15
820.71	213.22
821.03	213.25
821.34	213.21
821.66	213.29
821.98	213.32
822.30	213.34
822.61	213.49
822.93	213.40
823.25	213.46
823.57	213.35
823.88	213.47
824.20	213.44
824.52	213.50
824.83	213.44
825.15	213.38
825.47	213.37
825.79	213.40
826.10	213.38
826.42	213.41
826.74	213.43
827.05	213.36
827.37	213.31
827.69	213.33
828.00	213.38
828.32	213.40
828.64	213.39
828.95	213.53
829.27	213.40
829.58	213.37
829.90	213.44
830.22	213.52
830.53	213.42
830.85	213.42
831.17	213.30
831.48	213.28
831.80	213.28
832.11	213.24
832.43	213.16
832.75	213.16
833.06	213.28
833.38	213.17
833.69	213.20
834.01	213.16
834.32	213.09
834.64	213.00
834.96	212.95
835.27	212.94
835.59	212.84
835.90	212.82
836.22	212.89
836.53	212.80
836.85	212.66
837.16	212.93
837.48	212.94
837.79	213.08
838.11	213.14
838.42	213.15
838.74	213.29
839.05	213.23
839.37	213.25
839.68	212.99
840.00	212.98
840.31	212.99
840.63	213.00
840.94	212.97
841.26	212.95
841.57	212.90
841.88	212.92
842.20	212.79
842.51	212.72
842.83	212.70
843.14	212.97
843.46	213.02
843.77	212.91
844.08	212.87
844.40	212.70
844.71	212.66
845.03	212.64
845.34	212.58
845.65	212.63
845.97	212.62
846.28	212.67
846.60	212.70
846.91	212.64
847.22	212.59
847.54	212.69
847.85	212.66
848.16	212.73
848.48	212.65
848.79	212.85
849.10	212.93
849.42	212.90
849.73	212.64
850.04	212.68
850.36	212.53
850.67	212.60
850.98	212.63
851.30	212.67
851.61	212.67
851.92	212.65
852.23	212.78
852.55	212.78
852.86	212.87
853.17	212.90
853.49	213.00
853.80	213.11
854.11	213.06
854.42	213.19
854.74	213.11
855.05	213.18
855.36	212.99
855.67	212.93
855.99	212.99
856.30	213.36
856.61	213.33
856.92	213.32
857.23	213.32
857.55	213.32
857.86	213.22
858.17	213.26
858.48	213.16
858.79	213.08
859.11	213.13
859.42	213.06
859.73	213.03
860.04	212.96
860.35	212.84
860.66	212.73
860.98	212.69
861.29	212.75
861.60	212.70
861.91	212.76
862.22	212.70
862.53	212.61
862.84	212.20
863.16	212.32
863.47	212.21
863.78	212.25
864.09	212.28
864.40	212.39
864.71	212.35
865.02	212.38
865.33	212.32
865.64	212.26
865.95	212.24
866.27	212.38
866.58	212.37
866.89	212.42
867.20	212.42
867.51	212.33
867.82	212.23
868.13	212.34
868.44	212.31
868.75	212.38
869.06	212.37
869.37	212.42
869.68	212.23
869.99	212.36
870.30	212.28
870.61	212.26
870.92	212.15
871.23	212.14
871.54	212.15
871.85	212.28
872.16	212.30
872.47	212.24
872.78	212.08
873.09	212.05
873.40	212.01
873.71	212.02
874.02	212.07
874.33	212.05
874.64	211.94
874.95	211.99
875.26	211.91
875.56	211.90
875.87	211.89
876.18	211.92
876.49	212.23
876.80	212.15
877.11	212.11
877.42	212.15
877.73	212.16
878.04	212.14
878.35	212.10
878.66	212.05
878.96	212.00
879.27	211.97
879.58	211.96
879.89	211.92
880.20	212.04
880.51	211.92
880.82	211.94
881.12	211.98
881.43	211.92
881.74	211.88
882.05	211.88
882.36	211.85
882.67	211.85
882.97	211.44
883.28	211.45
883.59	211.44
883.90	211.43
884.21	211.51
884.51	211.48
884.82	211.42
885.13	211.46
885.44	211.57
885.74	211.63
886.05	211.63
886.36	211.66
886.67	211.63
886.98	211.84
887.28	211.87
887.59	211.84
887.90	211.85
888.20	211.85
888.51	211.90
888.82	211.89
889.13	211.89
889.43	212.09
889.74	212.05
890.05	212.01
890.35	211.96
890.66	211.82
890.97	211.85
891.28	211.85
891.58	211.83
891.89	211.79
892.20	211.72
892.50	211.76
892.81	211.73
893.12	211.63
893.42	211.52
893.73	211.52
894.04	211.49
894.34	211.44
894.65	211.40
894.95	211.31
895.26	211.29
895.57	211.47
895.87	211.26
896.18	211.38
896.48	211.45
896.79	211.47
897.10	211.56
897.40	211.52
897.71	211.52
898.01	211.56
898.32	211.62
898.63	211.65
898.93	211.63
899.24	211.66
899.54	211.70
899.85	211.68
900.15	211.68
900.46	211.71
900.76	211.80
901.07	211.89
901.38	211.98
901.68	212.05
901.99	211.91
902.29	211.93
902.60	211.87
902.90	211.83
903.21	211.88
903.51	211.93
903.82	212.00
904.12	211.93
904.43	211.85
904.73	211.83
905.03	211.84
905.34	212.13
905.64	212.09
905.95	212.11
906.25	212.14
906.56	212.14
906.86	212.13
907.17	212.05
907.47	212.13
907.77	212.08
908.08	212.02
908.38	212.12
908.69	212.11
908.99	212.16
909.30	212.20
909.60	212.26
909.90	212.22
910.21	212.19
910.51	212.22
910.81	212.23
911.12	212.23
911.42	212.22
911.73	211.87
912.03	211.92
912.33	211.97
912.64	211.95
912.94	211.93
913.24	211.91
913.55	211.90
913.85	211.79
914.15	211.87
914.46	211.96
914.76	211.83
915.06	211.86
915.37	211.82
915.67	211.88
915.97	211.81
916.27	211.74
916.58	211.74
916.88	211.70
917.18	211.76
917.49	211.97
917.79	211.95
918.09	212.06
918.39	212.14
918.70	212.03
919.00	212.06
919.30	212.22
919.60	212.23
919.91	212.26
920.21	212.29
920.51	212.20
920.81	212.15
921.12	212.20
921.42	212.18
921.72	212.23
922.02	212.08
922.32	212.09
922.63	212.03
922.93	212.18
923.23	212.20
923.53	212.14
923.83	211.94
924.13	211.94
924.44	211.90
924.74	211.98
925.04	212.13
925.34	212.09
925.64	211.97
925.94	211.91
926.24	212.06
926.55	211.97
926.85	212.03
927.15	212.04
927.45	212.04
927.75	212.04
928.05	212.03
928.35	212.12
928.65	212.15
928.95	212.25
929.26	212.09
929.56	212.19
929.86	212.31
930.16	212.28
930.46	212.32
930.76	212.33
931.06	212.10
931.36	211.98
931.66	212.03
931.96	212.06
932.26	212.21
932.56	212.12
932.86	212.22
933.16	212.20
933.46	212.15
933.76	212.09
934.06	212.22
934.36	212.34
934.66	212.29
934.96	212.28
935.26	212.28
935.56	212.38
935.86	212.25
936.16	212.12
936.46	212.05
936.76	212.05
937.06	212.03
937.36	212.11
937.66	212.05
937.96	211.98
938.26	211.91
938.56	211.81
938.86	211.82
939.16	211.88
939.46	211.93
939.76	211.92
940.06	212.00
940.35	211.82
940.65	211.65
940.95	211.70
941.25	211.64
941.55	211.61
941.85	211.52
942.15	211.65
942.45	211.71
942.75	211.71
943.04	211.63
943.34	211.65
943.64	211.62
943.94	211.69
944.24	211.74
944.54	211.79
944.84	211.79
945.13	211.65
945.43	211.61
945.73	211.61
946.03	211.60
946.33	211.51
946.62	211.47
946.92	211.45
947.22	211.42
947.52	211.51
947.82	211.59
948.11	211.60
948.41	211.43
948.71	211.36
949.01	211.32
949.31	211.36
949.60	211.31
949.90	211.29
950.20	211.22
950.50	211.19
950.79	211.11
951.09	211.12
951.39	211.18
951.69	211.09
951.98	211.11
952.28	211.14
952.58	211.18
952.87	211.20
953.17	211.19
953.47	211.17
953.76	211.10
954.06	210.95
954.36	210.89
954.66	210.98
954.95	211.10
955.25	211.19
955.55	211.23
955.84	211.18
956.14	211.24
956.44	211.24
956.73	211.20
957.03	211.24
957.32	211.34
957.62	211.28
957.92	211.34
958.21	211.27
958.51	211.72
958.81	211.68
959.10	211.76
959.40	211.78
959.69	211.84
959.99	211.84
960.29	211.86
960.58	211.85
960.88	212.00
961.17	211.94
961.47	211.95
961.76	211.84
962.06	211.94
962.36	211.86
962.65	211.90
962.95	211.95
963.24	211.91
963.54	211.78
963.83	211.83
964.13	211.82
964.42	211.75
964.72	211.43
965.01	211.49
965.31	211.43
965.60	211.45
965.90	211.61
966.19	211.57
966.49	211.65
966.78	211.67
967.08	211.60
967.37	211.63
967.67	211.60
967.96	211.74
968.26	211.69
968.55	211.75
968.85	211.74
969.14	211.70
969.43	211.74
969.73	211.76
970.02	211.73
970.32	211.75
970.61	211.81
970.91	211.71
971.20	211.69
971.49	211.67
971.79	211.72
972.08	211.45
972.38	211.51
972.67	211.47
972.96	211.50
973.26	211.41
973.55	211.43
973.85	211.37
974.14	211.29
974.43	211.31
974.73	211.30
975.02	211.26
975.31	211.27
975.61	211.18
975.90	211.15
976.19	211.14
976.49	211.08
976.78	211.05
977.07	211.03
977.37	210.97
977.66	211.05
977.95	210.98
978.24	211.01
978.54	211.03
978.83	210.98
979.12	210.98
979.42	210.97
979.71	210.97
980.00	211.02
980.29	211.02
980.59	210.90
980.88	210.89
981.17	210.93
981.46	210.96
981.76	211.01
982.05	211.13
982.34	211.16
982.63	211.15
982.93	211.12
983.22	211.18
983.51	211.21
983.80	211.22
984.09	211.30
984.39	211.28
984.68	211.25
984.97	211.20
985.26	211.12
985.55	211.15
985.85	211.05
986.14	211.09
986.43	211.18
986.72	211.21
987.01	211.18
987.30	211.16
987.59	211.11
987.89	211.06
988.18	210.92
988.47	210.82
988.76	210.82
989.05	210.84
989.34	210.83
989.63	210.90
989.92	210.80
990.22	210.74
990.51	210.75
990.80	210.70
991.09	210.81
991.38	210.86
991.67	210.77
991.96	210.76
992.25	210.75
992.54	210.68
992.83	210.73
993.12	210.68
993.41	210.72
993.70	210.88
993.99	210.91
994.28	210.92
994.58	211.01
994.87	210.95
995.16	210.94
995.45	210.81
995.74	210.72
996.03	210.75
996.32	210.84
996.61	210.90
996.90	210.85
997.19	210.83
997.48	210.85
997.77	210.83
998.06	210.80
998.34	210.78
998.63	210.72
998.92	210.70
999.21	210.75
999.50	210.72
999.79	210.61
1000.08	210.64
1000.37	210.68
1000.66	210.67
1000.95	210.85
1001.24	210.88
1001.53	210.98
1001.82	210.97
1002.11	210.97
1002.40	210.96
1002.68	211.03
1002.97	211.38
1003.26	211.38
1003.55	211.34
1003.84	211.43
1004.13	211.58
1004.42	211.60
1004.71	211.60
1004.99	211.61
1005.28	211.74
1005.57	211.71
1005.86	211.74
1006.15	211.75
1006.44	211.65
1006.72	211.70
1007.01	211.64
1007.30	211.67
1007.59	211.65
1007.88	211.67
1008.17	211.69
1008.45	211.59
1008.74	211.39
1009.03	211.16
1009.32	211.11
1009.60	211.13
1009.89	211.08
1010.18	210.98
1010.47	210.94
1010.76	210.96
1011.04	210.96
1011.33	211.35
1011.62	211.42
1011.91	211.40
1012.19	211.48
1012.48	211.57
1012.77	211.55
1013.05	211.68
1013.34	211.67
1013.63	211.67
1013.92	211.75
1014.20	211.72
1014.49	211.77
1014.78	211.91
1015.06	211.85
1015.35	211.89
1015.64	211.89
1015.92	211.93
1016.21	212.01
1016.50	212.00
1016.78	212.02
1017.07	212.08
1017.36	211.61
1017.64	211.54
1017.93	211.59
1018.22	211.51
1018.50	211.50
1018.79	211.50
1019.08	211.32
1019.36	211.31
1019.65	211.26
1019.93	211.31
1020.22	211.31
1020.51	211.43
1020.79	211.38
1021.08	210.90
1021.36	210.95
1021.65	211.60
1021.94	210.70
1022.22	211.25
1022.51	210.25
1022.79	213.75
1023.08	210.55
1023.36	214.65
1023.65	210.85
>>>>>End Processed Spectral Data<<<<<
