SpectraSuite Data File
++++++++++++++++++++++++++++++++++++
Date: Mon Feb 25 17:02:06 EST 2013
User: group
Dark Spectrum Present: No
Reference Spectrum Present: No
Number of Sampled Component Spectra: 1
Spectrometers: USB2E7196
Integration Time (usec): 104000 (USB2E7196)
Spectra Averaged: 20 (USB2E7196)
Boxcar Smoothing: 10 (USB2E7196)
Correct for Electrical Dark: No (USB2E7196)
Strobe/Lamp Enabled: No (USB2E7196)
Correct for Detector Non-linearity: No (USB2E7196)
Correct for Stray Light: No (USB2E7196)
Number of Pixels in Processed Spectrum: 2048
>>>>>Begin Processed Spectral Data<<<<<
339.09	0.00
339.48	198.85
339.86	200.60
340.24	200.30
340.63	203.00
341.01	209.95
341.39	204.55
341.78	207.25
342.16	208.75
342.54	209.25
342.93	198.18
343.31	208.15
343.69	208.68
344.07	209.11
344.46	209.61
344.84	210.03
345.22	210.08
345.60	210.40
345.99	210.57
346.37	210.66
346.75	210.71
347.13	210.78
347.52	210.89
347.90	211.03
348.28	210.93
348.66	211.05
349.05	210.90
349.43	211.03
349.81	211.05
350.19	211.09
350.57	211.21
350.96	211.22
351.34	211.35
351.72	211.43
352.10	211.52
352.48	211.56
352.87	211.53
353.25	211.57
353.63	211.60
354.01	211.66
354.39	211.75
354.77	211.83
355.15	212.08
355.54	212.10
355.92	212.00
356.30	212.14
356.68	212.34
357.06	212.38
357.44	212.32
357.82	212.47
358.20	212.54
358.58	212.52
358.97	212.58
359.35	212.67
359.73	212.82
360.11	212.85
360.49	212.92
360.87	213.00
361.25	213.09
361.63	213.29
362.01	213.30
362.39	213.31
362.77	213.38
363.15	213.34
363.53	213.38
363.91	213.48
364.29	213.50
364.67	213.19
365.05	213.26
365.43	213.32
365.81	213.35
366.19	213.55
366.57	213.69
366.95	213.67
367.33	213.59
367.71	213.53
368.09	213.63
368.47	213.65
368.85	213.61
369.23	213.61
369.61	213.47
369.99	213.63
370.37	213.71
370.75	213.84
371.13	213.72
371.51	213.60
371.89	213.65
372.27	213.65
372.65	213.71
373.03	213.68
373.41	213.57
373.78	213.55
374.16	213.27
374.54	213.11
374.92	213.10
375.30	213.13
375.68	213.06
376.06	212.99
376.44	212.92
376.82	212.89
377.19	212.88
377.57	212.85
377.95	212.58
378.33	212.52
378.71	212.21
379.09	212.25
379.47	212.28
379.84	212.10
380.22	212.04
380.60	211.88
380.98	211.85
381.36	211.92
381.73	211.82
382.11	211.91
382.49	211.92
382.87	211.79
383.25	211.67
383.62	211.92
384.00	211.83
384.38	211.74
384.76	211.74
385.13	211.84
385.51	211.73
385.89	211.73
386.27	211.64
386.64	211.70
387.02	211.66
387.40	211.52
387.78	211.54
388.15	211.50
388.53	211.44
388.91	211.37
389.29	211.20
389.66	211.21
390.04	211.14
390.42	211.12
390.79	211.11
391.17	211.09
391.55	210.76
391.92	210.74
392.30	210.77
392.68	210.71
393.05	210.57
393.43	210.57
393.81	210.59
394.18	210.50
394.56	210.50
394.94	210.51
395.31	210.51
395.69	210.70
396.06	210.72
396.44	210.77
396.82	210.76
397.19	210.92
397.57	210.83
397.95	210.87
398.32	210.71
398.70	210.73
399.07	210.83
399.45	210.84
399.82	210.81
400.20	210.80
400.58	210.87
400.95	210.82
401.33	210.94
401.70	211.25
402.08	211.31
402.45	211.35
402.83	211.51
403.20	211.60
403.58	211.49
403.95	211.59
404.33	211.74
404.71	211.90
405.08	212.26
405.46	212.45
405.83	212.55
406.21	212.73
406.58	212.93
406.96	213.12
407.33	213.29
407.70	213.67
408.08	214.17
408.45	214.48
408.83	214.83
409.20	215.03
409.58	215.14
409.95	215.61
410.33	216.02
410.70	216.25
411.08	216.80
411.45	217.33
411.82	217.80
412.20	218.38
412.57	219.10
412.95	219.37
413.32	220.03
413.69	220.69
414.07	221.45
414.44	222.23
414.82	223.03
415.19	224.07
415.56	225.05
415.94	225.95
416.31	227.13
416.68	228.29
417.06	229.71
417.43	230.96
417.81	232.39
418.18	233.91
418.55	235.57
418.93	237.20
419.30	238.95
419.67	240.74
420.04	242.62
420.42	244.58
420.79	247.15
421.16	249.60
421.54	252.23
421.91	254.85
422.28	257.55
422.66	260.34
423.03	263.25
423.40	265.99
423.77	269.08
424.15	272.09
424.52	275.32
424.89	278.85
425.26	282.34
425.64	285.62
426.01	289.11
426.38	292.91
426.75	296.81
427.13	300.86
427.50	305.18
427.87	309.55
428.24	313.88
428.61	317.96
428.99	322.61
429.36	327.45
429.73	332.41
430.10	337.37
430.47	342.51
430.85	347.54
431.22	353.16
431.59	359.25
431.96	365.06
432.33	371.50
432.70	377.67
433.08	384.71
433.45	391.62
433.82	398.54
434.19	406.22
434.56	413.81
434.93	421.01
435.30	428.20
435.68	436.25
436.05	444.15
436.42	451.99
436.79	459.29
437.16	467.30
437.53	475.61
437.90	483.84
438.27	491.95
438.64	500.34
439.01	508.23
439.38	515.17
439.75	522.05
440.13	529.83
440.50	537.33
440.87	543.72
441.24	550.10
441.61	557.16
441.98	562.52
442.35	568.52
442.72	574.62
443.09	580.68
443.46	584.59
443.83	587.43
444.20	589.99
444.57	593.36
444.94	595.15
445.31	597.12
445.68	599.29
446.05	600.55
446.42	600.59
446.79	600.39
447.16	599.92
447.53	599.81
447.90	597.34
448.27	594.82
448.64	591.10
449.01	588.52
449.37	583.62
449.74	578.81
450.11	573.31
450.48	567.08
450.85	560.56
451.22	554.97
451.59	549.62
451.96	544.48
452.33	537.39
452.70	531.18
453.07	523.54
453.43	515.52
453.80	507.97
454.17	500.75
454.54	493.91
454.91	486.60
455.28	479.44
455.65	472.87
456.02	466.45
456.38	460.91
456.75	453.87
457.12	447.91
457.49	442.09
457.86	436.28
458.23	431.42
458.59	426.15
458.96	420.76
459.33	416.01
459.70	411.30
460.07	407.64
460.43	403.23
460.80	399.23
461.17	395.61
461.54	391.92
461.91	388.35
462.27	384.70
462.64	381.53
463.01	378.04
463.38	374.75
463.74	371.13
464.11	368.04
464.48	365.44
464.85	362.67
465.21	360.59
465.58	358.25
465.95	355.46
466.32	353.14
466.68	350.81
467.05	348.49
467.42	346.24
467.78	343.81
468.15	341.57
468.52	339.87
468.88	337.71
469.25	335.72
469.62	334.11
469.98	332.29
470.35	330.72
470.72	329.18
471.08	327.47
471.45	326.06
471.82	324.63
472.18	323.05
472.55	321.87
472.92	320.35
473.28	319.12
473.65	317.83
474.02	316.52
474.38	315.56
474.75	314.64
475.11	313.71
475.48	312.95
475.85	312.28
476.21	311.45
476.58	310.88
476.94	310.49
477.31	309.89
477.67	309.49
478.04	309.05
478.41	308.70
478.77	308.64
479.14	308.26
479.50	308.07
479.87	308.04
480.23	307.95
480.60	307.80
480.96	307.63
481.33	307.92
481.69	308.06
482.06	307.95
482.42	308.04
482.79	308.05
483.15	308.14
483.52	308.40
483.88	308.57
484.25	308.83
484.61	309.00
484.98	309.31
485.34	309.76
485.71	310.29
486.07	310.80
486.44	310.97
486.80	311.55
487.17	312.19
487.53	312.87
487.90	313.63
488.26	314.70
488.62	315.68
488.99	316.44
489.35	317.38
489.72	318.52
490.08	319.61
490.44	320.74
490.81	322.05
491.17	323.19
491.54	324.57
491.90	325.73
492.26	327.01
492.63	328.45
492.99	329.73
493.36	331.17
493.72	332.86
494.08	334.57
494.45	336.18
494.81	337.98
495.17	339.64
495.54	341.56
495.90	343.16
496.26	344.94
496.63	346.73
496.99	348.62
497.35	350.56
497.72	352.53
498.08	354.47
498.44	356.34
498.80	358.34
499.17	360.32
499.53	362.29
499.89	364.38
500.26	366.29
500.62	368.28
500.98	370.17
501.34	371.95
501.71	373.80
502.07	375.71
502.43	377.38
502.79	379.15
503.16	380.81
503.52	382.71
503.88	384.23
504.24	385.99
504.60	387.67
504.97	389.30
505.33	390.81
505.69	392.53
506.05	394.09
506.41	395.60
506.78	396.87
507.14	398.23
507.50	399.40
507.86	400.75
508.22	401.99
508.59	403.15
508.95	404.34
509.31	405.55
509.67	406.55
510.03	407.50
510.39	408.43
510.75	409.20
511.12	409.85
511.48	410.77
511.84	411.45
512.20	412.06
512.56	412.69
512.92	413.34
513.28	413.66
513.64	414.10
514.00	414.57
514.37	414.97
514.73	415.34
515.09	415.80
515.45	415.83
515.81	415.95
516.17	416.07
516.53	416.05
516.89	415.82
517.25	415.78
517.61	415.73
517.97	415.64
518.33	415.61
518.69	415.49
519.05	415.28
519.41	415.11
519.77	415.09
520.13	414.87
520.49	414.46
520.85	414.26
521.21	414.06
521.57	413.83
521.93	413.54
522.29	413.40
522.65	413.11
523.01	412.95
523.37	412.77
523.73	412.64
524.09	412.57
524.45	412.63
524.81	412.66
525.17	412.83
525.53	412.97
525.89	413.00
526.25	413.20
526.61	413.23
526.97	413.44
527.33	413.65
527.68	414.25
528.04	414.65
528.40	414.98
528.76	415.45
529.12	415.83
529.48	416.50
529.84	417.14
530.20	417.84
530.56	418.65
530.91	419.56
531.27	420.39
531.63	421.29
531.99	422.19
532.35	423.25
532.71	424.16
533.07	425.33
533.42	426.83
533.78	427.92
534.14	429.32
534.50	430.42
534.86	431.68
535.21	432.65
535.57	434.24
535.93	435.66
536.29	437.30
536.65	438.95
537.00	440.49
537.36	442.04
537.72	443.60
538.08	445.33
538.44	447.07
538.79	448.99
539.15	450.78
539.51	452.80
539.87	454.76
540.22	456.85
540.58	458.96
540.94	460.80
541.29	462.95
541.65	465.10
542.01	467.49
542.37	469.85
542.72	472.23
543.08	474.47
543.44	477.08
543.79	479.24
544.15	481.66
544.51	484.44
544.87	487.09
545.22	489.67
545.58	492.29
545.94	494.80
546.29	497.34
546.65	499.96
547.01	502.57
547.36	505.27
547.72	508.03
548.07	510.69
548.43	513.29
548.79	515.88
549.14	518.45
549.50	521.26
549.86	523.76
550.21	526.39
550.57	529.15
550.92	531.84
551.28	534.67
551.64	537.40
551.99	539.91
552.35	542.49
552.70	545.28
553.06	547.97
553.41	550.64
553.77	553.47
554.13	556.29
554.48	558.95
554.84	561.69
555.19	564.15
555.55	566.99
555.90	569.60
556.26	572.27
556.61	574.87
556.97	577.14
557.32	579.71
557.68	582.24
558.03	584.58
558.39	586.87
558.74	589.24
559.10	591.55
559.45	594.09
559.81	596.64
560.16	599.01
560.52	601.40
560.87	603.84
561.23	605.97
561.58	608.35
561.94	610.53
562.29	612.48
562.64	614.83
563.00	616.73
563.35	618.90
563.71	621.21
564.06	623.55
564.42	626.00
564.77	628.34
565.12	630.58
565.48	633.03
565.83	635.16
566.19	637.32
566.54	639.29
566.89	641.04
567.25	643.05
567.60	645.07
567.96	647.02
568.31	648.94
568.66	650.84
569.02	652.14
569.37	653.53
569.72	655.33
570.08	656.78
570.43	658.28
570.78	659.64
571.14	660.78
571.49	661.85
571.84	662.87
572.20	663.78
572.55	664.72
572.90	665.24
573.26	665.88
573.61	666.47
573.96	667.32
574.31	667.92
574.67	668.35
575.02	668.56
575.37	668.71
575.72	668.80
576.08	669.05
576.43	669.38
576.78	669.73
577.13	669.95
577.49	670.10
577.84	670.23
578.19	670.53
578.54	670.96
578.90	671.33
579.25	671.50
579.60	671.37
579.95	671.33
580.30	671.53
580.66	671.79
581.01	671.74
581.36	671.75
581.71	671.88
582.06	671.82
582.42	671.89
582.77	671.78
583.12	671.82
583.47	671.78
583.82	671.71
584.17	671.73
584.53	671.55
584.88	671.29
585.23	671.21
585.58	670.81
585.93	670.42
586.28	670.07
586.63	669.79
586.98	669.80
587.34	669.66
587.69	669.32
588.04	668.90
588.39	668.72
588.74	668.04
589.09	667.55
589.44	666.88
589.79	666.52
590.14	666.09
590.49	665.60
590.84	664.86
591.19	664.56
591.54	663.91
591.89	663.07
592.25	662.71
592.60	661.48
592.95	660.67
593.30	659.59
593.65	658.52
594.00	657.29
594.35	657.11
594.70	656.06
595.05	654.98
595.40	653.90
595.75	652.70
596.10	651.84
596.45	650.95
596.80	650.21
597.15	649.21
597.50	648.25
597.85	647.28
598.19	646.19
598.54	645.04
598.89	643.99
599.24	643.16
599.59	641.90
599.94	641.30
600.29	640.46
600.64	639.56
600.99	638.50
601.34	637.70
601.69	635.80
602.04	634.63
602.39	633.46
602.74	632.47
603.08	631.45
603.43	630.70
603.78	629.55
604.13	628.38
604.48	627.25
604.83	626.53
605.18	625.55
605.53	624.69
605.87	623.63
606.22	622.55
606.57	621.31
606.92	620.11
607.27	618.78
607.62	617.45
607.96	616.45
608.31	615.43
608.66	614.26
609.01	612.89
609.36	611.66
609.70	610.41
610.05	608.91
610.40	607.66
610.75	606.01
611.10	604.73
611.44	602.94
611.79	601.32
612.14	599.35
612.49	597.52
612.83	595.85
613.18	594.01
613.53	592.35
613.88	590.59
614.22	588.95
614.57	587.30
614.92	585.53
615.27	583.75
615.61	581.92
615.96	580.29
616.31	578.77
616.65	577.24
617.00	575.60
617.35	574.01
617.70	572.08
618.04	570.18
618.39	568.08
618.74	566.65
619.08	564.90
619.43	563.29
619.78	561.66
620.12	559.93
620.47	558.34
620.82	556.46
621.16	554.58
621.51	552.98
621.85	551.22
622.20	549.52
622.55	547.61
622.89	545.82
623.24	543.92
623.59	542.05
623.93	540.26
624.28	538.54
624.62	537.10
624.97	535.55
625.32	533.69
625.66	532.05
626.01	530.14
626.35	528.43
626.70	526.55
627.04	524.97
627.39	523.15
627.73	521.46
628.08	520.08
628.43	518.46
628.77	516.55
629.12	514.78
629.46	513.21
629.81	511.52
630.15	509.77
630.50	507.98
630.84	506.16
631.19	504.37
631.53	502.62
631.88	500.45
632.22	498.59
632.57	497.24
632.91	495.59
633.26	493.95
633.60	492.11
633.95	490.52
634.29	488.54
634.64	487.07
634.98	485.29
635.32	483.52
635.67	482.00
636.01	480.38
636.36	478.60
636.70	477.08
637.05	475.60
637.39	474.07
637.73	472.54
638.08	471.17
638.42	469.67
638.77	468.18
639.11	466.75
639.45	465.20
639.80	463.39
640.14	461.63
640.49	459.91
640.83	458.32
641.17	456.69
641.52	455.07
641.86	453.25
642.20	451.76
642.55	449.91
642.89	448.13
643.23	446.39
643.58	445.12
643.92	443.15
644.26	441.43
644.61	439.77
644.95	438.17
645.29	436.38
645.64	434.68
645.98	432.99
646.32	431.47
646.66	429.78
647.01	428.21
647.35	426.78
647.69	425.26
648.04	423.83
648.38	422.16
648.72	420.65
649.06	419.04
649.41	417.30
649.75	415.83
650.09	414.53
650.43	413.12
650.78	411.27
651.12	409.80
651.46	408.17
651.80	406.69
652.14	405.20
652.49	403.74
652.83	402.20
653.17	400.53
653.51	398.95
653.85	397.56
654.20	395.98
654.54	394.31
654.88	392.71
655.22	391.19
655.56	389.58
655.90	387.97
656.25	386.44
656.59	384.93
656.93	383.52
657.27	381.99
657.61	380.20
657.95	378.86
658.29	377.43
658.64	376.10
658.98	374.58
659.32	372.94
659.66	371.61
660.00	370.13
660.34	368.68
660.68	367.12
661.02	365.58
661.36	364.19
661.70	363.01
662.05	361.74
662.39	360.51
662.73	359.48
663.07	358.46
663.41	357.21
663.75	355.99
664.09	354.54
664.43	353.13
664.77	352.06
665.11	350.75
665.45	349.42
665.79	348.20
666.13	346.97
666.47	345.73
666.81	344.33
667.15	343.05
667.49	341.99
667.83	341.02
668.17	339.89
668.51	338.83
668.85	337.66
669.19	336.65
669.53	335.31
669.87	334.04
670.21	332.74
670.55	331.68
670.89	330.70
671.23	329.69
671.57	328.63
671.91	327.61
672.25	326.58
672.58	325.65
672.92	324.55
673.26	323.62
673.60	322.76
673.94	321.78
674.28	320.83
674.62	319.97
674.96	319.02
675.30	318.09
675.64	317.11
675.97	316.20
676.31	315.20
676.65	314.40
676.99	313.59
677.33	312.68
677.67	311.74
678.01	310.66
678.34	309.80
678.68	308.99
679.02	307.99
679.36	307.10
679.70	306.21
680.04	305.30
680.37	304.40
680.71	303.52
681.05	302.82
681.39	302.03
681.73	301.14
682.06	300.19
682.40	299.46
682.74	298.67
683.08	297.96
683.42	297.09
683.75	296.19
684.09	295.24
684.43	294.45
684.77	293.67
685.10	292.86
685.44	292.02
685.78	291.17
686.12	290.51
686.45	289.69
686.79	288.86
687.13	288.33
687.46	287.59
687.80	286.94
688.14	286.06
688.48	285.44
688.81	284.61
689.15	283.98
689.49	283.08
689.82	282.34
690.16	281.39
690.50	280.66
690.83	280.03
691.17	279.29
691.51	278.50
691.84	277.83
692.18	277.22
692.52	276.56
692.85	276.05
693.19	275.48
693.52	274.85
693.86	274.24
694.20	273.46
694.53	272.86
694.87	272.15
695.21	271.53
695.54	270.80
695.88	270.18
696.21	269.52
696.55	269.04
696.88	268.43
697.22	267.82
697.56	267.30
697.89	266.67
698.23	266.23
698.56	265.74
698.90	265.22
699.23	264.54
699.57	264.11
699.90	263.45
700.24	262.89
700.58	262.40
700.91	261.86
701.25	261.53
701.58	261.12
701.92	260.67
702.25	260.21
702.59	259.68
702.92	259.29
703.26	258.83
703.59	258.34
703.93	258.23
704.26	257.79
704.60	257.40
704.93	256.94
705.26	256.42
705.60	255.88
705.93	255.37
706.27	255.10
706.60	254.74
706.94	254.51
707.27	253.94
707.61	253.55
707.94	253.05
708.27	252.40
708.61	251.84
708.94	251.43
709.28	250.94
709.61	250.55
709.94	250.10
710.28	249.70
710.61	249.30
710.95	248.57
711.28	248.45
711.61	247.94
711.95	247.55
712.28	247.26
712.61	246.94
712.95	246.85
713.28	246.63
713.61	246.10
713.95	245.50
714.28	245.16
714.61	244.76
714.95	244.42
715.28	244.05
715.61	243.66
715.95	243.32
716.28	243.03
716.61	242.78
716.95	242.37
717.28	241.98
717.61	241.69
717.94	241.36
718.28	240.85
718.61	240.57
718.94	240.25
719.27	239.82
719.61	239.56
719.94	239.07
720.27	238.50
720.60	238.24
720.94	238.05
721.27	237.80
721.60	237.61
721.93	237.42
722.27	237.25
722.60	237.08
722.93	236.69
723.26	236.39
723.59	236.05
723.93	235.87
724.26	235.66
724.59	235.39
724.92	235.21
725.25	235.10
725.59	234.84
725.92	234.60
726.25	234.42
726.58	234.18
726.91	234.00
727.24	233.83
727.57	233.54
727.91	233.26
728.24	233.07
728.57	232.80
728.90	232.59
729.23	232.26
729.56	232.20
729.89	232.06
730.22	231.86
730.55	231.65
730.89	231.49
731.22	231.26
731.55	230.97
731.88	230.70
732.21	230.43
732.54	230.18
732.87	230.00
733.20	229.77
733.53	229.56
733.86	229.37
734.19	229.11
734.52	229.09
734.85	229.08
735.18	228.84
735.51	228.74
735.84	228.53
736.17	228.52
736.50	228.15
736.83	228.42
737.16	228.27
737.49	228.10
737.82	227.87
738.15	227.70
738.48	227.54
738.81	227.36
739.14	227.15
739.47	227.05
739.80	226.90
740.13	226.76
740.46	226.58
740.79	226.36
741.12	226.24
741.45	225.95
741.78	225.70
742.11	225.75
742.44	225.53
742.77	225.55
743.10	225.31
743.43	225.11
743.75	224.56
744.08	224.90
744.41	224.76
744.74	224.64
745.07	224.54
745.40	224.52
745.73	224.59
746.06	224.52
746.39	224.40
746.71	224.22
747.04	224.07
747.37	223.92
747.70	223.86
748.03	223.81
748.36	223.78
748.68	223.60
749.01	223.32
749.34	223.24
749.67	223.07
750.00	223.01
750.33	223.20
750.65	223.14
750.98	222.61
751.31	222.54
751.64	222.40
751.97	222.57
752.29	222.44
752.62	222.16
752.95	221.95
753.28	221.85
753.60	221.76
753.93	221.82
754.26	221.83
754.59	221.62
754.91	221.49
755.24	221.43
755.57	221.33
755.90	221.30
756.22	221.20
756.55	221.01
756.88	220.78
757.20	220.49
757.53	220.24
757.86	220.15
758.19	220.06
758.51	220.00
758.84	219.63
759.17	219.53
759.49	219.56
759.82	219.68
760.15	219.58
760.47	219.43
760.80	219.30
761.13	219.25
761.45	219.19
761.78	219.11
762.11	218.90
762.43	218.78
762.76	218.61
763.08	218.59
763.41	218.54
763.74	218.56
764.06	218.45
764.39	218.38
764.71	218.33
765.04	218.22
765.37	218.11
765.69	218.04
766.02	217.97
766.34	217.78
766.67	217.51
767.00	217.47
767.32	217.67
767.65	217.70
767.97	217.57
768.30	217.50
768.62	217.40
768.95	217.34
769.27	217.31
769.60	217.35
769.92	217.16
770.25	217.06
770.57	216.92
770.90	216.84
771.22	216.74
771.55	216.63
771.87	216.61
772.20	216.54
772.52	216.73
772.85	217.05
773.17	216.99
773.50	216.93
773.82	216.90
774.15	216.66
774.47	216.39
774.80	216.31
775.12	216.20
775.45	216.18
775.77	216.17
776.09	216.12
776.42	216.05
776.74	216.15
777.07	216.09
777.39	216.03
777.72	216.00
778.04	216.04
778.36	215.99
778.69	215.92
779.01	215.83
779.33	215.50
779.66	215.04
779.98	215.09
780.31	215.13
780.63	215.14
780.95	215.16
781.28	215.13
781.60	215.09
781.92	215.11
782.25	215.08
782.57	215.05
782.89	214.98
783.22	214.88
783.54	214.73
783.86	214.67
784.19	214.63
784.51	214.70
784.83	214.59
785.16	214.52
785.48	214.45
785.80	214.48
786.12	214.51
786.45	214.54
786.77	214.44
787.09	214.35
787.42	214.30
787.74	214.26
788.06	214.31
788.38	214.23
788.71	214.19
789.03	214.17
789.35	214.15
789.67	214.11
789.99	214.11
790.32	214.08
790.64	214.10
790.96	214.41
791.28	214.24
791.61	214.26
791.93	214.22
792.25	214.16
792.57	214.38
792.89	214.28
793.21	214.29
793.54	214.21
793.86	214.14
794.18	214.06
794.50	214.05
794.82	213.97
795.14	214.03
795.47	214.10
795.79	214.01
796.11	213.90
796.43	213.83
796.75	213.78
797.07	213.76
797.39	213.76
797.71	213.47
798.04	213.46
798.36	213.44
798.68	213.45
799.00	213.50
799.32	213.37
799.64	213.43
799.96	213.38
800.28	213.50
800.60	213.46
800.92	213.45
801.24	213.38
801.56	213.40
801.89	213.34
802.21	213.31
802.53	213.28
802.85	213.35
803.17	213.49
803.49	213.52
803.81	213.48
804.13	213.45
804.45	213.43
804.77	213.46
805.09	213.45
805.41	213.39
805.73	213.37
806.05	213.25
806.37	213.16
806.69	213.07
807.01	212.95
807.33	212.94
807.65	212.82
807.97	212.96
808.28	212.85
808.60	212.78
808.92	212.70
809.24	212.92
809.56	212.88
809.88	212.77
810.20	212.81
810.52	212.87
810.84	212.79
811.16	212.72
811.48	212.67
811.80	212.75
812.12	212.72
812.43	212.75
812.75	212.75
813.07	212.79
813.39	212.80
813.71	212.71
814.03	212.74
814.35	212.72
814.67	212.56
814.98	212.62
815.30	212.63
815.62	212.58
815.94	212.32
816.26	212.32
816.58	212.24
816.89	212.20
817.21	212.14
817.53	212.24
817.85	212.29
818.17	212.23
818.48	212.11
818.80	212.25
819.12	212.12
819.44	212.01
819.76	211.98
820.07	211.96
820.39	211.96
820.71	211.91
821.03	211.93
821.34	211.90
821.66	211.86
821.98	211.92
822.30	211.92
822.61	212.12
822.93	212.09
823.25	212.10
823.57	211.99
823.88	212.01
824.20	211.88
824.52	211.85
824.83	211.91
825.15	211.89
825.47	211.82
825.79	211.92
826.10	211.89
826.42	211.83
826.74	211.92
827.05	211.99
827.37	212.05
827.69	212.08
828.00	212.13
828.32	212.19
828.64	212.12
828.95	212.29
829.27	212.20
829.58	212.18
829.90	212.26
830.22	212.35
830.53	212.22
830.85	212.25
831.17	212.18
831.48	212.16
831.80	212.15
832.11	212.04
832.43	211.95
832.75	212.00
833.06	212.24
833.38	212.13
833.69	212.09
834.01	212.05
834.32	211.98
834.64	211.90
834.96	211.83
835.27	211.84
835.59	211.68
835.90	211.55
836.22	211.53
836.53	211.37
836.85	211.33
837.16	211.72
837.48	211.73
837.79	211.87
838.11	211.85
838.42	211.80
838.74	211.92
839.05	211.94
839.37	211.90
839.68	211.67
840.00	211.67
840.31	211.77
840.63	211.73
840.94	211.78
841.26	211.72
841.57	211.68
841.88	211.70
842.20	211.67
842.51	211.65
842.83	211.63
843.14	211.96
843.46	211.93
843.77	211.63
844.08	211.57
844.40	211.45
844.71	211.40
845.03	211.45
845.34	211.37
845.65	211.35
845.97	211.35
846.28	211.38
846.60	211.37
846.91	211.26
847.22	211.30
847.54	211.29
847.85	211.35
848.16	211.35
848.48	211.27
848.79	211.39
849.10	211.46
849.42	211.51
849.73	211.18
850.04	211.15
850.36	211.06
850.67	211.14
850.98	211.13
851.30	211.24
851.61	211.25
851.92	211.26
852.23	211.40
852.55	211.40
852.86	211.36
853.17	211.36
853.49	211.44
853.80	211.49
854.11	211.55
854.42	211.55
854.74	211.45
855.05	211.50
855.36	211.35
855.67	211.41
855.99	211.41
856.30	211.88
856.61	211.93
856.92	211.95
857.23	212.00
857.55	212.00
857.86	212.00
858.17	212.01
858.48	211.96
858.79	211.85
859.11	211.95
859.42	211.96
859.73	211.93
860.04	211.94
860.35	211.84
860.66	211.79
860.98	211.77
861.29	211.93
861.60	211.92
861.91	211.99
862.22	211.90
862.53	211.82
862.84	211.38
863.16	211.48
863.47	211.50
863.78	211.40
864.09	211.43
864.40	211.41
864.71	211.37
865.02	211.49
865.33	211.53
865.64	211.44
865.95	211.48
866.27	211.75
866.58	211.69
866.89	211.77
867.20	211.76
867.51	211.77
867.82	211.71
868.13	211.77
868.44	211.75
868.75	211.79
869.06	211.85
869.37	211.95
869.68	211.84
869.99	211.83
870.30	211.80
870.61	211.83
870.92	211.74
871.23	211.75
871.54	211.80
871.85	211.85
872.16	211.86
872.47	211.75
872.78	211.55
873.09	211.60
873.40	211.58
873.71	211.57
874.02	211.60
874.33	211.53
874.64	211.46
874.95	211.54
875.26	211.48
875.56	211.53
875.87	211.49
876.18	211.40
876.49	211.79
876.80	211.80
877.11	211.76
877.42	211.71
877.73	211.78
878.04	211.68
878.35	211.62
878.66	211.61
878.96	211.62
879.27	211.59
879.58	211.62
879.89	211.57
880.20	211.68
880.51	211.63
880.82	211.67
881.12	211.71
881.43	211.61
881.74	211.55
882.05	211.40
882.36	211.39
882.67	211.44
882.97	211.05
883.28	211.04
883.59	211.02
883.90	211.09
884.21	211.08
884.51	211.04
884.82	210.97
885.13	210.96
885.44	210.97
885.74	210.95
886.05	210.84
886.36	210.83
886.67	210.66
886.98	210.84
887.28	210.86
887.59	210.88
887.90	210.94
888.20	210.95
888.51	211.09
888.82	211.09
889.13	211.12
889.43	211.48
889.74	211.46
890.05	211.45
890.35	211.45
890.66	211.38
890.97	211.34
891.28	211.29
891.58	211.28
891.89	211.28
892.20	211.21
892.50	211.19
892.81	211.15
893.12	211.14
893.42	210.92
893.73	210.96
894.04	210.95
894.34	210.90
894.65	210.82
894.95	210.77
895.26	210.76
895.57	210.90
895.87	210.52
896.18	210.64
896.48	210.66
896.79	210.57
897.10	210.64
897.40	210.64
897.71	210.74
898.01	210.82
898.32	210.90
898.63	210.86
898.93	210.93
899.24	210.92
899.54	210.94
899.85	210.99
900.15	210.93
900.46	210.92
900.76	211.00
901.07	211.03
901.38	211.09
901.68	211.14
901.99	210.98
902.29	211.02
902.60	210.91
902.90	210.88
903.21	210.98
903.51	210.93
903.82	211.06
904.12	211.13
904.43	211.04
904.73	210.98
905.03	211.09
905.34	211.37
905.64	211.40
905.95	211.48
906.25	211.50
906.56	211.51
906.86	211.52
907.17	211.49
907.47	211.56
907.77	211.45
908.08	211.35
908.38	211.35
908.69	211.34
908.99	211.42
909.30	211.50
909.60	211.45
909.90	211.44
910.21	211.32
910.51	211.25
910.81	211.30
911.12	211.31
911.42	211.27
911.73	210.95
912.03	210.99
912.33	211.00
912.64	210.98
912.94	210.89
913.24	210.80
913.55	210.79
913.85	210.73
914.15	210.91
914.46	210.97
914.76	210.93
915.06	210.86
915.37	210.79
915.67	210.69
915.97	210.78
916.27	210.74
916.58	210.80
916.88	210.76
917.18	210.70
917.49	210.90
917.79	210.89
918.09	210.92
918.39	211.02
918.70	210.98
919.00	210.99
919.30	211.24
919.60	211.23
919.91	211.15
920.21	211.21
920.51	211.07
920.81	211.08
921.12	211.14
921.42	211.09
921.72	211.16
922.02	211.20
922.32	211.13
922.63	211.11
922.93	211.22
923.23	211.25
923.53	211.22
923.83	211.05
924.13	211.10
924.44	211.06
924.74	211.10
925.04	211.17
925.34	211.15
925.64	210.97
925.94	210.95
926.24	211.12
926.55	211.03
926.85	211.05
927.15	211.04
927.45	211.05
927.75	211.07
928.05	210.98
928.35	211.02
928.65	211.13
928.95	211.23
929.26	211.15
929.56	211.24
929.86	211.29
930.16	211.21
930.46	211.17
930.76	211.19
931.06	211.00
931.36	210.93
931.66	210.99
931.96	210.96
932.26	211.02
932.56	210.91
932.86	210.97
933.16	210.93
933.46	210.79
933.76	210.67
934.06	210.84
934.36	210.99
934.66	210.90
934.96	210.83
935.26	210.83
935.56	210.79
935.86	210.66
936.16	210.60
936.46	210.65
936.76	210.63
937.06	210.59
937.36	210.61
937.66	210.61
937.96	210.57
938.26	210.50
938.56	210.45
938.86	210.47
939.16	210.50
939.46	210.58
939.76	210.74
940.06	210.83
940.35	210.67
940.65	210.50
940.95	210.51
941.25	210.45
941.55	210.38
941.85	210.35
942.15	210.46
942.45	210.54
942.75	210.48
943.04	210.55
943.34	210.59
943.64	210.59
943.94	210.47
944.24	210.47
944.54	210.56
944.84	210.58
945.13	210.53
945.43	210.49
945.73	210.38
946.03	210.30
946.33	210.24
946.62	210.29
946.92	210.25
947.22	210.34
947.52	210.35
947.82	210.42
948.11	210.40
948.41	210.31
948.71	210.28
949.01	210.35
949.31	210.25
949.60	210.25
949.90	210.32
950.20	210.36
950.50	210.35
950.79	210.34
951.09	210.36
951.39	210.30
951.69	210.26
951.98	210.36
952.28	210.35
952.58	210.43
952.87	210.41
953.17	210.50
953.47	210.40
953.76	210.43
954.06	210.33
954.36	210.30
954.66	210.31
954.95	210.34
955.25	210.29
955.55	210.38
955.84	210.33
956.14	210.32
956.44	210.35
956.73	210.29
957.03	210.31
957.32	210.31
957.62	210.34
957.92	210.48
958.21	210.44
958.51	210.88
958.81	210.89
959.10	210.86
959.40	210.88
959.69	210.96
959.99	210.97
960.29	211.05
960.58	211.03
960.88	211.20
961.17	211.26
961.47	211.32
961.76	211.29
962.06	211.32
962.36	211.28
962.65	211.25
962.95	211.28
963.24	211.24
963.54	211.26
963.83	211.28
964.13	211.23
964.42	211.22
964.72	210.95
965.01	210.97
965.31	211.02
965.60	210.94
965.90	211.05
966.19	210.92
966.49	210.96
966.78	210.97
967.08	210.88
967.37	210.83
967.67	210.70
967.96	210.75
968.26	210.77
968.55	210.83
968.85	210.88
969.14	210.96
969.43	210.95
969.73	210.86
970.02	210.84
970.32	210.85
970.61	210.81
970.91	210.69
971.20	210.61
971.49	210.59
971.79	210.70
972.08	210.54
972.38	210.69
972.67	210.61
972.96	210.64
973.26	210.61
973.55	210.68
973.85	210.72
974.14	210.70
974.43	210.72
974.73	210.64
975.02	210.65
975.31	210.63
975.61	210.71
975.90	210.78
976.19	210.77
976.49	210.82
976.78	210.80
977.07	210.83
977.37	210.86
977.66	210.89
977.95	210.81
978.24	210.88
978.54	210.85
978.83	210.81
979.12	210.84
979.42	210.81
979.71	210.82
980.00	210.80
980.29	210.79
980.59	210.79
980.88	210.86
981.17	210.82
981.46	210.80
981.76	210.74
982.05	210.85
982.34	210.89
982.63	210.88
982.93	211.00
983.22	211.05
983.51	211.01
983.80	211.01
984.09	211.10
984.39	211.06
984.68	211.14
984.97	211.15
985.26	211.03
985.55	211.03
985.85	210.94
986.14	210.99
986.43	211.06
986.72	211.00
987.01	210.86
987.30	210.86
987.59	210.79
987.89	210.78
988.18	210.67
988.47	210.63
988.76	210.49
989.05	210.40
989.34	210.35
989.63	210.46
989.92	210.42
990.22	210.29
990.51	210.22
990.80	210.19
991.09	210.22
991.38	210.37
991.67	210.34
991.96	210.35
992.25	210.39
992.54	210.27
992.83	210.24
993.12	210.29
993.41	210.34
993.70	210.48
993.99	210.60
994.28	210.61
994.58	210.68
994.87	210.78
995.16	210.70
995.45	210.62
995.74	210.52
996.03	210.49
996.32	210.65
996.61	210.73
996.90	210.68
997.19	210.66
997.48	210.59
997.77	210.58
998.06	210.59
998.34	210.56
998.63	210.57
998.92	210.68
999.21	210.73
999.50	210.70
999.79	210.64
1000.08	210.61
1000.37	210.65
1000.66	210.65
1000.95	210.72
1001.24	210.84
1001.53	210.90
1001.82	210.89
1002.11	210.87
1002.40	210.85
1002.68	211.00
1002.97	211.22
1003.26	211.17
1003.55	211.10
1003.84	211.15
1004.13	211.24
1004.42	211.20
1004.71	211.18
1004.99	211.13
1005.28	211.21
1005.57	211.24
1005.86	211.27
1006.15	211.21
1006.44	211.10
1006.72	211.07
1007.01	210.99
1007.30	210.95
1007.59	210.98
1007.88	210.98
1008.17	211.03
1008.45	210.95
1008.74	210.70
1009.03	210.52
1009.32	210.53
1009.60	210.59
1009.89	210.56
1010.18	210.40
1010.47	210.38
1010.76	210.42
1011.04	210.41
1011.33	210.46
1011.62	210.45
1011.91	210.42
1012.19	210.53
1012.48	210.57
1012.77	210.58
1013.05	210.72
1013.34	210.74
1013.63	210.72
1013.92	210.74
1014.20	210.73
1014.49	210.74
1014.78	210.84
1015.06	210.71
1015.35	210.70
1015.64	210.78
1015.92	210.83
1016.21	210.90
1016.50	210.95
1016.78	210.94
1017.07	210.97
1017.36	210.84
1017.64	210.81
1017.93	210.80
1018.22	210.70
1018.50	210.69
1018.79	210.67
1019.08	210.55
1019.36	210.54
1019.65	210.52
1019.93	210.60
1020.22	210.62
1020.51	210.86
1020.79	210.80
1021.08	210.55
1021.36	209.65
1021.65	210.50
1021.94	211.05
1022.22	210.65
1022.51	210.85
1022.79	211.60
1023.08	210.65
1023.36	215.70
1023.65	210.00
>>>>>End Processed Spectral Data<<<<<
