SpectraSuite Data File
++++++++++++++++++++++++++++++++++++
Date: Mon Feb 25 16:59:44 EST 2013
User: group
Dark Spectrum Present: No
Reference Spectrum Present: No
Number of Sampled Component Spectra: 1
Spectrometers: USB2E7196
Integration Time (usec): 104000 (USB2E7196)
Spectra Averaged: 20 (USB2E7196)
Boxcar Smoothing: 10 (USB2E7196)
Correct for Electrical Dark: No (USB2E7196)
Strobe/Lamp Enabled: No (USB2E7196)
Correct for Detector Non-linearity: No (USB2E7196)
Correct for Stray Light: No (USB2E7196)
Number of Pixels in Processed Spectrum: 2048
>>>>>Begin Processed Spectral Data<<<<<
339.09	0.00
339.48	198.15
339.86	198.85
340.24	202.85
340.63	202.70
341.01	209.90
341.39	205.45
341.78	207.80
342.16	208.95
342.54	207.90
342.93	198.24
343.31	208.25
343.69	208.83
344.07	209.40
344.46	209.75
344.84	210.16
345.22	210.18
345.60	210.43
345.99	210.59
346.37	210.70
346.75	210.84
347.13	210.88
347.52	210.96
347.90	211.10
348.28	211.09
348.66	211.21
349.05	211.04
349.43	211.13
349.81	211.18
350.19	211.23
350.57	211.33
350.96	211.44
351.34	211.57
351.72	211.65
352.10	211.64
352.48	211.71
352.87	211.70
353.25	211.76
353.63	211.77
354.01	211.86
354.39	211.89
354.77	211.93
355.15	212.12
355.54	212.07
355.92	211.98
356.30	212.07
356.68	212.32
357.06	212.49
357.44	212.46
357.82	212.46
358.20	212.63
358.58	212.63
358.97	212.60
359.35	212.63
359.73	212.73
360.11	212.87
360.49	212.95
360.87	213.01
361.25	213.09
361.63	213.21
362.01	213.25
362.39	213.33
362.77	213.43
363.15	213.46
363.53	213.56
363.91	213.67
364.29	213.69
364.67	213.42
365.05	213.45
365.43	213.59
365.81	213.70
366.19	213.74
366.57	213.93
366.95	213.97
367.33	213.86
367.71	213.89
368.09	213.95
368.47	213.92
368.85	213.91
369.23	213.98
369.61	213.94
369.99	213.99
370.37	213.92
370.75	214.13
371.13	214.04
371.51	213.93
371.89	213.95
372.27	213.89
372.65	213.83
373.03	213.74
373.41	213.66
373.78	213.66
374.16	213.53
374.54	213.38
374.92	213.34
375.30	213.36
375.68	213.28
376.06	213.25
376.44	213.19
376.82	213.12
377.19	213.11
377.57	213.17
377.95	212.97
378.33	212.98
378.71	212.65
379.09	212.65
379.47	212.60
379.84	212.49
380.22	212.44
380.60	212.32
380.98	212.29
381.36	212.27
381.73	212.07
382.11	212.04
382.49	212.02
382.87	211.97
383.25	211.96
383.62	212.27
384.00	212.11
384.38	212.08
384.76	212.19
385.13	212.24
385.51	212.12
385.89	212.06
386.27	212.07
386.64	212.12
387.02	212.08
387.40	212.11
387.78	212.08
388.15	212.14
388.53	212.16
388.91	212.07
389.29	211.99
389.66	212.07
390.04	212.02
390.42	212.02
390.79	212.00
391.17	211.98
391.55	211.61
391.92	211.67
392.30	211.74
392.68	211.58
393.05	211.55
393.43	211.54
393.81	211.62
394.18	211.61
394.56	211.58
394.94	211.62
395.31	211.61
395.69	211.78
396.06	211.81
396.44	211.88
396.82	211.85
397.19	212.09
397.57	212.06
397.95	212.12
398.32	212.03
398.70	212.03
399.07	212.14
399.45	212.12
399.82	212.05
400.20	212.01
400.58	212.14
400.95	212.05
401.33	212.18
401.70	212.45
402.08	212.45
402.45	212.54
402.83	212.69
403.20	212.78
403.58	212.77
403.95	212.93
404.33	213.10
404.71	213.34
405.08	213.67
405.46	213.88
405.83	214.05
406.21	214.31
406.58	214.62
406.96	214.86
407.33	215.17
407.70	215.52
408.08	216.11
408.45	216.49
408.83	216.95
409.20	217.30
409.58	217.53
409.95	218.04
410.33	218.52
410.70	218.88
411.08	219.43
411.45	220.09
411.82	220.67
412.20	221.41
412.57	222.31
412.95	222.73
413.32	223.61
413.69	224.52
414.07	225.49
414.44	226.51
414.82	227.59
415.19	228.86
415.56	230.19
415.94	231.43
416.31	232.90
416.68	234.41
417.06	236.09
417.43	237.81
417.81	239.70
418.18	241.71
418.55	243.91
418.93	246.19
419.30	248.46
419.67	250.99
420.04	253.56
420.42	256.17
420.79	259.48
421.16	262.69
421.54	266.07
421.91	269.42
422.28	272.92
422.66	276.67
423.03	280.56
423.40	284.45
423.77	288.55
424.15	292.79
424.52	297.11
424.89	302.00
425.26	306.66
425.64	311.10
426.01	315.89
426.38	320.92
426.75	326.06
427.13	331.36
427.50	337.03
427.87	342.85
428.24	348.73
428.61	354.24
428.99	360.51
429.36	367.24
429.73	373.91
430.10	380.67
430.47	387.59
430.85	394.45
431.22	401.90
431.59	410.00
431.96	417.65
432.33	426.23
432.70	434.41
433.08	444.06
433.45	453.28
433.82	462.41
434.19	472.61
434.56	482.74
434.93	492.52
435.30	502.25
435.68	513.07
436.05	523.78
436.42	534.43
436.79	544.30
437.16	554.95
437.53	566.11
437.90	577.06
438.27	588.15
438.64	599.47
439.01	610.02
439.38	619.49
439.75	628.81
440.13	639.43
440.50	649.52
440.87	657.87
441.24	666.49
441.61	676.10
441.98	683.42
442.35	691.80
442.72	700.22
443.09	708.39
443.46	713.65
443.83	717.49
444.20	720.91
444.57	725.30
444.94	727.69
445.31	730.37
445.68	733.09
446.05	734.55
446.42	734.38
446.79	733.76
447.16	733.16
447.53	732.95
447.90	729.65
448.27	726.38
448.64	721.41
449.01	718.13
449.37	711.59
449.74	705.22
450.11	697.62
450.48	689.19
450.85	680.39
451.22	672.75
451.59	665.62
451.96	658.78
452.33	649.58
452.70	641.34
453.07	631.21
453.43	620.83
453.80	610.87
454.17	601.44
454.54	592.79
454.91	583.09
455.28	573.55
455.65	564.80
456.02	556.06
456.38	548.64
456.75	539.21
457.12	531.24
457.49	523.50
457.86	515.58
458.23	509.08
458.59	501.97
458.96	494.87
459.33	488.46
459.70	482.06
460.07	476.94
460.43	471.03
460.80	465.60
461.17	460.85
461.54	455.75
461.91	450.73
462.27	445.72
462.64	441.52
463.01	436.92
463.38	432.27
463.74	427.55
464.11	423.53
464.48	420.05
464.85	416.38
465.21	413.50
465.58	410.55
465.95	406.71
466.32	403.61
466.68	400.53
467.05	397.48
467.42	394.45
467.78	391.15
468.15	388.11
468.52	385.90
468.88	382.86
469.25	380.02
469.62	377.92
469.98	375.60
470.35	373.42
470.72	371.31
471.08	369.16
471.45	367.33
471.82	365.49
472.18	363.37
472.55	361.78
472.92	359.85
473.28	358.28
473.65	356.79
474.02	355.28
474.38	354.06
474.75	352.99
475.11	351.68
475.48	350.83
475.85	349.89
476.21	348.94
476.58	348.33
476.94	347.86
477.31	347.27
477.67	346.71
478.04	346.21
478.41	345.87
478.77	345.75
479.14	345.36
479.50	345.06
479.87	345.08
480.23	345.03
480.60	344.94
480.96	344.84
481.33	345.10
481.69	345.21
482.06	345.26
482.42	345.20
482.79	345.42
483.15	345.76
483.52	346.38
483.88	346.77
484.25	347.10
484.61	347.67
484.98	348.24
485.34	349.00
485.71	349.76
486.07	350.67
486.44	351.30
486.80	352.20
487.17	353.31
487.53	354.36
487.90	355.66
488.26	357.07
488.62	358.59
488.99	359.96
489.35	361.44
489.72	363.01
490.08	364.90
490.44	366.77
490.81	368.60
491.17	370.36
491.54	372.33
491.90	374.31
492.26	376.47
492.63	378.74
492.99	380.89
493.36	383.15
493.72	385.58
494.08	388.09
494.45	390.80
494.81	393.48
495.17	396.27
495.54	399.13
495.90	401.95
496.26	404.73
496.63	407.63
496.99	410.61
497.35	413.85
497.72	417.08
498.08	420.35
498.44	423.58
498.80	427.12
499.17	430.46
499.53	433.88
499.89	437.37
500.26	440.70
500.62	444.08
500.98	447.78
501.34	451.20
501.71	454.77
502.07	458.20
502.43	461.57
502.79	464.93
503.16	468.26
503.52	471.72
503.88	475.10
504.24	478.55
504.60	481.99
504.97	485.25
505.33	488.30
505.69	491.62
506.05	494.94
506.41	497.96
506.78	500.89
507.14	503.97
507.50	506.97
507.86	509.94
508.22	512.90
508.59	515.52
508.95	518.24
509.31	520.90
509.67	523.57
510.03	526.15
510.39	528.76
510.75	531.33
511.12	533.65
511.48	536.06
511.84	538.25
512.20	540.38
512.56	542.59
512.92	544.87
513.28	546.81
513.64	548.58
514.00	550.39
514.37	552.41
514.73	554.24
515.09	555.95
515.45	557.58
515.81	559.22
516.17	560.67
516.53	561.99
516.89	563.39
517.25	564.58
517.61	565.95
517.97	567.00
518.33	568.06
518.69	569.13
519.05	570.18
519.41	571.27
519.77	572.55
520.13	573.32
520.49	574.13
520.85	574.84
521.21	575.79
521.57	576.61
521.93	577.05
522.29	577.90
522.65	578.49
523.01	579.19
523.37	579.75
523.73	580.52
524.09	581.09
524.45	581.50
524.81	582.16
525.17	582.84
525.53	583.70
525.89	584.27
526.25	585.06
526.61	585.52
526.97	586.06
527.33	586.52
527.68	587.54
528.04	588.27
528.40	588.92
528.76	589.64
529.12	590.58
529.48	591.86
529.84	592.71
530.20	593.68
530.56	594.71
530.91	595.82
531.27	596.87
531.63	598.17
531.99	599.41
532.35	600.69
532.71	601.90
533.07	603.20
533.42	604.94
533.78	606.28
534.14	607.95
534.50	609.41
534.86	611.18
535.21	612.40
535.57	614.02
535.93	615.70
536.29	617.61
536.65	619.40
537.00	620.91
537.36	622.57
537.72	624.42
538.08	626.23
538.44	628.06
538.79	629.97
539.15	631.96
539.51	634.07
539.87	636.04
540.22	637.98
540.58	640.31
540.94	642.20
541.29	644.28
541.65	646.23
542.01	648.51
542.37	650.63
542.72	652.92
543.08	655.10
543.44	657.70
543.79	659.65
544.15	661.82
544.51	664.45
544.87	666.92
545.22	669.26
545.58	671.65
545.94	673.96
546.29	676.37
546.65	678.55
547.01	680.78
547.36	683.36
547.72	685.93
548.07	688.03
548.43	690.00
548.79	692.36
549.14	694.82
549.50	697.35
549.86	699.41
550.21	701.78
550.57	704.49
550.92	706.65
551.28	709.23
551.64	711.53
551.99	713.80
552.35	716.14
552.70	718.54
553.06	720.99
553.41	723.35
553.77	726.03
554.13	728.77
554.48	731.44
554.84	734.05
555.19	736.29
555.55	739.04
555.90	741.60
556.26	743.80
556.61	745.98
556.97	747.96
557.32	750.34
557.68	752.62
558.03	754.60
558.39	756.60
558.74	758.67
559.10	760.92
559.45	763.08
559.81	765.16
560.16	766.97
560.52	768.99
560.87	771.17
561.23	772.55
561.58	774.50
561.94	776.26
562.29	777.75
562.64	779.55
563.00	781.06
563.35	783.00
563.71	785.22
564.06	787.13
564.42	789.16
564.77	791.22
565.12	793.27
565.48	795.24
565.83	797.32
566.19	799.09
566.54	800.68
566.89	802.30
567.25	804.30
567.60	806.35
567.96	808.21
568.31	809.97
568.66	811.90
569.02	813.30
569.37	814.55
569.72	815.98
570.08	817.56
570.43	818.71
570.78	819.80
571.14	820.65
571.49	821.62
571.84	822.67
572.20	823.28
572.55	824.01
572.90	824.40
573.26	824.90
573.61	825.24
573.96	825.66
574.31	825.85
574.67	825.67
575.02	825.32
575.37	824.92
575.72	824.45
576.08	824.38
576.43	823.97
576.78	824.01
577.13	823.78
577.49	823.36
577.84	823.04
578.19	823.06
578.54	823.10
578.90	822.93
579.25	822.37
579.60	821.70
579.95	820.73
580.30	820.35
580.66	819.83
581.01	819.22
581.36	818.48
581.71	817.66
582.06	817.09
582.42	816.63
582.77	815.71
583.12	815.02
583.47	814.00
583.82	813.30
584.17	812.18
584.53	811.32
584.88	810.25
585.23	809.35
585.58	808.00
585.93	806.55
586.28	805.49
586.63	804.38
586.98	803.46
587.34	802.75
587.69	801.42
588.04	800.23
588.39	799.36
588.74	797.99
589.09	797.16
589.44	795.68
589.79	794.43
590.14	793.48
590.49	792.25
590.84	790.88
591.19	789.77
591.54	788.71
591.89	787.19
592.25	786.11
592.60	784.47
592.95	782.91
593.30	781.29
593.65	779.43
594.00	777.59
594.35	776.97
594.70	775.10
595.05	773.63
595.40	771.92
595.75	769.95
596.10	768.62
596.45	766.89
596.80	765.47
597.15	763.98
597.50	762.04
597.85	760.55
598.19	758.92
598.54	757.12
598.89	755.39
599.24	753.99
599.59	752.09
599.94	750.52
600.29	748.76
600.64	747.03
600.99	745.33
601.34	743.91
601.69	741.05
602.04	739.08
602.39	737.09
602.74	735.30
603.08	733.77
603.43	732.21
603.78	730.25
604.13	728.40
604.48	726.45
604.83	725.05
605.18	723.33
605.53	721.51
605.87	719.50
606.22	717.58
606.57	715.43
606.92	713.45
607.27	711.37
607.62	709.54
607.96	707.79
608.31	706.12
608.66	704.06
609.01	702.16
609.36	700.21
609.70	698.24
610.05	696.14
610.40	693.95
610.75	691.53
611.10	689.59
611.44	687.13
611.79	684.69
612.14	682.23
612.49	679.55
612.83	677.23
613.18	674.73
613.53	672.31
613.88	669.74
614.22	667.34
614.57	665.06
614.92	662.67
615.27	660.28
615.61	657.68
615.96	655.19
616.31	652.81
616.65	650.81
617.00	648.45
617.35	646.10
617.70	643.65
618.04	641.06
618.39	638.37
618.74	636.12
619.08	633.70
619.43	631.35
619.78	629.12
620.12	626.79
620.47	624.58
620.82	622.01
621.16	619.55
621.51	617.27
621.85	614.90
622.20	612.51
622.55	609.92
622.89	607.44
623.24	605.14
623.59	602.52
623.93	599.92
624.28	597.45
624.62	595.35
624.97	592.97
625.32	590.56
625.66	588.33
626.01	585.90
626.35	583.61
626.70	581.15
627.04	578.85
627.39	576.54
627.73	574.45
628.08	572.34
628.43	570.17
628.77	567.72
629.12	565.25
629.46	563.15
629.81	560.90
630.15	558.61
630.50	556.18
630.84	553.96
631.19	551.72
631.53	549.54
631.88	546.84
632.22	544.53
632.57	542.54
632.91	540.23
633.26	538.06
633.60	535.88
633.95	533.80
634.29	531.61
634.64	529.50
634.98	527.16
635.32	525.16
635.67	523.20
636.01	521.18
636.36	519.06
636.70	516.93
637.05	514.91
637.39	512.95
637.73	511.27
638.08	509.73
638.42	507.91
638.77	506.08
639.11	504.25
639.45	502.34
639.80	500.22
640.14	498.15
640.49	496.07
640.83	494.21
641.17	492.21
641.52	490.19
641.86	488.01
642.20	486.13
642.55	483.85
642.89	481.76
643.23	479.67
643.58	478.06
643.92	475.95
644.26	473.93
644.61	471.95
644.95	469.74
645.29	467.53
645.64	465.48
645.98	463.49
646.32	461.46
646.66	459.42
647.01	457.50
647.35	455.71
647.69	453.80
648.04	451.87
648.38	449.96
648.72	448.02
649.06	446.20
649.41	444.29
649.75	442.43
650.09	440.63
650.43	438.81
650.78	436.72
651.12	434.82
651.46	433.14
651.80	431.39
652.14	429.70
652.49	427.96
652.83	426.11
653.17	424.07
653.51	422.30
653.85	420.65
654.20	418.98
654.54	417.14
654.88	415.33
655.22	413.59
655.56	411.74
655.90	409.90
656.25	408.15
656.59	406.24
656.93	404.62
657.27	402.97
657.61	401.23
657.95	399.56
658.29	397.97
658.64	396.33
658.98	394.62
659.32	392.81
659.66	391.03
660.00	389.36
660.34	387.78
660.68	386.18
661.02	384.56
661.36	382.88
661.70	381.41
662.05	379.96
662.39	378.50
662.73	377.15
663.07	375.84
663.41	374.38
663.75	372.88
664.09	371.42
664.43	369.84
664.77	368.48
665.11	367.05
665.45	365.69
665.79	364.21
666.13	362.77
666.47	361.36
666.81	360.01
667.15	358.60
667.49	357.28
667.83	355.97
668.17	354.56
668.51	353.35
668.85	352.01
669.19	350.87
669.53	349.43
669.87	348.12
670.21	346.80
670.55	345.54
670.89	344.60
671.23	343.49
671.57	342.40
671.91	341.16
672.25	339.93
672.58	338.73
672.92	337.36
673.26	336.29
673.60	335.25
673.94	334.08
674.28	332.97
674.62	332.00
674.96	330.86
675.30	329.83
675.64	328.62
675.97	327.49
676.31	326.39
676.65	325.39
676.99	324.48
677.33	323.40
677.67	322.44
678.01	321.29
678.34	320.23
678.68	319.17
679.02	318.03
679.36	317.07
679.70	316.00
680.04	315.12
680.37	314.10
680.71	313.12
681.05	312.30
681.39	311.39
681.73	310.37
682.06	309.40
682.40	308.50
682.74	307.69
683.08	306.92
683.42	305.93
683.75	304.97
684.09	303.89
684.43	303.01
684.77	301.93
685.10	300.98
685.44	300.03
685.78	299.10
686.12	298.29
686.45	297.43
686.79	296.66
687.13	295.90
687.46	295.05
687.80	294.37
688.14	293.48
688.48	292.75
688.81	291.94
689.15	291.25
689.49	290.45
689.82	289.70
690.16	288.71
690.50	287.91
690.83	287.14
691.17	286.28
691.51	285.52
691.84	284.87
692.18	284.13
692.52	283.29
692.85	282.74
693.19	282.24
693.52	281.54
693.86	280.77
694.20	280.17
694.53	279.48
694.87	278.70
695.21	277.98
695.54	277.24
695.88	276.50
696.21	275.69
696.55	275.00
696.88	274.26
697.22	273.62
697.56	273.03
697.89	272.44
698.23	271.85
698.56	271.15
698.90	270.60
699.23	269.90
699.57	269.41
699.90	268.62
700.24	267.82
700.58	267.22
700.91	266.60
701.25	266.11
701.58	265.59
701.92	265.03
702.25	264.52
702.59	263.97
702.92	263.41
703.26	262.91
703.59	262.38
703.93	262.09
704.26	261.63
704.60	261.12
704.93	260.60
705.26	260.07
705.60	259.62
705.93	259.00
706.27	258.65
706.60	258.20
706.94	257.89
707.27	257.46
707.61	257.00
707.94	256.53
708.27	255.84
708.61	255.31
708.94	254.75
709.28	254.30
709.61	253.75
709.94	253.30
710.28	252.87
710.61	252.46
710.95	251.67
711.28	251.40
711.61	250.97
711.95	250.58
712.28	250.20
712.61	249.81
712.95	249.68
713.28	249.41
713.61	248.99
713.95	248.50
714.28	248.07
714.61	247.59
714.95	247.20
715.28	246.77
715.61	246.31
715.95	245.94
716.28	245.44
716.61	245.10
716.95	244.75
717.28	244.35
717.61	243.92
717.94	243.73
718.28	243.18
718.61	242.81
718.94	242.47
719.27	242.15
719.61	241.83
719.94	241.41
720.27	240.86
720.60	240.59
720.94	240.30
721.27	239.99
721.60	239.80
721.93	239.55
722.27	239.39
722.60	239.22
722.93	238.95
723.26	238.75
723.59	238.49
723.93	238.28
724.26	238.01
724.59	237.84
724.92	237.57
725.25	237.45
725.59	237.22
725.92	237.02
726.25	236.74
726.58	236.57
726.91	236.30
727.24	236.15
727.57	235.81
727.91	235.50
728.24	235.31
728.57	235.04
728.90	234.78
729.23	234.48
729.56	234.41
729.89	234.21
730.22	233.95
730.55	233.66
730.89	233.49
731.22	233.30
731.55	233.05
731.88	232.81
732.21	232.56
732.54	232.28
732.87	232.01
733.20	231.82
733.53	231.57
733.86	231.39
734.19	231.17
734.52	231.01
734.85	231.10
735.18	230.84
735.51	230.72
735.84	230.57
736.17	230.49
736.50	230.19
736.83	230.30
737.16	230.16
737.49	230.10
737.82	229.77
738.15	229.67
738.48	229.48
738.81	229.35
739.14	229.14
739.47	229.01
739.80	228.77
740.13	228.61
740.46	228.39
740.79	228.20
741.12	228.03
741.45	227.76
741.78	227.39
742.11	227.39
742.44	227.18
742.77	227.11
743.10	226.89
743.43	226.69
743.75	226.20
744.08	226.49
744.41	226.31
744.74	226.16
745.07	225.96
745.40	225.87
745.73	225.83
746.06	225.70
746.39	225.55
746.71	225.45
747.04	225.23
747.37	225.10
747.70	224.99
748.03	224.89
748.36	224.91
748.68	224.79
749.01	224.52
749.34	224.45
749.67	224.28
750.00	224.21
750.33	224.34
750.65	224.32
750.98	223.73
751.31	223.57
751.64	223.51
751.97	223.59
752.29	223.40
752.62	223.13
752.95	222.97
753.28	222.83
753.60	222.74
753.93	222.79
754.26	222.64
754.59	222.42
754.91	222.22
755.24	222.05
755.57	221.90
755.90	221.83
756.22	221.63
756.55	221.44
756.88	221.33
757.20	220.95
757.53	220.68
757.86	220.61
758.19	220.51
758.51	220.40
758.84	220.10
759.17	220.02
759.49	219.89
759.82	219.98
760.15	219.90
760.47	219.81
760.80	219.61
761.13	219.60
761.45	219.50
761.78	219.46
762.11	219.35
762.43	219.25
762.76	219.14
763.08	219.09
763.41	219.08
763.74	218.97
764.06	218.92
764.39	218.89
764.71	218.88
765.04	218.77
765.37	218.65
765.69	218.58
766.02	218.52
766.34	218.43
766.67	218.18
767.00	218.16
767.32	218.23
767.65	218.31
767.97	218.20
768.30	218.18
768.62	218.11
768.95	217.96
769.27	217.90
769.60	217.90
769.92	217.82
770.25	217.74
770.57	217.51
770.90	217.38
771.22	217.21
771.55	217.03
771.87	217.03
772.20	216.99
772.52	217.24
772.85	217.56
773.17	217.52
773.50	217.49
773.82	217.48
774.15	217.21
774.47	216.95
774.80	216.90
775.12	216.75
775.45	216.64
775.77	216.70
776.09	216.65
776.42	216.52
776.74	216.51
777.07	216.39
777.39	216.39
777.72	216.32
778.04	216.42
778.36	216.39
778.69	216.31
779.01	216.25
779.33	215.86
779.66	215.43
779.98	215.37
780.31	215.37
780.63	215.37
780.95	215.40
781.28	215.37
781.60	215.31
781.92	215.33
782.25	215.27
782.57	215.20
782.89	215.12
783.22	215.10
783.54	215.02
783.86	215.00
784.19	214.99
784.51	215.04
784.83	214.93
785.16	214.85
785.48	214.85
785.80	214.85
786.12	214.76
786.45	214.69
786.77	214.73
787.09	214.62
787.42	214.44
787.74	214.37
788.06	214.35
788.38	214.28
788.71	214.17
789.03	214.14
789.35	214.17
789.67	214.13
789.99	214.07
790.32	213.99
790.64	214.00
790.96	214.22
791.28	214.11
791.61	214.08
791.93	214.11
792.25	214.02
792.57	214.20
792.89	214.23
793.21	214.27
793.54	214.17
793.86	214.10
794.18	214.10
794.50	213.99
794.82	214.02
795.14	214.02
795.47	214.11
795.79	214.10
796.11	213.97
796.43	213.89
796.75	213.87
797.07	213.87
797.39	213.79
797.71	213.56
798.04	213.52
798.36	213.49
798.68	213.48
799.00	213.48
799.32	213.31
799.64	213.31
799.96	213.23
800.28	213.30
800.60	213.27
800.92	213.25
801.24	213.24
801.56	213.13
801.89	213.08
802.21	213.04
802.53	213.01
802.85	213.10
803.17	213.23
803.49	213.16
803.81	213.10
804.13	213.09
804.45	213.09
804.77	213.09
805.09	213.11
805.41	213.05
805.73	213.02
806.05	212.93
806.37	212.83
806.69	212.81
807.01	212.74
807.33	212.74
807.65	212.64
807.97	212.84
808.28	212.93
808.60	212.92
808.92	212.88
809.24	213.04
809.56	212.92
809.88	212.81
810.20	212.85
810.52	212.86
810.84	212.83
811.16	212.70
811.48	212.70
811.80	212.80
812.12	212.81
812.43	212.84
812.75	212.89
813.07	212.88
813.39	212.87
813.71	212.78
814.03	212.80
814.35	212.74
814.67	212.61
814.98	212.50
815.30	212.48
815.62	212.43
815.94	212.20
816.26	212.24
816.58	212.11
816.89	212.06
817.21	211.98
817.53	211.98
817.85	212.01
818.17	211.96
818.48	211.82
818.80	211.80
819.12	211.75
819.44	211.62
819.76	211.61
820.07	211.55
820.39	211.55
820.71	211.51
821.03	211.61
821.34	211.53
821.66	211.58
821.98	211.59
822.30	211.54
822.61	211.75
822.93	211.73
823.25	211.78
823.57	211.73
823.88	211.87
824.20	211.83
824.52	211.87
824.83	211.88
825.15	211.82
825.47	211.84
825.79	211.84
826.10	211.76
826.42	211.70
826.74	211.74
827.05	211.71
827.37	211.73
827.69	211.62
828.00	211.65
828.32	211.60
828.64	211.56
828.95	211.72
829.27	211.64
829.58	211.62
829.90	211.66
830.22	211.77
830.53	211.69
830.85	211.69
831.17	211.58
831.48	211.56
831.80	211.63
832.11	211.58
832.43	211.59
832.75	211.63
833.06	211.90
833.38	211.84
833.69	211.88
834.01	211.82
834.32	211.83
834.64	211.78
834.96	211.82
835.27	211.85
835.59	211.79
835.90	211.70
836.22	211.69
836.53	211.67
836.85	211.63
837.16	212.01
837.48	212.00
837.79	212.17
838.11	212.19
838.42	212.14
838.74	212.12
839.05	212.07
839.37	212.13
839.68	211.86
840.00	211.90
840.31	211.92
840.63	211.94
840.94	211.96
841.26	211.91
841.57	211.85
841.88	211.91
842.20	211.75
842.51	211.75
842.83	211.74
843.14	212.02
843.46	212.04
843.77	211.81
844.08	211.80
844.40	211.64
844.71	211.60
845.03	211.60
845.34	211.60
845.65	211.56
845.97	211.54
846.28	211.55
846.60	211.49
846.91	211.45
847.22	211.39
847.54	211.48
847.85	211.52
848.16	211.50
848.48	211.45
848.79	211.63
849.10	211.62
849.42	211.60
849.73	211.22
850.04	211.16
850.36	210.97
850.67	211.00
850.98	211.06
851.30	211.11
851.61	211.11
851.92	211.13
852.23	211.26
852.55	211.33
852.86	211.38
853.17	211.45
853.49	211.57
853.80	211.65
854.11	211.62
854.42	211.70
854.74	211.68
855.05	211.67
855.36	211.48
855.67	211.51
855.99	211.53
856.30	212.04
856.61	212.06
856.92	212.11
857.23	212.05
857.55	211.99
857.86	211.93
858.17	211.90
858.48	211.91
858.79	211.90
859.11	211.87
859.42	211.84
859.73	211.83
860.04	211.79
860.35	211.76
860.66	211.73
860.98	211.70
861.29	211.72
861.60	211.68
861.91	211.79
862.22	211.70
862.53	211.70
862.84	211.27
863.16	211.32
863.47	211.30
863.78	211.31
864.09	211.32
864.40	211.35
864.71	211.41
865.02	211.43
865.33	211.34
865.64	211.34
865.95	211.34
866.27	211.48
866.58	211.42
866.89	211.40
867.20	211.40
867.51	211.34
867.82	211.40
868.13	211.51
868.44	211.52
868.75	211.69
869.06	211.69
869.37	211.76
869.68	211.67
869.99	211.79
870.30	211.84
870.61	211.91
870.92	211.84
871.23	211.86
871.54	211.90
871.85	212.01
872.16	212.07
872.47	212.00
872.78	211.85
873.09	211.89
873.40	211.83
873.71	211.86
874.02	211.84
874.33	211.78
874.64	211.76
874.95	211.72
875.26	211.60
875.56	211.63
875.87	211.60
876.18	211.60
876.49	211.80
876.80	211.81
877.11	211.81
877.42	211.86
877.73	211.84
878.04	211.75
878.35	211.73
878.66	211.64
878.96	211.70
879.27	211.67
879.58	211.68
879.89	211.75
880.20	211.80
880.51	211.84
880.82	211.77
881.12	211.71
881.43	211.65
881.74	211.51
882.05	211.48
882.36	211.46
882.67	211.46
882.97	211.15
883.28	211.07
883.59	211.00
883.90	210.99
884.21	211.04
884.51	211.04
884.82	210.99
885.13	210.94
885.44	210.91
885.74	210.92
886.05	210.85
886.36	210.82
886.67	210.71
886.98	210.94
887.28	211.05
887.59	211.10
887.90	211.08
888.20	211.14
888.51	211.18
888.82	211.09
889.13	211.14
889.43	211.45
889.74	211.43
890.05	211.44
890.35	211.42
890.66	211.27
890.97	211.18
891.28	211.11
891.58	211.14
891.89	211.15
892.20	211.13
892.50	211.16
892.81	211.10
893.12	211.13
893.42	210.89
893.73	210.81
894.04	210.79
894.34	210.88
894.65	210.89
894.95	210.89
895.26	210.97
895.57	211.20
895.87	210.83
896.18	210.90
896.48	210.98
896.79	211.04
897.10	211.12
897.40	211.19
897.71	211.22
898.01	211.31
898.32	211.33
898.63	211.37
898.93	211.36
899.24	211.39
899.54	211.43
899.85	211.41
900.15	211.46
900.46	211.41
900.76	211.45
901.07	211.45
901.38	211.40
901.68	211.40
901.99	211.20
902.29	211.21
902.60	211.13
902.90	211.01
903.21	210.96
903.51	210.92
903.82	210.94
904.12	210.95
904.43	210.93
904.73	211.00
905.03	210.99
905.34	211.35
905.64	211.33
905.95	211.25
906.25	211.30
906.56	211.31
906.86	211.39
907.17	211.37
907.47	211.42
907.77	211.47
908.08	211.45
908.38	211.45
908.69	211.51
908.99	211.61
909.30	211.70
909.60	211.72
909.90	211.80
910.21	211.74
910.51	211.74
910.81	211.61
911.12	211.53
911.42	211.50
911.73	211.14
912.03	211.12
912.33	211.20
912.64	211.15
912.94	211.03
913.24	210.96
913.55	210.92
913.85	210.78
914.15	210.74
914.46	210.79
914.76	210.75
915.06	210.68
915.37	210.61
915.67	210.52
915.97	210.54
916.27	210.49
916.58	210.48
916.88	210.41
917.18	210.45
917.49	210.74
917.79	210.74
918.09	210.74
918.39	210.92
918.70	210.85
919.00	210.82
919.30	211.03
919.60	211.01
919.91	210.91
920.21	210.98
920.51	210.95
920.81	210.93
921.12	210.95
921.42	210.92
921.72	210.92
922.02	211.01
922.32	211.05
922.63	211.00
922.93	211.24
923.23	211.35
923.53	211.39
923.83	211.12
924.13	211.13
924.44	211.14
924.74	211.13
925.04	211.22
925.34	211.26
925.64	211.16
925.94	211.15
926.24	211.37
926.55	211.40
926.85	211.46
927.15	211.47
927.45	211.44
927.75	211.43
928.05	211.51
928.35	211.45
928.65	211.50
928.95	211.50
929.26	211.31
929.56	211.30
929.86	211.30
930.16	211.28
930.46	211.30
930.76	211.39
931.06	211.21
931.36	211.20
931.66	211.24
931.96	211.28
932.26	211.32
932.56	211.18
932.86	211.18
933.16	211.18
933.46	211.12
933.76	211.08
934.06	211.21
934.36	211.29
934.66	211.36
934.96	211.32
935.26	211.36
935.56	211.51
935.86	211.42
936.16	211.33
936.46	211.35
936.76	211.30
937.06	211.23
937.36	211.22
937.66	211.20
937.96	211.20
938.26	211.07
938.56	211.04
938.86	211.03
939.16	211.12
939.46	211.15
939.76	211.11
940.06	211.13
940.35	211.02
940.65	210.83
940.95	210.82
941.25	210.70
941.55	210.63
941.85	210.58
942.15	210.70
942.45	210.90
942.75	210.91
943.04	210.88
943.34	210.91
943.64	210.91
943.94	210.88
944.24	210.88
944.54	210.95
944.84	210.92
945.13	210.95
945.43	210.85
945.73	210.83
946.03	210.87
946.33	210.93
946.62	210.95
946.92	210.95
947.22	210.91
947.52	211.01
947.82	211.10
948.11	211.04
948.41	210.93
948.71	210.79
949.01	210.81
949.31	210.84
949.60	210.78
949.90	210.87
950.20	210.77
950.50	210.71
950.79	210.68
951.09	210.72
951.39	210.63
951.69	210.54
951.98	210.57
952.28	210.56
952.58	210.46
952.87	210.48
953.17	210.60
953.47	210.55
953.76	210.53
954.06	210.41
954.36	210.34
954.66	210.40
954.95	210.51
955.25	210.52
955.55	210.58
955.84	210.52
956.14	210.56
956.44	210.66
956.73	210.65
957.03	210.64
957.32	210.69
957.62	210.70
957.92	210.82
958.21	210.79
958.51	211.17
958.81	211.25
959.10	211.30
959.40	211.29
959.69	211.35
959.99	211.33
960.29	211.42
960.58	211.40
960.88	211.48
961.17	211.37
961.47	211.34
961.76	211.25
962.06	211.38
962.36	211.34
962.65	211.32
962.95	211.33
963.24	211.39
963.54	211.35
963.83	211.42
964.13	211.45
964.42	211.34
964.72	211.12
965.01	211.10
965.31	211.06
965.60	210.95
965.90	211.19
966.19	211.20
966.49	211.16
966.78	211.15
967.08	211.10
967.37	211.13
967.67	211.11
967.96	211.20
968.26	211.14
968.55	211.14
968.85	211.16
969.14	211.15
969.43	211.08
969.73	211.00
970.02	211.00
970.32	210.91
970.61	210.93
970.91	210.76
971.20	210.73
971.49	210.66
971.79	210.73
972.08	210.47
972.38	210.48
972.67	210.41
972.96	210.45
973.26	210.37
973.55	210.46
973.85	210.44
974.14	210.38
974.43	210.35
974.73	210.26
975.02	210.22
975.31	210.22
975.61	210.26
975.90	210.31
976.19	210.21
976.49	210.32
976.78	210.37
977.07	210.39
977.37	210.37
977.66	210.48
977.95	210.40
978.24	210.39
978.54	210.42
978.83	210.51
979.12	210.50
979.42	210.46
979.71	210.37
980.00	210.31
980.29	210.34
980.59	210.30
980.88	210.49
981.17	210.47
981.46	210.50
981.76	210.43
982.05	210.54
982.34	210.63
982.63	210.58
982.93	210.57
983.22	210.60
983.51	210.64
983.80	210.66
984.09	210.74
984.39	210.70
984.68	210.63
984.97	210.64
985.26	210.64
985.55	210.72
985.85	210.73
986.14	210.90
986.43	210.92
986.72	210.94
987.01	210.77
987.30	210.81
987.59	210.79
987.89	210.84
988.18	210.69
988.47	210.65
988.76	210.65
989.05	210.65
989.34	210.68
989.63	210.74
989.92	210.62
990.22	210.54
990.51	210.60
990.80	210.61
991.09	210.66
991.38	210.70
991.67	210.70
991.96	210.63
992.25	210.62
992.54	210.63
992.83	210.64
993.12	210.64
993.41	210.67
993.70	210.76
993.99	210.80
994.28	210.93
994.58	211.03
994.87	210.97
995.16	210.97
995.45	210.97
995.74	210.92
996.03	211.05
996.32	211.11
996.61	211.19
996.90	211.26
997.19	211.19
997.48	211.18
997.77	211.13
998.06	211.12
998.34	211.14
998.63	211.10
998.92	211.16
999.21	211.23
999.50	211.27
999.79	211.20
1000.08	211.27
1000.37	211.26
1000.66	211.19
1000.95	211.34
1001.24	211.34
1001.53	211.37
1001.82	211.39
1002.11	211.28
1002.40	211.39
1002.68	211.40
1002.97	211.64
1003.26	211.66
1003.55	211.66
1003.84	211.68
1004.13	211.84
1004.42	211.75
1004.71	211.75
1004.99	211.65
1005.28	211.75
1005.57	211.69
1005.86	211.73
1006.15	211.64
1006.44	211.53
1006.72	211.55
1007.01	211.52
1007.30	211.57
1007.59	211.52
1007.88	211.50
1008.17	211.50
1008.45	211.36
1008.74	211.24
1009.03	210.98
1009.32	210.97
1009.60	211.02
1009.89	211.01
1010.18	210.90
1010.47	210.82
1010.76	210.83
1011.04	210.91
1011.33	210.90
1011.62	211.03
1011.91	210.97
1012.19	211.02
1012.48	211.04
1012.77	211.08
1013.05	211.18
1013.34	211.12
1013.63	211.08
1013.92	211.07
1014.20	211.05
1014.49	211.11
1014.78	211.11
1015.06	211.07
1015.35	211.10
1015.64	211.06
1015.92	211.09
1016.21	211.07
1016.50	211.06
1016.78	211.05
1017.07	211.03
1017.36	211.01
1017.64	210.91
1017.93	211.01
1018.22	210.93
1018.50	210.97
1018.79	210.97
1019.08	210.76
1019.36	210.77
1019.65	210.76
1019.93	210.82
1020.22	210.92
1020.51	211.04
1020.79	211.03
1021.08	210.00
1021.36	211.05
1021.65	211.70
1021.94	209.85
1022.22	210.75
1022.51	209.95
1022.79	211.75
1023.08	211.60
1023.36	214.70
1023.65	209.75
>>>>>End Processed Spectral Data<<<<<
