SpectraSuite Data File
++++++++++++++++++++++++++++++++++++
Date: Mon Feb 25 17:06:14 EST 2013
User: group
Dark Spectrum Present: No
Reference Spectrum Present: No
Number of Sampled Component Spectra: 1
Spectrometers: USB2E7196
Integration Time (usec): 104000 (USB2E7196)
Spectra Averaged: 20 (USB2E7196)
Boxcar Smoothing: 10 (USB2E7196)
Correct for Electrical Dark: No (USB2E7196)
Strobe/Lamp Enabled: No (USB2E7196)
Correct for Detector Non-linearity: No (USB2E7196)
Correct for Stray Light: No (USB2E7196)
Number of Pixels in Processed Spectrum: 2048
>>>>>Begin Processed Spectral Data<<<<<
339.09	0.00
339.48	198.95
339.86	200.00
340.24	202.15
340.63	202.65
341.01	210.10
341.39	205.35
341.78	207.90
342.16	210.35
342.54	208.95
342.93	198.64
343.31	208.71
343.69	209.22
344.07	209.66
344.46	210.07
344.84	210.46
345.22	210.45
345.60	210.76
345.99	210.89
346.37	210.91
346.75	210.99
347.13	211.04
347.52	211.16
347.90	211.37
348.28	211.36
348.66	211.50
349.05	211.39
349.43	211.35
349.81	211.38
350.19	211.32
350.57	211.32
350.96	211.35
351.34	211.33
351.72	211.39
352.10	211.51
352.48	211.50
352.87	211.53
353.25	211.64
353.63	211.65
354.01	211.75
354.39	211.85
354.77	211.87
355.15	212.09
355.54	212.00
355.92	211.83
356.30	211.89
356.68	212.09
357.06	212.19
357.44	212.23
357.82	212.22
358.20	212.33
358.58	212.34
358.97	212.35
359.35	212.47
359.73	212.57
360.11	212.60
360.49	212.69
360.87	212.75
361.25	212.83
361.63	212.97
362.01	212.93
362.39	212.87
362.77	212.96
363.15	212.88
363.53	212.93
363.91	213.01
364.29	213.05
364.67	212.80
365.05	212.80
365.43	212.84
365.81	212.95
366.19	213.04
366.57	213.24
366.95	213.24
367.33	213.10
367.71	213.15
368.09	213.23
368.47	213.21
368.85	213.15
369.23	213.12
369.61	212.92
369.99	213.06
370.37	213.06
370.75	213.18
371.13	213.05
371.51	212.98
371.89	212.98
372.27	212.93
372.65	212.85
373.03	212.86
373.41	212.76
373.78	212.66
374.16	212.51
374.54	212.28
374.92	212.21
375.30	212.20
375.68	212.07
376.06	211.95
376.44	211.87
376.82	211.81
377.19	211.74
377.57	211.76
377.95	211.57
378.33	211.51
378.71	211.31
379.09	211.32
379.47	211.38
379.84	211.31
380.22	211.28
380.60	211.15
380.98	211.03
381.36	210.99
381.73	210.90
382.11	210.90
382.49	210.97
382.87	210.86
383.25	210.89
383.62	211.23
384.00	211.17
384.38	211.22
384.76	211.25
385.13	211.30
385.51	211.28
385.89	211.21
386.27	211.19
386.64	211.17
387.02	211.10
387.40	211.09
387.78	211.04
388.15	211.00
388.53	210.99
388.91	211.01
389.29	211.00
389.66	211.07
390.04	210.99
390.42	210.95
390.79	210.94
391.17	210.87
391.55	210.47
391.92	210.41
392.30	210.40
392.68	210.36
393.05	210.33
393.43	210.30
393.81	210.36
394.18	210.25
394.56	210.18
394.94	210.23
395.31	210.09
395.69	210.20
396.06	210.17
396.44	210.17
396.82	210.15
397.19	210.26
397.57	210.18
397.95	210.21
398.32	210.07
398.70	210.15
399.07	210.25
399.45	210.28
399.82	210.30
400.20	210.23
400.58	210.24
400.95	210.17
401.33	210.26
401.70	210.47
402.08	210.59
402.45	210.68
402.83	210.82
403.20	210.90
403.58	210.89
403.95	211.07
404.33	211.25
404.71	211.32
405.08	211.62
405.46	211.72
405.83	211.85
406.21	212.01
406.58	212.15
406.96	212.20
407.33	212.30
407.70	212.48
408.08	212.97
408.45	213.19
408.83	213.43
409.20	213.55
409.58	213.60
409.95	213.85
410.33	214.08
410.70	214.18
411.08	214.51
411.45	214.83
411.82	215.05
412.20	215.40
412.57	215.94
412.95	216.02
413.32	216.53
413.69	216.93
414.07	217.45
414.44	217.99
414.82	218.61
415.19	219.28
415.56	219.90
415.94	220.35
416.31	221.07
416.68	221.82
417.06	222.76
417.43	223.65
417.81	224.60
418.18	225.60
418.55	226.64
418.93	227.68
419.30	228.83
419.67	230.00
420.04	231.20
420.42	232.37
420.79	234.18
421.16	235.63
421.54	237.31
421.91	238.90
422.28	240.52
422.66	242.23
423.03	244.19
423.40	246.08
423.77	248.04
424.15	250.01
424.52	251.99
424.89	254.21
425.26	256.25
425.64	258.36
426.01	260.55
426.38	263.01
426.75	265.56
427.13	268.02
427.50	270.69
427.87	273.50
428.24	276.20
428.61	278.57
428.99	281.54
429.36	284.66
429.73	287.79
430.10	290.91
430.47	294.08
430.85	297.23
431.22	300.66
431.59	304.50
431.96	307.97
432.33	311.97
432.70	315.83
433.08	320.38
433.45	324.61
433.82	328.90
434.19	333.64
434.56	338.31
434.93	342.67
435.30	347.07
435.68	351.98
436.05	356.93
436.42	361.82
436.79	366.33
437.16	371.11
437.53	376.14
437.90	381.16
438.27	386.14
438.64	391.28
439.01	396.03
439.38	400.29
439.75	404.56
440.13	409.30
440.50	413.72
440.87	417.29
441.24	421.11
441.61	425.36
441.98	428.37
442.35	431.90
442.72	435.65
443.09	439.33
443.46	441.48
443.83	442.97
444.20	444.38
444.57	446.30
444.94	447.31
445.31	448.45
445.68	449.81
446.05	450.36
446.42	450.05
446.79	449.98
447.16	449.47
447.53	449.37
447.90	447.75
448.27	446.07
448.64	443.94
449.01	442.40
449.37	439.36
449.74	436.47
450.11	433.12
450.48	429.20
450.85	425.09
451.22	421.63
451.59	418.39
451.96	415.32
452.33	410.99
452.70	407.04
453.07	402.35
453.43	397.24
453.80	392.72
454.17	388.31
454.54	384.02
454.91	379.51
455.28	375.05
455.65	371.01
456.02	367.53
456.38	363.90
456.75	359.48
457.12	355.83
457.49	352.25
457.86	348.52
458.23	345.60
458.59	342.35
458.96	339.05
459.33	336.09
459.70	333.09
460.07	330.81
460.43	328.18
460.80	325.76
461.17	323.61
461.54	321.29
461.91	319.03
462.27	316.73
462.64	314.82
463.01	312.65
463.38	310.67
463.74	308.00
464.11	306.19
464.48	304.66
464.85	302.89
465.21	301.63
465.58	300.29
465.95	298.52
466.32	297.12
466.68	295.74
467.05	294.38
467.42	292.83
467.78	291.18
468.15	289.78
468.52	288.68
468.88	287.22
469.25	285.95
469.62	285.12
469.98	283.95
470.35	282.99
470.72	282.03
471.08	280.87
471.45	280.18
471.82	279.37
472.18	278.33
472.55	277.65
472.92	276.76
473.28	275.83
473.65	275.08
474.02	274.36
474.38	273.76
474.75	273.24
475.11	272.69
475.48	272.38
475.85	271.90
476.21	271.45
476.58	271.12
476.94	270.83
477.31	270.41
477.67	270.11
478.04	269.76
478.41	269.53
478.77	269.73
479.14	269.41
479.50	269.28
479.87	269.13
480.23	269.10
480.60	268.96
480.96	268.92
481.33	269.12
481.69	269.10
482.06	269.08
482.42	269.14
482.79	269.27
483.15	269.30
483.52	269.58
483.88	269.60
484.25	269.75
484.61	269.97
484.98	270.17
485.34	270.58
485.71	270.90
486.07	271.24
486.44	271.15
486.80	271.50
487.17	271.79
487.53	272.41
487.90	272.81
488.26	273.40
488.62	274.07
488.99	274.45
489.35	275.11
489.72	275.87
490.08	276.47
490.44	277.08
490.81	277.82
491.17	278.45
491.54	279.25
491.90	280.11
492.26	280.93
492.63	281.87
492.99	282.63
493.36	283.63
493.72	284.70
494.08	285.82
494.45	286.97
494.81	288.19
495.17	289.11
495.54	290.35
495.90	291.48
496.26	292.56
496.63	293.86
496.99	295.10
497.35	296.22
497.72	297.49
498.08	298.76
498.44	300.07
498.80	301.52
499.17	303.01
499.53	304.44
499.89	305.89
500.26	307.28
500.62	308.75
500.98	310.25
501.34	311.71
501.71	313.25
502.07	314.57
502.43	315.89
502.79	317.38
503.16	318.81
503.52	320.26
503.88	321.76
504.24	323.19
504.60	324.76
504.97	326.36
505.33	327.80
505.69	329.56
506.05	331.12
506.41	332.53
506.78	334.03
507.14	335.39
507.50	336.84
507.86	338.41
508.22	339.92
508.59	341.28
508.95	342.70
509.31	344.25
509.67	345.82
510.03	347.45
510.39	348.92
510.75	350.33
511.12	351.77
511.48	353.26
511.84	354.79
512.20	356.11
512.56	357.57
512.92	359.13
513.28	360.49
513.64	361.90
514.00	363.39
514.37	364.85
514.73	366.37
515.09	367.96
515.45	369.33
515.81	370.74
516.17	372.22
516.53	373.63
516.89	374.94
517.25	376.41
517.61	377.89
517.97	379.44
518.33	381.05
518.69	382.58
519.05	384.12
519.41	385.67
519.77	387.50
520.13	389.04
520.49	390.57
520.85	392.09
521.21	394.02
521.57	395.74
521.93	397.35
522.29	399.05
522.65	400.75
523.01	402.53
523.37	404.36
523.73	406.22
524.09	408.00
524.45	409.88
524.81	411.75
525.17	413.72
525.53	415.92
525.89	417.91
526.25	420.15
526.61	422.15
526.97	424.29
527.33	426.30
527.68	428.86
528.04	431.24
528.40	433.60
528.76	435.73
529.12	438.12
529.48	440.60
529.84	443.16
530.20	445.64
530.56	448.27
530.91	450.90
531.27	453.55
531.63	456.32
531.99	459.12
532.35	461.81
532.71	464.46
533.07	467.15
533.42	470.22
533.78	472.89
534.14	475.71
534.50	478.38
534.86	481.22
535.21	483.67
535.57	486.46
535.93	489.25
536.29	492.26
536.65	495.09
537.00	497.90
537.36	500.73
537.72	503.55
538.08	506.44
538.44	509.40
538.79	512.32
539.15	515.32
539.51	518.16
539.87	521.24
540.22	524.20
540.58	527.12
540.94	529.72
541.29	532.88
541.65	535.80
542.01	538.83
542.37	541.81
542.72	544.91
543.08	547.93
543.44	551.13
543.79	553.84
544.15	556.88
544.51	560.18
544.87	563.27
545.22	566.27
545.58	569.22
545.94	572.09
546.29	575.01
546.65	577.85
547.01	580.66
547.36	583.50
547.72	586.42
548.07	589.21
548.43	591.95
548.79	594.40
549.14	596.87
549.50	599.71
549.86	602.20
550.21	604.72
550.57	607.24
550.92	609.43
551.28	611.95
551.64	614.31
551.99	616.45
552.35	618.54
552.70	620.69
553.06	622.92
553.41	625.19
553.77	627.65
554.13	629.82
554.48	632.18
554.84	634.43
555.19	636.51
555.55	638.76
555.90	640.91
556.26	642.94
556.61	645.04
556.97	646.75
557.32	648.73
557.68	650.45
558.03	652.19
558.39	654.06
558.74	655.93
559.10	657.79
559.45	659.60
559.81	661.56
560.16	663.37
560.52	665.18
560.87	666.79
561.23	668.11
561.58	669.92
561.94	671.31
562.29	672.50
562.64	674.05
563.00	675.29
563.35	676.77
563.71	678.31
564.06	679.85
564.42	681.35
564.77	682.82
565.12	684.45
565.48	686.23
565.83	687.65
566.19	689.02
566.54	690.22
566.89	691.24
567.25	692.51
567.60	693.91
567.96	695.14
568.31	696.40
568.66	697.40
569.02	698.12
569.37	698.75
569.72	699.59
570.08	700.07
570.43	700.77
570.78	701.27
571.14	701.72
571.49	702.09
571.84	702.49
572.20	702.71
572.55	702.93
572.90	702.77
573.26	702.81
573.61	702.65
573.96	702.62
574.31	702.64
574.67	702.25
575.02	701.70
575.37	701.17
575.72	700.51
576.08	700.28
576.43	699.77
576.78	699.60
577.13	699.45
577.49	699.31
577.84	698.97
578.19	698.70
578.54	698.56
578.90	698.44
579.25	698.12
579.60	697.67
579.95	697.18
580.30	696.85
580.66	696.63
581.01	696.21
581.36	695.66
581.71	695.16
582.06	694.99
582.42	694.67
582.77	694.15
583.12	693.71
583.47	693.14
583.82	692.85
584.17	692.41
584.53	692.00
584.88	691.32
585.23	690.86
585.58	690.41
585.93	689.59
586.28	689.04
586.63	688.57
586.98	688.17
587.34	687.83
587.69	687.06
588.04	686.25
588.39	685.76
588.74	684.91
589.09	684.28
589.44	683.36
589.79	682.75
590.14	681.92
590.49	681.06
590.84	680.35
591.19	679.64
591.54	678.69
591.89	677.49
592.25	676.80
592.60	675.68
592.95	674.62
593.30	673.60
593.65	672.36
594.00	671.08
594.35	670.96
594.70	669.58
595.05	668.55
595.40	667.49
595.75	666.19
596.10	665.47
596.45	664.35
596.80	663.28
597.15	662.20
597.50	661.20
597.85	660.35
598.19	659.06
598.54	657.92
598.89	656.85
599.24	656.00
599.59	654.87
599.94	653.95
600.29	652.85
600.64	651.89
600.99	650.88
601.34	649.92
601.69	647.74
602.04	646.67
602.39	645.49
602.74	644.47
603.08	643.62
603.43	642.74
603.78	641.71
604.13	640.63
604.48	639.57
604.83	638.70
605.18	637.83
605.53	636.86
605.87	635.62
606.22	634.75
606.57	633.63
606.92	632.43
607.27	631.26
607.62	630.15
607.96	629.04
608.31	628.15
608.66	626.87
609.01	625.56
609.36	624.29
609.70	623.00
610.05	621.53
610.40	620.17
610.75	618.51
611.10	617.28
611.44	615.76
611.79	614.05
612.14	612.40
612.49	610.55
612.83	608.98
613.18	607.41
613.53	605.53
613.88	603.74
614.22	601.95
614.57	600.19
614.92	598.37
615.27	596.51
615.61	594.56
615.96	592.92
616.31	591.28
616.65	589.85
617.00	588.33
617.35	586.67
617.70	584.78
618.04	582.98
618.39	580.90
618.74	579.20
619.08	577.43
619.43	575.52
619.78	573.77
620.12	572.02
620.47	570.25
620.82	568.47
621.16	566.48
621.51	564.78
621.85	562.91
622.20	560.96
622.55	559.11
622.89	556.97
623.24	555.20
623.59	553.36
623.93	551.39
624.28	549.57
624.62	548.04
624.97	546.32
625.32	544.34
625.66	542.69
626.01	540.79
626.35	539.11
626.70	537.30
627.04	535.63
627.39	533.74
627.73	532.07
628.08	530.31
628.43	528.65
628.77	526.88
629.12	525.06
629.46	523.49
629.81	521.71
630.15	520.10
630.50	518.13
630.84	516.29
631.19	514.48
631.53	512.57
631.88	510.33
632.22	508.45
632.57	507.04
632.91	505.32
633.26	503.63
633.60	501.85
633.95	500.33
634.29	498.49
634.64	496.88
634.98	494.93
635.32	493.54
635.67	491.88
636.01	490.20
636.36	488.41
636.70	486.86
637.05	485.27
637.39	483.70
637.73	482.15
638.08	480.76
638.42	479.35
638.77	477.90
639.11	476.40
639.45	474.85
639.80	472.96
640.14	471.07
640.49	469.34
640.83	467.61
641.17	465.75
641.52	464.03
641.86	462.25
642.20	460.68
642.55	458.56
642.89	456.78
643.23	454.98
643.58	453.64
643.92	451.69
644.26	450.06
644.61	448.43
644.95	446.62
645.29	444.69
645.64	442.82
645.98	440.97
646.32	439.37
646.66	437.58
647.01	435.87
647.35	434.42
647.69	432.70
648.04	431.12
648.38	429.61
648.72	427.90
649.06	426.22
649.41	424.60
649.75	423.01
650.09	421.56
650.43	419.98
650.78	418.15
651.12	416.51
651.46	414.80
651.80	413.18
652.14	411.65
652.49	410.15
652.83	408.45
653.17	406.75
653.51	404.99
653.85	403.40
654.20	401.83
654.54	400.06
654.88	398.42
655.22	396.90
655.56	395.16
655.90	393.62
656.25	392.02
656.59	390.35
656.93	388.88
657.27	387.36
657.61	385.71
657.95	384.23
658.29	382.60
658.64	381.14
658.98	379.50
659.32	377.84
659.66	376.23
660.00	374.68
660.34	373.18
660.68	371.75
661.02	370.18
661.36	368.65
661.70	367.24
662.05	365.89
662.39	364.55
662.73	363.32
663.07	362.21
663.41	360.90
663.75	359.55
664.09	358.19
664.43	356.70
664.77	355.43
665.11	354.00
665.45	352.89
665.79	351.62
666.13	350.32
666.47	349.12
666.81	347.85
667.15	346.52
667.49	345.36
667.83	344.32
668.17	343.16
668.51	342.11
668.85	341.01
669.19	339.95
669.53	338.51
669.87	337.26
670.21	335.92
670.55	334.76
670.89	333.77
671.23	332.76
671.57	331.67
671.91	330.62
672.25	329.60
672.58	328.55
672.92	327.34
673.26	326.35
673.60	325.36
673.94	324.31
674.28	323.48
674.62	322.49
674.96	321.40
675.30	320.53
675.64	319.44
675.97	318.38
676.31	317.44
676.65	316.55
676.99	315.80
677.33	314.80
677.67	313.96
678.01	312.91
678.34	311.91
678.68	311.04
679.02	310.08
679.36	309.15
679.70	308.08
680.04	307.24
680.37	306.35
680.71	305.47
681.05	304.75
681.39	303.78
681.73	302.92
682.06	302.07
682.40	301.17
682.74	300.46
683.08	299.80
683.42	298.86
683.75	298.02
684.09	297.04
684.43	296.19
684.77	295.25
685.10	294.47
685.44	293.57
685.78	292.74
686.12	291.95
686.45	291.13
686.79	290.42
687.13	289.68
687.46	288.89
687.80	288.24
688.14	287.33
688.48	286.69
688.81	285.97
689.15	285.25
689.49	284.49
689.82	283.70
690.16	282.80
690.50	282.02
690.83	281.24
691.17	280.54
691.51	279.81
691.84	279.13
692.18	278.31
692.52	277.68
692.85	277.07
693.19	276.48
693.52	275.91
693.86	275.15
694.20	274.59
694.53	274.02
694.87	273.30
695.21	272.67
695.54	271.95
695.88	271.14
696.21	270.41
696.55	269.84
696.88	269.22
697.22	268.57
697.56	268.09
697.89	267.52
698.23	266.93
698.56	266.34
698.90	265.83
699.23	265.30
699.57	264.68
699.90	264.03
700.24	263.35
700.58	262.74
700.91	262.28
701.25	261.94
701.58	261.38
701.92	260.87
702.25	260.46
702.59	259.85
702.92	259.45
703.26	259.01
703.59	258.41
703.93	258.18
704.26	257.73
704.60	257.12
704.93	256.61
705.26	256.05
705.60	255.64
705.93	255.04
706.27	254.73
706.60	254.33
706.94	254.05
707.27	253.64
707.61	253.14
707.94	252.67
708.27	251.89
708.61	251.45
708.94	250.95
709.28	250.44
709.61	250.01
709.94	249.57
710.28	249.12
710.61	248.80
710.95	248.05
711.28	247.81
711.61	247.52
711.95	247.23
712.28	246.88
712.61	246.50
712.95	246.36
713.28	246.04
713.61	245.65
713.95	245.16
714.28	244.79
714.61	244.45
714.95	244.08
715.28	243.70
715.61	243.21
715.95	242.88
716.28	242.51
716.61	242.25
716.95	241.92
717.28	241.56
717.61	241.14
717.94	240.90
718.28	240.33
718.61	239.99
718.94	239.58
719.27	239.20
719.61	238.93
719.94	238.53
720.27	238.01
720.60	237.74
720.94	237.45
721.27	237.29
721.60	236.99
721.93	236.80
722.27	236.74
722.60	236.60
722.93	236.26
723.26	236.09
723.59	235.87
723.93	235.67
724.26	235.39
724.59	235.24
724.92	234.97
725.25	234.86
725.59	234.55
725.92	234.44
726.25	234.23
726.58	233.96
726.91	233.77
727.24	233.64
727.57	233.38
727.91	233.12
728.24	232.87
728.57	232.75
728.90	232.57
729.23	232.24
729.56	232.16
729.89	232.01
730.22	231.75
730.55	231.55
730.89	231.29
731.22	231.18
731.55	230.94
731.88	230.74
732.21	230.51
732.54	230.30
732.87	230.09
733.20	229.94
733.53	229.83
733.86	229.64
734.19	229.46
734.52	229.31
734.85	229.35
735.18	229.10
735.51	229.06
735.84	228.85
736.17	228.77
736.50	228.45
736.83	228.71
737.16	228.50
737.49	228.35
737.82	228.22
738.15	228.03
738.48	227.87
738.81	227.70
739.14	227.53
739.47	227.45
739.80	227.33
740.13	227.22
740.46	226.94
740.79	226.74
741.12	226.60
741.45	226.41
741.78	226.10
742.11	225.99
742.44	225.66
742.77	225.54
743.10	225.23
743.43	225.07
743.75	224.55
744.08	224.88
744.41	224.62
744.74	224.49
745.07	224.31
745.40	224.22
745.73	224.29
746.06	224.19
746.39	224.02
746.71	223.81
747.04	223.55
747.37	223.41
747.70	223.37
748.03	223.21
748.36	223.21
748.68	223.03
749.01	222.84
749.34	222.80
749.67	222.71
750.00	222.71
750.33	222.82
750.65	222.71
750.98	222.21
751.31	222.11
751.64	221.97
751.97	222.05
752.29	221.98
752.62	221.69
752.95	221.52
753.28	221.43
753.60	221.30
753.93	221.31
754.26	221.22
754.59	221.01
754.91	220.90
755.24	220.72
755.57	220.70
755.90	220.64
756.22	220.44
756.55	220.32
756.88	220.23
757.20	219.91
757.53	219.74
757.86	219.59
758.19	219.53
758.51	219.50
758.84	219.22
759.17	219.05
759.49	218.96
759.82	219.12
760.15	219.06
760.47	218.94
760.80	218.74
761.13	218.68
761.45	218.61
761.78	218.52
762.11	218.49
762.43	218.30
762.76	218.27
763.08	218.25
763.41	218.22
763.74	218.02
764.06	218.00
764.39	217.97
764.71	217.94
765.04	217.89
765.37	217.72
765.69	217.71
766.02	217.66
766.34	217.59
766.67	217.34
767.00	217.35
767.32	217.52
767.65	217.70
767.97	217.64
768.30	217.64
768.62	217.55
768.95	217.41
769.27	217.41
769.60	217.27
769.92	217.15
770.25	216.97
770.57	216.98
770.90	216.91
771.22	216.82
771.55	216.69
771.87	216.62
772.20	216.58
772.52	216.82
772.85	217.22
773.17	217.22
773.50	217.21
773.82	217.01
774.15	216.81
774.47	216.56
774.80	216.55
775.12	216.45
775.45	216.44
775.77	216.42
776.09	216.37
776.42	216.40
776.74	216.50
777.07	216.40
777.39	216.30
777.72	216.18
778.04	216.17
778.36	216.16
778.69	216.16
779.01	216.15
779.33	215.74
779.66	215.25
779.98	215.21
780.31	215.20
780.63	215.38
780.95	215.34
781.28	215.25
781.60	215.16
781.92	215.07
782.25	214.98
782.57	214.98
782.89	214.81
783.22	214.67
783.54	214.50
783.86	214.53
784.19	214.47
784.51	214.58
784.83	214.46
785.16	214.40
785.48	214.35
785.80	214.30
786.12	214.33
786.45	214.26
786.77	214.15
787.09	213.99
787.42	213.85
787.74	213.79
788.06	213.87
788.38	213.83
788.71	213.78
789.03	213.77
789.35	213.76
789.67	213.85
789.99	213.92
790.32	213.92
790.64	213.95
790.96	214.27
791.28	214.09
791.61	214.12
791.93	214.14
792.25	214.10
792.57	214.31
792.89	214.21
793.21	214.20
793.54	214.11
793.86	214.09
794.18	213.95
794.50	213.91
794.82	213.80
795.14	213.89
795.47	213.97
795.79	213.94
796.11	213.80
796.43	213.73
796.75	213.70
797.07	213.70
797.39	213.65
797.71	213.41
798.04	213.43
798.36	213.35
798.68	213.32
799.00	213.34
799.32	213.17
799.64	213.25
799.96	213.26
800.28	213.37
800.60	213.35
800.92	213.41
801.24	213.40
801.56	213.41
801.89	213.28
802.21	213.22
802.53	213.17
802.85	213.27
803.17	213.44
803.49	213.30
803.81	213.25
804.13	213.15
804.45	213.08
804.77	213.11
805.09	213.14
805.41	213.17
805.73	213.14
806.05	213.00
806.37	212.97
806.69	212.95
807.01	212.89
807.33	212.95
807.65	212.90
807.97	213.07
808.28	213.07
808.60	213.09
808.92	213.12
809.24	213.34
809.56	213.34
809.88	213.16
810.20	213.24
810.52	213.33
810.84	213.36
811.16	213.32
811.48	213.23
811.80	213.38
812.12	213.31
812.43	213.35
812.75	213.40
813.07	213.38
813.39	213.37
813.71	213.33
814.03	213.32
814.35	213.31
814.67	213.10
814.98	213.03
815.30	213.06
815.62	212.97
815.94	212.79
816.26	212.75
816.58	212.71
816.89	212.73
817.21	212.62
817.53	212.59
817.85	212.62
818.17	212.64
818.48	212.44
818.80	212.49
819.12	212.40
819.44	212.30
819.76	212.26
820.07	212.26
820.39	212.19
820.71	212.14
821.03	212.16
821.34	212.17
821.66	212.23
821.98	212.27
822.30	212.26
822.61	212.40
822.93	212.33
823.25	212.35
823.57	212.21
823.88	212.31
824.20	212.26
824.52	212.36
824.83	212.41
825.15	212.37
825.47	212.31
825.79	212.33
826.10	212.28
826.42	212.21
826.74	212.23
827.05	212.28
827.37	212.27
827.69	212.25
828.00	212.20
828.32	212.11
828.64	211.99
828.95	212.18
829.27	212.03
829.58	212.03
829.90	212.05
830.22	212.07
830.53	212.00
830.85	212.05
831.17	211.84
831.48	211.75
831.80	211.79
832.11	211.81
832.43	211.77
832.75	211.79
833.06	211.95
833.38	211.88
833.69	211.88
834.01	211.91
834.32	211.81
834.64	211.80
834.96	211.85
835.27	211.86
835.59	211.79
835.90	211.75
836.22	211.73
836.53	211.65
836.85	211.69
837.16	211.94
837.48	211.93
837.79	212.01
838.11	212.06
838.42	212.03
838.74	212.05
839.05	211.94
839.37	211.93
839.68	211.74
840.00	211.65
840.31	211.68
840.63	211.64
840.94	211.70
841.26	211.71
841.57	211.69
841.88	211.72
842.20	211.55
842.51	211.56
842.83	211.56
843.14	211.81
843.46	211.80
843.77	211.66
844.08	211.59
844.40	211.53
844.71	211.45
845.03	211.45
845.34	211.33
845.65	211.46
845.97	211.48
846.28	211.51
846.60	211.56
846.91	211.45
847.22	211.44
847.54	211.50
847.85	211.51
848.16	211.50
848.48	211.40
848.79	211.54
849.10	211.54
849.42	211.58
849.73	211.31
850.04	211.33
850.36	211.19
850.67	211.23
850.98	211.20
851.30	211.27
851.61	211.24
851.92	211.34
852.23	211.40
852.55	211.42
852.86	211.47
853.17	211.50
853.49	211.50
853.80	211.56
854.11	211.57
854.42	211.58
854.74	211.51
855.05	211.55
855.36	211.40
855.67	211.41
855.99	211.37
856.30	211.78
856.61	211.71
856.92	211.71
857.23	211.70
857.55	211.64
857.86	211.60
858.17	211.65
858.48	211.52
858.79	211.43
859.11	211.49
859.42	211.49
859.73	211.45
860.04	211.52
860.35	211.44
860.66	211.35
860.98	211.31
861.29	211.40
861.60	211.40
861.91	211.53
862.22	211.44
862.53	211.38
862.84	211.00
863.16	211.09
863.47	211.05
863.78	211.05
864.09	211.13
864.40	211.10
864.71	211.10
865.02	211.25
865.33	211.19
865.64	211.05
865.95	211.02
866.27	211.26
866.58	211.27
866.89	211.29
867.20	211.30
867.51	211.25
867.82	211.24
868.13	211.40
868.44	211.30
868.75	211.41
869.06	211.45
869.37	211.49
869.68	211.40
869.99	211.47
870.30	211.53
870.61	211.60
870.92	211.62
871.23	211.59
871.54	211.57
871.85	211.69
872.16	211.90
872.47	211.93
872.78	211.73
873.09	211.70
873.40	211.68
873.71	211.67
874.02	211.74
874.33	211.68
874.64	211.46
874.95	211.55
875.26	211.53
875.56	211.52
875.87	211.48
876.18	211.51
876.49	211.86
876.80	211.85
877.11	211.78
877.42	211.79
877.73	211.85
878.04	211.80
878.35	211.83
878.66	211.71
878.96	211.63
879.27	211.60
879.58	211.63
879.89	211.65
880.20	211.81
880.51	211.80
880.82	211.87
881.12	211.88
881.43	211.75
881.74	211.66
882.05	211.69
882.36	211.75
882.67	211.79
882.97	211.44
883.28	211.39
883.59	211.35
883.90	211.37
884.21	211.41
884.51	211.37
884.82	211.23
885.13	211.27
885.44	211.23
885.74	211.23
886.05	211.21
886.36	211.24
886.67	211.11
886.98	211.27
887.28	211.26
887.59	211.39
887.90	211.43
888.20	211.41
888.51	211.46
888.82	211.42
889.13	211.38
889.43	211.61
889.74	211.57
890.05	211.60
890.35	211.55
890.66	211.49
890.97	211.55
891.28	211.55
891.58	211.49
891.89	211.52
892.20	211.49
892.50	211.39
892.81	211.29
893.12	211.22
893.42	211.10
893.73	211.06
894.04	211.01
894.34	211.00
894.65	210.95
894.95	210.90
895.26	210.87
895.57	211.04
895.87	210.63
896.18	210.72
896.48	210.71
896.79	210.74
897.10	210.78
897.40	210.74
897.71	210.74
898.01	210.75
898.32	210.79
898.63	210.81
898.93	210.84
899.24	210.92
899.54	210.96
899.85	210.81
900.15	210.81
900.46	210.76
900.76	210.85
901.07	210.89
901.38	210.92
901.68	210.93
901.99	210.80
902.29	210.93
902.60	210.94
902.90	210.87
903.21	210.84
903.51	210.77
903.82	210.85
904.12	210.89
904.43	210.88
904.73	210.85
905.03	210.84
905.34	211.20
905.64	211.18
905.95	211.13
906.25	211.21
906.56	211.20
906.86	211.19
907.17	211.11
907.47	211.09
907.77	211.05
908.08	211.03
908.38	210.95
908.69	210.92
908.99	210.89
909.30	210.92
909.60	210.91
909.90	210.91
910.21	210.75
910.51	210.74
910.81	210.77
911.12	210.78
911.42	210.80
911.73	210.44
912.03	210.47
912.33	210.60
912.64	210.57
912.94	210.53
913.24	210.51
913.55	210.55
913.85	210.60
914.15	210.66
914.46	210.71
914.76	210.73
915.06	210.73
915.37	210.64
915.67	210.66
915.97	210.69
916.27	210.70
916.58	210.79
916.88	210.73
917.18	210.68
917.49	210.93
917.79	210.91
918.09	210.93
918.39	211.01
918.70	210.93
919.00	210.93
919.30	211.10
919.60	211.14
919.91	211.07
920.21	211.11
920.51	211.08
920.81	211.01
921.12	211.05
921.42	211.05
921.72	211.15
922.02	211.20
922.32	211.22
922.63	211.17
922.93	211.32
923.23	211.38
923.53	211.38
923.83	211.18
924.13	211.14
924.44	211.19
924.74	211.25
925.04	211.33
925.34	211.35
925.64	211.25
925.94	211.14
926.24	211.35
926.55	211.26
926.85	211.23
927.15	211.24
927.45	211.26
927.75	211.26
928.05	211.28
928.35	211.24
928.65	211.30
928.95	211.34
929.26	211.18
929.56	211.25
929.86	211.32
930.16	211.25
930.46	211.26
930.76	211.26
931.06	211.05
931.36	210.95
931.66	211.03
931.96	211.06
932.26	211.15
932.56	211.00
932.86	211.00
933.16	211.03
933.46	211.01
933.76	210.97
934.06	211.08
934.36	211.22
934.66	211.24
934.96	211.22
935.26	211.24
935.56	211.32
935.86	211.22
936.16	211.20
936.46	211.19
936.76	211.23
937.06	211.15
937.36	211.23
937.66	211.29
937.96	211.18
938.26	211.08
938.56	211.11
938.86	211.18
939.16	211.28
939.46	211.35
939.76	211.38
940.06	211.40
940.35	211.26
940.65	211.07
940.95	211.06
941.25	211.02
941.55	210.96
941.85	210.91
942.15	210.99
942.45	211.03
942.75	211.04
943.04	211.02
943.34	211.12
943.64	211.09
943.94	211.03
944.24	211.03
944.54	211.15
944.84	211.13
945.13	211.02
945.43	210.94
945.73	210.89
946.03	210.90
946.33	210.85
946.62	210.80
946.92	210.77
947.22	210.83
947.52	210.82
947.82	210.95
948.11	210.92
948.41	210.78
948.71	210.69
949.01	210.74
949.31	210.74
949.60	210.67
949.90	210.72
950.20	210.68
950.50	210.76
950.79	210.70
951.09	210.73
951.39	210.81
951.69	210.84
951.98	210.91
952.28	211.00
952.58	211.04
952.87	211.08
953.17	211.17
953.47	211.08
953.76	211.10
954.06	211.03
954.36	211.04
954.66	211.13
954.95	211.25
955.25	211.27
955.55	211.34
955.84	211.35
956.14	211.37
956.44	211.49
956.73	211.43
957.03	211.43
957.32	211.49
957.62	211.40
957.92	211.42
958.21	211.32
958.51	211.64
958.81	211.67
959.10	211.73
959.40	211.87
959.69	211.88
959.99	211.93
960.29	211.94
960.58	211.93
960.88	211.97
961.17	211.96
961.47	211.96
961.76	211.89
962.06	211.92
962.36	211.88
962.65	211.80
962.95	211.86
963.24	211.89
963.54	211.84
963.83	211.87
964.13	211.87
964.42	211.82
964.72	211.50
965.01	211.50
965.31	211.49
965.60	211.32
965.90	211.56
966.19	211.50
966.49	211.45
966.78	211.40
967.08	211.43
967.37	211.40
967.67	211.33
967.96	211.36
968.26	211.39
968.55	211.44
968.85	211.38
969.14	211.32
969.43	211.22
969.73	211.20
970.02	211.26
970.32	211.24
970.61	211.24
970.91	211.10
971.20	211.09
971.49	211.07
971.79	211.12
972.08	210.92
972.38	210.88
972.67	210.85
972.96	211.00
973.26	210.87
973.55	210.96
973.85	210.96
974.14	210.93
974.43	210.90
974.73	210.81
975.02	210.88
975.31	210.87
975.61	210.94
975.90	210.96
976.19	210.86
976.49	210.86
976.78	210.88
977.07	210.96
977.37	210.94
977.66	210.86
977.95	210.87
978.24	210.90
978.54	211.04
978.83	211.06
979.12	211.04
979.42	211.11
979.71	211.07
980.00	211.03
980.29	211.04
980.59	211.02
980.88	211.15
981.17	211.10
981.46	211.11
981.76	211.09
982.05	211.18
982.34	211.21
982.63	211.23
982.93	211.25
983.22	211.32
983.51	211.34
983.80	211.47
984.09	211.48
984.39	211.39
984.68	211.31
984.97	211.32
985.26	211.20
985.55	211.20
985.85	211.10
986.14	211.23
986.43	211.26
986.72	211.20
987.01	211.14
987.30	211.23
987.59	211.15
987.89	211.14
988.18	211.02
988.47	211.01
988.76	210.96
989.05	210.99
989.34	210.85
989.63	210.99
989.92	210.94
990.22	210.88
990.51	210.87
990.80	210.76
991.09	210.76
991.38	210.86
991.67	210.81
991.96	210.77
992.25	210.74
992.54	210.66
992.83	210.66
993.12	210.57
993.41	210.52
993.70	210.66
993.99	210.72
994.28	210.75
994.58	210.83
994.87	210.76
995.16	210.67
995.45	210.74
995.74	210.58
996.03	210.60
996.32	210.59
996.61	210.65
996.90	210.69
997.19	210.67
997.48	210.65
997.77	210.61
998.06	210.65
998.34	210.66
998.63	210.70
998.92	210.74
999.21	210.82
999.50	210.86
999.79	210.76
1000.08	210.74
1000.37	210.76
1000.66	210.71
1000.95	210.87
1001.24	210.90
1001.53	210.88
1001.82	210.88
1002.11	210.81
1002.40	210.87
1002.68	210.91
1002.97	211.09
1003.26	211.04
1003.55	210.97
1003.84	211.02
1004.13	211.13
1004.42	211.08
1004.71	211.03
1004.99	211.00
1005.28	211.05
1005.57	211.02
1005.86	210.96
1006.15	210.93
1006.44	210.86
1006.72	210.85
1007.01	210.81
1007.30	210.81
1007.59	210.77
1007.88	210.69
1008.17	210.71
1008.45	210.64
1008.74	210.59
1009.03	210.50
1009.32	210.55
1009.60	210.56
1009.89	210.52
1010.18	210.31
1010.47	210.32
1010.76	210.34
1011.04	210.38
1011.33	210.38
1011.62	210.37
1011.91	210.46
1012.19	210.51
1012.48	210.48
1012.77	210.52
1013.05	210.63
1013.34	210.64
1013.63	210.69
1013.92	210.78
1014.20	210.78
1014.49	210.78
1014.78	210.76
1015.06	210.66
1015.35	210.62
1015.64	210.73
1015.92	210.76
1016.21	210.89
1016.50	210.90
1016.78	210.85
1017.07	210.81
1017.36	210.71
1017.64	210.71
1017.93	210.72
1018.22	210.66
1018.50	210.70
1018.79	210.71
1019.08	210.47
1019.36	210.52
1019.65	210.45
1019.93	210.51
1020.22	210.52
1020.51	210.70
1020.79	210.67
1021.08	209.85
1021.36	210.65
1021.65	211.50
1021.94	208.30
1022.22	211.70
1022.51	209.65
1022.79	212.25
1023.08	211.00
1023.36	214.45
1023.65	209.65
>>>>>End Processed Spectral Data<<<<<
