SpectraSuite Data File
++++++++++++++++++++++++++++++++++++
Date: Mon Feb 25 16:58:48 EST 2013
User: group
Dark Spectrum Present: No
Reference Spectrum Present: No
Number of Sampled Component Spectra: 1
Spectrometers: USB2E7196
Integration Time (usec): 104000 (USB2E7196)
Spectra Averaged: 20 (USB2E7196)
Boxcar Smoothing: 10 (USB2E7196)
Correct for Electrical Dark: No (USB2E7196)
Strobe/Lamp Enabled: No (USB2E7196)
Correct for Detector Non-linearity: No (USB2E7196)
Correct for Stray Light: No (USB2E7196)
Number of Pixels in Processed Spectrum: 2048
>>>>>Begin Processed Spectral Data<<<<<
339.09	0.00
339.48	198.90
339.86	200.75
340.24	201.80
340.63	204.00
341.01	207.75
341.39	205.85
341.78	208.35
342.16	210.50
342.54	209.40
342.93	198.60
343.31	208.67
343.69	209.17
344.07	209.60
344.46	210.05
344.84	210.37
345.22	210.52
345.60	210.74
345.99	210.86
346.37	210.89
346.75	210.99
347.13	211.02
347.52	211.05
347.90	211.18
348.28	211.28
348.66	211.38
349.05	211.23
349.43	211.26
349.81	211.30
350.19	211.35
350.57	211.40
350.96	211.53
351.34	211.61
351.72	211.73
352.10	211.88
352.48	211.88
352.87	211.96
353.25	212.04
353.63	212.13
354.01	212.15
354.39	212.25
354.77	212.27
355.15	212.43
355.54	212.40
355.92	212.37
356.30	212.41
356.68	212.62
357.06	212.75
357.44	212.75
357.82	212.72
358.20	212.79
358.58	212.86
358.97	212.89
359.35	212.97
359.73	213.13
360.11	213.10
360.49	213.22
360.87	213.25
361.25	213.32
361.63	213.51
362.01	213.55
362.39	213.50
362.77	213.56
363.15	213.56
363.53	213.63
363.91	213.59
364.29	213.60
364.67	213.28
365.05	213.32
365.43	213.33
365.81	213.38
366.19	213.58
366.57	213.66
366.95	213.67
367.33	213.54
367.71	213.52
368.09	213.50
368.47	213.49
368.85	213.52
369.23	213.55
369.61	213.41
369.99	213.48
370.37	213.55
370.75	213.74
371.13	213.61
371.51	213.53
371.89	213.57
372.27	213.55
372.65	213.65
373.03	213.58
373.41	213.50
373.78	213.43
374.16	213.16
374.54	213.06
374.92	212.96
375.30	212.92
375.68	212.72
376.06	212.83
376.44	212.72
376.82	212.65
377.19	212.55
377.57	212.44
377.95	212.27
378.33	212.12
378.71	211.85
379.09	211.88
379.47	211.89
379.84	211.87
380.22	211.81
380.60	211.61
380.98	211.59
381.36	211.59
381.73	211.51
382.11	211.56
382.49	211.56
382.87	211.51
383.25	211.48
383.62	211.87
384.00	211.68
384.38	211.68
384.76	211.75
385.13	211.89
385.51	211.91
385.89	211.85
386.27	211.89
386.64	211.91
387.02	211.82
387.40	211.72
387.78	211.66
388.15	211.58
388.53	211.55
388.91	211.54
389.29	211.49
389.66	211.60
390.04	211.49
390.42	211.48
390.79	211.46
391.17	211.47
391.55	211.06
391.92	211.12
392.30	211.05
392.68	210.99
393.05	210.88
393.43	210.84
393.81	210.92
394.18	210.94
394.56	210.92
394.94	210.99
395.31	211.00
395.69	211.10
396.06	211.18
396.44	211.25
396.82	211.22
397.19	211.40
397.57	211.39
397.95	211.50
398.32	211.48
398.70	211.58
399.07	211.74
399.45	211.76
399.82	211.76
400.20	211.90
400.58	211.92
400.95	211.92
401.33	212.05
401.70	212.34
402.08	212.39
402.45	212.50
402.83	212.67
403.20	212.79
403.58	212.87
403.95	213.06
404.33	213.24
404.71	213.36
405.08	213.82
405.46	213.94
405.83	214.11
406.21	214.38
406.58	214.61
406.96	214.78
407.33	215.14
407.70	215.54
408.08	216.19
408.45	216.64
408.83	217.09
409.20	217.51
409.58	217.78
409.95	218.38
410.33	218.97
410.70	219.45
411.08	220.12
411.45	220.84
411.82	221.60
412.20	222.45
412.57	223.57
412.95	224.07
413.32	225.14
413.69	226.17
414.07	227.24
414.44	228.41
414.82	229.74
415.19	231.27
415.56	232.69
415.94	233.99
416.31	235.68
416.68	237.46
417.06	239.49
417.43	241.47
417.81	243.52
418.18	245.71
418.55	248.12
418.93	250.68
419.30	253.28
419.67	256.09
420.04	258.95
420.42	261.86
420.79	265.49
421.16	268.95
421.54	272.66
421.91	276.40
422.28	280.34
422.66	284.48
423.03	288.57
423.40	292.90
423.77	297.51
424.15	302.15
424.52	306.99
424.89	312.39
425.26	317.60
425.64	322.63
426.01	328.14
426.38	333.87
426.75	339.72
427.13	345.77
427.50	352.11
427.87	358.84
428.24	365.58
428.61	371.86
428.99	378.97
429.36	386.48
429.73	394.07
430.10	401.70
430.47	409.50
430.85	417.43
431.22	425.94
431.59	435.02
431.96	443.63
432.33	453.24
432.70	462.37
433.08	473.32
433.45	483.64
433.82	493.79
434.19	505.21
434.56	516.49
434.93	527.37
435.30	538.20
435.68	550.18
436.05	562.23
436.42	574.35
436.79	585.26
437.16	597.43
437.53	609.94
437.90	622.45
438.27	634.72
438.64	647.56
439.01	659.53
439.38	670.42
439.75	681.00
440.13	692.86
440.50	704.35
440.87	713.74
441.24	723.59
441.61	734.50
441.98	742.80
442.35	752.24
442.72	761.82
443.09	771.04
443.46	777.03
443.83	781.25
444.20	784.99
444.57	790.43
444.94	793.13
445.31	796.45
445.68	799.26
446.05	801.18
446.42	801.05
446.79	800.73
447.16	800.03
447.53	799.92
447.90	796.19
448.27	792.52
448.64	786.74
449.01	782.91
449.37	775.49
449.74	768.36
450.11	759.90
450.48	750.23
450.85	740.46
451.22	732.15
451.59	724.13
451.96	716.38
452.33	705.72
452.70	696.55
453.07	684.96
453.43	673.36
453.80	662.24
454.17	651.44
454.54	641.16
454.91	630.11
455.28	619.32
455.65	609.48
456.02	599.48
456.38	591.28
456.75	580.56
457.12	571.78
457.49	563.03
457.86	554.32
458.23	547.06
458.59	539.06
458.96	530.91
459.33	523.71
459.70	516.50
460.07	510.84
460.43	504.12
460.80	497.92
461.17	492.58
461.54	486.69
461.91	481.28
462.27	475.75
462.64	471.10
463.01	465.85
463.38	460.90
463.74	455.76
464.11	451.25
464.48	447.49
464.85	443.30
465.21	440.03
465.58	436.54
465.95	432.26
466.32	428.73
466.68	425.18
467.05	421.69
467.42	418.31
467.78	414.66
468.15	411.14
468.52	408.56
468.88	405.13
469.25	402.15
469.62	399.77
469.98	397.11
470.35	394.64
470.72	392.34
471.08	389.77
471.45	387.67
471.82	385.50
472.18	383.07
472.55	381.37
472.92	379.19
473.28	377.40
473.65	375.80
474.02	374.03
474.38	372.57
474.75	371.48
475.11	370.23
475.48	369.33
475.85	368.38
476.21	367.41
476.58	366.70
476.94	366.16
477.31	365.30
477.67	364.59
478.04	364.00
478.41	363.60
478.77	363.48
479.14	363.03
479.50	362.85
479.87	362.85
480.23	362.78
480.60	362.87
480.96	362.66
481.33	362.95
481.69	363.31
482.06	363.64
482.42	363.75
482.79	363.98
483.15	364.34
483.52	365.07
483.88	365.52
484.25	366.05
484.61	366.60
484.98	367.43
485.34	368.43
485.71	369.55
486.07	370.60
486.44	371.48
486.80	372.59
487.17	373.80
487.53	375.29
487.90	376.83
488.26	378.40
488.62	380.35
488.99	382.00
489.35	383.74
489.72	385.68
490.08	387.77
490.44	389.87
490.81	392.15
491.17	394.36
491.54	396.91
491.90	399.42
492.26	402.00
492.63	404.71
492.99	407.42
493.36	410.29
493.72	413.32
494.08	416.50
494.45	419.86
494.81	423.33
495.17	426.57
495.54	430.11
495.90	433.65
496.26	437.21
496.63	440.95
496.99	444.80
497.35	448.67
497.72	452.53
498.08	456.58
498.44	460.53
498.80	464.88
499.17	469.24
499.53	473.50
499.89	477.91
500.26	482.07
500.62	486.32
500.98	490.76
501.34	495.10
501.71	499.44
502.07	503.89
502.43	508.21
502.79	512.62
503.16	516.89
503.52	521.36
503.88	525.57
504.24	529.99
504.60	534.35
504.97	538.82
505.33	543.21
505.69	547.80
506.05	552.30
506.41	556.38
506.78	560.22
507.14	564.28
507.50	568.47
507.86	572.81
508.22	576.88
508.59	580.52
508.95	584.45
509.31	588.45
509.67	592.31
510.03	596.15
510.39	600.02
510.75	603.81
511.12	607.40
511.48	611.00
511.84	614.47
512.20	617.85
512.56	621.17
512.92	624.51
513.28	627.63
513.64	630.65
514.00	633.58
514.37	636.72
514.73	639.77
515.09	642.72
515.45	645.39
515.81	648.25
516.17	651.05
516.53	653.62
516.89	655.82
517.25	658.15
517.61	660.30
517.97	662.49
518.33	664.35
518.69	666.43
519.05	668.48
519.41	670.39
519.77	672.53
520.13	674.12
520.49	675.75
520.85	677.38
521.21	679.24
521.57	680.88
521.93	682.29
522.29	683.92
522.65	685.18
523.01	686.56
523.37	687.68
523.73	689.09
524.09	690.29
524.45	691.81
524.81	693.09
525.17	694.59
525.53	695.89
525.89	697.46
526.25	698.89
526.61	700.02
526.97	701.37
527.33	702.56
527.68	704.32
528.04	705.69
528.40	706.88
528.76	707.92
529.12	709.39
529.48	711.05
529.84	712.38
530.20	714.01
530.56	715.50
530.91	717.31
531.27	718.80
531.63	720.58
531.99	722.25
532.35	723.77
532.71	725.20
533.07	727.01
533.42	728.88
533.78	730.50
534.14	732.50
534.50	733.97
534.86	735.82
535.21	737.10
535.57	739.12
535.93	740.89
536.29	742.87
536.65	744.79
537.00	746.45
537.36	748.08
537.72	749.81
538.08	751.58
538.44	753.29
538.79	755.41
539.15	757.33
539.51	759.25
539.87	761.53
540.22	763.57
540.58	765.79
540.94	767.73
541.29	769.75
541.65	771.59
542.01	773.99
542.37	776.02
542.72	778.53
543.08	780.65
543.44	783.11
543.79	784.94
544.15	787.15
544.51	789.54
544.87	792.10
545.22	794.43
545.58	796.81
545.94	798.96
546.29	800.86
546.65	802.94
547.01	804.93
547.36	807.07
547.72	809.36
548.07	811.23
548.43	813.07
548.79	814.93
549.14	817.05
549.50	819.07
549.86	820.93
550.21	822.77
550.57	824.96
550.92	826.75
551.28	829.07
551.64	831.18
551.99	833.15
552.35	835.06
552.70	837.08
553.06	839.02
553.41	841.23
553.77	843.67
554.13	846.05
554.48	848.42
554.84	850.46
555.19	852.48
555.55	854.89
555.90	856.81
556.26	858.72
556.61	860.42
556.97	862.15
557.32	864.13
557.68	865.89
558.03	867.49
558.39	869.07
558.74	870.90
559.10	872.44
559.45	874.21
559.81	876.13
560.16	877.61
560.52	879.43
560.87	881.07
561.23	882.19
561.58	883.67
561.94	885.00
562.29	886.08
562.64	887.59
563.00	888.66
563.35	890.49
563.71	892.36
564.06	894.03
564.42	895.78
564.77	897.41
565.12	899.33
565.48	901.05
565.83	902.81
566.19	904.43
566.54	905.97
566.89	907.20
567.25	908.82
567.60	910.24
567.96	911.93
568.31	913.51
568.66	915.05
569.02	915.93
569.37	916.60
569.72	917.85
570.08	918.88
570.43	919.86
570.78	920.48
571.14	920.90
571.49	921.39
571.84	921.95
572.20	922.21
572.55	922.27
572.90	922.09
573.26	921.89
573.61	921.74
573.96	921.64
574.31	921.44
574.67	920.67
575.02	920.16
575.37	919.21
575.72	918.15
576.08	917.64
576.43	916.97
576.78	916.54
577.13	915.86
577.49	914.96
577.84	914.00
578.19	913.29
578.54	912.98
578.90	912.52
579.25	911.49
579.60	910.67
579.95	909.57
580.30	908.69
580.66	908.05
581.01	906.85
581.36	905.44
581.71	904.29
582.06	903.29
582.42	902.14
582.77	900.81
583.12	899.40
583.47	898.07
583.82	896.82
584.17	895.56
584.53	894.35
584.88	892.83
585.23	891.51
585.58	889.98
585.93	888.08
586.28	886.53
586.63	885.18
586.98	883.66
587.34	882.38
587.69	880.75
588.04	879.21
588.39	877.77
588.74	876.19
589.09	874.78
589.44	872.69
589.79	871.21
590.14	869.72
590.49	868.30
590.84	866.35
591.19	864.90
591.54	863.23
591.89	861.05
592.25	859.53
592.60	857.41
592.95	855.35
593.30	853.18
593.65	850.81
594.00	848.54
594.35	847.55
594.70	845.14
595.05	843.34
595.40	841.15
595.75	838.75
596.10	836.90
596.45	834.81
596.80	832.97
597.15	831.05
597.50	828.67
597.85	826.42
598.19	824.18
598.54	821.78
598.89	819.50
599.24	817.76
599.59	815.45
599.94	813.54
600.29	811.42
600.64	809.45
600.99	807.33
601.34	805.29
601.69	801.89
602.04	799.77
602.39	797.31
602.74	795.07
603.08	793.08
603.43	791.03
603.78	788.74
604.13	786.46
604.48	783.95
604.83	782.03
605.18	780.13
605.53	777.83
605.87	775.50
606.22	773.24
606.57	770.58
606.92	768.04
607.27	765.60
607.62	763.23
607.96	760.79
608.31	758.67
608.66	756.10
609.01	753.59
609.36	751.04
609.70	748.30
610.05	745.68
610.40	743.14
610.75	740.23
611.10	737.86
611.44	734.96
611.79	732.09
612.14	729.15
612.49	726.01
612.83	723.40
613.18	720.51
613.53	717.66
613.88	714.90
614.22	712.31
614.57	709.43
614.92	706.73
615.27	703.84
615.61	700.79
615.96	697.98
616.31	695.30
616.65	692.91
617.00	690.23
617.35	687.49
617.70	684.52
618.04	681.64
618.39	678.26
618.74	675.67
619.08	672.83
619.43	669.98
619.78	667.41
620.12	664.77
620.47	662.11
620.82	659.26
621.16	656.35
621.51	653.56
621.85	650.79
622.20	647.92
622.55	645.11
622.89	642.25
623.24	639.41
623.59	636.49
623.93	633.50
624.28	630.87
624.62	628.34
624.97	625.69
625.32	622.95
625.66	620.46
626.01	617.71
626.35	615.25
626.70	612.55
627.04	610.04
627.39	607.33
627.73	604.88
628.08	602.41
628.43	599.84
628.77	597.06
629.12	594.28
629.46	591.72
629.81	589.20
630.15	586.71
630.50	584.09
630.84	581.45
631.19	578.93
631.53	576.44
631.88	573.63
632.22	570.92
632.57	568.64
632.91	566.19
633.26	563.78
633.60	561.26
633.95	559.00
634.29	556.31
634.64	553.89
634.98	551.23
635.32	548.82
635.67	546.78
636.01	544.45
636.36	542.16
636.70	539.90
637.05	537.69
637.39	535.60
637.73	533.59
638.08	531.77
638.42	529.73
638.77	527.59
639.11	525.43
639.45	523.42
639.80	521.00
640.14	518.73
640.49	516.55
640.83	514.34
641.17	512.09
641.52	509.88
641.86	507.55
642.20	505.48
642.55	503.09
642.89	500.61
643.23	498.38
643.58	496.47
643.92	494.20
644.26	491.98
644.61	489.73
644.95	487.45
645.29	485.10
645.64	482.72
645.98	480.58
646.32	478.56
646.66	476.30
647.01	474.22
647.35	472.31
647.69	470.10
648.04	468.04
648.38	465.90
648.72	463.81
649.06	461.78
649.41	459.65
649.75	457.70
650.09	455.75
650.43	453.81
650.78	451.61
651.12	449.52
651.46	447.52
651.80	445.54
652.14	443.69
652.49	441.69
652.83	439.86
653.17	437.67
653.51	435.49
653.85	433.69
654.20	431.89
654.54	429.76
654.88	427.82
655.22	425.96
655.56	423.95
655.90	422.01
656.25	420.00
656.59	418.08
656.93	416.29
657.27	414.55
657.61	412.45
657.95	410.68
658.29	408.90
658.64	407.26
658.98	405.41
659.32	403.36
659.66	401.45
660.00	399.41
660.34	397.61
660.68	395.79
661.02	393.85
661.36	391.98
661.70	390.33
662.05	388.59
662.39	387.00
662.73	385.50
663.07	384.07
663.41	382.53
663.75	380.87
664.09	379.26
664.43	377.55
664.77	376.19
665.11	374.54
665.45	373.03
665.79	371.41
666.13	369.85
666.47	368.52
666.81	367.08
667.15	365.60
667.49	364.30
667.83	363.12
668.17	361.67
668.51	360.39
668.85	359.05
669.19	358.00
669.53	356.46
669.87	355.05
670.21	353.66
670.55	352.32
670.89	351.25
671.23	349.95
671.57	348.66
671.91	347.35
672.25	346.18
672.58	345.03
672.92	343.76
673.26	342.68
673.60	341.35
673.94	340.24
674.28	339.20
674.62	338.16
674.96	336.89
675.30	335.91
675.64	334.75
675.97	333.63
676.31	332.33
676.65	331.31
676.99	330.37
677.33	329.11
677.67	328.08
678.01	326.89
678.34	325.79
678.68	324.75
679.02	323.67
679.36	322.58
679.70	321.45
680.04	320.44
680.37	319.23
680.71	318.26
681.05	317.30
681.39	316.28
681.73	315.12
682.06	314.29
682.40	313.31
682.74	312.35
683.08	311.40
683.42	310.50
683.75	309.56
684.09	308.53
684.43	307.78
684.77	306.80
685.10	305.78
685.44	304.80
685.78	303.87
686.12	303.00
686.45	302.13
686.79	301.25
687.13	300.35
687.46	299.57
687.80	298.80
688.14	297.92
688.48	297.10
688.81	296.34
689.15	295.42
689.49	294.57
689.82	293.73
690.16	292.78
690.50	291.77
690.83	290.86
691.17	289.96
691.51	289.03
691.84	288.26
692.18	287.50
692.52	286.83
692.85	286.11
693.19	285.50
693.52	284.73
693.86	283.90
694.20	283.19
694.53	282.49
694.87	281.69
695.21	280.86
695.54	280.05
695.88	279.19
696.21	278.39
696.55	277.68
696.88	276.92
697.22	276.20
697.56	275.59
697.89	274.90
698.23	274.21
698.56	273.54
698.90	272.83
699.23	272.14
699.57	271.48
699.90	270.78
700.24	270.01
700.58	269.40
700.91	268.86
701.25	268.44
701.58	267.86
701.92	267.37
702.25	266.74
702.59	266.05
702.92	265.57
703.26	264.97
703.59	264.40
703.93	264.17
704.26	263.57
704.60	263.02
704.93	262.43
705.26	261.80
705.60	261.36
705.93	260.83
706.27	260.43
706.60	260.05
706.94	259.65
707.27	259.05
707.61	258.53
707.94	257.93
708.27	257.11
708.61	256.50
708.94	255.96
709.28	255.53
709.61	255.15
709.94	254.67
710.28	254.21
710.61	253.80
710.95	253.01
711.28	252.93
711.61	252.53
711.95	252.16
712.28	251.83
712.61	251.33
712.95	251.10
713.28	250.73
713.61	250.19
713.95	249.71
714.28	249.36
714.61	248.90
714.95	248.45
715.28	248.06
715.61	247.70
715.95	247.29
716.28	246.92
716.61	246.53
716.95	246.09
717.28	245.67
717.61	245.25
717.94	244.89
718.28	244.23
718.61	243.84
718.94	243.51
719.27	243.15
719.61	242.90
719.94	242.41
720.27	241.95
720.60	241.60
720.94	241.29
721.27	240.96
721.60	240.67
721.93	240.47
722.27	240.31
722.60	239.98
722.93	239.69
723.26	239.45
723.59	239.16
723.93	238.97
724.26	238.79
724.59	238.45
724.92	238.17
725.25	238.06
725.59	237.84
725.92	237.61
726.25	237.31
726.58	236.98
726.91	236.72
727.24	236.53
727.57	236.25
727.91	235.84
728.24	235.70
728.57	235.44
728.90	235.32
729.23	235.03
729.56	234.99
729.89	234.67
730.22	234.38
730.55	234.14
730.89	233.88
731.22	233.68
731.55	233.55
731.88	233.35
732.21	233.00
732.54	232.77
732.87	232.54
733.20	232.45
733.53	232.27
733.86	232.18
734.19	231.93
734.52	231.89
734.85	232.05
735.18	231.76
735.51	231.76
735.84	231.47
736.17	231.31
736.50	231.00
736.83	231.29
737.16	231.06
737.49	230.91
737.82	230.59
738.15	230.37
738.48	230.14
738.81	229.89
739.14	229.69
739.47	229.45
739.80	229.19
740.13	228.97
740.46	228.84
740.79	228.49
741.12	228.35
741.45	228.00
741.78	227.53
742.11	227.44
742.44	227.14
742.77	227.04
743.10	226.87
743.43	226.66
743.75	226.06
744.08	226.41
744.41	226.20
744.74	226.10
745.07	225.90
745.40	225.80
745.73	225.82
746.06	225.70
746.39	225.54
746.71	225.46
747.04	225.29
747.37	225.08
747.70	225.09
748.03	224.88
748.36	224.88
748.68	224.79
749.01	224.53
749.34	224.39
749.67	224.25
750.00	224.15
750.33	224.27
750.65	224.22
750.98	223.60
751.31	223.51
751.64	223.45
751.97	223.46
752.29	223.30
752.62	223.06
752.95	222.86
753.28	222.75
753.60	222.56
753.93	222.47
754.26	222.36
754.59	222.17
754.91	222.04
755.24	221.89
755.57	221.77
755.90	221.62
756.22	221.49
756.55	221.26
756.88	221.06
757.20	220.67
757.53	220.39
757.86	220.25
758.19	220.20
758.51	220.05
758.84	219.84
759.17	219.76
759.49	219.62
759.82	219.75
760.15	219.72
760.47	219.67
760.80	219.53
761.13	219.50
761.45	219.38
761.78	219.39
762.11	219.39
762.43	219.29
762.76	219.25
763.08	219.24
763.41	219.26
763.74	219.18
764.06	219.18
764.39	219.11
764.71	219.05
765.04	218.92
765.37	218.91
765.69	218.80
766.02	218.72
766.34	218.66
766.67	218.42
767.00	218.38
767.32	218.55
767.65	218.67
767.97	218.60
768.30	218.56
768.62	218.46
768.95	218.25
769.27	218.20
769.60	218.22
769.92	218.04
770.25	217.90
770.57	217.78
770.90	217.73
771.22	217.76
771.55	217.75
771.87	217.66
772.20	217.46
772.52	217.73
772.85	218.02
773.17	218.00
773.50	217.97
773.82	217.83
774.15	217.58
774.47	217.32
774.80	217.19
775.12	217.12
775.45	217.05
775.77	217.08
776.09	217.07
776.42	217.00
776.74	217.17
777.07	217.07
777.39	216.99
777.72	216.83
778.04	216.74
778.36	216.64
778.69	216.64
779.01	216.68
779.33	216.31
779.66	215.92
779.98	215.84
780.31	215.78
780.63	215.93
780.95	215.88
781.28	215.79
781.60	215.81
781.92	215.76
782.25	215.68
782.57	215.64
782.89	215.52
783.22	215.50
783.54	215.26
783.86	215.26
784.19	215.26
784.51	215.38
784.83	215.34
785.16	215.33
785.48	215.30
785.80	215.37
786.12	215.38
786.45	215.36
786.77	215.32
787.09	215.29
787.42	215.10
787.74	215.10
788.06	215.08
788.38	214.90
788.71	214.85
789.03	214.88
789.35	214.86
789.67	214.78
789.99	214.72
790.32	214.69
790.64	214.71
790.96	214.99
791.28	214.80
791.61	214.77
791.93	214.74
792.25	214.64
792.57	214.79
792.89	214.65
793.21	214.64
793.54	214.65
793.86	214.59
794.18	214.57
794.50	214.46
794.82	214.47
795.14	214.54
795.47	214.52
795.79	214.51
796.11	214.30
796.43	214.29
796.75	214.27
797.07	214.31
797.39	214.28
797.71	214.04
798.04	214.07
798.36	214.08
798.68	214.05
799.00	214.04
799.32	213.78
799.64	213.87
799.96	213.79
800.28	213.78
800.60	213.74
800.92	213.79
801.24	213.78
801.56	213.83
801.89	213.76
802.21	213.80
802.53	213.77
802.85	213.90
803.17	214.04
803.49	213.96
803.81	213.91
804.13	213.87
804.45	213.78
804.77	213.76
805.09	213.67
805.41	213.61
805.73	213.57
806.05	213.47
806.37	213.44
806.69	213.40
807.01	213.32
807.33	213.29
807.65	213.09
807.97	213.26
808.28	213.14
808.60	213.13
808.92	213.10
809.24	213.23
809.56	213.14
809.88	212.99
810.20	213.03
810.52	213.02
810.84	212.92
811.16	212.86
811.48	212.83
811.80	212.96
812.12	212.91
812.43	212.89
812.75	212.89
813.07	212.83
813.39	212.87
813.71	212.86
814.03	212.81
814.35	212.81
814.67	212.64
814.98	212.62
815.30	212.61
815.62	212.45
815.94	212.20
816.26	212.20
816.58	212.16
816.89	212.16
817.21	212.04
817.53	212.01
817.85	212.03
818.17	211.98
818.48	211.83
818.80	211.91
819.12	211.90
819.44	211.80
819.76	211.81
820.07	211.78
820.39	211.74
820.71	211.85
821.03	211.87
821.34	211.82
821.66	211.84
821.98	211.92
822.30	211.95
822.61	212.16
822.93	212.08
823.25	212.03
823.57	211.92
823.88	212.08
824.20	212.11
824.52	212.15
824.83	212.13
825.15	212.15
825.47	212.16
825.79	212.20
826.10	212.25
826.42	212.21
826.74	212.23
827.05	212.23
827.37	212.19
827.69	212.20
828.00	212.19
828.32	212.20
828.64	212.11
828.95	212.24
829.27	212.16
829.58	212.25
829.90	212.35
830.22	212.44
830.53	212.35
830.85	212.34
831.17	212.30
831.48	212.33
831.80	212.30
832.11	212.28
832.43	212.23
832.75	212.23
833.06	212.41
833.38	212.35
833.69	212.38
834.01	212.38
834.32	212.32
834.64	212.35
834.96	212.32
835.27	212.35
835.59	212.33
835.90	212.29
836.22	212.25
836.53	212.19
836.85	212.10
837.16	212.37
837.48	212.44
837.79	212.50
838.11	212.56
838.42	212.57
838.74	212.55
839.05	212.50
839.37	212.45
839.68	212.28
840.00	212.30
840.31	212.34
840.63	212.34
840.94	212.32
841.26	212.26
841.57	212.31
841.88	212.31
842.20	212.22
842.51	212.23
842.83	212.20
843.14	212.51
843.46	212.47
843.77	212.36
844.08	212.27
844.40	212.21
844.71	212.08
845.03	212.01
845.34	212.01
845.65	212.04
845.97	212.06
846.28	212.08
846.60	212.00
846.91	211.88
847.22	211.84
847.54	211.90
847.85	211.93
848.16	211.91
848.48	211.80
848.79	211.90
849.10	211.87
849.42	211.87
849.73	211.45
850.04	211.49
850.36	211.32
850.67	211.41
850.98	211.43
851.30	211.48
851.61	211.50
851.92	211.53
852.23	211.63
852.55	211.70
852.86	211.69
853.17	211.73
853.49	211.79
853.80	211.88
854.11	211.92
854.42	211.93
854.74	211.83
855.05	211.88
855.36	211.76
855.67	211.73
855.99	211.75
856.30	212.20
856.61	212.21
856.92	212.27
857.23	212.24
857.55	212.17
857.86	212.13
858.17	212.20
858.48	212.10
858.79	212.11
859.11	212.10
859.42	212.10
859.73	212.08
860.04	212.15
860.35	212.06
860.66	212.01
860.98	212.01
861.29	212.08
861.60	212.09
861.91	212.17
862.22	212.12
862.53	212.03
862.84	211.65
863.16	211.77
863.47	211.72
863.78	211.70
864.09	211.74
864.40	211.85
864.71	211.86
865.02	211.88
865.33	211.74
865.64	211.63
865.95	211.67
866.27	211.92
866.58	211.85
866.89	211.88
867.20	211.84
867.51	211.82
867.82	211.80
868.13	211.85
868.44	211.80
868.75	211.98
869.06	212.04
869.37	212.02
869.68	211.85
869.99	211.82
870.30	211.82
870.61	211.84
870.92	211.79
871.23	211.79
871.54	211.85
871.85	211.98
872.16	212.03
872.47	211.96
872.78	211.73
873.09	211.76
873.40	211.73
873.71	211.71
874.02	211.69
874.33	211.59
874.64	211.55
874.95	211.58
875.26	211.41
875.56	211.40
875.87	211.40
876.18	211.41
876.49	211.86
876.80	211.82
877.11	211.65
877.42	211.58
877.73	211.55
878.04	211.50
878.35	211.42
878.66	211.37
878.96	211.40
879.27	211.33
879.58	211.26
879.89	211.23
880.20	211.34
880.51	211.36
880.82	211.40
881.12	211.40
881.43	211.26
881.74	211.18
882.05	211.19
882.36	211.23
882.67	211.21
882.97	210.75
883.28	210.70
883.59	210.76
883.90	210.79
884.21	210.88
884.51	210.83
884.82	210.80
885.13	210.83
885.44	210.80
885.74	210.85
886.05	210.90
886.36	210.90
886.67	210.83
886.98	210.99
887.28	211.03
887.59	211.02
887.90	211.06
888.20	211.04
888.51	211.12
888.82	211.06
889.13	211.13
889.43	211.36
889.74	211.42
890.05	211.36
890.35	211.39
890.66	211.30
890.97	211.27
891.28	211.24
891.58	211.26
891.89	211.22
892.20	211.15
892.50	211.05
892.81	211.02
893.12	210.98
893.42	210.80
893.73	210.81
894.04	210.77
894.34	210.86
894.65	210.91
894.95	210.86
895.26	210.84
895.57	210.95
895.87	210.68
896.18	210.68
896.48	210.81
896.79	210.79
897.10	210.84
897.40	210.83
897.71	210.80
898.01	210.76
898.32	210.85
898.63	210.84
898.93	210.90
899.24	210.91
899.54	210.88
899.85	210.85
900.15	210.91
900.46	210.99
900.76	210.97
901.07	210.97
901.38	210.95
901.68	211.04
901.99	210.89
902.29	210.90
902.60	210.91
902.90	210.86
903.21	210.88
903.51	210.84
903.82	210.98
904.12	211.08
904.43	211.20
904.73	211.16
905.03	211.25
905.34	211.56
905.64	211.56
905.95	211.55
906.25	211.64
906.56	211.53
906.86	211.47
907.17	211.46
907.47	211.55
907.77	211.55
908.08	211.47
908.38	211.50
908.69	211.57
908.99	211.61
909.30	211.58
909.60	211.59
909.90	211.60
910.21	211.48
910.51	211.41
910.81	211.39
911.12	211.41
911.42	211.43
911.73	211.09
912.03	211.12
912.33	211.21
912.64	211.12
912.94	211.20
913.24	211.19
913.55	211.16
913.85	211.09
914.15	211.18
914.46	211.24
914.76	211.24
915.06	211.23
915.37	211.20
915.67	211.18
915.97	211.18
916.27	211.10
916.58	211.16
916.88	211.19
917.18	211.25
917.49	211.53
917.79	211.46
918.09	211.52
918.39	211.63
918.70	211.64
919.00	211.72
919.30	211.80
919.60	211.79
919.91	211.72
920.21	211.77
920.51	211.68
920.81	211.64
921.12	211.65
921.42	211.65
921.72	211.72
922.02	211.80
922.32	211.83
922.63	211.81
922.93	211.94
923.23	211.94
923.53	211.78
923.83	211.51
924.13	211.53
924.44	211.54
924.74	211.54
925.04	211.61
925.34	211.55
925.64	211.44
925.94	211.40
926.24	211.57
926.55	211.51
926.85	211.44
927.15	211.45
927.45	211.45
927.75	211.45
928.05	211.35
928.35	211.28
928.65	211.35
928.95	211.46
929.26	211.34
929.56	211.45
929.86	211.50
930.16	211.49
930.46	211.47
930.76	211.44
931.06	211.33
931.36	211.20
931.66	211.24
931.96	211.25
932.26	211.34
932.56	211.27
932.86	211.24
933.16	211.33
933.46	211.28
933.76	211.25
934.06	211.25
934.36	211.39
934.66	211.43
934.96	211.31
935.26	211.33
935.56	211.34
935.86	211.23
936.16	211.24
936.46	211.23
936.76	211.23
937.06	211.20
937.36	211.26
937.66	211.23
937.96	211.21
938.26	211.22
938.56	211.15
938.86	211.12
939.16	211.29
939.46	211.25
939.76	211.34
940.06	211.34
940.35	211.34
940.65	211.19
940.95	211.20
941.25	211.20
941.55	211.15
941.85	211.11
942.15	211.16
942.45	211.17
942.75	211.11
943.04	211.09
943.34	211.18
943.64	211.13
943.94	211.21
944.24	211.21
944.54	211.12
944.84	211.17
945.13	211.13
945.43	211.04
945.73	211.03
946.03	210.99
946.33	210.91
946.62	210.91
946.92	210.94
947.22	210.94
947.52	210.96
947.82	210.99
948.11	211.04
948.41	210.99
948.71	211.02
949.01	211.00
949.31	210.95
949.60	210.84
949.90	210.88
950.20	210.81
950.50	210.80
950.79	210.86
951.09	210.85
951.39	210.85
951.69	210.83
951.98	210.96
952.28	210.95
952.58	211.04
952.87	210.94
953.17	210.95
953.47	210.87
953.76	210.83
954.06	210.76
954.36	210.70
954.66	210.67
954.95	210.69
955.25	210.81
955.55	210.88
955.84	210.87
956.14	210.88
956.44	210.85
956.73	210.82
957.03	210.78
957.32	210.84
957.62	210.76
957.92	210.80
958.21	210.67
958.51	211.11
958.81	211.14
959.10	211.20
959.40	211.28
959.69	211.30
959.99	211.43
960.29	211.48
960.58	211.49
960.88	211.64
961.17	211.59
961.47	211.57
961.76	211.57
962.06	211.65
962.36	211.55
962.65	211.64
962.95	211.63
963.24	211.69
963.54	211.65
963.83	211.76
964.13	211.78
964.42	211.71
964.72	211.35
965.01	211.27
965.31	211.27
965.60	211.16
965.90	211.47
966.19	211.26
966.49	211.21
966.78	211.18
967.08	211.16
967.37	211.12
967.67	210.97
967.96	211.04
968.26	210.93
968.55	210.98
968.85	210.95
969.14	210.93
969.43	210.90
969.73	210.86
970.02	210.83
970.32	210.82
970.61	210.81
970.91	210.69
971.20	210.71
971.49	210.70
971.79	210.70
972.08	210.43
972.38	210.56
972.67	210.55
972.96	210.60
973.26	210.45
973.55	210.55
973.85	210.63
974.14	210.60
974.43	210.74
974.73	210.75
975.02	210.65
975.31	210.60
975.61	210.59
975.90	210.64
976.19	210.60
976.49	210.60
976.78	210.62
977.07	210.69
977.37	210.70
977.66	210.71
977.95	210.65
978.24	210.62
978.54	210.65
978.83	210.67
979.12	210.59
979.42	210.59
979.71	210.57
980.00	210.64
980.29	210.62
980.59	210.53
980.88	210.59
981.17	210.66
981.46	210.79
981.76	210.75
982.05	210.78
982.34	210.76
982.63	210.76
982.93	210.75
983.22	210.86
983.51	210.81
983.80	210.92
984.09	210.97
984.39	210.97
984.68	211.00
984.97	210.98
985.26	210.98
985.55	211.04
985.85	210.94
986.14	210.89
986.43	210.94
986.72	210.90
987.01	210.78
987.30	210.78
987.59	210.69
987.89	210.71
988.18	210.66
988.47	210.72
988.76	210.66
989.05	210.66
989.34	210.65
989.63	210.80
989.92	210.74
990.22	210.71
990.51	210.76
990.80	210.62
991.09	210.64
991.38	210.72
991.67	210.71
991.96	210.71
992.25	210.79
992.54	210.81
992.83	210.84
993.12	210.82
993.41	210.87
993.70	211.05
993.99	211.14
994.28	211.15
994.58	211.17
994.87	211.15
995.16	211.13
995.45	211.06
995.74	210.99
996.03	210.95
996.32	211.00
996.61	211.05
996.90	211.10
997.19	211.12
997.48	211.13
997.77	211.11
998.06	211.12
998.34	211.07
998.63	211.00
998.92	210.98
999.21	211.08
999.50	211.14
999.79	210.96
1000.08	210.99
1000.37	211.04
1000.66	211.03
1000.95	211.10
1001.24	211.17
1001.53	211.22
1001.82	211.16
1002.11	211.14
1002.40	211.18
1002.68	211.22
1002.97	211.44
1003.26	211.35
1003.55	211.33
1003.84	211.38
1004.13	211.49
1004.42	211.45
1004.71	211.44
1004.99	211.51
1005.28	211.63
1005.57	211.60
1005.86	211.54
1006.15	211.48
1006.44	211.40
1006.72	211.43
1007.01	211.40
1007.30	211.40
1007.59	211.36
1007.88	211.33
1008.17	211.33
1008.45	211.28
1008.74	211.21
1009.03	211.02
1009.32	211.07
1009.60	211.02
1009.89	210.98
1010.18	210.84
1010.47	210.86
1010.76	210.89
1011.04	210.82
1011.33	210.84
1011.62	210.82
1011.91	210.85
1012.19	210.90
1012.48	210.90
1012.77	210.88
1013.05	211.03
1013.34	211.01
1013.63	210.99
1013.92	211.10
1014.20	211.11
1014.49	211.12
1014.78	211.12
1015.06	211.00
1015.35	210.98
1015.64	211.05
1015.92	211.09
1016.21	211.13
1016.50	211.15
1016.78	211.16
1017.07	211.25
1017.36	211.16
1017.64	211.15
1017.93	211.26
1018.22	211.13
1018.50	211.20
1018.79	211.22
1019.08	211.08
1019.36	211.15
1019.65	211.14
1019.93	211.19
1020.22	211.19
1020.51	211.38
1020.79	211.24
1021.08	209.45
1021.36	211.60
1021.65	211.85
1021.94	210.90
1022.22	212.00
1022.51	210.90
1022.79	212.90
1023.08	210.50
1023.36	215.35
1023.65	208.40
>>>>>End Processed Spectral Data<<<<<
