SpectraSuite Data File
++++++++++++++++++++++++++++++++++++
Date: Mon Feb 25 17:03:19 EST 2013
User: group
Dark Spectrum Present: No
Reference Spectrum Present: No
Number of Sampled Component Spectra: 1
Spectrometers: USB2E7196
Integration Time (usec): 104000 (USB2E7196)
Spectra Averaged: 20 (USB2E7196)
Boxcar Smoothing: 10 (USB2E7196)
Correct for Electrical Dark: No (USB2E7196)
Strobe/Lamp Enabled: No (USB2E7196)
Correct for Detector Non-linearity: No (USB2E7196)
Correct for Stray Light: No (USB2E7196)
Number of Pixels in Processed Spectrum: 2048
>>>>>Begin Processed Spectral Data<<<<<
339.09	0.00
339.48	198.65
339.86	200.95
340.24	202.50
340.63	202.55
341.01	210.30
341.39	206.40
341.78	207.75
342.16	209.35
342.54	209.70
342.93	198.53
343.31	208.52
343.69	209.06
344.07	209.56
344.46	210.00
344.84	210.41
345.22	210.38
345.60	210.58
345.99	210.76
346.37	210.81
346.75	210.77
347.13	210.84
347.52	210.85
347.90	210.97
348.28	210.96
348.66	211.10
349.05	211.03
349.43	211.03
349.81	211.08
350.19	211.08
350.57	211.14
350.96	211.17
351.34	211.25
351.72	211.40
352.10	211.45
352.48	211.40
352.87	211.40
353.25	211.51
353.63	211.56
354.01	211.62
354.39	211.72
354.77	211.85
355.15	211.93
355.54	211.94
355.92	211.83
356.30	211.99
356.68	212.28
357.06	212.31
357.44	212.35
357.82	212.35
358.20	212.44
358.58	212.46
358.97	212.50
359.35	212.56
359.73	212.60
360.11	212.58
360.49	212.68
360.87	212.73
361.25	212.79
361.63	212.94
362.01	212.90
362.39	212.91
362.77	212.95
363.15	212.97
363.53	212.95
363.91	213.07
364.29	213.09
364.67	212.73
365.05	212.78
365.43	212.81
365.81	212.95
366.19	213.08
366.57	213.22
366.95	213.18
367.33	213.14
367.71	213.11
368.09	213.24
368.47	213.22
368.85	213.22
369.23	213.27
369.61	213.15
369.99	213.24
370.37	213.25
370.75	213.43
371.13	213.35
371.51	213.31
371.89	213.27
372.27	213.19
372.65	213.17
373.03	213.15
373.41	213.11
373.78	213.00
374.16	212.81
374.54	212.62
374.92	212.64
375.30	212.63
375.68	212.50
376.06	212.35
376.44	212.31
376.82	212.24
377.19	212.15
377.57	212.05
377.95	211.93
378.33	211.80
378.71	211.55
379.09	211.53
379.47	211.55
379.84	211.50
380.22	211.43
380.60	211.38
380.98	211.33
381.36	211.25
381.73	211.17
382.11	211.15
382.49	211.19
382.87	211.14
383.25	211.10
383.62	211.46
384.00	211.39
384.38	211.37
384.76	211.40
385.13	211.48
385.51	211.47
385.89	211.45
386.27	211.45
386.64	211.46
387.02	211.44
387.40	211.44
387.78	211.36
388.15	211.30
388.53	211.27
388.91	211.22
389.29	211.18
389.66	211.18
390.04	211.14
390.42	211.23
390.79	211.15
391.17	211.12
391.55	210.66
391.92	210.71
392.30	210.75
392.68	210.66
393.05	210.64
393.43	210.64
393.81	210.58
394.18	210.59
394.56	210.62
394.94	210.64
395.31	210.59
395.69	210.75
396.06	210.87
396.44	210.81
396.82	210.78
397.19	211.00
397.57	211.02
397.95	211.06
398.32	210.86
398.70	210.92
399.07	211.03
399.45	211.13
399.82	211.13
400.20	211.11
400.58	211.15
400.95	211.04
401.33	211.13
401.70	211.41
402.08	211.44
402.45	211.44
402.83	211.53
403.20	211.56
403.58	211.55
403.95	211.69
404.33	211.84
404.71	211.96
405.08	212.20
405.46	212.26
405.83	212.43
406.21	212.60
406.58	212.74
406.96	212.86
407.33	213.03
407.70	213.25
408.08	213.71
408.45	214.05
408.83	214.34
409.20	214.60
409.58	214.67
409.95	215.04
410.33	215.38
410.70	215.64
411.08	216.11
411.45	216.53
411.82	216.89
412.20	217.42
412.57	218.12
412.95	218.35
413.32	218.94
413.69	219.52
414.07	220.17
414.44	220.84
414.82	221.58
415.19	222.39
415.56	223.21
415.94	223.95
416.31	224.95
416.68	225.91
417.06	227.11
417.43	228.30
417.81	229.49
418.18	230.77
418.55	232.14
418.93	233.56
419.30	235.06
419.67	236.71
420.04	238.38
420.42	239.97
420.79	242.25
421.16	244.30
421.54	246.58
421.91	248.74
422.28	251.04
422.66	253.45
423.03	256.04
423.40	258.48
423.77	261.14
424.15	263.77
424.52	266.62
424.89	269.70
425.26	272.68
425.64	275.60
426.01	278.69
426.38	281.97
426.75	285.43
427.13	288.84
427.50	292.36
427.87	296.03
428.24	299.91
428.61	303.31
428.99	307.35
429.36	311.55
429.73	315.90
430.10	320.26
430.47	324.63
430.85	329.11
431.22	334.06
431.59	339.34
431.96	344.26
432.33	349.81
432.70	355.05
433.08	361.14
433.45	367.00
433.82	372.88
434.19	379.50
434.56	385.89
434.93	392.18
435.30	398.41
435.68	405.35
436.05	412.18
436.42	419.05
436.79	425.34
437.16	432.06
437.53	439.11
437.90	446.24
438.27	453.26
438.64	460.30
439.01	467.04
439.38	472.84
439.75	478.83
440.13	485.45
440.50	491.78
440.87	497.07
441.24	502.52
441.61	508.62
441.98	513.10
442.35	518.30
442.72	523.68
443.09	528.92
443.46	532.39
443.83	534.64
444.20	536.71
444.57	539.52
444.94	541.12
445.31	542.83
445.68	544.47
446.05	545.44
446.42	545.41
446.79	545.15
447.16	544.80
447.53	544.74
447.90	542.62
448.27	540.56
448.64	537.51
449.01	535.33
449.37	531.15
449.74	527.10
450.11	522.37
450.48	516.76
450.85	510.98
451.22	506.05
451.59	501.54
451.96	497.23
452.33	491.27
452.70	485.92
453.07	479.37
453.43	472.66
453.80	466.21
454.17	460.18
454.54	454.28
454.91	448.07
455.28	441.86
455.65	436.31
456.02	430.85
456.38	425.95
456.75	419.82
457.12	414.78
457.49	409.72
457.86	404.64
458.23	400.48
458.59	396.02
458.96	391.34
459.33	387.28
459.70	383.11
460.07	379.87
460.43	376.07
460.80	372.61
461.17	369.46
461.54	366.22
461.91	363.00
462.27	359.81
462.64	357.01
463.01	354.06
463.38	351.09
463.74	347.80
464.11	345.22
464.48	343.09
464.85	340.60
465.21	338.72
465.58	336.76
465.95	334.44
466.32	332.42
466.68	330.39
467.05	328.39
467.42	326.39
467.78	324.24
468.15	322.28
468.52	320.76
468.88	318.75
469.25	317.06
469.62	315.65
469.98	314.17
470.35	312.85
470.72	311.36
471.08	309.91
471.45	308.78
471.82	307.54
472.18	306.16
472.55	305.11
472.92	303.94
473.28	302.77
473.65	301.63
474.02	300.62
474.38	299.85
474.75	299.07
475.11	298.23
475.48	297.72
475.85	297.09
476.21	296.54
476.58	296.09
476.94	295.62
477.31	295.14
477.67	294.73
478.04	294.34
478.41	294.12
478.77	294.10
479.14	293.68
479.50	293.60
479.87	293.52
480.23	293.41
480.60	293.28
480.96	293.21
481.33	293.44
481.69	293.40
482.06	293.45
482.42	293.50
482.79	293.61
483.15	293.67
483.52	294.02
483.88	294.12
484.25	294.31
484.61	294.61
484.98	294.74
485.34	295.08
485.71	295.53
486.07	295.97
486.44	296.10
486.80	296.69
487.17	297.10
487.53	297.72
487.90	298.41
488.26	299.22
488.62	300.01
488.99	300.62
489.35	301.53
489.72	302.20
490.08	303.00
490.44	303.77
490.81	304.71
491.17	305.54
491.54	306.63
491.90	307.74
492.26	308.77
492.63	309.92
492.99	311.00
493.36	312.09
493.72	313.21
494.08	314.51
494.45	315.88
494.81	317.34
495.17	318.71
495.54	320.15
495.90	321.42
496.26	322.89
496.63	324.39
496.99	325.82
497.35	327.45
497.72	329.00
498.08	330.62
498.44	332.15
498.80	333.79
499.17	335.33
499.53	336.82
499.89	338.40
500.26	340.04
500.62	341.50
500.98	343.18
501.34	344.70
501.71	346.33
502.07	347.70
502.43	349.01
502.79	350.26
503.16	351.53
503.52	352.98
503.88	354.07
504.24	355.28
504.60	356.66
504.97	357.88
505.33	358.92
505.69	360.19
506.05	361.40
506.41	362.41
506.78	363.43
507.14	364.41
507.50	365.48
507.86	366.38
508.22	367.43
508.59	368.11
508.95	369.00
509.31	369.78
509.67	370.56
510.03	371.19
510.39	371.90
510.75	372.47
511.12	372.99
511.48	373.55
511.84	374.06
512.20	374.41
512.56	374.91
512.92	375.47
513.28	375.76
513.64	375.93
514.00	376.28
514.37	376.48
514.73	376.73
515.09	376.84
515.45	376.96
515.81	377.01
516.17	377.12
516.53	377.04
516.89	376.80
517.25	376.76
517.61	376.85
517.97	376.77
518.33	376.66
518.69	376.59
519.05	376.67
519.41	376.71
519.77	376.79
520.13	376.60
520.49	376.42
520.85	376.31
521.21	376.42
521.57	376.24
521.93	376.02
522.29	375.99
522.65	376.03
523.01	376.10
523.37	376.02
523.73	376.14
524.09	376.29
524.45	376.50
524.81	376.56
525.17	376.80
525.53	377.05
525.89	377.48
526.25	377.86
526.61	377.94
526.97	378.25
527.33	378.59
527.68	379.39
528.04	379.95
528.40	380.44
528.76	380.92
529.12	381.76
529.48	382.73
529.84	383.48
530.20	384.23
530.56	385.07
530.91	386.14
531.27	387.14
531.63	388.30
531.99	389.45
532.35	390.70
532.71	391.83
533.07	393.13
533.42	394.82
533.78	396.15
534.14	397.78
534.50	399.15
534.86	400.69
535.21	401.95
535.57	403.72
535.93	405.40
536.29	407.31
536.65	408.99
537.00	410.69
537.36	412.46
537.72	414.23
538.08	416.25
538.44	418.13
538.79	420.03
539.15	421.89
539.51	423.93
539.87	426.09
540.22	428.33
540.58	430.64
540.94	432.53
541.29	434.85
541.65	436.96
542.01	439.44
542.37	441.86
542.72	444.35
543.08	446.62
543.44	449.24
543.79	451.42
544.15	454.00
544.51	456.82
544.87	459.56
545.22	462.45
545.58	465.00
545.94	467.62
546.29	470.25
546.65	473.07
547.01	475.65
547.36	478.35
547.72	481.02
548.07	483.72
548.43	486.24
548.79	488.77
549.14	491.51
549.50	494.14
549.86	496.62
550.21	499.25
550.57	502.00
550.92	504.48
551.28	507.38
551.64	510.05
551.99	512.46
552.35	515.12
552.70	517.47
553.06	520.13
553.41	522.79
553.77	525.55
554.13	528.00
554.48	530.81
554.84	533.40
555.19	535.93
555.55	538.67
555.90	541.29
556.26	543.76
556.61	546.41
556.97	548.73
557.32	551.25
557.68	553.61
558.03	555.89
558.39	558.35
558.74	560.64
559.10	562.96
559.45	565.44
559.81	567.69
560.16	569.85
560.52	572.10
560.87	574.46
561.23	576.50
561.58	579.14
561.94	581.25
562.29	583.27
562.64	585.40
563.00	587.41
563.35	589.64
563.71	591.94
564.06	594.01
564.42	596.34
564.77	598.38
565.12	600.45
565.48	602.86
565.83	604.81
566.19	606.85
566.54	608.54
566.89	610.35
567.25	612.33
567.60	614.65
567.96	616.78
568.31	618.85
568.66	620.71
569.02	621.97
569.37	623.40
569.72	625.06
570.08	626.43
570.43	627.63
570.78	628.77
571.14	629.84
571.49	630.78
571.84	631.80
572.20	632.88
572.55	633.90
572.90	634.58
573.26	635.36
573.61	635.93
573.96	636.63
574.31	637.20
574.67	637.46
575.02	637.50
575.37	637.50
575.72	637.30
576.08	637.47
576.43	637.61
576.78	637.93
577.13	638.07
577.49	638.50
577.84	638.66
578.19	638.90
578.54	639.29
578.90	639.81
579.25	640.01
579.60	640.05
579.95	639.91
580.30	639.93
580.66	640.22
581.01	640.38
581.36	640.44
581.71	640.56
582.06	640.82
582.42	640.92
582.77	640.77
583.12	640.92
583.47	641.03
583.82	641.07
584.17	641.03
584.53	641.23
584.88	640.91
585.23	641.02
585.58	640.88
585.93	640.52
586.28	640.11
586.63	639.90
586.98	639.74
587.34	639.85
587.69	639.52
588.04	639.09
588.39	638.85
588.74	638.52
589.09	638.21
589.44	637.63
589.79	637.41
590.14	637.27
590.49	636.79
590.84	636.23
591.19	635.98
591.54	635.56
591.89	634.71
592.25	634.32
592.60	633.44
592.95	632.74
593.30	631.89
593.65	631.09
594.00	629.99
594.35	630.17
594.70	629.11
595.05	628.31
595.40	627.40
595.75	626.35
596.10	625.59
596.45	624.80
596.80	624.11
597.15	623.19
597.50	622.09
597.85	621.35
598.19	620.39
598.54	619.44
598.89	618.41
599.24	617.75
599.59	616.85
599.94	616.10
600.29	615.25
600.64	614.38
600.99	613.45
601.34	612.90
601.69	611.01
602.04	610.02
602.39	609.14
602.74	608.39
603.08	607.55
603.43	606.98
603.78	605.95
604.13	604.97
604.48	604.05
604.83	603.50
605.18	602.66
605.53	601.94
605.87	600.99
606.22	600.28
606.57	599.22
606.92	598.12
607.27	597.10
607.62	596.07
607.96	595.40
608.31	594.70
608.66	593.58
609.01	592.54
609.36	591.45
609.70	590.32
610.05	589.08
610.40	588.05
610.75	586.61
611.10	585.61
611.44	584.12
611.79	582.73
612.14	581.16
612.49	579.46
612.83	578.05
613.18	576.52
613.53	574.94
613.88	573.29
614.22	571.82
614.57	570.15
614.92	568.81
615.27	567.20
615.61	565.56
615.96	564.21
616.31	562.70
616.65	561.49
617.00	559.96
617.35	558.52
617.70	556.82
618.04	555.14
618.39	553.04
618.74	551.57
619.08	550.03
619.43	548.40
619.78	546.97
620.12	545.24
620.47	543.71
620.82	541.83
621.16	540.10
621.51	538.49
621.85	537.05
622.20	535.23
622.55	533.53
622.89	531.78
623.24	529.91
623.59	528.13
623.93	526.32
624.28	524.64
624.62	523.29
624.97	521.80
625.32	520.08
625.66	518.70
626.01	517.11
626.35	515.60
626.70	513.88
627.04	512.27
627.39	510.72
627.73	509.25
628.08	507.99
628.43	506.41
628.77	504.76
629.12	502.94
629.46	501.48
629.81	499.91
630.15	498.28
630.50	496.58
630.84	495.08
631.19	493.41
631.53	491.87
631.88	489.86
632.22	488.05
632.57	486.60
632.91	484.90
633.26	483.37
633.60	481.57
633.95	480.14
634.29	478.46
634.64	477.02
634.98	475.23
635.32	473.53
635.67	472.26
636.01	470.80
636.36	469.28
636.70	467.74
637.05	466.07
637.39	464.56
637.73	463.20
638.08	461.84
638.42	460.57
638.77	459.13
639.11	457.68
639.45	456.22
639.80	454.49
640.14	453.00
640.49	451.38
640.83	449.83
641.17	448.32
641.52	446.84
641.86	445.20
642.20	443.74
642.55	441.95
642.89	440.17
643.23	438.62
643.58	437.41
643.92	435.75
644.26	434.22
644.61	432.84
644.95	431.16
645.29	429.33
645.64	427.62
645.98	425.88
646.32	424.48
646.66	422.89
647.01	421.41
647.35	419.87
647.69	418.38
648.04	416.98
648.38	415.42
648.72	413.98
649.06	412.35
649.41	410.85
649.75	409.48
650.09	408.11
650.43	406.52
650.78	404.79
651.12	403.23
651.46	401.68
651.80	400.20
652.14	398.80
652.49	397.46
652.83	395.97
653.17	394.52
653.51	392.80
653.85	391.38
654.20	390.01
654.54	388.56
654.88	387.01
655.22	385.61
655.56	384.10
655.90	382.41
656.25	381.00
656.59	379.50
656.93	378.18
657.27	376.77
657.61	375.27
657.95	373.90
658.29	372.50
658.64	371.27
658.98	369.72
659.32	368.23
659.66	366.82
660.00	365.41
660.34	364.05
660.68	362.71
661.02	361.32
661.36	359.94
661.70	358.52
662.05	357.22
662.39	355.91
662.73	354.75
663.07	353.70
663.41	352.38
663.75	350.96
664.09	349.64
664.43	348.32
664.77	347.10
665.11	345.76
665.45	344.61
665.79	343.39
666.13	342.27
666.47	341.15
666.81	339.95
667.15	338.84
667.49	337.75
667.83	336.74
668.17	335.64
668.51	334.53
668.85	333.57
669.19	332.61
669.53	331.32
669.87	330.14
670.21	329.00
670.55	327.96
670.89	327.15
671.23	326.24
671.57	325.28
671.91	324.25
672.25	323.36
672.58	322.43
672.92	321.39
673.26	320.40
673.60	319.57
673.94	318.61
674.28	317.66
674.62	316.76
674.96	315.78
675.30	314.90
675.64	314.03
675.97	313.17
676.31	312.22
676.65	311.43
676.99	310.63
677.33	309.72
677.67	308.89
678.01	307.87
678.34	307.00
678.68	306.17
679.02	305.32
679.36	304.39
679.70	303.45
680.04	302.67
680.37	301.82
680.71	300.86
681.05	300.09
681.39	299.18
681.73	298.30
682.06	297.54
682.40	296.69
682.74	295.92
683.08	295.18
683.42	294.34
683.75	293.66
684.09	292.80
684.43	292.06
684.77	291.26
685.10	290.49
685.44	289.59
685.78	288.74
686.12	288.07
686.45	287.39
686.79	286.70
687.13	286.01
687.46	285.30
687.80	284.67
688.14	284.01
688.48	283.40
688.81	282.78
689.15	282.11
689.49	281.40
689.82	280.82
690.16	279.97
690.50	279.27
690.83	278.56
691.17	277.93
691.51	277.15
691.84	276.52
692.18	275.90
692.52	275.26
692.85	274.67
693.19	274.13
693.52	273.57
693.86	272.85
694.20	272.14
694.53	271.58
694.87	270.93
695.21	270.19
695.54	269.51
695.88	268.80
696.21	268.06
696.55	267.45
696.88	266.73
697.22	266.18
697.56	265.71
697.89	265.08
698.23	264.48
698.56	263.99
698.90	263.48
699.23	262.90
699.57	262.32
699.90	261.78
700.24	261.06
700.58	260.55
700.91	260.18
701.25	259.84
701.58	259.35
701.92	258.98
702.25	258.49
702.59	258.00
702.92	257.58
703.26	257.13
703.59	256.67
703.93	256.47
704.26	255.97
704.60	255.46
704.93	255.00
705.26	254.56
705.60	254.25
705.93	253.64
706.27	253.29
706.60	253.07
706.94	252.78
707.27	252.36
707.61	251.85
707.94	251.35
708.27	250.75
708.61	250.22
708.94	249.74
709.28	249.45
709.61	249.06
709.94	248.71
710.28	248.26
710.61	247.98
710.95	247.28
711.28	247.10
711.61	246.76
711.95	246.52
712.28	246.15
712.61	245.70
712.95	245.59
713.28	245.40
713.61	244.94
713.95	244.48
714.28	244.23
714.61	243.87
714.95	243.59
715.28	243.25
715.61	242.97
715.95	242.58
716.28	242.18
716.61	241.87
716.95	241.43
717.28	241.20
717.61	240.89
717.94	240.67
718.28	240.21
718.61	239.83
718.94	239.42
719.27	239.19
719.61	238.95
719.94	238.64
720.27	238.19
720.60	237.88
720.94	237.56
721.27	237.27
721.60	237.06
721.93	236.73
722.27	236.58
722.60	236.37
722.93	236.06
723.26	235.84
723.59	235.57
723.93	235.41
724.26	235.20
724.59	234.85
724.92	234.57
725.25	234.42
725.59	234.26
725.92	234.13
726.25	233.84
726.58	233.60
726.91	233.35
727.24	233.13
727.57	232.87
727.91	232.62
728.24	232.39
728.57	232.15
728.90	232.02
729.23	231.72
729.56	231.61
729.89	231.49
730.22	231.27
730.55	231.10
730.89	230.86
731.22	230.60
731.55	230.48
731.88	230.33
732.21	230.10
732.54	229.83
732.87	229.55
733.20	229.42
733.53	229.24
733.86	229.09
734.19	228.91
734.52	228.83
734.85	228.84
735.18	228.70
735.51	228.62
735.84	228.45
736.17	228.28
736.50	228.00
736.83	228.20
737.16	228.00
737.49	227.86
737.82	227.75
738.15	227.70
738.48	227.51
738.81	227.31
739.14	227.11
739.47	226.96
739.80	226.81
740.13	226.57
740.46	226.35
740.79	226.08
741.12	225.97
741.45	225.78
741.78	225.46
742.11	225.46
742.44	225.24
742.77	225.17
743.10	225.02
743.43	224.88
743.75	224.40
744.08	224.75
744.41	224.54
744.74	224.30
745.07	224.05
745.40	224.02
745.73	224.06
746.06	223.99
746.39	223.91
746.71	223.82
747.04	223.76
747.37	223.68
747.70	223.74
748.03	223.58
748.36	223.47
748.68	223.38
749.01	223.05
749.34	222.95
749.67	222.78
750.00	222.75
750.33	222.85
750.65	222.78
750.98	222.25
751.31	222.22
751.64	222.20
751.97	222.38
752.29	222.19
752.62	221.89
752.95	221.66
753.28	221.49
753.60	221.32
753.93	221.31
754.26	221.24
754.59	220.97
754.91	220.86
755.24	220.88
755.57	220.81
755.90	220.76
756.22	220.65
756.55	220.49
756.88	220.32
757.20	219.95
757.53	219.80
757.86	219.59
758.19	219.47
758.51	219.35
758.84	219.04
759.17	218.97
759.49	218.91
759.82	219.02
760.15	219.00
760.47	218.99
760.80	218.77
761.13	218.67
761.45	218.61
761.78	218.48
762.11	218.37
762.43	218.20
762.76	218.17
763.08	218.10
763.41	218.07
763.74	218.02
764.06	217.91
764.39	217.77
764.71	217.80
765.04	217.71
765.37	217.62
765.69	217.52
766.02	217.46
766.34	217.37
766.67	217.20
767.00	217.21
767.32	217.30
767.65	217.50
767.97	217.50
768.30	217.40
768.62	217.40
768.95	217.25
769.27	217.21
769.60	217.18
769.92	217.09
770.25	216.98
770.57	216.82
770.90	216.85
771.22	216.77
771.55	216.73
771.87	216.76
772.20	216.68
772.52	216.92
772.85	217.27
773.17	217.28
773.50	217.23
773.82	217.07
774.15	216.85
774.47	216.54
774.80	216.40
775.12	216.37
775.45	216.33
775.77	216.40
776.09	216.47
776.42	216.40
776.74	216.46
777.07	216.41
777.39	216.40
777.72	216.35
778.04	216.41
778.36	216.34
778.69	216.23
779.01	216.20
779.33	215.83
779.66	215.40
779.98	215.31
780.31	215.31
780.63	215.39
780.95	215.46
781.28	215.42
781.60	215.41
781.92	215.37
782.25	215.34
782.57	215.31
782.89	215.19
783.22	215.17
783.54	215.06
783.86	215.10
784.19	215.08
784.51	215.14
784.83	215.08
785.16	215.05
785.48	215.05
785.80	215.03
786.12	215.03
786.45	215.02
786.77	215.05
787.09	215.00
787.42	214.83
787.74	214.74
788.06	214.76
788.38	214.71
788.71	214.62
789.03	214.54
789.35	214.53
789.67	214.39
789.99	214.34
790.32	214.27
790.64	214.30
790.96	214.63
791.28	214.47
791.61	214.38
791.93	214.34
792.25	214.23
792.57	214.51
792.89	214.50
793.21	214.46
793.54	214.38
793.86	214.30
794.18	214.43
794.50	214.32
794.82	214.23
795.14	214.19
795.47	214.30
795.79	214.30
796.11	214.08
796.43	214.08
796.75	214.08
797.07	214.15
797.39	214.05
797.71	213.72
798.04	213.73
798.36	213.69
798.68	213.66
799.00	213.72
799.32	213.44
799.64	213.43
799.96	213.38
800.28	213.43
800.60	213.36
800.92	213.35
801.24	213.33
801.56	213.35
801.89	213.31
802.21	213.27
802.53	213.18
802.85	213.26
803.17	213.43
803.49	213.30
803.81	213.15
804.13	213.13
804.45	213.09
804.77	213.07
805.09	213.15
805.41	213.11
805.73	213.04
806.05	213.00
806.37	213.01
806.69	212.94
807.01	212.90
807.33	212.92
807.65	212.75
807.97	212.84
808.28	212.88
808.60	212.89
808.92	212.87
809.24	213.08
809.56	213.06
809.88	212.94
810.20	212.93
810.52	212.99
810.84	212.90
811.16	212.83
811.48	212.80
811.80	212.82
812.12	212.81
812.43	212.85
812.75	212.81
813.07	212.68
813.39	212.70
813.71	212.67
814.03	212.62
814.35	212.62
814.67	212.56
814.98	212.45
815.30	212.40
815.62	212.30
815.94	212.15
816.26	212.13
816.58	212.06
816.89	212.15
817.21	212.10
817.53	212.19
817.85	212.21
818.17	212.12
818.48	212.06
818.80	212.07
819.12	212.03
819.44	211.98
819.76	211.97
820.07	211.97
820.39	211.92
820.71	211.96
821.03	211.88
821.34	211.85
821.66	211.91
821.98	211.94
822.30	211.95
822.61	212.08
822.93	211.95
823.25	211.97
823.57	211.96
823.88	212.05
824.20	212.00
824.52	211.98
824.83	211.97
825.15	211.89
825.47	211.86
825.79	211.88
826.10	211.90
826.42	211.87
826.74	211.86
827.05	211.88
827.37	211.85
827.69	211.90
828.00	211.86
828.32	211.88
828.64	211.74
828.95	211.98
829.27	211.86
829.58	211.92
829.90	211.97
830.22	211.86
830.53	211.76
830.85	211.75
831.17	211.74
831.48	211.81
831.80	211.89
832.11	211.88
832.43	211.80
832.75	211.79
833.06	212.02
833.38	212.02
833.69	212.01
834.01	211.98
834.32	211.94
834.64	211.92
834.96	211.90
835.27	212.02
835.59	211.85
835.90	211.85
836.22	211.86
836.53	211.78
836.85	211.80
837.16	212.21
837.48	212.23
837.79	212.37
838.11	212.38
838.42	212.30
838.74	212.40
839.05	212.36
839.37	212.33
839.68	212.12
840.00	212.07
840.31	212.07
840.63	212.13
840.94	212.14
841.26	212.14
841.57	212.11
841.88	212.13
842.20	212.02
842.51	211.95
842.83	212.00
843.14	212.35
843.46	212.36
843.77	212.08
844.08	212.06
844.40	211.90
844.71	211.81
845.03	211.84
845.34	211.73
845.65	211.70
845.97	211.72
846.28	211.80
846.60	211.81
846.91	211.82
847.22	211.81
847.54	211.85
847.85	211.85
848.16	211.79
848.48	211.76
848.79	211.93
849.10	211.96
849.42	211.99
849.73	211.58
850.04	211.53
850.36	211.42
850.67	211.41
850.98	211.46
851.30	211.54
851.61	211.50
851.92	211.51
852.23	211.68
852.55	211.69
852.86	211.59
853.17	211.62
853.49	211.67
853.80	211.70
854.11	211.79
854.42	211.87
854.74	211.78
855.05	211.71
855.36	211.59
855.67	211.59
855.99	211.55
856.30	212.02
856.61	212.04
856.92	212.05
857.23	211.97
857.55	211.89
857.86	211.84
858.17	211.89
858.48	211.82
858.79	211.74
859.11	211.78
859.42	211.85
859.73	211.78
860.04	211.72
860.35	211.68
860.66	211.55
860.98	211.48
861.29	211.60
861.60	211.63
861.91	211.64
862.22	211.56
862.53	211.44
862.84	211.06
863.16	211.09
863.47	211.01
863.78	211.10
864.09	211.15
864.40	211.09
864.71	211.08
865.02	211.15
865.33	211.09
865.64	210.98
865.95	210.91
866.27	211.14
866.58	211.09
866.89	211.07
867.20	211.03
867.51	210.92
867.82	210.87
868.13	210.97
868.44	210.90
868.75	211.00
869.06	211.08
869.37	211.06
869.68	210.97
869.99	211.06
870.30	210.96
870.61	210.92
870.92	210.96
871.23	210.91
871.54	210.94
871.85	211.05
872.16	211.05
872.47	211.02
872.78	210.83
873.09	210.92
873.40	210.88
873.71	210.91
874.02	211.02
874.33	210.93
874.64	210.83
874.95	210.91
875.26	210.81
875.56	210.81
875.87	210.80
876.18	210.80
876.49	211.14
876.80	211.18
877.11	211.13
877.42	211.18
877.73	211.20
878.04	211.18
878.35	211.18
878.66	211.32
878.96	211.33
879.27	211.30
879.58	211.18
879.89	211.17
880.20	211.28
880.51	211.32
880.82	211.39
881.12	211.40
881.43	211.36
881.74	211.39
882.05	211.30
882.36	211.35
882.67	211.38
882.97	211.02
883.28	210.99
883.59	211.05
883.90	211.10
884.21	211.19
884.51	211.20
884.82	211.05
885.13	210.98
885.44	210.97
885.74	210.99
886.05	211.00
886.36	210.98
886.67	210.83
886.98	210.89
887.28	210.94
887.59	210.95
887.90	210.92
888.20	210.93
888.51	211.08
888.82	211.03
889.13	211.09
889.43	211.39
889.74	211.45
890.05	211.43
890.35	211.30
890.66	211.25
890.97	211.19
891.28	211.23
891.58	211.21
891.89	211.20
892.20	211.17
892.50	211.21
892.81	211.21
893.12	211.28
893.42	211.18
893.73	211.21
894.04	211.15
894.34	211.21
894.65	211.15
894.95	211.07
895.26	211.09
895.57	211.21
895.87	210.88
896.18	210.88
896.48	210.91
896.79	210.95
897.10	211.00
897.40	210.98
897.71	211.05
898.01	211.00
898.32	211.13
898.63	211.06
898.93	211.04
899.24	211.06
899.54	211.01
899.85	210.93
900.15	210.87
900.46	210.91
900.76	210.91
901.07	210.87
901.38	210.79
901.68	210.80
901.99	210.58
902.29	210.57
902.60	210.55
902.90	210.49
903.21	210.44
903.51	210.36
903.82	210.38
904.12	210.32
904.43	210.37
904.73	210.28
905.03	210.30
905.34	210.64
905.64	210.68
905.95	210.66
906.25	210.70
906.56	210.71
906.86	210.70
907.17	210.69
907.47	210.74
907.77	210.75
908.08	210.71
908.38	210.85
908.69	210.90
908.99	210.97
909.30	211.03
909.60	211.07
909.90	211.07
910.21	211.07
910.51	211.04
910.81	211.04
911.12	211.09
911.42	211.12
911.73	210.77
912.03	210.71
912.33	210.81
912.64	210.83
912.94	210.81
913.24	210.79
913.55	210.80
913.85	210.79
914.15	210.88
914.46	210.88
914.76	210.88
915.06	210.83
915.37	210.76
915.67	210.73
915.97	210.76
916.27	210.73
916.58	210.72
916.88	210.66
917.18	210.67
917.49	210.89
917.79	210.86
918.09	210.95
918.39	211.07
918.70	211.01
919.00	210.99
919.30	211.12
919.60	211.14
919.91	211.08
920.21	211.06
920.51	210.96
920.81	210.92
921.12	210.95
921.42	211.01
921.72	211.09
922.02	211.11
922.32	211.12
922.63	211.15
922.93	211.30
923.23	211.42
923.53	211.36
923.83	211.15
924.13	211.27
924.44	211.22
924.74	211.25
925.04	211.35
925.34	211.40
925.64	211.22
925.94	211.22
926.24	211.46
926.55	211.50
926.85	211.58
927.15	211.62
927.45	211.59
927.75	211.52
928.05	211.45
928.35	211.40
928.65	211.49
928.95	211.55
929.26	211.43
929.56	211.49
929.86	211.56
930.16	211.58
930.46	211.52
930.76	211.54
931.06	211.41
931.36	211.29
931.66	211.29
931.96	211.41
932.26	211.47
932.56	211.27
932.86	211.28
933.16	211.25
933.46	211.29
933.76	211.27
934.06	211.41
934.36	211.58
934.66	211.66
934.96	211.59
935.26	211.55
935.56	211.63
935.86	211.58
936.16	211.56
936.46	211.49
936.76	211.50
937.06	211.41
937.36	211.48
937.66	211.52
937.96	211.49
938.26	211.41
938.56	211.34
938.86	211.35
939.16	211.44
939.46	211.51
939.76	211.50
940.06	211.35
940.35	211.23
940.65	211.02
940.95	210.98
941.25	210.91
941.55	210.86
941.85	210.84
942.15	210.86
942.45	210.97
942.75	210.99
943.04	211.00
943.34	211.10
943.64	211.05
943.94	210.99
944.24	210.99
944.54	211.00
944.84	210.97
945.13	210.92
945.43	210.82
945.73	210.79
946.03	210.76
946.33	210.74
946.62	210.78
946.92	210.76
947.22	210.84
947.52	210.79
947.82	210.81
948.11	210.73
948.41	210.66
948.71	210.54
949.01	210.55
949.31	210.48
949.60	210.42
949.90	210.45
950.20	210.42
950.50	210.42
950.79	210.36
951.09	210.42
951.39	210.43
951.69	210.37
951.98	210.35
952.28	210.37
952.58	210.41
952.87	210.41
953.17	210.52
953.47	210.46
953.76	210.52
954.06	210.48
954.36	210.48
954.66	210.44
954.95	210.55
955.25	210.54
955.55	210.54
955.84	210.54
956.14	210.57
956.44	210.61
956.73	210.63
957.03	210.64
957.32	210.63
957.62	210.60
957.92	210.73
958.21	210.74
958.51	211.09
958.81	211.16
959.10	211.15
959.40	211.16
959.69	211.16
959.99	211.21
960.29	211.17
960.58	211.13
960.88	211.29
961.17	211.20
961.47	211.31
961.76	211.33
962.06	211.43
962.36	211.41
962.65	211.48
962.95	211.48
963.24	211.52
963.54	211.54
963.83	211.60
964.13	211.52
964.42	211.48
964.72	211.24
965.01	211.21
965.31	211.17
965.60	211.08
965.90	211.33
966.19	211.27
966.49	211.31
966.78	211.27
967.08	211.24
967.37	211.24
967.67	211.12
967.96	211.20
968.26	211.15
968.55	211.14
968.85	211.10
969.14	211.12
969.43	211.10
969.73	211.10
970.02	211.05
970.32	211.05
970.61	211.00
970.91	210.82
971.20	210.85
971.49	210.84
971.79	210.85
972.08	210.58
972.38	210.62
972.67	210.73
972.96	210.85
973.26	210.74
973.55	210.84
973.85	210.86
974.14	210.81
974.43	210.80
974.73	210.76
975.02	210.66
975.31	210.58
975.61	210.54
975.90	210.45
976.19	210.47
976.49	210.51
976.78	210.53
977.07	210.56
977.37	210.54
977.66	210.54
977.95	210.50
978.24	210.51
978.54	210.55
978.83	210.40
979.12	210.35
979.42	210.40
979.71	210.37
980.00	210.33
980.29	210.33
980.59	210.24
980.88	210.37
981.17	210.44
981.46	210.47
981.76	210.46
982.05	210.60
982.34	210.59
982.63	210.59
982.93	210.62
983.22	210.76
983.51	210.79
983.80	210.91
984.09	210.98
984.39	211.00
984.68	210.91
984.97	210.90
985.26	210.85
985.55	210.87
985.85	210.79
986.14	210.86
986.43	210.85
986.72	210.84
987.01	210.73
987.30	210.71
987.59	210.74
987.89	210.79
988.18	210.65
988.47	210.63
988.76	210.65
989.05	210.63
989.34	210.60
989.63	210.63
989.92	210.54
990.22	210.51
990.51	210.51
990.80	210.50
991.09	210.60
991.38	210.68
991.67	210.64
991.96	210.59
992.25	210.61
992.54	210.59
992.83	210.65
993.12	210.62
993.41	210.72
993.70	210.80
993.99	210.85
994.28	210.99
994.58	211.09
994.87	211.03
995.16	211.07
995.45	210.99
995.74	210.91
996.03	210.97
996.32	211.09
996.61	211.14
996.90	211.19
997.19	211.20
997.48	211.22
997.77	211.18
998.06	211.25
998.34	211.26
998.63	211.26
998.92	211.27
999.21	211.30
999.50	211.27
999.79	211.14
1000.08	211.09
1000.37	211.03
1000.66	210.96
1000.95	211.05
1001.24	211.09
1001.53	211.16
1001.82	211.19
1002.11	211.14
1002.40	211.09
1002.68	211.19
1002.97	211.45
1003.26	211.44
1003.55	211.39
1003.84	211.47
1004.13	211.60
1004.42	211.50
1004.71	211.49
1004.99	211.47
1005.28	211.61
1005.57	211.61
1005.86	211.65
1006.15	211.66
1006.44	211.61
1006.72	211.67
1007.01	211.59
1007.30	211.60
1007.59	211.55
1007.88	211.55
1008.17	211.55
1008.45	211.50
1008.74	211.36
1009.03	211.24
1009.32	211.20
1009.60	211.20
1009.89	211.16
1010.18	211.06
1010.47	211.10
1010.76	211.14
1011.04	211.22
1011.33	211.18
1011.62	211.17
1011.91	211.26
1012.19	211.33
1012.48	211.34
1012.77	211.37
1013.05	211.51
1013.34	211.48
1013.63	211.50
1013.92	211.54
1014.20	211.55
1014.49	211.59
1014.78	211.57
1015.06	211.40
1015.35	211.41
1015.64	211.40
1015.92	211.43
1016.21	211.40
1016.50	211.42
1016.78	211.49
1017.07	211.43
1017.36	211.34
1017.64	211.34
1017.93	211.30
1018.22	211.24
1018.50	211.28
1018.79	211.22
1019.08	211.07
1019.36	211.10
1019.65	211.08
1019.93	211.15
1020.22	211.18
1020.51	211.34
1020.79	211.31
1021.08	210.80
1021.36	211.30
1021.65	210.90
1021.94	211.00
1022.22	211.30
1022.51	211.00
1022.79	212.70
1023.08	211.70
1023.36	215.35
1023.65	209.90
>>>>>End Processed Spectral Data<<<<<
