SpectraSuite Data File
++++++++++++++++++++++++++++++++++++
Date: Mon Feb 25 17:12:32 EST 2013
User: group
Dark Spectrum Present: No
Reference Spectrum Present: No
Number of Sampled Component Spectra: 1
Spectrometers: USB2E7196
Integration Time (usec): 104000 (USB2E7196)
Spectra Averaged: 20 (USB2E7196)
Boxcar Smoothing: 10 (USB2E7196)
Correct for Electrical Dark: No (USB2E7196)
Strobe/Lamp Enabled: No (USB2E7196)
Correct for Detector Non-linearity: No (USB2E7196)
Correct for Stray Light: No (USB2E7196)
Number of Pixels in Processed Spectrum: 2048
>>>>>Begin Processed Spectral Data<<<<<
339.09	0.00
339.48	197.95
339.86	199.55
340.24	202.10
340.63	202.20
341.01	209.85
341.39	204.70
341.78	206.30
342.16	208.85
342.54	207.60
342.93	198.13
343.31	208.11
343.69	208.70
344.07	209.24
344.46	209.67
344.84	210.05
345.22	210.06
345.60	210.36
345.99	210.57
346.37	210.69
346.75	210.87
347.13	210.91
347.52	210.93
347.90	211.02
348.28	211.05
348.66	211.11
349.05	210.94
349.43	211.01
349.81	211.09
350.19	211.08
350.57	211.20
350.96	211.22
351.34	211.35
351.72	211.41
352.10	211.48
352.48	211.49
352.87	211.62
353.25	211.71
353.63	211.72
354.01	211.81
354.39	211.89
354.77	211.92
355.15	212.08
355.54	212.16
355.92	212.12
356.30	212.22
356.68	212.52
357.06	212.63
357.44	212.60
357.82	212.64
358.20	212.73
358.58	212.76
358.97	212.89
359.35	213.03
359.73	213.16
360.11	213.29
360.49	213.33
360.87	213.37
361.25	213.46
361.63	213.70
362.01	213.75
362.39	213.78
362.77	213.84
363.15	213.88
363.53	213.87
363.91	213.89
364.29	213.95
364.67	213.54
365.05	213.59
365.43	213.73
365.81	213.75
366.19	213.96
366.57	214.11
366.95	214.09
367.33	213.99
367.71	213.91
368.09	213.87
368.47	213.92
368.85	213.87
369.23	213.90
369.61	213.75
369.99	213.85
370.37	213.91
370.75	214.10
371.13	214.04
371.51	213.99
371.89	214.06
372.27	213.99
372.65	214.09
373.03	214.09
373.41	213.93
373.78	213.92
374.16	213.74
374.54	213.59
374.92	213.51
375.30	213.45
375.68	213.40
376.06	213.45
376.44	213.42
376.82	213.43
377.19	213.37
377.57	213.30
377.95	213.15
378.33	213.04
378.71	212.79
379.09	212.76
379.47	212.80
379.84	212.69
380.22	212.60
380.60	212.50
380.98	212.44
381.36	212.39
381.73	212.34
382.11	212.33
382.49	212.22
382.87	212.23
383.25	212.13
383.62	212.52
384.00	212.41
384.38	212.33
384.76	212.32
385.13	212.37
385.51	212.33
385.89	212.20
386.27	212.18
386.64	212.25
387.02	212.17
387.40	212.09
387.78	212.10
388.15	212.12
388.53	212.07
388.91	211.99
389.29	211.93
389.66	211.94
390.04	211.88
390.42	211.88
390.79	211.80
391.17	211.85
391.55	211.41
391.92	211.29
392.30	211.25
392.68	211.19
393.05	211.16
393.43	211.21
393.81	211.28
394.18	211.15
394.56	211.03
394.94	211.10
395.31	211.06
395.69	211.13
396.06	211.15
396.44	211.12
396.82	211.14
397.19	211.32
397.57	211.28
397.95	211.31
398.32	211.27
398.70	211.33
399.07	211.39
399.45	211.40
399.82	211.45
400.20	211.45
400.58	211.42
400.95	211.29
401.33	211.38
401.70	211.57
402.08	211.57
402.45	211.63
402.83	211.80
403.20	211.79
403.58	211.83
403.95	211.93
404.33	212.09
404.71	212.16
405.08	212.45
405.46	212.52
405.83	212.63
406.21	212.66
406.58	212.70
406.96	212.78
407.33	212.88
407.70	213.02
408.08	213.41
408.45	213.63
408.83	213.90
409.20	213.99
409.58	214.00
409.95	214.33
410.33	214.53
410.70	214.50
411.08	214.79
411.45	215.01
411.82	215.21
412.20	215.56
412.57	216.08
412.95	216.11
413.32	216.51
413.69	216.80
414.07	217.32
414.44	217.81
414.82	218.25
415.19	218.80
415.56	219.33
415.94	219.79
416.31	220.43
416.68	220.99
417.06	221.76
417.43	222.54
417.81	223.32
418.18	224.19
418.55	225.14
418.93	226.06
419.30	226.97
419.67	228.00
420.04	228.94
420.42	229.92
420.79	231.36
421.16	232.54
421.54	234.08
421.91	235.43
422.28	236.79
422.66	238.28
423.03	239.92
423.40	241.45
423.77	243.00
424.15	244.56
424.52	246.33
424.89	248.18
425.26	249.83
425.64	251.55
426.01	253.30
426.38	255.26
426.75	257.42
427.13	259.49
427.50	261.69
427.87	263.93
428.24	266.12
428.61	268.04
428.99	270.56
429.36	272.95
429.73	275.42
430.10	277.99
430.47	280.57
430.85	283.09
431.22	285.90
431.59	289.03
431.96	291.96
432.33	295.10
432.70	298.17
433.08	301.83
433.45	305.23
433.82	308.67
434.19	312.35
434.56	315.94
434.93	319.46
435.30	322.91
435.68	326.73
436.05	330.58
436.42	334.37
436.79	337.77
437.16	341.40
437.53	345.34
437.90	349.13
438.27	353.06
438.64	356.95
439.01	360.67
439.38	363.70
439.75	366.86
440.13	370.41
440.50	373.78
440.87	376.59
441.24	379.49
441.61	382.67
441.98	385.15
442.35	387.78
442.72	390.50
443.09	393.29
443.46	394.94
443.83	396.01
444.20	396.99
444.57	398.29
444.94	399.01
445.31	399.76
445.68	400.82
446.05	401.00
446.42	400.58
446.79	400.29
447.16	399.93
447.53	399.60
447.90	398.15
448.27	396.62
448.64	394.66
449.01	393.14
449.37	390.63
449.74	388.04
450.11	385.35
450.48	382.10
450.85	378.63
451.22	375.74
451.59	373.09
451.96	370.53
452.33	367.10
452.70	363.90
453.07	360.05
453.43	355.82
453.80	352.21
454.17	348.75
454.54	345.23
454.91	341.60
455.28	337.97
455.65	334.70
456.02	332.04
456.38	329.14
456.75	325.66
457.12	322.73
457.49	319.93
457.86	316.92
458.23	314.69
458.59	312.14
458.96	309.62
459.33	307.21
459.70	304.86
460.07	303.04
460.43	300.97
460.80	299.08
461.17	297.47
461.54	295.69
461.91	293.99
462.27	292.30
462.64	290.85
463.01	289.26
463.38	287.92
463.74	285.69
464.11	284.22
464.48	283.08
464.85	281.75
465.21	280.74
465.58	279.67
465.95	278.28
466.32	277.21
466.68	276.12
467.05	275.16
467.42	274.07
467.78	272.93
468.15	271.96
468.52	271.20
468.88	270.12
469.25	269.12
469.62	268.38
469.98	267.51
470.35	266.74
470.72	266.08
471.08	265.19
471.45	264.70
471.82	264.23
472.18	263.55
472.55	263.06
472.92	262.41
473.28	261.89
473.65	261.34
474.02	260.86
474.38	260.57
474.75	260.19
475.11	259.92
475.48	259.74
475.85	259.48
476.21	259.13
476.58	258.95
476.94	258.91
477.31	258.87
477.67	258.78
478.04	258.73
478.41	258.73
478.77	259.02
479.14	259.00
479.50	259.07
479.87	259.21
480.23	259.27
480.60	259.39
480.96	259.63
481.33	260.01
481.69	260.27
482.06	260.43
482.42	260.78
482.79	261.11
483.15	261.37
483.52	261.86
483.88	262.42
484.25	262.87
484.61	263.35
484.98	263.80
485.34	264.59
485.71	265.32
486.07	266.05
486.44	266.50
486.80	267.28
487.17	268.06
487.53	269.02
487.90	270.11
488.26	271.28
488.62	272.42
488.99	273.48
489.35	274.68
489.72	275.91
490.08	277.19
490.44	278.58
490.81	280.17
491.17	281.69
491.54	283.30
491.90	285.16
492.26	287.04
492.63	289.02
492.99	290.91
493.36	293.00
493.72	295.24
494.08	297.43
494.45	299.83
494.81	302.43
495.17	304.97
495.54	307.70
495.90	310.45
496.26	313.34
496.63	316.45
496.99	319.65
497.35	323.08
497.72	326.53
498.08	330.08
498.44	333.75
498.80	337.71
499.17	341.71
499.53	345.76
499.89	349.90
500.26	354.26
500.62	358.80
500.98	363.61
501.34	368.39
501.71	373.49
502.07	378.62
502.43	383.76
502.79	389.12
503.16	394.68
503.52	400.38
503.88	406.16
504.24	412.20
504.60	418.33
504.97	424.82
505.33	431.25
505.69	438.24
506.05	445.14
506.41	451.97
506.78	459.14
507.14	466.52
507.50	474.18
507.86	481.96
508.22	489.87
508.59	497.68
508.95	505.89
509.31	514.33
509.67	522.81
510.03	531.59
510.39	540.50
510.75	549.51
511.12	558.58
511.48	567.85
511.84	577.43
512.20	586.89
512.56	596.57
512.92	606.55
513.28	616.28
513.64	626.30
514.00	636.65
514.37	646.99
514.73	657.32
515.09	667.76
515.45	678.13
515.81	688.65
516.17	699.31
516.53	710.12
516.89	720.93
517.25	731.92
517.61	743.00
517.97	753.87
518.33	764.84
518.69	776.32
519.05	787.71
519.41	798.94
519.77	810.79
520.13	822.06
520.49	833.03
520.85	844.41
521.21	856.20
521.57	868.04
521.93	879.30
522.29	891.15
522.65	902.81
523.01	914.40
523.37	925.87
523.73	937.76
524.09	949.43
524.45	961.21
524.81	972.93
525.17	984.64
525.53	996.45
525.89	1008.38
526.25	1019.78
526.61	1030.97
526.97	1042.50
527.33	1053.63
527.68	1065.26
528.04	1076.62
528.40	1087.67
528.76	1098.61
529.12	1109.65
529.48	1121.44
529.84	1132.67
530.20	1143.72
530.56	1154.97
530.91	1166.47
531.27	1177.39
531.63	1188.14
531.99	1198.72
532.35	1209.21
532.71	1219.55
533.07	1230.48
533.42	1240.99
533.78	1251.43
534.14	1261.74
534.50	1271.02
534.86	1281.13
535.21	1290.16
535.57	1300.24
535.93	1309.62
536.29	1318.90
536.65	1328.22
537.00	1336.56
537.36	1344.65
537.72	1353.13
538.08	1361.52
538.44	1369.71
538.79	1377.93
539.15	1385.94
539.51	1393.85
539.87	1401.99
540.22	1409.65
540.58	1417.26
540.94	1424.36
541.29	1431.18
541.65	1437.86
542.01	1445.05
542.37	1451.48
542.72	1458.26
543.08	1464.23
543.44	1471.26
543.79	1477.11
544.15	1482.48
544.51	1488.60
544.87	1494.91
545.22	1500.24
545.58	1504.86
545.94	1509.34
546.29	1513.45
546.65	1517.75
547.01	1521.86
547.36	1525.97
547.72	1529.93
548.07	1532.89
548.43	1535.94
548.79	1538.75
549.14	1541.73
549.50	1544.78
549.86	1547.25
550.21	1549.80
550.57	1552.57
550.92	1554.05
551.28	1555.99
551.64	1557.84
551.99	1560.05
552.35	1561.16
552.70	1562.59
553.06	1564.30
553.41	1565.50
553.77	1566.95
554.13	1568.11
554.48	1569.39
554.84	1570.49
555.19	1571.11
555.55	1571.97
555.90	1572.50
556.26	1572.97
556.61	1573.15
556.97	1572.61
557.32	1572.60
557.68	1571.98
558.03	1571.46
558.39	1571.02
558.74	1571.10
559.10	1570.83
559.45	1569.73
559.81	1569.48
560.16	1568.67
560.52	1567.89
560.87	1567.21
561.23	1565.95
561.58	1565.34
561.94	1563.69
562.29	1561.62
562.64	1560.56
563.00	1559.17
563.35	1558.15
563.71	1557.61
564.06	1557.05
564.42	1556.27
564.77	1555.43
565.12	1554.80
565.48	1553.57
565.83	1552.58
566.19	1551.23
566.54	1549.26
566.89	1547.50
567.25	1545.62
567.60	1544.17
567.96	1542.86
568.31	1541.38
568.66	1539.67
569.02	1537.03
569.37	1534.50
569.72	1532.67
570.08	1529.93
570.43	1527.28
570.78	1524.38
571.14	1520.89
571.49	1517.41
571.84	1514.77
572.20	1511.27
572.55	1508.08
572.90	1504.20
573.26	1500.13
573.61	1496.18
573.96	1492.72
574.31	1488.53
574.67	1484.54
575.02	1480.08
575.37	1475.70
575.72	1470.66
576.08	1466.95
576.43	1462.45
576.78	1458.54
577.13	1454.37
577.49	1450.55
577.84	1446.41
578.19	1442.80
578.54	1439.40
578.90	1436.00
579.25	1431.60
579.60	1427.24
579.95	1422.54
580.30	1418.93
580.66	1415.66
581.01	1411.47
581.36	1407.08
581.71	1403.00
582.06	1398.91
582.42	1395.01
582.77	1390.42
583.12	1386.49
583.47	1382.25
583.82	1378.79
584.17	1374.80
584.53	1370.71
584.88	1366.45
585.23	1362.28
585.58	1357.70
585.93	1353.02
586.28	1348.67
586.63	1344.65
586.98	1340.67
587.34	1337.11
587.69	1332.55
588.04	1328.24
588.39	1324.29
588.74	1320.07
589.09	1316.28
589.44	1311.84
589.79	1308.04
590.14	1304.25
590.49	1300.26
590.84	1295.94
591.19	1291.99
591.54	1287.93
591.89	1283.21
592.25	1278.91
592.60	1274.40
592.95	1269.88
593.30	1265.18
593.65	1260.30
594.00	1255.82
594.35	1252.66
594.70	1248.05
595.05	1244.41
595.40	1239.85
595.75	1235.00
596.10	1231.03
596.45	1226.97
596.80	1223.31
597.15	1219.05
597.50	1214.61
597.85	1210.57
598.19	1206.44
598.54	1202.18
598.89	1198.23
599.24	1194.86
599.59	1190.98
599.94	1187.75
600.29	1184.11
600.64	1180.69
600.99	1176.59
601.34	1172.95
601.69	1167.78
602.04	1163.82
602.39	1159.58
602.74	1155.73
603.08	1152.72
603.43	1149.51
603.78	1145.80
604.13	1141.94
604.48	1138.31
604.83	1135.36
605.18	1132.35
605.53	1128.36
605.87	1124.52
606.22	1120.98
606.57	1117.02
606.92	1113.27
607.27	1109.09
607.62	1105.00
607.96	1101.31
608.31	1097.98
608.66	1093.66
609.01	1089.70
609.36	1085.64
609.70	1081.41
610.05	1077.18
610.40	1072.89
610.75	1068.24
611.10	1064.18
611.44	1059.32
611.79	1054.30
612.14	1049.28
612.49	1043.96
612.83	1039.49
613.18	1034.54
613.53	1029.61
613.88	1024.49
614.22	1019.80
614.57	1015.01
614.92	1010.47
615.27	1005.43
615.61	1000.65
615.96	996.13
616.31	991.76
616.65	987.63
617.00	983.37
617.35	978.89
617.70	973.99
618.04	969.05
618.39	963.78
618.74	959.27
619.08	954.77
619.43	950.04
619.78	945.53
620.12	940.96
620.47	936.57
620.82	931.73
621.16	926.87
621.51	922.14
621.85	917.46
622.20	912.71
622.55	908.11
622.89	903.43
623.24	898.91
623.59	894.18
623.93	889.32
624.28	884.77
624.62	880.58
624.97	876.42
625.32	872.05
625.66	867.93
626.01	863.73
626.35	859.53
626.70	855.32
627.04	851.36
627.39	847.15
627.73	843.19
628.08	839.33
628.43	835.41
628.77	831.08
629.12	826.94
629.46	823.14
629.81	819.26
630.15	815.08
630.50	810.79
630.84	806.61
631.19	802.53
631.53	798.30
631.88	793.59
632.22	788.98
632.57	785.13
632.91	780.85
633.26	776.74
633.60	772.71
633.95	768.91
634.29	764.75
634.64	761.04
634.98	756.81
635.32	752.88
635.67	749.45
636.01	745.68
636.36	741.64
636.70	737.71
637.05	733.85
637.39	730.27
637.73	726.75
638.08	723.54
638.42	720.16
638.77	716.65
639.11	713.29
639.45	709.88
639.80	706.00
640.14	702.46
640.49	698.78
640.83	695.05
641.17	691.46
641.52	687.69
641.86	683.74
642.20	680.18
642.55	676.24
642.89	672.07
643.23	668.32
643.58	665.03
643.92	661.38
644.26	657.80
644.61	654.13
644.95	650.39
645.29	646.52
645.64	642.70
645.98	639.23
646.32	635.82
646.66	632.09
647.01	628.73
647.35	625.26
647.69	621.65
648.04	618.32
648.38	614.64
648.72	611.27
649.06	607.76
649.41	604.23
649.75	600.87
650.09	597.66
650.43	594.29
650.78	590.63
651.12	587.08
651.46	583.56
651.80	580.30
652.14	577.00
652.49	573.57
652.83	570.22
653.17	566.42
653.51	562.86
653.85	559.76
654.20	556.32
654.54	552.81
654.88	549.60
655.22	546.15
655.56	542.77
655.90	539.44
656.25	536.20
656.59	532.95
656.93	529.79
657.27	526.74
657.61	523.35
657.95	520.45
658.29	517.41
658.64	514.44
658.98	511.28
659.32	508.12
659.66	505.17
660.00	502.01
660.34	499.13
660.68	496.07
661.02	493.00
661.36	490.18
661.70	487.51
662.05	484.77
662.39	482.31
662.73	479.86
663.07	477.39
663.41	474.80
663.75	472.02
664.09	469.40
664.43	466.55
664.77	464.18
665.11	461.46
665.45	458.89
665.79	456.32
666.13	453.78
666.47	451.22
666.81	448.66
667.15	446.25
667.49	444.06
667.83	441.90
668.17	439.60
668.51	437.35
668.85	435.00
669.19	432.85
669.53	430.47
669.87	427.99
670.21	425.67
670.55	423.49
670.89	421.69
671.23	419.67
671.57	417.71
671.91	415.64
672.25	413.56
672.58	411.61
672.92	409.52
673.26	407.77
673.60	406.00
673.94	404.10
674.28	402.37
674.62	400.51
674.96	398.60
675.30	396.87
675.64	394.98
675.97	393.24
676.31	391.34
676.65	389.60
676.99	388.03
677.33	386.13
677.67	384.35
678.01	382.47
678.34	380.73
678.68	379.08
679.02	377.24
679.36	375.65
679.70	373.95
680.04	372.36
680.37	370.55
680.71	368.83
681.05	367.30
681.39	365.49
681.73	363.83
682.06	362.40
682.40	360.76
682.74	359.17
683.08	357.68
683.42	356.10
683.75	354.61
684.09	353.06
684.43	351.58
684.77	350.09
685.10	348.63
685.44	347.00
685.78	345.38
686.12	344.14
686.45	342.78
686.79	341.43
687.13	340.15
687.46	338.84
687.80	337.67
688.14	336.22
688.48	334.97
688.81	333.54
689.15	332.06
689.49	330.68
689.82	329.42
690.16	327.97
690.50	326.60
690.83	325.12
691.17	323.75
691.51	322.46
691.84	321.17
692.18	319.99
692.52	318.95
692.85	317.99
693.19	316.91
693.52	315.71
693.86	314.37
694.20	313.20
694.53	311.99
694.87	310.65
695.21	309.57
695.54	308.42
695.88	307.29
696.21	306.16
696.55	305.12
696.88	303.93
697.22	302.89
697.56	301.97
697.89	300.97
698.23	299.91
698.56	298.87
698.90	297.95
699.23	296.82
699.57	295.71
699.90	294.50
700.24	293.36
700.58	292.24
700.91	291.37
701.25	290.57
701.58	289.69
701.92	288.93
702.25	287.95
702.59	287.04
702.92	286.20
703.26	285.35
703.59	284.55
703.93	284.11
704.26	283.24
704.60	282.40
704.93	281.57
705.26	280.77
705.60	280.10
705.93	279.20
706.27	278.54
706.60	277.95
706.94	277.38
707.27	276.55
707.61	275.95
707.94	275.18
708.27	274.26
708.61	273.39
708.94	272.59
709.28	271.95
709.61	271.25
709.94	270.60
710.28	269.90
710.61	269.15
710.95	268.17
711.28	267.79
711.61	267.04
711.95	266.51
712.28	265.84
712.61	265.20
712.95	264.82
713.28	264.27
713.61	263.57
713.95	262.93
714.28	262.47
714.61	261.84
714.95	261.34
715.28	260.72
715.61	260.19
715.95	259.53
716.28	258.88
716.61	258.34
716.95	257.70
717.28	257.21
717.61	256.75
717.94	256.25
718.28	255.51
718.61	255.08
718.94	254.50
719.27	253.97
719.61	253.43
719.94	252.85
720.27	252.32
720.60	251.77
720.94	251.18
721.27	250.72
721.60	250.32
721.93	249.79
722.27	249.52
722.60	249.24
722.93	248.94
723.26	248.63
723.59	248.20
723.93	247.90
724.26	247.47
724.59	247.04
724.92	246.71
725.25	246.41
725.59	246.02
725.92	245.69
726.25	245.37
726.58	245.05
726.91	244.69
727.24	244.36
727.57	244.11
727.91	243.80
728.24	243.54
728.57	243.11
728.90	242.90
729.23	242.40
729.56	242.20
729.89	241.91
730.22	241.57
730.55	241.27
730.89	240.89
731.22	240.57
731.55	240.30
731.88	239.98
732.21	239.58
732.54	239.20
732.87	238.90
733.20	238.64
733.53	238.31
733.86	238.04
734.19	237.72
734.52	237.44
734.85	237.48
735.18	237.09
735.51	236.99
735.84	236.67
736.17	236.54
736.50	236.05
736.83	236.10
737.16	235.91
737.49	235.71
737.82	235.48
738.15	235.31
738.48	235.02
738.81	234.77
739.14	234.54
739.47	234.32
739.80	234.08
740.13	233.83
740.46	233.59
740.79	233.35
741.12	233.05
741.45	232.77
741.78	232.27
742.11	232.23
742.44	231.91
742.77	231.75
743.10	231.44
743.43	231.17
743.75	230.68
744.08	230.92
744.41	230.57
744.74	230.33
745.07	230.00
745.40	229.88
745.73	229.75
746.06	229.57
746.39	229.36
746.71	229.14
747.04	228.94
747.37	228.78
747.70	228.62
748.03	228.45
748.36	228.32
748.68	228.14
749.01	227.80
749.34	227.60
749.67	227.43
750.00	227.38
750.33	227.48
750.65	227.25
750.98	226.55
751.31	226.45
751.64	226.38
751.97	226.44
752.29	226.22
752.62	225.93
752.95	225.72
753.28	225.52
753.60	225.31
753.93	225.26
754.26	225.14
754.59	224.94
754.91	224.79
755.24	224.60
755.57	224.41
755.90	224.24
756.22	224.06
756.55	223.84
756.88	223.61
757.20	223.25
757.53	223.07
757.86	222.90
758.19	222.81
758.51	222.65
758.84	222.28
759.17	222.17
759.49	222.07
759.82	222.13
760.15	222.10
760.47	221.96
760.80	221.77
761.13	221.68
761.45	221.51
761.78	221.40
762.11	221.32
762.43	221.25
762.76	221.21
763.08	221.14
763.41	221.10
763.74	221.02
764.06	220.93
764.39	220.84
764.71	220.77
765.04	220.65
765.37	220.58
765.69	220.55
766.02	220.43
766.34	220.35
766.67	220.15
767.00	220.13
767.32	220.35
767.65	220.44
767.97	220.34
768.30	220.28
768.62	220.23
768.95	220.15
769.27	220.10
769.60	219.97
769.92	219.86
770.25	219.67
770.57	219.51
770.90	219.44
771.22	219.35
771.55	219.28
771.87	219.17
772.20	219.05
772.52	219.23
772.85	219.57
773.17	219.50
773.50	219.37
773.82	219.19
774.15	218.93
774.47	218.69
774.80	218.57
775.12	218.52
775.45	218.42
775.77	218.32
776.09	218.27
776.42	218.23
776.74	218.32
777.07	218.30
777.39	218.22
777.72	218.15
778.04	218.12
778.36	218.00
778.69	217.95
779.01	217.88
779.33	217.59
779.66	217.13
779.98	217.05
780.31	217.04
780.63	217.10
780.95	217.07
781.28	216.96
781.60	216.88
781.92	216.81
782.25	216.72
782.57	216.67
782.89	216.58
783.22	216.53
783.54	216.40
783.86	216.34
784.19	216.34
784.51	216.49
784.83	216.40
785.16	216.38
785.48	216.31
785.80	216.31
786.12	216.22
786.45	216.24
786.77	216.16
787.09	216.07
787.42	215.95
787.74	215.93
788.06	215.92
788.38	215.81
788.71	215.72
789.03	215.75
789.35	215.73
789.67	215.62
789.99	215.55
790.32	215.45
790.64	215.44
790.96	215.66
791.28	215.42
791.61	215.41
791.93	215.41
792.25	215.43
792.57	215.57
792.89	215.54
793.21	215.45
793.54	215.38
793.86	215.36
794.18	215.34
794.50	215.21
794.82	215.15
795.14	215.16
795.47	215.25
795.79	215.21
796.11	215.11
796.43	215.11
796.75	215.12
797.07	215.09
797.39	215.07
797.71	214.76
798.04	214.76
798.36	214.66
798.68	214.70
799.00	214.64
799.32	214.50
799.64	214.48
799.96	214.42
800.28	214.50
800.60	214.40
800.92	214.38
801.24	214.41
801.56	214.50
801.89	214.43
802.21	214.38
802.53	214.35
802.85	214.41
803.17	214.46
803.49	214.35
803.81	214.36
804.13	214.35
804.45	214.23
804.77	214.22
805.09	214.22
805.41	214.08
805.73	214.04
806.05	213.85
806.37	213.83
806.69	213.80
807.01	213.74
807.33	213.73
807.65	213.70
807.97	213.79
808.28	213.65
808.60	213.67
808.92	213.65
809.24	213.76
809.56	213.68
809.88	213.56
810.20	213.51
810.52	213.52
810.84	213.39
811.16	213.42
811.48	213.35
811.80	213.45
812.12	213.42
812.43	213.42
812.75	213.45
813.07	213.35
813.39	213.32
813.71	213.25
814.03	213.22
814.35	213.11
814.67	212.90
814.98	212.89
815.30	212.87
815.62	212.78
815.94	212.53
816.26	212.49
816.58	212.46
816.89	212.60
817.21	212.52
817.53	212.51
817.85	212.52
818.17	212.53
818.48	212.33
818.80	212.42
819.12	212.34
819.44	212.34
819.76	212.36
820.07	212.37
820.39	212.38
820.71	212.35
821.03	212.39
821.34	212.39
821.66	212.41
821.98	212.39
822.30	212.36
822.61	212.61
822.93	212.64
823.25	212.65
823.57	212.48
823.88	212.57
824.20	212.61
824.52	212.67
824.83	212.60
825.15	212.63
825.47	212.60
825.79	212.68
826.10	212.59
826.42	212.58
826.74	212.62
827.05	212.59
827.37	212.65
827.69	212.65
828.00	212.66
828.32	212.67
828.64	212.66
828.95	212.84
829.27	212.72
829.58	212.62
829.90	212.65
830.22	212.70
830.53	212.60
830.85	212.53
831.17	212.37
831.48	212.40
831.80	212.40
832.11	212.36
832.43	212.23
832.75	212.28
833.06	212.47
833.38	212.36
833.69	212.38
834.01	212.42
834.32	212.37
834.64	212.31
834.96	212.23
835.27	212.18
835.59	212.04
835.90	211.90
836.22	211.95
836.53	211.92
836.85	211.91
837.16	212.24
837.48	212.27
837.79	212.39
838.11	212.41
838.42	212.40
838.74	212.39
839.05	212.45
839.37	212.31
839.68	212.06
840.00	212.02
840.31	211.97
840.63	211.89
840.94	211.87
841.26	211.87
841.57	211.86
841.88	211.92
842.20	211.89
842.51	211.87
842.83	211.90
843.14	212.17
843.46	212.12
843.77	211.89
844.08	211.90
844.40	211.81
844.71	211.67
845.03	211.59
845.34	211.59
845.65	211.51
845.97	211.59
846.28	211.62
846.60	211.67
846.91	211.65
847.22	211.64
847.54	211.67
847.85	211.71
848.16	211.69
848.48	211.58
848.79	211.73
849.10	211.76
849.42	211.72
849.73	211.37
850.04	211.39
850.36	211.31
850.67	211.28
850.98	211.31
851.30	211.43
851.61	211.50
851.92	211.51
852.23	211.65
852.55	211.65
852.86	211.70
853.17	211.79
853.49	211.85
853.80	211.88
854.11	211.88
854.42	211.85
854.74	211.84
855.05	211.90
855.36	211.75
855.67	211.83
855.99	211.81
856.30	212.25
856.61	212.22
856.92	212.18
857.23	212.23
857.55	212.18
857.86	212.15
858.17	212.15
858.48	212.10
858.79	212.03
859.11	212.12
859.42	212.08
859.73	212.06
860.04	212.05
860.35	211.95
860.66	211.89
860.98	211.92
861.29	211.90
861.60	211.86
861.91	211.89
862.22	211.81
862.53	211.75
862.84	211.29
863.16	211.35
863.47	211.30
863.78	211.27
864.09	211.36
864.40	211.35
864.71	211.36
865.02	211.35
865.33	211.27
865.64	211.20
865.95	211.15
866.27	211.25
866.58	211.20
866.89	211.28
867.20	211.25
867.51	211.20
867.82	211.28
868.13	211.34
868.44	211.25
868.75	211.32
869.06	211.37
869.37	211.47
869.68	211.42
869.99	211.51
870.30	211.54
870.61	211.56
870.92	211.59
871.23	211.53
871.54	211.61
871.85	211.80
872.16	211.83
872.47	211.85
872.78	211.73
873.09	211.74
873.40	211.63
873.71	211.73
874.02	211.71
874.33	211.63
874.64	211.65
874.95	211.67
875.26	211.60
875.56	211.60
875.87	211.53
876.18	211.46
876.49	211.74
876.80	211.75
877.11	211.61
877.42	211.60
877.73	211.57
878.04	211.49
878.35	211.46
878.66	211.42
878.96	211.47
879.27	211.47
879.58	211.46
879.89	211.50
880.20	211.60
880.51	211.55
880.82	211.51
881.12	211.48
881.43	211.45
881.74	211.42
882.05	211.38
882.36	211.43
882.67	211.48
882.97	211.14
883.28	211.12
883.59	211.15
883.90	211.21
884.21	211.32
884.51	211.24
884.82	211.13
885.13	211.13
885.44	211.03
885.74	210.98
886.05	210.98
886.36	211.01
886.67	210.81
886.98	211.08
887.28	211.16
887.59	211.10
887.90	211.11
888.20	211.10
888.51	211.11
888.82	211.11
889.13	211.15
889.43	211.45
889.74	211.38
890.05	211.31
890.35	211.24
890.66	211.14
890.97	211.20
891.28	211.18
891.58	211.18
891.89	211.21
892.20	211.24
892.50	211.20
892.81	211.13
893.12	211.08
893.42	210.87
893.73	210.89
894.04	210.96
894.34	210.98
894.65	210.97
894.95	211.01
895.26	210.96
895.57	211.09
895.87	210.74
896.18	210.80
896.48	210.89
896.79	210.84
897.10	210.87
897.40	210.90
897.71	210.93
898.01	210.93
898.32	210.93
898.63	210.87
898.93	210.95
899.24	211.02
899.54	211.08
899.85	210.96
900.15	210.98
900.46	210.96
900.76	211.02
901.07	210.95
901.38	210.90
901.68	210.90
901.99	210.70
902.29	210.71
902.60	210.70
902.90	210.65
903.21	210.65
903.51	210.73
903.82	210.78
904.12	210.82
904.43	210.81
904.73	210.77
905.03	210.80
905.34	211.08
905.64	211.03
905.95	211.13
906.25	211.18
906.56	211.13
906.86	211.14
907.17	211.06
907.47	211.16
907.77	211.15
908.08	211.12
908.38	211.15
908.69	211.21
908.99	211.25
909.30	211.29
909.60	211.33
909.90	211.25
910.21	211.14
910.51	211.05
910.81	211.04
911.12	211.07
911.42	211.11
911.73	210.71
912.03	210.75
912.33	210.72
912.64	210.80
912.94	210.73
913.24	210.61
913.55	210.58
913.85	210.57
914.15	210.69
914.46	210.77
914.76	210.80
915.06	210.76
915.37	210.65
915.67	210.59
915.97	210.64
916.27	210.57
916.58	210.58
916.88	210.58
917.18	210.54
917.49	210.86
917.79	210.79
918.09	210.94
918.39	211.05
918.70	211.07
919.00	211.06
919.30	211.24
919.60	211.33
919.91	211.34
920.21	211.35
920.51	211.20
920.81	211.18
921.12	211.22
921.42	211.19
921.72	211.27
922.02	211.34
922.32	211.33
922.63	211.35
922.93	211.57
923.23	211.63
923.53	211.70
923.83	211.38
924.13	211.45
924.44	211.51
924.74	211.58
925.04	211.68
925.34	211.71
925.64	211.60
925.94	211.64
926.24	211.86
926.55	211.84
926.85	211.97
927.15	212.01
927.45	212.03
927.75	212.06
928.05	212.10
928.35	212.07
928.65	212.20
928.95	212.32
929.26	212.17
929.56	212.23
929.86	212.20
930.16	212.22
930.46	212.17
930.76	212.05
931.06	211.84
931.36	211.70
931.66	211.68
931.96	211.71
932.26	211.71
932.56	211.55
932.86	211.65
933.16	211.62
933.46	211.56
933.76	211.52
934.06	211.61
934.36	211.68
934.66	211.72
934.96	211.63
935.26	211.55
935.56	211.63
935.86	211.53
936.16	211.55
936.46	211.51
936.76	211.52
937.06	211.56
937.36	211.58
937.66	211.65
937.96	211.64
938.26	211.56
938.56	211.51
938.86	211.54
939.16	211.53
939.46	211.55
939.76	211.51
940.06	211.50
940.35	211.40
940.65	211.21
940.95	211.19
941.25	211.06
941.55	211.07
941.85	210.98
942.15	211.10
942.45	211.16
942.75	211.19
943.04	211.25
943.34	211.23
943.64	211.27
943.94	211.22
944.24	211.26
944.54	211.29
944.84	211.25
945.13	211.16
945.43	211.08
945.73	211.02
946.03	211.05
946.33	210.95
946.62	210.92
946.92	210.94
947.22	210.94
947.52	211.04
947.82	211.08
948.11	211.04
948.41	210.92
948.71	210.83
949.01	210.77
949.31	210.70
949.60	210.69
949.90	210.71
950.20	210.62
950.50	210.65
950.79	210.63
951.09	210.71
951.39	210.71
951.69	210.73
951.98	210.83
952.28	210.88
952.58	210.87
952.87	210.87
953.17	210.87
953.47	210.78
953.76	210.72
954.06	210.68
954.36	210.69
954.66	210.77
954.95	210.84
955.25	210.95
955.55	210.93
955.84	210.85
956.14	210.86
956.44	210.89
956.73	210.77
957.03	210.71
957.32	210.70
957.62	210.69
957.92	210.74
958.21	210.73
958.51	211.03
958.81	211.06
959.10	211.16
959.40	211.26
959.69	211.37
959.99	211.43
960.29	211.41
960.58	211.39
960.88	211.44
961.17	211.40
961.47	211.47
961.76	211.51
962.06	211.56
962.36	211.47
962.65	211.54
962.95	211.60
963.24	211.65
963.54	211.69
963.83	211.72
964.13	211.68
964.42	211.57
964.72	211.34
965.01	211.40
965.31	211.38
965.60	211.31
965.90	211.55
966.19	211.51
966.49	211.56
966.78	211.55
967.08	211.52
967.37	211.49
967.67	211.33
967.96	211.45
968.26	211.52
968.55	211.65
968.85	211.53
969.14	211.61
969.43	211.58
969.73	211.58
970.02	211.59
970.32	211.56
970.61	211.55
970.91	211.45
971.20	211.39
971.49	211.33
971.79	211.40
972.08	211.10
972.38	211.13
972.67	211.09
972.96	211.16
973.26	211.10
973.55	211.22
973.85	211.25
974.14	211.13
974.43	211.14
974.73	211.06
975.02	211.15
975.31	211.06
975.61	211.10
975.90	211.02
976.19	210.99
976.49	211.04
976.78	211.10
977.07	211.14
977.37	211.15
977.66	211.16
977.95	211.07
978.24	211.09
978.54	211.17
978.83	211.17
979.12	211.18
979.42	211.18
979.71	211.11
980.00	211.15
980.29	211.13
980.59	211.11
980.88	211.20
981.17	211.22
981.46	211.18
981.76	211.22
982.05	211.34
982.34	211.35
982.63	211.35
982.93	211.36
983.22	211.41
983.51	211.40
983.80	211.52
984.09	211.54
984.39	211.54
984.68	211.43
984.97	211.43
985.26	211.34
985.55	211.35
985.85	211.27
986.14	211.28
986.43	211.37
986.72	211.27
987.01	211.15
987.30	211.09
987.59	211.03
987.89	211.00
988.18	210.94
988.47	210.87
988.76	210.88
989.05	210.79
989.34	210.75
989.63	210.84
989.92	210.76
990.22	210.80
990.51	210.78
990.80	210.73
991.09	210.83
991.38	210.95
991.67	210.90
991.96	210.88
992.25	210.91
992.54	210.88
992.83	210.91
993.12	210.94
993.41	210.98
993.70	211.18
993.99	211.21
994.28	211.25
994.58	211.37
994.87	211.29
995.16	211.32
995.45	211.33
995.74	211.27
996.03	211.28
996.32	211.26
996.61	211.29
996.90	211.35
997.19	211.26
997.48	211.21
997.77	211.22
998.06	211.27
998.34	211.15
998.63	211.08
998.92	211.09
999.21	211.07
999.50	211.05
999.79	210.94
1000.08	210.94
1000.37	210.89
1000.66	210.83
1000.95	210.95
1001.24	210.93
1001.53	210.89
1001.82	210.87
1002.11	210.81
1002.40	210.89
1002.68	211.01
1002.97	211.20
1003.26	211.21
1003.55	211.11
1003.84	211.09
1004.13	211.23
1004.42	211.25
1004.71	211.33
1004.99	211.35
1005.28	211.45
1005.57	211.49
1005.86	211.38
1006.15	211.30
1006.44	211.24
1006.72	211.28
1007.01	211.16
1007.30	211.18
1007.59	211.16
1007.88	211.18
1008.17	211.16
1008.45	211.06
1008.74	210.85
1009.03	210.69
1009.32	210.67
1009.60	210.70
1009.89	210.67
1010.18	210.46
1010.47	210.41
1010.76	210.32
1011.04	210.25
1011.33	210.29
1011.62	210.26
1011.91	210.29
1012.19	210.39
1012.48	210.42
1012.77	210.36
1013.05	210.53
1013.34	210.50
1013.63	210.51
1013.92	210.48
1014.20	210.48
1014.49	210.50
1014.78	210.57
1015.06	210.45
1015.35	210.38
1015.64	210.37
1015.92	210.41
1016.21	210.43
1016.50	210.46
1016.78	210.53
1017.07	210.57
1017.36	210.43
1017.64	210.40
1017.93	210.52
1018.22	210.45
1018.50	210.46
1018.79	210.55
1019.08	210.34
1019.36	210.38
1019.65	210.37
1019.93	210.46
1020.22	210.56
1020.51	210.71
1020.79	210.73
1021.08	210.15
1021.36	210.70
1021.65	211.90
1021.94	209.45
1022.22	210.70
1022.51	210.55
1022.79	212.20
1023.08	211.95
1023.36	214.75
1023.65	210.60
>>>>>End Processed Spectral Data<<<<<
