SpectraSuite Data File
++++++++++++++++++++++++++++++++++++
Date: Mon Feb 25 17:08:07 EST 2013
User: group
Dark Spectrum Present: No
Reference Spectrum Present: No
Number of Sampled Component Spectra: 1
Spectrometers: USB2E7196
Integration Time (usec): 104000 (USB2E7196)
Spectra Averaged: 20 (USB2E7196)
Boxcar Smoothing: 10 (USB2E7196)
Correct for Electrical Dark: No (USB2E7196)
Strobe/Lamp Enabled: No (USB2E7196)
Correct for Detector Non-linearity: No (USB2E7196)
Correct for Stray Light: No (USB2E7196)
Number of Pixels in Processed Spectrum: 2048
>>>>>Begin Processed Spectral Data<<<<<
339.09	0.00
339.48	198.75
339.86	199.70
340.24	201.35
340.63	203.15
341.01	207.65
341.39	206.20
341.78	205.75
342.16	209.35
342.54	209.30
342.93	198.44
343.31	208.46
343.69	209.02
344.07	209.48
344.46	209.96
344.84	210.31
345.22	210.45
345.60	210.65
345.99	210.90
346.37	211.01
346.75	211.05
347.13	211.13
347.52	211.21
347.90	211.31
348.28	211.30
348.66	211.33
349.05	211.19
349.43	211.29
349.81	211.23
350.19	211.20
350.57	211.30
350.96	211.36
351.34	211.40
351.72	211.46
352.10	211.56
352.48	211.55
352.87	211.60
353.25	211.62
353.63	211.70
354.01	211.76
354.39	211.78
354.77	211.93
355.15	212.05
355.54	212.05
355.92	212.02
356.30	212.06
356.68	212.38
357.06	212.46
357.44	212.43
357.82	212.48
358.20	212.58
358.58	212.65
358.97	212.67
359.35	212.79
359.73	212.87
360.11	212.92
360.49	213.00
360.87	213.03
361.25	213.12
361.63	213.19
362.01	213.26
362.39	213.31
362.77	213.27
363.15	213.27
363.53	213.37
363.91	213.35
364.29	213.40
364.67	213.04
365.05	213.05
365.43	213.11
365.81	213.12
366.19	213.25
366.57	213.35
366.95	213.26
367.33	213.15
367.71	213.08
368.09	213.05
368.47	213.01
368.85	212.94
369.23	213.03
369.61	212.98
369.99	213.00
370.37	213.00
370.75	213.21
371.13	213.17
371.51	213.02
371.89	213.09
372.27	213.08
372.65	213.12
373.03	213.04
373.41	212.95
373.78	212.88
374.16	212.64
374.54	212.46
374.92	212.44
375.30	212.45
375.68	212.39
376.06	212.40
376.44	212.38
376.82	212.38
377.19	212.27
377.57	212.16
377.95	212.08
378.33	211.95
378.71	211.62
379.09	211.71
379.47	211.74
379.84	211.59
380.22	211.46
380.60	211.40
380.98	211.31
381.36	211.28
381.73	211.25
382.11	211.30
382.49	211.27
382.87	211.22
383.25	211.20
383.62	211.56
384.00	211.44
384.38	211.37
384.76	211.44
385.13	211.48
385.51	211.44
385.89	211.39
386.27	211.43
386.64	211.46
387.02	211.29
387.40	211.22
387.78	211.26
388.15	211.26
388.53	211.16
388.91	211.23
389.29	211.16
389.66	211.12
390.04	211.03
390.42	211.02
390.79	211.01
391.17	210.98
391.55	210.58
391.92	210.65
392.30	210.69
392.68	210.55
393.05	210.58
393.43	210.55
393.81	210.52
394.18	210.44
394.56	210.44
394.94	210.52
395.31	210.51
395.69	210.57
396.06	210.56
396.44	210.59
396.82	210.58
397.19	210.82
397.57	210.81
397.95	210.87
398.32	210.83
398.70	210.85
399.07	210.90
399.45	210.94
399.82	210.92
400.20	210.86
400.58	210.92
400.95	210.80
401.33	210.85
401.70	211.13
402.08	211.10
402.45	211.12
402.83	211.23
403.20	211.21
403.58	211.22
403.95	211.37
404.33	211.46
404.71	211.48
405.08	211.64
405.46	211.73
405.83	211.76
406.21	211.79
406.58	211.95
406.96	211.98
407.33	212.06
407.70	212.24
408.08	212.64
408.45	212.83
408.83	213.07
409.20	213.24
409.58	213.16
409.95	213.49
410.33	213.80
410.70	213.90
411.08	214.18
411.45	214.38
411.82	214.62
412.20	214.98
412.57	215.47
412.95	215.55
413.32	215.99
413.69	216.37
414.07	216.78
414.44	217.16
414.82	217.67
415.19	218.30
415.56	218.78
415.94	219.16
416.31	219.87
416.68	220.50
417.06	221.35
417.43	222.13
417.81	222.97
418.18	223.69
418.55	224.56
418.93	225.54
419.30	226.51
419.67	227.54
420.04	228.59
420.42	229.62
420.79	231.21
421.16	232.45
421.54	234.03
421.91	235.36
422.28	236.91
422.66	238.39
423.03	240.15
423.40	241.73
423.77	243.46
424.15	245.07
424.52	246.79
424.89	248.71
425.26	250.50
425.64	252.20
426.01	254.16
426.38	256.29
426.75	258.47
427.13	260.65
427.50	262.89
427.87	265.26
428.24	267.60
428.61	269.59
428.99	272.20
429.36	274.73
429.73	277.47
430.10	280.09
430.47	282.92
430.85	285.50
431.22	288.41
431.59	291.81
431.96	294.87
432.33	298.30
432.70	301.55
433.08	305.42
433.45	309.11
433.82	312.83
434.19	316.77
434.56	320.72
434.93	324.52
435.30	328.31
435.68	332.44
436.05	336.51
436.42	340.64
436.79	344.49
437.16	348.55
437.53	352.81
437.90	357.06
438.27	361.28
438.64	365.73
439.01	369.88
439.38	373.22
439.75	376.78
440.13	380.75
440.50	384.50
440.87	387.73
441.24	390.85
441.61	394.26
441.98	396.91
442.35	399.91
442.72	403.04
443.09	406.21
443.46	408.10
443.83	409.58
444.20	410.74
444.57	412.21
444.94	413.07
445.31	414.01
445.68	415.27
446.05	415.62
446.42	415.18
446.79	414.83
447.16	414.52
447.53	414.42
447.90	413.07
448.27	411.68
448.64	409.60
449.01	408.19
449.37	405.70
449.74	403.12
450.11	400.25
450.48	396.78
450.85	393.12
451.22	390.09
451.59	387.23
451.96	384.54
452.33	380.89
452.70	377.52
453.07	373.44
453.43	368.97
453.80	365.11
454.17	361.42
454.54	357.88
454.91	354.00
455.28	350.04
455.65	346.45
456.02	343.40
456.38	340.26
456.75	336.59
457.12	333.42
457.49	330.34
457.86	327.04
458.23	324.62
458.59	321.85
458.96	319.13
459.33	316.56
459.70	314.07
460.07	312.06
460.43	309.74
460.80	307.73
461.17	305.89
461.54	303.89
461.91	301.98
462.27	300.03
462.64	298.37
463.01	296.68
463.38	295.12
463.74	292.81
464.11	291.36
464.48	289.94
464.85	288.41
465.21	287.44
465.58	286.34
465.95	284.76
466.32	283.58
466.68	282.33
467.05	281.09
467.42	279.85
467.78	278.64
468.15	277.44
468.52	276.49
468.88	275.20
469.25	274.16
469.62	273.29
469.98	272.41
470.35	271.58
470.72	270.68
471.08	269.58
471.45	268.97
471.82	268.24
472.18	267.49
472.55	267.00
472.92	266.20
473.28	265.55
473.65	264.99
474.02	264.37
474.38	263.96
474.75	263.59
475.11	263.10
475.48	262.75
475.85	262.38
476.21	262.12
476.58	261.92
476.94	261.75
477.31	261.53
477.67	261.26
478.04	261.03
478.41	260.86
478.77	261.08
479.14	260.81
479.50	260.66
479.87	260.69
480.23	260.45
480.60	260.33
480.96	260.24
481.33	260.38
481.69	260.44
482.06	260.40
482.42	260.43
482.79	260.58
483.15	260.58
483.52	260.93
483.88	260.96
484.25	261.10
484.61	261.26
484.98	261.54
485.34	261.97
485.71	262.41
486.07	262.79
486.44	262.89
486.80	263.30
487.17	263.79
487.53	264.30
487.90	265.03
488.26	265.75
488.62	266.50
488.99	267.02
489.35	267.70
489.72	268.31
490.08	269.11
490.44	269.78
490.81	270.68
491.17	271.39
491.54	272.34
491.90	273.33
492.26	274.23
492.63	275.21
492.99	276.15
493.36	277.17
493.72	278.33
494.08	279.48
494.45	280.75
494.81	282.04
495.17	283.27
495.54	284.62
495.90	285.98
496.26	287.29
496.63	288.74
496.99	290.19
497.35	291.77
497.72	293.30
498.08	294.85
498.44	296.47
498.80	298.24
499.17	299.85
499.53	301.54
499.89	303.51
500.26	305.34
500.62	307.23
500.98	309.25
501.34	311.26
501.71	313.39
502.07	315.39
502.43	317.40
502.79	319.49
503.16	321.52
503.52	323.65
503.88	325.83
504.24	328.19
504.60	330.52
504.97	332.93
505.33	335.26
505.69	337.95
506.05	340.45
506.41	342.90
506.78	345.44
507.14	348.13
507.50	350.76
507.86	353.46
508.22	356.22
508.59	358.90
508.95	361.71
509.31	364.60
509.67	367.49
510.03	370.49
510.39	373.45
510.75	376.59
511.12	379.62
511.48	382.61
511.84	385.60
512.20	388.60
512.56	391.83
512.92	395.02
513.28	398.23
513.64	401.42
514.00	404.73
514.37	408.12
514.73	411.27
515.09	414.63
515.45	417.93
515.81	421.30
516.17	424.61
516.53	427.91
516.89	431.17
517.25	434.54
517.61	438.04
517.97	441.47
518.33	444.81
518.69	448.37
519.05	452.18
519.41	455.87
519.77	459.86
520.13	463.44
520.49	467.04
520.85	470.60
521.21	474.48
521.57	478.35
521.93	482.03
522.29	485.99
522.65	489.72
523.01	493.64
523.37	497.41
523.73	501.40
524.09	505.32
524.45	509.40
524.81	513.52
525.17	517.54
525.53	521.64
525.89	525.78
526.25	529.95
526.61	533.86
526.97	537.95
527.33	541.98
527.68	546.49
528.04	550.77
528.40	555.05
528.76	559.06
529.12	563.25
529.48	567.74
529.84	572.07
530.20	576.41
530.56	580.75
530.91	585.12
531.27	589.54
531.63	593.98
531.99	598.39
532.35	602.61
532.71	606.82
533.07	611.33
533.42	615.83
533.78	620.23
534.14	624.55
534.50	628.66
534.86	632.94
535.21	636.74
535.57	641.08
535.93	645.14
536.29	649.63
536.65	653.80
537.00	657.64
537.36	661.63
537.72	665.76
538.08	669.75
538.44	673.73
538.79	677.74
539.15	681.72
539.51	685.65
539.87	689.78
540.22	693.84
540.58	697.78
540.94	701.58
541.29	705.29
541.65	709.03
542.01	712.83
542.37	716.54
542.72	720.44
543.08	723.99
543.44	727.97
543.79	731.36
544.15	734.87
544.51	738.79
544.87	742.54
545.22	745.98
545.58	749.29
545.94	752.60
546.29	755.71
546.65	758.82
547.01	761.67
547.36	764.65
547.72	767.65
548.07	770.51
548.43	773.18
548.79	775.72
549.14	778.37
549.50	781.13
549.86	783.58
550.21	785.78
550.57	788.29
550.92	790.23
551.28	792.50
551.64	794.81
551.99	796.70
552.35	798.52
552.70	800.44
553.06	802.47
553.41	804.38
553.77	806.32
554.13	808.04
554.48	810.18
554.84	812.11
555.19	813.76
555.55	815.53
555.90	817.03
556.26	818.55
556.61	819.91
556.97	821.18
557.32	822.54
557.68	823.85
558.03	825.07
558.39	826.26
558.74	827.53
559.10	828.82
559.45	830.14
559.81	831.62
560.16	832.70
560.52	833.89
560.87	835.02
561.23	835.80
561.58	837.15
561.94	837.81
562.29	838.36
562.64	839.17
563.00	839.76
563.35	840.83
563.71	841.92
564.06	842.87
564.42	843.95
564.77	844.94
565.12	846.00
565.48	847.01
565.83	848.10
566.19	849.09
566.54	849.26
566.89	849.76
567.25	850.12
567.60	850.74
567.96	851.32
568.31	851.79
568.66	852.22
569.02	852.01
569.37	851.97
569.72	852.35
570.08	852.43
570.43	852.39
570.78	852.07
571.14	851.53
571.49	851.27
571.84	850.84
572.20	850.08
572.55	849.67
572.90	848.79
573.26	847.82
573.61	846.63
573.96	846.07
574.31	845.17
574.67	843.95
575.02	842.62
575.37	841.36
575.72	840.07
576.08	839.11
576.43	838.18
576.78	837.18
577.13	835.93
577.49	834.66
577.84	833.62
578.19	832.58
578.54	831.73
578.90	830.77
579.25	829.60
579.60	828.41
579.95	826.97
580.30	825.98
580.66	825.16
581.01	824.13
581.36	822.60
581.71	821.33
582.06	820.33
582.42	819.24
582.77	817.93
583.12	816.67
583.47	815.47
583.82	814.42
584.17	813.40
584.53	812.48
584.88	811.26
585.23	810.01
585.58	808.84
585.93	807.35
586.28	806.09
586.63	804.77
586.98	803.74
587.34	802.57
587.69	801.07
588.04	799.60
588.39	798.21
588.74	796.82
589.09	795.69
589.44	794.10
589.79	792.98
590.14	791.70
590.49	790.44
590.84	788.99
591.19	787.75
591.54	786.31
591.89	784.34
592.25	783.15
592.60	781.29
592.95	779.57
593.30	777.81
593.65	775.95
594.00	774.11
594.35	773.30
594.70	771.56
595.05	770.06
595.40	768.39
595.75	766.70
596.10	765.30
596.45	763.59
596.80	762.38
597.15	760.67
597.50	758.85
597.85	757.50
598.19	755.83
598.54	754.02
598.89	752.35
599.24	751.21
599.59	749.59
599.94	748.30
600.29	746.72
600.64	745.38
600.99	743.74
601.34	742.44
601.69	739.97
602.04	738.32
602.39	736.59
602.74	735.14
603.08	733.84
603.43	732.66
603.78	730.99
604.13	729.24
604.48	727.76
604.83	726.74
605.18	725.19
605.53	723.59
605.87	721.80
606.22	720.33
606.57	718.45
606.92	716.64
607.27	715.04
607.62	713.50
607.96	712.00
608.31	710.81
608.66	708.99
609.01	707.24
609.36	705.51
609.70	703.76
610.05	701.73
610.40	699.79
610.75	697.62
611.10	695.84
611.44	693.51
611.79	691.21
612.14	688.86
612.49	686.39
612.83	684.25
613.18	682.10
613.53	679.70
613.88	677.41
614.22	675.19
614.57	672.79
614.92	670.52
615.27	668.30
615.61	665.76
615.96	663.56
616.31	661.41
616.65	659.48
617.00	657.31
617.35	655.20
617.70	652.80
618.04	650.47
618.39	647.90
618.74	645.97
619.08	643.80
619.43	641.56
619.78	639.36
620.12	637.16
620.47	635.01
620.82	632.57
621.16	630.01
621.51	627.87
621.85	625.71
622.20	623.30
622.55	620.74
622.89	618.35
623.24	616.14
623.59	613.59
623.93	611.12
624.28	608.82
624.62	606.81
624.97	604.69
625.32	602.42
625.66	600.39
626.01	598.07
626.35	595.81
626.70	593.46
627.04	591.49
627.39	589.13
627.73	587.05
628.08	585.20
628.43	583.15
628.77	580.68
629.12	578.31
629.46	576.44
629.81	574.32
630.15	572.28
630.50	569.93
630.84	567.87
631.19	565.73
631.53	563.49
631.88	560.76
632.22	558.32
632.57	556.21
632.91	553.98
633.26	551.78
633.60	549.60
633.95	547.50
634.29	545.08
634.64	543.05
634.98	540.65
635.32	538.49
635.67	536.71
636.01	534.68
636.36	532.64
636.70	530.45
637.05	528.36
637.39	526.19
637.73	524.29
638.08	522.50
638.42	520.59
638.77	518.81
639.11	517.01
639.45	515.25
639.80	513.16
640.14	511.21
640.49	509.19
640.83	507.25
641.17	505.28
641.52	503.26
641.86	501.26
642.20	499.49
642.55	497.23
642.89	494.97
643.23	492.90
643.58	491.03
643.92	488.90
644.26	486.97
644.61	485.08
644.95	483.09
645.29	480.85
645.64	478.69
645.98	476.54
646.32	474.56
646.66	472.36
647.01	470.24
647.35	468.27
647.69	466.21
648.04	464.26
648.38	462.22
648.72	460.31
649.06	458.26
649.41	456.10
649.75	454.28
650.09	452.46
650.43	450.60
650.78	448.47
651.12	446.48
651.46	444.45
651.80	442.45
652.14	440.52
652.49	438.69
652.83	436.76
653.17	434.70
653.51	432.69
653.85	430.78
654.20	428.99
654.54	426.86
654.88	425.06
655.22	423.25
655.56	421.26
655.90	419.34
656.25	417.49
656.59	415.63
656.93	413.77
657.27	411.97
657.61	409.98
657.95	408.24
658.29	406.50
658.64	404.81
658.98	402.99
659.32	400.98
659.66	399.19
660.00	397.37
660.34	395.54
660.68	393.76
661.02	392.09
661.36	390.43
661.70	388.78
662.05	387.14
662.39	385.47
662.73	384.02
663.07	382.64
663.41	381.09
663.75	379.42
664.09	377.89
664.43	376.19
664.77	374.73
665.11	373.14
665.45	371.57
665.79	370.08
666.13	368.52
666.47	367.02
666.81	365.49
667.15	364.04
667.49	362.75
667.83	361.49
668.17	360.10
668.51	358.77
668.85	357.49
669.19	356.30
669.53	354.80
669.87	353.31
670.21	351.75
670.55	350.45
670.89	349.44
671.23	348.18
671.57	346.93
671.91	345.73
672.25	344.46
672.58	343.33
672.92	342.05
673.26	341.00
673.60	339.93
673.94	338.83
674.28	337.72
674.62	336.60
674.96	335.33
675.30	334.14
675.64	332.96
675.97	331.86
676.31	330.66
676.65	329.66
676.99	328.80
677.33	327.78
677.67	326.66
678.01	325.34
678.34	324.15
678.68	323.13
679.02	321.93
679.36	320.98
679.70	319.86
680.04	318.79
680.37	317.72
680.71	316.69
681.05	315.68
681.39	314.59
681.73	313.63
682.06	312.64
682.40	311.70
682.74	310.73
683.08	309.86
683.42	308.83
683.75	307.95
684.09	306.84
684.43	305.80
684.77	304.79
685.10	303.87
685.44	302.99
685.78	302.02
686.12	301.22
686.45	300.22
686.79	299.32
687.13	298.55
687.46	297.57
687.80	296.80
688.14	295.84
688.48	295.06
688.81	294.06
689.15	293.23
689.49	292.41
689.82	291.54
690.16	290.55
690.50	289.61
690.83	288.70
691.17	287.83
691.51	287.05
691.84	286.34
692.18	285.64
692.52	284.81
692.85	284.12
693.19	283.54
693.52	282.82
693.86	281.97
694.20	281.18
694.53	280.53
694.87	279.73
695.21	279.03
695.54	278.15
695.88	277.38
696.21	276.68
696.55	275.95
696.88	275.35
697.22	274.70
697.56	274.08
697.89	273.35
698.23	272.72
698.56	272.04
698.90	271.42
699.23	270.71
699.57	270.10
699.90	269.41
700.24	268.59
700.58	267.96
700.91	267.40
701.25	266.99
701.58	266.47
701.92	265.85
702.25	265.22
702.59	264.73
702.92	264.24
703.26	263.68
703.59	263.10
703.93	262.75
704.26	262.23
704.60	261.71
704.93	261.10
705.26	260.53
705.60	260.02
705.93	259.39
706.27	259.04
706.60	258.65
706.94	258.29
707.27	257.77
707.61	257.25
707.94	256.72
708.27	255.96
708.61	255.35
708.94	254.87
709.28	254.45
709.61	253.96
709.94	253.60
710.28	253.06
710.61	252.58
710.95	251.76
711.28	251.53
711.61	251.11
711.95	250.80
712.28	250.34
712.61	249.96
712.95	249.74
713.28	249.32
713.61	248.81
713.95	248.29
714.28	247.91
714.61	247.50
714.95	247.14
715.28	246.77
715.61	246.34
715.95	245.99
716.28	245.52
716.61	245.25
716.95	244.80
717.28	244.43
717.61	244.10
717.94	243.85
718.28	243.23
718.61	242.82
718.94	242.48
719.27	242.20
719.61	241.90
719.94	241.52
720.27	241.10
720.60	240.77
720.94	240.53
721.27	240.28
721.60	240.05
721.93	239.79
722.27	239.67
722.60	239.50
722.93	239.17
723.26	239.02
723.59	238.64
723.93	238.38
724.26	238.16
724.59	237.90
724.92	237.62
725.25	237.49
725.59	237.32
725.92	237.17
726.25	236.96
726.58	236.76
726.91	236.46
727.24	236.34
727.57	236.09
727.91	235.80
728.24	235.59
728.57	235.31
728.90	235.19
729.23	234.84
729.56	234.79
729.89	234.53
730.22	234.26
730.55	234.03
730.89	233.80
731.22	233.62
731.55	233.37
731.88	233.17
732.21	232.91
732.54	232.65
732.87	232.37
733.20	232.14
733.53	231.88
733.86	231.76
734.19	231.34
734.52	231.20
734.85	231.21
735.18	230.96
735.51	230.88
735.84	230.66
736.17	230.55
736.50	230.18
736.83	230.46
737.16	230.27
737.49	230.14
737.82	229.90
738.15	229.75
738.48	229.61
738.81	229.48
739.14	229.24
739.47	229.01
739.80	228.81
740.13	228.70
740.46	228.52
740.79	228.21
741.12	228.15
741.45	227.92
741.78	227.49
742.11	227.43
742.44	227.21
742.77	227.09
743.10	226.82
743.43	226.65
743.75	226.08
744.08	226.38
744.41	226.19
744.74	225.99
745.07	225.73
745.40	225.68
745.73	225.56
746.06	225.36
746.39	225.24
746.71	225.10
747.04	224.85
747.37	224.66
747.70	224.57
748.03	224.45
748.36	224.36
748.68	224.27
749.01	223.96
749.34	223.81
749.67	223.66
750.00	223.63
750.33	223.79
750.65	223.74
750.98	223.11
751.31	223.05
751.64	223.05
751.97	223.15
752.29	222.99
752.62	222.77
752.95	222.72
753.28	222.59
753.60	222.48
753.93	222.50
754.26	222.41
754.59	222.29
754.91	222.10
755.24	221.95
755.57	221.85
755.90	221.77
756.22	221.54
756.55	221.41
756.88	221.24
757.20	220.81
757.53	220.54
757.86	220.49
758.19	220.41
758.51	220.30
758.84	220.07
759.17	220.02
759.49	219.91
759.82	219.97
760.15	219.87
760.47	219.75
760.80	219.58
761.13	219.60
761.45	219.53
761.78	219.50
762.11	219.45
762.43	219.33
762.76	219.33
763.08	219.32
763.41	219.20
763.74	219.09
764.06	219.08
764.39	219.08
764.71	218.93
765.04	218.76
765.37	218.59
765.69	218.45
766.02	218.19
766.34	218.11
766.67	217.89
767.00	217.90
767.32	218.04
767.65	218.13
767.97	217.97
768.30	217.82
768.62	217.75
768.95	217.68
769.27	217.71
769.60	217.65
769.92	217.59
770.25	217.48
770.57	217.40
770.90	217.29
771.22	217.21
771.55	217.18
771.87	217.22
772.20	217.24
772.52	217.47
772.85	217.88
773.17	217.86
773.50	217.76
773.82	217.64
774.15	217.41
774.47	217.20
774.80	217.13
775.12	217.08
775.45	217.01
775.77	216.98
776.09	216.84
776.42	216.70
776.74	216.73
777.07	216.63
777.39	216.59
777.72	216.58
778.04	216.56
778.36	216.54
778.69	216.44
779.01	216.34
779.33	215.93
779.66	215.49
779.98	215.39
780.31	215.44
780.63	215.57
780.95	215.55
781.28	215.41
781.60	215.34
781.92	215.27
782.25	215.25
782.57	215.18
782.89	215.08
783.22	215.03
783.54	214.89
783.86	215.00
784.19	214.94
784.51	214.96
784.83	214.81
785.16	214.77
785.48	214.74
785.80	214.74
786.12	214.73
786.45	214.72
786.77	214.76
787.09	214.66
787.42	214.47
787.74	214.46
788.06	214.48
788.38	214.39
788.71	214.32
789.03	214.26
789.35	214.20
789.67	214.15
789.99	214.22
790.32	214.21
790.64	214.10
790.96	214.37
791.28	214.19
791.61	214.19
791.93	214.14
792.25	214.07
792.57	214.31
792.89	214.26
793.21	214.25
793.54	214.15
793.86	214.03
794.18	214.05
794.50	213.92
794.82	213.87
795.14	213.93
795.47	214.05
795.79	214.06
796.11	214.00
796.43	214.05
796.75	213.97
797.07	213.92
797.39	213.94
797.71	213.61
798.04	213.61
798.36	213.66
798.68	213.60
799.00	213.58
799.32	213.31
799.64	213.43
799.96	213.39
800.28	213.45
800.60	213.50
800.92	213.54
801.24	213.50
801.56	213.51
801.89	213.46
802.21	213.46
802.53	213.40
802.85	213.49
803.17	213.59
803.49	213.59
803.81	213.56
804.13	213.54
804.45	213.48
804.77	213.50
805.09	213.50
805.41	213.50
805.73	213.48
806.05	213.43
806.37	213.35
806.69	213.30
807.01	213.27
807.33	213.26
807.65	213.09
807.97	213.29
808.28	213.20
808.60	213.22
808.92	213.15
809.24	213.34
809.56	213.26
809.88	213.12
810.20	213.10
810.52	213.13
810.84	213.08
811.16	213.10
811.48	213.09
811.80	213.15
812.12	213.14
812.43	213.12
812.75	213.08
813.07	213.06
813.39	213.15
813.71	213.04
814.03	213.05
814.35	213.05
814.67	212.87
814.98	212.91
815.30	212.92
815.62	212.85
815.94	212.54
816.26	212.57
816.58	212.53
816.89	212.51
817.21	212.47
817.53	212.50
817.85	212.55
818.17	212.51
818.48	212.40
818.80	212.50
819.12	212.45
819.44	212.42
819.76	212.39
820.07	212.31
820.39	212.42
820.71	212.49
821.03	212.47
821.34	212.47
821.66	212.50
821.98	212.47
822.30	212.45
822.61	212.73
822.93	212.65
823.25	212.65
823.57	212.63
823.88	212.69
824.20	212.68
824.52	212.71
824.83	212.68
825.15	212.74
825.47	212.73
825.79	212.79
826.10	212.73
826.42	212.74
826.74	212.80
827.05	212.66
827.37	212.59
827.69	212.56
828.00	212.53
828.32	212.58
828.64	212.49
828.95	212.63
829.27	212.51
829.58	212.50
829.90	212.53
830.22	212.60
830.53	212.45
830.85	212.37
831.17	212.27
831.48	212.32
831.80	212.18
832.11	212.14
832.43	212.02
832.75	212.10
833.06	212.26
833.38	212.10
833.69	212.05
834.01	212.07
834.32	212.08
834.64	212.08
834.96	211.99
835.27	212.03
835.59	211.93
835.90	211.93
836.22	211.90
836.53	211.83
836.85	211.69
837.16	212.07
837.48	212.05
837.79	212.12
838.11	212.13
838.42	212.15
838.74	212.10
839.05	212.06
839.37	212.01
839.68	211.80
840.00	211.75
840.31	211.84
840.63	211.80
840.94	211.74
841.26	211.65
841.57	211.68
841.88	211.71
842.20	211.69
842.51	211.54
842.83	211.53
843.14	211.84
843.46	211.87
843.77	211.70
844.08	211.72
844.40	211.67
844.71	211.54
845.03	211.55
845.34	211.56
845.65	211.59
845.97	211.59
846.28	211.58
846.60	211.64
846.91	211.59
847.22	211.60
847.54	211.64
847.85	211.62
848.16	211.61
848.48	211.54
848.79	211.59
849.10	211.66
849.42	211.66
849.73	211.33
850.04	211.33
850.36	211.18
850.67	211.25
850.98	211.24
851.30	211.31
851.61	211.24
851.92	211.25
852.23	211.35
852.55	211.37
852.86	211.42
853.17	211.55
853.49	211.60
853.80	211.60
854.11	211.64
854.42	211.72
854.74	211.63
855.05	211.59
855.36	211.51
855.67	211.49
855.99	211.52
856.30	211.95
856.61	211.95
856.92	211.98
857.23	211.96
857.55	211.93
857.86	211.88
858.17	211.95
858.48	211.90
858.79	211.83
859.11	211.79
859.42	211.78
859.73	211.62
860.04	211.58
860.35	211.58
860.66	211.54
860.98	211.54
861.29	211.60
861.60	211.67
861.91	211.66
862.22	211.62
862.53	211.59
862.84	211.16
863.16	211.20
863.47	211.12
863.78	211.06
864.09	211.07
864.40	211.08
864.71	211.07
865.02	211.06
865.33	210.99
865.64	210.98
865.95	210.97
866.27	211.25
866.58	211.29
866.89	211.31
867.20	211.34
867.51	211.33
867.82	211.36
868.13	211.42
868.44	211.38
868.75	211.43
869.06	211.45
869.37	211.53
869.68	211.47
869.99	211.56
870.30	211.60
870.61	211.62
870.92	211.65
871.23	211.64
871.54	211.73
871.85	211.85
872.16	211.86
872.47	211.83
872.78	211.63
873.09	211.67
873.40	211.55
873.71	211.56
874.02	211.57
874.33	211.49
874.64	211.38
874.95	211.44
875.26	211.38
875.56	211.44
875.87	211.37
876.18	211.37
876.49	211.69
876.80	211.61
877.11	211.56
877.42	211.57
877.73	211.57
878.04	211.44
878.35	211.43
878.66	211.46
878.96	211.56
879.27	211.48
879.58	211.45
879.89	211.50
880.20	211.53
880.51	211.52
880.82	211.55
881.12	211.60
881.43	211.55
881.74	211.53
882.05	211.45
882.36	211.49
882.67	211.50
882.97	211.12
883.28	211.13
883.59	211.16
883.90	211.21
884.21	211.26
884.51	211.31
884.82	211.29
885.13	211.35
885.44	211.21
885.74	211.25
886.05	211.21
886.36	211.26
886.67	211.14
886.98	211.29
887.28	211.38
887.59	211.36
887.90	211.34
888.20	211.33
888.51	211.45
888.82	211.39
889.13	211.44
889.43	211.69
889.74	211.69
890.05	211.68
890.35	211.62
890.66	211.57
890.97	211.47
891.28	211.53
891.58	211.45
891.89	211.46
892.20	211.46
892.50	211.40
892.81	211.29
893.12	211.28
893.42	211.14
893.73	211.03
894.04	210.98
894.34	211.02
894.65	211.02
894.95	210.89
895.26	210.91
895.57	211.01
895.87	210.68
896.18	210.73
896.48	210.73
896.79	210.74
897.10	210.75
897.40	210.86
897.71	210.81
898.01	210.80
898.32	210.86
898.63	210.86
898.93	210.93
899.24	211.02
899.54	211.05
899.85	211.05
900.15	211.09
900.46	211.11
900.76	211.22
901.07	211.27
901.38	211.26
901.68	211.32
901.99	211.15
902.29	211.20
902.60	211.11
902.90	211.06
903.21	211.05
903.51	211.04
903.82	211.11
904.12	211.10
904.43	211.14
904.73	211.14
905.03	211.18
905.34	211.47
905.64	211.39
905.95	211.36
906.25	211.36
906.56	211.28
906.86	211.33
907.17	211.19
907.47	211.21
907.77	211.19
908.08	211.09
908.38	211.12
908.69	211.17
908.99	211.32
909.30	211.44
909.60	211.45
909.90	211.46
910.21	211.35
910.51	211.31
910.81	211.32
911.12	211.32
911.42	211.28
911.73	210.94
912.03	210.97
912.33	211.09
912.64	211.10
912.94	211.14
913.24	211.09
913.55	211.14
913.85	211.06
914.15	211.14
914.46	211.22
914.76	211.24
915.06	211.23
915.37	211.20
915.67	211.11
915.97	211.09
916.27	211.06
916.58	211.12
916.88	211.11
917.18	211.08
917.49	211.32
917.79	211.31
918.09	211.37
918.39	211.51
918.70	211.40
919.00	211.35
919.30	211.53
919.60	211.48
919.91	211.46
920.21	211.48
920.51	211.38
920.81	211.34
921.12	211.34
921.42	211.29
921.72	211.27
922.02	211.30
922.32	211.39
922.63	211.37
922.93	211.54
923.23	211.59
923.53	211.49
923.83	211.27
924.13	211.28
924.44	211.27
924.74	211.33
925.04	211.42
925.34	211.43
925.64	211.27
925.94	211.27
926.24	211.50
926.55	211.47
926.85	211.55
927.15	211.55
927.45	211.58
927.75	211.56
928.05	211.59
928.35	211.58
928.65	211.58
928.95	211.58
929.26	211.43
929.56	211.46
929.86	211.55
930.16	211.50
930.46	211.53
930.76	211.57
931.06	211.35
931.36	211.30
931.66	211.37
931.96	211.41
932.26	211.43
932.56	211.21
932.86	211.27
933.16	211.23
933.46	211.18
933.76	211.08
934.06	211.14
934.36	211.24
934.66	211.27
934.96	211.18
935.26	211.25
935.56	211.38
935.86	211.31
936.16	211.24
936.46	211.23
936.76	211.14
937.06	211.07
937.36	211.05
937.66	211.03
937.96	211.02
938.26	210.92
938.56	210.94
938.86	210.93
939.16	210.97
939.46	211.06
939.76	211.13
940.06	211.08
940.35	211.02
940.65	210.82
940.95	210.80
941.25	210.71
941.55	210.59
941.85	210.46
942.15	210.53
942.45	210.65
942.75	210.61
943.04	210.64
943.34	210.65
943.64	210.68
943.94	210.67
944.24	210.64
944.54	210.70
944.84	210.65
945.13	210.61
945.43	210.50
945.73	210.49
946.03	210.41
946.33	210.44
946.62	210.42
946.92	210.42
947.22	210.45
947.52	210.52
947.82	210.57
948.11	210.51
948.41	210.40
948.71	210.30
949.01	210.38
949.31	210.34
949.60	210.35
949.90	210.42
950.20	210.43
950.50	210.40
950.79	210.30
951.09	210.29
951.39	210.31
951.69	210.35
951.98	210.40
952.28	210.46
952.58	210.47
952.87	210.49
953.17	210.58
953.47	210.53
953.76	210.53
954.06	210.48
954.36	210.46
954.66	210.49
954.95	210.57
955.25	210.53
955.55	210.66
955.84	210.60
956.14	210.61
956.44	210.67
956.73	210.68
957.03	210.76
957.32	210.84
957.62	210.78
957.92	210.84
958.21	210.79
958.51	211.20
958.81	211.21
959.10	211.23
959.40	211.29
959.69	211.36
959.99	211.40
960.29	211.47
960.58	211.46
960.88	211.64
961.17	211.60
961.47	211.66
961.76	211.55
962.06	211.58
962.36	211.61
962.65	211.52
962.95	211.56
963.24	211.55
963.54	211.58
963.83	211.62
964.13	211.60
964.42	211.53
964.72	211.24
965.01	211.24
965.31	211.21
965.60	211.10
965.90	211.28
966.19	211.21
966.49	211.25
966.78	211.22
967.08	211.17
967.37	211.16
967.67	211.11
967.96	211.20
968.26	211.22
968.55	211.13
968.85	211.11
969.14	211.03
969.43	211.04
969.73	211.05
970.02	211.05
970.32	211.02
970.61	210.95
970.91	210.79
971.20	210.78
971.49	210.84
971.79	210.89
972.08	210.62
972.38	210.64
972.67	210.54
972.96	210.61
973.26	210.54
973.55	210.70
973.85	210.65
974.14	210.60
974.43	210.60
974.73	210.59
975.02	210.63
975.31	210.66
975.61	210.61
975.90	210.52
976.19	210.47
976.49	210.51
976.78	210.58
977.07	210.59
977.37	210.65
977.66	210.66
977.95	210.56
978.24	210.58
978.54	210.61
978.83	210.54
979.12	210.44
979.42	210.40
979.71	210.22
980.00	210.20
980.29	210.22
980.59	210.14
980.88	210.28
981.17	210.24
981.46	210.27
981.76	210.28
982.05	210.43
982.34	210.53
982.63	210.56
982.93	210.63
983.22	210.70
983.51	210.67
983.80	210.62
984.09	210.70
984.39	210.70
984.68	210.64
984.97	210.76
985.26	210.82
985.55	210.90
985.85	210.89
986.14	210.98
986.43	211.02
986.72	211.00
987.01	210.85
987.30	210.81
987.59	210.78
987.89	210.80
988.18	210.67
988.47	210.56
988.76	210.44
989.05	210.36
989.34	210.37
989.63	210.46
989.92	210.50
990.22	210.44
990.51	210.47
990.80	210.50
991.09	210.52
991.38	210.54
991.67	210.53
991.96	210.54
992.25	210.55
992.54	210.48
992.83	210.56
993.12	210.55
993.41	210.66
993.70	210.84
993.99	210.89
994.28	210.93
994.58	211.00
994.87	211.01
995.16	211.02
995.45	210.95
995.74	210.77
996.03	210.80
996.32	210.86
996.61	210.90
996.90	210.83
997.19	210.82
997.48	210.91
997.77	210.83
998.06	210.85
998.34	210.79
998.63	210.81
998.92	210.81
999.21	210.87
999.50	210.86
999.79	210.71
1000.08	210.68
1000.37	210.71
1000.66	210.72
1000.95	210.79
1001.24	210.77
1001.53	210.85
1001.82	210.90
1002.11	210.80
1002.40	210.85
1002.68	210.93
1002.97	211.26
1003.26	211.25
1003.55	211.14
1003.84	211.24
1004.13	211.34
1004.42	211.37
1004.71	211.40
1004.99	211.38
1005.28	211.40
1005.57	211.41
1005.86	211.32
1006.15	211.38
1006.44	211.28
1006.72	211.28
1007.01	211.25
1007.30	211.31
1007.59	211.29
1007.88	211.27
1008.17	211.30
1008.45	211.25
1008.74	211.12
1009.03	210.91
1009.32	210.91
1009.60	210.85
1009.89	210.82
1010.18	210.67
1010.47	210.66
1010.76	210.58
1011.04	210.58
1011.33	210.68
1011.62	210.78
1011.91	210.89
1012.19	210.90
1012.48	210.94
1012.77	210.95
1013.05	211.16
1013.34	211.05
1013.63	211.05
1013.92	211.17
1014.20	211.15
1014.49	211.11
1014.78	211.10
1015.06	210.99
1015.35	210.98
1015.64	210.96
1015.92	210.92
1016.21	210.94
1016.50	210.90
1016.78	211.02
1017.07	211.03
1017.36	210.89
1017.64	210.76
1017.93	210.85
1018.22	210.74
1018.50	210.75
1018.79	210.73
1019.08	210.51
1019.36	210.54
1019.65	210.47
1019.93	210.50
1020.22	210.56
1020.51	210.78
1020.79	210.78
1021.08	209.80
1021.36	210.70
1021.65	210.80
1021.94	210.05
1022.22	210.00
1022.51	209.75
1022.79	213.20
1023.08	210.95
1023.36	215.35
1023.65	210.05
>>>>>End Processed Spectral Data<<<<<
