SpectraSuite Data File
++++++++++++++++++++++++++++++++++++
Date: Mon Feb 25 17:14:53 EST 2013
User: group
Dark Spectrum Present: No
Reference Spectrum Present: No
Number of Sampled Component Spectra: 1
Spectrometers: USB2E7196
Integration Time (usec): 104000 (USB2E7196)
Spectra Averaged: 20 (USB2E7196)
Boxcar Smoothing: 10 (USB2E7196)
Correct for Electrical Dark: No (USB2E7196)
Strobe/Lamp Enabled: No (USB2E7196)
Correct for Detector Non-linearity: No (USB2E7196)
Correct for Stray Light: No (USB2E7196)
Number of Pixels in Processed Spectrum: 2048
>>>>>Begin Processed Spectral Data<<<<<
339.09	0.00
339.48	197.65
339.86	199.60
340.24	201.40
340.63	203.65
341.01	209.20
341.39	204.85
341.78	207.10
342.16	209.00
342.54	208.95
342.93	198.38
343.31	208.39
343.69	208.99
344.07	209.48
344.46	209.96
344.84	210.32
345.22	210.42
345.60	210.70
345.99	210.88
346.37	211.01
346.75	211.11
347.13	211.22
347.52	211.30
347.90	211.48
348.28	211.57
348.66	211.63
349.05	211.49
349.43	211.55
349.81	211.55
350.19	211.68
350.57	211.76
350.96	211.87
351.34	212.00
351.72	212.11
352.10	212.23
352.48	212.32
352.87	212.35
353.25	212.43
353.63	212.54
354.01	212.64
354.39	212.78
354.77	212.85
355.15	213.02
355.54	213.06
355.92	213.01
356.30	213.05
356.68	213.33
357.06	213.46
357.44	213.42
357.82	213.51
358.20	213.57
358.58	213.65
358.97	213.68
359.35	213.77
359.73	213.89
360.11	213.94
360.49	213.98
360.87	214.02
361.25	213.98
361.63	214.10
362.01	214.20
362.39	214.14
362.77	214.22
363.15	214.23
363.53	214.16
363.91	214.13
364.29	214.08
364.67	213.73
365.05	213.66
365.43	213.69
365.81	213.74
366.19	213.90
366.57	214.05
366.95	214.08
367.33	214.00
367.71	213.93
368.09	213.97
368.47	213.88
368.85	213.91
369.23	214.05
369.61	213.95
369.99	214.00
370.37	213.98
370.75	214.13
371.13	214.01
371.51	214.02
371.89	213.97
372.27	214.00
372.65	213.94
373.03	213.94
373.41	213.88
373.78	213.84
374.16	213.55
374.54	213.35
374.92	213.28
375.30	213.17
375.68	213.03
376.06	212.96
376.44	212.93
376.82	212.86
377.19	212.77
377.57	212.71
377.95	212.51
378.33	212.47
378.71	212.20
379.09	212.20
379.47	212.11
379.84	212.04
380.22	212.00
380.60	211.96
380.98	211.89
381.36	211.85
381.73	211.68
382.11	211.72
382.49	211.73
382.87	211.60
383.25	211.53
383.62	211.94
384.00	211.84
384.38	211.73
384.76	211.78
385.13	211.85
385.51	211.73
385.89	211.67
386.27	211.62
386.64	211.62
387.02	211.60
387.40	211.58
387.78	211.60
388.15	211.54
388.53	211.48
388.91	211.45
389.29	211.41
389.66	211.54
390.04	211.44
390.42	211.38
390.79	211.35
391.17	211.42
391.55	211.07
391.92	211.10
392.30	211.14
392.68	211.01
393.05	210.96
393.43	211.03
393.81	211.03
394.18	210.95
394.56	211.00
394.94	211.05
395.31	211.02
395.69	211.18
396.06	211.26
396.44	211.33
396.82	211.30
397.19	211.52
397.57	211.40
397.95	211.48
398.32	211.45
398.70	211.54
399.07	211.61
399.45	211.57
399.82	211.61
400.20	211.67
400.58	211.72
400.95	211.61
401.33	211.67
401.70	211.94
402.08	212.02
402.45	212.06
402.83	212.19
403.20	212.33
403.58	212.29
403.95	212.42
404.33	212.55
404.71	212.68
405.08	212.87
405.46	213.03
405.83	213.10
406.21	213.25
406.58	213.37
406.96	213.43
407.33	213.64
407.70	213.76
408.08	214.21
408.45	214.41
408.83	214.74
409.20	214.92
409.58	214.95
409.95	215.29
410.33	215.45
410.70	215.60
411.08	215.94
411.45	216.31
411.82	216.57
412.20	216.96
412.57	217.55
412.95	217.69
413.32	218.17
413.69	218.63
414.07	219.16
414.44	219.65
414.82	220.28
415.19	220.93
415.56	221.55
415.94	221.99
416.31	222.78
416.68	223.47
417.06	224.42
417.43	225.34
417.81	226.19
418.18	227.19
418.55	228.14
418.93	229.18
419.30	230.22
419.67	231.41
420.04	232.66
420.42	233.80
420.79	235.47
421.16	236.91
421.54	238.68
421.91	240.18
422.28	241.83
422.66	243.54
423.03	245.39
423.40	247.20
423.77	249.04
424.15	250.93
424.52	252.90
424.89	255.06
425.26	257.13
425.64	259.15
426.01	261.37
426.38	263.71
426.75	266.11
427.13	268.56
427.50	271.04
427.87	273.58
428.24	276.16
428.61	278.49
428.99	281.34
429.36	284.03
429.73	287.00
430.10	290.04
430.47	293.13
430.85	296.13
431.22	299.41
431.59	303.09
431.96	306.39
432.33	310.09
432.70	313.56
433.08	317.60
433.45	321.51
433.82	325.41
434.19	329.83
434.56	334.09
434.93	338.08
435.30	342.18
435.68	346.63
436.05	351.08
436.42	355.51
436.79	359.50
437.16	363.88
437.53	368.38
437.90	372.87
438.27	377.25
438.64	381.76
439.01	386.05
439.38	389.66
439.75	393.41
440.13	397.56
440.50	401.45
440.87	404.63
441.24	408.03
441.61	411.62
441.98	414.13
442.35	417.14
442.72	420.34
443.09	423.51
443.46	425.29
443.83	426.52
444.20	427.53
444.57	428.97
444.94	429.65
445.31	430.38
445.68	431.32
446.05	431.43
446.42	430.91
446.79	430.25
447.16	429.70
447.53	429.18
447.90	427.45
448.27	425.73
448.64	423.40
449.01	421.64
449.37	418.63
449.74	415.72
450.11	412.44
450.48	408.57
450.85	404.53
451.22	401.32
451.59	398.14
451.96	395.06
452.33	391.04
452.70	387.39
453.07	383.03
453.43	378.19
453.80	374.04
454.17	370.06
454.54	366.29
454.91	362.04
455.28	357.97
455.65	354.14
456.02	350.82
456.38	347.62
456.75	343.63
457.12	340.32
457.49	337.03
457.86	333.72
458.23	331.12
458.59	328.07
458.96	325.01
459.33	322.37
459.70	319.67
460.07	317.52
460.43	315.06
460.80	312.92
461.17	311.09
461.54	309.04
461.91	306.97
462.27	304.86
462.64	303.24
463.01	301.32
463.38	299.72
463.74	297.46
464.11	295.81
464.48	294.44
464.85	292.92
465.21	291.91
465.58	290.71
465.95	289.13
466.32	287.99
466.68	286.72
467.05	285.47
467.42	284.38
467.78	283.19
468.15	282.13
468.52	281.24
468.88	280.00
469.25	278.91
469.62	278.25
469.98	277.41
470.35	276.64
470.72	275.96
471.08	275.01
471.45	274.45
471.82	273.89
472.18	273.21
472.55	272.75
472.92	272.12
473.28	271.54
473.65	271.06
474.02	270.60
474.38	270.29
474.75	270.05
475.11	269.61
475.48	269.43
475.85	269.16
476.21	268.92
476.58	268.90
476.94	268.86
477.31	268.68
477.67	268.67
478.04	268.64
478.41	268.78
478.77	269.25
479.14	269.34
479.50	269.48
479.87	269.68
480.23	269.96
480.60	270.15
480.96	270.41
481.33	270.90
481.69	271.21
482.06	271.68
482.42	272.08
482.79	272.70
483.15	273.25
483.52	274.09
483.88	274.70
484.25	275.30
484.61	276.09
484.98	276.80
485.34	277.79
485.71	278.87
486.07	279.88
486.44	280.63
486.80	281.67
487.17	282.97
487.53	284.43
487.90	285.80
488.26	287.52
488.62	289.38
488.99	290.97
489.35	292.84
489.72	294.72
490.08	296.81
490.44	298.83
490.81	301.10
491.17	303.29
491.54	305.85
491.90	308.45
492.26	311.09
492.63	314.10
492.99	316.97
493.36	319.99
493.72	323.30
494.08	326.67
494.45	330.41
494.81	334.14
495.17	337.93
495.54	342.06
495.90	346.15
496.26	350.31
496.63	354.86
496.99	359.56
497.35	364.43
497.72	369.50
498.08	374.77
498.44	380.21
498.80	386.03
499.17	391.95
499.53	398.05
499.89	404.62
500.26	411.24
500.62	417.98
500.98	425.11
501.34	432.41
501.71	440.16
502.07	447.87
502.43	455.68
502.79	463.75
503.16	472.23
503.52	480.93
503.88	490.08
504.24	499.35
504.60	508.86
504.97	518.75
505.33	528.66
505.69	539.19
506.05	549.80
506.41	560.53
506.78	571.48
507.14	582.86
507.50	594.25
507.86	605.98
508.22	618.12
508.59	630.19
508.95	642.80
509.31	655.40
509.67	668.35
510.03	681.90
510.39	695.59
510.75	709.43
511.12	723.51
511.48	737.80
511.84	752.48
512.20	767.14
512.56	782.04
512.92	797.26
513.28	812.69
513.64	828.32
514.00	843.81
514.37	859.65
514.73	875.84
515.09	892.23
515.45	908.41
515.81	924.84
516.17	941.56
516.53	958.30
516.89	975.00
517.25	991.97
517.61	1008.93
517.97	1026.03
518.33	1043.00
518.69	1060.14
519.05	1077.30
519.41	1094.78
519.77	1112.71
520.13	1130.01
520.49	1147.34
520.85	1164.68
521.21	1182.44
521.57	1200.40
521.93	1217.60
522.29	1235.37
522.65	1253.01
523.01	1270.56
523.37	1287.74
523.73	1305.44
524.09	1322.55
524.45	1340.25
524.81	1357.61
525.17	1375.11
525.53	1392.52
525.89	1409.88
526.25	1427.02
526.61	1443.87
526.97	1460.51
527.33	1476.99
527.68	1494.11
528.04	1510.55
528.40	1526.49
528.76	1541.95
529.12	1558.36
529.48	1575.29
529.84	1591.40
530.20	1607.37
530.56	1623.54
530.91	1640.18
531.27	1655.88
531.63	1671.53
531.99	1686.96
532.35	1702.06
532.71	1716.73
533.07	1731.85
533.42	1746.42
533.78	1761.07
534.14	1775.23
534.50	1788.61
534.86	1802.42
535.21	1815.12
535.57	1829.05
535.93	1842.02
536.29	1855.37
536.65	1867.89
537.00	1879.73
537.36	1890.92
537.72	1902.19
538.08	1913.38
538.44	1924.24
538.79	1935.45
539.15	1946.25
539.51	1957.23
539.87	1968.38
540.22	1978.67
540.58	1989.24
540.94	1999.31
541.29	2008.46
541.65	2017.47
542.01	2026.79
542.37	2035.56
542.72	2044.63
543.08	2052.63
543.44	2061.56
543.79	2069.08
544.15	2076.09
544.51	2083.95
544.87	2091.93
545.22	2099.03
545.58	2105.39
545.94	2111.07
546.29	2116.43
546.65	2121.74
547.01	2126.40
547.36	2130.78
547.72	2135.50
548.07	2138.93
548.43	2142.46
548.79	2145.84
549.14	2149.19
549.50	2152.41
549.86	2154.70
550.21	2156.99
550.57	2159.82
550.92	2161.09
551.28	2162.93
551.64	2165.13
551.99	2167.08
552.35	2168.20
552.70	2169.30
553.06	2170.72
553.41	2172.06
553.77	2172.72
554.13	2173.50
554.48	2174.31
554.84	2175.10
555.19	2175.20
555.55	2174.88
555.90	2174.58
556.26	2174.19
556.61	2173.68
556.97	2172.34
557.32	2171.98
557.68	2170.68
558.03	2168.75
558.39	2168.04
558.74	2167.64
559.10	2166.54
559.45	2164.70
559.81	2163.48
560.16	2161.61
560.52	2160.01
560.87	2157.87
561.23	2155.22
561.58	2153.35
561.94	2150.24
562.29	2146.89
562.64	2144.09
563.00	2142.01
563.35	2140.09
563.71	2138.49
564.06	2136.28
564.42	2134.52
564.77	2132.72
565.12	2130.98
565.48	2129.21
565.83	2126.73
566.19	2124.05
566.54	2120.27
566.89	2116.91
567.25	2113.43
567.60	2110.65
567.96	2107.19
568.31	2104.04
568.66	2100.84
569.02	2096.57
569.37	2092.69
569.72	2089.16
570.08	2085.22
570.43	2080.82
570.78	2075.81
571.14	2070.56
571.49	2065.48
571.84	2061.07
572.20	2054.70
572.55	2049.70
572.90	2043.55
573.26	2037.54
573.61	2031.20
573.96	2025.87
574.31	2019.49
574.67	2013.00
575.02	2006.09
575.37	1999.63
575.72	1992.78
576.08	1986.97
576.43	1980.31
576.78	1974.07
577.13	1968.19
577.49	1962.29
577.84	1955.74
578.19	1950.20
578.54	1944.71
578.90	1939.18
579.25	1932.77
579.60	1926.35
579.95	1919.30
580.30	1913.45
580.66	1908.01
581.01	1901.74
581.36	1894.86
581.71	1888.43
582.06	1882.04
582.42	1876.10
582.77	1869.14
583.12	1862.49
583.47	1856.12
583.82	1850.41
584.17	1844.54
584.53	1838.15
584.88	1831.22
585.23	1825.04
585.58	1818.27
585.93	1811.41
586.28	1805.33
586.63	1798.94
586.98	1793.09
587.34	1787.41
587.69	1780.82
588.04	1774.08
588.39	1768.13
588.74	1761.77
589.09	1755.90
589.44	1749.72
589.79	1743.80
590.14	1738.39
590.49	1732.55
590.84	1726.30
591.19	1720.51
591.54	1714.00
591.89	1706.86
592.25	1700.82
592.60	1694.11
592.95	1686.99
593.30	1679.81
593.65	1672.46
594.00	1665.57
594.35	1660.31
594.70	1653.68
595.05	1647.62
595.40	1641.13
595.75	1634.01
596.10	1628.19
596.45	1622.17
596.80	1616.77
597.15	1610.76
597.50	1604.25
597.85	1598.18
598.19	1591.86
598.54	1585.62
598.89	1579.97
599.24	1574.94
599.59	1569.30
599.94	1564.21
600.29	1559.17
600.64	1554.09
600.99	1548.16
601.34	1542.83
601.69	1535.94
602.04	1529.95
602.39	1524.20
602.74	1518.68
603.08	1514.04
603.43	1508.99
603.78	1503.40
604.13	1497.44
604.48	1491.73
604.83	1487.05
605.18	1482.55
605.53	1476.96
605.87	1471.17
606.22	1465.61
606.57	1459.70
606.92	1453.74
607.27	1447.47
607.62	1441.44
607.96	1435.82
608.31	1431.08
608.66	1424.97
609.01	1419.11
609.36	1413.08
609.70	1406.74
610.05	1400.57
610.40	1394.06
610.75	1387.38
611.10	1381.46
611.44	1374.51
611.79	1367.63
612.14	1360.37
612.49	1352.67
612.83	1346.42
613.18	1339.72
613.53	1332.63
613.88	1325.39
614.22	1318.78
614.57	1312.23
614.92	1305.58
615.27	1298.59
615.61	1291.15
615.96	1284.60
616.31	1278.15
616.65	1272.14
617.00	1265.93
617.35	1259.61
617.70	1252.77
618.04	1245.72
618.39	1238.15
618.74	1232.16
619.08	1225.70
619.43	1219.28
619.78	1213.05
620.12	1206.39
620.47	1200.14
620.82	1193.26
621.16	1186.69
621.51	1180.07
621.85	1173.61
622.20	1167.02
622.55	1160.33
622.89	1153.93
623.24	1147.55
623.59	1140.90
623.93	1134.16
624.28	1127.62
624.62	1121.23
624.97	1115.17
625.32	1109.29
625.66	1103.63
626.01	1097.50
626.35	1091.43
626.70	1085.18
627.04	1079.43
627.39	1073.50
627.73	1067.47
628.08	1062.27
628.43	1056.30
628.77	1050.43
629.12	1044.36
629.46	1038.92
629.81	1033.34
630.15	1027.67
630.50	1021.67
630.84	1015.92
631.19	1010.35
631.53	1004.70
631.88	998.51
632.22	992.49
632.57	986.94
632.91	981.19
633.26	975.46
633.60	969.86
633.95	964.80
634.29	959.09
634.64	953.75
634.98	947.84
635.32	942.24
635.67	937.30
636.01	932.17
636.36	926.56
636.70	921.32
637.05	916.03
637.39	910.83
637.73	906.05
638.08	901.38
638.42	896.53
638.77	891.52
639.11	886.67
639.45	881.85
639.80	876.52
640.14	871.19
640.49	865.92
640.83	860.76
641.17	855.51
641.52	850.33
641.86	844.96
642.20	840.19
642.55	834.79
642.89	829.50
643.23	824.13
643.58	819.60
643.92	814.18
644.26	809.06
644.61	804.15
644.95	798.89
645.29	793.64
645.64	788.40
645.98	783.38
646.32	778.55
646.66	773.28
647.01	768.43
647.35	763.90
647.69	758.91
648.04	754.32
648.38	749.42
648.72	744.67
649.06	739.91
649.41	735.07
649.75	730.41
650.09	725.75
650.43	720.99
650.78	716.05
651.12	711.34
651.46	706.72
651.80	702.09
652.14	697.46
652.49	692.92
652.83	688.38
653.17	683.55
653.51	678.75
653.85	674.49
654.20	670.01
654.54	665.24
654.88	660.76
655.22	656.20
655.56	651.54
655.90	647.00
656.25	642.46
656.59	638.00
656.93	633.93
657.27	629.72
657.61	625.37
657.95	621.21
658.29	617.11
658.64	613.16
658.98	608.84
659.32	604.48
659.66	600.36
660.00	596.00
660.34	591.81
660.68	587.79
661.02	583.56
661.36	579.63
661.70	575.91
662.05	572.29
662.39	568.60
662.73	565.03
663.07	561.52
663.41	558.03
663.75	554.50
664.09	550.49
664.43	546.73
664.77	543.34
665.11	539.71
665.45	536.30
665.79	532.79
666.13	529.49
666.47	526.27
666.81	522.83
667.15	519.56
667.49	516.66
667.83	513.61
668.17	510.56
668.51	507.60
668.85	504.59
669.19	501.53
669.53	498.37
669.87	495.38
670.21	492.40
670.55	489.48
670.89	486.83
671.23	484.40
671.57	481.69
671.91	478.78
672.25	476.03
672.58	473.14
672.92	470.39
673.26	467.79
673.60	465.19
673.94	462.62
674.28	460.19
674.62	457.63
674.96	455.00
675.30	452.52
675.64	449.82
675.97	447.27
676.31	444.97
676.65	442.65
676.99	440.43
677.33	437.95
677.67	435.66
678.01	433.05
678.34	430.62
678.68	428.30
679.02	426.11
679.36	423.95
679.70	421.71
680.04	419.54
680.37	417.20
680.71	415.07
681.05	412.89
681.39	410.66
681.73	408.57
682.06	406.60
682.40	404.68
682.74	402.89
683.08	400.97
683.42	398.69
683.75	396.67
684.09	394.42
684.43	392.52
684.77	390.30
685.10	388.33
685.44	386.22
685.78	384.34
686.12	382.50
686.45	380.59
686.79	378.80
687.13	377.03
687.46	375.28
687.80	373.50
688.14	371.69
688.48	370.04
688.81	368.13
689.15	366.29
689.49	364.32
689.82	362.44
690.16	360.48
690.50	358.71
690.83	356.92
691.17	355.14
691.51	353.32
691.84	351.80
692.18	350.21
692.52	348.86
692.85	347.32
693.19	345.84
693.52	344.35
693.86	342.75
694.20	341.12
694.53	339.53
694.87	337.90
695.21	336.37
695.54	334.70
695.88	333.11
696.21	331.68
696.55	330.29
696.88	328.80
697.22	327.45
697.56	326.23
697.89	324.82
698.23	323.61
698.56	322.24
698.90	320.98
699.23	319.60
699.57	318.18
699.90	316.75
700.24	315.37
700.58	313.97
700.91	312.79
701.25	311.86
701.58	310.74
701.92	309.61
702.25	308.46
702.59	307.27
702.92	306.23
703.26	305.04
703.59	303.96
703.93	303.22
704.26	302.16
704.60	301.12
704.93	300.02
705.26	298.86
705.60	297.94
705.93	296.80
706.27	295.87
706.60	295.01
706.94	294.22
707.27	293.23
707.61	292.28
707.94	291.35
708.27	290.08
708.61	289.09
708.94	288.12
709.28	287.25
709.61	286.40
709.94	285.59
710.28	284.77
710.61	283.98
710.95	282.76
711.28	282.13
711.61	281.16
711.95	280.48
712.28	279.70
712.61	278.86
712.95	278.26
713.28	277.67
713.61	276.76
713.95	275.80
714.28	275.08
714.61	274.45
714.95	273.69
715.28	272.99
715.61	272.28
715.95	271.61
716.28	270.85
716.61	270.22
716.95	269.45
717.28	268.75
717.61	268.06
717.94	267.48
718.28	266.55
718.61	265.90
718.94	265.24
719.27	264.63
719.61	264.10
719.94	263.51
720.27	262.71
720.60	262.10
720.94	261.60
721.27	261.00
721.60	260.39
721.93	259.81
722.27	259.41
722.60	258.88
722.93	258.36
723.26	257.94
723.59	257.30
723.93	256.80
724.26	256.32
724.59	255.77
724.92	255.30
725.25	254.92
725.59	254.52
725.92	253.98
726.25	253.55
726.58	253.07
726.91	252.53
727.24	252.12
727.57	251.75
727.91	251.25
728.24	250.98
728.57	250.59
728.90	250.15
729.23	249.49
729.56	249.24
729.89	248.77
730.22	248.30
730.55	247.99
730.89	247.68
731.22	247.27
731.55	246.91
731.88	246.48
732.21	246.12
732.54	245.68
732.87	245.37
733.20	244.97
733.53	244.60
733.86	244.25
734.19	243.92
734.52	243.61
734.85	243.52
735.18	243.03
735.51	242.76
735.84	242.51
736.17	242.38
736.50	241.93
736.83	241.94
737.16	241.60
737.49	241.30
737.82	240.89
738.15	240.66
738.48	240.29
738.81	240.02
739.14	239.60
739.47	239.21
739.80	238.83
740.13	238.47
740.46	238.09
740.79	237.77
741.12	237.32
741.45	236.99
741.78	236.52
742.11	236.32
742.44	235.94
742.77	235.73
743.10	235.41
743.43	235.00
743.75	234.39
744.08	234.55
744.41	234.16
744.74	233.88
745.07	233.55
745.40	233.45
745.73	233.22
746.06	233.00
746.39	232.87
746.71	232.66
747.04	232.45
747.37	232.19
747.70	231.96
748.03	231.87
748.36	231.64
748.68	231.42
749.01	231.08
749.34	230.86
749.67	230.63
750.00	230.40
750.33	230.52
750.65	230.44
750.98	229.82
751.31	229.71
751.64	229.45
751.97	229.42
752.29	229.24
752.62	229.00
752.95	228.73
753.28	228.44
753.60	228.22
753.93	228.18
754.26	228.05
754.59	227.75
754.91	227.48
755.24	227.28
755.57	227.06
755.90	226.85
756.22	226.68
756.55	226.34
756.88	226.17
757.20	225.78
757.53	225.47
757.86	225.27
758.19	225.10
758.51	225.04
758.84	224.67
759.17	224.37
759.49	224.20
759.82	224.28
760.15	224.24
760.47	224.10
760.80	223.77
761.13	223.76
761.45	223.66
761.78	223.59
762.11	223.51
762.43	223.37
762.76	223.29
763.08	223.29
763.41	223.19
763.74	222.96
764.06	222.76
764.39	222.64
764.71	222.48
765.04	222.32
765.37	222.13
765.69	222.02
766.02	221.88
766.34	221.72
766.67	221.45
767.00	221.40
767.32	221.52
767.65	221.67
767.97	221.44
768.30	221.37
768.62	221.21
768.95	221.10
769.27	221.06
769.60	221.03
769.92	220.75
770.25	220.67
770.57	220.60
770.90	220.51
771.22	220.43
771.55	220.41
771.87	220.34
772.20	220.27
772.52	220.43
772.85	220.81
773.17	220.82
773.50	220.72
773.82	220.54
774.15	220.20
774.47	219.88
774.80	219.80
775.12	219.65
775.45	219.61
775.77	219.52
776.09	219.45
776.42	219.31
776.74	219.40
777.07	219.32
777.39	219.27
777.72	219.24
778.04	219.16
778.36	219.01
778.69	218.94
779.01	218.89
779.33	218.53
779.66	218.06
779.98	217.88
780.31	217.79
780.63	217.90
780.95	217.89
781.28	217.82
781.60	217.76
781.92	217.76
782.25	217.66
782.57	217.51
782.89	217.36
783.22	217.34
783.54	217.11
783.86	217.05
784.19	217.00
784.51	217.00
784.83	216.95
785.16	216.91
785.48	216.91
785.80	216.85
786.12	216.79
786.45	216.72
786.77	216.73
787.09	216.67
787.42	216.43
787.74	216.47
788.06	216.46
788.38	216.32
788.71	216.22
789.03	216.20
789.35	216.23
789.67	216.17
789.99	216.05
790.32	216.04
790.64	216.05
790.96	216.29
791.28	216.16
791.61	216.09
791.93	216.10
792.25	215.96
792.57	216.15
792.89	216.19
793.21	216.13
793.54	216.05
793.86	215.97
794.18	215.97
794.50	215.75
794.82	215.68
795.14	215.74
795.47	215.75
795.79	215.69
796.11	215.57
796.43	215.53
796.75	215.47
797.07	215.43
797.39	215.36
797.71	215.05
798.04	214.98
798.36	214.98
798.68	214.98
799.00	214.97
799.32	214.83
799.64	214.77
799.96	214.75
800.28	214.82
800.60	214.85
800.92	214.88
801.24	214.91
801.56	214.96
801.89	214.91
802.21	214.85
802.53	214.76
802.85	214.85
803.17	215.01
803.49	214.95
803.81	214.85
804.13	214.80
804.45	214.78
804.77	214.80
805.09	214.74
805.41	214.58
805.73	214.51
806.05	214.32
806.37	214.30
806.69	214.21
807.01	214.13
807.33	214.08
807.65	213.90
807.97	214.05
808.28	213.92
808.60	213.89
808.92	213.95
809.24	214.20
809.56	214.03
809.88	213.90
810.20	213.94
810.52	214.02
810.84	213.91
811.16	213.78
811.48	213.76
811.80	213.87
812.12	213.89
812.43	213.99
812.75	214.02
813.07	213.92
813.39	213.93
813.71	213.87
814.03	213.84
814.35	213.85
814.67	213.65
814.98	213.72
815.30	213.68
815.62	213.54
815.94	213.21
816.26	213.20
816.58	213.10
816.89	212.99
817.21	212.88
817.53	212.91
817.85	212.97
818.17	212.89
818.48	212.72
818.80	212.77
819.12	212.67
819.44	212.54
819.76	212.58
820.07	212.59
820.39	212.55
820.71	212.58
821.03	212.57
821.34	212.55
821.66	212.49
821.98	212.53
822.30	212.50
822.61	212.71
822.93	212.76
823.25	212.76
823.57	212.74
823.88	212.85
824.20	212.88
824.52	212.98
824.83	213.01
825.15	212.96
825.47	212.90
825.79	212.95
826.10	212.99
826.42	212.93
826.74	212.99
827.05	212.94
827.37	212.94
827.69	212.93
828.00	212.90
828.32	212.84
828.64	212.76
828.95	212.85
829.27	212.71
829.58	212.61
829.90	212.68
830.22	212.74
830.53	212.55
830.85	212.46
831.17	212.28
831.48	212.23
831.80	212.30
832.11	212.25
832.43	212.13
832.75	212.10
833.06	212.29
833.38	212.13
833.69	212.14
834.01	212.19
834.32	212.15
834.64	212.17
834.96	212.26
835.27	212.27
835.59	212.27
835.90	212.19
836.22	212.24
836.53	212.13
836.85	212.11
837.16	212.51
837.48	212.55
837.79	212.69
838.11	212.68
838.42	212.61
838.74	212.65
839.05	212.68
839.37	212.59
839.68	212.43
840.00	212.37
840.31	212.41
840.63	212.33
840.94	212.31
841.26	212.18
841.57	212.13
841.88	212.15
842.20	212.00
842.51	212.03
842.83	212.05
843.14	212.39
843.46	212.33
843.77	212.16
844.08	212.12
844.40	211.94
844.71	211.91
845.03	211.90
845.34	211.90
845.65	211.85
845.97	211.95
846.28	211.92
846.60	211.98
846.91	211.90
847.22	211.86
847.54	211.90
847.85	211.98
848.16	212.00
848.48	211.92
848.79	212.09
849.10	212.03
849.42	212.02
849.73	211.68
850.04	211.70
850.36	211.53
850.67	211.52
850.98	211.60
851.30	211.59
851.61	211.62
851.92	211.58
852.23	211.71
852.55	211.70
852.86	211.73
853.17	211.75
853.49	211.92
853.80	211.93
854.11	211.99
854.42	211.99
854.74	211.86
855.05	211.88
855.36	211.66
855.67	211.75
855.99	211.70
856.30	212.01
856.61	211.98
856.92	211.92
857.23	211.98
857.55	211.96
857.86	212.00
858.17	212.03
858.48	212.01
858.79	211.95
859.11	212.00
859.42	211.92
859.73	211.92
860.04	211.83
860.35	211.79
860.66	211.60
860.98	211.60
861.29	211.71
861.60	211.66
861.91	211.78
862.22	211.73
862.53	211.70
862.84	211.34
863.16	211.46
863.47	211.42
863.78	211.39
864.09	211.39
864.40	211.42
864.71	211.39
865.02	211.41
865.33	211.39
865.64	211.33
865.95	211.30
866.27	211.49
866.58	211.48
866.89	211.56
867.20	211.62
867.51	211.59
867.82	211.50
868.13	211.66
868.44	211.56
868.75	211.62
869.06	211.64
869.37	211.72
869.68	211.57
869.99	211.64
870.30	211.59
870.61	211.58
870.92	211.47
871.23	211.43
871.54	211.46
871.85	211.36
872.16	211.38
872.47	211.48
872.78	211.31
873.09	211.33
873.40	211.23
873.71	211.32
874.02	211.39
874.33	211.36
874.64	211.24
874.95	211.35
875.26	211.27
875.56	211.28
875.87	211.27
876.18	211.27
876.49	211.69
876.80	211.72
877.11	211.65
877.42	211.72
877.73	211.76
878.04	211.67
878.35	211.76
878.66	211.76
878.96	211.63
879.27	211.56
879.58	211.51
879.89	211.54
880.20	211.64
880.51	211.59
880.82	211.66
881.12	211.74
881.43	211.66
881.74	211.67
882.05	211.69
882.36	211.71
882.67	211.76
882.97	211.34
883.28	211.33
883.59	211.40
883.90	211.46
884.21	211.46
884.51	211.48
884.82	211.40
885.13	211.46
885.44	211.55
885.74	211.53
886.05	211.57
886.36	211.52
886.67	211.33
886.98	211.46
887.28	211.43
887.59	211.38
887.90	211.39
888.20	211.34
888.51	211.31
888.82	211.26
889.13	211.28
889.43	211.59
889.74	211.55
890.05	211.49
890.35	211.40
890.66	211.38
890.97	211.40
891.28	211.48
891.58	211.37
891.89	211.38
892.20	211.41
892.50	211.32
892.81	211.33
893.12	211.41
893.42	211.28
893.73	211.32
894.04	211.39
894.34	211.45
894.65	211.44
894.95	211.43
895.26	211.45
895.57	211.65
895.87	211.26
896.18	211.35
896.48	211.41
896.79	211.38
897.10	211.47
897.40	211.42
897.71	211.49
898.01	211.52
898.32	211.58
898.63	211.55
898.93	211.57
899.24	211.60
899.54	211.56
899.85	211.59
900.15	211.58
900.46	211.49
900.76	211.43
901.07	211.45
901.38	211.44
901.68	211.49
901.99	211.30
902.29	211.35
902.60	211.30
902.90	211.25
903.21	211.24
903.51	211.24
903.82	211.34
904.12	211.30
904.43	211.30
904.73	211.27
905.03	211.26
905.34	211.75
905.64	211.66
905.95	211.59
906.25	211.54
906.56	211.48
906.86	211.54
907.17	211.58
907.47	211.58
907.77	211.55
908.08	211.44
908.38	211.45
908.69	211.46
908.99	211.52
909.30	211.54
909.60	211.55
909.90	211.51
910.21	211.44
910.51	211.42
910.81	211.37
911.12	211.41
911.42	211.42
911.73	211.00
912.03	211.14
912.33	211.31
912.64	211.32
912.94	211.32
913.24	211.23
913.55	211.28
913.85	211.27
914.15	211.35
914.46	211.43
914.76	211.37
915.06	211.37
915.37	211.28
915.67	211.28
915.97	211.27
916.27	211.21
916.58	211.24
916.88	211.20
917.18	211.23
917.49	211.41
917.79	211.47
918.09	211.49
918.39	211.48
918.70	211.40
919.00	211.41
919.30	211.64
919.60	211.69
919.91	211.54
920.21	211.55
920.51	211.55
920.81	211.55
921.12	211.66
921.42	211.68
921.72	211.74
922.02	211.80
922.32	211.87
922.63	211.85
922.93	211.98
923.23	211.98
923.53	211.93
923.83	211.68
924.13	211.65
924.44	211.65
924.74	211.72
925.04	211.78
925.34	211.71
925.64	211.49
925.94	211.45
926.24	211.62
926.55	211.64
926.85	211.57
927.15	211.54
927.45	211.53
927.75	211.50
928.05	211.48
928.35	211.40
928.65	211.47
928.95	211.50
929.26	211.42
929.56	211.53
929.86	211.63
930.16	211.63
930.46	211.61
930.76	211.57
931.06	211.38
931.36	211.27
931.66	211.37
931.96	211.39
932.26	211.38
932.56	211.26
932.86	211.24
933.16	211.29
933.46	211.22
933.76	211.15
934.06	211.17
934.36	211.35
934.66	211.34
934.96	211.25
935.26	211.17
935.56	211.19
935.86	211.03
936.16	210.91
936.46	210.85
936.76	210.85
937.06	210.80
937.36	210.80
937.66	210.80
937.96	210.74
938.26	210.71
938.56	210.67
938.86	210.73
939.16	210.83
939.46	210.85
939.76	210.89
940.06	210.88
940.35	210.80
940.65	210.55
940.95	210.54
941.25	210.47
941.55	210.48
941.85	210.47
942.15	210.60
942.45	210.71
942.75	210.76
943.04	210.80
943.34	210.88
943.64	210.86
943.94	210.90
944.24	210.91
944.54	210.93
944.84	211.01
945.13	210.91
945.43	210.83
945.73	210.89
946.03	210.86
946.33	210.80
946.62	210.87
946.92	210.89
947.22	210.96
947.52	211.03
947.82	211.08
948.11	211.09
948.41	210.95
948.71	210.85
949.01	210.81
949.31	210.81
949.60	210.80
949.90	210.91
950.20	210.85
950.50	210.86
950.79	210.90
951.09	210.91
951.39	210.95
951.69	210.93
951.98	210.92
952.28	210.97
952.58	211.05
952.87	211.07
953.17	211.13
953.47	211.16
953.76	211.10
954.06	211.03
954.36	210.99
954.66	211.02
954.95	211.10
955.25	211.15
955.55	211.18
955.84	211.04
956.14	211.04
956.44	211.12
956.73	211.04
957.03	211.02
957.32	211.02
957.62	210.99
957.92	211.13
958.21	211.06
958.51	211.45
958.81	211.47
959.10	211.46
959.40	211.58
959.69	211.49
959.99	211.56
960.29	211.66
960.58	211.64
960.88	211.80
961.17	211.76
961.47	211.84
961.76	211.78
962.06	211.93
962.36	211.88
962.65	211.94
962.95	212.01
963.24	212.00
963.54	212.02
963.83	212.05
964.13	211.96
964.42	211.88
964.72	211.63
965.01	211.61
965.31	211.61
965.60	211.48
965.90	211.72
966.19	211.71
966.49	211.61
966.78	211.62
967.08	211.58
967.37	211.68
967.67	211.60
967.96	211.67
968.26	211.70
968.55	211.77
968.85	211.74
969.14	211.68
969.43	211.66
969.73	211.61
970.02	211.62
970.32	211.58
970.61	211.62
970.91	211.47
971.20	211.42
971.49	211.34
971.79	211.34
972.08	211.05
972.38	211.07
972.67	211.07
972.96	211.10
973.26	211.03
973.55	211.10
973.85	211.02
974.14	210.96
974.43	211.03
974.73	210.97
975.02	210.86
975.31	210.84
975.61	210.86
975.90	210.89
976.19	210.83
976.49	210.87
976.78	210.88
977.07	210.87
977.37	210.92
977.66	210.90
977.95	210.92
978.24	210.93
978.54	210.95
978.83	210.97
979.12	210.93
979.42	210.96
979.71	210.84
980.00	210.91
980.29	210.95
980.59	210.80
980.88	210.87
981.17	210.95
981.46	210.97
981.76	210.97
982.05	211.05
982.34	211.10
982.63	211.09
982.93	211.14
983.22	211.27
983.51	211.39
983.80	211.50
984.09	211.50
984.39	211.64
984.68	211.61
984.97	211.67
985.26	211.68
985.55	211.68
985.85	211.65
986.14	211.70
986.43	211.75
986.72	211.78
987.01	211.61
987.30	211.63
987.59	211.65
987.89	211.65
988.18	211.61
988.47	211.58
988.76	211.63
989.05	211.56
989.34	211.52
989.63	211.50
989.92	211.51
990.22	211.52
990.51	211.38
990.80	211.36
991.09	211.34
991.38	211.42
991.67	211.35
991.96	211.27
992.25	211.24
992.54	211.12
992.83	211.18
993.12	211.23
993.41	211.31
993.70	211.55
993.99	211.56
994.28	211.55
994.58	211.57
994.87	211.50
995.16	211.47
995.45	211.41
995.74	211.30
996.03	211.40
996.32	211.44
996.61	211.54
996.90	211.58
997.19	211.60
997.48	211.55
997.77	211.55
998.06	211.57
998.34	211.56
998.63	211.59
998.92	211.53
999.21	211.56
999.50	211.52
999.79	211.27
1000.08	211.29
1000.37	211.28
1000.66	211.29
1000.95	211.35
1001.24	211.38
1001.53	211.40
1001.82	211.37
1002.11	211.18
1002.40	211.20
1002.68	211.26
1002.97	211.50
1003.26	211.39
1003.55	211.24
1003.84	211.24
1004.13	211.43
1004.42	211.49
1004.71	211.46
1004.99	211.45
1005.28	211.54
1005.57	211.51
1005.86	211.51
1006.15	211.45
1006.44	211.39
1006.72	211.42
1007.01	211.34
1007.30	211.33
1007.59	211.27
1007.88	211.28
1008.17	211.24
1008.45	211.12
1008.74	211.00
1009.03	210.72
1009.32	210.76
1009.60	210.84
1009.89	210.83
1010.18	210.64
1010.47	210.51
1010.76	210.53
1011.04	210.52
1011.33	210.48
1011.62	210.50
1011.91	210.55
1012.19	210.59
1012.48	210.60
1012.77	210.56
1013.05	210.71
1013.34	210.76
1013.63	210.80
1013.92	210.83
1014.20	210.87
1014.49	210.86
1014.78	210.88
1015.06	210.81
1015.35	210.79
1015.64	210.84
1015.92	210.88
1016.21	210.89
1016.50	210.95
1016.78	210.98
1017.07	210.94
1017.36	210.93
1017.64	210.88
1017.93	210.88
1018.22	210.82
1018.50	210.79
1018.79	210.82
1019.08	210.63
1019.36	210.64
1019.65	210.69
1019.93	210.72
1020.22	210.78
1020.51	211.09
1020.79	211.06
1021.08	210.15
1021.36	209.35
1021.65	211.30
1021.94	210.05
1022.22	211.45
1022.51	211.85
1022.79	211.70
1023.08	211.35
1023.36	216.35
1023.65	210.45
>>>>>End Processed Spectral Data<<<<<
