SpectraSuite Data File
++++++++++++++++++++++++++++++++++++
Date: Mon Feb 25 17:01:43 EST 2013
User: group
Dark Spectrum Present: No
Reference Spectrum Present: No
Number of Sampled Component Spectra: 1
Spectrometers: USB2E7196
Integration Time (usec): 104000 (USB2E7196)
Spectra Averaged: 20 (USB2E7196)
Boxcar Smoothing: 10 (USB2E7196)
Correct for Electrical Dark: No (USB2E7196)
Strobe/Lamp Enabled: No (USB2E7196)
Correct for Detector Non-linearity: No (USB2E7196)
Correct for Stray Light: No (USB2E7196)
Number of Pixels in Processed Spectrum: 2048
>>>>>Begin Processed Spectral Data<<<<<
339.09	0.00
339.48	198.95
339.86	200.85
340.24	201.10
340.63	201.85
341.01	208.85
341.39	205.70
341.78	207.55
342.16	208.75
342.54	209.35
342.93	198.01
343.31	208.03
343.69	208.60
344.07	208.95
344.46	209.36
344.84	209.69
345.22	209.70
345.60	209.91
345.99	210.08
346.37	210.16
346.75	210.06
347.13	210.10
347.52	210.08
347.90	210.15
348.28	210.13
348.66	210.10
349.05	209.99
349.43	210.01
349.81	210.06
350.19	210.14
350.57	210.16
350.96	210.19
351.34	210.22
351.72	210.15
352.10	210.35
352.48	210.33
352.87	210.43
353.25	210.47
353.63	210.52
354.01	210.60
354.39	210.68
354.77	210.87
355.15	211.07
355.54	211.14
355.92	211.12
356.30	211.22
356.68	211.60
357.06	211.68
357.44	211.71
357.82	211.70
358.20	211.82
358.58	211.92
358.97	212.02
359.35	212.11
359.73	212.30
360.11	212.21
360.49	212.37
360.87	212.47
361.25	212.63
361.63	212.88
362.01	212.94
362.39	212.94
362.77	213.03
363.15	213.07
363.53	213.14
363.91	213.24
364.29	213.29
364.67	213.03
365.05	213.11
365.43	213.21
365.81	213.34
366.19	213.53
366.57	213.66
366.95	213.64
367.33	213.61
367.71	213.62
368.09	213.78
368.47	213.79
368.85	213.82
369.23	213.88
369.61	213.66
369.99	213.72
370.37	213.80
370.75	214.01
371.13	213.92
371.51	213.78
371.89	213.81
372.27	213.83
372.65	213.80
373.03	213.70
373.41	213.69
373.78	213.64
374.16	213.44
374.54	213.25
374.92	213.25
375.30	213.21
375.68	213.12
376.06	213.04
376.44	212.97
376.82	212.88
377.19	212.81
377.57	212.84
377.95	212.68
378.33	212.56
378.71	212.30
379.09	212.25
379.47	212.33
379.84	212.18
380.22	212.07
380.60	212.00
380.98	212.03
381.36	211.95
381.73	211.82
382.11	211.78
382.49	211.78
382.87	211.67
383.25	211.65
383.62	211.96
384.00	211.85
384.38	211.84
384.76	211.87
385.13	211.99
385.51	211.87
385.89	211.81
386.27	211.72
386.64	211.80
387.02	211.70
387.40	211.56
387.78	211.58
388.15	211.54
388.53	211.46
388.91	211.35
389.29	211.27
389.66	211.31
390.04	211.20
390.42	211.22
390.79	211.23
391.17	211.16
391.55	210.76
391.92	210.75
392.30	210.77
392.68	210.69
393.05	210.52
393.43	210.59
393.81	210.58
394.18	210.50
394.56	210.37
394.94	210.52
395.31	210.52
395.69	210.61
396.06	210.73
396.44	210.70
396.82	210.68
397.19	210.86
397.57	210.84
397.95	210.94
398.32	210.83
398.70	210.86
399.07	210.96
399.45	211.00
399.82	211.07
400.20	211.07
400.58	211.11
400.95	211.04
401.33	211.11
401.70	211.40
402.08	211.54
402.45	211.61
402.83	211.70
403.20	211.78
403.58	211.80
403.95	211.89
404.33	212.08
404.71	212.16
405.08	212.40
405.46	212.51
405.83	212.71
406.21	212.95
406.58	213.15
406.96	213.35
407.33	213.53
407.70	213.79
408.08	214.20
408.45	214.54
408.83	214.94
409.20	215.21
409.58	215.28
409.95	215.76
410.33	216.24
410.70	216.53
411.08	217.00
411.45	217.50
411.82	217.97
412.20	218.59
412.57	219.42
412.95	219.78
413.32	220.52
413.69	221.09
414.07	221.85
414.44	222.67
414.82	223.50
415.19	224.57
415.56	225.54
415.94	226.55
416.31	227.77
416.68	228.98
417.06	230.28
417.43	231.74
417.81	233.24
418.18	234.79
418.55	236.55
418.93	238.32
419.30	240.15
419.67	242.17
420.04	244.24
420.42	246.32
420.79	248.95
421.16	251.43
421.54	254.25
421.91	256.85
422.28	259.64
422.66	262.59
423.03	265.63
423.40	268.77
423.77	271.91
424.15	275.11
424.52	278.56
424.89	282.44
425.26	285.95
425.64	289.40
426.01	293.15
426.38	297.10
426.75	301.27
427.13	305.53
427.50	309.85
427.87	314.39
428.24	319.01
428.61	323.31
428.99	328.26
429.36	333.44
429.73	338.80
430.10	344.02
430.47	349.34
430.85	354.73
431.22	360.58
431.59	367.04
431.96	373.08
432.33	379.76
432.70	386.15
433.08	393.72
433.45	400.86
433.82	408.06
434.19	416.11
434.56	423.91
434.93	431.45
435.30	439.09
435.68	447.44
436.05	455.74
436.42	464.10
436.79	471.72
437.16	479.96
437.53	488.67
437.90	497.25
438.27	505.82
438.64	514.66
439.01	522.95
439.38	530.20
439.75	537.51
440.13	545.70
440.50	553.46
440.87	560.03
441.24	566.88
441.61	574.27
441.98	579.80
442.35	586.25
442.72	592.69
443.09	598.99
443.46	603.07
443.83	605.96
444.20	608.54
444.57	611.99
444.94	613.97
445.31	616.05
445.68	618.30
446.05	619.53
446.42	619.36
446.79	619.05
447.16	618.50
447.53	618.37
447.90	615.77
448.27	613.22
448.64	609.30
449.01	606.64
449.37	601.52
449.74	596.52
450.11	590.73
450.48	583.99
450.85	577.15
451.22	571.36
451.59	565.75
451.96	560.43
452.33	553.32
452.70	546.73
453.07	538.74
453.43	530.56
453.80	522.89
454.17	515.45
454.54	508.34
454.91	500.84
455.28	493.32
455.65	486.36
456.02	479.70
456.38	473.85
456.75	466.39
457.12	460.28
457.49	454.20
457.86	448.12
458.23	443.23
458.59	437.77
458.96	432.16
459.33	427.22
459.70	422.19
460.07	418.14
460.43	413.62
460.80	409.27
461.17	405.38
461.54	401.37
461.91	397.65
462.27	393.77
462.64	390.48
463.01	386.85
463.38	383.49
463.74	379.70
464.11	376.62
464.48	373.88
464.85	370.88
465.21	368.73
465.58	366.31
465.95	363.35
466.32	360.84
466.68	358.35
467.05	356.00
467.42	353.56
467.78	351.00
468.15	348.56
468.52	346.90
468.88	344.55
469.25	342.40
469.62	340.76
469.98	338.89
470.35	337.16
470.72	335.53
471.08	333.63
471.45	332.15
471.82	330.63
472.18	329.03
472.55	327.88
472.92	326.26
473.28	324.85
473.65	323.59
474.02	322.34
474.38	321.37
474.75	320.43
475.11	319.41
475.48	318.64
475.85	317.95
476.21	317.15
476.58	316.60
476.94	316.11
477.31	315.35
477.67	314.77
478.04	314.31
478.41	313.99
478.77	313.97
479.14	313.58
479.50	313.28
479.87	313.24
480.23	313.07
480.60	312.90
480.96	312.85
481.33	313.07
481.69	313.15
482.06	313.20
482.42	313.18
482.79	313.27
483.15	313.50
483.52	313.89
483.88	314.10
484.25	314.30
484.61	314.71
484.98	315.20
485.34	315.86
485.71	316.51
486.07	317.10
486.44	317.39
486.80	318.10
487.17	318.80
487.53	319.53
487.90	320.32
488.26	321.43
488.62	322.45
488.99	323.32
489.35	324.28
489.72	325.42
490.08	326.67
490.44	327.96
490.81	329.15
491.17	330.30
491.54	331.67
491.90	333.13
492.26	334.46
492.63	335.98
492.99	337.35
493.36	338.84
493.72	340.46
494.08	342.22
494.45	343.92
494.81	345.83
495.17	347.69
495.54	349.64
495.90	351.44
496.26	353.29
496.63	355.21
496.99	357.19
497.35	359.21
497.72	361.27
498.08	363.32
498.44	365.49
498.80	367.68
499.17	369.89
499.53	371.89
499.89	374.17
500.26	376.12
500.62	378.21
500.98	380.28
501.34	382.34
501.71	384.51
502.07	386.60
502.43	388.63
502.79	390.42
503.16	392.36
503.52	394.38
503.88	396.36
504.24	398.32
504.60	400.25
504.97	402.14
505.33	403.72
505.69	405.61
506.05	407.31
506.41	408.87
506.78	410.27
507.14	411.85
507.50	413.30
507.86	414.89
508.22	416.46
508.59	417.73
508.95	419.00
509.31	420.32
509.67	421.50
510.03	422.50
510.39	423.81
510.75	424.78
511.12	425.70
511.48	426.48
511.84	427.21
512.20	427.95
512.56	428.58
512.92	429.48
513.28	430.08
513.64	430.63
514.00	431.19
514.37	431.69
514.73	432.20
515.09	432.61
515.45	432.87
515.81	433.07
516.17	433.35
516.53	433.52
516.89	433.52
517.25	433.59
517.61	433.71
517.97	433.61
518.33	433.58
518.69	433.52
519.05	433.58
519.41	433.55
519.77	433.65
520.13	433.49
520.49	433.20
520.85	432.96
521.21	432.90
521.57	432.73
521.93	432.49
522.29	432.32
522.65	432.00
523.01	431.82
523.37	431.64
523.73	431.60
524.09	431.51
524.45	431.41
524.81	431.44
525.17	431.55
525.53	431.60
525.89	431.70
526.25	431.89
526.61	431.78
526.97	431.88
527.33	432.01
527.68	432.64
528.04	433.03
528.40	433.37
528.76	433.70
529.12	434.31
529.48	435.14
529.84	435.79
530.20	436.63
530.56	437.46
530.91	438.34
531.27	439.15
531.63	440.08
531.99	441.00
532.35	441.98
532.71	442.95
533.07	444.14
533.42	445.69
533.78	446.78
534.14	448.23
534.50	449.52
534.86	451.00
535.21	452.04
535.57	453.57
535.93	455.04
536.29	456.70
536.65	458.22
537.00	459.65
537.36	461.12
537.72	462.59
538.08	464.30
538.44	465.88
538.79	467.66
539.15	469.49
539.51	471.43
539.87	473.34
540.22	475.39
540.58	477.45
540.94	479.12
541.29	481.25
541.65	483.32
542.01	485.62
542.37	487.82
542.72	490.15
543.08	492.33
543.44	494.78
543.79	497.05
544.15	499.38
544.51	502.09
544.87	504.81
545.22	507.46
545.58	509.90
545.94	512.44
546.29	515.08
546.65	517.70
547.01	520.35
547.36	523.00
547.72	525.59
548.07	528.22
548.43	530.93
548.79	533.49
549.14	536.27
549.50	538.90
549.86	541.44
550.21	544.22
550.57	547.21
550.92	549.70
551.28	552.45
551.64	555.35
551.99	557.85
552.35	560.43
552.70	563.11
553.06	565.82
553.41	568.58
553.77	571.46
554.13	574.16
554.48	576.94
554.84	579.65
555.19	582.29
555.55	585.17
555.90	587.67
556.26	590.35
556.61	592.75
556.97	595.19
557.32	597.73
557.68	600.01
558.03	602.18
558.39	604.72
558.74	606.95
559.10	609.14
559.45	611.50
559.81	614.03
560.16	616.23
560.52	618.67
560.87	621.03
561.23	623.05
561.58	625.56
561.94	627.45
562.29	629.47
562.64	631.83
563.00	633.76
563.35	636.05
563.71	638.41
564.06	640.60
564.42	642.86
564.77	645.18
565.12	647.54
565.48	649.93
565.83	652.09
566.19	654.41
566.54	656.51
566.89	658.58
567.25	660.66
567.60	662.93
567.96	664.99
568.31	667.02
568.66	669.14
569.02	670.46
569.37	672.13
569.72	673.87
570.08	675.28
570.43	676.80
570.78	678.14
571.14	679.13
571.49	680.34
571.84	681.63
572.20	682.51
572.55	683.49
572.90	684.20
573.26	684.80
573.61	685.31
573.96	685.99
574.31	686.51
574.67	686.70
575.02	686.81
575.37	686.96
575.72	687.03
576.08	687.05
576.43	687.35
576.78	687.65
577.13	687.85
577.49	688.05
577.84	688.03
578.19	688.23
578.54	688.67
578.90	688.93
579.25	688.73
579.60	688.70
579.95	688.44
580.30	688.48
580.66	688.61
581.01	688.62
581.36	688.37
581.71	688.22
582.06	688.32
582.42	688.31
582.77	687.95
583.12	687.72
583.47	687.55
583.82	687.18
584.17	686.94
584.53	686.66
584.88	686.25
585.23	686.14
585.58	685.80
585.93	685.31
586.28	685.04
586.63	684.81
586.98	684.56
587.34	684.52
587.69	684.03
588.04	683.62
588.39	683.29
588.74	682.68
589.09	682.37
589.44	681.40
589.79	680.81
590.14	680.43
590.49	679.90
590.84	679.25
591.19	678.91
591.54	678.15
591.89	677.15
592.25	676.62
592.60	675.66
592.95	674.62
593.30	673.50
593.65	672.26
594.00	671.05
594.35	670.88
594.70	669.57
595.05	668.53
595.40	667.30
595.75	665.94
596.10	665.17
596.45	664.09
596.80	663.41
597.15	662.37
597.50	661.07
597.85	660.04
598.19	658.94
598.54	657.70
598.89	656.63
599.24	655.95
599.59	654.78
599.94	653.75
600.29	652.65
600.64	651.52
600.99	650.36
601.34	649.42
601.69	647.30
602.04	646.13
602.39	645.14
602.74	644.11
603.08	643.31
603.43	642.37
603.78	641.15
604.13	639.89
604.48	638.96
604.83	638.28
605.18	637.36
605.53	636.17
605.87	635.02
606.22	633.90
606.57	632.47
606.92	631.05
607.27	629.63
607.62	628.49
607.96	627.56
608.31	626.53
608.66	625.29
609.01	624.03
609.36	622.67
609.70	621.04
610.05	619.68
610.40	618.18
610.75	616.45
611.10	615.14
611.44	613.42
611.79	611.55
612.14	609.64
612.49	607.57
612.83	605.90
613.18	604.17
613.53	602.45
613.88	600.54
614.22	598.92
614.57	597.22
614.92	595.44
615.27	593.53
615.61	591.72
615.96	589.91
616.31	588.11
616.65	586.65
617.00	584.87
617.35	583.08
617.70	581.16
618.04	579.11
618.39	576.87
618.74	575.21
619.08	573.28
619.43	571.52
619.78	569.99
620.12	568.18
620.47	566.41
620.82	564.38
621.16	562.51
621.51	560.70
621.85	558.80
622.20	556.91
622.55	554.83
622.89	552.79
623.24	550.94
623.59	549.09
623.93	547.13
624.28	545.36
624.62	543.86
624.97	542.13
625.32	540.45
625.66	538.79
626.01	536.85
626.35	535.17
626.70	533.28
627.04	531.49
627.39	529.66
627.73	527.90
628.08	526.50
628.43	524.86
628.77	522.94
629.12	521.02
629.46	519.34
629.81	517.75
630.15	515.95
630.50	514.09
630.84	512.25
631.19	510.30
631.53	508.61
631.88	506.29
632.22	504.27
632.57	502.71
632.91	500.90
633.26	499.24
633.60	497.46
633.95	495.78
634.29	493.85
634.64	492.04
634.98	490.14
635.32	488.26
635.67	486.72
636.01	485.00
636.36	483.30
636.70	481.57
637.05	479.82
637.39	478.26
637.73	476.73
638.08	475.36
638.42	473.90
638.77	472.36
639.11	470.84
639.45	469.29
639.80	467.34
640.14	465.63
640.49	463.95
640.83	462.28
641.17	460.68
641.52	459.06
641.86	457.42
642.20	455.91
642.55	454.10
642.89	452.42
643.23	450.82
643.58	449.47
643.92	447.72
644.26	446.15
644.61	444.51
644.95	442.78
645.29	440.93
645.64	439.20
645.98	437.40
646.32	435.79
646.66	434.02
647.01	432.44
647.35	430.94
647.69	429.20
648.04	427.61
648.38	425.92
648.72	424.26
649.06	422.56
649.41	420.86
649.75	419.28
650.09	417.59
650.43	415.87
650.78	414.13
651.12	412.56
651.46	410.99
651.80	409.47
652.14	407.77
652.49	406.21
652.83	404.60
653.17	402.95
653.51	401.40
653.85	400.09
654.20	398.60
654.54	396.98
654.88	395.49
655.22	393.99
655.56	392.32
655.90	390.75
656.25	389.26
656.59	387.65
656.93	386.22
657.27	384.86
657.61	383.33
657.95	381.86
658.29	380.45
658.64	379.08
658.98	377.42
659.32	376.02
659.66	374.47
660.00	373.00
660.34	371.43
660.68	369.88
661.02	368.27
661.36	366.81
661.70	365.47
662.05	364.07
662.39	362.67
662.73	361.52
663.07	360.40
663.41	359.13
663.75	357.83
664.09	356.45
664.43	354.95
664.77	353.70
665.11	352.34
665.45	350.96
665.79	349.57
666.13	348.29
666.47	346.97
666.81	345.79
667.15	344.44
667.49	343.57
667.83	342.57
668.17	341.35
668.51	340.29
668.85	339.12
669.19	338.09
669.53	336.84
669.87	335.60
670.21	334.31
670.55	333.15
670.89	332.31
671.23	331.33
671.57	330.33
671.91	329.30
672.25	328.30
672.58	327.35
672.92	326.16
673.26	325.23
673.60	324.25
673.94	323.24
674.28	322.35
674.62	321.20
674.96	320.15
675.30	319.29
675.64	318.24
675.97	317.34
676.31	316.32
676.65	315.57
676.99	314.86
677.33	313.91
677.67	313.05
678.01	311.83
678.34	310.88
678.68	309.86
679.02	308.85
679.36	307.94
679.70	307.04
680.04	306.24
680.37	305.37
680.71	304.50
681.05	303.66
681.39	302.74
681.73	301.82
682.06	300.94
682.40	300.05
682.74	299.26
683.08	298.40
683.42	297.64
683.75	296.80
684.09	295.76
684.43	295.07
684.77	294.18
685.10	293.44
685.44	292.57
685.78	291.83
686.12	291.12
686.45	290.35
686.79	289.52
687.13	288.88
687.46	288.10
687.80	287.42
688.14	286.64
688.48	286.05
688.81	285.40
689.15	284.66
689.49	283.84
689.82	283.07
690.16	282.25
690.50	281.50
690.83	280.74
691.17	279.87
691.51	279.02
691.84	278.39
692.18	277.63
692.52	276.99
692.85	276.40
693.19	275.86
693.52	275.16
693.86	274.50
694.20	273.80
694.53	273.21
694.87	272.55
695.21	271.87
695.54	271.16
695.88	270.38
696.21	269.71
696.55	269.25
696.88	268.62
697.22	267.95
697.56	267.36
697.89	266.75
698.23	266.42
698.56	265.91
698.90	265.43
699.23	264.92
699.57	264.31
699.90	263.71
700.24	263.05
700.58	262.52
700.91	262.03
701.25	261.74
701.58	261.36
701.92	260.81
702.25	260.34
702.59	259.80
702.92	259.41
703.26	258.97
703.59	258.45
703.93	258.31
704.26	257.96
704.60	257.55
704.93	256.98
705.26	256.38
705.60	255.95
705.93	255.29
706.27	254.97
706.60	254.71
706.94	254.40
707.27	253.94
707.61	253.53
707.94	253.04
708.27	252.29
708.61	251.60
708.94	251.22
709.28	250.84
709.61	250.45
709.94	250.08
710.28	249.71
710.61	249.31
710.95	248.64
711.28	248.46
711.61	247.95
711.95	247.68
712.28	247.30
712.61	246.97
712.95	246.90
713.28	246.66
713.61	246.20
713.95	245.72
714.28	245.44
714.61	245.09
714.95	244.82
715.28	244.54
715.61	244.28
715.95	243.97
716.28	243.58
716.61	243.28
716.95	242.85
717.28	242.46
717.61	242.20
717.94	241.94
718.28	241.37
718.61	241.11
718.94	240.83
719.27	240.50
719.61	240.21
719.94	239.74
720.27	239.26
720.60	238.94
720.94	238.70
721.27	238.41
721.60	238.15
721.93	237.83
722.27	237.69
722.60	237.42
722.93	237.15
723.26	236.92
723.59	236.61
723.93	236.46
724.26	236.28
724.59	236.01
724.92	235.77
725.25	235.62
725.59	235.43
725.92	235.17
726.25	235.02
726.58	234.70
726.91	234.57
727.24	234.42
727.57	234.23
727.91	233.98
728.24	233.75
728.57	233.50
728.90	233.37
729.23	233.06
729.56	233.04
729.89	232.84
730.22	232.71
730.55	232.52
730.89	232.29
731.22	232.08
731.55	231.79
731.88	231.57
732.21	231.24
732.54	230.92
732.87	230.76
733.20	230.56
733.53	230.41
733.86	230.16
734.19	229.87
734.52	229.75
734.85	229.76
735.18	229.52
735.51	229.44
735.84	229.32
736.17	229.20
736.50	228.87
736.83	229.09
737.16	228.85
737.49	228.75
737.82	228.56
738.15	228.43
738.48	228.28
738.81	228.04
739.14	227.88
739.47	227.68
739.80	227.49
740.13	227.35
740.46	227.11
740.79	226.90
741.12	226.70
741.45	226.42
741.78	226.05
742.11	225.96
742.44	225.70
742.77	225.52
743.10	225.28
743.43	225.13
743.75	224.59
744.08	224.88
744.41	224.69
744.74	224.51
745.07	224.31
745.40	224.26
745.73	224.28
746.06	224.20
746.39	224.14
746.71	223.89
747.04	223.69
747.37	223.61
747.70	223.47
748.03	223.30
748.36	223.24
748.68	223.16
749.01	222.95
749.34	222.84
749.67	222.76
750.00	222.72
750.33	222.86
750.65	222.77
750.98	222.21
751.31	222.05
751.64	221.99
751.97	222.08
752.29	221.89
752.62	221.64
752.95	221.48
753.28	221.37
753.60	221.35
753.93	221.36
754.26	221.25
754.59	221.13
754.91	221.07
755.24	220.94
755.57	220.78
755.90	220.72
756.22	220.62
756.55	220.41
756.88	220.26
757.20	219.99
757.53	219.82
757.86	219.65
758.19	219.62
758.51	219.53
758.84	219.27
759.17	219.25
759.49	219.20
759.82	219.32
760.15	219.30
760.47	219.21
760.80	218.99
761.13	219.04
761.45	218.95
761.78	218.87
762.11	218.79
762.43	218.77
762.76	218.67
763.08	218.64
763.41	218.57
763.74	218.43
764.06	218.33
764.39	218.26
764.71	218.25
765.04	218.11
765.37	217.97
765.69	217.86
766.02	217.67
766.34	217.59
766.67	217.35
767.00	217.35
767.32	217.40
767.65	217.52
767.97	217.30
768.30	217.25
768.62	217.22
768.95	217.10
769.27	216.98
769.60	217.05
769.92	216.88
770.25	216.82
770.57	216.77
770.90	216.64
771.22	216.55
771.55	216.43
771.87	216.47
772.20	216.45
772.52	216.63
772.85	217.00
773.17	216.90
773.50	216.86
773.82	216.67
774.15	216.50
774.47	216.30
774.80	216.27
775.12	216.19
775.45	216.06
775.77	216.11
776.09	216.08
776.42	215.95
776.74	216.04
777.07	215.96
777.39	215.91
777.72	215.88
778.04	215.90
778.36	215.84
778.69	215.78
779.01	215.76
779.33	215.43
779.66	214.94
779.98	214.86
780.31	214.80
780.63	214.90
780.95	214.95
781.28	214.90
781.60	214.80
781.92	214.81
782.25	214.83
782.57	214.74
782.89	214.71
783.22	214.65
783.54	214.45
783.86	214.45
784.19	214.37
784.51	214.43
784.83	214.36
785.16	214.30
785.48	214.22
785.80	214.21
786.12	214.31
786.45	214.34
786.77	214.45
787.09	214.35
787.42	214.20
787.74	214.18
788.06	214.10
788.38	214.10
788.71	214.09
789.03	214.08
789.35	214.12
789.67	214.01
789.99	214.00
790.32	213.99
790.64	214.04
790.96	214.33
791.28	214.22
791.61	214.19
791.93	214.23
792.25	214.22
792.57	214.47
792.89	214.26
793.21	214.32
793.54	214.20
793.86	214.25
794.18	214.29
794.50	214.20
794.82	214.22
795.14	214.19
795.47	214.15
795.79	214.15
796.11	214.07
796.43	214.09
796.75	214.13
797.07	214.13
797.39	214.09
797.71	213.85
798.04	213.85
798.36	213.83
798.68	213.83
799.00	213.80
799.32	213.57
799.64	213.73
799.96	213.68
800.28	213.73
800.60	213.71
800.92	213.71
801.24	213.65
801.56	213.65
801.89	213.70
802.21	213.72
802.53	213.63
802.85	213.64
803.17	213.85
803.49	213.71
803.81	213.65
804.13	213.60
804.45	213.55
804.77	213.59
805.09	213.60
805.41	213.54
805.73	213.49
806.05	213.38
806.37	213.26
806.69	213.24
807.01	213.20
807.33	213.21
807.65	213.05
807.97	213.13
808.28	213.16
808.60	213.08
808.92	213.05
809.24	213.21
809.56	213.11
809.88	212.96
810.20	213.04
810.52	213.10
810.84	212.97
811.16	212.88
811.48	212.82
811.80	212.96
812.12	212.95
812.43	212.96
812.75	212.93
813.07	212.90
813.39	212.90
813.71	212.75
814.03	212.65
814.35	212.64
814.67	212.57
814.98	212.47
815.30	212.46
815.62	212.34
815.94	212.14
816.26	212.16
816.58	212.07
816.89	212.00
817.21	211.97
817.53	212.02
817.85	212.03
818.17	211.99
818.48	211.76
818.80	211.85
819.12	211.75
819.44	211.69
819.76	211.64
820.07	211.56
820.39	211.57
820.71	211.59
821.03	211.60
821.34	211.55
821.66	211.57
821.98	211.58
822.30	211.54
822.61	211.74
822.93	211.68
823.25	211.56
823.57	211.50
823.88	211.48
824.20	211.44
824.52	211.45
824.83	211.41
825.15	211.33
825.47	211.21
825.79	211.30
826.10	211.35
826.42	211.43
826.74	211.49
827.05	211.45
827.37	211.43
827.69	211.45
828.00	211.43
828.32	211.35
828.64	211.31
828.95	211.50
829.27	211.36
829.58	211.39
829.90	211.59
830.22	211.60
830.53	211.52
830.85	211.52
831.17	211.44
831.48	211.47
831.80	211.55
832.11	211.59
832.43	211.48
832.75	211.43
833.06	211.52
833.38	211.42
833.69	211.45
834.01	211.56
834.32	211.50
834.64	211.49
834.96	211.60
835.27	211.61
835.59	211.50
835.90	211.46
836.22	211.46
836.53	211.29
836.85	211.26
837.16	211.59
837.48	211.62
837.79	211.73
838.11	211.73
838.42	211.70
838.74	211.70
839.05	211.70
839.37	211.76
839.68	211.63
840.00	211.62
840.31	211.65
840.63	211.57
840.94	211.52
841.26	211.49
841.57	211.39
841.88	211.45
842.20	211.40
842.51	211.40
842.83	211.40
843.14	211.72
843.46	211.80
843.77	211.58
844.08	211.58
844.40	211.49
844.71	211.47
845.03	211.43
845.34	211.38
845.65	211.40
845.97	211.36
846.28	211.35
846.60	211.34
846.91	211.34
847.22	211.33
847.54	211.42
847.85	211.50
848.16	211.51
848.48	211.46
848.79	211.61
849.10	211.60
849.42	211.61
849.73	211.25
850.04	211.18
850.36	211.15
850.67	211.18
850.98	211.17
851.30	211.16
851.61	211.18
851.92	211.24
852.23	211.29
852.55	211.31
852.86	211.38
853.17	211.40
853.49	211.45
853.80	211.53
854.11	211.57
854.42	211.57
854.74	211.49
855.05	211.44
855.36	211.18
855.67	211.22
855.99	211.20
856.30	211.67
856.61	211.74
856.92	211.73
857.23	211.73
857.55	211.72
857.86	211.70
858.17	211.67
858.48	211.58
858.79	211.59
859.11	211.61
859.42	211.54
859.73	211.56
860.04	211.50
860.35	211.37
860.66	211.23
860.98	211.21
861.29	211.30
861.60	211.35
861.91	211.50
862.22	211.45
862.53	211.35
862.84	210.94
863.16	210.95
863.47	210.85
863.78	210.80
864.09	210.82
864.40	210.81
864.71	210.86
865.02	210.90
865.33	210.85
865.64	210.74
865.95	210.78
866.27	210.94
866.58	210.91
866.89	211.02
867.20	211.04
867.51	210.95
867.82	210.92
868.13	210.97
868.44	210.96
868.75	210.94
869.06	211.06
869.37	211.12
869.68	211.05
869.99	211.08
870.30	211.08
870.61	211.15
870.92	211.14
871.23	211.13
871.54	211.20
871.85	211.23
872.16	211.30
872.47	211.17
872.78	210.97
873.09	211.01
873.40	210.94
873.71	211.06
874.02	211.09
874.33	211.15
874.64	211.14
874.95	211.09
875.26	211.11
875.56	211.06
875.87	211.06
876.18	211.03
876.49	211.41
876.80	211.42
877.11	211.35
877.42	211.39
877.73	211.44
878.04	211.39
878.35	211.43
878.66	211.43
878.96	211.52
879.27	211.56
879.58	211.51
879.89	211.53
880.20	211.54
880.51	211.55
880.82	211.47
881.12	211.48
881.43	211.47
881.74	211.37
882.05	211.37
882.36	211.41
882.67	211.50
882.97	211.14
883.28	211.13
883.59	211.09
883.90	211.20
884.21	211.24
884.51	211.24
884.82	211.21
885.13	211.25
885.44	211.21
885.74	211.15
886.05	211.14
886.36	211.10
886.67	210.97
886.98	211.05
887.28	211.10
887.59	211.10
887.90	211.10
888.20	211.16
888.51	211.19
888.82	211.11
889.13	211.14
889.43	211.46
889.74	211.42
890.05	211.41
890.35	211.26
890.66	211.12
890.97	211.13
891.28	211.08
891.58	211.07
891.89	211.10
892.20	211.09
892.50	211.09
892.81	211.10
893.12	211.14
893.42	211.05
893.73	211.03
894.04	211.01
894.34	211.07
894.65	211.06
894.95	211.05
895.26	211.02
895.57	211.15
895.87	210.84
896.18	210.92
896.48	211.03
896.79	211.08
897.10	211.16
897.40	211.18
897.71	211.22
898.01	211.19
898.32	211.21
898.63	211.20
898.93	211.27
899.24	211.28
899.54	211.29
899.85	211.33
900.15	211.32
900.46	211.36
900.76	211.32
901.07	211.29
901.38	211.31
901.68	211.37
901.99	211.19
902.29	211.18
902.60	211.10
902.90	211.06
903.21	211.02
903.51	211.01
903.82	211.05
904.12	211.05
904.43	211.10
904.73	211.12
905.03	211.19
905.34	211.47
905.64	211.43
905.95	211.36
906.25	211.34
906.56	211.38
906.86	211.38
907.17	211.40
907.47	211.42
907.77	211.37
908.08	211.33
908.38	211.37
908.69	211.38
908.99	211.47
909.30	211.45
909.60	211.47
909.90	211.47
910.21	211.37
910.51	211.32
910.81	211.33
911.12	211.30
911.42	211.25
911.73	210.92
912.03	210.95
912.33	210.99
912.64	211.02
912.94	210.94
913.24	210.80
913.55	210.83
913.85	210.79
914.15	210.86
914.46	210.91
914.76	210.86
915.06	210.85
915.37	210.82
915.67	210.80
915.97	210.82
916.27	210.72
916.58	210.79
916.88	210.73
917.18	210.63
917.49	210.84
917.79	210.78
918.09	210.85
918.39	210.93
918.70	210.95
919.00	210.84
919.30	210.99
919.60	211.05
919.91	211.02
920.21	211.13
920.51	211.09
920.81	211.02
921.12	211.15
921.42	211.14
921.72	211.17
922.02	211.16
922.32	211.16
922.63	211.33
922.93	211.49
923.23	211.51
923.53	211.50
923.83	211.23
924.13	211.37
924.44	211.31
924.74	211.29
925.04	211.30
925.34	211.34
925.64	211.26
925.94	211.26
926.24	211.39
926.55	211.33
926.85	211.32
927.15	211.36
927.45	211.33
927.75	211.26
928.05	211.17
928.35	211.21
928.65	211.29
928.95	211.24
929.26	211.07
929.56	211.11
929.86	211.16
930.16	211.20
930.46	211.13
930.76	211.12
931.06	211.03
931.36	210.93
931.66	210.98
931.96	210.98
932.26	210.98
932.56	210.88
932.86	210.83
933.16	210.89
933.46	210.79
933.76	210.69
934.06	210.86
934.36	211.01
934.66	210.98
934.96	210.93
935.26	210.93
935.56	210.96
935.86	210.90
936.16	210.86
936.46	210.82
936.76	210.89
937.06	210.90
937.36	210.95
937.66	211.05
937.96	211.08
938.26	211.04
938.56	211.02
938.86	210.98
939.16	211.10
939.46	211.11
939.76	211.21
940.06	211.14
940.35	211.06
940.65	210.93
940.95	210.93
941.25	210.82
941.55	210.81
941.85	210.82
942.15	210.93
942.45	211.00
942.75	210.99
943.04	210.92
943.34	210.97
943.64	210.96
943.94	210.88
944.24	210.84
944.54	210.84
944.84	210.86
945.13	210.82
945.43	210.75
945.73	210.75
946.03	210.69
946.33	210.72
946.62	210.70
946.92	210.76
947.22	210.76
947.52	210.84
947.82	210.86
948.11	210.84
948.41	210.72
948.71	210.66
949.01	210.68
949.31	210.62
949.60	210.52
949.90	210.54
950.20	210.55
950.50	210.56
950.79	210.60
951.09	210.59
951.39	210.63
951.69	210.61
951.98	210.65
952.28	210.69
952.58	210.71
952.87	210.71
953.17	210.72
953.47	210.76
953.76	210.79
954.06	210.73
954.36	210.69
954.66	210.71
954.95	210.81
955.25	210.87
955.55	211.00
955.84	211.11
956.14	211.19
956.44	211.18
956.73	211.12
957.03	211.07
957.32	211.03
957.62	211.04
957.92	211.09
958.21	211.04
958.51	211.44
958.81	211.53
959.10	211.54
959.40	211.55
959.69	211.48
959.99	211.44
960.29	211.45
960.58	211.38
960.88	211.50
961.17	211.48
961.47	211.52
961.76	211.50
962.06	211.47
962.36	211.43
962.65	211.46
962.95	211.43
963.24	211.45
963.54	211.49
963.83	211.43
964.13	211.39
964.42	211.27
964.72	211.01
965.01	210.98
965.31	210.95
965.60	210.88
965.90	211.10
966.19	211.05
966.49	211.09
966.78	211.14
967.08	211.12
967.37	211.09
967.67	210.94
967.96	210.96
968.26	210.94
968.55	210.95
968.85	210.97
969.14	211.01
969.43	210.98
969.73	210.92
970.02	210.90
970.32	210.90
970.61	210.94
970.91	210.80
971.20	210.67
971.49	210.61
971.79	210.64
972.08	210.39
972.38	210.42
972.67	210.39
972.96	210.43
973.26	210.40
973.55	210.54
973.85	210.60
974.14	210.57
974.43	210.56
974.73	210.46
975.02	210.41
975.31	210.44
975.61	210.42
975.90	210.46
976.19	210.44
976.49	210.45
976.78	210.48
977.07	210.46
977.37	210.55
977.66	210.63
977.95	210.59
978.24	210.63
978.54	210.64
978.83	210.61
979.12	210.52
979.42	210.45
979.71	210.39
980.00	210.27
980.29	210.24
980.59	210.21
980.88	210.36
981.17	210.37
981.46	210.32
981.76	210.34
982.05	210.45
982.34	210.51
982.63	210.52
982.93	210.49
983.22	210.65
983.51	210.63
983.80	210.67
984.09	210.71
984.39	210.69
984.68	210.70
984.97	210.76
985.26	210.80
985.55	210.85
985.85	210.74
986.14	210.83
986.43	210.91
986.72	210.86
987.01	210.69
987.30	210.63
987.59	210.63
987.89	210.58
988.18	210.48
988.47	210.46
988.76	210.41
989.05	210.39
989.34	210.28
989.63	210.40
989.92	210.32
990.22	210.29
990.51	210.27
990.80	210.26
991.09	210.21
991.38	210.23
991.67	210.16
991.96	210.16
992.25	210.23
992.54	210.17
992.83	210.20
993.12	210.22
993.41	210.30
993.70	210.41
993.99	210.51
994.28	210.55
994.58	210.67
994.87	210.69
995.16	210.68
995.45	210.68
995.74	210.58
996.03	210.66
996.32	210.76
996.61	210.86
996.90	210.83
997.19	210.82
997.48	210.82
997.77	210.82
998.06	210.83
998.34	210.74
998.63	210.76
998.92	210.79
999.21	210.85
999.50	210.85
999.79	210.72
1000.08	210.75
1000.37	210.80
1000.66	210.68
1000.95	210.72
1001.24	210.73
1001.53	210.78
1001.82	210.73
1002.11	210.67
1002.40	210.69
1002.68	210.84
1002.97	211.16
1003.26	211.14
1003.55	211.09
1003.84	211.12
1004.13	211.19
1004.42	211.24
1004.71	211.26
1004.99	211.29
1005.28	211.37
1005.57	211.40
1005.86	211.37
1006.15	211.39
1006.44	211.28
1006.72	211.36
1007.01	211.27
1007.30	211.31
1007.59	211.28
1007.88	211.34
1008.17	211.35
1008.45	211.22
1008.74	210.99
1009.03	210.76
1009.32	210.72
1009.60	210.81
1009.89	210.85
1010.18	210.71
1010.47	210.69
1010.76	210.65
1011.04	210.61
1011.33	210.61
1011.62	210.55
1011.91	210.60
1012.19	210.63
1012.48	210.63
1012.77	210.62
1013.05	210.88
1013.34	210.87
1013.63	210.82
1013.92	210.81
1014.20	210.73
1014.49	210.79
1014.78	210.84
1015.06	210.79
1015.35	210.90
1015.64	210.87
1015.92	210.90
1016.21	210.95
1016.50	211.00
1016.78	211.04
1017.07	211.01
1017.36	210.93
1017.64	210.90
1017.93	210.94
1018.22	210.82
1018.50	210.80
1018.79	210.72
1019.08	210.54
1019.36	210.60
1019.65	210.56
1019.93	210.65
1020.22	210.74
1020.51	210.86
1020.79	210.87
1021.08	209.60
1021.36	209.45
1021.65	209.55
1021.94	210.75
1022.22	212.10
1022.51	209.85
1022.79	212.30
1023.08	210.85
1023.36	214.05
1023.65	210.75
>>>>>End Processed Spectral Data<<<<<
