SpectraSuite Data File
++++++++++++++++++++++++++++++++++++
Date: Mon Feb 25 17:00:11 EST 2013
User: group
Dark Spectrum Present: No
Reference Spectrum Present: No
Number of Sampled Component Spectra: 1
Spectrometers: USB2E7196
Integration Time (usec): 104000 (USB2E7196)
Spectra Averaged: 20 (USB2E7196)
Boxcar Smoothing: 10 (USB2E7196)
Correct for Electrical Dark: No (USB2E7196)
Strobe/Lamp Enabled: No (USB2E7196)
Correct for Detector Non-linearity: No (USB2E7196)
Correct for Stray Light: No (USB2E7196)
Number of Pixels in Processed Spectrum: 2048
>>>>>Begin Processed Spectral Data<<<<<
339.09	0.00
339.48	198.25
339.86	199.30
340.24	201.50
340.63	203.60
341.01	209.65
341.39	205.50
341.78	207.60
342.16	208.65
342.54	208.65
342.93	198.25
343.31	208.27
343.69	208.80
344.07	209.30
344.46	209.76
344.84	210.10
345.22	210.11
345.60	210.35
345.99	210.45
346.37	210.59
346.75	210.64
347.13	210.64
347.52	210.73
347.90	210.84
348.28	210.79
348.66	210.86
349.05	210.70
349.43	210.78
349.81	210.86
350.19	210.87
350.57	210.92
350.96	210.99
351.34	211.05
351.72	211.10
352.10	211.19
352.48	211.26
352.87	211.28
353.25	211.37
353.63	211.41
354.01	211.51
354.39	211.64
354.77	211.79
355.15	212.04
355.54	212.03
355.92	212.01
356.30	212.07
356.68	212.35
357.06	212.48
357.44	212.41
357.82	212.47
358.20	212.57
358.58	212.62
358.97	212.66
359.35	212.77
359.73	212.98
360.11	213.00
360.49	213.01
360.87	213.07
361.25	213.15
361.63	213.33
362.01	213.42
362.39	213.35
362.77	213.38
363.15	213.32
363.53	213.44
363.91	213.47
364.29	213.51
364.67	213.21
365.05	213.20
365.43	213.29
365.81	213.40
366.19	213.56
366.57	213.75
366.95	213.80
367.33	213.75
367.71	213.72
368.09	213.83
368.47	213.85
368.85	213.84
369.23	213.93
369.61	213.79
369.99	213.88
370.37	213.89
370.75	214.01
371.13	213.94
371.51	213.86
371.89	213.84
372.27	213.86
372.65	213.87
373.03	213.88
373.41	213.81
373.78	213.70
374.16	213.48
374.54	213.32
374.92	213.27
375.30	213.27
375.68	213.16
376.06	213.14
376.44	213.05
376.82	213.02
377.19	212.90
377.57	212.83
377.95	212.62
378.33	212.53
378.71	212.24
379.09	212.23
379.47	212.21
379.84	212.21
380.22	212.17
380.60	212.04
380.98	211.98
381.36	211.88
381.73	211.81
382.11	211.78
382.49	211.74
382.87	211.67
383.25	211.60
383.62	211.92
384.00	211.81
384.38	211.86
384.76	211.85
385.13	212.02
385.51	212.04
385.89	212.05
386.27	212.10
386.64	212.19
387.02	212.08
387.40	212.03
387.78	211.90
388.15	211.85
388.53	211.80
388.91	211.76
389.29	211.74
389.66	211.82
390.04	211.79
390.42	211.84
390.79	211.80
391.17	211.74
391.55	211.32
391.92	211.30
392.30	211.23
392.68	211.23
393.05	211.16
393.43	211.13
393.81	211.09
394.18	211.05
394.56	210.99
394.94	211.14
395.31	211.04
395.69	211.14
396.06	211.15
396.44	211.22
396.82	211.22
397.19	211.39
397.57	211.35
397.95	211.39
398.32	211.28
398.70	211.39
399.07	211.53
399.45	211.60
399.82	211.63
400.20	211.63
400.58	211.59
400.95	211.47
401.33	211.52
401.70	211.80
402.08	211.81
402.45	211.92
402.83	211.99
403.20	212.16
403.58	212.24
403.95	212.46
404.33	212.65
404.71	212.79
405.08	213.09
405.46	213.23
405.83	213.43
406.21	213.58
406.58	213.73
406.96	213.93
407.33	214.13
407.70	214.41
408.08	215.02
408.45	215.45
408.83	215.92
409.20	216.28
409.58	216.48
409.95	217.05
410.33	217.58
410.70	218.01
411.08	218.54
411.45	219.14
411.82	219.70
412.20	220.40
412.57	221.36
412.95	221.85
413.32	222.73
413.69	223.57
414.07	224.57
414.44	225.65
414.82	226.67
415.19	227.98
415.56	229.19
415.94	230.32
416.31	231.72
416.68	233.11
417.06	234.80
417.43	236.52
417.81	238.41
418.18	240.20
418.55	242.27
418.93	244.38
419.30	246.61
419.67	248.96
420.04	251.40
420.42	253.84
420.79	256.92
421.16	259.90
421.54	263.14
421.91	266.40
422.28	269.63
422.66	273.24
423.03	276.82
423.40	280.59
423.77	284.50
424.15	288.45
424.52	292.66
424.89	297.24
425.26	301.53
425.64	305.52
426.01	310.20
426.38	314.89
426.75	319.93
427.13	325.06
427.50	330.50
427.87	336.10
428.24	341.59
428.61	346.94
428.99	352.94
429.36	359.20
429.73	365.54
430.10	371.90
430.47	378.45
430.85	385.01
431.22	392.10
431.59	399.73
431.96	407.03
432.33	415.00
432.70	422.72
433.08	431.96
433.45	440.70
433.82	449.25
434.19	458.97
434.56	468.30
434.93	477.43
435.30	486.55
435.68	496.79
436.05	507.16
436.42	517.18
436.79	526.40
437.16	536.39
437.53	546.88
437.90	557.45
438.27	567.78
438.64	578.63
439.01	588.75
439.38	597.86
439.75	606.67
440.13	616.75
440.50	626.41
440.87	634.33
441.24	642.73
441.61	651.73
441.98	658.70
442.35	666.70
442.72	674.62
443.09	682.34
443.46	687.17
443.83	690.51
444.20	693.63
444.57	697.98
444.94	700.31
445.31	702.80
445.68	705.33
446.05	706.80
446.42	706.59
446.79	706.14
447.16	705.51
447.53	705.48
447.90	702.44
448.27	699.34
448.64	694.62
449.01	691.33
449.37	685.36
449.74	679.38
450.11	672.40
450.48	664.39
450.85	656.30
451.22	649.27
451.59	642.67
451.96	636.49
452.33	627.72
452.70	619.96
453.07	610.54
453.43	600.81
453.80	591.46
454.17	582.45
454.54	573.83
454.91	564.64
455.28	555.50
455.65	547.15
456.02	538.84
456.38	531.73
456.75	522.64
457.12	515.14
457.49	507.61
457.86	500.06
458.23	493.95
458.59	487.07
458.96	480.22
459.33	474.14
459.70	467.96
460.07	463.04
460.43	457.50
460.80	452.20
461.17	447.46
461.54	442.60
461.91	438.00
462.27	433.36
462.64	429.36
463.01	424.93
463.38	420.69
463.74	416.34
464.11	412.65
464.48	409.55
464.85	405.98
465.21	403.35
465.58	400.47
465.95	396.95
466.32	393.99
466.68	391.14
467.05	388.15
467.42	385.23
467.78	382.20
468.15	379.25
468.52	377.05
468.88	374.21
469.25	371.69
469.62	369.69
469.98	367.43
470.35	365.37
470.72	363.50
471.08	361.26
471.45	359.33
471.82	357.40
472.18	355.27
472.55	353.72
472.92	351.87
473.28	350.32
473.65	348.78
474.02	347.32
474.38	346.10
474.75	345.08
475.11	343.87
475.48	342.94
475.85	342.23
476.21	341.36
476.58	340.75
476.94	340.21
477.31	339.53
477.67	339.02
478.04	338.44
478.41	338.00
478.77	337.95
479.14	337.55
479.50	337.30
479.87	337.23
480.23	337.20
480.60	337.16
480.96	337.13
481.33	337.45
481.69	337.58
482.06	337.65
482.42	337.70
482.79	337.94
483.15	338.26
483.52	338.67
483.88	339.09
484.25	339.38
484.61	339.87
484.98	340.31
485.34	341.02
485.71	341.74
486.07	342.58
486.44	343.08
486.80	344.09
487.17	345.12
487.53	346.33
487.90	347.49
488.26	348.82
488.62	350.18
488.99	351.32
489.35	352.66
489.72	354.14
490.08	355.75
490.44	357.28
490.81	358.97
491.17	360.62
491.54	362.44
491.90	364.30
492.26	366.19
492.63	368.27
492.99	370.21
493.36	372.36
493.72	374.57
494.08	376.80
494.45	379.08
494.81	381.62
495.17	384.06
495.54	386.68
495.90	389.11
496.26	391.63
496.63	394.34
496.99	397.10
497.35	399.90
497.72	402.74
498.08	405.61
498.44	408.56
498.80	411.71
499.17	414.69
499.53	417.94
499.89	421.10
500.26	424.07
500.62	427.03
500.98	430.22
501.34	433.36
501.71	436.73
502.07	439.92
502.43	442.85
502.79	445.83
503.16	448.76
503.52	451.76
503.88	454.68
504.24	457.71
504.60	460.63
504.97	463.55
505.33	466.44
505.69	469.65
506.05	472.43
506.41	475.08
506.78	477.73
507.14	480.32
507.50	482.82
507.86	485.39
508.22	488.17
508.59	490.45
508.95	492.79
509.31	495.04
509.67	497.25
510.03	499.47
510.39	501.64
510.75	503.70
511.12	505.79
511.48	507.79
511.84	509.51
512.20	511.33
512.56	513.11
512.92	514.85
513.28	516.35
513.64	517.90
514.00	519.46
514.37	521.08
514.73	522.52
515.09	523.96
515.45	525.21
515.81	526.29
516.17	527.51
516.53	528.47
516.89	529.33
517.25	530.22
517.61	531.10
517.97	531.94
518.33	532.65
518.69	533.33
519.05	534.07
519.41	534.91
519.77	535.83
520.13	536.52
520.49	536.90
520.85	537.23
521.21	537.82
521.57	538.29
521.93	538.44
522.29	538.77
522.65	539.16
523.01	539.62
523.37	539.82
523.73	540.21
524.09	540.62
524.45	541.03
524.81	541.40
525.17	541.81
525.53	542.21
525.89	542.68
526.25	543.22
526.61	543.53
526.97	543.79
527.33	544.04
527.68	544.72
528.04	545.19
528.40	545.77
528.76	546.36
529.12	546.96
529.48	547.94
529.84	548.69
530.20	549.46
530.56	550.33
530.91	551.51
531.27	552.36
531.63	553.42
531.99	554.61
532.35	555.65
532.71	556.86
533.07	558.21
533.42	559.89
533.78	561.16
534.14	562.76
534.50	563.97
534.86	565.55
535.21	566.84
535.57	568.69
535.93	570.41
536.29	572.15
536.65	573.86
537.00	575.46
537.36	577.11
537.72	578.78
538.08	580.53
538.44	582.25
538.79	584.14
539.15	585.90
539.51	587.85
539.87	589.90
540.22	592.06
540.58	594.13
540.94	595.86
541.29	598.07
541.65	599.87
542.01	602.35
542.37	604.58
542.72	606.63
543.08	608.70
543.44	611.19
543.79	613.17
544.15	615.45
544.51	618.02
544.87	620.45
545.22	622.85
545.58	625.29
545.94	627.86
546.29	630.27
546.65	632.78
547.01	635.08
547.36	637.55
547.72	639.72
548.07	641.97
548.43	644.22
548.79	646.40
549.14	648.93
549.50	651.36
549.86	653.61
550.21	656.40
550.57	658.96
550.92	661.25
551.28	663.95
551.64	666.39
551.99	668.88
552.35	671.31
552.70	673.90
553.06	676.36
553.41	678.80
553.77	681.52
554.13	684.09
554.48	686.74
554.84	689.50
555.19	692.10
555.55	695.05
555.90	697.55
556.26	699.99
556.61	702.36
556.97	704.61
557.32	706.98
557.68	709.05
558.03	711.26
558.39	713.34
558.74	715.47
559.10	717.80
559.45	719.86
559.81	722.19
560.16	724.12
560.52	726.39
560.87	728.51
561.23	730.29
561.58	732.52
561.94	734.35
562.29	735.98
562.64	737.96
563.00	739.61
563.35	741.69
563.71	743.88
564.06	745.88
564.42	748.15
564.77	750.23
565.12	752.29
565.48	754.56
565.83	756.79
566.19	758.71
566.54	760.35
566.89	762.20
567.25	764.24
567.60	766.20
567.96	768.22
568.31	770.10
568.66	771.86
569.02	773.15
569.37	774.58
569.72	776.30
570.08	777.81
570.43	779.10
570.78	780.36
571.14	781.22
571.49	782.34
571.84	783.30
572.20	784.07
572.55	784.96
572.90	785.36
573.26	785.79
573.61	786.31
573.96	786.85
574.31	787.34
574.67	787.44
575.02	787.40
575.37	787.22
575.72	786.85
576.08	786.90
576.43	786.74
576.78	786.76
577.13	786.57
577.49	786.37
577.84	786.06
578.19	786.07
578.54	786.23
578.90	786.41
579.25	786.11
579.60	785.83
579.95	785.11
580.30	784.85
580.66	784.49
581.01	784.15
581.36	783.60
581.71	782.71
582.06	782.12
582.42	781.87
582.77	781.21
583.12	780.57
583.47	779.92
583.82	779.46
584.17	778.76
584.53	778.30
584.88	777.53
585.23	777.10
585.58	775.97
585.93	775.12
586.28	774.06
586.63	773.10
586.98	772.41
587.34	772.05
587.69	771.13
588.04	770.18
588.39	769.33
588.74	768.42
589.09	767.75
589.44	766.50
589.79	765.59
590.14	764.50
590.49	763.50
590.84	762.48
591.19	761.60
591.54	760.48
591.89	758.71
592.25	757.63
592.60	756.08
592.95	754.78
593.30	753.09
593.65	751.41
594.00	749.95
594.35	749.40
594.70	747.78
595.05	746.40
595.40	745.06
595.75	743.22
596.10	741.99
596.45	740.46
596.80	739.24
597.15	737.68
597.50	736.09
597.85	734.66
598.19	732.97
598.54	731.34
598.89	729.86
599.24	729.00
599.59	727.31
599.94	725.97
600.29	724.59
600.64	723.33
600.99	721.91
601.34	720.50
601.69	717.81
602.04	716.02
602.39	714.17
602.74	712.45
603.08	711.10
603.43	709.63
603.78	707.87
604.13	706.25
604.48	704.56
604.83	703.16
605.18	701.59
605.53	700.04
605.87	698.34
606.22	696.64
606.57	694.51
606.92	692.85
607.27	690.87
607.62	688.92
607.96	687.20
608.31	685.48
608.66	683.50
609.01	681.56
609.36	679.63
609.70	677.90
610.05	675.80
610.40	673.89
610.75	671.53
611.10	669.81
611.44	667.51
611.79	665.32
612.14	663.16
612.49	660.75
612.83	658.59
613.18	656.29
613.53	654.27
613.88	651.90
614.22	649.60
614.57	647.36
614.92	645.26
615.27	642.89
615.61	640.68
615.96	638.60
616.31	636.62
616.65	634.76
617.00	632.52
617.35	630.47
617.70	627.88
618.04	625.58
618.39	622.89
618.74	620.81
619.08	618.45
619.43	616.14
619.78	614.16
620.12	611.96
620.47	609.71
620.82	607.12
621.16	604.62
621.51	602.45
621.85	600.39
622.20	598.00
622.55	595.58
622.89	593.28
623.24	591.04
623.59	588.59
623.93	586.15
624.28	583.87
624.62	581.87
624.97	580.05
625.32	577.85
625.66	575.78
626.01	573.42
626.35	571.34
626.70	569.06
627.04	567.15
627.39	564.85
627.73	562.78
628.08	560.86
628.43	558.80
628.77	556.60
629.12	554.29
629.46	552.23
629.81	550.15
630.15	547.81
630.50	545.51
630.84	543.29
631.19	541.30
631.53	539.24
631.88	536.65
632.22	534.23
632.57	532.32
632.91	530.29
633.26	528.39
633.60	526.21
633.95	524.20
634.29	521.70
634.64	519.76
634.98	517.63
635.32	515.65
635.67	514.00
636.01	512.00
636.36	510.01
636.70	508.18
637.05	506.22
637.39	504.40
637.73	502.65
638.08	501.18
638.42	499.27
638.77	497.50
639.11	495.76
639.45	493.90
639.80	491.78
640.14	489.76
640.49	487.76
640.83	485.82
641.17	484.06
641.52	482.20
641.86	480.25
642.20	478.50
642.55	476.38
642.89	474.33
643.23	472.42
643.58	470.70
643.92	468.65
644.26	466.94
644.61	465.17
644.95	463.17
645.29	461.02
645.64	459.12
645.98	457.10
646.32	455.33
646.66	453.37
647.01	451.55
647.35	449.73
647.69	447.81
648.04	446.13
648.38	444.21
648.72	442.42
649.06	440.47
649.41	438.48
649.75	436.65
650.09	434.90
650.43	433.02
650.78	431.12
651.12	429.33
651.46	427.40
651.80	425.64
652.14	423.88
652.49	422.03
652.83	420.18
653.17	418.31
653.51	416.50
653.85	415.01
654.20	413.33
654.54	411.57
654.88	409.71
655.22	407.96
655.56	406.12
655.90	404.35
656.25	402.74
656.59	401.05
656.93	399.35
657.27	397.76
657.61	395.99
657.95	394.28
658.29	392.73
658.64	391.20
658.98	389.52
659.32	387.77
659.66	386.19
660.00	384.48
660.34	382.98
660.68	381.31
661.02	379.66
661.36	378.04
661.70	376.55
662.05	375.14
662.39	373.76
662.73	372.55
663.07	371.28
663.41	369.81
663.75	368.28
664.09	366.94
664.43	365.36
664.77	364.08
665.11	362.55
665.45	361.10
665.79	359.67
666.13	358.19
666.47	356.96
666.81	355.75
667.15	354.42
667.49	353.01
667.83	351.84
668.17	350.44
668.51	349.27
668.85	348.14
669.19	347.15
669.53	345.76
669.87	344.31
670.21	343.08
670.55	341.83
670.89	340.95
671.23	339.76
671.57	338.72
671.91	337.63
672.25	336.53
672.58	335.55
672.92	334.37
673.26	333.37
673.60	332.20
673.94	331.06
674.28	330.07
674.62	329.14
674.96	328.08
675.30	327.15
675.64	326.10
675.97	324.96
676.31	323.84
676.65	322.86
676.99	322.07
677.33	320.96
677.67	319.93
678.01	318.75
678.34	317.75
678.68	316.76
679.02	315.71
679.36	314.74
679.70	313.60
680.04	312.66
680.37	311.69
680.71	310.82
681.05	309.88
681.39	308.93
681.73	307.95
682.06	307.02
682.40	306.14
682.74	305.34
683.08	304.61
683.42	303.68
683.75	302.85
684.09	301.78
684.43	301.02
684.77	300.29
685.10	299.37
685.44	298.51
685.78	297.65
686.12	296.87
686.45	296.07
686.79	295.27
687.13	294.61
687.46	293.84
687.80	293.09
688.14	292.27
688.48	291.60
688.81	290.75
689.15	289.98
689.49	289.16
689.82	288.34
690.16	287.34
690.50	286.48
690.83	285.63
691.17	284.81
691.51	284.03
691.84	283.19
692.18	282.45
692.52	281.76
692.85	281.05
693.19	280.43
693.52	279.76
693.86	279.08
694.20	278.34
694.53	277.62
694.87	276.85
695.21	276.20
695.54	275.44
695.88	274.73
696.21	274.00
696.55	273.40
696.88	272.70
697.22	272.12
697.56	271.65
697.89	271.02
698.23	270.47
698.56	269.77
698.90	269.27
699.23	268.62
699.57	268.04
699.90	267.38
700.24	266.66
700.58	266.11
700.91	265.50
701.25	265.11
701.58	264.68
701.92	264.17
702.25	263.51
702.59	262.90
702.92	262.39
703.26	261.82
703.59	261.26
703.93	260.99
704.26	260.48
704.60	259.90
704.93	259.43
705.26	258.82
705.60	258.41
705.93	257.82
706.27	257.45
706.60	257.00
706.94	256.62
707.27	256.10
707.61	255.59
707.94	255.10
708.27	254.39
708.61	253.81
708.94	253.32
709.28	252.91
709.61	252.49
709.94	252.07
710.28	251.68
710.61	251.21
710.95	250.43
711.28	250.24
711.61	249.79
711.95	249.41
712.28	249.06
712.61	248.60
712.95	248.41
713.28	248.10
713.61	247.75
713.95	247.31
714.28	246.99
714.61	246.52
714.95	246.12
715.28	245.72
715.61	245.25
715.95	244.92
716.28	244.50
716.61	244.20
716.95	243.83
717.28	243.44
717.61	243.15
717.94	242.91
718.28	242.30
718.61	241.98
718.94	241.64
719.27	241.36
719.61	241.10
719.94	240.69
720.27	240.25
720.60	239.90
720.94	239.58
721.27	239.36
721.60	239.22
721.93	239.03
722.27	238.90
722.60	238.74
722.93	238.39
723.26	238.22
723.59	237.88
723.93	237.74
724.26	237.60
724.59	237.20
724.92	236.94
725.25	236.82
725.59	236.59
725.92	236.40
726.25	236.11
726.58	235.89
726.91	235.65
727.24	235.51
727.57	235.25
727.91	235.01
728.24	234.77
728.57	234.48
728.90	234.23
729.23	233.94
729.56	233.89
729.89	233.75
730.22	233.49
730.55	233.35
730.89	233.02
731.22	232.70
731.55	232.62
731.88	232.41
732.21	232.09
732.54	231.84
732.87	231.56
733.20	231.43
733.53	231.18
733.86	231.03
734.19	230.75
734.52	230.59
734.85	230.62
735.18	230.42
735.51	230.33
735.84	230.18
736.17	230.00
736.50	229.63
736.83	229.87
737.16	229.67
737.49	229.43
737.82	229.31
738.15	229.25
738.48	229.09
738.81	228.95
739.14	228.76
739.47	228.55
739.80	228.39
740.13	228.22
740.46	228.04
740.79	227.79
741.12	227.60
741.45	227.33
741.78	226.99
742.11	226.90
742.44	226.62
742.77	226.50
743.10	226.31
743.43	226.15
743.75	225.56
744.08	225.80
744.41	225.65
744.74	225.47
745.07	225.26
745.40	225.15
745.73	225.10
746.06	225.01
746.39	224.93
746.71	224.78
747.04	224.61
747.37	224.42
747.70	224.37
748.03	224.27
748.36	224.29
748.68	224.16
749.01	223.94
749.34	223.76
749.67	223.65
750.00	223.57
750.33	223.73
750.65	223.67
750.98	223.22
751.31	223.08
751.64	222.93
751.97	222.90
752.29	222.75
752.62	222.50
752.95	222.39
753.28	222.24
753.60	222.18
753.93	222.14
754.26	222.07
754.59	221.82
754.91	221.67
755.24	221.53
755.57	221.42
755.90	221.25
756.22	221.23
756.55	221.03
756.88	220.87
757.20	220.51
757.53	220.28
757.86	220.11
758.19	220.06
758.51	220.07
758.84	219.83
759.17	219.68
759.49	219.63
759.82	219.67
760.15	219.60
760.47	219.47
760.80	219.28
761.13	219.27
761.45	219.25
761.78	219.20
762.11	219.06
762.43	218.99
762.76	218.96
763.08	218.89
763.41	218.91
763.74	218.90
764.06	218.80
764.39	218.78
764.71	218.70
765.04	218.55
765.37	218.39
765.69	218.35
766.02	218.28
766.34	218.17
766.67	217.98
767.00	217.98
767.32	218.10
767.65	218.25
767.97	218.13
768.30	218.06
768.62	217.98
768.95	217.90
769.27	217.84
769.60	217.78
769.92	217.73
770.25	217.56
770.57	217.45
770.90	217.30
771.22	217.20
771.55	217.20
771.87	217.20
772.20	217.14
772.52	217.39
772.85	217.69
773.17	217.63
773.50	217.49
773.82	217.35
774.15	217.09
774.47	216.79
774.80	216.68
775.12	216.57
775.45	216.51
775.77	216.45
776.09	216.35
776.42	216.29
776.74	216.32
777.07	216.27
777.39	216.20
777.72	216.24
778.04	216.29
778.36	216.18
778.69	216.17
779.01	216.14
779.33	215.78
779.66	215.37
779.98	215.25
780.31	215.35
780.63	215.49
780.95	215.51
781.28	215.44
781.60	215.39
781.92	215.35
782.25	215.27
782.57	215.31
782.89	215.23
783.22	215.22
783.54	215.07
783.86	215.00
784.19	214.90
784.51	214.96
784.83	214.76
785.16	214.75
785.48	214.69
785.80	214.65
786.12	214.63
786.45	214.68
786.77	214.72
787.09	214.64
787.42	214.43
787.74	214.44
788.06	214.55
788.38	214.55
788.71	214.48
789.03	214.53
789.35	214.45
789.67	214.49
789.99	214.44
790.32	214.37
790.64	214.43
790.96	214.70
791.28	214.50
791.61	214.52
791.93	214.57
792.25	214.51
792.57	214.74
792.89	214.63
793.21	214.57
793.54	214.50
793.86	214.43
794.18	214.45
794.50	214.34
794.82	214.20
795.14	214.25
795.47	214.30
795.79	214.27
796.11	214.19
796.43	214.10
796.75	214.05
797.07	214.02
797.39	213.97
797.71	213.65
798.04	213.66
798.36	213.66
798.68	213.51
799.00	213.47
799.32	213.30
799.64	213.37
799.96	213.40
800.28	213.48
800.60	213.49
800.92	213.52
801.24	213.53
801.56	213.56
801.89	213.45
802.21	213.51
802.53	213.43
802.85	213.51
803.17	213.66
803.49	213.65
803.81	213.70
804.13	213.68
804.45	213.60
804.77	213.65
805.09	213.67
805.41	213.62
805.73	213.58
806.05	213.49
806.37	213.44
806.69	213.30
807.01	213.28
807.33	213.22
807.65	213.06
807.97	213.08
808.28	213.03
808.60	213.04
808.92	212.96
809.24	213.20
809.56	213.16
809.88	213.05
810.20	212.98
810.52	213.01
810.84	212.95
811.16	212.96
811.48	212.86
811.80	212.94
812.12	212.95
812.43	213.04
812.75	213.05
813.07	213.03
813.39	213.15
813.71	213.09
814.03	213.12
814.35	213.11
814.67	213.08
814.98	213.05
815.30	213.03
815.62	212.92
815.94	212.64
816.26	212.61
816.58	212.53
816.89	212.60
817.21	212.46
817.53	212.44
817.85	212.54
818.17	212.50
818.48	212.34
818.80	212.42
819.12	212.36
819.44	212.27
819.76	212.24
820.07	212.11
820.39	212.05
820.71	212.04
821.03	212.05
821.34	211.97
821.66	212.05
821.98	212.08
822.30	212.12
822.61	212.31
822.93	212.39
823.25	212.40
823.57	212.26
823.88	212.41
824.20	212.37
824.52	212.34
824.83	212.35
825.15	212.36
825.47	212.36
825.79	212.40
826.10	212.32
826.42	212.27
826.74	212.36
827.05	212.38
827.37	212.36
827.69	212.35
828.00	212.32
828.32	212.27
828.64	212.21
828.95	212.35
829.27	212.30
829.58	212.21
829.90	212.19
830.22	212.25
830.53	212.09
830.85	212.10
831.17	212.01
831.48	212.06
831.80	212.02
832.11	211.95
832.43	211.84
832.75	211.88
833.06	212.05
833.38	211.95
833.69	211.89
834.01	211.87
834.32	211.78
834.64	211.82
834.96	211.86
835.27	211.86
835.59	211.78
835.90	211.61
836.22	211.59
836.53	211.62
836.85	211.61
837.16	212.02
837.48	211.96
837.79	212.19
838.11	212.18
838.42	212.22
838.74	212.26
839.05	212.18
839.37	212.13
839.68	211.95
840.00	211.87
840.31	211.94
840.63	211.97
840.94	212.04
841.26	212.00
841.57	211.95
841.88	211.96
842.20	211.92
842.51	211.96
842.83	211.94
843.14	212.24
843.46	212.24
843.77	212.06
844.08	212.06
844.40	211.90
844.71	211.79
845.03	211.78
845.34	211.74
845.65	211.86
845.97	211.95
846.28	212.00
846.60	212.08
846.91	212.03
847.22	212.05
847.54	212.03
847.85	212.05
848.16	211.99
848.48	211.95
848.79	212.10
849.10	212.09
849.42	212.08
849.73	211.73
850.04	211.74
850.36	211.56
850.67	211.69
850.98	211.68
851.30	211.81
851.61	211.82
851.92	211.83
852.23	211.88
852.55	211.81
852.86	211.80
853.17	211.78
853.49	211.88
853.80	211.88
854.11	211.94
854.42	211.89
854.74	211.94
855.05	211.97
855.36	211.79
855.67	211.81
855.99	211.88
856.30	212.31
856.61	212.22
856.92	212.24
857.23	212.20
857.55	212.14
857.86	212.11
858.17	212.10
858.48	211.95
858.79	211.80
859.11	211.85
859.42	211.85
859.73	211.84
860.04	211.82
860.35	211.71
860.66	211.61
860.98	211.62
861.29	211.61
861.60	211.56
861.91	211.64
862.22	211.64
862.53	211.51
862.84	211.09
863.16	211.22
863.47	211.15
863.78	211.13
864.09	211.18
864.40	211.11
864.71	211.13
865.02	211.20
865.33	211.22
865.64	211.16
865.95	211.11
866.27	211.35
866.58	211.25
866.89	211.32
867.20	211.28
867.51	211.26
867.82	211.21
868.13	211.29
868.44	211.23
868.75	211.23
869.06	211.17
869.37	211.28
869.68	211.16
869.99	211.24
870.30	211.21
870.61	211.24
870.92	211.18
871.23	211.18
871.54	211.32
871.85	211.35
872.16	211.40
872.47	211.36
872.78	211.19
873.09	211.25
873.40	211.22
873.71	211.27
874.02	211.35
874.33	211.34
874.64	211.30
874.95	211.32
875.26	211.25
875.56	211.30
875.87	211.17
876.18	211.19
876.49	211.53
876.80	211.54
877.11	211.50
877.42	211.65
877.73	211.64
878.04	211.51
878.35	211.59
878.66	211.58
878.96	211.59
879.27	211.56
879.58	211.52
879.89	211.48
880.20	211.58
880.51	211.53
880.82	211.54
881.12	211.53
881.43	211.49
881.74	211.45
882.05	211.49
882.36	211.55
882.67	211.61
882.97	211.27
883.28	211.22
883.59	211.18
883.90	211.12
884.21	211.16
884.51	211.16
884.82	211.12
885.13	211.16
885.44	211.15
885.74	211.09
886.05	211.15
886.36	211.17
886.67	211.03
886.98	211.26
887.28	211.34
887.59	211.36
887.90	211.34
888.20	211.38
888.51	211.45
888.82	211.35
889.13	211.35
889.43	211.56
889.74	211.56
890.05	211.55
890.35	211.49
890.66	211.42
890.97	211.41
891.28	211.36
891.58	211.32
891.89	211.36
892.20	211.34
892.50	211.26
892.81	211.24
893.12	211.26
893.42	211.05
893.73	211.00
894.04	211.00
894.34	211.00
894.65	210.90
894.95	210.85
895.26	210.91
895.57	211.00
895.87	210.70
896.18	210.78
896.48	210.79
896.79	210.79
897.10	210.90
897.40	210.94
897.71	210.96
898.01	210.98
898.32	211.04
898.63	211.07
898.93	211.10
899.24	211.11
899.54	211.10
899.85	211.13
900.15	211.14
900.46	211.19
900.76	211.25
901.07	211.32
901.38	211.36
901.68	211.38
901.99	211.23
902.29	211.28
902.60	211.18
902.90	211.09
903.21	211.09
903.51	211.00
903.82	211.07
904.12	211.09
904.43	211.07
904.73	211.05
905.03	211.15
905.34	211.47
905.64	211.46
905.95	211.55
906.25	211.54
906.56	211.51
906.86	211.45
907.17	211.38
907.47	211.39
907.77	211.29
908.08	211.26
908.38	211.28
908.69	211.34
908.99	211.44
909.30	211.64
909.60	211.62
909.90	211.65
910.21	211.52
910.51	211.50
910.81	211.47
911.12	211.51
911.42	211.47
911.73	211.11
912.03	211.17
912.33	211.17
912.64	211.14
912.94	211.10
913.24	211.07
913.55	211.11
913.85	211.07
914.15	211.14
914.46	211.14
914.76	211.15
915.06	211.09
915.37	211.08
915.67	210.97
915.97	210.99
916.27	210.90
916.58	210.92
916.88	210.92
917.18	210.85
917.49	211.06
917.79	211.03
918.09	211.20
918.39	211.20
918.70	211.15
919.00	211.15
919.30	211.35
919.60	211.33
919.91	211.27
920.21	211.34
920.51	211.29
920.81	211.32
921.12	211.32
921.42	211.32
921.72	211.36
922.02	211.44
922.32	211.57
922.63	211.60
922.93	211.80
923.23	211.76
923.53	211.79
923.83	211.54
924.13	211.55
924.44	211.41
924.74	211.46
925.04	211.58
925.34	211.56
925.64	211.42
925.94	211.44
926.24	211.63
926.55	211.60
926.85	211.67
927.15	211.66
927.45	211.65
927.75	211.68
928.05	211.65
928.35	211.58
928.65	211.56
928.95	211.55
929.26	211.40
929.56	211.50
929.86	211.55
930.16	211.41
930.46	211.41
930.76	211.46
931.06	211.39
931.36	211.30
931.66	211.32
931.96	211.33
932.26	211.27
932.56	211.13
932.86	211.12
933.16	211.08
933.46	210.97
933.76	211.00
934.06	211.05
934.36	211.19
934.66	211.14
934.96	211.10
935.26	211.14
935.56	211.21
935.86	211.14
936.16	211.12
936.46	211.22
936.76	211.17
937.06	211.12
937.36	211.11
937.66	211.11
937.96	211.12
938.26	210.97
938.56	211.03
938.86	211.01
939.16	211.12
939.46	211.19
939.76	211.25
940.06	211.18
940.35	211.09
940.65	210.85
940.95	210.90
941.25	210.81
941.55	210.76
941.85	210.75
942.15	210.81
942.45	210.87
942.75	210.85
943.04	210.88
943.34	210.97
943.64	210.92
943.94	210.84
944.24	210.88
944.54	211.00
944.84	211.06
945.13	210.99
945.43	210.92
945.73	210.89
946.03	210.95
946.33	210.88
946.62	210.91
946.92	210.95
947.22	210.98
947.52	211.03
947.82	211.11
948.11	211.05
948.41	210.96
948.71	210.88
949.01	210.89
949.31	210.86
949.60	210.77
949.90	210.83
950.20	210.85
950.50	210.79
950.79	210.77
951.09	210.76
951.39	210.83
951.69	210.77
951.98	210.85
952.28	210.75
952.58	210.80
952.87	210.76
953.17	210.75
953.47	210.69
953.76	210.68
954.06	210.67
954.36	210.61
954.66	210.56
954.95	210.69
955.25	210.71
955.55	210.71
955.84	210.70
956.14	210.75
956.44	210.79
956.73	210.84
957.03	210.86
957.32	210.84
957.62	210.79
957.92	210.90
958.21	210.78
958.51	211.31
958.81	211.37
959.10	211.42
959.40	211.54
959.69	211.57
959.99	211.63
960.29	211.60
960.58	211.66
960.88	211.86
961.17	211.80
961.47	211.84
961.76	211.87
962.06	211.96
962.36	211.93
962.65	211.95
962.95	211.89
963.24	211.82
963.54	211.78
963.83	211.89
964.13	211.78
964.42	211.72
964.72	211.48
965.01	211.47
965.31	211.39
965.60	211.29
965.90	211.51
966.19	211.44
966.49	211.46
966.78	211.45
967.08	211.39
967.37	211.38
967.67	211.27
967.96	211.32
968.26	211.25
968.55	211.25
968.85	211.20
969.14	211.25
969.43	211.25
969.73	211.23
970.02	211.15
970.32	211.20
970.61	211.20
970.91	211.01
971.20	210.98
971.49	210.94
971.79	211.00
972.08	210.76
972.38	210.79
972.67	210.78
972.96	210.79
973.26	210.73
973.55	210.87
973.85	210.93
974.14	210.82
974.43	210.86
974.73	210.85
975.02	210.82
975.31	210.79
975.61	210.84
975.90	210.80
976.19	210.77
976.49	210.74
976.78	210.75
977.07	210.78
977.37	210.81
977.66	210.88
977.95	210.79
978.24	210.82
978.54	210.92
978.83	210.84
979.12	210.83
979.42	210.87
979.71	210.82
980.00	210.81
980.29	210.95
980.59	210.92
980.88	210.99
981.17	211.04
981.46	211.00
981.76	210.98
982.05	211.13
982.34	211.20
982.63	211.25
982.93	211.31
983.22	211.39
983.51	211.39
983.80	211.48
984.09	211.60
984.39	211.54
984.68	211.43
984.97	211.49
985.26	211.46
985.55	211.41
985.85	211.33
986.14	211.37
986.43	211.35
986.72	211.31
987.01	211.21
987.30	211.20
987.59	211.19
987.89	211.23
988.18	211.12
988.47	211.08
988.76	211.07
989.05	211.00
989.34	210.93
989.63	211.01
989.92	210.93
990.22	210.95
990.51	210.95
990.80	210.93
991.09	210.88
991.38	210.98
991.67	211.01
991.96	210.91
992.25	210.90
992.54	210.78
992.83	210.80
993.12	210.78
993.41	210.79
993.70	210.94
993.99	211.03
994.28	211.07
994.58	211.11
994.87	211.09
995.16	211.13
995.45	211.08
995.74	210.91
996.03	210.92
996.32	210.87
996.61	211.04
996.90	211.09
997.19	211.13
997.48	211.07
997.77	211.05
998.06	211.10
998.34	211.09
998.63	211.16
998.92	211.15
999.21	211.27
999.50	211.26
999.79	211.17
1000.08	211.14
1000.37	211.16
1000.66	211.11
1000.95	211.11
1001.24	211.10
1001.53	211.12
1001.82	211.20
1002.11	211.13
1002.40	211.15
1002.68	211.20
1002.97	211.43
1003.26	211.35
1003.55	211.29
1003.84	211.30
1004.13	211.40
1004.42	211.32
1004.71	211.29
1004.99	211.30
1005.28	211.31
1005.57	211.39
1005.86	211.36
1006.15	211.27
1006.44	211.15
1006.72	211.15
1007.01	211.13
1007.30	211.10
1007.59	211.11
1007.88	211.02
1008.17	211.08
1008.45	210.96
1008.74	210.75
1009.03	210.54
1009.32	210.60
1009.60	210.62
1009.89	210.58
1010.18	210.46
1010.47	210.58
1010.76	210.55
1011.04	210.50
1011.33	210.50
1011.62	210.50
1011.91	210.54
1012.19	210.58
1012.48	210.70
1012.77	210.73
1013.05	210.91
1013.34	210.93
1013.63	210.91
1013.92	210.98
1014.20	210.97
1014.49	211.02
1014.78	211.09
1015.06	211.01
1015.35	211.02
1015.64	211.03
1015.92	211.07
1016.21	211.09
1016.50	211.02
1016.78	211.05
1017.07	211.10
1017.36	211.01
1017.64	210.94
1017.93	210.92
1018.22	210.85
1018.50	210.80
1018.79	210.81
1019.08	210.73
1019.36	210.68
1019.65	210.64
1019.93	210.75
1020.22	210.80
1020.51	210.95
1020.79	210.77
1021.08	209.70
1021.36	210.20
1021.65	211.00
1021.94	211.90
1022.22	209.65
1022.51	210.20
1022.79	213.20
1023.08	211.65
1023.36	213.90
1023.65	208.10
>>>>>End Processed Spectral Data<<<<<
