SpectraSuite Data File
++++++++++++++++++++++++++++++++++++
Date: Mon Feb 25 16:57:24 EST 2013
User: group
Dark Spectrum Present: No
Reference Spectrum Present: No
Number of Sampled Component Spectra: 1
Spectrometers: USB2E7196
Integration Time (usec): 104000 (USB2E7196)
Spectra Averaged: 20 (USB2E7196)
Boxcar Smoothing: 10 (USB2E7196)
Correct for Electrical Dark: No (USB2E7196)
Strobe/Lamp Enabled: No (USB2E7196)
Correct for Detector Non-linearity: No (USB2E7196)
Correct for Stray Light: No (USB2E7196)
Number of Pixels in Processed Spectrum: 2048
>>>>>Begin Processed Spectral Data<<<<<
339.09	0.00
339.48	198.15
339.86	199.25
340.24	201.35
340.63	203.50
341.01	209.20
341.39	205.85
341.78	207.80
342.16	208.70
342.54	208.80
342.93	198.18
343.31	208.17
343.69	208.72
344.07	209.24
344.46	209.77
344.84	210.16
345.22	210.23
345.60	210.45
345.99	210.67
346.37	210.82
346.75	210.93
347.13	211.05
347.52	211.22
347.90	211.44
348.28	211.44
348.66	211.59
349.05	211.54
349.43	211.55
349.81	211.70
350.19	211.84
350.57	211.90
350.96	212.03
351.34	212.15
351.72	212.26
352.10	212.38
352.48	212.28
352.87	212.35
353.25	212.45
353.63	212.51
354.01	212.55
354.39	212.59
354.77	212.71
355.15	212.92
355.54	212.89
355.92	212.80
356.30	212.85
356.68	213.10
357.06	213.19
357.44	213.24
357.82	213.27
358.20	213.38
358.58	213.36
358.97	213.36
359.35	213.51
359.73	213.66
360.11	213.66
360.49	213.85
360.87	213.92
361.25	213.99
361.63	214.16
362.01	214.13
362.39	214.18
362.77	214.24
363.15	214.20
363.53	214.25
363.91	214.35
364.29	214.38
364.67	214.07
365.05	214.07
365.43	214.09
365.81	214.05
366.19	214.23
366.57	214.42
366.95	214.41
367.33	214.23
367.71	214.18
368.09	214.34
368.47	214.31
368.85	214.25
369.23	214.33
369.61	214.18
369.99	214.32
370.37	214.33
370.75	214.45
371.13	214.33
371.51	214.19
371.89	214.11
372.27	214.08
372.65	214.10
373.03	214.09
373.41	214.05
373.78	213.99
374.16	213.66
374.54	213.50
374.92	213.45
375.30	213.45
375.68	213.30
376.06	213.17
376.44	213.05
376.82	213.00
377.19	212.90
377.57	212.87
377.95	212.72
378.33	212.64
378.71	212.38
379.09	212.42
379.47	212.55
379.84	212.56
380.22	212.52
380.60	212.33
380.98	212.21
381.36	212.14
381.73	212.06
382.11	212.01
382.49	211.96
382.87	211.90
383.25	211.88
383.62	212.29
384.00	212.20
384.38	212.23
384.76	212.32
385.13	212.48
385.51	212.41
385.89	212.34
386.27	212.32
386.64	212.34
387.02	212.26
387.40	212.10
387.78	212.00
388.15	211.94
388.53	211.94
388.91	211.95
389.29	211.87
389.66	211.97
390.04	211.97
390.42	212.01
390.79	211.99
391.17	211.95
391.55	211.55
391.92	211.51
392.30	211.57
392.68	211.43
393.05	211.31
393.43	211.31
393.81	211.35
394.18	211.26
394.56	211.25
394.94	211.34
395.31	211.35
395.69	211.52
396.06	211.62
396.44	211.72
396.82	211.75
397.19	212.00
397.57	211.93
397.95	212.00
398.32	211.99
398.70	212.02
399.07	212.17
399.45	212.21
399.82	212.33
400.20	212.34
400.58	212.38
400.95	212.34
401.33	212.53
401.70	212.91
402.08	213.09
402.45	213.15
402.83	213.31
403.20	213.47
403.58	213.50
403.95	213.66
404.33	213.87
404.71	214.04
405.08	214.49
405.46	214.75
405.83	215.10
406.21	215.38
406.58	215.80
406.96	216.13
407.33	216.46
407.70	216.93
408.08	217.64
408.45	218.21
408.83	218.78
409.20	219.29
409.58	219.55
409.95	220.25
410.33	221.00
410.70	221.65
411.08	222.47
411.45	223.38
411.82	224.23
412.20	225.18
412.57	226.52
412.95	227.27
413.32	228.45
413.69	229.70
414.07	231.02
414.44	232.45
414.82	234.00
415.19	235.71
415.56	237.43
415.94	239.14
416.31	241.18
416.68	243.25
417.06	245.65
417.43	248.14
417.81	250.80
418.18	253.57
418.55	256.50
418.93	259.58
419.30	262.78
419.67	266.18
420.04	269.70
420.42	273.17
420.79	277.45
421.16	281.79
421.54	286.20
421.91	290.84
422.28	295.63
422.66	300.64
423.03	305.83
423.40	311.15
423.77	316.79
424.15	322.56
424.52	328.51
424.89	334.98
425.26	341.29
425.64	347.21
426.01	353.78
426.38	360.72
426.75	367.85
427.13	375.15
427.50	382.90
427.87	391.00
428.24	399.14
428.61	406.93
428.99	415.55
429.36	424.69
429.73	433.73
430.10	442.81
430.47	452.15
430.85	461.72
431.22	471.93
431.59	482.73
431.96	493.04
432.33	504.77
432.70	516.12
433.08	529.35
433.45	541.83
433.82	554.33
434.19	568.08
434.56	581.64
434.93	594.78
435.30	608.24
435.68	623.09
436.05	637.64
436.42	652.20
436.79	665.56
437.16	680.25
437.53	695.76
437.90	711.01
438.27	726.13
438.64	741.94
439.01	756.56
439.38	769.87
439.75	782.80
440.13	797.28
440.50	811.11
440.87	822.63
441.24	834.67
441.61	847.95
441.98	858.13
442.35	869.71
442.72	881.41
443.09	892.38
443.46	899.47
443.83	904.81
444.20	909.42
444.57	915.94
444.94	919.45
445.31	923.23
445.68	926.83
446.05	929.16
446.42	928.94
446.79	928.43
447.16	927.58
447.53	927.45
447.90	923.00
448.27	918.65
448.64	911.74
449.01	907.33
449.37	898.18
449.74	889.45
450.11	879.04
450.48	867.47
450.85	855.69
451.22	845.53
451.59	835.81
451.96	826.79
452.33	814.07
452.70	802.78
453.07	788.76
453.43	774.57
453.80	761.00
454.17	747.95
454.54	735.54
454.91	722.19
455.28	709.09
455.65	697.11
456.02	684.67
456.38	674.60
456.75	661.53
457.12	650.89
457.49	640.24
457.86	629.87
458.23	621.06
458.59	611.23
458.96	601.36
459.33	592.65
459.70	583.74
460.07	576.70
460.43	568.51
460.80	561.00
461.17	554.43
461.54	547.52
461.91	540.91
462.27	534.21
462.64	528.55
463.01	522.22
463.38	516.03
463.74	509.97
464.11	504.46
464.48	499.72
464.85	494.57
465.21	490.76
465.58	486.47
465.95	481.36
466.32	477.21
466.68	473.00
467.05	468.75
467.42	464.60
467.78	460.24
468.15	456.08
468.52	452.97
468.88	449.03
469.25	445.28
469.62	442.27
469.98	439.04
470.35	436.11
470.72	433.30
471.08	430.25
471.45	427.74
471.82	425.13
472.18	422.21
472.55	420.11
472.92	417.53
473.28	415.35
473.65	413.07
474.02	410.96
474.38	409.30
474.75	407.92
475.11	406.32
475.48	405.09
475.85	403.90
476.21	402.73
476.58	401.84
476.94	401.18
477.31	400.35
477.67	399.63
478.04	399.06
478.41	398.73
478.77	398.66
479.14	398.28
479.50	398.18
479.87	398.35
480.23	398.45
480.60	398.43
480.96	398.55
481.33	399.22
481.69	399.69
482.06	400.02
482.42	400.23
482.79	400.72
483.15	401.38
483.52	402.49
483.88	403.41
484.25	404.35
484.61	405.22
484.98	406.19
485.34	407.49
485.71	408.76
486.07	410.27
486.44	411.58
486.80	413.15
487.17	414.80
487.53	416.79
487.90	418.80
488.26	421.07
488.62	423.53
488.99	425.79
489.35	428.16
489.72	430.86
490.08	433.80
490.44	436.63
490.81	439.60
491.17	442.50
491.54	445.67
491.90	448.84
492.26	452.38
492.63	456.11
492.99	459.82
493.36	463.87
493.72	467.89
494.08	472.09
494.45	476.53
494.81	481.21
495.17	485.77
495.54	490.72
495.90	495.71
496.26	500.60
496.63	505.86
496.99	511.18
497.35	516.66
497.72	522.22
498.08	527.74
498.44	533.51
498.80	539.60
499.17	545.71
499.53	551.97
499.89	558.36
500.26	564.55
500.62	570.78
500.98	576.99
501.34	583.48
501.71	590.09
502.07	596.74
502.43	603.30
502.79	609.74
503.16	616.24
503.52	622.90
503.88	629.62
504.24	636.42
504.60	643.17
504.97	650.06
505.33	656.66
505.69	664.15
506.05	671.07
506.41	677.88
506.78	684.57
507.14	691.36
507.50	698.01
507.86	704.76
508.22	711.63
508.59	718.32
508.95	724.93
509.31	731.58
509.67	738.28
510.03	744.71
510.39	751.48
510.75	757.96
511.12	764.35
511.48	770.80
511.84	777.08
512.20	783.29
512.56	789.67
512.92	795.99
513.28	801.79
513.64	807.61
514.00	813.36
514.37	819.20
514.73	825.10
515.09	830.95
515.45	836.62
515.81	841.93
516.17	847.36
516.53	852.60
516.89	857.59
517.25	862.53
517.61	867.28
517.97	872.00
518.33	876.52
518.69	880.92
519.05	885.30
519.41	889.63
519.77	894.37
520.13	898.17
520.49	902.05
520.85	905.89
521.21	909.98
521.57	914.01
521.93	917.40
522.29	921.12
522.65	924.51
523.01	928.02
523.37	931.30
523.73	934.60
524.09	937.93
524.45	941.31
524.81	944.55
525.17	948.45
525.53	951.66
525.89	955.08
526.25	958.21
526.61	960.86
526.97	963.66
527.33	966.24
527.68	969.30
528.04	972.20
528.40	974.76
528.76	977.44
529.12	980.25
529.48	983.61
529.84	986.05
530.20	988.74
530.56	991.29
530.91	994.39
531.27	997.26
531.63	999.94
531.99	1002.47
532.35	1004.92
532.71	1007.02
533.07	1009.71
533.42	1012.50
533.78	1015.14
534.14	1018.01
534.50	1020.25
534.86	1022.96
535.21	1025.02
535.57	1027.65
535.93	1030.02
536.29	1032.28
536.65	1034.45
537.00	1036.23
537.36	1038.18
537.72	1040.27
538.08	1042.42
538.44	1044.53
538.79	1046.87
539.15	1048.91
539.51	1051.30
539.87	1053.54
540.22	1055.75
540.58	1058.16
540.94	1059.85
541.29	1061.63
541.65	1063.07
542.01	1065.16
542.37	1066.87
542.72	1068.84
543.08	1070.51
543.44	1072.71
543.79	1074.42
544.15	1076.16
544.51	1078.43
544.87	1080.73
545.22	1082.70
545.58	1084.55
545.94	1085.82
546.29	1086.84
546.65	1087.95
547.01	1089.00
547.36	1090.45
547.72	1091.64
548.07	1092.57
548.43	1093.71
548.79	1094.70
549.14	1096.21
549.50	1097.33
549.86	1098.16
550.21	1099.23
550.57	1100.57
550.92	1101.32
551.28	1102.36
551.64	1103.32
551.99	1104.23
552.35	1105.05
552.70	1105.66
553.06	1106.50
553.41	1107.54
553.77	1108.75
554.13	1110.14
554.48	1111.37
554.84	1112.52
555.19	1113.50
555.55	1114.61
555.90	1115.49
556.26	1116.51
556.61	1117.18
556.97	1117.90
557.32	1119.01
557.68	1119.66
558.03	1120.03
558.39	1120.68
558.74	1121.15
559.10	1121.74
559.45	1122.29
559.81	1122.88
560.16	1123.27
560.52	1123.81
560.87	1124.38
561.23	1124.48
561.58	1125.09
561.94	1125.25
562.29	1125.05
562.64	1125.45
563.00	1125.51
563.35	1126.08
563.71	1126.77
564.06	1127.13
564.42	1127.84
564.77	1128.53
565.12	1129.34
565.48	1130.30
565.83	1130.85
566.19	1131.77
566.54	1132.06
566.89	1132.26
567.25	1132.81
567.60	1133.65
567.96	1134.23
568.31	1134.87
568.66	1135.51
569.02	1135.32
569.37	1135.18
569.72	1135.40
570.08	1135.33
570.43	1134.95
570.78	1134.57
571.14	1134.08
571.49	1133.62
571.84	1132.99
572.20	1131.74
572.55	1130.95
572.90	1129.69
573.26	1128.32
573.61	1126.91
573.96	1125.72
574.31	1124.19
574.67	1122.40
575.02	1120.47
575.37	1118.43
575.72	1116.19
576.08	1114.43
576.43	1112.51
576.78	1110.58
577.13	1108.84
577.49	1106.98
577.84	1105.24
578.19	1103.40
578.54	1101.65
578.90	1100.00
579.25	1097.97
579.60	1095.71
579.95	1093.23
580.30	1090.95
580.66	1089.12
581.01	1086.86
581.36	1084.54
581.71	1082.22
582.06	1080.16
582.42	1077.83
582.77	1075.18
583.12	1072.82
583.47	1070.48
583.82	1067.98
584.17	1065.51
584.53	1063.12
584.88	1060.27
585.23	1057.76
585.58	1054.85
585.93	1052.13
586.28	1049.47
586.63	1046.80
586.98	1044.60
587.34	1042.24
587.69	1039.52
588.04	1036.91
588.39	1034.42
588.74	1031.67
589.09	1029.23
589.44	1025.87
589.79	1023.27
590.14	1020.81
590.49	1017.97
590.84	1014.94
591.19	1012.59
591.54	1009.98
591.89	1006.69
592.25	1004.29
592.60	1000.97
592.95	997.90
593.30	994.46
593.65	990.95
594.00	987.36
594.35	985.18
594.70	981.79
595.05	978.68
595.40	975.45
595.75	972.07
596.10	968.90
596.45	965.70
596.80	963.00
597.15	960.07
597.50	956.67
597.85	953.63
598.19	950.24
598.54	946.73
598.89	943.49
599.24	940.61
599.59	937.18
599.94	934.35
600.29	931.29
600.64	928.18
600.99	925.05
601.34	922.45
601.69	918.19
602.04	914.95
602.39	911.76
602.74	908.54
603.08	905.50
603.43	902.59
603.78	899.25
604.13	895.87
604.48	892.73
604.83	890.09
605.18	887.16
605.53	883.95
605.87	880.79
606.22	877.75
606.57	874.08
606.92	870.57
607.27	867.01
607.62	863.70
607.96	860.61
608.31	857.75
608.66	854.22
609.01	850.62
609.36	847.25
609.70	843.72
610.05	840.04
610.40	836.48
610.75	832.67
611.10	829.32
611.44	825.68
611.79	821.81
612.14	817.92
612.49	813.79
612.83	810.30
613.18	806.55
613.53	802.72
613.88	799.00
614.22	795.36
614.57	791.72
614.92	788.03
615.27	784.19
615.61	780.28
615.96	776.64
616.31	773.35
616.65	770.08
617.00	766.62
617.35	763.10
617.70	759.49
618.04	755.82
618.39	751.93
618.74	748.36
619.08	744.58
619.43	741.07
619.78	737.90
620.12	734.50
620.47	730.94
620.82	727.19
621.16	723.60
621.51	720.20
621.85	716.63
622.20	713.16
622.55	709.53
622.89	705.91
623.24	702.44
623.59	698.48
623.93	694.70
624.28	691.19
624.62	688.14
624.97	684.71
625.32	681.36
625.66	678.16
626.01	674.71
626.35	671.45
626.70	667.98
627.04	664.61
627.39	661.28
627.73	658.19
628.08	655.40
628.43	652.37
628.77	649.01
629.12	645.78
629.46	642.63
629.81	639.51
630.15	636.58
630.50	633.34
630.84	630.32
631.19	627.29
631.53	624.30
631.88	620.82
632.22	617.67
632.57	615.04
632.91	611.96
633.26	609.19
633.60	606.25
633.95	603.46
634.29	600.44
634.64	597.63
634.98	594.46
635.32	591.42
635.67	588.76
636.01	586.11
636.36	583.55
636.70	580.94
637.05	578.34
637.39	575.61
637.73	573.20
638.08	571.00
638.42	568.67
638.77	566.20
639.11	563.72
639.45	561.29
639.80	558.32
640.14	555.67
640.49	553.01
640.83	550.46
641.17	547.78
641.52	545.26
641.86	542.52
642.20	540.07
642.55	537.33
642.89	534.52
643.23	531.73
643.58	529.37
643.92	526.71
644.26	524.20
644.61	521.69
644.95	519.13
645.29	516.42
645.64	513.86
645.98	511.21
646.32	508.68
646.66	505.95
647.01	503.55
647.35	501.36
647.69	498.90
648.04	496.56
648.38	494.21
648.72	491.77
649.06	489.39
649.41	487.11
649.75	484.82
650.09	482.57
650.43	480.36
650.78	477.82
651.12	475.38
651.46	473.02
651.80	470.77
652.14	468.43
652.49	466.24
652.83	463.75
653.17	461.29
653.51	459.04
653.85	457.18
654.20	455.07
654.54	452.64
654.88	450.41
655.22	448.19
655.56	445.85
655.90	443.62
656.25	441.32
656.59	439.07
656.93	437.02
657.27	435.04
657.61	432.90
657.95	430.77
658.29	428.68
658.64	426.85
658.98	424.63
659.32	422.30
659.66	420.10
660.00	418.08
660.34	416.18
660.68	414.20
661.02	411.90
661.36	409.87
661.70	408.02
662.05	406.08
662.39	404.22
662.73	402.72
663.07	401.05
663.41	399.40
663.75	397.54
664.09	395.65
664.43	393.73
664.77	391.94
665.11	390.20
665.45	388.55
665.79	386.76
666.13	385.12
666.47	383.60
666.81	382.03
667.15	380.33
667.49	378.82
667.83	377.34
668.17	375.81
668.51	374.30
668.85	372.78
669.19	371.37
669.53	369.63
669.87	367.84
670.21	366.37
670.55	364.83
670.89	363.62
671.23	362.32
671.57	360.88
671.91	359.59
672.25	358.20
672.58	356.92
672.92	355.52
673.26	354.29
673.60	353.03
673.94	351.65
674.28	350.46
674.62	349.23
674.96	347.90
675.30	346.69
675.64	345.37
675.97	344.06
676.31	342.79
676.65	341.69
676.99	340.67
677.33	339.30
677.67	338.18
678.01	336.66
678.34	335.43
678.68	334.37
679.02	333.14
679.36	331.95
679.70	330.74
680.04	329.57
680.37	328.37
680.71	327.26
681.05	326.24
681.39	325.10
681.73	323.98
682.06	322.94
682.40	321.85
682.74	320.85
683.08	319.94
683.42	318.88
683.75	317.95
684.09	316.76
684.43	315.79
684.77	314.73
685.10	313.83
685.44	312.77
685.78	311.68
686.12	310.76
686.45	309.78
686.79	308.73
687.13	307.84
687.46	306.81
687.80	305.97
688.14	304.99
688.48	304.12
688.81	303.12
689.15	302.30
689.49	301.37
689.82	300.45
690.16	299.42
690.50	298.48
690.83	297.59
691.17	296.70
691.51	295.74
691.84	294.84
692.18	294.08
692.52	293.20
692.85	292.52
693.19	291.72
693.52	290.90
693.86	290.05
694.20	289.17
694.53	288.43
694.87	287.35
695.21	286.42
695.54	285.52
695.88	284.65
696.21	283.67
696.55	282.91
696.88	282.05
697.22	281.24
697.56	280.48
697.89	279.67
698.23	278.84
698.56	278.15
698.90	277.49
699.23	276.63
699.57	275.98
699.90	275.09
700.24	274.30
700.58	273.55
700.91	273.02
701.25	272.58
701.58	272.00
701.92	271.53
702.25	270.90
702.59	270.25
702.92	269.67
703.26	269.02
703.59	268.40
703.93	268.15
704.26	267.53
704.60	266.98
704.93	266.31
705.26	265.74
705.60	265.18
705.93	264.47
706.27	264.11
706.60	263.61
706.94	263.25
707.27	262.66
707.61	262.19
707.94	261.47
708.27	260.73
708.61	260.12
708.94	259.58
709.28	259.15
709.61	258.64
709.94	258.17
710.28	257.70
710.61	257.27
710.95	256.39
711.28	256.16
711.61	255.71
711.95	255.31
712.28	254.80
712.61	254.35
712.95	254.14
713.28	253.76
713.61	253.18
713.95	252.63
714.28	252.28
714.61	251.80
714.95	251.46
715.28	251.03
715.61	250.59
715.95	250.13
716.28	249.70
716.61	249.32
716.95	248.82
717.28	248.42
717.61	248.04
717.94	247.73
718.28	247.14
718.61	246.73
718.94	246.33
719.27	246.01
719.61	245.60
719.94	245.13
720.27	244.63
720.60	244.36
720.94	243.97
721.27	243.60
721.60	243.38
721.93	242.98
722.27	242.67
722.60	242.46
722.93	242.10
723.26	241.84
723.59	241.52
723.93	241.28
724.26	241.03
724.59	240.63
724.92	240.40
725.25	240.23
725.59	239.89
725.92	239.67
726.25	239.43
726.58	239.22
726.91	238.94
727.24	238.65
727.57	238.34
727.91	238.07
728.24	237.80
728.57	237.47
728.90	237.30
729.23	237.00
729.56	236.91
729.89	236.76
730.22	236.41
730.55	236.15
730.89	235.87
731.22	235.59
731.55	235.38
731.88	235.15
732.21	234.81
732.54	234.53
732.87	234.26
733.20	234.05
733.53	233.86
733.86	233.62
734.19	233.37
734.52	233.25
734.85	233.27
735.18	233.03
735.51	232.91
735.84	232.70
736.17	232.59
736.50	232.15
736.83	232.31
737.16	232.22
737.49	231.98
737.82	231.74
738.15	231.52
738.48	231.32
738.81	231.03
739.14	230.79
739.47	230.70
739.80	230.49
740.13	230.34
740.46	229.99
740.79	229.77
741.12	229.61
741.45	229.29
741.78	228.98
742.11	228.91
742.44	228.68
742.77	228.57
743.10	228.29
743.43	228.09
743.75	227.52
744.08	227.79
744.41	227.63
744.74	227.47
745.07	227.20
745.40	227.09
745.73	227.10
746.06	226.93
746.39	226.73
746.71	226.54
747.04	226.39
747.37	226.27
747.70	226.08
748.03	225.93
748.36	225.93
748.68	225.69
749.01	225.43
749.34	225.26
749.67	225.10
750.00	225.04
750.33	225.20
750.65	225.14
750.98	224.49
751.31	224.34
751.64	224.27
751.97	224.49
752.29	224.30
752.62	223.99
752.95	223.82
753.28	223.69
753.60	223.57
753.93	223.35
754.26	223.28
754.59	223.10
754.91	222.92
755.24	222.74
755.57	222.59
755.90	222.44
756.22	222.33
756.55	222.16
756.88	221.98
757.20	221.56
757.53	221.31
757.86	221.21
758.19	221.17
758.51	221.03
758.84	220.66
759.17	220.55
759.49	220.57
759.82	220.68
760.15	220.58
760.47	220.53
760.80	220.40
761.13	220.31
761.45	220.22
761.78	220.12
762.11	220.00
762.43	219.91
762.76	219.77
763.08	219.64
763.41	219.58
763.74	219.44
764.06	219.41
764.39	219.36
764.71	219.28
765.04	219.16
765.37	219.07
765.69	219.02
766.02	218.98
766.34	218.84
766.67	218.65
767.00	218.68
767.32	218.73
767.65	218.90
767.97	218.78
768.30	218.75
768.62	218.70
768.95	218.65
769.27	218.58
769.60	218.57
769.92	218.48
770.25	218.36
770.57	218.25
770.90	218.13
771.22	218.05
771.55	217.99
771.87	217.93
772.20	217.83
772.52	218.06
772.85	218.42
773.17	218.31
773.50	218.23
773.82	218.07
774.15	217.90
774.47	217.62
774.80	217.59
775.12	217.51
775.45	217.50
775.77	217.46
776.09	217.47
776.42	217.46
776.74	217.45
777.07	217.34
777.39	217.29
777.72	217.21
778.04	217.20
778.36	217.08
778.69	217.03
779.01	217.00
779.33	216.58
779.66	216.07
779.98	215.99
780.31	215.94
780.63	216.06
780.95	216.00
781.28	215.93
781.60	215.83
781.92	215.76
782.25	215.67
782.57	215.60
782.89	215.52
783.22	215.49
783.54	215.45
783.86	215.53
784.19	215.58
784.51	215.73
784.83	215.62
785.16	215.65
785.48	215.63
785.80	215.63
786.12	215.63
786.45	215.64
786.77	215.64
787.09	215.60
787.42	215.39
787.74	215.37
788.06	215.46
788.38	215.42
788.71	215.38
789.03	215.34
789.35	215.23
789.67	215.08
789.99	215.09
790.32	215.03
790.64	215.00
790.96	215.20
791.28	215.03
791.61	215.05
791.93	214.99
792.25	215.01
792.57	215.29
792.89	215.22
793.21	215.25
793.54	215.23
793.86	215.17
794.18	215.20
794.50	215.20
794.82	215.18
795.14	215.20
795.47	215.28
795.79	215.27
796.11	215.34
796.43	215.42
796.75	215.34
797.07	215.33
797.39	215.26
797.71	214.94
798.04	214.86
798.36	214.82
798.68	214.76
799.00	214.70
799.32	214.43
799.64	214.50
799.96	214.38
800.28	214.40
800.60	214.40
800.92	214.43
801.24	214.34
801.56	214.23
801.89	214.17
802.21	214.11
802.53	214.00
802.85	213.98
803.17	214.12
803.49	213.97
803.81	213.93
804.13	213.87
804.45	213.83
804.77	213.81
805.09	213.73
805.41	213.67
805.73	213.62
806.05	213.53
806.37	213.44
806.69	213.33
807.01	213.30
807.33	213.20
807.65	213.04
807.97	213.15
808.28	213.05
808.60	213.05
808.92	213.01
809.24	213.19
809.56	213.13
809.88	212.96
810.20	212.99
810.52	213.05
810.84	212.95
811.16	212.92
811.48	212.95
811.80	213.04
812.12	213.00
812.43	213.00
812.75	212.96
813.07	212.97
813.39	213.01
813.71	212.97
814.03	212.94
814.35	212.93
814.67	212.76
814.98	212.81
815.30	212.72
815.62	212.64
815.94	212.48
816.26	212.41
816.58	212.35
816.89	212.42
817.21	212.34
817.53	212.42
817.85	212.42
818.17	212.39
818.48	212.25
818.80	212.30
819.12	212.25
819.44	212.20
819.76	212.09
820.07	212.14
820.39	212.12
820.71	212.20
821.03	212.26
821.34	212.30
821.66	212.30
821.98	212.34
822.30	212.35
822.61	212.51
822.93	212.52
823.25	212.47
823.57	212.41
823.88	212.45
824.20	212.38
824.52	212.49
824.83	212.48
825.15	212.50
825.47	212.47
825.79	212.48
826.10	212.47
826.42	212.51
826.74	212.55
827.05	212.51
827.37	212.50
827.69	212.41
828.00	212.42
828.32	212.44
828.64	212.41
828.95	212.60
829.27	212.55
829.58	212.49
829.90	212.52
830.22	212.52
830.53	212.41
830.85	212.41
831.17	212.30
831.48	212.26
831.80	212.23
832.11	212.24
832.43	212.19
832.75	212.16
833.06	212.35
833.38	212.25
833.69	212.21
834.01	212.22
834.32	212.20
834.64	212.17
834.96	212.14
835.27	212.10
835.59	211.98
835.90	211.85
836.22	211.89
836.53	211.86
836.85	211.81
837.16	212.13
837.48	212.10
837.79	212.24
838.11	212.25
838.42	212.32
838.74	212.35
839.05	212.32
839.37	212.32
839.68	212.08
840.00	212.06
840.31	212.17
840.63	212.05
840.94	212.03
841.26	211.95
841.57	211.89
841.88	211.98
842.20	211.92
842.51	211.93
842.83	211.90
843.14	212.24
843.46	212.26
843.77	212.06
844.08	212.03
844.40	211.89
844.71	211.90
845.03	211.78
845.34	211.74
845.65	211.71
845.97	211.77
846.28	211.83
846.60	211.85
846.91	211.76
847.22	211.87
847.54	211.92
847.85	211.97
848.16	212.00
848.48	211.91
848.79	212.00
849.10	212.02
849.42	212.05
849.73	211.70
850.04	211.73
850.36	211.60
850.67	211.68
850.98	211.69
851.30	211.68
851.61	211.78
851.92	211.77
852.23	211.85
852.55	211.87
852.86	211.85
853.17	211.87
853.49	211.90
853.80	211.93
854.11	211.94
854.42	211.96
854.74	211.91
855.05	211.93
855.36	211.74
855.67	211.79
855.99	211.84
856.30	212.30
856.61	212.25
856.92	212.29
857.23	212.28
857.55	212.26
857.86	212.26
858.17	212.21
858.48	212.21
858.79	212.23
859.11	212.22
859.42	212.18
859.73	212.10
860.04	212.14
860.35	212.08
860.66	211.98
860.98	212.03
861.29	212.17
861.60	212.17
861.91	212.27
862.22	212.22
862.53	212.10
862.84	211.61
863.16	211.71
863.47	211.60
863.78	211.63
864.09	211.63
864.40	211.62
864.71	211.69
865.02	211.65
865.33	211.52
865.64	211.47
865.95	211.50
866.27	211.74
866.58	211.68
866.89	211.73
867.20	211.76
867.51	211.66
867.82	211.53
868.13	211.60
868.44	211.51
868.75	211.50
869.06	211.55
869.37	211.55
869.68	211.41
869.99	211.59
870.30	211.61
870.61	211.58
870.92	211.56
871.23	211.48
871.54	211.56
871.85	211.70
872.16	211.72
872.47	211.62
872.78	211.41
873.09	211.46
873.40	211.30
873.71	211.30
874.02	211.29
874.33	211.23
874.64	211.19
874.95	211.24
875.26	211.15
875.56	211.07
875.87	211.07
876.18	211.12
876.49	211.38
876.80	211.34
877.11	211.34
877.42	211.38
877.73	211.39
878.04	211.30
878.35	211.25
878.66	211.28
878.96	211.36
879.27	211.31
879.58	211.33
879.89	211.36
880.20	211.50
880.51	211.51
880.82	211.60
881.12	211.66
881.43	211.61
881.74	211.61
882.05	211.62
882.36	211.67
882.67	211.64
882.97	211.23
883.28	211.15
883.59	211.15
883.90	211.11
884.21	211.18
884.51	211.21
884.82	211.20
885.13	211.19
885.44	211.11
885.74	211.08
886.05	211.01
886.36	211.05
886.67	210.85
886.98	210.98
887.28	211.00
887.59	210.96
887.90	211.04
888.20	211.03
888.51	211.05
888.82	211.05
889.13	211.09
889.43	211.35
889.74	211.38
890.05	211.38
890.35	211.38
890.66	211.28
890.97	211.22
891.28	211.21
891.58	211.21
891.89	211.27
892.20	211.30
892.50	211.27
892.81	211.25
893.12	211.26
893.42	211.15
893.73	211.12
894.04	211.07
894.34	211.09
894.65	211.10
894.95	211.10
895.26	211.12
895.57	211.26
895.87	211.02
896.18	211.02
896.48	211.02
896.79	211.03
897.10	211.17
897.40	211.18
897.71	211.19
898.01	211.10
898.32	211.16
898.63	211.16
898.93	211.20
899.24	211.25
899.54	211.27
899.85	211.24
900.15	211.28
900.46	211.32
900.76	211.33
901.07	211.34
901.38	211.41
901.68	211.42
901.99	211.28
902.29	211.28
902.60	211.28
902.90	211.30
903.21	211.30
903.51	211.19
903.82	211.33
904.12	211.34
904.43	211.40
904.73	211.40
905.03	211.46
905.34	211.75
905.64	211.69
905.95	211.69
906.25	211.61
906.56	211.61
906.86	211.61
907.17	211.56
907.47	211.55
907.77	211.43
908.08	211.32
908.38	211.31
908.69	211.36
908.99	211.44
909.30	211.44
909.60	211.40
909.90	211.45
910.21	211.29
910.51	211.26
910.81	211.35
911.12	211.32
911.42	211.25
911.73	210.90
912.03	210.94
912.33	211.05
912.64	211.02
912.94	211.00
913.24	211.01
913.55	210.94
913.85	210.93
914.15	211.04
914.46	211.12
914.76	211.12
915.06	211.09
915.37	211.03
915.67	211.02
915.97	211.02
916.27	210.94
916.58	211.04
916.88	211.01
917.18	210.90
917.49	211.09
917.79	211.10
918.09	211.18
918.39	211.28
918.70	211.26
919.00	211.34
919.30	211.45
919.60	211.32
919.91	211.34
920.21	211.37
920.51	211.32
920.81	211.36
921.12	211.40
921.42	211.42
921.72	211.50
922.02	211.52
922.32	211.57
922.63	211.60
922.93	211.68
923.23	211.73
923.53	211.71
923.83	211.49
924.13	211.52
924.44	211.55
924.74	211.58
925.04	211.58
925.34	211.62
925.64	211.50
925.94	211.49
926.24	211.61
926.55	211.63
926.85	211.72
927.15	211.65
927.45	211.62
927.75	211.59
928.05	211.53
928.35	211.50
928.65	211.51
928.95	211.52
929.26	211.46
929.56	211.51
929.86	211.56
930.16	211.52
930.46	211.48
930.76	211.43
931.06	211.24
931.36	211.21
931.66	211.19
931.96	211.18
932.26	211.23
932.56	211.16
932.86	211.13
933.16	211.12
933.46	211.07
933.76	211.01
934.06	211.09
934.36	211.17
934.66	211.17
934.96	211.17
935.26	211.19
935.56	211.18
935.86	211.12
936.16	211.10
936.46	211.12
936.76	211.17
937.06	211.13
937.36	211.15
937.66	211.11
937.96	211.08
938.26	211.02
938.56	211.05
938.86	211.06
939.16	211.10
939.46	211.04
939.76	211.13
940.06	211.10
940.35	211.00
940.65	210.81
940.95	210.77
941.25	210.78
941.55	210.66
941.85	210.62
942.15	210.67
942.45	210.71
942.75	210.64
943.04	210.62
943.34	210.72
943.64	210.75
943.94	210.76
944.24	210.77
944.54	210.84
944.84	210.76
945.13	210.76
945.43	210.76
945.73	210.83
946.03	210.75
946.33	210.70
946.62	210.69
946.92	210.70
947.22	210.80
947.52	210.73
947.82	210.86
948.11	210.85
948.41	210.85
948.71	210.75
949.01	210.83
949.31	210.84
949.60	210.80
949.90	210.87
950.20	210.83
950.50	210.82
950.79	210.82
951.09	210.93
951.39	210.86
951.69	210.81
951.98	210.83
952.28	210.86
952.58	210.92
952.87	210.93
953.17	211.04
953.47	210.95
953.76	210.98
954.06	210.87
954.36	210.85
954.66	210.79
954.95	210.93
955.25	210.99
955.55	211.00
955.84	210.94
956.14	210.89
956.44	210.95
956.73	210.90
957.03	210.86
957.32	210.83
957.62	210.87
957.92	210.87
958.21	210.79
958.51	211.28
958.81	211.34
959.10	211.40
959.40	211.43
959.69	211.50
959.99	211.56
960.29	211.57
960.58	211.55
960.88	211.70
961.17	211.65
961.47	211.65
961.76	211.59
962.06	211.63
962.36	211.65
962.65	211.64
962.95	211.70
963.24	211.70
963.54	211.74
963.83	211.75
964.13	211.83
964.42	211.83
964.72	211.42
965.01	211.49
965.31	211.48
965.60	211.40
965.90	211.57
966.19	211.48
966.49	211.60
966.78	211.67
967.08	211.66
967.37	211.72
967.67	211.63
967.96	211.70
968.26	211.71
968.55	211.77
968.85	211.78
969.14	211.72
969.43	211.79
969.73	211.75
970.02	211.74
970.32	211.65
970.61	211.62
970.91	211.62
971.20	211.54
971.49	211.53
971.79	211.60
972.08	211.35
972.38	211.37
972.67	211.35
972.96	211.32
973.26	211.25
973.55	211.29
973.85	211.36
974.14	211.35
974.43	211.34
974.73	211.22
975.02	211.23
975.31	211.24
975.61	211.20
975.90	211.23
976.19	211.19
976.49	211.27
976.78	211.29
977.07	211.23
977.37	211.23
977.66	211.23
977.95	211.16
978.24	211.20
978.54	211.35
978.83	211.31
979.12	211.32
979.42	211.26
979.71	211.17
980.00	211.11
980.29	211.10
980.59	211.05
980.88	211.19
981.17	211.16
981.46	211.17
981.76	211.16
982.05	211.21
982.34	211.25
982.63	211.23
982.93	211.24
983.22	211.29
983.51	211.25
983.80	211.26
984.09	211.36
984.39	211.34
984.68	211.19
984.97	211.21
985.26	211.14
985.55	211.13
985.85	211.08
986.14	211.09
986.43	211.14
986.72	211.21
987.01	211.06
987.30	211.05
987.59	211.03
987.89	210.98
988.18	210.87
988.47	210.79
988.76	210.80
989.05	210.68
989.34	210.69
989.63	210.78
989.92	210.79
990.22	210.64
990.51	210.64
990.80	210.70
991.09	210.70
991.38	210.74
991.67	210.75
991.96	210.69
992.25	210.74
992.54	210.65
992.83	210.59
993.12	210.56
993.41	210.55
993.70	210.68
993.99	210.83
994.28	210.85
994.58	210.92
994.87	210.86
995.16	210.97
995.45	210.96
995.74	210.90
996.03	210.87
996.32	210.95
996.61	211.01
996.90	210.87
997.19	210.77
997.48	210.76
997.77	210.75
998.06	210.80
998.34	210.75
998.63	210.76
998.92	210.74
999.21	210.88
999.50	210.95
999.79	210.85
1000.08	210.80
1000.37	210.81
1000.66	210.81
1000.95	210.95
1001.24	210.94
1001.53	210.93
1001.82	210.91
1002.11	210.87
1002.40	210.93
1002.68	210.94
1002.97	211.30
1003.26	211.33
1003.55	211.36
1003.84	211.38
1004.13	211.55
1004.42	211.54
1004.71	211.60
1004.99	211.62
1005.28	211.66
1005.57	211.61
1005.86	211.62
1006.15	211.60
1006.44	211.56
1006.72	211.56
1007.01	211.51
1007.30	211.50
1007.59	211.49
1007.88	211.49
1008.17	211.51
1008.45	211.40
1008.74	211.29
1009.03	211.12
1009.32	211.20
1009.60	211.22
1009.89	211.21
1010.18	211.06
1010.47	211.09
1010.76	211.04
1011.04	211.07
1011.33	211.05
1011.62	211.09
1011.91	211.11
1012.19	211.13
1012.48	211.14
1012.77	211.20
1013.05	211.28
1013.34	211.29
1013.63	211.31
1013.92	211.34
1014.20	211.31
1014.49	211.40
1014.78	211.49
1015.06	211.38
1015.35	211.29
1015.64	211.36
1015.92	211.40
1016.21	211.42
1016.50	211.45
1016.78	211.52
1017.07	211.53
1017.36	211.48
1017.64	211.47
1017.93	211.51
1018.22	211.48
1018.50	211.53
1018.79	211.50
1019.08	211.42
1019.36	211.47
1019.65	211.45
1019.93	211.55
1020.22	211.73
1020.51	211.83
1020.79	211.82
1021.08	210.50
1021.36	211.45
1021.65	211.80
1021.94	211.85
1022.22	211.65
1022.51	211.50
1022.79	213.05
1023.08	213.50
1023.36	215.00
1023.65	210.80
>>>>>End Processed Spectral Data<<<<<
