SpectraSuite Data File
++++++++++++++++++++++++++++++++++++
Date: Mon Feb 25 17:10:48 EST 2013
User: group
Dark Spectrum Present: No
Reference Spectrum Present: No
Number of Sampled Component Spectra: 1
Spectrometers: USB2E7196
Integration Time (usec): 104000 (USB2E7196)
Spectra Averaged: 20 (USB2E7196)
Boxcar Smoothing: 10 (USB2E7196)
Correct for Electrical Dark: No (USB2E7196)
Strobe/Lamp Enabled: No (USB2E7196)
Correct for Detector Non-linearity: No (USB2E7196)
Correct for Stray Light: No (USB2E7196)
Number of Pixels in Processed Spectrum: 2048
>>>>>Begin Processed Spectral Data<<<<<
339.09	0.00
339.48	198.10
339.86	200.40
340.24	201.15
340.63	203.60
341.01	209.55
341.39	205.05
341.78	208.55
342.16	209.55
342.54	209.30
342.93	198.38
343.31	208.38
343.69	208.89
344.07	209.40
344.46	209.92
344.84	210.33
345.22	210.39
345.60	210.71
345.99	210.88
346.37	210.92
346.75	210.97
347.13	211.11
347.52	211.27
347.90	211.51
348.28	211.55
348.66	211.69
349.05	211.51
349.43	211.58
349.81	211.65
350.19	211.74
350.57	211.79
350.96	211.89
351.34	212.02
351.72	212.15
352.10	212.17
352.48	212.14
352.87	212.13
353.25	212.25
353.63	212.22
354.01	212.25
354.39	212.34
354.77	212.46
355.15	212.59
355.54	212.59
355.92	212.49
356.30	212.53
356.68	212.78
357.06	212.95
357.44	212.85
357.82	212.88
358.20	212.97
358.58	212.96
358.97	213.00
359.35	213.04
359.73	213.18
360.11	213.25
360.49	213.31
360.87	213.38
361.25	213.38
361.63	213.55
362.01	213.55
362.39	213.57
362.77	213.56
363.15	213.53
363.53	213.53
363.91	213.60
364.29	213.65
364.67	213.26
365.05	213.22
365.43	213.27
365.81	213.34
366.19	213.48
366.57	213.58
366.95	213.55
367.33	213.53
367.71	213.51
368.09	213.56
368.47	213.53
368.85	213.48
369.23	213.48
369.61	213.31
369.99	213.45
370.37	213.42
370.75	213.57
371.13	213.40
371.51	213.31
371.89	213.24
372.27	213.16
372.65	213.17
373.03	213.10
373.41	213.02
373.78	212.87
374.16	212.54
374.54	212.33
374.92	212.28
375.30	212.24
375.68	212.11
376.06	212.06
376.44	211.99
376.82	211.94
377.19	211.93
377.57	211.87
377.95	211.62
378.33	211.57
378.71	211.36
379.09	211.43
379.47	211.42
379.84	211.41
380.22	211.36
380.60	211.21
380.98	211.16
381.36	211.10
381.73	211.10
382.11	211.15
382.49	211.18
382.87	211.07
383.25	210.95
383.62	211.32
384.00	211.20
384.38	211.15
384.76	211.22
385.13	211.29
385.51	211.28
385.89	211.20
386.27	211.17
386.64	211.20
387.02	211.07
387.40	211.09
387.78	211.05
388.15	211.06
388.53	211.11
388.91	211.11
389.29	211.10
389.66	211.10
390.04	211.11
390.42	211.20
390.79	211.15
391.17	211.22
391.55	210.82
391.92	210.79
392.30	210.78
392.68	210.66
393.05	210.65
393.43	210.66
393.81	210.65
394.18	210.63
394.56	210.55
394.94	210.69
395.31	210.67
395.69	210.74
396.06	210.77
396.44	210.81
396.82	210.82
397.19	211.03
397.57	211.02
397.95	211.05
398.32	210.95
398.70	211.02
399.07	211.10
399.45	211.07
399.82	211.09
400.20	211.10
400.58	211.10
400.95	210.95
401.33	211.07
401.70	211.47
402.08	211.52
402.45	211.57
402.83	211.69
403.20	211.66
403.58	211.70
403.95	211.82
404.33	211.85
404.71	211.92
405.08	212.11
405.46	212.19
405.83	212.25
406.21	212.34
406.58	212.49
406.96	212.47
407.33	212.59
407.70	212.74
408.08	213.19
408.45	213.43
408.83	213.70
409.20	213.78
409.58	213.71
409.95	213.94
410.33	214.14
410.70	214.27
411.08	214.60
411.45	214.82
411.82	215.03
412.20	215.44
412.57	215.87
412.95	215.90
413.32	216.26
413.69	216.55
414.07	216.99
414.44	217.43
414.82	217.95
415.19	218.51
415.56	219.00
415.94	219.36
416.31	219.90
416.68	220.53
417.06	221.27
417.43	222.08
417.81	222.84
418.18	223.66
418.55	224.49
418.93	225.38
419.30	226.21
419.67	227.14
420.04	228.10
420.42	229.07
420.79	230.52
421.16	231.79
421.54	233.30
421.91	234.62
422.28	235.95
422.66	237.35
423.03	238.96
423.40	240.49
423.77	242.04
424.15	243.63
424.52	245.25
424.89	247.07
425.26	248.63
425.64	250.35
426.01	252.21
426.38	254.10
426.75	256.10
427.13	258.05
427.50	260.07
427.87	262.21
428.24	264.40
428.61	266.28
428.99	268.58
429.36	270.91
429.73	273.28
430.10	275.73
430.47	278.26
430.85	280.62
431.22	283.39
431.59	286.45
431.96	289.15
432.33	292.16
432.70	295.04
433.08	298.60
433.45	301.85
433.82	305.08
434.19	308.79
434.56	312.39
434.93	315.86
435.30	319.35
435.68	323.05
436.05	326.78
436.42	330.49
436.79	333.98
437.16	337.69
437.53	341.48
437.90	345.27
438.27	349.09
438.64	353.05
439.01	356.53
439.38	359.54
439.75	362.73
440.13	366.36
440.50	369.70
440.87	372.36
441.24	375.17
441.61	378.25
441.98	380.46
442.35	383.07
442.72	385.84
443.09	388.55
443.46	390.14
443.83	391.17
444.20	392.13
444.57	393.36
444.94	393.95
445.31	394.83
445.68	395.86
446.05	396.17
446.42	395.72
446.79	395.56
447.16	395.10
447.53	394.89
447.90	393.48
448.27	392.07
448.64	390.21
449.01	388.77
449.37	386.37
449.74	383.99
450.11	381.28
450.48	378.12
450.85	374.76
451.22	372.06
451.59	369.48
451.96	366.90
452.33	363.55
452.70	360.50
453.07	356.69
453.43	352.59
453.80	348.92
454.17	345.62
454.54	342.31
454.91	338.82
455.28	335.35
455.65	332.10
456.02	329.45
456.38	326.72
456.75	323.43
457.12	320.58
457.49	317.84
457.86	315.01
458.23	312.76
458.59	310.28
458.96	307.75
459.33	305.45
459.70	303.26
460.07	301.52
460.43	299.43
460.80	297.54
461.17	296.01
461.54	294.24
461.91	292.55
462.27	290.80
462.64	289.32
463.01	287.74
463.38	286.34
463.74	284.27
464.11	282.87
464.48	281.75
464.85	280.37
465.21	279.40
465.58	278.27
465.95	276.83
466.32	275.85
466.68	274.79
467.05	273.73
467.42	272.69
467.78	271.46
468.15	270.49
468.52	269.72
468.88	268.52
469.25	267.62
469.62	266.91
469.98	266.06
470.35	265.35
470.72	264.65
471.08	263.72
471.45	263.19
471.82	262.65
472.18	261.87
472.55	261.49
472.92	260.88
473.28	260.38
473.65	260.01
474.02	259.48
474.38	259.11
474.75	258.86
475.11	258.45
475.48	258.19
475.85	257.91
476.21	257.62
476.58	257.52
476.94	257.33
477.31	257.21
477.67	257.05
478.04	256.92
478.41	256.89
478.77	257.24
479.14	257.14
479.50	257.05
479.87	257.09
480.23	257.08
480.60	257.03
480.96	257.07
481.33	257.31
481.69	257.43
482.06	257.61
482.42	257.69
482.79	257.97
483.15	258.27
483.52	258.60
483.88	258.97
484.25	259.21
484.61	259.62
484.98	259.85
485.34	260.30
485.71	260.81
486.07	261.30
486.44	261.46
486.80	262.04
487.17	262.66
487.53	263.45
487.90	264.20
488.26	265.14
488.62	266.03
488.99	266.79
489.35	267.66
489.72	268.63
490.08	269.63
490.44	270.53
490.81	271.67
491.17	272.87
491.54	274.08
491.90	275.41
492.26	276.76
492.63	278.20
492.99	279.63
493.36	281.23
493.72	282.84
494.08	284.54
494.45	286.27
494.81	288.17
495.17	290.01
495.54	292.00
495.90	293.99
496.26	296.10
496.63	298.30
496.99	300.57
497.35	303.02
497.72	305.49
498.08	308.03
498.44	310.61
498.80	313.33
499.17	316.05
499.53	318.94
499.89	321.97
500.26	325.06
500.62	328.22
500.98	331.49
501.34	334.87
501.71	338.37
502.07	341.97
502.43	345.49
502.79	349.07
503.16	352.79
503.52	356.63
503.88	360.57
504.24	364.70
504.60	369.10
504.97	373.50
505.33	377.87
505.69	382.63
506.05	387.40
506.41	392.06
506.78	396.79
507.14	401.64
507.50	406.75
507.86	411.95
508.22	417.19
508.59	422.51
508.95	428.02
509.31	433.63
509.67	439.26
510.03	445.02
510.39	451.07
510.75	457.19
511.12	463.32
511.48	469.49
511.84	475.74
512.20	481.84
512.56	488.02
512.92	494.63
513.28	501.25
513.64	507.78
514.00	514.57
514.37	521.65
514.73	528.64
515.09	535.57
515.45	542.53
515.81	549.71
516.17	556.78
516.53	563.89
516.89	571.05
517.25	578.32
517.61	585.75
517.97	593.00
518.33	600.30
518.69	607.72
519.05	615.38
519.41	623.03
519.77	631.04
520.13	638.79
520.49	646.21
520.85	653.98
521.21	661.83
521.57	669.80
521.93	677.31
522.29	685.17
522.65	693.05
523.01	701.03
523.37	708.76
523.73	716.62
524.09	724.44
524.45	732.43
524.81	740.25
525.17	748.23
525.53	756.26
525.89	764.31
526.25	772.47
526.61	780.13
526.97	787.98
527.33	795.65
527.68	803.82
528.04	811.74
528.40	819.18
528.76	826.82
529.12	834.53
529.48	842.60
529.84	850.34
530.20	858.08
530.56	865.76
530.91	873.94
531.27	882.05
531.63	889.83
531.99	897.45
532.35	904.90
532.71	912.30
533.07	919.77
533.42	927.31
533.78	934.64
534.14	942.01
534.50	948.91
534.86	955.94
535.21	962.37
535.57	969.71
535.93	976.65
536.29	983.55
536.65	990.27
537.00	996.68
537.36	1003.10
537.72	1009.30
538.08	1015.36
538.44	1021.24
538.79	1027.24
539.15	1033.09
539.51	1039.06
539.87	1045.49
540.22	1051.40
540.58	1057.45
540.94	1063.02
541.29	1068.25
541.65	1073.50
542.01	1078.84
542.37	1084.05
542.72	1089.41
543.08	1094.13
543.44	1099.51
543.79	1104.09
544.15	1108.63
544.51	1113.43
544.87	1118.27
545.22	1122.79
545.58	1127.08
545.94	1131.12
546.29	1134.69
546.65	1138.34
547.01	1141.78
547.36	1145.15
547.72	1148.53
548.07	1151.50
548.43	1154.35
548.79	1157.22
549.14	1159.95
549.50	1162.75
549.86	1165.23
550.21	1167.52
550.57	1170.14
550.92	1171.78
551.28	1173.72
551.64	1175.80
551.99	1177.88
552.35	1179.46
552.70	1181.07
553.06	1182.79
553.41	1184.40
553.77	1186.02
554.13	1187.56
554.48	1189.28
554.84	1190.65
555.19	1191.59
555.55	1192.47
555.90	1193.32
556.26	1193.79
556.61	1194.60
556.97	1194.95
557.32	1195.50
557.68	1195.80
558.03	1195.84
558.39	1196.29
558.74	1197.29
559.10	1197.83
559.45	1198.07
559.81	1198.62
560.16	1198.67
560.52	1198.83
560.87	1198.76
561.23	1198.55
561.58	1198.82
561.94	1198.38
562.29	1197.77
562.64	1197.64
563.00	1197.36
563.35	1197.39
563.71	1198.05
564.06	1198.08
564.42	1198.09
564.77	1198.17
565.12	1198.15
565.48	1198.10
565.83	1197.81
566.19	1197.15
566.54	1196.09
566.89	1194.97
567.25	1194.03
567.60	1193.46
567.96	1192.39
568.31	1191.79
568.66	1191.00
569.02	1189.42
569.37	1187.84
569.72	1186.78
570.08	1185.11
570.43	1183.83
570.78	1182.08
571.14	1180.09
571.49	1178.13
571.84	1176.67
572.20	1174.49
572.55	1172.84
572.90	1170.44
573.26	1168.16
573.61	1165.63
573.96	1163.47
574.31	1161.08
574.67	1158.23
575.02	1155.38
575.37	1152.85
575.72	1149.73
576.08	1147.20
576.43	1144.70
576.78	1142.43
577.13	1139.97
577.49	1137.66
577.84	1135.09
578.19	1132.80
578.54	1130.44
578.90	1128.12
579.25	1125.23
579.60	1122.34
579.95	1119.08
580.30	1116.66
580.66	1114.41
581.01	1111.81
581.36	1108.93
581.71	1106.41
582.06	1104.11
582.42	1101.53
582.77	1098.60
583.12	1096.17
583.47	1093.30
583.82	1090.95
584.17	1088.40
584.53	1085.73
584.88	1082.98
585.23	1080.20
585.58	1077.27
585.93	1074.21
586.28	1071.50
586.63	1068.68
586.98	1066.35
587.34	1064.26
587.69	1061.52
588.04	1058.45
588.39	1055.90
588.74	1053.10
589.09	1050.32
589.44	1047.24
589.79	1044.74
590.14	1042.51
590.49	1039.53
590.84	1036.75
591.19	1033.95
591.54	1030.98
591.89	1027.73
592.25	1024.99
592.60	1021.80
592.95	1018.70
593.30	1015.43
593.65	1012.13
594.00	1009.06
594.35	1006.76
594.70	1003.39
595.05	1000.39
595.40	997.52
595.75	994.08
596.10	991.28
596.45	988.49
596.80	985.94
597.15	983.19
597.50	979.97
597.85	977.30
598.19	974.32
598.54	971.37
598.89	968.66
599.24	966.46
599.59	963.87
599.94	961.76
600.29	959.26
600.64	956.85
600.99	954.00
601.34	951.66
601.69	948.06
602.04	945.28
602.39	942.47
602.74	939.94
603.08	937.83
603.43	935.69
603.78	932.96
604.13	930.22
604.48	927.44
604.83	925.27
605.18	922.95
605.53	920.24
605.87	917.39
606.22	914.82
606.57	911.82
606.92	908.87
607.27	905.86
607.62	902.98
607.96	900.67
608.31	898.29
608.66	895.30
609.01	892.44
609.36	889.50
609.70	886.55
610.05	883.22
610.40	880.28
610.75	876.72
611.10	873.94
611.44	870.45
611.79	867.03
612.14	863.36
612.49	859.44
612.83	856.31
613.18	853.01
613.53	849.46
613.88	845.73
614.22	842.37
614.57	838.72
614.92	835.26
615.27	831.27
615.61	827.61
615.96	824.25
616.31	821.11
616.65	818.01
617.00	814.94
617.35	811.74
617.70	807.93
618.04	804.48
618.39	800.49
618.74	797.21
619.08	793.62
619.43	790.31
619.78	787.20
620.12	783.72
620.47	780.46
620.82	776.80
621.16	773.34
621.51	770.04
621.85	766.76
622.20	763.25
622.55	759.72
622.89	756.19
623.24	752.77
623.59	749.20
623.93	745.77
624.28	742.19
624.62	738.97
624.97	735.86
625.32	732.50
625.66	729.55
626.01	726.35
626.35	723.43
626.70	720.24
627.04	717.37
627.39	714.28
627.73	711.14
628.08	708.27
628.43	705.00
628.77	701.65
629.12	698.33
629.46	695.45
629.81	692.52
630.15	689.57
630.50	686.28
630.84	683.00
631.19	679.90
631.53	676.80
631.88	673.32
632.22	670.08
632.57	667.12
632.91	663.90
633.26	660.80
633.60	657.60
633.95	654.51
634.29	651.14
634.64	648.30
634.98	645.03
635.32	641.93
635.67	639.27
636.01	636.40
636.36	633.33
636.70	630.44
637.05	627.55
637.39	624.76
637.73	622.18
638.08	619.66
638.42	617.03
638.77	614.45
639.11	611.76
639.45	609.11
639.80	606.22
640.14	603.40
640.49	600.47
640.83	597.64
641.17	594.85
641.52	592.07
641.86	589.14
642.20	586.45
642.55	583.52
642.89	580.51
643.23	577.63
643.58	575.16
643.92	572.12
644.26	569.33
644.61	566.45
644.95	563.50
645.29	560.63
645.64	557.53
645.98	554.48
646.32	551.85
646.66	548.89
647.01	546.26
647.35	543.51
647.69	540.72
648.04	538.19
648.38	535.52
648.72	532.79
649.06	529.99
649.41	527.17
649.75	524.53
650.09	521.95
650.43	519.22
650.78	516.38
651.12	513.74
651.46	511.09
651.80	508.49
652.14	505.90
652.49	503.16
652.83	500.60
653.17	497.92
653.51	495.30
653.85	492.92
654.20	490.20
654.54	487.54
654.88	485.08
655.22	482.47
655.56	479.81
655.90	477.20
656.25	474.54
656.59	472.00
656.93	469.65
657.27	467.19
657.61	464.55
657.95	462.10
658.29	459.71
658.64	457.47
658.98	454.96
659.32	452.50
659.66	450.24
660.00	447.80
660.34	445.38
660.68	442.77
661.02	440.38
661.36	438.23
661.70	436.08
662.05	433.92
662.39	431.72
662.73	429.75
663.07	427.85
663.41	425.88
663.75	423.87
664.09	421.66
664.43	419.50
664.77	417.67
665.11	415.68
665.45	413.60
665.79	411.49
666.13	409.56
666.47	407.55
666.81	405.56
667.15	403.68
667.49	402.04
667.83	400.46
668.17	398.50
668.51	396.72
668.85	395.07
669.19	393.45
669.53	391.60
669.87	389.67
670.21	387.84
670.55	386.05
670.89	384.58
671.23	383.03
671.57	381.45
671.91	379.66
672.25	378.00
672.58	376.51
672.92	374.83
673.26	373.42
673.60	371.98
673.94	370.43
674.28	368.95
674.62	367.47
674.96	365.89
675.30	364.42
675.64	362.91
675.97	361.39
676.31	359.79
676.65	358.37
676.99	357.13
677.33	355.69
677.67	354.37
678.01	352.72
678.34	351.30
678.68	349.98
679.02	348.71
679.36	347.33
679.70	345.98
680.04	344.70
680.37	343.17
680.71	341.77
681.05	340.50
681.39	339.18
681.73	337.83
682.06	336.65
682.40	335.57
682.74	334.25
683.08	333.05
683.42	331.77
683.75	330.60
684.09	329.28
684.43	328.04
684.77	326.73
685.10	325.60
685.44	324.32
685.78	323.19
686.12	322.08
686.45	321.07
686.79	319.88
687.13	318.83
687.46	317.83
687.80	316.81
688.14	315.74
688.48	314.72
688.81	313.60
689.15	312.41
689.49	311.20
689.82	310.12
690.16	308.84
690.50	307.71
690.83	306.63
691.17	305.49
691.51	304.45
691.84	303.57
692.18	302.52
692.52	301.59
692.85	300.68
693.19	299.81
693.52	298.71
693.86	297.66
694.20	296.56
694.53	295.64
694.87	294.58
695.21	293.59
695.54	292.64
695.88	291.60
696.21	290.61
696.55	289.80
696.88	288.88
697.22	288.00
697.56	287.28
697.89	286.40
698.23	285.62
698.56	284.70
698.90	283.87
699.23	283.06
699.57	282.23
699.90	281.20
700.24	280.26
700.58	279.49
700.91	278.82
701.25	278.36
701.58	277.61
701.92	277.01
702.25	276.31
702.59	275.51
702.92	274.87
703.26	274.24
703.59	273.40
703.93	273.06
704.26	272.48
704.60	271.70
704.93	271.00
705.26	270.28
705.60	269.69
705.93	268.95
706.27	268.33
706.60	267.80
706.94	267.42
707.27	266.76
707.61	266.20
707.94	265.52
708.27	264.65
708.61	264.00
708.94	263.27
709.28	262.64
709.61	262.05
709.94	261.59
710.28	261.05
710.61	260.55
710.95	259.70
711.28	259.39
711.61	258.84
711.95	258.41
712.28	257.76
712.61	257.27
712.95	256.97
713.28	256.58
713.61	256.04
713.95	255.40
714.28	254.93
714.61	254.36
714.95	253.87
715.28	253.27
715.61	252.80
715.95	252.41
716.28	251.91
716.61	251.56
716.95	251.03
717.28	250.57
717.61	250.14
717.94	249.70
718.28	249.02
718.61	248.57
718.94	248.08
719.27	247.80
719.61	247.42
719.94	246.92
720.27	246.32
720.60	245.86
720.94	245.49
721.27	245.16
721.60	244.89
721.93	244.55
722.27	244.48
722.60	244.18
722.93	243.82
723.26	243.48
723.59	243.04
723.93	242.78
724.26	242.45
724.59	242.15
724.92	241.77
725.25	241.55
725.59	241.25
725.92	240.95
726.25	240.63
726.58	240.25
726.91	239.93
727.24	239.76
727.57	239.52
727.91	239.15
728.24	238.93
728.57	238.60
728.90	238.39
729.23	237.96
729.56	237.78
729.89	237.52
730.22	237.27
730.55	236.97
730.89	236.68
731.22	236.43
731.55	236.10
731.88	235.87
732.21	235.58
732.54	235.34
732.87	235.09
733.20	234.79
733.53	234.59
733.86	234.36
734.19	234.04
734.52	233.81
734.85	233.85
735.18	233.52
735.51	233.39
735.84	233.24
736.17	233.09
736.50	232.67
736.83	232.83
737.16	232.56
737.49	232.38
737.82	232.10
738.15	231.84
738.48	231.60
738.81	231.47
739.14	231.21
739.47	230.98
739.80	230.80
740.13	230.71
740.46	230.49
740.79	230.27
741.12	230.10
741.45	229.84
741.78	229.51
742.11	229.44
742.44	229.15
742.77	228.92
743.10	228.66
743.43	228.45
743.75	227.92
744.08	228.26
744.41	227.97
744.74	227.80
745.07	227.61
745.40	227.59
745.73	227.51
746.06	227.37
746.39	227.18
746.71	226.99
747.04	226.71
747.37	226.51
747.70	226.42
748.03	226.25
748.36	226.13
748.68	225.93
749.01	225.60
749.34	225.44
749.67	225.27
750.00	225.16
750.33	225.35
750.65	225.20
750.98	224.55
751.31	224.49
751.64	224.40
751.97	224.50
752.29	224.26
752.62	223.94
752.95	223.75
753.28	223.60
753.60	223.38
753.93	223.43
754.26	223.28
754.59	223.10
754.91	222.92
755.24	222.85
755.57	222.62
755.90	222.51
756.22	222.41
756.55	222.23
756.88	222.04
757.20	221.61
757.53	221.34
757.86	221.31
758.19	221.25
758.51	221.05
758.84	220.72
759.17	220.62
759.49	220.49
759.82	220.56
760.15	220.55
760.47	220.50
760.80	220.27
761.13	220.27
761.45	220.05
761.78	220.00
762.11	219.87
762.43	219.77
762.76	219.67
763.08	219.59
763.41	219.59
763.74	219.53
764.06	219.40
764.39	219.41
764.71	219.38
765.04	219.24
765.37	219.16
765.69	218.98
766.02	218.97
766.34	218.91
766.67	218.71
767.00	218.67
767.32	218.73
767.65	218.77
767.97	218.64
768.30	218.57
768.62	218.48
768.95	218.37
769.27	218.32
769.60	218.36
769.92	218.19
770.25	218.05
770.57	217.92
770.90	217.90
771.22	217.79
771.55	217.60
771.87	217.59
772.20	217.54
772.52	217.81
772.85	218.05
773.17	218.03
773.50	217.98
773.82	217.80
774.15	217.67
774.47	217.45
774.80	217.45
775.12	217.39
775.45	217.38
775.77	217.42
776.09	217.40
776.42	217.27
776.74	217.34
777.07	217.27
777.39	217.26
777.72	217.21
778.04	217.19
778.36	217.21
778.69	217.17
779.01	217.10
779.33	216.76
779.66	216.32
779.98	216.23
780.31	216.13
780.63	216.26
780.95	216.26
781.28	216.21
781.60	216.04
781.92	216.04
782.25	215.94
782.57	215.83
782.89	215.80
783.22	215.74
783.54	215.62
783.86	215.61
784.19	215.54
784.51	215.57
784.83	215.49
785.16	215.35
785.48	215.27
785.80	215.32
786.12	215.35
786.45	215.29
786.77	215.25
787.09	215.18
787.42	215.06
787.74	214.95
788.06	214.95
788.38	214.90
788.71	214.83
789.03	214.86
789.35	214.93
789.67	214.80
789.99	214.80
790.32	214.82
790.64	214.75
790.96	214.99
791.28	214.92
791.61	214.89
791.93	214.91
792.25	214.83
792.57	215.01
792.89	214.87
793.21	214.87
793.54	214.84
793.86	214.88
794.18	214.81
794.50	214.77
794.82	214.75
795.14	214.85
795.47	214.89
795.79	214.82
796.11	214.63
796.43	214.63
796.75	214.65
797.07	214.66
797.39	214.65
797.71	214.33
798.04	214.21
798.36	214.16
798.68	214.16
799.00	214.14
799.32	213.93
799.64	214.01
799.96	214.04
800.28	214.07
800.60	213.97
800.92	213.99
801.24	213.99
801.56	213.94
801.89	213.92
802.21	213.99
802.53	213.89
802.85	214.02
803.17	214.17
803.49	214.01
803.81	213.94
804.13	213.92
804.45	213.94
804.77	213.98
805.09	213.91
805.41	213.80
805.73	213.78
806.05	213.71
806.37	213.65
806.69	213.52
807.01	213.47
807.33	213.44
807.65	213.37
807.97	213.39
808.28	213.37
808.60	213.26
808.92	213.08
809.24	213.25
809.56	213.16
809.88	213.07
810.20	213.07
810.52	213.07
810.84	212.97
811.16	212.85
811.48	212.80
811.80	213.01
812.12	213.08
812.43	213.07
812.75	213.03
813.07	213.02
813.39	213.05
813.71	213.00
814.03	213.02
814.35	212.98
814.67	212.88
814.98	212.87
815.30	212.87
815.62	212.86
815.94	212.71
816.26	212.71
816.58	212.60
816.89	212.67
817.21	212.61
817.53	212.65
817.85	212.65
818.17	212.66
818.48	212.47
818.80	212.55
819.12	212.51
819.44	212.44
819.76	212.35
820.07	212.36
820.39	212.36
820.71	212.40
821.03	212.41
821.34	212.43
821.66	212.44
821.98	212.47
822.30	212.46
822.61	212.64
822.93	212.56
823.25	212.52
823.57	212.37
823.88	212.41
824.20	212.47
824.52	212.68
824.83	212.72
825.15	212.70
825.47	212.65
825.79	212.69
826.10	212.75
826.42	212.73
826.74	212.79
827.05	212.71
827.37	212.68
827.69	212.62
828.00	212.56
828.32	212.54
828.64	212.49
828.95	212.61
829.27	212.52
829.58	212.52
829.90	212.62
830.22	212.72
830.53	212.65
830.85	212.59
831.17	212.37
831.48	212.28
831.80	212.28
832.11	212.21
832.43	212.09
832.75	212.07
833.06	212.30
833.38	212.11
833.69	212.17
834.01	212.18
834.32	212.12
834.64	212.10
834.96	212.09
835.27	212.06
835.59	211.95
835.90	211.89
836.22	211.83
836.53	211.75
836.85	211.72
837.16	212.06
837.48	212.00
837.79	212.09
838.11	212.16
838.42	212.18
838.74	212.18
839.05	212.14
839.37	212.08
839.68	211.93
840.00	211.95
840.31	211.97
840.63	211.88
840.94	211.90
841.26	211.95
841.57	211.95
841.88	212.02
842.20	212.00
842.51	211.97
842.83	212.05
843.14	212.35
843.46	212.31
843.77	212.09
844.08	212.08
844.40	211.99
844.71	211.93
845.03	211.82
845.34	211.80
845.65	211.84
845.97	211.83
846.28	211.74
846.60	211.79
846.91	211.78
847.22	211.82
847.54	211.94
847.85	211.93
848.16	211.91
848.48	211.85
848.79	211.95
849.10	211.93
849.42	211.92
849.73	211.54
850.04	211.62
850.36	211.56
850.67	211.71
850.98	211.75
851.30	211.80
851.61	211.89
851.92	211.92
852.23	212.03
852.55	212.05
852.86	212.13
853.17	212.16
853.49	212.15
853.80	212.20
854.11	212.19
854.42	212.21
854.74	212.23
855.05	212.18
855.36	212.05
855.67	212.14
855.99	212.08
856.30	212.63
856.61	212.55
856.92	212.50
857.23	212.39
857.55	212.39
857.86	212.35
858.17	212.34
858.48	212.27
858.79	212.14
859.11	212.22
859.42	212.18
859.73	212.16
860.04	212.22
860.35	212.11
860.66	212.02
860.98	212.00
861.29	212.03
861.60	212.05
861.91	212.18
862.22	212.06
862.53	212.05
862.84	211.53
863.16	211.68
863.47	211.61
863.78	211.63
864.09	211.63
864.40	211.69
864.71	211.76
865.02	211.86
865.33	211.86
865.64	211.80
865.95	211.76
866.27	211.95
866.58	212.00
866.89	212.03
867.20	212.00
867.51	212.03
867.82	211.97
868.13	212.10
868.44	211.94
868.75	212.03
869.06	212.01
869.37	212.11
869.68	211.98
869.99	212.10
870.30	212.00
870.61	212.01
870.92	211.88
871.23	211.83
871.54	211.83
871.85	211.98
872.16	211.99
872.47	212.00
872.78	211.81
873.09	211.74
873.40	211.71
873.71	211.72
874.02	211.67
874.33	211.67
874.64	211.55
874.95	211.58
875.26	211.52
875.56	211.51
875.87	211.43
876.18	211.41
876.49	211.72
876.80	211.81
877.11	211.76
877.42	211.80
877.73	211.78
878.04	211.67
878.35	211.66
878.66	211.68
878.96	211.68
879.27	211.63
879.58	211.62
879.89	211.65
880.20	211.67
880.51	211.66
880.82	211.65
881.12	211.62
881.43	211.60
881.74	211.55
882.05	211.61
882.36	211.62
882.67	211.65
882.97	211.27
883.28	211.18
883.59	211.16
883.90	211.20
884.21	211.23
884.51	211.26
884.82	211.20
885.13	211.19
885.44	211.18
885.74	211.23
886.05	211.19
886.36	211.16
886.67	211.15
886.98	211.29
887.28	211.29
887.59	211.32
887.90	211.29
888.20	211.26
888.51	211.27
888.82	211.26
889.13	211.28
889.43	211.55
889.74	211.62
890.05	211.59
890.35	211.52
890.66	211.54
890.97	211.43
891.28	211.37
891.58	211.41
891.89	211.37
892.20	211.31
892.50	211.29
892.81	211.29
893.12	211.21
893.42	211.04
893.73	211.07
894.04	211.10
894.34	211.20
894.65	211.20
894.95	211.09
895.26	211.09
895.57	211.24
895.87	210.88
896.18	210.83
896.48	210.86
896.79	210.87
897.10	210.86
897.40	210.95
897.71	211.02
898.01	210.91
898.32	211.01
898.63	211.00
898.93	210.99
899.24	210.98
899.54	211.05
899.85	211.01
900.15	210.99
900.46	211.02
900.76	210.96
901.07	210.92
901.38	210.97
901.68	210.97
901.99	210.76
902.29	210.85
902.60	210.85
902.90	210.86
903.21	210.85
903.51	210.85
903.82	210.91
904.12	210.89
904.43	210.95
904.73	210.91
905.03	210.90
905.34	211.24
905.64	211.21
905.95	211.24
906.25	211.29
906.56	211.30
906.86	211.21
907.17	211.17
907.47	211.21
907.77	211.23
908.08	211.18
908.38	211.21
908.69	211.19
908.99	211.29
909.30	211.26
909.60	211.30
909.90	211.31
910.21	211.22
910.51	211.15
910.81	211.13
911.12	211.14
911.42	211.14
911.73	210.75
912.03	210.72
912.33	210.67
912.64	210.68
912.94	210.62
913.24	210.58
913.55	210.62
913.85	210.66
914.15	210.75
914.46	210.83
914.76	210.81
915.06	210.78
915.37	210.67
915.67	210.68
915.97	210.59
916.27	210.48
916.58	210.46
916.88	210.47
917.18	210.45
917.49	210.65
917.79	210.70
918.09	210.79
918.39	210.94
918.70	210.97
919.00	210.94
919.30	211.06
919.60	211.04
919.91	210.95
920.21	210.90
920.51	210.79
920.81	210.75
921.12	210.77
921.42	210.80
921.72	210.82
922.02	210.90
922.32	211.10
922.63	211.14
922.93	211.30
923.23	211.34
923.53	211.32
923.83	211.13
924.13	211.16
924.44	211.17
924.74	211.17
925.04	211.30
925.34	211.31
925.64	211.21
925.94	211.27
926.24	211.50
926.55	211.49
926.85	211.54
927.15	211.52
927.45	211.55
927.75	211.54
928.05	211.55
928.35	211.48
928.65	211.49
928.95	211.51
929.26	211.42
929.56	211.43
929.86	211.50
930.16	211.46
930.46	211.43
930.76	211.43
931.06	211.36
931.36	211.24
931.66	211.34
931.96	211.46
932.26	211.45
932.56	211.30
932.86	211.36
933.16	211.43
933.46	211.36
933.76	211.33
934.06	211.45
934.36	211.58
934.66	211.56
934.96	211.47
935.26	211.50
935.56	211.55
935.86	211.50
936.16	211.44
936.46	211.38
936.76	211.36
937.06	211.43
937.36	211.41
937.66	211.45
937.96	211.38
938.26	211.28
938.56	211.28
938.86	211.35
939.16	211.38
939.46	211.35
939.76	211.41
940.06	211.36
940.35	211.24
940.65	211.14
940.95	211.20
941.25	211.11
941.55	211.07
941.85	211.10
942.15	211.07
942.45	211.18
942.75	211.16
943.04	211.15
943.34	211.15
943.64	211.14
943.94	211.09
944.24	211.13
944.54	211.12
944.84	211.10
945.13	211.03
945.43	211.01
945.73	211.00
946.03	211.02
946.33	211.00
946.62	210.95
946.92	210.91
947.22	210.94
947.52	210.98
947.82	211.01
948.11	210.87
948.41	210.85
948.71	210.73
949.01	210.81
949.31	210.81
949.60	210.73
949.90	210.74
950.20	210.68
950.50	210.58
950.79	210.52
951.09	210.58
951.39	210.56
951.69	210.53
951.98	210.67
952.28	210.67
952.58	210.73
952.87	210.71
953.17	210.78
953.47	210.70
953.76	210.71
954.06	210.68
954.36	210.68
954.66	210.73
954.95	210.78
955.25	210.80
955.55	210.91
955.84	210.74
956.14	210.84
956.44	210.87
956.73	210.88
957.03	210.94
957.32	210.90
957.62	210.95
957.92	211.01
958.21	210.89
958.51	211.28
958.81	211.27
959.10	211.35
959.40	211.38
959.69	211.41
959.99	211.47
960.29	211.52
960.58	211.49
960.88	211.64
961.17	211.62
961.47	211.68
961.76	211.57
962.06	211.76
962.36	211.65
962.65	211.66
962.95	211.64
963.24	211.59
963.54	211.65
963.83	211.64
964.13	211.62
964.42	211.52
964.72	211.24
965.01	211.22
965.31	211.19
965.60	211.12
965.90	211.31
966.19	211.17
966.49	211.20
966.78	211.19
967.08	211.07
967.37	211.14
967.67	211.08
967.96	211.11
968.26	211.04
968.55	211.09
968.85	211.09
969.14	211.20
969.43	211.21
969.73	211.15
970.02	211.06
970.32	211.02
970.61	211.02
970.91	210.90
971.20	210.82
971.49	210.84
971.79	210.85
972.08	210.64
972.38	210.67
972.67	210.60
972.96	210.67
973.26	210.67
973.55	210.64
973.85	210.59
974.14	210.60
974.43	210.68
974.73	210.62
975.02	210.58
975.31	210.52
975.61	210.60
975.90	210.61
976.19	210.58
976.49	210.64
976.78	210.60
977.07	210.58
977.37	210.64
977.66	210.63
977.95	210.53
978.24	210.55
978.54	210.64
978.83	210.58
979.12	210.53
979.42	210.56
979.71	210.49
980.00	210.47
980.29	210.43
980.59	210.33
980.88	210.46
981.17	210.44
981.46	210.42
981.76	210.28
982.05	210.36
982.34	210.39
982.63	210.28
982.93	210.35
983.22	210.47
983.51	210.49
983.80	210.50
984.09	210.61
984.39	210.56
984.68	210.48
984.97	210.50
985.26	210.53
985.55	210.49
985.85	210.46
986.14	210.52
986.43	210.56
986.72	210.48
987.01	210.35
987.30	210.39
987.59	210.41
987.89	210.46
988.18	210.32
988.47	210.31
988.76	210.35
989.05	210.36
989.34	210.32
989.63	210.38
989.92	210.41
990.22	210.32
990.51	210.31
990.80	210.29
991.09	210.33
991.38	210.36
991.67	210.35
991.96	210.29
992.25	210.32
992.54	210.29
992.83	210.38
993.12	210.35
993.41	210.42
993.70	210.49
993.99	210.59
994.28	210.64
994.58	210.75
994.87	210.65
995.16	210.57
995.45	210.51
995.74	210.38
996.03	210.35
996.32	210.43
996.61	210.56
996.90	210.59
997.19	210.58
997.48	210.55
997.77	210.52
998.06	210.63
998.34	210.57
998.63	210.56
998.92	210.59
999.21	210.60
999.50	210.59
999.79	210.52
1000.08	210.51
1000.37	210.48
1000.66	210.44
1000.95	210.62
1001.24	210.65
1001.53	210.70
1001.82	210.70
1002.11	210.69
1002.40	210.68
1002.68	210.76
1002.97	211.01
1003.26	210.98
1003.55	210.99
1003.84	210.97
1004.13	211.05
1004.42	211.05
1004.71	211.06
1004.99	211.09
1005.28	211.26
1005.57	211.20
1005.86	211.15
1006.15	211.11
1006.44	211.04
1006.72	211.06
1007.01	210.98
1007.30	211.02
1007.59	210.95
1007.88	210.96
1008.17	210.95
1008.45	210.79
1008.74	210.57
1009.03	210.36
1009.32	210.32
1009.60	210.29
1009.89	210.33
1010.18	210.23
1010.47	210.21
1010.76	210.19
1011.04	210.12
1011.33	210.14
1011.62	210.20
1011.91	210.25
1012.19	210.25
1012.48	210.29
1012.77	210.27
1013.05	210.43
1013.34	210.45
1013.63	210.43
1013.92	210.39
1014.20	210.45
1014.49	210.55
1014.78	210.60
1015.06	210.52
1015.35	210.59
1015.64	210.68
1015.92	210.71
1016.21	210.73
1016.50	210.71
1016.78	210.73
1017.07	210.75
1017.36	210.57
1017.64	210.52
1017.93	210.55
1018.22	210.56
1018.50	210.63
1018.79	210.70
1019.08	210.56
1019.36	210.45
1019.65	210.45
1019.93	210.58
1020.22	210.62
1020.51	210.75
1020.79	210.77
1021.08	211.20
1021.36	210.75
1021.65	211.80
1021.94	211.00
1022.22	208.85
1022.51	209.65
1022.79	211.55
1023.08	211.70
1023.36	213.80
1023.65	210.10
>>>>>End Processed Spectral Data<<<<<
