SpectraSuite Data File
++++++++++++++++++++++++++++++++++++
Date: Mon Feb 25 17:05:50 EST 2013
User: group
Dark Spectrum Present: No
Reference Spectrum Present: No
Number of Sampled Component Spectra: 1
Spectrometers: USB2E7196
Integration Time (usec): 104000 (USB2E7196)
Spectra Averaged: 20 (USB2E7196)
Boxcar Smoothing: 10 (USB2E7196)
Correct for Electrical Dark: No (USB2E7196)
Strobe/Lamp Enabled: No (USB2E7196)
Correct for Detector Non-linearity: No (USB2E7196)
Correct for Stray Light: No (USB2E7196)
Number of Pixels in Processed Spectrum: 2048
>>>>>Begin Processed Spectral Data<<<<<
339.09	0.00
339.48	197.40
339.86	199.55
340.24	200.50
340.63	202.70
341.01	209.45
341.39	204.50
341.78	208.80
342.16	209.80
342.54	208.65
342.93	198.18
343.31	208.21
343.69	208.80
344.07	209.30
344.46	209.79
344.84	210.20
345.22	210.21
345.60	210.52
345.99	210.69
346.37	210.78
346.75	210.85
347.13	210.92
347.52	210.90
347.90	211.11
348.28	211.07
348.66	211.15
349.05	211.12
349.43	211.10
349.81	211.21
350.19	211.26
350.57	211.35
350.96	211.38
351.34	211.48
351.72	211.55
352.10	211.57
352.48	211.58
352.87	211.62
353.25	211.69
353.63	211.70
354.01	211.74
354.39	211.83
354.77	211.96
355.15	212.17
355.54	212.13
355.92	212.05
356.30	212.20
356.68	212.48
357.06	212.56
357.44	212.62
357.82	212.63
358.20	212.72
358.58	212.78
358.97	212.92
359.35	213.00
359.73	213.14
360.11	213.25
360.49	213.32
360.87	213.32
361.25	213.43
361.63	213.57
362.01	213.60
362.39	213.53
362.77	213.56
363.15	213.50
363.53	213.57
363.91	213.61
364.29	213.55
364.67	213.22
365.05	213.17
365.43	213.21
365.81	213.26
366.19	213.33
366.57	213.40
366.95	213.40
367.33	213.33
367.71	213.25
368.09	213.30
368.47	213.32
368.85	213.25
369.23	213.25
369.61	213.14
369.99	213.12
370.37	213.10
370.75	213.23
371.13	213.14
371.51	213.11
371.89	213.12
372.27	213.10
372.65	213.10
373.03	213.08
373.41	212.95
373.78	212.88
374.16	212.64
374.54	212.58
374.92	212.49
375.30	212.42
375.68	212.31
376.06	212.21
376.44	212.11
376.82	212.16
377.19	212.11
377.57	212.01
377.95	211.87
378.33	211.86
378.71	211.53
379.09	211.56
379.47	211.55
379.84	211.42
380.22	211.40
380.60	211.32
380.98	211.30
381.36	211.30
381.73	211.15
382.11	211.19
382.49	211.11
382.87	210.95
383.25	210.94
383.62	211.33
384.00	211.22
384.38	211.24
384.76	211.29
385.13	211.38
385.51	211.41
385.89	211.40
386.27	211.37
386.64	211.41
387.02	211.29
387.40	211.22
387.78	211.24
388.15	211.17
388.53	211.12
388.91	211.05
389.29	210.99
389.66	211.01
390.04	210.96
390.42	210.93
390.79	210.94
391.17	210.88
391.55	210.50
391.92	210.45
392.30	210.41
392.68	210.30
393.05	210.23
393.43	210.25
393.81	210.16
394.18	210.13
394.56	210.16
394.94	210.25
395.31	210.25
395.69	210.33
396.06	210.31
396.44	210.34
396.82	210.28
397.19	210.46
397.57	210.48
397.95	210.53
398.32	210.43
398.70	210.55
399.07	210.62
399.45	210.60
399.82	210.65
400.20	210.60
400.58	210.58
400.95	210.45
401.33	210.50
401.70	210.84
402.08	210.91
402.45	210.93
402.83	211.06
403.20	211.07
403.58	211.03
403.95	211.20
404.33	211.27
404.71	211.38
405.08	211.57
405.46	211.65
405.83	211.74
406.21	211.89
406.58	211.93
406.96	212.05
407.33	212.16
407.70	212.36
408.08	212.90
408.45	213.16
408.83	213.48
409.20	213.62
409.58	213.56
409.95	213.77
410.33	214.05
410.70	214.16
411.08	214.49
411.45	214.84
411.82	215.02
412.20	215.45
412.57	216.08
412.95	216.25
413.32	216.66
413.69	217.13
414.07	217.59
414.44	218.15
414.82	218.69
415.19	219.41
415.56	220.03
415.94	220.53
416.31	221.35
416.68	222.08
417.06	222.97
417.43	223.91
417.81	224.89
418.18	225.88
418.55	227.00
418.93	228.14
419.30	229.28
419.67	230.63
420.04	231.93
420.42	233.21
420.79	235.03
421.16	236.59
421.54	238.33
421.91	240.03
422.28	241.77
422.66	243.60
423.03	245.55
423.40	247.46
423.77	249.42
424.15	251.39
424.52	253.53
424.89	255.88
425.26	258.07
425.64	260.26
426.01	262.55
426.38	265.01
426.75	267.48
427.13	270.11
427.50	272.75
427.87	275.64
428.24	278.37
428.61	280.92
428.99	283.97
429.36	287.12
429.73	290.35
430.10	293.61
430.47	296.90
430.85	300.15
431.22	303.83
431.59	307.78
431.96	311.48
432.33	315.57
432.70	319.50
433.08	324.17
433.45	328.50
433.82	332.92
434.19	337.89
434.56	342.75
434.93	347.32
435.30	351.92
435.68	356.99
436.05	362.05
436.42	366.91
436.79	371.59
437.16	376.61
437.53	381.92
437.90	387.17
438.27	392.42
438.64	397.82
439.01	402.85
439.38	407.35
439.75	411.70
440.13	416.61
440.50	421.23
440.87	425.07
441.24	429.10
441.61	433.55
441.98	436.77
442.35	440.63
442.72	444.63
443.09	448.65
443.46	450.95
443.83	452.64
444.20	454.21
444.57	456.26
444.94	457.36
445.31	458.57
445.68	459.94
446.05	460.54
446.42	460.29
446.79	460.04
447.16	459.49
447.53	459.42
447.90	457.77
448.27	456.13
448.64	453.70
449.01	452.03
449.37	448.74
449.74	445.68
450.11	442.08
450.48	437.87
450.85	433.43
451.22	429.85
451.59	426.47
451.96	423.30
452.33	418.83
452.70	414.79
453.07	409.83
453.43	404.56
453.80	399.82
454.17	395.25
454.54	390.76
454.91	386.13
455.28	381.46
455.65	377.17
456.02	373.50
456.38	370.03
456.75	365.44
457.12	361.71
457.49	357.95
457.86	354.20
458.23	351.18
458.59	347.79
458.96	344.33
459.33	341.26
459.70	338.15
460.07	335.71
460.43	332.92
460.80	330.36
461.17	328.11
461.54	325.73
461.91	323.46
462.27	321.15
462.64	319.18
463.01	316.94
463.38	314.92
463.74	312.26
464.11	310.24
464.48	308.68
464.85	306.82
465.21	305.45
465.58	303.93
465.95	302.09
466.32	300.61
466.68	299.11
467.05	297.62
467.42	296.05
467.78	294.45
468.15	292.98
468.52	291.87
468.88	290.33
469.25	288.90
469.62	287.86
469.98	286.72
470.35	285.65
470.72	284.72
471.08	283.54
471.45	282.65
471.82	281.79
472.18	280.79
472.55	280.12
472.92	279.28
473.28	278.50
473.65	277.72
474.02	277.03
474.38	276.43
474.75	275.89
475.11	275.37
475.48	274.96
475.85	274.52
476.21	274.03
476.58	273.76
476.94	273.49
477.31	273.17
477.67	272.83
478.04	272.56
478.41	272.32
478.77	272.51
479.14	272.23
479.50	271.98
479.87	271.94
480.23	271.85
480.60	271.70
480.96	271.59
481.33	271.71
481.69	271.67
482.06	271.71
482.42	271.79
482.79	271.85
483.15	271.94
483.52	272.16
483.88	272.28
484.25	272.39
484.61	272.57
484.98	272.65
485.34	272.99
485.71	273.24
486.07	273.47
486.44	273.46
486.80	273.85
487.17	274.21
487.53	274.63
487.90	275.13
488.26	275.82
488.62	276.33
488.99	276.87
489.35	277.48
489.72	278.06
490.08	278.60
490.44	279.20
490.81	279.92
491.17	280.62
491.54	281.41
491.90	282.23
492.26	283.10
492.63	283.96
492.99	284.77
493.36	285.83
493.72	286.96
494.08	288.01
494.45	289.06
494.81	290.38
495.17	291.45
495.54	292.66
495.90	293.73
496.26	294.96
496.63	296.14
496.99	297.38
497.35	298.66
497.72	300.10
498.08	301.51
498.44	302.78
498.80	304.17
499.17	305.54
499.53	306.88
499.89	308.31
500.26	309.78
500.62	311.11
500.98	312.56
501.34	313.89
501.71	315.28
502.07	316.73
502.43	318.00
502.79	319.29
503.16	320.70
503.52	322.03
503.88	323.33
504.24	324.71
504.60	326.14
504.97	327.53
505.33	328.79
505.69	330.23
506.05	331.66
506.41	333.05
506.78	334.34
507.14	335.68
507.50	336.93
507.86	338.31
508.22	339.65
508.59	340.89
508.95	342.11
509.31	343.54
509.67	344.84
510.03	346.12
510.39	347.42
510.75	348.50
511.12	349.67
511.48	351.00
511.84	352.14
512.20	353.25
512.56	354.50
512.92	355.75
513.28	356.94
513.64	358.04
514.00	359.07
514.37	360.28
514.73	361.48
515.09	362.78
515.45	363.80
515.81	364.98
516.17	366.07
516.53	367.12
516.89	367.99
517.25	369.06
517.61	370.26
517.97	371.42
518.33	372.68
518.69	373.94
519.05	375.19
519.41	376.50
519.77	377.99
520.13	379.13
520.49	380.27
520.85	381.50
521.21	382.99
521.57	384.40
521.93	385.65
522.29	387.02
522.65	388.33
523.01	389.91
523.37	391.29
523.73	392.73
524.09	394.32
524.45	396.02
524.81	397.64
525.17	399.20
525.53	400.97
525.89	402.63
526.25	404.42
526.61	405.98
526.97	407.70
527.33	409.34
527.68	411.77
528.04	413.72
528.40	415.61
528.76	417.45
529.12	419.46
529.48	421.70
529.84	423.85
530.20	426.20
530.56	428.36
530.91	430.82
531.27	433.11
531.63	435.56
531.99	437.94
532.35	440.30
532.71	442.79
533.07	445.35
533.42	448.30
533.78	450.82
534.14	453.51
534.50	455.96
534.86	458.73
535.21	460.91
535.57	463.65
535.93	466.21
536.29	469.13
536.65	472.00
537.00	474.52
537.36	477.11
537.72	479.66
538.08	482.38
538.44	485.00
538.79	487.89
539.15	490.61
539.51	493.36
539.87	496.20
540.22	498.94
540.58	501.74
540.94	504.30
541.29	507.19
541.65	509.95
542.01	513.04
542.37	515.77
542.72	518.67
543.08	521.51
543.44	524.59
543.79	527.22
544.15	530.09
544.51	533.22
544.87	536.11
545.22	539.04
545.58	541.98
545.94	544.81
546.29	547.45
546.65	550.20
547.01	552.92
547.36	555.76
547.72	558.66
548.07	561.44
548.43	564.08
548.79	566.57
549.14	569.13
549.50	571.71
549.86	574.26
550.21	576.81
550.57	579.54
550.92	581.89
551.28	584.30
551.64	586.57
551.99	588.89
552.35	591.25
552.70	593.62
553.06	596.02
553.41	598.45
553.77	600.99
554.13	603.29
554.48	605.72
554.84	608.06
555.19	610.08
555.55	612.39
555.90	614.44
556.26	616.47
556.61	618.50
556.97	620.36
557.32	622.35
557.68	624.20
558.03	625.81
558.39	627.65
558.74	629.78
559.10	631.78
559.45	633.75
559.81	635.85
560.16	637.53
560.52	639.27
560.87	641.08
561.23	642.71
561.58	644.66
561.94	646.13
562.29	647.52
562.64	649.24
563.00	650.45
563.35	652.00
563.71	653.75
564.06	655.48
564.42	657.17
564.77	658.73
565.12	660.50
565.48	662.49
565.83	664.09
566.19	665.45
566.54	666.60
566.89	667.71
567.25	669.11
567.60	670.53
567.96	672.07
568.31	673.30
568.66	674.37
569.02	675.27
569.37	676.23
569.72	677.27
570.08	678.29
570.43	679.02
570.78	679.69
571.14	680.15
571.49	680.55
571.84	681.14
572.20	681.63
572.55	681.92
572.90	681.78
573.26	682.02
573.61	682.20
573.96	682.40
574.31	682.53
574.67	682.20
575.02	681.99
575.37	681.39
575.72	680.87
576.08	680.81
576.43	680.52
576.78	680.31
577.13	680.21
577.49	679.84
577.84	679.85
578.19	679.89
578.54	680.20
578.90	680.31
579.25	679.95
579.60	679.40
579.95	678.85
580.30	678.83
580.66	678.58
581.01	678.29
581.36	677.94
581.71	677.59
582.06	677.65
582.42	677.34
582.77	677.03
583.12	676.75
583.47	676.51
583.82	676.25
584.17	675.90
584.53	675.53
584.88	675.19
585.23	674.74
585.58	674.04
585.93	673.19
586.28	672.67
586.63	672.24
586.98	671.85
587.34	671.57
587.69	670.80
588.04	670.04
588.39	669.33
588.74	668.57
589.09	668.00
589.44	666.90
589.79	666.35
590.14	665.84
590.49	665.21
590.84	664.31
591.19	663.64
591.54	662.82
591.89	661.55
592.25	660.75
592.60	659.62
592.95	658.81
593.30	657.82
593.65	656.53
594.00	655.37
594.35	655.45
594.70	654.35
595.05	653.54
595.40	652.58
595.75	651.45
596.10	650.61
596.45	649.65
596.80	648.92
597.15	647.88
597.50	646.55
597.85	645.66
598.19	644.47
598.54	643.43
598.89	642.59
599.24	642.02
599.59	640.92
599.94	640.25
600.29	639.30
600.64	638.25
600.99	637.44
601.34	636.59
601.69	634.60
602.04	633.53
602.39	632.38
602.74	631.51
603.08	630.73
603.43	630.07
603.78	629.03
604.13	627.88
604.48	626.97
604.83	626.34
605.18	625.45
605.53	624.61
605.87	623.49
606.22	622.51
606.57	621.44
606.92	620.24
607.27	619.00
607.62	617.87
607.96	616.87
608.31	615.83
608.66	614.69
609.01	613.50
609.36	612.30
609.70	611.09
610.05	609.74
610.40	608.51
610.75	606.98
611.10	605.87
611.44	604.40
611.79	602.77
612.14	601.11
612.49	599.30
612.83	597.77
613.18	596.11
613.53	594.45
613.88	592.55
614.22	591.09
614.57	589.36
614.92	587.68
615.27	585.95
615.61	584.12
615.96	582.55
616.31	581.10
616.65	579.68
617.00	578.08
617.35	576.46
617.70	574.58
618.04	572.75
618.39	570.75
618.74	569.10
619.08	567.28
619.43	565.56
619.78	563.95
620.12	562.23
620.47	560.44
620.82	558.55
621.16	556.86
621.51	555.17
621.85	553.47
622.20	551.79
622.55	550.10
622.89	548.34
623.24	546.39
623.59	544.37
623.93	542.45
624.28	540.84
624.62	539.42
624.97	537.92
625.32	536.15
625.66	534.47
626.01	532.67
626.35	531.11
626.70	529.40
627.04	527.84
627.39	526.21
627.73	524.87
628.08	523.36
628.43	521.64
628.77	519.76
629.12	518.01
629.46	516.39
629.81	514.71
630.15	513.11
630.50	511.51
630.84	509.75
631.19	508.06
631.53	506.22
631.88	504.00
632.22	501.99
632.57	500.45
632.91	498.82
633.26	497.27
633.60	495.65
633.95	494.11
634.29	492.23
634.64	490.50
634.98	488.52
635.32	486.87
635.67	485.42
636.01	483.84
636.36	482.14
636.70	480.51
637.05	478.84
637.39	477.22
637.73	475.56
638.08	474.30
638.42	472.92
638.77	471.45
639.11	470.09
639.45	468.64
639.80	466.87
640.14	465.10
640.49	463.38
640.83	461.65
641.17	459.88
641.52	458.25
641.86	456.41
642.20	454.91
642.55	453.06
642.89	451.35
643.23	449.67
643.58	448.35
643.92	446.56
644.26	444.84
644.61	443.27
644.95	441.77
645.29	439.93
645.64	438.19
645.98	436.40
646.32	434.80
646.66	433.03
647.01	431.35
647.35	429.84
647.69	428.20
648.04	426.61
648.38	425.03
648.72	423.49
649.06	421.97
649.41	420.20
649.75	418.62
650.09	417.08
650.43	415.52
650.78	413.76
651.12	412.07
651.46	410.55
651.80	408.86
652.14	407.17
652.49	405.66
652.83	404.03
653.17	402.28
653.51	400.59
653.85	399.15
654.20	397.76
654.54	396.06
654.88	394.50
655.22	393.02
655.56	391.36
655.90	389.68
656.25	388.08
656.59	386.61
656.93	385.15
657.27	383.61
657.61	381.97
657.95	380.50
658.29	379.10
658.64	377.74
658.98	376.30
659.32	374.66
659.66	373.10
660.00	371.52
660.34	370.03
660.68	368.50
661.02	366.95
661.36	365.40
661.70	364.05
662.05	362.62
662.39	361.29
662.73	360.07
663.07	358.97
663.41	357.72
663.75	356.26
664.09	354.89
664.43	353.44
664.77	352.11
665.11	350.75
665.45	349.46
665.79	348.23
666.13	346.97
666.47	345.97
666.81	344.74
667.15	343.55
667.49	342.55
667.83	341.48
668.17	340.26
668.51	339.27
668.85	338.21
669.19	337.29
669.53	335.98
669.87	334.72
670.21	333.51
670.55	332.39
670.89	331.59
671.23	330.71
671.57	329.68
671.91	328.64
672.25	327.59
672.58	326.70
672.92	325.46
673.26	324.45
673.60	323.43
673.94	322.36
674.28	321.30
674.62	320.43
674.96	319.43
675.30	318.55
675.64	317.50
675.97	316.44
676.31	315.39
676.65	314.51
676.99	313.80
677.33	312.74
677.67	311.80
678.01	310.71
678.34	309.64
678.68	308.85
679.02	308.02
679.36	307.14
679.70	306.17
680.04	305.37
680.37	304.50
680.71	303.50
681.05	302.65
681.39	301.90
681.73	300.85
682.06	300.02
682.40	299.19
682.74	298.41
683.08	297.80
683.42	296.91
683.75	296.19
684.09	295.18
684.43	294.39
684.77	293.55
685.10	292.81
685.44	291.94
685.78	291.07
686.12	290.25
686.45	289.36
686.79	288.56
687.13	287.91
687.46	287.15
687.80	286.54
688.14	285.82
688.48	285.06
688.81	284.34
689.15	283.62
689.49	282.83
689.82	282.16
690.16	281.19
690.50	280.49
690.83	279.64
691.17	278.85
691.51	278.16
691.84	277.53
692.18	276.88
692.52	276.27
692.85	275.72
693.19	275.22
693.52	274.63
693.86	273.96
694.20	273.27
694.53	272.60
694.87	271.93
695.21	271.26
695.54	270.62
695.88	269.93
696.21	269.19
696.55	268.65
696.88	267.95
697.22	267.35
697.56	266.83
697.89	266.27
698.23	265.78
698.56	265.19
698.90	264.68
699.23	264.03
699.57	263.48
699.90	262.88
700.24	262.18
700.58	261.66
700.91	261.15
701.25	260.85
701.58	260.36
701.92	259.84
702.25	259.37
702.59	258.89
702.92	258.48
703.26	257.98
703.59	257.45
703.93	257.20
704.26	256.75
704.60	256.21
704.93	255.69
705.26	255.22
705.60	254.86
705.93	254.29
706.27	253.93
706.60	253.57
706.94	253.18
707.27	252.72
707.61	252.33
707.94	251.88
708.27	251.15
708.61	250.68
708.94	250.31
709.28	249.90
709.61	249.53
709.94	249.11
710.28	248.78
710.61	248.43
710.95	247.80
711.28	247.73
711.61	247.42
711.95	247.12
712.28	246.71
712.61	246.30
712.95	246.11
713.28	245.92
713.61	245.52
713.95	245.18
714.28	244.90
714.61	244.46
714.95	244.16
715.28	243.80
715.61	243.45
715.95	243.10
716.28	242.78
716.61	242.51
716.95	242.15
717.28	241.82
717.61	241.52
717.94	241.21
718.28	240.59
718.61	240.21
718.94	239.92
719.27	239.57
719.61	239.30
719.94	239.01
720.27	238.58
720.60	238.27
720.94	237.91
721.27	237.67
721.60	237.52
721.93	237.29
722.27	237.22
722.60	237.05
722.93	236.80
723.26	236.57
723.59	236.18
723.93	235.96
724.26	235.77
724.59	235.50
724.92	235.38
725.25	235.21
725.59	235.03
725.92	234.82
726.25	234.73
726.58	234.55
726.91	234.17
727.24	234.02
727.57	233.76
727.91	233.44
728.24	233.26
728.57	232.97
728.90	232.73
729.23	232.36
729.56	232.28
729.89	232.05
730.22	231.78
730.55	231.58
730.89	231.51
731.22	231.33
731.55	231.08
731.88	230.88
732.21	230.59
732.54	230.36
732.87	230.18
733.20	229.93
733.53	229.72
733.86	229.57
734.19	229.35
734.52	229.27
734.85	229.42
735.18	229.15
735.51	229.09
735.84	228.90
736.17	228.80
736.50	228.48
736.83	228.71
737.16	228.56
737.49	228.49
737.82	228.22
738.15	227.97
738.48	227.82
738.81	227.61
739.14	227.50
739.47	227.29
739.80	227.13
740.13	227.07
740.46	226.83
740.79	226.70
741.12	226.51
741.45	226.26
741.78	225.91
742.11	225.83
742.44	225.61
742.77	225.55
743.10	225.41
743.43	225.16
743.75	224.61
744.08	224.93
744.41	224.68
744.74	224.50
745.07	224.30
745.40	224.25
745.73	224.20
746.06	224.06
746.39	223.98
746.71	223.85
747.04	223.63
747.37	223.53
747.70	223.46
748.03	223.37
748.36	223.39
748.68	223.28
749.01	223.07
749.34	222.93
749.67	222.82
750.00	222.71
750.33	222.95
750.65	222.84
750.98	222.27
751.31	222.18
751.64	222.06
751.97	222.25
752.29	222.15
752.62	221.87
752.95	221.70
753.28	221.62
753.60	221.45
753.93	221.49
754.26	221.41
754.59	221.17
754.91	221.00
755.24	220.81
755.57	220.63
755.90	220.62
756.22	220.45
756.55	220.27
756.88	220.10
757.20	219.72
757.53	219.59
757.86	219.52
758.19	219.51
758.51	219.49
758.84	219.21
759.17	219.00
759.49	218.97
759.82	219.05
760.15	219.04
760.47	218.92
760.80	218.70
761.13	218.66
761.45	218.53
761.78	218.49
762.11	218.38
762.43	218.29
762.76	218.16
763.08	218.23
763.41	218.17
763.74	218.10
764.06	218.00
764.39	217.96
764.71	217.93
765.04	217.72
765.37	217.64
765.69	217.55
766.02	217.50
766.34	217.39
766.67	217.19
767.00	217.15
767.32	217.35
767.65	217.48
767.97	217.48
768.30	217.50
768.62	217.46
768.95	217.36
769.27	217.35
769.60	217.37
769.92	217.17
770.25	217.07
770.57	216.98
770.90	216.93
771.22	216.77
771.55	216.62
771.87	216.64
772.20	216.51
772.52	216.75
772.85	217.12
773.17	217.10
773.50	217.08
773.82	216.99
774.15	216.78
774.47	216.54
774.80	216.36
775.12	216.34
775.45	216.26
775.77	216.31
776.09	216.23
776.42	216.14
776.74	216.25
777.07	216.17
777.39	216.09
777.72	215.95
778.04	216.00
778.36	215.95
778.69	215.88
779.01	215.86
779.33	215.55
779.66	215.09
779.98	214.96
780.31	214.94
780.63	215.01
780.95	214.98
781.28	214.93
781.60	214.90
781.92	214.80
782.25	214.79
782.57	214.73
782.89	214.73
783.22	214.71
783.54	214.55
783.86	214.59
784.19	214.54
784.51	214.65
784.83	214.64
785.16	214.63
785.48	214.66
785.80	214.63
786.12	214.61
786.45	214.67
786.77	214.76
787.09	214.74
787.42	214.49
787.74	214.43
788.06	214.42
788.38	214.35
788.71	214.33
789.03	214.34
789.35	214.38
789.67	214.28
789.99	214.22
790.32	214.16
790.64	214.19
790.96	214.54
791.28	214.47
791.61	214.43
791.93	214.41
792.25	214.36
792.57	214.58
792.89	214.45
793.21	214.45
793.54	214.36
793.86	214.29
794.18	214.41
794.50	214.37
794.82	214.40
795.14	214.47
795.47	214.54
795.79	214.47
796.11	214.32
796.43	214.31
796.75	214.32
797.07	214.29
797.39	214.19
797.71	213.85
798.04	213.85
798.36	213.78
798.68	213.78
799.00	213.79
799.32	213.61
799.64	213.61
799.96	213.59
800.28	213.70
800.60	213.62
800.92	213.54
801.24	213.45
801.56	213.46
801.89	213.36
802.21	213.35
802.53	213.33
802.85	213.43
803.17	213.57
803.49	213.49
803.81	213.46
804.13	213.44
804.45	213.37
804.77	213.36
805.09	213.35
805.41	213.26
805.73	213.21
806.05	213.07
806.37	213.15
806.69	213.09
807.01	212.98
807.33	212.97
807.65	212.93
807.97	213.11
808.28	213.02
808.60	213.03
808.92	212.95
809.24	213.05
809.56	212.90
809.88	212.77
810.20	212.75
810.52	212.83
810.84	212.83
811.16	212.84
811.48	212.81
811.80	212.87
812.12	212.92
812.43	212.97
812.75	213.01
813.07	212.94
813.39	212.96
813.71	212.88
814.03	212.91
814.35	212.91
814.67	212.76
814.98	212.74
815.30	212.73
815.62	212.64
815.94	212.39
816.26	212.47
816.58	212.42
816.89	212.56
817.21	212.48
817.53	212.44
817.85	212.48
818.17	212.44
818.48	212.32
818.80	212.28
819.12	212.14
819.44	212.06
819.76	211.99
820.07	211.91
820.39	211.86
820.71	211.86
821.03	211.78
821.34	211.70
821.66	211.70
821.98	211.74
822.30	211.78
822.61	212.02
822.93	211.98
823.25	211.96
823.57	211.87
823.88	211.95
824.20	211.98
824.52	211.98
824.83	211.96
825.15	211.92
825.47	211.91
825.79	211.99
826.10	212.04
826.42	212.02
826.74	212.12
827.05	212.14
827.37	212.22
827.69	212.26
828.00	212.36
828.32	212.38
828.64	212.28
828.95	212.40
829.27	212.35
829.58	212.33
829.90	212.38
830.22	212.41
830.53	212.31
830.85	212.24
831.17	212.20
831.48	212.20
831.80	212.28
832.11	212.28
832.43	212.30
832.75	212.27
833.06	212.51
833.38	212.31
833.69	212.34
834.01	212.28
834.32	212.22
834.64	212.20
834.96	212.15
835.27	212.16
835.59	212.13
835.90	212.00
836.22	211.98
836.53	211.85
836.85	211.77
837.16	212.14
837.48	212.17
837.79	212.27
838.11	212.30
838.42	212.28
838.74	212.32
839.05	212.23
839.37	212.21
839.68	212.04
840.00	212.12
840.31	212.15
840.63	212.12
840.94	212.11
841.26	211.99
841.57	211.99
841.88	212.06
842.20	211.94
842.51	211.94
842.83	211.91
843.14	212.25
843.46	212.23
843.77	212.00
844.08	211.98
844.40	211.82
844.71	211.78
845.03	211.73
845.34	211.68
845.65	211.71
845.97	211.73
846.28	211.72
846.60	211.72
846.91	211.70
847.22	211.61
847.54	211.75
847.85	211.81
848.16	211.83
848.48	211.78
848.79	212.00
849.10	212.07
849.42	212.12
849.73	211.86
850.04	211.89
850.36	211.74
850.67	211.74
850.98	211.74
851.30	211.75
851.61	211.73
851.92	211.75
852.23	211.81
852.55	211.78
852.86	211.76
853.17	211.76
853.49	211.86
853.80	211.92
854.11	211.90
854.42	211.92
854.74	211.90
855.05	211.79
855.36	211.56
855.67	211.60
855.99	211.62
856.30	212.02
856.61	211.99
856.92	212.06
857.23	212.10
857.55	212.10
857.86	212.10
858.17	212.16
858.48	212.16
858.79	212.14
859.11	212.18
859.42	212.22
859.73	212.17
860.04	212.05
860.35	212.04
860.66	211.96
860.98	211.97
861.29	211.97
861.60	212.00
861.91	212.09
862.22	212.01
862.53	211.90
862.84	211.45
863.16	211.55
863.47	211.43
863.78	211.37
864.09	211.41
864.40	211.50
864.71	211.59
865.02	211.63
865.33	211.56
865.64	211.47
865.95	211.44
866.27	211.69
866.58	211.68
866.89	211.70
867.20	211.63
867.51	211.60
867.82	211.61
868.13	211.70
868.44	211.61
868.75	211.63
869.06	211.73
869.37	211.74
869.68	211.70
869.99	211.78
870.30	211.87
870.61	211.86
870.92	211.80
871.23	211.67
871.54	211.65
871.85	211.70
872.16	211.76
872.47	211.71
872.78	211.48
873.09	211.56
873.40	211.46
873.71	211.50
874.02	211.55
874.33	211.49
874.64	211.37
874.95	211.42
875.26	211.32
875.56	211.20
875.87	211.17
876.18	211.10
876.49	211.41
876.80	211.33
877.11	211.31
877.42	211.31
877.73	211.31
878.04	211.27
878.35	211.24
878.66	211.22
878.96	211.27
879.27	211.34
879.58	211.25
879.89	211.26
880.20	211.36
880.51	211.29
880.82	211.27
881.12	211.33
881.43	211.23
881.74	211.22
882.05	211.29
882.36	211.29
882.67	211.30
882.97	210.95
883.28	210.88
883.59	210.85
883.90	210.85
884.21	210.91
884.51	210.97
884.82	210.92
885.13	210.88
885.44	210.77
885.74	210.71
886.05	210.70
886.36	210.71
886.67	210.62
886.98	210.89
887.28	210.93
887.59	210.95
887.90	211.02
888.20	210.99
888.51	211.05
888.82	211.01
889.13	211.05
889.43	211.36
889.74	211.36
890.05	211.33
890.35	211.29
890.66	211.23
890.97	211.15
891.28	211.17
891.58	211.19
891.89	211.21
892.20	211.20
892.50	211.18
892.81	211.15
893.12	211.11
893.42	210.78
893.73	210.75
894.04	210.72
894.34	210.77
894.65	210.83
894.95	210.79
895.26	210.77
895.57	210.93
895.87	210.57
896.18	210.67
896.48	210.69
896.79	210.68
897.10	210.73
897.40	210.74
897.71	210.74
898.01	210.79
898.32	210.83
898.63	210.83
898.93	210.92
899.24	210.96
899.54	210.93
899.85	211.02
900.15	211.04
900.46	211.06
900.76	211.07
901.07	211.01
901.38	211.00
901.68	211.13
901.99	210.87
902.29	210.93
902.60	210.86
902.90	210.89
903.21	210.87
903.51	210.79
903.82	210.91
904.12	210.99
904.43	211.00
904.73	211.04
905.03	211.05
905.34	211.27
905.64	211.24
905.95	211.25
906.25	211.28
906.56	211.26
906.86	211.26
907.17	211.20
907.47	211.26
907.77	211.32
908.08	211.21
908.38	211.31
908.69	211.31
908.99	211.43
909.30	211.49
909.60	211.50
909.90	211.52
910.21	211.36
910.51	211.30
910.81	211.28
911.12	211.23
911.42	211.31
911.73	211.02
912.03	211.04
912.33	211.17
912.64	211.13
912.94	211.12
913.24	211.07
913.55	211.05
913.85	210.95
914.15	210.95
914.46	211.03
914.76	210.96
915.06	210.96
915.37	210.92
915.67	210.84
915.97	210.84
916.27	210.83
916.58	210.84
916.88	210.79
917.18	210.80
917.49	211.09
917.79	210.99
918.09	211.08
918.39	211.16
918.70	211.12
919.00	211.16
919.30	211.36
919.60	211.36
919.91	211.40
920.21	211.49
920.51	211.36
920.81	211.35
921.12	211.41
921.42	211.36
921.72	211.35
922.02	211.38
922.32	211.48
922.63	211.47
922.93	211.68
923.23	211.69
923.53	211.62
923.83	211.36
924.13	211.42
924.44	211.28
924.74	211.38
925.04	211.45
925.34	211.46
925.64	211.36
925.94	211.32
926.24	211.41
926.55	211.39
926.85	211.50
927.15	211.46
927.45	211.51
927.75	211.51
928.05	211.58
928.35	211.57
928.65	211.59
928.95	211.62
929.26	211.46
929.56	211.48
929.86	211.53
930.16	211.50
930.46	211.51
930.76	211.64
931.06	211.42
931.36	211.35
931.66	211.35
931.96	211.32
932.26	211.36
932.56	211.28
932.86	211.29
933.16	211.27
933.46	211.29
933.76	211.18
934.06	211.29
934.36	211.30
934.66	211.21
934.96	211.23
935.26	211.31
935.56	211.35
935.86	211.28
936.16	211.25
936.46	211.26
936.76	211.26
937.06	211.20
937.36	211.30
937.66	211.37
937.96	211.33
938.26	211.32
938.56	211.35
938.86	211.39
939.16	211.46
939.46	211.49
939.76	211.45
940.06	211.50
940.35	211.45
940.65	211.31
940.95	211.40
941.25	211.32
941.55	211.16
941.85	211.17
942.15	211.20
942.45	211.31
942.75	211.31
943.04	211.33
943.34	211.40
943.64	211.34
943.94	211.18
944.24	211.23
944.54	211.23
944.84	211.17
945.13	211.10
945.43	211.01
945.73	210.97
946.03	210.96
946.33	210.95
946.62	210.95
946.92	211.02
947.22	211.03
947.52	211.02
947.82	211.09
948.11	211.09
948.41	211.05
948.71	210.88
949.01	210.85
949.31	210.81
949.60	210.77
949.90	210.82
950.20	210.84
950.50	210.81
950.79	210.76
951.09	210.81
951.39	210.80
951.69	210.79
951.98	210.91
952.28	211.00
952.58	211.02
952.87	210.99
953.17	210.95
953.47	211.01
953.76	210.98
954.06	210.96
954.36	210.88
954.66	210.93
954.95	211.04
955.25	211.11
955.55	211.12
955.84	211.09
956.14	211.09
956.44	211.12
956.73	211.09
957.03	211.09
957.32	211.07
957.62	211.02
957.92	211.11
958.21	211.08
958.51	211.47
958.81	211.46
959.10	211.45
959.40	211.53
959.69	211.52
959.99	211.52
960.29	211.49
960.58	211.47
960.88	211.52
961.17	211.49
961.47	211.49
961.76	211.46
962.06	211.47
962.36	211.45
962.65	211.46
962.95	211.45
963.24	211.44
963.54	211.51
963.83	211.52
964.13	211.47
964.42	211.28
964.72	210.92
965.01	210.89
965.31	210.87
965.60	210.80
965.90	210.93
966.19	210.95
966.49	210.99
966.78	211.03
967.08	211.05
967.37	211.06
967.67	211.01
967.96	211.06
968.26	211.11
968.55	211.10
968.85	211.06
969.14	211.05
969.43	211.05
969.73	210.95
970.02	211.02
970.32	210.91
970.61	210.91
970.91	210.78
971.20	210.71
971.49	210.73
971.79	210.68
972.08	210.48
972.38	210.44
972.67	210.34
972.96	210.38
973.26	210.33
973.55	210.37
973.85	210.27
974.14	210.20
974.43	210.17
974.73	210.15
975.02	210.06
975.31	210.04
975.61	210.05
975.90	210.06
976.19	209.95
976.49	210.11
976.78	210.22
977.07	210.25
977.37	210.32
977.66	210.34
977.95	210.34
978.24	210.37
978.54	210.43
978.83	210.40
979.12	210.33
979.42	210.31
979.71	210.31
980.00	210.37
980.29	210.41
980.59	210.42
980.88	210.50
981.17	210.52
981.46	210.55
981.76	210.50
982.05	210.58
982.34	210.64
982.63	210.54
982.93	210.48
983.22	210.67
983.51	210.67
983.80	210.73
984.09	210.82
984.39	210.76
984.68	210.74
984.97	210.88
985.26	210.89
985.55	210.93
985.85	210.85
986.14	210.89
986.43	210.92
986.72	210.85
987.01	210.77
987.30	210.84
987.59	210.90
987.89	210.95
988.18	210.86
988.47	210.85
988.76	210.90
989.05	210.90
989.34	210.69
989.63	210.77
989.92	210.69
990.22	210.63
990.51	210.64
990.80	210.62
991.09	210.60
991.38	210.63
991.67	210.64
991.96	210.62
992.25	210.67
992.54	210.59
992.83	210.60
993.12	210.63
993.41	210.71
993.70	210.87
993.99	210.96
994.28	211.03
994.58	211.11
994.87	211.14
995.16	211.11
995.45	211.16
995.74	211.04
996.03	211.12
996.32	211.17
996.61	211.28
996.90	211.28
997.19	211.24
997.48	211.27
997.77	211.19
998.06	211.22
998.34	211.16
998.63	211.22
998.92	211.27
999.21	211.29
999.50	211.23
999.79	211.04
1000.08	210.99
1000.37	211.02
1000.66	210.97
1000.95	211.03
1001.24	211.07
1001.53	211.11
1001.82	211.16
1002.11	211.11
1002.40	211.16
1002.68	211.19
1002.97	211.37
1003.26	211.45
1003.55	211.39
1003.84	211.40
1004.13	211.50
1004.42	211.47
1004.71	211.43
1004.99	211.37
1005.28	211.43
1005.57	211.42
1005.86	211.38
1006.15	211.40
1006.44	211.27
1006.72	211.19
1007.01	211.06
1007.30	211.05
1007.59	211.03
1007.88	211.00
1008.17	210.96
1008.45	210.80
1008.74	210.62
1009.03	210.46
1009.32	210.39
1009.60	210.33
1009.89	210.38
1010.18	210.25
1010.47	210.23
1010.76	210.25
1011.04	210.24
1011.33	210.28
1011.62	210.29
1011.91	210.29
1012.19	210.25
1012.48	210.29
1012.77	210.35
1013.05	210.53
1013.34	210.57
1013.63	210.54
1013.92	210.60
1014.20	210.62
1014.49	210.72
1014.78	210.75
1015.06	210.65
1015.35	210.60
1015.64	210.72
1015.92	210.70
1016.21	210.72
1016.50	210.76
1016.78	210.79
1017.07	210.76
1017.36	210.65
1017.64	210.64
1017.93	210.68
1018.22	210.59
1018.50	210.57
1018.79	210.60
1019.08	210.39
1019.36	210.34
1019.65	210.32
1019.93	210.38
1020.22	210.40
1020.51	210.54
1020.79	210.51
1021.08	208.60
1021.36	209.85
1021.65	211.05
1021.94	209.45
1022.22	210.20
1022.51	210.20
1022.79	212.40
1023.08	210.95
1023.36	214.70
1023.65	209.35
>>>>>End Processed Spectral Data<<<<<
