SpectraSuite Data File
++++++++++++++++++++++++++++++++++++
Date: Mon Feb 25 16:56:38 EST 2013
User: group
Dark Spectrum Present: No
Reference Spectrum Present: No
Number of Sampled Component Spectra: 1
Spectrometers: USB2E7196
Integration Time (usec): 104000 (USB2E7196)
Spectra Averaged: 20 (USB2E7196)
Boxcar Smoothing: 10 (USB2E7196)
Correct for Electrical Dark: No (USB2E7196)
Strobe/Lamp Enabled: No (USB2E7196)
Correct for Detector Non-linearity: No (USB2E7196)
Correct for Stray Light: No (USB2E7196)
Number of Pixels in Processed Spectrum: 2048
>>>>>Begin Processed Spectral Data<<<<<
339.09	0.00
339.48	197.70
339.86	200.05
340.24	201.00
340.63	202.05
341.01	208.60
341.39	205.15
341.78	206.65
342.16	209.05
342.54	209.10
342.93	198.00
343.31	208.02
343.69	208.68
344.07	209.16
344.46	209.64
344.84	210.14
345.22	210.21
345.60	210.49
345.99	210.75
346.37	210.86
346.75	210.97
347.13	211.04
347.52	211.06
347.90	211.16
348.28	211.28
348.66	211.42
349.05	211.35
349.43	211.52
349.81	211.53
350.19	211.59
350.57	211.68
350.96	211.79
351.34	211.87
351.72	211.90
352.10	211.98
352.48	212.03
352.87	212.03
353.25	212.04
353.63	212.09
354.01	212.12
354.39	212.12
354.77	212.20
355.15	212.35
355.54	212.43
355.92	212.44
356.30	212.48
356.68	212.75
357.06	212.79
357.44	212.78
357.82	212.90
358.20	213.05
358.58	213.11
358.97	213.19
359.35	213.30
359.73	213.38
360.11	213.45
360.49	213.45
360.87	213.51
361.25	213.64
361.63	213.79
362.01	213.82
362.39	213.96
362.77	214.01
363.15	214.02
363.53	214.01
363.91	214.03
364.29	214.09
364.67	213.87
365.05	213.90
365.43	213.94
365.81	213.90
366.19	214.05
366.57	214.17
366.95	214.12
367.33	214.07
367.71	214.08
368.09	214.11
368.47	214.13
368.85	214.17
369.23	214.30
369.61	214.20
369.99	214.40
370.37	214.38
370.75	214.53
371.13	214.40
371.51	214.44
371.89	214.51
372.27	214.48
372.65	214.40
373.03	214.38
373.41	214.33
373.78	214.35
374.16	214.14
374.54	213.91
374.92	213.90
375.30	213.90
375.68	213.83
376.06	213.83
376.44	213.82
376.82	213.70
377.19	213.55
377.57	213.51
377.95	213.33
378.33	213.25
378.71	212.97
379.09	213.00
379.47	212.85
379.84	212.77
380.22	212.67
380.60	212.61
380.98	212.54
381.36	212.45
381.73	212.39
382.11	212.35
382.49	212.40
382.87	212.35
383.25	212.35
383.62	212.74
384.00	212.62
384.38	212.55
384.76	212.63
385.13	212.80
385.51	212.72
385.89	212.64
386.27	212.60
386.64	212.68
387.02	212.61
387.40	212.61
387.78	212.53
388.15	212.56
388.53	212.47
388.91	212.44
389.29	212.42
389.66	212.40
390.04	212.40
390.42	212.43
390.79	212.42
391.17	212.34
391.55	211.89
391.92	211.81
392.30	211.91
392.68	211.83
393.05	211.73
393.43	211.77
393.81	211.73
394.18	211.70
394.56	211.74
394.94	211.85
395.31	211.81
395.69	211.98
396.06	212.00
396.44	212.04
396.82	212.04
397.19	212.31
397.57	212.37
397.95	212.45
398.32	212.35
398.70	212.41
399.07	212.55
399.45	212.67
399.82	212.81
400.20	212.83
400.58	212.95
400.95	212.91
401.33	213.10
401.70	213.45
402.08	213.60
402.45	213.68
402.83	213.87
403.20	214.10
403.58	214.11
403.95	214.41
404.33	214.75
404.71	215.07
405.08	215.40
405.46	215.66
405.83	215.96
406.21	216.31
406.58	216.68
406.96	217.01
407.33	217.39
407.70	217.82
408.08	218.60
408.45	219.11
408.83	219.81
409.20	220.39
409.58	220.86
409.95	221.68
410.33	222.48
410.70	223.16
411.08	224.06
411.45	225.07
411.82	225.93
412.20	227.02
412.57	228.31
412.95	229.24
413.32	230.55
413.69	231.92
414.07	233.52
414.44	235.20
414.82	236.89
415.19	238.85
415.56	240.91
415.94	242.82
416.31	245.16
416.68	247.45
417.06	250.06
417.43	252.69
417.81	255.59
418.18	258.58
418.55	261.85
418.93	265.35
419.30	268.91
419.67	272.70
420.04	276.65
420.42	280.75
420.79	285.55
421.16	290.38
421.54	295.45
421.91	300.55
422.28	305.85
422.66	311.63
423.03	317.30
423.40	323.10
423.77	329.33
424.15	335.65
424.52	342.30
424.89	349.65
425.26	356.70
425.64	363.54
426.01	370.96
426.38	378.80
426.75	386.69
427.13	394.96
427.50	403.60
427.87	412.62
428.24	421.62
428.61	430.34
428.99	439.75
429.36	449.99
429.73	460.15
430.10	470.21
430.47	480.48
430.85	491.29
431.22	502.83
431.59	515.15
431.96	526.93
432.33	539.80
432.70	552.47
433.08	567.29
433.45	581.11
433.82	595.17
434.19	610.68
434.56	625.91
434.93	640.81
435.30	655.70
435.68	672.13
436.05	688.61
436.42	704.93
436.79	720.11
437.16	736.38
437.53	753.73
437.90	770.94
438.27	788.02
438.64	805.58
439.01	821.92
439.38	836.53
439.75	851.12
440.13	867.54
440.50	883.00
440.87	896.01
441.24	909.41
441.61	924.23
441.98	935.36
442.35	948.61
442.72	961.69
443.09	974.27
443.46	982.43
443.83	988.26
444.20	993.46
444.57	1000.64
444.94	1004.75
445.31	1008.87
445.68	1012.84
446.05	1015.13
446.42	1014.80
446.79	1014.01
447.16	1013.21
447.53	1012.68
447.90	1007.76
448.27	1002.65
448.64	994.95
449.01	989.91
449.37	979.79
449.74	970.29
450.11	958.14
450.48	944.86
450.85	931.55
451.22	920.16
451.59	909.34
451.96	898.93
452.33	884.67
452.70	871.73
453.07	856.09
453.43	840.45
453.80	825.39
454.17	810.76
454.54	797.17
454.91	782.27
455.28	767.79
455.65	754.43
456.02	740.69
456.38	729.13
456.75	714.69
457.12	702.46
457.49	690.43
457.86	678.89
458.23	668.96
458.59	658.09
458.96	647.01
459.33	637.24
459.70	627.46
460.07	619.65
460.43	610.76
460.80	602.33
461.17	594.79
461.54	587.00
461.91	579.61
462.27	572.08
462.64	565.73
463.01	558.60
463.38	551.54
463.74	544.79
464.11	538.88
464.48	533.57
464.85	527.90
465.21	523.53
465.58	518.77
465.95	513.24
466.32	508.51
466.68	503.89
467.05	499.18
467.42	494.51
467.78	489.59
468.15	484.87
468.52	481.43
468.88	476.96
469.25	473.00
469.62	469.85
469.98	466.33
470.35	462.96
470.72	459.75
471.08	456.36
471.45	453.52
471.82	450.54
472.18	447.29
472.55	445.15
472.92	442.43
473.28	440.10
473.65	437.68
474.02	435.38
474.38	433.49
474.75	431.75
475.11	430.09
475.48	428.76
475.85	427.72
476.21	426.50
476.58	425.52
476.94	424.72
477.31	423.76
477.67	422.90
478.04	422.32
478.41	422.01
478.77	422.07
479.14	421.69
479.50	421.66
479.87	421.83
480.23	421.89
480.60	421.83
480.96	421.96
481.33	422.59
481.69	423.13
482.06	423.54
482.42	423.97
482.79	424.58
483.15	425.50
483.52	426.63
483.88	427.51
484.25	428.50
484.61	429.66
484.98	430.89
485.34	432.58
485.71	434.28
486.07	436.11
486.44	437.63
486.80	439.75
487.17	441.92
487.53	444.38
487.90	446.86
488.26	449.63
488.62	452.47
488.99	455.36
489.35	458.26
489.72	461.43
490.08	464.95
490.44	468.30
490.81	471.87
491.17	475.44
491.54	479.48
491.90	483.62
492.26	487.87
492.63	492.25
492.99	496.63
493.36	501.31
493.72	506.28
494.08	511.40
494.45	516.60
494.81	521.95
495.17	527.39
495.54	533.26
495.90	539.06
496.26	545.02
496.63	551.06
496.99	557.50
497.35	564.13
497.72	570.88
498.08	577.83
498.44	584.79
498.80	592.14
499.17	599.64
499.53	607.19
499.89	614.71
500.26	622.38
500.62	630.02
500.98	638.01
501.34	645.85
501.71	653.88
502.07	661.91
502.43	670.20
502.79	678.52
503.16	686.79
503.52	695.44
503.88	704.06
504.24	712.65
504.60	721.21
504.97	729.90
505.33	738.40
505.69	747.60
506.05	756.76
506.41	765.55
506.78	773.94
507.14	782.33
507.50	791.22
507.86	800.04
508.22	808.98
508.59	817.41
508.95	826.05
509.31	834.83
509.67	843.55
510.03	852.19
510.39	861.01
510.75	869.66
511.12	878.03
511.48	886.36
511.84	894.80
512.20	903.13
512.56	911.50
512.92	919.87
513.28	927.79
513.64	935.46
514.00	943.36
514.37	951.23
514.73	959.53
515.09	967.36
515.45	974.85
515.81	982.40
516.17	989.96
516.53	997.30
516.89	1004.50
517.25	1011.40
517.61	1018.16
517.97	1024.69
518.33	1031.00
518.69	1037.62
519.05	1044.32
519.41	1050.72
519.77	1057.16
520.13	1063.23
520.49	1069.12
520.85	1074.85
521.21	1080.93
521.57	1086.64
521.93	1091.96
522.29	1097.45
522.65	1102.75
523.01	1108.29
523.37	1113.09
523.73	1118.17
524.09	1123.02
524.45	1127.86
524.81	1132.77
525.17	1137.90
525.53	1142.93
525.89	1147.77
526.25	1152.40
526.61	1156.22
526.97	1160.45
527.33	1164.52
527.68	1168.76
528.04	1172.77
528.40	1176.40
528.76	1179.86
529.12	1183.55
529.48	1187.93
529.84	1191.50
530.20	1195.09
530.56	1198.77
530.91	1202.94
531.27	1206.71
531.63	1210.22
531.99	1213.72
532.35	1216.86
532.71	1219.62
533.07	1222.99
533.42	1226.30
533.78	1229.33
534.14	1232.96
534.50	1235.50
534.86	1238.68
535.21	1241.13
535.57	1244.32
535.93	1247.25
536.29	1250.05
536.65	1252.79
537.00	1255.12
537.36	1257.14
537.72	1259.34
538.08	1261.36
538.44	1263.28
538.79	1265.61
539.15	1267.98
539.51	1270.16
539.87	1272.78
540.22	1275.27
540.58	1277.63
540.94	1279.76
541.29	1281.55
541.65	1283.00
542.01	1285.21
542.37	1286.94
542.72	1288.77
543.08	1290.19
543.44	1292.07
543.79	1293.31
544.15	1294.78
544.51	1296.35
544.87	1298.32
545.22	1299.95
545.58	1301.26
545.94	1302.42
546.29	1302.92
546.65	1303.70
547.01	1304.39
547.36	1305.08
547.72	1305.65
548.07	1305.59
548.43	1305.71
548.79	1306.00
549.14	1306.45
549.50	1306.85
549.86	1306.71
550.21	1306.90
550.57	1307.57
550.92	1307.42
551.28	1307.68
551.64	1307.86
551.99	1308.16
552.35	1308.00
552.70	1307.64
553.06	1308.07
553.41	1307.94
553.77	1308.47
554.13	1308.80
554.48	1309.21
554.84	1309.51
555.19	1309.71
555.55	1310.15
555.90	1310.07
556.26	1309.93
556.61	1309.64
556.97	1309.13
557.32	1309.28
557.68	1309.00
558.03	1308.11
558.39	1307.76
558.74	1307.52
559.10	1306.91
559.45	1306.28
559.81	1306.31
560.16	1305.80
560.52	1305.06
560.87	1305.01
561.23	1304.04
561.58	1303.62
561.94	1302.52
562.29	1301.40
562.64	1300.82
563.00	1300.11
563.35	1299.71
563.71	1299.77
564.06	1299.28
564.42	1299.24
564.77	1299.09
565.12	1299.18
565.48	1299.00
565.83	1298.62
566.19	1298.75
566.54	1298.40
566.89	1297.60
567.25	1297.08
567.60	1296.83
567.96	1296.63
568.31	1296.27
568.66	1295.93
569.02	1294.77
569.37	1293.80
569.72	1293.03
570.08	1291.72
570.43	1290.25
570.78	1288.84
571.14	1287.18
571.49	1285.62
571.84	1284.21
572.20	1281.89
572.55	1280.11
572.90	1277.80
573.26	1275.78
573.61	1273.31
573.96	1271.03
574.31	1268.82
574.67	1265.79
575.02	1262.98
575.37	1259.99
575.72	1256.43
576.08	1253.65
576.43	1250.44
576.78	1247.54
577.13	1244.92
577.49	1242.25
577.84	1239.29
578.19	1236.73
578.54	1234.35
578.90	1232.24
579.25	1229.01
579.60	1225.94
579.95	1222.26
580.30	1219.61
580.66	1216.79
581.01	1213.59
581.36	1210.06
581.71	1206.88
582.06	1203.98
582.42	1200.96
582.77	1197.20
583.12	1193.96
583.47	1190.58
583.82	1187.75
584.17	1184.39
584.53	1181.05
584.88	1177.40
585.23	1174.16
585.58	1170.34
585.93	1166.50
586.28	1162.55
586.63	1159.11
586.98	1155.78
587.34	1152.83
587.69	1149.05
588.04	1145.68
588.39	1142.18
588.74	1138.78
589.09	1135.38
589.44	1131.47
589.79	1128.08
590.14	1125.10
590.49	1121.56
590.84	1117.91
591.19	1114.50
591.54	1111.17
591.89	1106.84
592.25	1103.18
592.60	1099.25
592.95	1095.30
593.30	1090.93
593.65	1086.82
594.00	1082.70
594.35	1079.95
594.70	1075.74
595.05	1072.03
595.40	1067.83
595.75	1063.44
596.10	1059.79
596.45	1056.06
596.80	1052.74
597.15	1048.84
597.50	1044.74
597.85	1041.14
598.19	1037.23
598.54	1033.27
598.89	1029.33
599.24	1026.14
599.59	1022.42
599.94	1018.71
600.29	1015.21
600.64	1011.63
600.99	1007.77
601.34	1004.16
601.69	998.94
602.04	995.01
602.39	990.94
602.74	987.10
603.08	983.68
603.43	980.24
603.78	976.12
604.13	971.86
604.48	968.15
604.83	964.71
605.18	961.15
605.53	957.23
605.87	953.01
606.22	949.44
606.57	945.21
606.92	940.95
607.27	937.01
607.62	932.98
607.96	929.13
608.31	925.61
608.66	921.36
609.01	917.60
609.36	913.61
609.70	909.70
610.05	905.35
610.40	901.32
610.75	896.96
611.10	893.15
611.44	888.74
611.79	884.20
612.14	879.64
612.49	874.87
612.83	870.57
613.18	866.24
613.53	861.73
613.88	857.30
614.22	853.21
614.57	848.73
614.92	844.33
615.27	840.00
615.61	835.49
615.96	831.53
616.31	827.58
616.65	823.69
617.00	819.57
617.35	815.75
617.70	811.44
618.04	807.07
618.39	802.39
618.74	798.32
619.08	794.10
619.43	790.12
619.78	786.39
620.12	782.71
620.47	778.89
620.82	774.61
621.16	770.45
621.51	766.32
621.85	762.52
622.20	758.68
622.55	754.59
622.89	750.63
623.24	746.58
623.59	742.15
623.93	738.06
624.28	734.18
624.62	730.38
624.97	726.82
625.32	722.76
625.66	719.25
626.01	715.64
626.35	712.13
626.70	708.21
627.04	704.51
627.39	700.75
627.73	697.32
628.08	694.19
628.43	690.77
628.77	687.44
629.12	683.65
629.46	680.26
629.81	676.95
630.15	673.39
630.50	669.84
630.84	666.66
631.19	663.36
631.53	659.89
631.88	656.09
632.22	652.34
632.57	649.35
632.91	645.94
633.26	642.67
633.60	639.12
633.95	635.85
634.29	632.46
634.64	629.20
634.98	625.82
635.32	622.61
635.67	619.56
636.01	616.50
636.36	613.42
636.70	610.43
637.05	607.34
637.39	604.39
637.73	601.47
638.08	598.85
638.42	595.99
638.77	593.28
639.11	590.60
639.45	587.85
639.80	584.66
640.14	581.64
640.49	578.87
640.83	576.16
641.17	573.29
641.52	570.46
641.86	567.33
642.20	564.58
642.55	561.44
642.89	558.50
643.23	555.31
643.58	552.76
643.92	549.65
644.26	546.85
644.61	544.13
644.95	541.37
645.29	538.32
645.64	535.48
645.98	532.54
646.32	529.89
646.66	526.97
647.01	524.41
647.35	521.91
647.69	519.00
648.04	516.52
648.38	513.93
648.72	511.17
649.06	508.62
649.41	505.77
649.75	503.23
650.09	500.80
650.43	498.38
650.78	495.70
651.12	493.20
651.46	490.64
651.80	488.16
652.14	485.71
652.49	483.31
652.83	480.74
653.17	478.09
653.51	475.49
653.85	473.32
654.20	470.96
654.54	468.34
654.88	466.03
655.22	463.58
655.56	461.11
655.90	458.82
656.25	456.38
656.59	454.19
656.93	451.83
657.27	449.53
657.61	447.09
657.95	444.83
658.29	442.58
658.64	440.47
658.98	438.15
659.32	435.79
659.66	433.58
660.00	431.30
660.34	429.21
660.68	427.05
661.02	424.69
661.36	422.46
661.70	420.51
662.05	418.35
662.39	416.39
662.73	414.60
663.07	412.84
663.41	411.06
663.75	409.10
664.09	407.21
664.43	405.15
664.77	403.38
665.11	401.27
665.45	399.49
665.79	397.67
666.13	395.94
666.47	394.16
666.81	392.35
667.15	390.60
667.49	388.99
667.83	387.40
668.17	385.63
668.51	384.01
668.85	382.51
669.19	381.11
669.53	379.33
669.87	377.56
670.21	375.67
670.55	374.08
670.89	372.62
671.23	371.24
671.57	369.82
671.91	368.30
672.25	366.98
672.58	365.63
672.92	364.09
673.26	362.65
673.60	361.21
673.94	359.72
674.28	358.38
674.62	357.02
674.96	355.59
675.30	354.39
675.64	353.11
675.97	351.64
676.31	350.20
676.65	348.91
676.99	347.81
677.33	346.58
677.67	345.20
678.01	343.73
678.34	342.36
678.68	341.10
679.02	339.93
679.36	338.66
679.70	337.30
680.04	336.17
680.37	334.89
680.71	333.69
681.05	332.66
681.39	331.52
681.73	330.29
682.06	329.23
682.40	328.05
682.74	326.93
683.08	326.00
683.42	324.77
683.75	323.70
684.09	322.42
684.43	321.26
684.77	320.12
685.10	319.11
685.44	318.01
685.78	316.89
686.12	315.82
686.45	314.77
686.79	313.68
687.13	312.62
687.46	311.73
687.80	310.92
688.14	309.76
688.48	308.80
688.81	307.78
689.15	306.85
689.49	305.86
689.82	304.86
690.16	303.61
690.50	302.65
690.83	301.61
691.17	300.60
691.51	299.63
691.84	298.79
692.18	297.83
692.52	296.97
692.85	296.20
693.19	295.37
693.52	294.54
693.86	293.58
694.20	292.67
694.53	291.75
694.87	290.68
695.21	289.86
695.54	288.92
695.88	287.97
696.21	286.97
696.55	286.16
696.88	285.38
697.22	284.57
697.56	283.94
697.89	283.11
698.23	282.42
698.56	281.71
698.90	281.02
699.23	280.24
699.57	279.40
699.90	278.55
700.24	277.72
700.58	276.98
700.91	276.34
701.25	275.85
701.58	275.18
701.92	274.62
702.25	273.89
702.59	273.20
702.92	272.68
703.26	272.07
703.59	271.47
703.93	271.07
704.26	270.48
704.60	269.81
704.93	269.23
705.26	268.56
705.60	267.99
705.93	267.25
706.27	266.70
706.60	266.25
706.94	265.90
707.27	265.25
707.61	264.60
707.94	264.03
708.27	263.20
708.61	262.54
708.94	261.98
709.28	261.44
709.61	260.88
709.94	260.27
710.28	259.71
710.61	259.18
710.95	258.37
711.28	258.12
711.61	257.56
711.95	257.10
712.28	256.56
712.61	256.08
712.95	255.94
713.28	255.65
713.61	255.03
713.95	254.37
714.28	253.98
714.61	253.57
714.95	253.07
715.28	252.62
715.61	252.19
715.95	251.71
716.28	251.25
716.61	250.85
716.95	250.31
717.28	249.88
717.61	249.43
717.94	248.91
718.28	248.25
718.61	247.89
718.94	247.50
719.27	247.08
719.61	246.73
719.94	246.14
720.27	245.63
720.60	245.39
720.94	245.08
721.27	244.73
721.60	244.48
721.93	244.18
722.27	244.01
722.60	243.71
722.93	243.31
723.26	243.09
723.59	242.74
723.93	242.58
724.26	242.34
724.59	242.05
724.92	241.89
725.25	241.71
725.59	241.41
725.92	241.17
726.25	240.94
726.58	240.71
726.91	240.44
727.24	240.13
727.57	239.68
727.91	239.33
728.24	239.10
728.57	238.74
728.90	238.53
729.23	238.13
729.56	238.08
729.89	237.85
730.22	237.58
730.55	237.31
730.89	237.00
731.22	236.71
731.55	236.51
731.88	236.31
732.21	235.99
732.54	235.70
732.87	235.43
733.20	235.17
733.53	234.85
733.86	234.58
734.19	234.33
734.52	234.29
734.85	234.33
735.18	234.09
735.51	233.98
735.84	233.79
736.17	233.66
736.50	233.16
736.83	233.41
737.16	233.18
737.49	232.99
737.82	232.80
738.15	232.63
738.48	232.43
738.81	232.14
739.14	231.95
739.47	231.75
739.80	231.52
740.13	231.37
740.46	231.10
740.79	230.89
741.12	230.65
741.45	230.33
741.78	229.96
742.11	229.77
742.44	229.53
742.77	229.34
743.10	229.08
743.43	228.93
743.75	228.37
744.08	228.64
744.41	228.43
744.74	228.20
745.07	227.97
745.40	227.83
745.73	227.90
746.06	227.73
746.39	227.53
746.71	227.38
747.04	227.10
747.37	227.02
747.70	226.98
748.03	226.91
748.36	226.79
748.68	226.58
749.01	226.40
749.34	226.22
749.67	226.01
750.00	225.99
750.33	226.15
750.65	225.96
750.98	225.33
751.31	225.21
751.64	225.08
751.97	225.18
752.29	224.94
752.62	224.53
752.95	224.35
753.28	224.20
753.60	223.98
753.93	224.03
754.26	223.88
754.59	223.59
754.91	223.36
755.24	223.29
755.57	223.16
755.90	223.01
756.22	222.80
756.55	222.65
756.88	222.28
757.20	221.85
757.53	221.70
757.86	221.62
758.19	221.54
758.51	221.40
758.84	220.99
759.17	220.91
759.49	220.90
759.82	220.92
760.15	220.80
760.47	220.77
760.80	220.49
761.13	220.42
761.45	220.28
761.78	220.22
762.11	220.10
762.43	219.95
762.76	219.80
763.08	219.73
763.41	219.77
763.74	219.78
764.06	219.76
764.39	219.61
764.71	219.53
765.04	219.41
765.37	219.31
765.69	219.25
766.02	219.09
766.34	218.95
766.67	218.77
767.00	218.80
767.32	218.89
767.65	219.04
767.97	218.95
768.30	218.87
768.62	218.77
768.95	218.68
769.27	218.68
769.60	218.70
769.92	218.59
770.25	218.38
770.57	218.25
770.90	218.15
771.22	218.11
771.55	217.97
771.87	217.93
772.20	217.90
772.52	218.14
772.85	218.56
773.17	218.47
773.50	218.40
773.82	218.27
774.15	217.99
774.47	217.74
774.80	217.62
775.12	217.55
775.45	217.53
775.77	217.47
776.09	217.38
776.42	217.35
776.74	217.45
777.07	217.38
777.39	217.31
777.72	217.20
778.04	217.17
778.36	217.12
778.69	217.10
779.01	217.05
779.33	216.74
779.66	216.32
779.98	216.27
780.31	216.25
780.63	216.35
780.95	216.38
781.28	216.32
781.60	216.25
781.92	216.28
782.25	216.13
782.57	216.08
782.89	216.02
783.22	215.93
783.54	215.77
783.86	215.73
784.19	215.72
784.51	215.79
784.83	215.73
785.16	215.75
785.48	215.65
785.80	215.61
786.12	215.53
786.45	215.41
786.77	215.45
787.09	215.38
787.42	215.25
787.74	215.20
788.06	215.25
788.38	215.24
788.71	215.12
789.03	215.13
789.35	215.12
789.67	215.01
789.99	214.92
790.32	214.87
790.64	214.90
790.96	215.20
791.28	215.00
791.61	214.92
791.93	214.87
792.25	214.83
792.57	215.03
792.89	214.90
793.21	214.92
793.54	214.73
793.86	214.66
794.18	214.63
794.50	214.52
794.82	214.48
795.14	214.47
795.47	214.55
795.79	214.54
796.11	214.43
796.43	214.42
796.75	214.48
797.07	214.41
797.39	214.33
797.71	214.03
798.04	214.12
798.36	214.11
798.68	214.09
799.00	214.05
799.32	213.87
799.64	213.96
799.96	213.92
800.28	214.00
800.60	213.95
800.92	213.94
801.24	213.91
801.56	213.87
801.89	213.84
802.21	213.80
802.53	213.69
802.85	213.74
803.17	213.87
803.49	213.79
803.81	213.84
804.13	213.85
804.45	213.77
804.77	213.76
805.09	213.70
805.41	213.67
805.73	213.65
806.05	213.48
806.37	213.47
806.69	213.44
807.01	213.38
807.33	213.42
807.65	213.30
807.97	213.46
808.28	213.41
808.60	213.34
808.92	213.30
809.24	213.51
809.56	213.46
809.88	213.28
810.20	213.23
810.52	213.27
810.84	213.21
811.16	213.23
811.48	213.24
811.80	213.41
812.12	213.42
812.43	213.44
812.75	213.52
813.07	213.45
813.39	213.51
813.71	213.47
814.03	213.46
814.35	213.46
814.67	213.32
814.98	213.26
815.30	213.26
815.62	213.22
815.94	212.99
816.26	212.96
816.58	213.01
816.89	212.99
817.21	212.84
817.53	212.80
817.85	212.70
818.17	212.61
818.48	212.45
818.80	212.41
819.12	212.30
819.44	212.21
819.76	212.14
820.07	212.03
820.39	212.04
820.71	211.96
821.03	212.01
821.34	211.97
821.66	212.01
821.98	212.13
822.30	212.05
822.61	212.22
822.93	212.14
823.25	212.10
823.57	212.13
823.88	212.23
824.20	212.26
824.52	212.41
824.83	212.39
825.15	212.34
825.47	212.31
825.79	212.36
826.10	212.30
826.42	212.30
826.74	212.41
827.05	212.36
827.37	212.48
827.69	212.41
828.00	212.38
828.32	212.37
828.64	212.30
828.95	212.49
829.27	212.46
829.58	212.51
829.90	212.55
830.22	212.55
830.53	212.44
830.85	212.43
831.17	212.24
831.48	212.22
831.80	212.24
832.11	212.24
832.43	212.21
832.75	212.27
833.06	212.54
833.38	212.33
833.69	212.33
834.01	212.29
834.32	212.26
834.64	212.27
834.96	212.29
835.27	212.22
835.59	212.09
835.90	212.01
836.22	211.97
836.53	211.88
836.85	211.84
837.16	212.22
837.48	212.18
837.79	212.32
838.11	212.33
838.42	212.35
838.74	212.42
839.05	212.39
839.37	212.40
839.68	212.08
840.00	212.10
840.31	212.10
840.63	212.04
840.94	211.99
841.26	211.94
841.57	211.88
841.88	211.91
842.20	211.90
842.51	211.89
842.83	211.97
843.14	212.34
843.46	212.37
843.77	212.09
844.08	212.10
844.40	212.03
844.71	212.01
845.03	211.95
845.34	211.94
845.65	211.96
845.97	211.93
846.28	212.02
846.60	212.08
846.91	212.01
847.22	212.02
847.54	212.12
847.85	212.14
848.16	212.11
848.48	212.07
848.79	212.12
849.10	212.11
849.42	212.07
849.73	211.68
850.04	211.66
850.36	211.58
850.67	211.60
850.98	211.55
851.30	211.60
851.61	211.56
851.92	211.51
852.23	211.60
852.55	211.60
852.86	211.54
853.17	211.57
853.49	211.69
853.80	211.79
854.11	211.82
854.42	211.90
854.74	211.87
855.05	211.86
855.36	211.75
855.67	211.70
855.99	211.77
856.30	212.21
856.61	212.24
856.92	212.30
857.23	212.31
857.55	212.30
857.86	212.21
858.17	212.27
858.48	212.18
858.79	212.10
859.11	212.20
859.42	212.26
859.73	212.22
860.04	212.20
860.35	212.12
860.66	212.03
860.98	212.01
861.29	212.08
861.60	212.09
861.91	212.16
862.22	212.17
862.53	212.03
862.84	211.65
863.16	211.70
863.47	211.60
863.78	211.58
864.09	211.65
864.40	211.71
864.71	211.77
865.02	211.85
865.33	211.85
865.64	211.71
865.95	211.67
866.27	211.78
866.58	211.74
866.89	211.73
867.20	211.73
867.51	211.68
867.82	211.61
868.13	211.72
868.44	211.65
868.75	211.67
869.06	211.72
869.37	211.72
869.68	211.63
869.99	211.68
870.30	211.74
870.61	211.80
870.92	211.74
871.23	211.64
871.54	211.73
871.85	211.76
872.16	211.87
872.47	211.85
872.78	211.74
873.09	211.84
873.40	211.82
873.71	211.79
874.02	211.77
874.33	211.75
874.64	211.64
874.95	211.69
875.26	211.61
875.56	211.55
875.87	211.57
876.18	211.51
876.49	211.89
876.80	211.86
877.11	211.78
877.42	211.83
877.73	211.88
878.04	211.81
878.35	211.79
878.66	211.74
878.96	211.73
879.27	211.67
879.58	211.61
879.89	211.59
880.20	211.76
880.51	211.74
880.82	211.74
881.12	211.76
881.43	211.72
881.74	211.66
882.05	211.66
882.36	211.65
882.67	211.70
882.97	211.27
883.28	211.20
883.59	211.12
883.90	211.15
884.21	211.15
884.51	211.12
884.82	211.11
885.13	211.07
885.44	211.04
885.74	211.08
886.05	211.06
886.36	211.02
886.67	210.85
886.98	211.00
887.28	211.00
887.59	210.99
887.90	210.97
888.20	211.04
888.51	211.05
888.82	210.94
889.13	210.96
889.43	211.25
889.74	211.21
890.05	211.24
890.35	211.14
890.66	211.06
890.97	211.06
891.28	211.01
891.58	211.00
891.89	211.07
892.20	211.02
892.50	210.94
892.81	210.93
893.12	210.89
893.42	210.81
893.73	210.89
894.04	210.91
894.34	211.01
894.65	211.00
894.95	210.99
895.26	211.06
895.57	211.15
895.87	210.82
896.18	210.88
896.48	210.86
896.79	210.91
897.10	210.98
897.40	210.90
897.71	210.97
898.01	210.91
898.32	210.90
898.63	210.93
898.93	210.98
899.24	211.01
899.54	211.01
899.85	210.95
900.15	210.92
900.46	210.88
900.76	210.80
901.07	210.80
901.38	210.86
901.68	210.90
901.99	210.69
902.29	210.81
902.60	210.82
902.90	210.81
903.21	210.88
903.51	210.91
903.82	211.00
904.12	210.91
904.43	211.02
904.73	211.03
905.03	211.04
905.34	211.36
905.64	211.38
905.95	211.38
906.25	211.34
906.56	211.33
906.86	211.35
907.17	211.33
907.47	211.38
907.77	211.38
908.08	211.32
908.38	211.42
908.69	211.38
908.99	211.48
909.30	211.48
909.60	211.41
909.90	211.38
910.21	211.36
910.51	211.43
910.81	211.41
911.12	211.39
911.42	211.37
911.73	210.95
912.03	210.94
912.33	211.04
912.64	210.99
912.94	211.07
913.24	211.04
913.55	211.05
913.85	211.05
914.15	211.06
914.46	211.07
914.76	210.99
915.06	211.00
915.37	210.89
915.67	210.92
915.97	210.87
916.27	210.81
916.58	210.78
916.88	210.76
917.18	210.75
917.49	211.03
917.79	211.03
918.09	211.18
918.39	211.31
918.70	211.28
919.00	211.35
919.30	211.49
919.60	211.48
919.91	211.43
920.21	211.39
920.51	211.30
920.81	211.30
921.12	211.42
921.42	211.31
921.72	211.32
922.02	211.31
922.32	211.42
922.63	211.47
922.93	211.62
923.23	211.65
923.53	211.63
923.83	211.38
924.13	211.41
924.44	211.38
924.74	211.44
925.04	211.50
925.34	211.53
925.64	211.35
925.94	211.34
926.24	211.54
926.55	211.57
926.85	211.64
927.15	211.67
927.45	211.65
927.75	211.75
928.05	211.81
928.35	211.78
928.65	211.82
928.95	211.86
929.26	211.79
929.56	211.80
929.86	211.81
930.16	211.84
930.46	211.86
930.76	211.84
931.06	211.67
931.36	211.63
931.66	211.63
931.96	211.65
932.26	211.66
932.56	211.50
932.86	211.49
933.16	211.50
933.46	211.45
933.76	211.42
934.06	211.45
934.36	211.54
934.66	211.51
934.96	211.44
935.26	211.40
935.56	211.42
935.86	211.38
936.16	211.30
936.46	211.21
936.76	211.12
937.06	211.03
937.36	211.11
937.66	211.08
937.96	211.05
938.26	211.02
938.56	210.99
938.86	211.04
939.16	211.13
939.46	211.13
939.76	211.17
940.06	211.16
940.35	211.04
940.65	210.83
940.95	210.93
941.25	210.80
941.55	210.80
941.85	210.76
942.15	210.85
942.45	210.95
942.75	211.00
943.04	211.01
943.34	211.14
943.64	211.08
943.94	211.05
944.24	211.05
944.54	211.02
944.84	211.00
945.13	210.99
945.43	210.90
945.73	210.91
946.03	210.84
946.33	210.77
946.62	210.80
946.92	210.85
947.22	210.85
947.52	210.93
947.82	211.04
948.11	211.06
948.41	210.91
948.71	210.89
949.01	210.90
949.31	210.95
949.60	210.90
949.90	210.95
950.20	210.96
950.50	210.95
950.79	210.93
951.09	211.02
951.39	210.94
951.69	210.92
951.98	210.96
952.28	210.99
952.58	211.06
952.87	211.05
953.17	211.13
953.47	211.08
953.76	211.08
954.06	210.94
954.36	210.94
954.66	210.99
954.95	211.08
955.25	211.05
955.55	211.07
955.84	210.99
956.14	211.01
956.44	211.04
956.73	210.97
957.03	211.02
957.32	211.02
957.62	211.08
957.92	211.16
958.21	211.11
958.51	211.53
958.81	211.53
959.10	211.56
959.40	211.61
959.69	211.71
959.99	211.71
960.29	211.74
960.58	211.69
960.88	211.81
961.17	211.76
961.47	211.84
961.76	211.80
962.06	211.97
962.36	211.93
962.65	211.95
962.95	212.02
963.24	212.01
963.54	212.02
963.83	212.04
964.13	212.05
964.42	212.02
964.72	211.79
965.01	211.83
965.31	211.83
965.60	211.76
965.90	211.90
966.19	211.88
966.49	211.84
966.78	211.87
967.08	211.87
967.37	211.89
967.67	211.74
967.96	211.82
968.26	211.75
968.55	211.81
968.85	211.76
969.14	211.73
969.43	211.80
969.73	211.78
970.02	211.80
970.32	211.77
970.61	211.77
970.91	211.60
971.20	211.49
971.49	211.50
971.79	211.49
972.08	211.25
972.38	211.32
972.67	211.31
972.96	211.35
973.26	211.30
973.55	211.31
973.85	211.37
974.14	211.31
974.43	211.39
974.73	211.29
975.02	211.27
975.31	211.27
975.61	211.21
975.90	211.14
976.19	211.06
976.49	211.03
976.78	211.02
977.07	211.04
977.37	211.19
977.66	211.21
977.95	211.11
978.24	211.16
978.54	211.21
978.83	211.20
979.12	211.15
979.42	211.03
979.71	211.05
980.00	211.05
980.29	211.05
980.59	210.90
980.88	210.99
981.17	210.98
981.46	211.00
981.76	210.95
982.05	211.02
982.34	211.10
982.63	211.15
982.93	211.09
983.22	211.20
983.51	211.10
983.80	211.10
984.09	211.16
984.39	211.18
984.68	211.05
984.97	211.13
985.26	211.05
985.55	211.23
985.85	211.13
986.14	211.18
986.43	211.22
986.72	211.20
987.01	211.09
987.30	211.11
987.59	211.13
987.89	211.12
988.18	211.08
988.47	211.04
988.76	210.95
989.05	210.97
989.34	210.83
989.63	210.94
989.92	210.91
990.22	210.88
990.51	210.83
990.80	210.90
991.09	210.88
991.38	210.93
991.67	210.75
991.96	210.71
992.25	210.71
992.54	210.65
992.83	210.70
993.12	210.64
993.41	210.64
993.70	210.75
993.99	210.85
994.28	210.87
994.58	210.84
994.87	210.86
995.16	210.91
995.45	210.90
995.74	210.79
996.03	210.84
996.32	210.90
996.61	210.94
996.90	210.89
997.19	210.95
997.48	210.97
997.77	211.00
998.06	211.04
998.34	210.99
998.63	211.00
998.92	211.01
999.21	211.07
999.50	211.09
999.79	210.99
1000.08	211.01
1000.37	211.02
1000.66	211.01
1000.95	211.14
1001.24	211.08
1001.53	211.13
1001.82	211.08
1002.11	211.01
1002.40	211.07
1002.68	211.10
1002.97	211.37
1003.26	211.24
1003.55	211.23
1003.84	211.23
1004.13	211.32
1004.42	211.38
1004.71	211.34
1004.99	211.26
1005.28	211.46
1005.57	211.49
1005.86	211.39
1006.15	211.35
1006.44	211.33
1006.72	211.38
1007.01	211.26
1007.30	211.31
1007.59	211.30
1007.88	211.33
1008.17	211.35
1008.45	211.29
1008.74	211.21
1009.03	211.06
1009.32	211.05
1009.60	211.02
1009.89	211.06
1010.18	210.92
1010.47	210.84
1010.76	210.85
1011.04	210.90
1011.33	210.84
1011.62	210.80
1011.91	210.90
1012.19	210.88
1012.48	210.85
1012.77	210.86
1013.05	211.01
1013.34	211.04
1013.63	211.03
1013.92	210.99
1014.20	210.98
1014.49	211.00
1014.78	210.95
1015.06	210.88
1015.35	210.89
1015.64	210.96
1015.92	210.95
1016.21	211.02
1016.50	211.03
1016.78	211.08
1017.07	211.05
1017.36	210.93
1017.64	210.93
1017.93	210.95
1018.22	210.91
1018.50	210.91
1018.79	210.85
1019.08	210.66
1019.36	210.63
1019.65	210.62
1019.93	210.79
1020.22	210.80
1020.51	210.94
1020.79	210.94
1021.08	210.50
1021.36	210.05
1021.65	210.30
1021.94	209.95
1022.22	211.00
1022.51	210.20
1022.79	213.20
1023.08	211.10
1023.36	214.45
1023.65	209.90
>>>>>End Processed Spectral Data<<<<<
