SpectraSuite Data File
++++++++++++++++++++++++++++++++++++
Date: Mon Feb 25 17:04:14 EST 2013
User: group
Dark Spectrum Present: No
Reference Spectrum Present: No
Number of Sampled Component Spectra: 1
Spectrometers: USB2E7196
Integration Time (usec): 104000 (USB2E7196)
Spectra Averaged: 20 (USB2E7196)
Boxcar Smoothing: 10 (USB2E7196)
Correct for Electrical Dark: No (USB2E7196)
Strobe/Lamp Enabled: No (USB2E7196)
Correct for Detector Non-linearity: No (USB2E7196)
Correct for Stray Light: No (USB2E7196)
Number of Pixels in Processed Spectrum: 2048
>>>>>Begin Processed Spectral Data<<<<<
339.09	0.00
339.48	199.50
339.86	199.55
340.24	202.25
340.63	201.95
341.01	210.20
341.39	204.50
341.78	208.15
342.16	209.25
342.54	207.45
342.93	198.25
343.31	208.22
343.69	208.70
344.07	209.15
344.46	209.58
344.84	209.97
345.22	209.91
345.60	210.17
345.99	210.28
346.37	210.38
346.75	210.45
347.13	210.48
347.52	210.52
347.90	210.53
348.28	210.50
348.66	210.54
349.05	210.46
349.43	210.44
349.81	210.43
350.19	210.45
350.57	210.47
350.96	210.50
351.34	210.55
351.72	210.57
352.10	210.65
352.48	210.67
352.87	210.64
353.25	210.68
353.63	210.72
354.01	210.74
354.39	210.73
354.77	210.84
355.15	211.00
355.54	210.93
355.92	210.88
356.30	210.99
356.68	211.28
357.06	211.36
357.44	211.35
357.82	211.33
358.20	211.42
358.58	211.46
358.97	211.49
359.35	211.68
359.73	211.78
360.11	211.80
360.49	211.77
360.87	211.89
361.25	212.03
361.63	212.15
362.01	212.17
362.39	212.23
362.77	212.24
363.15	212.22
363.53	212.28
363.91	212.33
364.29	212.31
364.67	211.93
365.05	211.93
365.43	211.98
365.81	212.07
366.19	212.23
366.57	212.33
366.95	212.35
367.33	212.20
367.71	212.30
368.09	212.39
368.47	212.42
368.85	212.33
369.23	212.36
369.61	212.29
369.99	212.45
370.37	212.43
370.75	212.62
371.13	212.46
371.51	212.47
371.89	212.48
372.27	212.51
372.65	212.60
373.03	212.63
373.41	212.64
373.78	212.67
374.16	212.46
374.54	212.41
374.92	212.36
375.30	212.34
375.68	212.17
376.06	212.09
376.44	212.08
376.82	212.13
377.19	212.12
377.57	212.08
377.95	211.93
378.33	211.91
378.71	211.70
379.09	211.78
379.47	211.73
379.84	211.63
380.22	211.53
380.60	211.40
380.98	211.35
381.36	211.30
381.73	211.14
382.11	211.17
382.49	211.13
382.87	211.02
383.25	210.96
383.62	211.37
384.00	211.35
384.38	211.28
384.76	211.36
385.13	211.42
385.51	211.35
385.89	211.32
386.27	211.28
386.64	211.24
387.02	211.21
387.40	211.14
387.78	211.14
388.15	211.14
388.53	211.16
388.91	211.11
389.29	211.07
389.66	211.17
390.04	211.08
390.42	211.07
390.79	211.05
391.17	211.06
391.55	210.56
391.92	210.53
392.30	210.50
392.68	210.37
393.05	210.28
393.43	210.36
393.81	210.43
394.18	210.40
394.56	210.42
394.94	210.49
395.31	210.51
395.69	210.72
396.06	210.79
396.44	210.75
396.82	210.73
397.19	210.94
397.57	210.90
397.95	210.94
398.32	210.85
398.70	210.96
399.07	211.04
399.45	211.16
399.82	211.15
400.20	211.17
400.58	211.23
400.95	211.11
401.33	211.11
401.70	211.29
402.08	211.28
402.45	211.31
402.83	211.37
403.20	211.43
403.58	211.33
403.95	211.38
404.33	211.50
404.71	211.61
405.08	211.82
405.46	211.92
405.83	212.10
406.21	212.28
406.58	212.35
406.96	212.46
407.33	212.58
407.70	212.77
408.08	213.32
408.45	213.58
408.83	213.91
409.20	214.20
409.58	214.20
409.95	214.53
410.33	214.87
410.70	215.06
411.08	215.36
411.45	215.79
411.82	216.09
412.20	216.52
412.57	217.14
412.95	217.25
413.32	217.78
413.69	218.29
414.07	218.89
414.44	219.58
414.82	220.26
415.19	221.03
415.56	221.80
415.94	222.36
416.31	223.24
416.68	224.12
417.06	225.14
417.43	226.21
417.81	227.39
418.18	228.52
418.55	229.73
418.93	231.12
419.30	232.42
419.67	233.95
420.04	235.47
420.42	237.00
420.79	239.11
421.16	240.83
421.54	242.83
421.91	244.74
422.28	246.72
422.66	248.90
423.03	251.13
423.40	253.32
423.77	255.65
424.15	257.97
424.52	260.44
424.89	263.16
425.26	265.73
425.64	268.23
426.01	270.96
426.38	273.88
426.75	276.87
427.13	279.93
427.50	283.10
427.87	286.35
428.24	289.57
428.61	292.62
428.99	296.38
429.36	300.10
429.73	303.79
430.10	307.55
430.47	311.33
430.85	315.19
431.22	319.43
431.59	324.09
431.96	328.42
432.33	333.25
432.70	337.82
433.08	343.40
433.45	348.62
433.82	353.91
434.19	359.75
434.56	365.39
434.93	370.87
435.30	376.36
435.68	382.46
436.05	388.50
436.42	394.47
436.79	399.88
437.16	405.75
437.53	412.04
437.90	418.28
438.27	424.53
438.64	430.91
439.01	437.06
439.38	442.26
439.75	447.46
440.13	453.40
440.50	458.95
440.87	463.46
441.24	468.22
441.61	473.41
441.98	477.36
442.35	482.03
442.72	486.59
443.09	491.05
443.46	493.85
443.83	495.95
444.20	497.70
444.57	500.19
444.94	501.51
445.31	503.13
445.68	504.87
446.05	505.68
446.42	505.51
446.79	505.19
447.16	504.72
447.53	504.72
447.90	502.79
448.27	500.91
448.64	498.16
449.01	496.21
449.37	492.51
449.74	488.90
450.11	484.62
450.48	479.75
450.85	474.72
451.22	470.58
451.59	466.55
451.96	462.74
452.33	457.53
452.70	452.92
453.07	447.03
453.43	440.80
453.80	435.26
454.17	429.85
454.54	424.64
454.91	419.21
455.28	413.66
455.65	408.57
456.02	404.00
456.38	399.71
456.75	394.40
457.12	389.95
457.49	385.53
457.86	381.06
458.23	377.61
458.59	373.71
458.96	369.67
459.33	365.99
459.70	362.41
460.07	359.49
460.43	356.04
460.80	352.98
461.17	350.31
461.54	347.35
461.91	344.60
462.27	341.92
462.64	339.48
463.01	336.90
463.38	334.44
463.74	331.46
464.11	329.22
464.48	327.29
464.85	325.12
465.21	323.58
465.58	321.86
465.95	319.74
466.32	317.94
466.68	316.17
467.05	314.42
467.42	312.69
467.78	310.77
468.15	309.22
468.52	307.93
468.88	306.23
469.25	304.72
469.62	303.55
469.98	302.11
470.35	300.93
470.72	299.65
471.08	298.28
471.45	297.23
471.82	296.20
472.18	294.96
472.55	294.20
472.92	293.01
473.28	292.04
473.65	291.03
474.02	290.10
474.38	289.34
474.75	288.72
475.11	287.91
475.48	287.43
475.85	286.80
476.21	286.25
476.58	285.84
476.94	285.53
477.31	285.09
477.67	284.62
478.04	284.26
478.41	284.08
478.77	284.20
479.14	283.93
479.50	283.62
479.87	283.60
480.23	283.31
480.60	283.16
480.96	283.11
481.33	283.28
481.69	283.29
482.06	283.31
482.42	283.23
482.79	283.31
483.15	283.44
483.52	283.63
483.88	283.71
484.25	283.84
484.61	283.91
484.98	284.02
485.34	284.47
485.71	284.80
486.07	285.02
486.44	285.07
486.80	285.45
487.17	285.86
487.53	286.30
487.90	286.93
488.26	287.57
488.62	288.22
488.99	288.69
489.35	289.41
489.72	290.06
490.08	290.82
490.44	291.60
490.81	292.43
491.17	293.22
491.54	294.20
491.90	295.15
492.26	296.06
492.63	297.09
492.99	298.06
493.36	299.14
493.72	300.32
494.08	301.57
494.45	302.70
494.81	303.99
495.17	305.15
495.54	306.44
495.90	307.66
496.26	308.86
496.63	310.23
496.99	311.48
497.35	312.84
497.72	314.22
498.08	315.48
498.44	316.83
498.80	318.30
499.17	319.63
499.53	320.91
499.89	322.34
500.26	323.75
500.62	325.00
500.98	326.50
501.34	327.82
501.71	329.22
502.07	330.58
502.43	331.84
502.79	333.04
503.16	334.17
503.52	335.36
503.88	336.43
504.24	337.62
504.60	338.88
504.97	340.06
505.33	341.10
505.69	342.38
506.05	343.49
506.41	344.57
506.78	345.48
507.14	346.45
507.50	347.47
507.86	348.41
508.22	349.40
508.59	350.05
508.95	350.92
509.31	351.68
509.67	352.48
510.03	353.32
510.39	354.18
510.75	354.87
511.12	355.52
511.48	356.33
511.84	356.87
512.20	357.44
512.56	358.04
512.92	358.72
513.28	359.21
513.64	359.64
514.00	360.00
514.37	360.45
514.73	360.95
515.09	361.32
515.45	361.53
515.81	361.78
516.17	362.12
516.53	362.37
516.89	362.51
517.25	362.70
517.61	362.93
517.97	363.11
518.33	363.44
518.69	363.77
519.05	363.90
519.41	364.23
519.77	364.68
520.13	364.99
520.49	365.18
520.85	365.40
521.21	365.81
521.57	366.16
521.93	366.44
522.29	366.67
522.65	366.95
523.01	367.47
523.37	367.91
523.73	368.42
524.09	368.95
524.45	369.36
524.81	369.95
525.17	370.49
525.53	371.17
525.89	371.85
526.25	372.60
526.61	373.41
526.97	374.17
527.33	374.97
527.68	376.06
528.04	376.98
528.40	377.99
528.76	378.97
529.12	380.01
529.48	381.35
529.84	382.55
530.20	383.99
530.56	385.33
530.91	386.71
531.27	388.20
531.63	389.64
531.99	391.24
532.35	392.78
532.71	394.41
533.07	396.03
533.42	398.00
533.78	399.72
534.14	401.46
534.50	403.23
534.86	404.96
535.21	406.62
535.57	408.55
535.93	410.56
536.29	412.69
536.65	414.68
537.00	416.57
537.36	418.70
537.72	420.66
538.08	422.86
538.44	425.10
538.79	427.18
539.15	429.38
539.51	431.72
539.87	434.09
540.22	436.50
540.58	438.94
540.94	441.17
541.29	443.58
541.65	446.03
542.01	448.65
542.37	451.25
542.72	453.77
543.08	456.41
543.44	459.05
543.79	461.33
544.15	464.07
544.51	467.01
544.87	469.87
545.22	472.54
545.58	475.19
545.94	477.81
546.29	480.66
546.65	483.41
547.01	486.14
547.36	488.95
547.72	491.55
548.07	494.37
548.43	497.04
548.79	499.64
549.14	502.40
549.50	505.04
549.86	507.60
550.21	510.25
550.57	512.88
550.92	515.41
551.28	518.06
551.64	520.60
551.99	523.14
552.35	525.54
552.70	528.10
553.06	530.81
553.41	533.31
553.77	535.85
554.13	538.41
554.48	541.08
554.84	543.52
555.19	546.17
555.55	548.75
555.90	551.08
556.26	553.41
556.61	555.65
556.97	557.80
557.32	560.09
557.68	562.34
558.03	564.56
558.39	566.48
558.74	568.75
559.10	571.01
559.45	573.09
559.81	575.40
560.16	577.52
560.52	579.46
560.87	581.72
561.23	583.55
561.58	585.76
561.94	587.72
562.29	589.55
562.64	591.38
563.00	593.27
563.35	595.24
563.71	597.40
564.06	599.32
564.42	601.42
564.77	603.45
565.12	605.32
565.48	607.49
565.83	609.72
566.19	611.50
566.54	613.13
566.89	614.91
567.25	616.70
567.60	618.61
567.96	620.54
568.31	622.16
568.66	623.87
569.02	625.00
569.37	626.03
569.72	627.55
570.08	628.89
570.43	629.82
570.78	630.79
571.14	631.55
571.49	632.49
571.84	633.32
572.20	634.03
572.55	634.92
572.90	635.14
573.26	635.60
573.61	636.24
573.96	636.83
574.31	637.10
574.67	637.38
575.02	637.29
575.37	637.07
575.72	636.94
576.08	637.00
576.43	637.14
576.78	637.42
577.13	637.44
577.49	637.61
577.84	637.87
578.19	638.13
578.54	638.48
578.90	638.72
579.25	638.75
579.60	638.61
579.95	638.40
580.30	638.61
580.66	638.82
581.01	638.70
581.36	638.51
581.71	638.47
582.06	638.51
582.42	638.62
582.77	638.57
583.12	638.68
583.47	638.75
583.82	638.79
584.17	638.85
584.53	638.95
584.88	638.66
585.23	638.49
585.58	638.37
585.93	638.15
586.28	637.97
586.63	637.81
586.98	637.74
587.34	637.77
587.69	637.40
588.04	636.90
588.39	636.68
588.74	636.31
589.09	636.07
589.44	635.36
589.79	634.96
590.14	634.70
590.49	634.30
590.84	633.70
591.19	633.34
591.54	632.85
591.89	631.96
592.25	631.54
592.60	630.57
592.95	629.74
593.30	628.81
593.65	627.94
594.00	626.96
594.35	627.03
594.70	626.00
595.05	625.28
595.40	624.55
595.75	623.51
596.10	622.87
596.45	621.88
596.80	621.21
597.15	620.45
597.50	619.49
597.85	618.62
598.19	617.65
598.54	616.62
598.89	615.61
599.24	615.02
599.59	613.93
599.94	613.35
600.29	612.48
600.64	611.75
600.99	610.82
601.34	610.17
601.69	608.34
602.04	607.35
602.39	606.40
602.74	605.64
603.08	605.20
603.43	604.57
603.78	603.80
604.13	602.98
604.48	602.18
604.83	601.47
605.18	600.67
605.53	599.97
605.87	599.14
606.22	598.30
606.57	597.18
606.92	596.42
607.27	595.38
607.62	594.31
607.96	593.45
608.31	592.69
608.66	591.69
609.01	590.70
609.36	589.62
609.70	588.49
610.05	587.17
610.40	585.76
610.75	584.29
611.10	583.29
611.44	581.89
611.79	580.45
612.14	579.05
612.49	577.45
612.83	576.00
613.18	574.51
613.53	573.04
613.88	571.60
614.22	570.18
614.57	568.68
614.92	567.42
615.27	565.80
615.61	564.20
615.96	562.79
616.31	561.36
616.65	560.15
617.00	558.66
617.35	557.17
617.70	555.59
618.04	553.96
618.39	552.06
618.74	550.53
619.08	549.04
619.43	547.46
619.78	546.04
620.12	544.50
620.47	543.05
620.82	541.32
621.16	539.54
621.51	537.86
621.85	536.19
622.20	534.29
622.55	532.69
622.89	530.92
623.24	529.14
623.59	527.50
623.93	525.78
624.28	524.20
624.62	522.93
624.97	521.50
625.32	519.94
625.66	518.53
626.01	516.89
626.35	515.26
626.70	513.64
627.04	512.11
627.39	510.44
627.73	508.88
628.08	507.50
628.43	505.96
628.77	504.27
629.12	502.65
629.46	501.40
629.81	499.86
630.15	498.39
630.50	496.73
630.84	495.03
631.19	493.46
631.53	491.87
631.88	489.85
632.22	487.98
632.57	486.65
632.91	484.99
633.26	483.58
633.60	481.96
633.95	480.51
634.29	478.85
634.64	477.43
634.98	475.69
635.32	474.07
635.67	472.61
636.01	471.12
636.36	469.59
636.70	468.15
637.05	466.63
637.39	465.14
637.73	463.81
638.08	462.60
638.42	461.23
638.77	459.95
639.11	458.49
639.45	457.10
639.80	455.24
640.14	453.74
640.49	452.17
640.83	450.55
641.17	448.96
641.52	447.36
641.86	445.74
642.20	444.33
642.55	442.62
642.89	441.04
643.23	439.46
643.58	438.15
643.92	436.31
644.26	434.67
644.61	433.09
644.95	431.53
645.29	429.92
645.64	428.27
645.98	426.57
646.32	425.16
646.66	423.47
647.01	422.03
647.35	420.52
647.69	418.79
648.04	417.45
648.38	415.95
648.72	414.45
649.06	412.85
649.41	411.36
649.75	409.88
650.09	408.49
650.43	407.04
650.78	405.41
651.12	403.91
651.46	402.35
651.80	400.99
652.14	399.47
652.49	398.00
652.83	396.35
653.17	394.65
653.51	392.95
653.85	391.65
654.20	390.22
654.54	388.58
654.88	387.19
655.22	385.66
655.56	384.11
655.90	382.64
656.25	381.18
656.59	379.69
656.93	378.38
657.27	377.07
657.61	375.45
657.95	374.03
658.29	372.71
658.64	371.56
658.98	369.97
659.32	368.54
659.66	367.02
660.00	365.73
660.34	364.43
660.68	363.12
661.02	361.66
661.36	360.31
661.70	359.04
662.05	357.72
662.39	356.47
662.73	355.35
663.07	354.32
663.41	353.18
663.75	351.86
664.09	350.57
664.43	349.19
664.77	348.14
665.11	346.81
665.45	345.53
665.79	344.30
666.13	343.12
666.47	341.83
666.81	340.72
667.15	339.49
667.49	338.50
667.83	337.59
668.17	336.49
668.51	335.44
668.85	334.48
669.19	333.58
669.53	332.44
669.87	331.20
670.21	330.01
670.55	328.94
670.89	328.06
671.23	327.10
671.57	326.06
671.91	324.97
672.25	324.06
672.58	323.25
672.92	322.10
673.26	321.14
673.60	320.29
673.94	319.33
674.28	318.47
674.62	317.54
674.96	316.43
675.30	315.58
675.64	314.64
675.97	313.66
676.31	312.76
676.65	311.85
676.99	311.12
677.33	310.28
677.67	309.40
678.01	308.46
678.34	307.60
678.68	306.79
679.02	305.95
679.36	305.02
679.70	304.15
680.04	303.38
680.37	302.60
680.71	301.79
681.05	300.99
681.39	300.19
681.73	299.37
682.06	298.67
682.40	297.89
682.74	297.13
683.08	296.45
683.42	295.46
683.75	294.79
684.09	293.98
684.43	293.08
684.77	292.15
685.10	291.32
685.44	290.41
685.78	289.65
686.12	288.95
686.45	288.26
686.79	287.44
687.13	286.77
687.46	285.99
687.80	285.39
688.14	284.55
688.48	283.92
688.81	283.17
689.15	282.48
689.49	281.70
689.82	281.01
690.16	280.17
690.50	279.49
690.83	278.72
691.17	277.94
691.51	277.23
691.84	276.71
692.18	276.06
692.52	275.46
692.85	274.88
693.19	274.32
693.52	273.65
693.86	272.99
694.20	272.32
694.53	271.74
694.87	270.95
695.21	270.35
695.54	269.66
695.88	268.90
696.21	268.19
696.55	267.65
696.88	266.96
697.22	266.41
697.56	265.87
697.89	265.21
698.23	264.64
698.56	264.15
698.90	263.61
699.23	263.05
699.57	262.52
699.90	261.93
700.24	261.29
700.58	260.78
700.91	260.30
701.25	259.98
701.58	259.48
701.92	259.07
702.25	258.64
702.59	258.10
702.92	257.66
703.26	257.20
703.59	256.74
703.93	256.56
704.26	256.03
704.60	255.60
704.93	255.14
705.26	254.61
705.60	254.19
705.93	253.65
706.27	253.29
706.60	253.03
706.94	252.70
707.27	252.25
707.61	251.93
707.94	251.44
708.27	250.73
708.61	250.24
708.94	249.80
709.28	249.35
709.61	248.94
709.94	248.62
710.28	248.22
710.61	247.78
710.95	247.10
711.28	247.00
711.61	246.56
711.95	246.33
712.28	246.01
712.61	245.63
712.95	245.52
713.28	245.29
713.61	244.80
713.95	244.32
714.28	244.04
714.61	243.64
714.95	243.34
715.28	243.09
715.61	242.84
715.95	242.48
716.28	242.07
716.61	241.78
716.95	241.41
717.28	241.12
717.61	240.79
717.94	240.53
718.28	239.95
718.61	239.70
718.94	239.33
719.27	238.99
719.61	238.71
719.94	238.25
720.27	237.79
720.60	237.50
720.94	237.25
721.27	236.92
721.60	236.67
721.93	236.39
722.27	236.29
722.60	235.99
722.93	235.76
723.26	235.54
723.59	235.22
723.93	234.98
724.26	234.80
724.59	234.61
724.92	234.48
725.25	234.37
725.59	234.13
725.92	233.98
726.25	233.79
726.58	233.58
726.91	233.34
727.24	233.19
727.57	233.00
727.91	232.75
728.24	232.65
728.57	232.36
728.90	232.24
729.23	231.75
729.56	231.80
729.89	231.57
730.22	231.41
730.55	231.28
730.89	231.12
731.22	230.83
731.55	230.62
731.88	230.46
732.21	230.19
732.54	230.05
732.87	229.85
733.20	229.70
733.53	229.45
733.86	229.33
734.19	229.06
734.52	228.93
734.85	229.03
735.18	228.66
735.51	228.68
735.84	228.53
736.17	228.61
736.50	228.23
736.83	228.47
737.16	228.34
737.49	228.19
737.82	227.99
738.15	227.89
738.48	227.80
738.81	227.50
739.14	227.33
739.47	227.14
739.80	226.97
740.13	226.85
740.46	226.73
740.79	226.48
741.12	226.37
741.45	226.17
741.78	225.75
742.11	225.84
742.44	225.59
742.77	225.43
743.10	225.22
743.43	225.11
743.75	224.64
744.08	224.94
744.41	224.78
744.74	224.57
745.07	224.35
745.40	224.25
745.73	224.28
746.06	224.18
746.39	224.02
746.71	223.85
747.04	223.63
747.37	223.48
747.70	223.46
748.03	223.34
748.36	223.17
748.68	223.08
749.01	222.79
749.34	222.68
749.67	222.59
750.00	222.52
750.33	222.64
750.65	222.54
750.98	221.97
751.31	221.86
751.64	221.86
751.97	222.04
752.29	221.83
752.62	221.62
752.95	221.46
753.28	221.30
753.60	221.12
753.93	221.12
754.26	221.00
754.59	220.75
754.91	220.58
755.24	220.47
755.57	220.37
755.90	220.28
756.22	220.09
756.55	219.93
756.88	219.74
757.20	219.35
757.53	219.12
757.86	219.09
758.19	218.99
758.51	218.87
758.84	218.53
759.17	218.47
759.49	218.35
759.82	218.45
760.15	218.47
760.47	218.46
760.80	218.22
761.13	218.27
761.45	218.19
761.78	218.14
762.11	218.06
762.43	217.91
762.76	217.84
763.08	217.81
763.41	217.74
763.74	217.60
764.06	217.47
764.39	217.45
764.71	217.30
765.04	217.20
765.37	217.15
765.69	217.01
766.02	216.94
766.34	216.79
766.67	216.63
767.00	216.58
767.32	216.66
767.65	216.91
767.97	216.74
768.30	216.66
768.62	216.61
768.95	216.55
769.27	216.48
769.60	216.47
769.92	216.38
770.25	216.21
770.57	216.14
770.90	216.15
771.22	216.06
771.55	216.06
771.87	216.03
772.20	215.92
772.52	216.15
772.85	216.43
773.17	216.42
773.50	216.34
773.82	216.24
774.15	216.07
774.47	215.73
774.80	215.70
775.12	215.67
775.45	215.64
775.77	215.56
776.09	215.60
776.42	215.51
776.74	215.54
777.07	215.60
777.39	215.58
777.72	215.49
778.04	215.49
778.36	215.40
778.69	215.30
779.01	215.33
779.33	215.05
779.66	214.66
779.98	214.56
780.31	214.48
780.63	214.61
780.95	214.55
781.28	214.58
781.60	214.48
781.92	214.45
782.25	214.34
782.57	214.34
782.89	214.27
783.22	214.28
783.54	214.19
783.86	214.10
784.19	214.11
784.51	214.22
784.83	214.15
785.16	214.10
785.48	214.21
785.80	214.09
786.12	214.13
786.45	214.17
786.77	214.26
787.09	214.23
787.42	214.06
787.74	214.04
788.06	214.00
788.38	213.95
788.71	213.97
789.03	214.02
789.35	214.03
789.67	213.91
789.99	213.87
790.32	213.83
790.64	213.89
790.96	214.12
791.28	213.94
791.61	213.90
791.93	213.94
792.25	213.81
792.57	214.19
792.89	214.09
793.21	214.03
793.54	213.98
793.86	213.93
794.18	213.94
794.50	213.88
794.82	213.85
795.14	213.98
795.47	214.01
795.79	213.97
796.11	213.91
796.43	213.93
796.75	213.92
797.07	213.93
797.39	213.84
797.71	213.60
798.04	213.59
798.36	213.59
798.68	213.52
799.00	213.60
799.32	213.29
799.64	213.35
799.96	213.38
800.28	213.41
800.60	213.43
800.92	213.42
801.24	213.42
801.56	213.46
801.89	213.39
802.21	213.35
802.53	213.28
802.85	213.35
803.17	213.53
803.49	213.42
803.81	213.34
804.13	213.34
804.45	213.27
804.77	213.36
805.09	213.32
805.41	213.33
805.73	213.18
806.05	213.06
806.37	212.99
806.69	213.00
807.01	212.92
807.33	212.88
807.65	212.70
807.97	212.83
808.28	212.79
808.60	212.75
808.92	212.68
809.24	212.82
809.56	212.71
809.88	212.59
810.20	212.63
810.52	212.73
810.84	212.69
811.16	212.59
811.48	212.52
811.80	212.66
812.12	212.66
812.43	212.79
812.75	212.92
813.07	212.91
813.39	212.82
813.71	212.80
814.03	212.79
814.35	212.81
814.67	212.65
814.98	212.60
815.30	212.60
815.62	212.65
815.94	212.50
816.26	212.57
816.58	212.40
816.89	212.44
817.21	212.38
817.53	212.43
817.85	212.50
818.17	212.45
818.48	212.30
818.80	212.31
819.12	212.23
819.44	212.08
819.76	212.09
820.07	212.11
820.39	212.05
820.71	212.02
821.03	212.09
821.34	212.02
821.66	212.10
821.98	212.15
822.30	212.08
822.61	212.28
822.93	212.23
823.25	212.26
823.57	212.24
823.88	212.26
824.20	212.24
824.52	212.28
824.83	212.23
825.15	212.23
825.47	212.21
825.79	212.26
826.10	212.30
826.42	212.15
826.74	212.22
827.05	212.29
827.37	212.34
827.69	212.36
828.00	212.43
828.32	212.44
828.64	212.32
828.95	212.48
829.27	212.36
829.58	212.33
829.90	212.47
830.22	212.45
830.53	212.42
830.85	212.37
831.17	212.34
831.48	212.44
831.80	212.43
832.11	212.37
832.43	212.36
832.75	212.28
833.06	212.50
833.38	212.32
833.69	212.20
834.01	212.20
834.32	212.12
834.64	212.07
834.96	212.05
835.27	212.10
835.59	211.96
835.90	211.86
836.22	211.86
836.53	211.71
836.85	211.62
837.16	211.93
837.48	211.93
837.79	212.00
838.11	212.00
838.42	212.00
838.74	212.02
839.05	211.91
839.37	211.95
839.68	211.76
840.00	211.75
840.31	211.87
840.63	211.82
840.94	211.77
841.26	211.72
841.57	211.72
841.88	211.71
842.20	211.64
842.51	211.58
842.83	211.60
843.14	211.93
843.46	211.98
843.77	211.78
844.08	211.72
844.40	211.61
844.71	211.57
845.03	211.54
845.34	211.54
845.65	211.53
845.97	211.51
846.28	211.52
846.60	211.60
846.91	211.53
847.22	211.53
847.54	211.66
847.85	211.70
848.16	211.67
848.48	211.62
848.79	211.84
849.10	211.95
849.42	211.96
849.73	211.71
850.04	211.68
850.36	211.60
850.67	211.69
850.98	211.69
851.30	211.67
851.61	211.65
851.92	211.61
852.23	211.71
852.55	211.76
852.86	211.80
853.17	211.83
853.49	211.89
853.80	212.02
854.11	212.01
854.42	212.04
854.74	211.91
855.05	211.86
855.36	211.70
855.67	211.67
855.99	211.64
856.30	211.96
856.61	212.00
856.92	211.97
857.23	211.94
857.55	211.88
857.86	211.85
858.17	211.98
858.48	211.93
858.79	211.84
859.11	211.86
859.42	211.81
859.73	211.68
860.04	211.61
860.35	211.42
860.66	211.35
860.98	211.38
861.29	211.42
861.60	211.47
861.91	211.52
862.22	211.50
862.53	211.42
862.84	211.06
863.16	211.09
863.47	211.03
863.78	211.01
864.09	211.07
864.40	211.12
864.71	211.08
865.02	211.12
865.33	211.16
865.64	211.08
865.95	211.09
866.27	211.38
866.58	211.35
866.89	211.47
867.20	211.45
867.51	211.34
867.82	211.33
868.13	211.39
868.44	211.27
868.75	211.35
869.06	211.36
869.37	211.39
869.68	211.27
869.99	211.32
870.30	211.36
870.61	211.38
870.92	211.33
871.23	211.20
871.54	211.30
871.85	211.34
872.16	211.47
872.47	211.44
872.78	211.22
873.09	211.35
873.40	211.25
873.71	211.31
874.02	211.40
874.33	211.36
874.64	211.30
874.95	211.42
875.26	211.28
875.56	211.35
875.87	211.30
876.18	211.34
876.49	211.67
876.80	211.70
877.11	211.68
877.42	211.68
877.73	211.81
878.04	211.67
878.35	211.62
878.66	211.57
878.96	211.57
879.27	211.60
879.58	211.48
879.89	211.46
880.20	211.54
880.51	211.54
880.82	211.62
881.12	211.65
881.43	211.58
881.74	211.63
882.05	211.54
882.36	211.59
882.67	211.60
882.97	211.28
883.28	211.20
883.59	211.11
883.90	211.22
884.21	211.21
884.51	211.17
884.82	211.18
885.13	211.19
885.44	211.12
885.74	211.10
886.05	211.12
886.36	211.19
886.67	211.01
886.98	211.17
887.28	211.21
887.59	211.23
887.90	211.15
888.20	211.07
888.51	211.13
888.82	211.09
889.13	211.20
889.43	211.44
889.74	211.34
890.05	211.35
890.35	211.25
890.66	211.22
890.97	211.26
891.28	211.18
891.58	211.10
891.89	211.21
892.20	211.12
892.50	211.11
892.81	211.05
893.12	211.02
893.42	210.82
893.73	210.69
894.04	210.70
894.34	210.77
894.65	210.81
894.95	210.79
895.26	210.83
895.57	210.85
895.87	210.59
896.18	210.68
896.48	210.70
896.79	210.70
897.10	210.70
897.40	210.68
897.71	210.70
898.01	210.76
898.32	210.79
898.63	210.81
898.93	210.80
899.24	210.86
899.54	210.93
899.85	210.90
900.15	211.01
900.46	211.00
900.76	211.11
901.07	211.09
901.38	211.03
901.68	211.00
901.99	210.82
902.29	210.89
902.60	210.87
902.90	210.86
903.21	210.87
903.51	210.90
903.82	211.03
904.12	211.10
904.43	211.04
904.73	211.05
905.03	211.09
905.34	211.44
905.64	211.43
905.95	211.39
906.25	211.38
906.56	211.31
906.86	211.26
907.17	211.19
907.47	211.26
907.77	211.31
908.08	211.27
908.38	211.29
908.69	211.26
908.99	211.32
909.30	211.33
909.60	211.26
909.90	211.22
910.21	211.09
910.51	211.06
910.81	211.12
911.12	211.03
911.42	211.03
911.73	210.62
912.03	210.57
912.33	210.63
912.64	210.68
912.94	210.65
913.24	210.64
913.55	210.69
913.85	210.63
914.15	210.63
914.46	210.69
914.76	210.74
915.06	210.68
915.37	210.61
915.67	210.67
915.97	210.75
916.27	210.68
916.58	210.65
916.88	210.62
917.18	210.56
917.49	210.85
917.79	210.79
918.09	210.90
918.39	211.04
918.70	211.03
919.00	211.05
919.30	211.21
919.60	211.20
919.91	211.16
920.21	211.18
920.51	211.20
920.81	211.17
921.12	211.21
921.42	211.24
921.72	211.27
922.02	211.23
922.32	211.27
922.63	211.37
922.93	211.60
923.23	211.60
923.53	211.61
923.83	211.42
924.13	211.48
924.44	211.48
924.74	211.57
925.04	211.64
925.34	211.58
925.64	211.42
925.94	211.41
926.24	211.51
926.55	211.43
926.85	211.42
927.15	211.39
927.45	211.31
927.75	211.27
928.05	211.28
928.35	211.26
928.65	211.28
928.95	211.21
929.26	211.02
929.56	211.08
929.86	211.06
930.16	210.99
930.46	210.95
930.76	210.95
931.06	210.78
931.36	210.68
931.66	210.77
931.96	210.78
932.26	210.81
932.56	210.73
932.86	210.82
933.16	210.79
933.46	210.80
933.76	210.82
934.06	210.89
934.36	210.89
934.66	210.91
934.96	210.88
935.26	210.85
935.56	210.91
935.86	210.83
936.16	210.90
936.46	210.81
936.76	210.82
937.06	210.79
937.36	210.80
937.66	210.76
937.96	210.72
938.26	210.63
938.56	210.59
938.86	210.55
939.16	210.58
939.46	210.59
939.76	210.60
940.06	210.62
940.35	210.52
940.65	210.47
940.95	210.51
941.25	210.41
941.55	210.42
941.85	210.38
942.15	210.47
942.45	210.47
942.75	210.53
943.04	210.46
943.34	210.45
943.64	210.36
943.94	210.38
944.24	210.32
944.54	210.44
944.84	210.45
945.13	210.42
945.43	210.36
945.73	210.44
946.03	210.49
946.33	210.38
946.62	210.45
946.92	210.40
947.22	210.36
947.52	210.42
947.82	210.48
948.11	210.49
948.41	210.37
948.71	210.31
949.01	210.32
949.31	210.35
949.60	210.35
949.90	210.42
950.20	210.41
950.50	210.40
950.79	210.34
951.09	210.40
951.39	210.35
951.69	210.38
951.98	210.35
952.28	210.33
952.58	210.39
952.87	210.40
953.17	210.41
953.47	210.46
953.76	210.46
954.06	210.41
954.36	210.31
954.66	210.35
954.95	210.44
955.25	210.48
955.55	210.54
955.84	210.50
956.14	210.51
956.44	210.55
956.73	210.52
957.03	210.52
957.32	210.50
957.62	210.55
957.92	210.65
958.21	210.64
958.51	211.08
958.81	211.11
959.10	211.07
959.40	211.21
959.69	211.15
959.99	211.15
960.29	211.08
960.58	211.12
960.88	211.26
961.17	211.20
961.47	211.25
961.76	211.16
962.06	211.23
962.36	211.25
962.65	211.24
962.95	211.27
963.24	211.30
963.54	211.32
963.83	211.38
964.13	211.34
964.42	211.32
964.72	210.96
965.01	210.93
965.31	210.91
965.60	210.76
965.90	210.98
966.19	210.95
966.49	211.03
966.78	211.00
967.08	210.95
967.37	211.01
967.67	210.96
967.96	211.07
968.26	211.04
968.55	211.06
968.85	211.04
969.14	211.08
969.43	211.06
969.73	211.00
970.02	210.97
970.32	210.93
970.61	210.90
970.91	210.83
971.20	210.80
971.49	210.79
971.79	210.90
972.08	210.65
972.38	210.74
972.67	210.74
972.96	210.77
973.26	210.66
973.55	210.79
973.85	210.67
974.14	210.59
974.43	210.67
974.73	210.62
975.02	210.59
975.31	210.57
975.61	210.53
975.90	210.48
976.19	210.35
976.49	210.39
976.78	210.37
977.07	210.31
977.37	210.38
977.66	210.42
977.95	210.39
978.24	210.48
978.54	210.49
978.83	210.46
979.12	210.46
979.42	210.53
979.71	210.41
980.00	210.47
980.29	210.49
980.59	210.35
980.88	210.44
981.17	210.49
981.46	210.50
981.76	210.50
982.05	210.61
982.34	210.71
982.63	210.69
982.93	210.68
983.22	210.86
983.51	210.83
983.80	210.83
984.09	210.86
984.39	210.80
984.68	210.71
984.97	210.76
985.26	210.80
985.55	210.78
985.85	210.69
986.14	210.75
986.43	210.85
986.72	210.85
987.01	210.72
987.30	210.64
987.59	210.61
987.89	210.70
988.18	210.63
988.47	210.58
988.76	210.55
989.05	210.56
989.34	210.44
989.63	210.53
989.92	210.49
990.22	210.45
990.51	210.41
990.80	210.43
991.09	210.47
991.38	210.44
991.67	210.40
991.96	210.41
992.25	210.43
992.54	210.36
992.83	210.41
993.12	210.43
993.41	210.54
993.70	210.69
993.99	210.74
994.28	210.78
994.58	210.85
994.87	210.81
995.16	210.78
995.45	210.73
995.74	210.60
996.03	210.71
996.32	210.73
996.61	210.85
996.90	210.83
997.19	210.86
997.48	210.86
997.77	210.85
998.06	210.90
998.34	210.81
998.63	210.79
998.92	210.75
999.21	210.84
999.50	210.88
999.79	210.69
1000.08	210.68
1000.37	210.70
1000.66	210.69
1000.95	210.80
1001.24	210.84
1001.53	210.90
1001.82	210.88
1002.11	210.85
1002.40	210.89
1002.68	210.92
1002.97	211.18
1003.26	211.01
1003.55	210.99
1003.84	211.05
1004.13	211.11
1004.42	211.19
1004.71	211.18
1004.99	211.21
1005.28	211.23
1005.57	211.13
1005.86	211.23
1006.15	211.19
1006.44	211.10
1006.72	211.18
1007.01	211.15
1007.30	211.20
1007.59	211.24
1007.88	211.25
1008.17	211.23
1008.45	211.21
1008.74	211.11
1009.03	210.98
1009.32	211.06
1009.60	211.08
1009.89	211.03
1010.18	210.92
1010.47	210.89
1010.76	210.89
1011.04	210.90
1011.33	210.93
1011.62	211.02
1011.91	211.00
1012.19	211.06
1012.48	211.14
1012.77	211.02
1013.05	211.21
1013.34	211.25
1013.63	211.22
1013.92	211.20
1014.20	211.19
1014.49	211.17
1014.78	211.19
1015.06	211.07
1015.35	211.05
1015.64	211.11
1015.92	211.15
1016.21	211.14
1016.50	211.13
1016.78	211.23
1017.07	211.22
1017.36	211.18
1017.64	211.14
1017.93	211.19
1018.22	211.09
1018.50	211.05
1018.79	211.03
1019.08	210.84
1019.36	210.84
1019.65	210.77
1019.93	210.88
1020.22	210.90
1020.51	211.11
1020.79	211.05
1021.08	209.95
1021.36	209.90
1021.65	209.90
1021.94	211.45
1022.22	211.75
1022.51	210.15
1022.79	211.65
1023.08	211.10
1023.36	215.45
1023.65	209.90
>>>>>End Processed Spectral Data<<<<<
