SpectraSuite Data File
++++++++++++++++++++++++++++++++++++
Date: Mon Feb 25 17:07:24 EST 2013
User: group
Dark Spectrum Present: No
Reference Spectrum Present: No
Number of Sampled Component Spectra: 1
Spectrometers: USB2E7196
Integration Time (usec): 104000 (USB2E7196)
Spectra Averaged: 20 (USB2E7196)
Boxcar Smoothing: 10 (USB2E7196)
Correct for Electrical Dark: No (USB2E7196)
Strobe/Lamp Enabled: No (USB2E7196)
Correct for Detector Non-linearity: No (USB2E7196)
Correct for Stray Light: No (USB2E7196)
Number of Pixels in Processed Spectrum: 2048
>>>>>Begin Processed Spectral Data<<<<<
339.09	0.00
339.48	198.65
339.86	198.50
340.24	201.00
340.63	202.65
341.01	208.80
341.39	206.50
341.78	208.75
342.16	208.45
342.54	208.10
342.93	198.16
343.31	208.16
343.69	208.67
344.07	209.20
344.46	209.67
344.84	210.13
345.22	210.12
345.60	210.36
345.99	210.47
346.37	210.58
346.75	210.61
347.13	210.59
347.52	210.61
347.90	210.69
348.28	210.68
348.66	210.74
349.05	210.53
349.43	210.53
349.81	210.60
350.19	210.61
350.57	210.63
350.96	210.71
351.34	210.71
351.72	210.69
352.10	210.75
352.48	210.76
352.87	210.73
353.25	210.84
353.63	210.80
354.01	210.85
354.39	210.94
354.77	211.05
355.15	211.20
355.54	211.23
355.92	211.21
356.30	211.33
356.68	211.57
357.06	211.70
357.44	211.82
357.82	211.85
358.20	211.93
358.58	211.96
358.97	212.02
359.35	212.15
359.73	212.44
360.11	212.55
360.49	212.60
360.87	212.70
361.25	212.81
361.63	213.04
362.01	213.10
362.39	213.09
362.77	213.14
363.15	213.18
363.53	213.24
363.91	213.27
364.29	213.31
364.67	213.01
365.05	213.10
365.43	213.10
365.81	213.15
366.19	213.35
366.57	213.49
366.95	213.52
367.33	213.53
367.71	213.47
368.09	213.51
368.47	213.50
368.85	213.41
369.23	213.50
369.61	213.36
369.99	213.48
370.37	213.53
370.75	213.71
371.13	213.65
371.51	213.61
371.89	213.65
372.27	213.62
372.65	213.68
373.03	213.62
373.41	213.50
373.78	213.48
374.16	213.27
374.54	213.19
374.92	213.09
375.30	212.99
375.68	212.83
376.06	212.77
376.44	212.72
376.82	212.75
377.19	212.65
377.57	212.52
377.95	212.34
378.33	212.22
378.71	211.93
379.09	211.93
379.47	211.89
379.84	211.76
380.22	211.61
380.60	211.49
380.98	211.44
381.36	211.42
381.73	211.30
382.11	211.36
382.49	211.26
382.87	211.15
383.25	211.13
383.62	211.50
384.00	211.40
384.38	211.34
384.76	211.36
385.13	211.42
385.51	211.42
385.89	211.35
386.27	211.35
386.64	211.44
387.02	211.35
387.40	211.31
387.78	211.29
388.15	211.34
388.53	211.26
388.91	211.25
389.29	211.24
389.66	211.29
390.04	211.15
390.42	211.22
390.79	211.25
391.17	211.29
391.55	210.90
391.92	210.88
392.30	210.94
392.68	210.81
393.05	210.68
393.43	210.70
393.81	210.71
394.18	210.60
394.56	210.56
394.94	210.61
395.31	210.56
395.69	210.70
396.06	210.72
396.44	210.84
396.82	210.77
397.19	210.95
397.57	210.88
397.95	210.87
398.32	210.75
398.70	210.77
399.07	210.79
399.45	210.80
399.82	210.79
400.20	210.74
400.58	210.76
400.95	210.67
401.33	210.74
401.70	210.97
402.08	211.01
402.45	210.98
402.83	211.13
403.20	211.23
403.58	211.17
403.95	211.22
404.33	211.25
404.71	211.38
405.08	211.58
405.46	211.69
405.83	211.86
406.21	211.91
406.58	212.02
406.96	212.10
407.33	212.26
407.70	212.45
408.08	212.85
408.45	213.05
408.83	213.39
409.20	213.48
409.58	213.49
409.95	213.80
410.33	214.07
410.70	214.17
411.08	214.38
411.45	214.68
411.82	214.93
412.20	215.35
412.57	215.75
412.95	215.77
413.32	216.17
413.69	216.48
414.07	216.92
414.44	217.39
414.82	217.95
415.19	218.46
415.56	218.98
415.94	219.51
416.31	220.19
416.68	220.82
417.06	221.60
417.43	222.44
417.81	223.26
418.18	224.14
418.55	225.13
418.93	226.13
419.30	227.14
419.67	228.29
420.04	229.36
420.42	230.56
420.79	232.22
421.16	233.59
421.54	235.26
421.91	236.80
422.28	238.40
422.66	239.99
423.03	241.81
423.40	243.49
423.77	245.16
424.15	246.92
424.52	248.81
424.89	250.88
425.26	252.74
425.64	254.72
426.01	256.85
426.38	259.00
426.75	261.25
427.13	263.53
427.50	265.90
427.87	268.32
428.24	270.77
428.61	272.84
428.99	275.49
429.36	278.07
429.73	280.84
430.10	283.64
430.47	286.54
430.85	289.34
431.22	292.57
431.59	296.14
431.96	299.30
432.33	302.82
432.70	306.30
433.08	310.34
433.45	314.15
433.82	317.81
434.19	322.03
434.56	326.34
434.93	330.33
435.30	334.32
435.68	338.75
436.05	343.09
436.42	347.51
436.79	351.55
437.16	356.05
437.53	360.58
437.90	365.00
438.27	369.45
438.64	374.08
439.01	378.40
439.38	382.07
439.75	385.85
440.13	390.14
440.50	394.09
440.87	397.38
441.24	400.68
441.61	404.45
441.98	407.16
442.35	410.23
442.72	413.62
443.09	416.99
443.46	418.99
443.83	420.27
444.20	421.44
444.57	423.15
444.94	424.07
445.31	425.12
445.68	426.44
446.05	426.72
446.42	426.53
446.79	426.17
447.16	425.65
447.53	425.48
447.90	423.91
448.27	422.44
448.64	420.31
449.01	418.87
449.37	416.24
449.74	413.56
450.11	410.51
450.48	406.78
450.85	402.95
451.22	399.75
451.59	396.84
451.96	394.05
452.33	390.12
452.70	386.54
453.07	382.16
453.43	377.46
453.80	373.50
454.17	369.45
454.54	365.57
454.91	361.55
455.28	357.47
455.65	353.72
456.02	350.50
456.38	347.42
456.75	343.47
457.12	340.12
457.49	337.00
457.86	333.67
458.23	331.10
458.59	328.08
458.96	325.08
459.33	322.49
459.70	319.85
460.07	317.75
460.43	315.28
460.80	313.11
461.17	311.22
461.54	309.07
461.91	306.99
462.27	305.06
462.64	303.34
463.01	301.54
463.38	299.91
463.74	297.51
464.11	295.83
464.48	294.48
464.85	292.86
465.21	291.62
465.58	290.38
465.95	288.74
466.32	287.51
466.68	286.30
467.05	284.98
467.42	283.70
467.78	282.34
468.15	281.08
468.52	280.07
468.88	278.80
469.25	277.66
469.62	276.86
469.98	275.83
470.35	274.97
470.72	274.09
471.08	273.07
471.45	272.37
471.82	271.66
472.18	270.73
472.55	270.23
472.92	269.41
473.28	268.71
473.65	268.10
474.02	267.48
474.38	267.00
474.75	266.60
475.11	266.04
475.48	265.65
475.85	265.19
476.21	264.86
476.58	264.60
476.94	264.45
477.31	264.14
477.67	263.84
478.04	263.54
478.41	263.40
478.77	263.52
479.14	263.29
479.50	263.18
479.87	263.15
480.23	263.01
480.60	262.91
480.96	262.78
481.33	262.90
481.69	262.89
482.06	262.86
482.42	262.90
482.79	262.96
483.15	263.06
483.52	263.40
483.88	263.50
484.25	263.51
484.61	263.62
484.98	263.76
485.34	264.18
485.71	264.54
486.07	264.81
486.44	264.90
486.80	265.32
487.17	265.67
487.53	266.22
487.90	266.75
488.26	267.46
488.62	268.11
488.99	268.60
489.35	269.36
489.72	270.03
490.08	270.62
490.44	271.35
490.81	272.21
491.17	272.85
491.54	273.75
491.90	274.66
492.26	275.57
492.63	276.62
492.99	277.46
493.36	278.41
493.72	279.51
494.08	280.54
494.45	281.61
494.81	282.72
495.17	283.84
495.54	285.11
495.90	286.21
496.26	287.56
496.63	288.90
496.99	290.16
497.35	291.60
497.72	293.07
498.08	294.56
498.44	296.02
498.80	297.60
499.17	299.09
499.53	300.64
499.89	302.36
500.26	303.99
500.62	305.74
500.98	307.54
501.34	309.30
501.71	311.21
502.07	313.08
502.43	314.98
502.79	316.80
503.16	318.47
503.52	320.46
503.88	322.29
504.24	324.18
504.60	326.19
504.97	328.29
505.33	330.19
505.69	332.44
506.05	334.48
506.41	336.52
506.78	338.59
507.14	340.65
507.50	342.76
507.86	344.86
508.22	347.05
508.59	349.05
508.95	351.27
509.31	353.51
509.67	355.69
510.03	357.96
510.39	360.19
510.75	362.63
511.12	364.97
511.48	367.38
511.84	369.79
512.20	372.05
512.56	374.35
512.92	376.94
513.28	379.18
513.64	381.56
514.00	384.09
514.37	386.47
514.73	389.07
515.09	391.70
515.45	394.21
515.81	396.77
516.17	399.48
516.53	401.99
516.89	404.44
517.25	407.06
517.61	409.69
517.97	412.39
518.33	414.90
518.69	417.68
519.05	420.31
519.41	423.18
519.77	426.27
520.13	429.11
520.49	431.82
520.85	434.70
521.21	437.86
521.57	440.85
521.93	443.85
522.29	446.85
522.65	449.71
523.01	452.81
523.37	455.66
523.73	458.74
524.09	461.80
524.45	464.91
524.81	468.01
525.17	471.33
525.53	474.66
525.89	478.07
526.25	481.43
526.61	484.62
526.97	487.87
527.33	491.04
527.68	494.68
528.04	498.11
528.40	501.33
528.76	504.54
529.12	508.04
529.48	511.78
529.84	515.25
530.20	518.92
530.56	522.55
530.91	526.32
531.27	529.97
531.63	533.65
531.99	537.37
532.35	541.25
532.71	544.78
533.07	548.46
533.42	552.50
533.78	555.99
534.14	559.90
534.50	563.44
534.86	567.40
535.21	570.71
535.57	574.55
535.93	578.40
536.29	582.30
536.65	585.88
537.00	589.36
537.36	592.99
537.72	596.33
538.08	600.00
538.44	603.59
538.79	607.26
539.15	610.73
539.51	614.35
539.87	617.99
540.22	621.54
540.58	625.30
540.94	628.60
541.29	632.17
541.65	635.57
542.01	639.15
542.37	642.33
542.72	645.83
543.08	649.11
543.44	652.55
543.79	655.61
544.15	658.88
544.51	662.30
544.87	665.72
545.22	669.23
545.58	672.32
545.94	675.32
546.29	678.23
546.65	681.41
547.01	684.23
547.36	687.01
547.72	689.89
548.07	692.53
548.43	695.15
548.79	697.77
549.14	700.27
549.50	702.82
549.86	705.21
550.21	707.63
550.57	710.29
550.92	712.57
551.28	715.04
551.64	717.18
551.99	719.51
552.35	721.60
552.70	723.55
553.06	725.59
553.41	727.84
553.77	730.09
554.13	731.98
554.48	734.19
554.84	736.22
555.19	738.10
555.55	740.06
555.90	741.79
556.26	743.37
556.61	745.06
556.97	746.65
557.32	748.44
557.68	749.86
558.03	750.99
558.39	752.41
558.74	753.94
559.10	755.63
559.45	756.84
559.81	758.31
560.16	759.71
560.52	761.07
560.87	762.33
561.23	763.21
561.58	764.60
561.94	765.60
562.29	766.50
562.64	767.61
563.00	768.60
563.35	769.89
563.71	771.19
564.06	772.23
564.42	773.59
564.77	774.65
565.12	776.00
565.48	777.47
565.83	778.65
566.19	779.48
566.54	780.16
566.89	780.89
567.25	781.80
567.60	782.65
567.96	783.56
568.31	784.29
568.66	785.20
569.02	785.54
569.37	785.71
569.72	786.23
570.08	786.48
570.43	786.68
570.78	786.64
571.14	786.54
571.49	786.47
571.84	786.35
572.20	786.06
572.55	785.87
572.90	785.21
573.26	784.61
573.61	784.17
573.96	783.85
574.31	783.48
574.67	782.62
575.02	781.73
575.37	780.70
575.72	779.60
576.08	778.61
576.43	777.79
576.78	777.32
577.13	776.39
577.49	775.71
577.84	774.74
578.19	774.05
578.54	773.47
578.90	773.00
579.25	772.05
579.60	771.16
579.95	769.98
580.30	769.35
580.66	768.69
581.01	767.73
581.36	766.75
581.71	765.74
582.06	765.01
582.42	764.19
582.77	763.05
583.12	762.26
583.47	761.59
583.82	760.77
584.17	759.76
584.53	759.14
584.88	758.24
585.23	757.42
585.58	756.53
585.93	755.59
586.28	754.57
586.63	753.65
586.98	752.86
587.34	752.20
587.69	750.94
588.04	749.80
588.39	748.86
588.74	747.65
589.09	746.85
589.44	745.53
589.79	744.67
590.14	743.97
590.49	742.74
590.84	741.48
591.19	740.52
591.54	739.35
591.89	737.84
592.25	736.55
592.60	735.05
592.95	733.36
593.30	731.70
593.65	730.09
594.00	728.52
594.35	728.00
594.70	726.24
595.05	724.94
595.40	723.51
595.75	721.88
596.10	720.55
596.45	719.01
596.80	717.77
597.15	716.33
597.50	714.72
597.85	713.65
598.19	712.04
598.54	710.54
598.89	709.22
599.24	708.19
599.59	707.00
599.94	705.96
600.29	704.85
600.64	703.62
600.99	702.26
601.34	700.99
601.69	698.59
602.04	697.21
602.39	695.82
602.74	694.61
603.08	693.61
603.43	692.66
603.78	691.31
604.13	689.95
604.48	688.63
604.83	687.73
605.18	686.53
605.53	685.40
605.87	683.85
606.22	682.74
606.57	681.15
606.92	679.50
607.27	677.95
607.62	676.45
607.96	675.15
608.31	674.07
608.66	672.59
609.01	671.09
609.36	669.57
609.70	667.90
610.05	666.14
610.40	664.45
610.75	662.53
611.10	661.04
611.44	659.16
611.79	657.21
612.14	655.13
612.49	652.90
612.83	650.93
613.18	649.06
613.53	646.74
613.88	644.61
614.22	642.80
614.57	640.82
614.92	638.82
615.27	636.69
615.61	634.52
615.96	632.44
616.31	630.65
616.65	628.80
617.00	626.89
617.35	625.05
617.70	622.84
618.04	620.61
618.39	618.04
618.74	616.09
619.08	613.95
619.43	612.01
619.78	610.06
620.12	608.17
620.47	606.23
620.82	603.94
621.16	601.72
621.51	599.70
621.85	597.59
622.20	595.54
622.55	593.42
622.89	591.23
623.24	589.27
623.59	586.89
623.93	584.82
624.28	582.80
624.62	580.86
624.97	579.05
625.32	577.06
625.66	575.37
626.01	573.40
626.35	571.50
626.70	569.37
627.04	567.54
627.39	565.62
627.73	563.70
628.08	561.95
628.43	559.90
628.77	557.65
629.12	555.57
629.46	553.72
629.81	551.89
630.15	549.88
630.50	547.83
630.84	545.89
631.19	543.90
631.53	541.85
631.88	539.51
632.22	537.34
632.57	535.46
632.91	533.42
633.26	531.37
633.60	529.47
633.95	527.50
634.29	525.20
634.64	523.14
634.98	521.03
635.32	519.28
635.67	517.61
636.01	515.76
636.36	513.85
636.70	511.97
637.05	509.92
637.39	508.18
637.73	506.38
638.08	504.74
638.42	502.99
638.77	501.35
639.11	499.55
639.45	497.66
639.80	495.64
640.14	493.66
640.49	491.75
640.83	489.68
641.17	487.79
641.52	485.99
641.86	484.18
642.20	482.38
642.55	480.21
642.89	478.21
643.23	476.20
643.58	474.55
643.92	472.41
644.26	470.40
644.61	468.54
644.95	466.67
645.29	464.52
645.64	462.57
645.98	460.45
646.32	458.66
646.66	456.70
647.01	454.79
647.35	453.12
647.69	451.11
648.04	449.43
648.38	447.61
648.72	445.73
649.06	443.70
649.41	441.69
649.75	439.90
650.09	438.27
650.43	436.66
650.78	434.54
651.12	432.77
651.46	431.12
651.80	429.32
652.14	427.51
652.49	425.88
652.83	424.09
653.17	422.23
653.51	420.27
653.85	418.60
654.20	416.92
654.54	414.99
654.88	413.30
655.22	411.50
655.56	409.59
655.90	407.87
656.25	406.01
656.59	404.35
656.93	402.67
657.27	401.00
657.61	399.05
657.95	397.43
658.29	395.82
658.64	394.20
658.98	392.36
659.32	390.53
659.66	388.80
660.00	387.04
660.34	385.41
660.68	383.74
661.02	382.01
661.36	380.50
661.70	378.98
662.05	377.45
662.39	376.01
662.73	374.69
663.07	373.40
663.41	372.10
663.75	370.47
664.09	368.92
664.43	367.31
664.77	365.95
665.11	364.55
665.45	363.06
665.79	361.70
666.13	360.35
666.47	358.93
666.81	357.50
667.15	356.21
667.49	355.10
667.83	354.14
668.17	352.95
668.51	351.65
668.85	350.36
669.19	349.29
669.53	347.91
669.87	346.57
670.21	345.21
670.55	343.94
670.89	343.02
671.23	341.99
671.57	340.80
671.91	339.65
672.25	338.48
672.58	337.43
672.92	336.05
673.26	334.87
673.60	333.81
673.94	332.78
674.28	331.67
674.62	330.46
674.96	329.18
675.30	328.13
675.64	326.96
675.97	325.90
676.31	324.75
676.65	323.73
676.99	322.77
677.33	321.71
677.67	320.62
678.01	319.43
678.34	318.36
678.68	317.42
679.02	316.32
679.36	315.28
679.70	314.23
680.04	313.34
680.37	312.39
680.71	311.36
681.05	310.40
681.39	309.52
681.73	308.67
682.06	307.78
682.40	306.74
682.74	305.89
683.08	305.03
683.42	304.04
683.75	303.14
684.09	302.20
684.43	301.28
684.77	300.45
685.10	299.51
685.44	298.57
685.78	297.68
686.12	296.89
686.45	296.03
686.79	295.11
687.13	294.33
687.46	293.52
687.80	292.87
688.14	292.05
688.48	291.27
688.81	290.34
689.15	289.64
689.49	288.85
689.82	288.07
690.16	287.15
690.50	286.31
690.83	285.46
691.17	284.62
691.51	283.86
691.84	283.12
692.18	282.36
692.52	281.67
692.85	281.01
693.19	280.44
693.52	279.68
693.86	278.99
694.20	278.24
694.53	277.53
694.87	276.73
695.21	276.04
695.54	275.19
695.88	274.45
696.21	273.57
696.55	272.95
696.88	272.25
697.22	271.53
697.56	271.05
697.89	270.37
698.23	269.75
698.56	269.06
698.90	268.50
699.23	267.95
699.57	267.35
699.90	266.60
700.24	265.85
700.58	265.33
700.91	264.77
701.25	264.45
701.58	263.92
701.92	263.38
702.25	262.79
702.59	262.29
702.92	261.81
703.26	261.29
703.59	260.67
703.93	260.51
704.26	260.03
704.60	259.32
704.93	258.80
705.26	258.24
705.60	257.85
705.93	257.20
706.27	256.77
706.60	256.39
706.94	256.06
707.27	255.58
707.61	255.14
707.94	254.65
708.27	253.92
708.61	253.41
708.94	253.04
709.28	252.66
709.61	252.21
709.94	251.85
710.28	251.52
710.61	251.17
710.95	250.26
711.28	250.15
711.61	249.84
711.95	249.54
712.28	249.14
712.61	248.71
712.95	248.61
713.28	248.33
713.61	247.93
713.95	247.52
714.28	247.21
714.61	246.74
714.95	246.45
715.28	246.05
715.61	245.66
715.95	245.35
716.28	244.95
716.61	244.64
716.95	244.19
717.28	243.81
717.61	243.45
717.94	243.23
718.28	242.66
718.61	242.34
718.94	241.91
719.27	241.64
719.61	241.30
719.94	240.83
720.27	240.39
720.60	239.96
720.94	239.65
721.27	239.32
721.60	239.17
721.93	238.82
722.27	238.68
722.60	238.53
722.93	238.11
723.26	237.83
723.59	237.60
723.93	237.43
724.26	237.13
724.59	236.92
724.92	236.81
725.25	236.67
725.59	236.40
725.92	236.30
726.25	236.01
726.58	235.68
726.91	235.44
727.24	235.26
727.57	235.08
727.91	234.72
728.24	234.51
728.57	234.25
728.90	234.02
729.23	233.70
729.56	233.59
729.89	233.36
730.22	233.13
730.55	232.84
730.89	232.55
731.22	232.38
731.55	232.16
731.88	231.86
732.21	231.61
732.54	231.35
732.87	231.03
733.20	230.88
733.53	230.75
733.86	230.65
734.19	230.45
734.52	230.26
734.85	230.43
735.18	230.20
735.51	230.05
735.84	229.96
736.17	229.87
736.50	229.48
736.83	229.75
737.16	229.62
737.49	229.48
737.82	229.32
738.15	229.09
738.48	229.01
738.81	228.85
739.14	228.66
739.47	228.55
739.80	228.41
740.13	228.26
740.46	228.10
740.79	227.73
741.12	227.55
741.45	227.43
741.78	227.03
742.11	226.91
742.44	226.77
742.77	226.57
743.10	226.32
743.43	226.21
743.75	225.68
744.08	225.95
744.41	225.81
744.74	225.69
745.07	225.54
745.40	225.37
745.73	225.39
746.06	225.16
746.39	224.99
746.71	224.84
747.04	224.65
747.37	224.48
747.70	224.52
748.03	224.36
748.36	224.21
748.68	224.09
749.01	223.99
749.34	223.83
749.67	223.82
750.00	223.80
750.33	223.93
750.65	223.82
750.98	223.27
751.31	223.07
751.64	222.93
751.97	223.00
752.29	222.79
752.62	222.49
752.95	222.47
753.28	222.39
753.60	222.29
753.93	222.30
754.26	222.28
754.59	222.02
754.91	221.90
755.24	221.83
755.57	221.68
755.90	221.49
756.22	221.35
756.55	221.16
756.88	221.00
757.20	220.70
757.53	220.43
757.86	220.32
758.19	220.31
758.51	220.18
758.84	219.94
759.17	219.94
759.49	219.86
759.82	219.91
760.15	219.85
760.47	219.79
760.80	219.57
761.13	219.48
761.45	219.46
761.78	219.41
762.11	219.20
762.43	219.11
762.76	219.05
763.08	219.00
763.41	218.87
763.74	218.78
764.06	218.70
764.39	218.69
764.71	218.69
765.04	218.54
765.37	218.49
765.69	218.46
766.02	218.23
766.34	218.17
766.67	217.95
767.00	217.97
767.32	218.02
767.65	218.12
767.97	218.08
768.30	217.98
768.62	217.88
768.95	217.87
769.27	217.80
769.60	217.77
769.92	217.67
770.25	217.58
770.57	217.50
770.90	217.39
771.22	217.34
771.55	217.22
771.87	217.18
772.20	217.09
772.52	217.25
772.85	217.66
773.17	217.60
773.50	217.50
773.82	217.32
774.15	217.13
774.47	216.89
774.80	216.75
775.12	216.64
775.45	216.55
775.77	216.47
776.09	216.41
776.42	216.36
776.74	216.37
777.07	216.30
777.39	216.26
777.72	216.17
778.04	216.11
778.36	216.01
778.69	215.91
779.01	215.89
779.33	215.51
779.66	215.08
779.98	215.00
780.31	214.98
780.63	215.04
780.95	215.08
781.28	215.06
781.60	215.04
781.92	215.06
782.25	215.00
782.57	215.01
782.89	214.98
783.22	214.88
783.54	214.75
783.86	214.73
784.19	214.65
784.51	214.69
784.83	214.70
785.16	214.66
785.48	214.69
785.80	214.63
786.12	214.70
786.45	214.64
786.77	214.62
787.09	214.57
787.42	214.39
787.74	214.27
788.06	214.19
788.38	214.08
788.71	214.03
789.03	214.00
789.35	213.95
789.67	213.84
789.99	213.83
790.32	213.80
790.64	213.79
790.96	214.06
791.28	213.99
791.61	213.87
791.93	213.85
792.25	213.75
792.57	214.01
792.89	213.84
793.21	213.81
793.54	213.75
793.86	213.73
794.18	213.78
794.50	213.71
794.82	213.74
795.14	213.79
795.47	213.84
795.79	213.82
796.11	213.76
796.43	213.77
796.75	213.68
797.07	213.64
797.39	213.56
797.71	213.23
798.04	213.17
798.36	213.21
798.68	213.21
799.00	213.29
799.32	213.08
799.64	213.18
799.96	213.22
800.28	213.25
800.60	213.16
800.92	213.14
801.24	213.06
801.56	212.99
801.89	212.85
802.21	212.87
802.53	212.88
802.85	212.94
803.17	213.09
803.49	213.03
803.81	213.04
804.13	213.02
804.45	213.01
804.77	213.07
805.09	213.05
805.41	212.96
805.73	212.84
806.05	212.72
806.37	212.66
806.69	212.61
807.01	212.58
807.33	212.57
807.65	212.50
807.97	212.68
808.28	212.68
808.60	212.75
808.92	212.58
809.24	212.80
809.56	212.70
809.88	212.54
810.20	212.64
810.52	212.71
810.84	212.69
811.16	212.68
811.48	212.64
811.80	212.79
812.12	212.80
812.43	212.85
812.75	212.90
813.07	212.85
813.39	212.84
813.71	212.75
814.03	212.74
814.35	212.66
814.67	212.54
814.98	212.48
815.30	212.50
815.62	212.47
815.94	212.17
816.26	212.23
816.58	212.15
816.89	212.12
817.21	212.03
817.53	212.13
817.85	212.11
818.17	212.04
818.48	211.86
818.80	211.91
819.12	211.91
819.44	211.80
819.76	211.79
820.07	211.79
820.39	211.83
820.71	211.88
821.03	211.91
821.34	211.85
821.66	211.99
821.98	211.92
822.30	211.97
822.61	212.25
822.93	212.14
823.25	212.17
823.57	212.11
823.88	212.16
824.20	212.13
824.52	212.15
824.83	212.22
825.15	212.20
825.47	212.18
825.79	212.09
826.10	212.14
826.42	212.14
826.74	212.14
827.05	212.11
827.37	212.17
827.69	212.12
828.00	212.19
828.32	212.05
828.64	212.05
828.95	212.24
829.27	212.09
829.58	212.13
829.90	212.13
830.22	212.18
830.53	212.09
830.85	212.05
831.17	212.02
831.48	211.98
831.80	211.95
832.11	211.97
832.43	212.07
832.75	212.03
833.06	212.14
833.38	212.04
833.69	212.10
834.01	211.98
834.32	211.94
834.64	211.87
834.96	211.91
835.27	211.93
835.59	211.75
835.90	211.65
836.22	211.63
836.53	211.59
836.85	211.53
837.16	211.92
837.48	211.92
837.79	212.03
838.11	212.06
838.42	212.08
838.74	212.05
839.05	211.95
839.37	211.92
839.68	211.74
840.00	211.74
840.31	211.73
840.63	211.78
840.94	211.79
841.26	211.76
841.57	211.76
841.88	211.77
842.20	211.73
842.51	211.71
842.83	211.70
843.14	212.06
843.46	212.07
843.77	211.84
844.08	211.80
844.40	211.64
844.71	211.57
845.03	211.58
845.34	211.56
845.65	211.52
845.97	211.58
846.28	211.67
846.60	211.70
846.91	211.67
847.22	211.57
847.54	211.65
847.85	211.69
848.16	211.66
848.48	211.55
848.79	211.72
849.10	211.70
849.42	211.71
849.73	211.39
850.04	211.32
850.36	211.20
850.67	211.26
850.98	211.27
851.30	211.29
851.61	211.24
851.92	211.22
852.23	211.34
852.55	211.28
852.86	211.25
853.17	211.35
853.49	211.44
853.80	211.57
854.11	211.58
854.42	211.60
854.74	211.61
855.05	211.66
855.36	211.52
855.67	211.55
855.99	211.64
856.30	212.02
856.61	212.10
856.92	212.11
857.23	212.09
857.55	212.07
857.86	212.06
858.17	212.11
858.48	212.08
858.79	211.98
859.11	212.05
859.42	212.10
859.73	211.98
860.04	211.92
860.35	211.82
860.66	211.73
860.98	211.72
861.29	211.72
861.60	211.69
861.91	211.69
862.22	211.75
862.53	211.63
862.84	211.26
863.16	211.36
863.47	211.30
863.78	211.25
864.09	211.31
864.40	211.31
864.71	211.26
865.02	211.28
865.33	211.26
865.64	211.20
865.95	211.13
866.27	211.33
866.58	211.28
866.89	211.30
867.20	211.28
867.51	211.19
867.82	211.20
868.13	211.30
868.44	211.29
868.75	211.31
869.06	211.31
869.37	211.29
869.68	211.15
869.99	211.23
870.30	211.25
870.61	211.21
870.92	211.24
871.23	211.23
871.54	211.27
871.85	211.41
872.16	211.47
872.47	211.40
872.78	211.26
873.09	211.33
873.40	211.31
873.71	211.32
874.02	211.35
874.33	211.25
874.64	211.19
874.95	211.21
875.26	211.07
875.56	211.12
875.87	211.10
876.18	211.10
876.49	211.47
876.80	211.45
877.11	211.43
877.42	211.35
877.73	211.32
878.04	211.25
878.35	211.17
878.66	211.17
878.96	211.17
879.27	211.12
879.58	211.07
879.89	211.04
880.20	211.19
880.51	211.19
880.82	211.24
881.12	211.20
881.43	211.08
881.74	211.10
882.05	211.02
882.36	210.98
882.67	210.92
882.97	210.51
883.28	210.48
883.59	210.43
883.90	210.49
884.21	210.60
884.51	210.60
884.82	210.50
885.13	210.53
885.44	210.52
885.74	210.49
886.05	210.45
886.36	210.45
886.67	210.39
886.98	210.54
887.28	210.58
887.59	210.62
887.90	210.69
888.20	210.69
888.51	210.82
888.82	210.84
889.13	210.91
889.43	211.20
889.74	211.19
890.05	211.17
890.35	211.14
890.66	211.01
890.97	211.07
891.28	211.15
891.58	211.09
891.89	211.15
892.20	211.08
892.50	211.08
892.81	211.04
893.12	210.99
893.42	210.84
893.73	210.79
894.04	210.76
894.34	210.85
894.65	210.83
894.95	210.80
895.26	210.81
895.57	210.97
895.87	210.64
896.18	210.64
896.48	210.75
896.79	210.81
897.10	210.91
897.40	210.89
897.71	210.88
898.01	210.86
898.32	210.83
898.63	210.87
898.93	210.88
899.24	210.96
899.54	210.94
899.85	210.95
900.15	210.94
900.46	211.06
900.76	211.03
901.07	211.01
901.38	210.95
901.68	210.99
901.99	210.75
902.29	210.81
902.60	210.79
902.90	210.76
903.21	210.70
903.51	210.71
903.82	210.79
904.12	210.80
904.43	210.80
904.73	210.80
905.03	210.89
905.34	211.21
905.64	211.15
905.95	211.17
906.25	211.15
906.56	211.15
906.86	211.08
907.17	211.05
907.47	211.03
907.77	211.01
908.08	210.93
908.38	211.04
908.69	210.99
908.99	211.05
909.30	211.08
909.60	211.09
909.90	211.08
910.21	210.99
910.51	210.96
910.81	211.00
911.12	211.04
911.42	210.99
911.73	210.57
912.03	210.61
912.33	210.68
912.64	210.60
912.94	210.61
913.24	210.58
913.55	210.55
913.85	210.66
914.15	210.71
914.46	210.79
914.76	210.75
915.06	210.77
915.37	210.80
915.67	210.74
915.97	210.73
916.27	210.68
916.58	210.65
916.88	210.62
917.18	210.54
917.49	210.80
917.79	210.78
918.09	210.89
918.39	210.97
918.70	211.03
919.00	211.11
919.30	211.25
919.60	211.27
919.91	211.20
920.21	211.10
920.51	211.06
920.81	211.02
921.12	211.04
921.42	210.97
921.72	210.99
922.02	211.05
922.32	211.05
922.63	211.01
922.93	211.15
923.23	211.18
923.53	211.15
923.83	210.91
924.13	210.99
924.44	211.01
924.74	211.04
925.04	211.04
925.34	210.98
925.64	210.86
925.94	210.89
926.24	211.14
926.55	211.18
926.85	211.23
927.15	211.24
927.45	211.29
927.75	211.39
928.05	211.34
928.35	211.24
928.65	211.36
928.95	211.42
929.26	211.43
929.56	211.47
929.86	211.60
930.16	211.59
930.46	211.58
930.76	211.58
931.06	211.40
931.36	211.23
931.66	211.27
931.96	211.31
932.26	211.25
932.56	211.11
932.86	211.11
933.16	211.09
933.46	211.05
933.76	211.00
934.06	211.05
934.36	211.15
934.66	211.15
934.96	211.08
935.26	211.08
935.56	211.06
935.86	210.94
936.16	210.90
936.46	210.82
936.76	210.69
937.06	210.70
937.36	210.77
937.66	210.87
937.96	210.94
938.26	210.90
938.56	210.87
938.86	210.80
939.16	210.83
939.46	210.90
939.76	210.93
940.06	210.88
940.35	210.81
940.65	210.73
940.95	210.79
941.25	210.69
941.55	210.63
941.85	210.57
942.15	210.68
942.45	210.82
942.75	210.90
943.04	210.96
943.34	210.98
943.64	210.98
943.94	210.88
944.24	210.87
944.54	210.87
944.84	210.91
945.13	210.98
945.43	210.95
945.73	210.94
946.03	210.94
946.33	210.91
946.62	210.89
946.92	210.81
947.22	210.85
947.52	210.93
947.82	210.99
948.11	210.96
948.41	210.85
948.71	210.70
949.01	210.66
949.31	210.72
949.60	210.74
949.90	210.82
950.20	210.79
950.50	210.77
950.79	210.70
951.09	210.68
951.39	210.67
951.69	210.59
951.98	210.59
952.28	210.62
952.58	210.68
952.87	210.63
953.17	210.73
953.47	210.68
953.76	210.63
954.06	210.56
954.36	210.56
954.66	210.66
954.95	210.73
955.25	210.76
955.55	210.75
955.84	210.63
956.14	210.57
956.44	210.59
956.73	210.57
957.03	210.62
957.32	210.64
957.62	210.59
957.92	210.73
958.21	210.77
958.51	211.16
958.81	211.16
959.10	211.27
959.40	211.33
959.69	211.32
959.99	211.39
960.29	211.41
960.58	211.32
960.88	211.41
961.17	211.39
961.47	211.38
961.76	211.33
962.06	211.36
962.36	211.36
962.65	211.43
962.95	211.43
963.24	211.45
963.54	211.47
963.83	211.40
964.13	211.32
964.42	211.15
964.72	210.84
965.01	210.85
965.31	210.74
965.60	210.62
965.90	210.90
966.19	210.84
966.49	210.85
966.78	210.89
967.08	210.82
967.37	210.83
967.67	210.85
967.96	210.95
968.26	210.92
968.55	210.98
968.85	210.95
969.14	210.95
969.43	210.92
969.73	210.87
970.02	210.93
970.32	210.92
970.61	210.93
970.91	210.80
971.20	210.69
971.49	210.68
971.79	210.72
972.08	210.42
972.38	210.47
972.67	210.52
972.96	210.56
973.26	210.48
973.55	210.50
973.85	210.44
974.14	210.40
974.43	210.48
974.73	210.38
975.02	210.35
975.31	210.34
975.61	210.34
975.90	210.36
976.19	210.38
976.49	210.40
976.78	210.47
977.07	210.46
977.37	210.53
977.66	210.55
977.95	210.53
978.24	210.59
978.54	210.58
978.83	210.56
979.12	210.62
979.42	210.64
979.71	210.63
980.00	210.63
980.29	210.60
980.59	210.52
980.88	210.59
981.17	210.61
981.46	210.62
981.76	210.64
982.05	210.70
982.34	210.74
982.63	210.78
982.93	210.70
983.22	210.85
983.51	210.87
983.80	210.94
984.09	210.91
984.39	210.83
984.68	210.78
984.97	210.74
985.26	210.70
985.55	210.84
985.85	210.80
986.14	210.81
986.43	210.92
986.72	210.91
987.01	210.84
987.30	210.80
987.59	210.81
987.89	210.85
988.18	210.74
988.47	210.70
988.76	210.64
989.05	210.66
989.34	210.56
989.63	210.65
989.92	210.58
990.22	210.61
990.51	210.64
990.80	210.67
991.09	210.70
991.38	210.70
991.67	210.62
991.96	210.51
992.25	210.57
992.54	210.43
992.83	210.47
993.12	210.48
993.41	210.54
993.70	210.67
993.99	210.65
994.28	210.75
994.58	210.84
994.87	210.80
995.16	210.74
995.45	210.72
995.74	210.55
996.03	210.61
996.32	210.67
996.61	210.74
996.90	210.77
997.19	210.74
997.48	210.73
997.77	210.64
998.06	210.70
998.34	210.55
998.63	210.58
998.92	210.56
999.21	210.59
999.50	210.62
999.79	210.47
1000.08	210.47
1000.37	210.42
1000.66	210.30
1000.95	210.42
1001.24	210.48
1001.53	210.45
1001.82	210.47
1002.11	210.41
1002.40	210.39
1002.68	210.43
1002.97	210.55
1003.26	210.53
1003.55	210.50
1003.84	210.57
1004.13	210.70
1004.42	210.77
1004.71	210.79
1004.99	210.77
1005.28	210.82
1005.57	210.77
1005.86	210.73
1006.15	210.71
1006.44	210.73
1006.72	210.88
1007.01	210.88
1007.30	210.95
1007.59	210.97
1007.88	210.96
1008.17	211.02
1008.45	210.95
1008.74	210.84
1009.03	210.76
1009.32	210.82
1009.60	210.86
1009.89	210.86
1010.18	210.73
1010.47	210.79
1010.76	210.81
1011.04	210.86
1011.33	210.94
1011.62	211.01
1011.91	211.00
1012.19	211.07
1012.48	211.00
1012.77	210.95
1013.05	211.06
1013.34	211.06
1013.63	211.06
1013.92	211.16
1014.20	211.14
1014.49	211.16
1014.78	211.20
1015.06	211.14
1015.35	211.13
1015.64	211.21
1015.92	211.22
1016.21	211.28
1016.50	211.20
1016.78	211.10
1017.07	211.11
1017.36	211.03
1017.64	210.91
1017.93	210.97
1018.22	210.90
1018.50	210.94
1018.79	210.92
1019.08	210.82
1019.36	210.77
1019.65	210.75
1019.93	210.78
1020.22	210.83
1020.51	210.98
1020.79	210.91
1021.08	210.20
1021.36	210.15
1021.65	211.05
1021.94	212.25
1022.22	210.30
1022.51	209.85
1022.79	212.05
1023.08	211.80
1023.36	213.95
1023.65	209.25
>>>>>End Processed Spectral Data<<<<<
