SpectraSuite Data File
++++++++++++++++++++++++++++++++++++
Date: Mon Feb 25 17:05:19 EST 2013
User: group
Dark Spectrum Present: No
Reference Spectrum Present: No
Number of Sampled Component Spectra: 1
Spectrometers: USB2E7196
Integration Time (usec): 104000 (USB2E7196)
Spectra Averaged: 20 (USB2E7196)
Boxcar Smoothing: 10 (USB2E7196)
Correct for Electrical Dark: No (USB2E7196)
Strobe/Lamp Enabled: No (USB2E7196)
Correct for Detector Non-linearity: No (USB2E7196)
Correct for Stray Light: No (USB2E7196)
Number of Pixels in Processed Spectrum: 2048
>>>>>Begin Processed Spectral Data<<<<<
339.09	0.00
339.48	198.20
339.86	199.60
340.24	201.15
340.63	201.75
341.01	209.50
341.39	204.85
341.78	207.65
342.16	208.60
342.54	208.70
342.93	197.83
343.31	207.76
343.69	208.30
344.07	208.76
344.46	209.19
344.84	209.58
345.22	209.61
345.60	209.85
345.99	209.94
346.37	210.03
346.75	210.07
347.13	210.07
347.52	210.07
347.90	210.20
348.28	210.28
348.66	210.36
349.05	210.25
349.43	210.26
349.81	210.31
350.19	210.34
350.57	210.34
350.96	210.40
351.34	210.59
351.72	210.61
352.10	210.76
352.48	210.76
352.87	210.79
353.25	210.81
353.63	210.87
354.01	210.95
354.39	211.07
354.77	211.17
355.15	211.39
355.54	211.48
355.92	211.43
356.30	211.47
356.68	211.75
357.06	211.86
357.44	211.82
357.82	211.94
358.20	212.04
358.58	212.12
358.97	212.24
359.35	212.39
359.73	212.52
360.11	212.56
360.49	212.66
360.87	212.73
361.25	212.81
361.63	212.95
362.01	213.04
362.39	213.02
362.77	213.10
363.15	213.10
363.53	213.15
363.91	213.21
364.29	213.28
364.67	213.01
365.05	213.06
365.43	213.18
365.81	213.25
366.19	213.34
366.57	213.52
366.95	213.57
367.33	213.46
367.71	213.47
368.09	213.51
368.47	213.52
368.85	213.59
369.23	213.69
369.61	213.62
369.99	213.67
370.37	213.68
370.75	213.82
371.13	213.75
371.51	213.65
371.89	213.74
372.27	213.77
372.65	213.76
373.03	213.70
373.41	213.63
373.78	213.50
374.16	213.33
374.54	213.11
374.92	212.99
375.30	212.91
375.68	212.84
376.06	212.82
376.44	212.74
376.82	212.63
377.19	212.51
377.57	212.36
377.95	212.21
378.33	212.15
378.71	211.84
379.09	211.79
379.47	211.75
379.84	211.60
380.22	211.49
380.60	211.36
380.98	211.28
381.36	211.19
381.73	211.13
382.11	211.11
382.49	211.15
382.87	211.01
383.25	210.97
383.62	211.36
384.00	211.23
384.38	211.22
384.76	211.21
385.13	211.34
385.51	211.34
385.89	211.26
386.27	211.17
386.64	211.19
387.02	211.13
387.40	211.04
387.78	211.00
388.15	210.97
388.53	210.94
388.91	210.94
389.29	210.92
389.66	210.93
390.04	210.85
390.42	210.78
390.79	210.76
391.17	210.72
391.55	210.23
391.92	210.25
392.30	210.17
392.68	210.08
393.05	209.98
393.43	209.96
393.81	209.95
394.18	209.98
394.56	210.00
394.94	210.07
395.31	210.09
395.69	210.15
396.06	210.23
396.44	210.27
396.82	210.18
397.19	210.35
397.57	210.25
397.95	210.30
398.32	210.23
398.70	210.31
399.07	210.42
399.45	210.44
399.82	210.39
400.20	210.39
400.58	210.43
400.95	210.34
401.33	210.52
401.70	210.80
402.08	210.81
402.45	210.84
402.83	210.94
403.20	210.99
403.58	210.98
403.95	211.02
404.33	211.14
404.71	211.29
405.08	211.54
405.46	211.73
405.83	211.86
406.21	212.01
406.58	212.13
406.96	212.13
407.33	212.28
407.70	212.55
408.08	213.00
408.45	213.26
408.83	213.54
409.20	213.75
409.58	213.70
409.95	213.95
410.33	214.25
410.70	214.44
411.08	214.78
411.45	215.14
411.82	215.43
412.20	215.82
412.57	216.31
412.95	216.46
413.32	216.97
413.69	217.40
414.07	218.02
414.44	218.52
414.82	219.20
415.19	219.93
415.56	220.58
415.94	221.08
416.31	221.94
416.68	222.73
417.06	223.52
417.43	224.59
417.81	225.73
418.18	226.73
418.55	227.88
418.93	229.09
419.30	230.32
419.67	231.62
420.04	233.01
420.42	234.45
420.79	236.30
421.16	237.88
421.54	239.85
421.91	241.43
422.28	243.32
422.66	245.17
423.03	247.22
423.40	249.22
423.77	251.44
424.15	253.43
424.52	255.55
424.89	258.09
425.26	260.30
425.64	262.46
426.01	264.93
426.38	267.56
426.75	270.29
427.13	273.07
427.50	275.98
427.87	278.95
428.24	281.87
428.61	284.61
428.99	287.89
429.36	291.11
429.73	294.53
430.10	297.88
430.47	301.46
430.85	304.95
431.22	308.77
431.59	312.98
431.96	316.93
432.33	321.33
432.70	325.38
433.08	330.33
433.45	335.01
433.82	339.82
434.19	344.90
434.56	349.90
434.93	354.69
435.30	359.53
435.68	364.89
436.05	370.20
436.42	375.59
436.79	380.40
437.16	385.70
437.53	391.33
437.90	396.95
438.27	402.37
438.64	408.01
439.01	413.13
439.38	417.65
439.75	422.33
440.13	427.60
440.50	432.66
440.87	436.77
441.24	440.99
441.61	445.53
441.98	449.02
442.35	453.04
442.72	457.21
443.09	461.33
443.46	463.82
443.83	465.62
444.20	467.28
444.57	469.42
444.94	470.62
445.31	471.88
445.68	473.21
446.05	473.85
446.42	473.55
446.79	473.38
447.16	472.99
447.53	472.75
447.90	470.91
448.27	469.15
448.64	466.65
449.01	464.93
449.37	461.69
449.74	458.57
450.11	454.94
450.48	450.56
450.85	445.98
451.22	442.17
451.59	438.63
451.96	434.93
452.33	430.27
452.70	426.00
453.07	420.92
453.43	415.50
453.80	410.52
454.17	405.70
454.54	401.16
454.91	396.26
455.28	391.45
455.65	387.06
456.02	382.96
456.38	379.13
456.75	374.32
457.12	370.20
457.49	366.20
457.86	361.99
458.23	358.82
458.59	355.31
458.96	351.74
459.33	348.43
459.70	345.31
460.07	342.84
460.43	339.77
460.80	336.99
461.17	334.62
461.54	332.18
461.91	329.72
462.27	327.16
462.64	325.07
463.01	322.68
463.38	320.55
463.74	317.82
464.11	315.75
464.48	314.05
464.85	312.13
465.21	310.69
465.58	309.20
465.95	307.16
466.32	305.60
466.68	304.02
467.05	302.51
467.42	300.86
467.78	299.11
468.15	297.66
468.52	296.46
468.88	294.90
469.25	293.48
469.62	292.50
469.98	291.30
470.35	290.18
470.72	289.08
471.08	287.81
471.45	287.03
471.82	286.23
472.18	285.09
472.55	284.37
472.92	283.37
473.28	282.51
473.65	281.81
474.02	280.95
474.38	280.29
474.75	279.68
475.11	279.11
475.48	278.63
475.85	278.24
476.21	277.82
476.58	277.39
476.94	277.04
477.31	276.65
477.67	276.28
478.04	275.91
478.41	275.74
478.77	275.85
479.14	275.45
479.50	275.16
479.87	275.15
480.23	274.98
480.60	274.85
480.96	274.76
481.33	274.83
481.69	274.83
482.06	274.84
482.42	274.88
482.79	274.89
483.15	274.95
483.52	275.13
483.88	275.19
484.25	275.29
484.61	275.37
484.98	275.44
485.34	275.81
485.71	276.11
486.07	276.41
486.44	276.45
486.80	276.87
487.17	277.30
487.53	277.79
487.90	278.36
488.26	279.15
488.62	279.83
488.99	280.34
489.35	280.90
489.72	281.57
490.08	282.23
490.44	282.95
490.81	283.76
491.17	284.46
491.54	285.22
491.90	286.23
492.26	287.14
492.63	288.15
492.99	289.05
493.36	290.10
493.72	291.15
494.08	292.19
494.45	293.26
494.81	294.37
495.17	295.41
495.54	296.56
495.90	297.49
496.26	298.60
496.63	299.83
496.99	301.01
497.35	302.17
497.72	303.38
498.08	304.60
498.44	305.85
498.80	307.23
499.17	308.61
499.53	309.88
499.89	311.32
500.26	312.61
500.62	313.95
500.98	315.37
501.34	316.66
501.71	318.06
502.07	319.48
502.43	320.73
502.79	322.08
503.16	323.54
503.52	324.90
503.88	326.12
504.24	327.46
504.60	328.81
504.97	330.20
505.33	331.49
505.69	332.85
506.05	334.11
506.41	335.31
506.78	336.49
507.14	337.66
507.50	338.85
507.86	340.02
508.22	341.23
508.59	342.19
508.95	343.37
509.31	344.54
509.67	345.55
510.03	346.67
510.39	347.71
510.75	348.58
511.12	349.57
511.48	350.63
511.84	351.53
512.20	352.45
512.56	353.39
512.92	354.42
513.28	355.26
513.64	356.14
514.00	356.95
514.37	357.82
514.73	358.68
515.09	359.50
515.45	360.32
515.81	361.05
516.17	361.90
516.53	362.60
516.89	363.27
517.25	364.08
517.61	364.91
517.97	365.66
518.33	366.44
518.69	367.28
519.05	368.06
519.41	368.91
519.77	370.07
520.13	370.91
520.49	371.61
520.85	372.50
521.21	373.55
521.57	374.53
521.93	375.40
522.29	376.43
522.65	377.29
523.01	378.39
523.37	379.37
523.73	380.58
524.09	381.75
524.45	383.03
524.81	384.24
525.17	385.48
525.53	386.88
525.89	388.09
526.25	389.46
526.61	390.77
526.97	392.17
527.33	393.54
527.68	395.44
528.04	397.00
528.40	398.58
528.76	400.16
529.12	401.90
529.48	403.77
529.84	405.50
530.20	407.44
530.56	409.39
530.91	411.54
531.27	413.47
531.63	415.41
531.99	417.32
532.35	419.36
532.71	421.46
533.07	423.55
533.42	426.27
533.78	428.37
534.14	430.65
534.50	432.86
534.86	435.13
535.21	437.08
535.57	439.62
535.93	442.04
536.29	444.58
536.65	447.03
537.00	449.42
537.36	451.84
537.72	454.30
538.08	456.84
538.44	459.18
538.79	461.75
539.15	464.40
539.51	467.04
539.87	469.62
540.22	472.32
540.58	475.04
540.94	477.43
541.29	480.17
541.65	482.93
542.01	485.70
542.37	488.37
542.72	491.15
543.08	493.84
543.44	496.75
543.79	499.23
544.15	502.00
544.51	504.89
544.87	507.87
545.22	510.82
545.58	513.56
545.94	516.40
546.29	519.14
546.65	521.85
547.01	524.59
547.36	527.55
547.72	530.25
548.07	532.99
548.43	535.59
548.79	538.16
549.14	540.80
549.50	543.60
549.86	546.14
550.21	548.59
550.57	551.31
550.92	553.58
551.28	556.41
551.64	558.91
551.99	561.39
552.35	563.66
552.70	565.75
553.06	568.20
553.41	570.56
553.77	573.04
554.13	575.38
554.48	577.83
554.84	580.24
555.19	582.45
555.55	584.88
555.90	587.01
556.26	589.23
556.61	591.35
556.97	593.16
557.32	595.33
557.68	597.46
558.03	599.41
558.39	601.43
558.74	603.33
559.10	605.35
559.45	607.30
559.81	609.41
560.16	611.51
560.52	613.35
560.87	615.24
561.23	616.95
561.58	619.05
561.94	620.81
562.29	622.23
562.64	624.03
563.00	625.62
563.35	627.44
563.71	629.30
564.06	631.07
564.42	632.88
564.77	634.61
565.12	636.37
565.48	638.24
565.83	639.97
566.19	641.64
566.54	642.97
566.89	644.34
567.25	645.80
567.60	647.17
567.96	648.77
568.31	650.46
568.66	651.70
569.02	652.80
569.37	653.70
569.72	654.94
570.08	655.98
570.43	656.71
570.78	657.38
571.14	657.98
571.49	658.55
571.84	659.43
572.20	659.89
572.55	660.35
572.90	660.45
573.26	660.91
573.61	661.06
573.96	661.44
574.31	661.63
574.67	661.70
575.02	661.68
575.37	661.38
575.72	660.88
576.08	660.79
576.43	660.62
576.78	660.63
577.13	660.50
577.49	660.24
577.84	660.28
578.19	660.49
578.54	660.73
578.90	660.97
579.25	660.65
579.60	660.45
579.95	660.19
580.30	660.11
580.66	659.99
581.01	659.78
581.36	659.60
581.71	659.35
582.06	659.18
582.42	659.03
582.77	658.78
583.12	658.55
583.47	658.36
583.82	658.19
584.17	657.90
584.53	657.79
584.88	657.71
585.23	657.47
585.58	656.88
585.93	656.26
586.28	655.70
586.63	655.45
586.98	655.15
587.34	655.03
587.69	654.55
588.04	654.04
588.39	653.57
588.74	652.94
589.09	652.60
589.44	651.77
589.79	651.25
590.14	650.93
590.49	650.33
590.84	649.62
591.19	649.01
591.54	648.51
591.89	647.46
592.25	646.81
592.60	645.90
592.95	645.10
593.30	644.12
593.65	643.19
594.00	642.07
594.35	641.95
594.70	640.81
595.05	639.94
595.40	638.92
595.75	637.81
596.10	636.82
596.45	635.98
596.80	635.39
597.15	634.53
597.50	633.32
597.85	632.57
598.19	631.63
598.54	630.67
598.89	629.76
599.24	629.12
599.59	628.03
599.94	627.25
600.29	626.40
600.64	625.70
600.99	624.79
601.34	623.97
601.69	622.18
602.04	621.17
602.39	620.24
602.74	619.39
603.08	618.75
603.43	618.06
603.78	616.97
604.13	616.01
604.48	615.08
604.83	614.44
605.18	613.69
605.53	612.75
605.87	611.78
606.22	610.74
606.57	609.49
606.92	608.36
607.27	607.12
607.62	606.08
607.96	605.17
608.31	604.30
608.66	603.24
609.01	602.11
609.36	600.94
609.70	599.69
610.05	598.50
610.40	597.17
610.75	595.72
611.10	594.75
611.44	593.21
611.79	591.75
612.14	590.19
612.49	588.55
612.83	587.22
613.18	585.60
613.53	584.00
613.88	582.52
614.22	581.03
614.57	579.55
614.92	577.88
615.27	576.18
615.61	574.51
615.96	573.04
616.31	571.71
616.65	570.37
617.00	568.87
617.35	567.28
617.70	565.65
618.04	564.05
618.39	561.97
618.74	560.49
619.08	558.79
619.43	557.09
619.78	555.48
620.12	553.82
620.47	552.19
620.82	550.45
621.16	548.75
621.51	547.37
621.85	545.81
622.20	544.34
622.55	542.60
622.89	540.75
623.24	538.97
623.59	536.98
623.93	535.35
624.28	533.70
624.62	532.35
624.97	530.80
625.32	529.10
625.66	527.56
626.01	525.83
626.35	524.36
626.70	522.74
627.04	521.26
627.39	519.51
627.73	517.98
628.08	516.53
628.43	514.84
628.77	512.94
629.12	510.98
629.46	509.34
629.81	507.61
630.15	506.00
630.50	504.29
630.84	502.73
631.19	500.89
631.53	499.16
631.88	497.10
632.22	495.21
632.57	493.77
632.91	492.20
633.26	490.60
633.60	488.78
633.95	487.21
634.29	485.43
634.64	483.90
634.98	482.07
635.32	480.43
635.67	479.08
636.01	477.56
636.36	476.09
636.70	474.55
637.05	472.98
637.39	471.49
637.73	470.04
638.08	468.60
638.42	467.26
638.77	465.88
639.11	464.31
639.45	462.76
639.80	460.93
640.14	459.20
640.49	457.51
640.83	455.97
641.17	454.35
641.52	452.62
641.86	451.00
642.20	449.53
642.55	447.81
642.89	446.10
643.23	444.45
643.58	443.04
643.92	441.26
644.26	439.76
644.61	438.18
644.95	436.63
645.29	435.01
645.64	433.27
645.98	431.43
646.32	429.88
646.66	428.28
647.01	426.68
647.35	425.25
647.69	423.71
648.04	422.25
648.38	420.69
648.72	419.21
649.06	417.54
649.41	415.99
649.75	414.37
650.09	412.86
650.43	411.26
650.78	409.62
651.12	408.02
651.46	406.44
651.80	404.92
652.14	403.32
652.49	401.75
652.83	400.30
653.17	398.80
653.51	397.12
653.85	395.70
654.20	394.35
654.54	392.71
654.88	391.12
655.22	389.62
655.56	388.02
655.90	386.38
656.25	384.81
656.59	383.29
656.93	381.94
657.27	380.55
657.61	379.05
657.95	377.64
658.29	376.17
658.64	374.86
658.98	373.25
659.32	371.73
659.66	370.34
660.00	368.80
660.34	367.29
660.68	365.96
661.02	364.53
661.36	363.05
661.70	361.69
662.05	360.43
662.39	359.22
662.73	358.09
663.07	357.04
663.41	355.83
663.75	354.48
664.09	353.14
664.43	351.66
664.77	350.41
665.11	349.05
665.45	347.88
665.79	346.55
666.13	345.35
666.47	344.10
666.81	342.83
667.15	341.66
667.49	340.69
667.83	339.58
668.17	338.42
668.51	337.35
668.85	336.40
669.19	335.41
669.53	334.10
669.87	332.83
670.21	331.61
670.55	330.64
670.89	329.74
671.23	328.72
671.57	327.79
671.91	326.73
672.25	325.69
672.58	324.66
672.92	323.65
673.26	322.69
673.60	321.83
673.94	320.84
674.28	319.84
674.62	318.84
674.96	317.91
675.30	317.00
675.64	316.02
675.97	314.93
676.31	313.94
676.65	313.07
676.99	312.44
677.33	311.48
677.67	310.50
678.01	309.47
678.34	308.59
678.68	307.67
679.02	306.74
679.36	305.88
679.70	305.06
680.04	304.16
680.37	303.26
680.71	302.37
681.05	301.57
681.39	300.75
681.73	299.90
682.06	299.07
682.40	298.26
682.74	297.46
683.08	296.79
683.42	295.86
683.75	295.11
684.09	294.17
684.43	293.41
684.77	292.55
685.10	291.84
685.44	290.98
685.78	290.18
686.12	289.49
686.45	288.77
686.79	287.95
687.13	287.32
687.46	286.60
687.80	285.93
688.14	285.15
688.48	284.45
688.81	283.63
689.15	282.97
689.49	282.19
689.82	281.43
690.16	280.60
690.50	279.98
690.83	279.16
691.17	278.31
691.51	277.64
691.84	277.02
692.18	276.24
692.52	275.63
692.85	275.07
693.19	274.58
693.52	273.87
693.86	273.16
694.20	272.47
694.53	271.75
694.87	270.97
695.21	270.35
695.54	269.70
695.88	269.05
696.21	268.32
696.55	267.74
696.88	267.17
697.22	266.58
697.56	265.95
697.89	265.37
698.23	264.85
698.56	264.26
698.90	263.76
699.23	263.25
699.57	262.70
699.90	262.02
700.24	261.33
700.58	260.74
700.91	260.29
701.25	259.98
701.58	259.68
701.92	259.31
702.25	258.84
702.59	258.31
702.92	257.85
703.26	257.38
703.59	256.87
703.93	256.70
704.26	256.28
704.60	255.80
704.93	255.35
705.26	254.91
705.60	254.46
705.93	254.00
706.27	253.69
706.60	253.36
706.94	253.12
707.27	252.69
707.61	252.36
707.94	251.86
708.27	251.19
708.61	250.66
708.94	250.22
709.28	249.80
709.61	249.33
709.94	248.98
710.28	248.62
710.61	248.30
710.95	247.63
711.28	247.52
711.61	247.21
711.95	246.90
712.28	246.46
712.61	246.11
712.95	245.87
713.28	245.62
713.61	245.14
713.95	244.70
714.28	244.29
714.61	243.85
714.95	243.61
715.28	243.19
715.61	242.85
715.95	242.52
716.28	242.11
716.61	241.88
716.95	241.52
717.28	241.14
717.61	240.85
717.94	240.50
718.28	239.86
718.61	239.55
718.94	239.19
719.27	238.94
719.61	238.68
719.94	238.28
720.27	237.79
720.60	237.58
720.94	237.27
721.27	237.14
721.60	237.03
721.93	236.74
722.27	236.72
722.60	236.53
722.93	236.31
723.26	236.08
723.59	235.88
723.93	235.61
724.26	235.45
724.59	235.14
724.92	234.94
725.25	234.77
725.59	234.46
725.92	234.31
726.25	234.13
726.58	233.90
726.91	233.69
727.24	233.61
727.57	233.25
727.91	233.00
728.24	232.81
728.57	232.51
728.90	232.40
729.23	231.99
729.56	231.94
729.89	231.67
730.22	231.50
730.55	231.24
730.89	231.09
731.22	230.84
731.55	230.66
731.88	230.54
732.21	230.27
732.54	230.05
732.87	229.79
733.20	229.54
733.53	229.39
733.86	229.25
734.19	228.98
734.52	228.93
734.85	228.96
735.18	228.69
735.51	228.64
735.84	228.44
736.17	228.35
736.50	227.95
736.83	228.14
737.16	227.99
737.49	227.75
737.82	227.58
738.15	227.47
738.48	227.33
738.81	227.06
739.14	226.86
739.47	226.83
739.80	226.70
740.13	226.63
740.46	226.35
740.79	226.15
741.12	225.94
741.45	225.73
741.78	225.46
742.11	225.39
742.44	225.18
742.77	225.04
743.10	224.80
743.43	224.70
743.75	224.20
744.08	224.50
744.41	224.36
744.74	224.21
745.07	223.95
745.40	223.82
745.73	223.89
746.06	223.85
746.39	223.70
746.71	223.57
747.04	223.38
747.37	223.31
747.70	223.21
748.03	223.10
748.36	222.99
748.68	222.82
749.01	222.64
749.34	222.51
749.67	222.45
750.00	222.45
750.33	222.63
750.65	222.54
750.98	221.95
751.31	221.86
751.64	221.78
751.97	221.90
752.29	221.81
752.62	221.53
752.95	221.43
753.28	221.24
753.60	221.10
753.93	221.10
754.26	220.94
754.59	220.75
754.91	220.71
755.24	220.63
755.57	220.55
755.90	220.39
756.22	220.22
756.55	220.00
756.88	219.81
757.20	219.39
757.53	219.20
757.86	219.10
758.19	219.06
758.51	218.93
758.84	218.71
759.17	218.61
759.49	218.51
759.82	218.54
760.15	218.55
760.47	218.52
760.80	218.30
761.13	218.33
761.45	218.16
761.78	217.97
762.11	217.92
762.43	217.78
762.76	217.67
763.08	217.67
763.41	217.62
763.74	217.55
764.06	217.50
764.39	217.46
764.71	217.42
765.04	217.32
765.37	217.25
765.69	217.18
766.02	217.02
766.34	217.00
766.67	216.81
767.00	216.82
767.32	216.84
767.65	216.97
767.97	216.89
768.30	216.92
768.62	216.91
768.95	216.76
769.27	216.72
769.60	216.75
769.92	216.67
770.25	216.59
770.57	216.45
770.90	216.41
771.22	216.32
771.55	216.29
771.87	216.27
772.20	216.18
772.52	216.45
772.85	216.87
773.17	216.86
773.50	216.80
773.82	216.62
774.15	216.42
774.47	216.19
774.80	216.15
775.12	216.07
775.45	216.04
775.77	216.01
776.09	216.01
776.42	216.01
776.74	216.07
777.07	216.00
777.39	216.02
777.72	215.90
778.04	215.94
778.36	215.85
778.69	215.85
779.01	215.84
779.33	215.41
779.66	214.98
779.98	214.81
780.31	214.77
780.63	214.84
780.95	214.89
781.28	214.83
781.60	214.71
781.92	214.70
782.25	214.65
782.57	214.64
782.89	214.59
783.22	214.47
783.54	214.30
783.86	214.30
784.19	214.18
784.51	214.35
784.83	214.23
785.16	214.15
785.48	214.12
785.80	214.11
786.12	214.14
786.45	214.07
786.77	214.14
787.09	214.11
787.42	214.03
787.74	214.01
788.06	214.00
788.38	213.97
788.71	214.00
789.03	213.97
789.35	213.99
789.67	213.97
789.99	214.02
790.32	214.07
790.64	214.08
790.96	214.46
791.28	214.25
791.61	214.31
791.93	214.31
792.25	214.25
792.57	214.48
792.89	214.44
793.21	214.45
793.54	214.37
793.86	214.30
794.18	214.25
794.50	214.19
794.82	214.13
795.14	214.13
795.47	214.05
795.79	214.08
796.11	213.96
796.43	213.84
796.75	213.75
797.07	213.67
797.39	213.64
797.71	213.33
798.04	213.39
798.36	213.34
798.68	213.33
799.00	213.36
799.32	213.15
799.64	213.17
799.96	213.07
800.28	213.06
800.60	213.02
800.92	213.05
801.24	212.97
801.56	212.94
801.89	212.87
802.21	212.90
802.53	212.77
802.85	212.88
803.17	213.06
803.49	213.01
803.81	212.99
804.13	212.88
804.45	212.79
804.77	212.80
805.09	212.79
805.41	212.77
805.73	212.64
806.05	212.54
806.37	212.54
806.69	212.56
807.01	212.55
807.33	212.62
807.65	212.49
807.97	212.71
808.28	212.71
808.60	212.72
808.92	212.67
809.24	212.89
809.56	212.74
809.88	212.59
810.20	212.63
810.52	212.65
810.84	212.62
811.16	212.58
811.48	212.49
811.80	212.60
812.12	212.56
812.43	212.72
812.75	212.73
813.07	212.61
813.39	212.62
813.71	212.64
814.03	212.54
814.35	212.51
814.67	212.25
814.98	212.17
815.30	212.15
815.62	212.16
815.94	211.89
816.26	211.87
816.58	211.76
816.89	211.70
817.21	211.60
817.53	211.65
817.85	211.66
818.17	211.64
818.48	211.48
818.80	211.53
819.12	211.43
819.44	211.30
819.76	211.29
820.07	211.23
820.39	211.17
820.71	211.18
821.03	211.25
821.34	211.28
821.66	211.38
821.98	211.47
822.30	211.42
822.61	211.68
822.93	211.72
823.25	211.77
823.57	211.84
823.88	211.93
824.20	211.97
824.52	212.08
824.83	212.09
825.15	212.00
825.47	212.00
825.79	212.01
826.10	212.03
826.42	212.07
826.74	212.13
827.05	212.10
827.37	212.12
827.69	212.08
828.00	212.10
828.32	212.11
828.64	212.03
828.95	212.19
829.27	212.04
829.58	211.99
829.90	212.06
830.22	212.02
830.53	212.00
830.85	211.91
831.17	211.81
831.48	211.87
831.80	211.87
832.11	211.87
832.43	211.74
832.75	211.78
833.06	212.01
833.38	211.89
833.69	211.90
834.01	211.95
834.32	211.97
834.64	211.97
834.96	212.00
835.27	211.97
835.59	211.86
835.90	211.83
836.22	211.80
836.53	211.80
836.85	211.75
837.16	212.09
837.48	212.10
837.79	212.23
838.11	212.18
838.42	212.21
838.74	212.20
839.05	212.27
839.37	212.28
839.68	212.04
840.00	212.05
840.31	212.05
840.63	212.01
840.94	211.92
841.26	211.82
841.57	211.74
841.88	211.80
842.20	211.76
842.51	211.71
842.83	211.73
843.14	212.00
843.46	212.06
843.77	211.81
844.08	211.81
844.40	211.62
844.71	211.55
845.03	211.49
845.34	211.47
845.65	211.44
845.97	211.41
846.28	211.48
846.60	211.49
846.91	211.42
847.22	211.35
847.54	211.46
847.85	211.52
848.16	211.49
848.48	211.44
848.79	211.56
849.10	211.53
849.42	211.59
849.73	211.22
850.04	211.10
850.36	211.06
850.67	211.12
850.98	211.18
851.30	211.26
851.61	211.27
851.92	211.30
852.23	211.35
852.55	211.34
852.86	211.23
853.17	211.34
853.49	211.44
853.80	211.53
854.11	211.54
854.42	211.55
854.74	211.53
855.05	211.50
855.36	211.33
855.67	211.42
855.99	211.40
856.30	211.80
856.61	211.84
856.92	211.80
857.23	211.79
857.55	211.70
857.86	211.69
858.17	211.78
858.48	211.67
858.79	211.63
859.11	211.61
859.42	211.61
859.73	211.51
860.04	211.54
860.35	211.44
860.66	211.40
860.98	211.43
861.29	211.47
861.60	211.47
861.91	211.57
862.22	211.45
862.53	211.51
862.84	211.12
863.16	211.17
863.47	211.19
863.78	211.15
864.09	211.19
864.40	211.12
864.71	211.13
865.02	211.17
865.33	211.11
865.64	211.15
865.95	211.13
866.27	211.35
866.58	211.28
866.89	211.28
867.20	211.27
867.51	211.17
867.82	211.16
868.13	211.21
868.44	211.20
868.75	211.33
869.06	211.26
869.37	211.21
869.68	211.10
869.99	211.09
870.30	211.16
870.61	211.23
870.92	211.28
871.23	211.23
871.54	211.28
871.85	211.41
872.16	211.40
872.47	211.38
872.78	211.18
873.09	211.16
873.40	211.16
873.71	211.08
874.02	211.07
874.33	210.99
874.64	211.00
874.95	210.95
875.26	210.84
875.56	210.80
875.87	210.88
876.18	210.91
876.49	211.20
876.80	211.13
877.11	211.01
877.42	210.90
877.73	210.88
878.04	210.84
878.35	210.82
878.66	210.80
878.96	210.87
879.27	210.84
879.58	210.89
879.89	210.81
880.20	210.97
880.51	210.97
880.82	211.02
881.12	210.98
881.43	210.88
881.74	210.87
882.05	210.87
882.36	210.88
882.67	210.87
882.97	210.58
883.28	210.58
883.59	210.62
883.90	210.70
884.21	210.79
884.51	210.83
884.82	210.81
885.13	210.83
885.44	210.83
885.74	210.84
886.05	210.83
886.36	210.85
886.67	210.73
886.98	210.97
887.28	210.99
887.59	211.01
887.90	211.07
888.20	211.05
888.51	211.16
888.82	211.06
889.13	211.00
889.43	211.27
889.74	211.21
890.05	211.18
890.35	211.10
890.66	211.02
890.97	210.93
891.28	210.81
891.58	210.79
891.89	210.73
892.20	210.68
892.50	210.58
892.81	210.58
893.12	210.54
893.42	210.26
893.73	210.29
894.04	210.28
894.34	210.25
894.65	210.18
894.95	210.05
895.26	210.09
895.57	210.36
895.87	210.01
896.18	210.02
896.48	210.05
896.79	210.09
897.10	210.18
897.40	210.23
897.71	210.29
898.01	210.26
898.32	210.26
898.63	210.27
898.93	210.39
899.24	210.43
899.54	210.42
899.85	210.45
900.15	210.35
900.46	210.34
900.76	210.41
901.07	210.52
901.38	210.51
901.68	210.59
901.99	210.37
902.29	210.41
902.60	210.51
902.90	210.53
903.21	210.53
903.51	210.47
903.82	210.53
904.12	210.56
904.43	210.65
904.73	210.66
905.03	210.70
905.34	210.94
905.64	210.90
905.95	210.92
906.25	210.90
906.56	210.99
906.86	210.96
907.17	210.90
907.47	210.90
907.77	210.95
908.08	210.83
908.38	210.85
908.69	210.93
908.99	210.90
909.30	210.92
909.60	210.96
909.90	210.95
910.21	210.87
910.51	210.81
910.81	210.74
911.12	210.81
911.42	210.79
911.73	210.53
912.03	210.53
912.33	210.62
912.64	210.60
912.94	210.59
913.24	210.51
913.55	210.49
913.85	210.48
914.15	210.56
914.46	210.69
914.76	210.68
915.06	210.65
915.37	210.56
915.67	210.58
915.97	210.55
916.27	210.50
916.58	210.48
916.88	210.47
917.18	210.48
917.49	210.67
917.79	210.67
918.09	210.76
918.39	210.86
918.70	210.86
919.00	210.98
919.30	211.14
919.60	211.25
919.91	211.24
920.21	211.21
920.51	211.14
920.81	211.05
921.12	211.05
921.42	211.02
921.72	211.12
922.02	211.07
922.32	211.13
922.63	211.17
922.93	211.37
923.23	211.42
923.53	211.40
923.83	211.20
924.13	211.25
924.44	211.18
924.74	211.25
925.04	211.25
925.34	211.20
925.64	211.07
925.94	211.02
926.24	211.26
926.55	211.22
926.85	211.22
927.15	211.24
927.45	211.31
927.75	211.23
928.05	211.17
928.35	211.15
928.65	211.20
928.95	211.25
929.26	211.10
929.56	211.18
929.86	211.22
930.16	211.18
930.46	211.18
930.76	211.23
931.06	211.11
931.36	211.10
931.66	211.13
931.96	211.14
932.26	211.17
932.56	211.01
932.86	211.15
933.16	211.17
933.46	211.14
933.76	211.08
934.06	211.22
934.36	211.39
934.66	211.41
934.96	211.33
935.26	211.28
935.56	211.34
935.86	211.23
936.16	211.21
936.46	211.17
936.76	211.16
937.06	211.09
937.36	211.12
937.66	211.09
937.96	211.01
938.26	210.92
938.56	210.91
938.86	210.94
939.16	210.98
939.46	211.00
939.76	211.02
940.06	210.96
940.35	210.89
940.65	210.75
940.95	210.80
941.25	210.80
941.55	210.78
941.85	210.80
942.15	210.91
942.45	211.01
942.75	211.03
943.04	211.01
943.34	211.07
943.64	210.98
943.94	210.94
944.24	211.02
944.54	211.08
944.84	211.01
945.13	210.94
945.43	210.86
945.73	210.88
946.03	210.90
946.33	210.92
946.62	210.86
946.92	210.83
947.22	210.85
947.52	210.86
947.82	210.90
948.11	210.82
948.41	210.71
948.71	210.62
949.01	210.70
949.31	210.68
949.60	210.63
949.90	210.74
950.20	210.76
950.50	210.71
950.79	210.71
951.09	210.84
951.39	210.77
951.69	210.75
951.98	210.77
952.28	210.76
952.58	210.72
952.87	210.71
953.17	210.78
953.47	210.66
953.76	210.69
954.06	210.62
954.36	210.47
954.66	210.46
954.95	210.48
955.25	210.51
955.55	210.52
955.84	210.50
956.14	210.52
956.44	210.51
956.73	210.48
957.03	210.53
957.32	210.47
957.62	210.52
957.92	210.56
958.21	210.52
958.51	210.92
958.81	210.99
959.10	211.09
959.40	211.08
959.69	211.22
959.99	211.20
960.29	211.21
960.58	211.30
960.88	211.42
961.17	211.40
961.47	211.41
961.76	211.32
962.06	211.37
962.36	211.24
962.65	211.24
962.95	211.26
963.24	211.18
963.54	211.22
963.83	211.21
964.13	211.16
964.42	211.05
964.72	210.72
965.01	210.78
965.31	210.71
965.60	210.71
965.90	210.85
966.19	210.84
966.49	210.86
966.78	210.88
967.08	210.90
967.37	210.86
967.67	210.80
967.96	210.87
968.26	210.87
968.55	210.95
968.85	210.93
969.14	210.91
969.43	210.90
969.73	210.80
970.02	210.81
970.32	210.84
970.61	210.90
970.91	210.82
971.20	210.74
971.49	210.78
971.79	210.76
972.08	210.54
972.38	210.52
972.67	210.55
972.96	210.59
973.26	210.51
973.55	210.63
973.85	210.69
974.14	210.72
974.43	210.73
974.73	210.68
975.02	210.75
975.31	210.75
975.61	210.75
975.90	210.75
976.19	210.78
976.49	210.76
976.78	210.76
977.07	210.80
977.37	210.86
977.66	210.82
977.95	210.83
978.24	210.84
978.54	210.92
978.83	210.85
979.12	210.87
979.42	210.81
979.71	210.80
980.00	210.73
980.29	210.75
980.59	210.69
980.88	210.78
981.17	210.72
981.46	210.79
981.76	210.79
982.05	210.88
982.34	210.94
982.63	210.96
982.93	210.99
983.22	211.08
983.51	211.05
983.80	211.11
984.09	211.13
984.39	211.09
984.68	211.07
984.97	211.11
985.26	211.13
985.55	211.19
985.85	211.07
986.14	211.08
986.43	211.09
986.72	211.06
987.01	210.92
987.30	210.96
987.59	210.86
987.89	210.90
988.18	210.84
988.47	210.77
988.76	210.80
989.05	210.78
989.34	210.65
989.63	210.72
989.92	210.67
990.22	210.60
990.51	210.62
990.80	210.54
991.09	210.63
991.38	210.64
991.67	210.58
991.96	210.66
992.25	210.71
992.54	210.73
992.83	210.78
993.12	210.83
993.41	210.86
993.70	211.05
993.99	211.16
994.28	211.15
994.58	211.21
994.87	211.14
995.16	211.10
995.45	211.10
995.74	211.03
996.03	211.15
996.32	211.23
996.61	211.35
996.90	211.36
997.19	211.34
997.48	211.28
997.77	211.27
998.06	211.21
998.34	211.17
998.63	211.07
998.92	211.03
999.21	211.11
999.50	211.12
999.79	211.03
1000.08	211.00
1000.37	211.02
1000.66	210.92
1000.95	211.01
1001.24	211.05
1001.53	211.14
1001.82	211.09
1002.11	210.95
1002.40	210.98
1002.68	211.02
1002.97	211.32
1003.26	211.27
1003.55	211.21
1003.84	211.29
1004.13	211.46
1004.42	211.41
1004.71	211.42
1004.99	211.42
1005.28	211.44
1005.57	211.36
1005.86	211.28
1006.15	211.20
1006.44	211.19
1006.72	211.24
1007.01	211.11
1007.30	211.15
1007.59	211.15
1007.88	211.13
1008.17	211.10
1008.45	210.96
1008.74	210.80
1009.03	210.60
1009.32	210.61
1009.60	210.64
1009.89	210.53
1010.18	210.25
1010.47	210.26
1010.76	210.27
1011.04	210.32
1011.33	210.74
1011.62	210.74
1011.91	210.76
1012.19	210.82
1012.48	210.83
1012.77	210.84
1013.05	211.02
1013.34	211.04
1013.63	211.02
1013.92	211.05
1014.20	211.09
1014.49	211.11
1014.78	211.10
1015.06	211.00
1015.35	210.99
1015.64	211.01
1015.92	211.11
1016.21	211.21
1016.50	211.20
1016.78	211.31
1017.07	211.31
1017.36	210.83
1017.64	210.82
1017.93	210.93
1018.22	210.82
1018.50	210.83
1018.79	210.75
1019.08	210.61
1019.36	210.59
1019.65	210.53
1019.93	210.65
1020.22	210.70
1020.51	210.91
1020.79	210.87
1021.08	209.60
1021.36	210.60
1021.65	209.45
1021.94	210.65
1022.22	211.00
1022.51	210.40
1022.79	212.45
1023.08	211.65
1023.36	214.45
1023.65	209.20
>>>>>End Processed Spectral Data<<<<<
