SpectraSuite Data File
++++++++++++++++++++++++++++++++++++
Date: Mon Feb 25 16:55:30 EST 2013
User: group
Dark Spectrum Present: No
Reference Spectrum Present: No
Number of Sampled Component Spectra: 1
Spectrometers: USB2E7196
Integration Time (usec): 104000 (USB2E7196)
Spectra Averaged: 20 (USB2E7196)
Boxcar Smoothing: 10 (USB2E7196)
Correct for Electrical Dark: No (USB2E7196)
Strobe/Lamp Enabled: No (USB2E7196)
Correct for Detector Non-linearity: No (USB2E7196)
Correct for Stray Light: No (USB2E7196)
Number of Pixels in Processed Spectrum: 2048
>>>>>Begin Processed Spectral Data<<<<<
339.09	0.00
339.48	198.40
339.86	199.80
340.24	201.85
340.63	203.45
341.01	209.40
341.39	204.80
341.78	207.15
342.16	208.85
342.54	208.00
342.93	198.56
343.31	208.57
343.69	209.17
344.07	209.64
344.46	210.12
344.84	210.53
345.22	210.59
345.60	210.96
345.99	211.20
346.37	211.30
346.75	211.50
347.13	211.61
347.52	211.66
347.90	211.88
348.28	211.84
348.66	211.95
349.05	211.95
349.43	212.02
349.81	212.10
350.19	212.11
350.57	212.17
350.96	212.21
351.34	212.37
351.72	212.45
352.10	212.58
352.48	212.57
352.87	212.61
353.25	212.71
353.63	212.71
354.01	212.69
354.39	212.84
354.77	212.90
355.15	213.09
355.54	213.09
355.92	213.02
356.30	213.08
356.68	213.43
357.06	213.51
357.44	213.58
357.82	213.72
358.20	213.83
358.58	213.84
358.97	213.91
359.35	213.97
359.73	214.13
360.11	214.14
360.49	214.28
360.87	214.26
361.25	214.34
361.63	214.49
362.01	214.62
362.39	214.62
362.77	214.62
363.15	214.52
363.53	214.65
363.91	214.63
364.29	214.66
364.67	214.24
365.05	214.17
365.43	214.23
365.81	214.22
366.19	214.29
366.57	214.43
366.95	214.40
367.33	214.33
367.71	214.23
368.09	214.32
368.47	214.30
368.85	214.34
369.23	214.44
369.61	214.33
369.99	214.43
370.37	214.46
370.75	214.68
371.13	214.63
371.51	214.45
371.89	214.51
372.27	214.56
372.65	214.63
373.03	214.66
373.41	214.54
373.78	214.43
374.16	214.22
374.54	214.08
374.92	213.98
375.30	214.01
375.68	213.90
376.06	213.93
376.44	213.90
376.82	213.88
377.19	213.73
377.57	213.69
377.95	213.47
378.33	213.36
378.71	213.06
379.09	213.11
379.47	213.19
379.84	213.11
380.22	212.95
380.60	212.81
380.98	212.76
381.36	212.70
381.73	212.60
382.11	212.66
382.49	212.60
382.87	212.60
383.25	212.53
383.62	212.91
384.00	212.80
384.38	212.75
384.76	212.75
385.13	212.83
385.51	212.80
385.89	212.79
386.27	212.80
386.64	212.82
387.02	212.74
387.40	212.69
387.78	212.62
388.15	212.66
388.53	212.64
388.91	212.57
389.29	212.57
389.66	212.59
390.04	212.50
390.42	212.58
390.79	212.55
391.17	212.52
391.55	212.15
391.92	212.08
392.30	212.14
392.68	212.03
393.05	212.06
393.43	212.06
393.81	212.14
394.18	212.07
394.56	212.12
394.94	212.15
395.31	212.14
395.69	212.27
396.06	212.34
396.44	212.43
396.82	212.52
397.19	212.69
397.57	212.71
397.95	212.91
398.32	212.85
398.70	212.95
399.07	213.12
399.45	213.20
399.82	213.31
400.20	213.35
400.58	213.46
400.95	213.43
401.33	213.61
401.70	213.90
402.08	214.13
402.45	214.30
402.83	214.52
403.20	214.79
403.58	214.97
403.95	215.28
404.33	215.55
404.71	215.73
405.08	216.26
405.46	216.61
405.83	216.81
406.21	217.10
406.58	217.56
406.96	217.87
407.33	218.33
407.70	218.81
408.08	219.59
408.45	220.25
408.83	220.94
409.20	221.53
409.58	222.05
409.95	222.79
410.33	223.57
410.70	224.38
411.08	225.29
411.45	226.31
411.82	227.25
412.20	228.41
412.57	229.95
412.95	230.94
413.32	232.31
413.69	233.79
414.07	235.40
414.44	237.13
414.82	238.95
415.19	241.00
415.56	243.11
415.94	245.10
416.31	247.58
416.68	250.01
417.06	252.91
417.43	255.72
417.81	258.90
418.18	262.10
418.55	265.56
418.93	269.30
419.30	273.05
419.67	277.22
420.04	281.44
420.42	285.80
420.79	290.93
421.16	296.15
421.54	301.52
421.91	307.03
422.28	312.69
422.66	318.81
423.03	324.86
423.40	331.16
423.77	337.95
424.15	344.63
424.52	351.79
424.89	359.46
425.26	366.92
425.64	374.14
426.01	382.13
426.38	390.43
426.75	398.77
427.13	407.55
427.50	416.70
427.87	426.26
428.24	435.82
428.61	445.02
428.99	455.07
429.36	466.24
429.73	477.15
430.10	488.00
430.47	499.07
430.85	510.51
431.22	522.61
431.59	535.46
431.96	548.06
432.33	561.99
432.70	575.46
433.08	591.38
433.45	606.25
433.82	621.38
434.19	638.03
434.56	654.51
434.93	670.38
435.30	686.24
435.68	703.98
436.05	721.47
436.42	738.83
436.79	755.16
437.16	772.28
437.53	790.78
437.90	809.15
438.27	827.37
438.64	846.32
439.01	864.16
439.38	880.08
439.75	895.56
440.13	913.14
440.50	929.84
440.87	943.56
441.24	958.05
441.61	973.74
441.98	986.00
442.35	999.96
442.72	1013.79
443.09	1027.05
443.46	1035.66
443.83	1041.96
444.20	1047.66
444.57	1055.07
444.94	1059.63
445.31	1063.99
445.68	1068.19
446.05	1070.77
446.42	1070.51
446.79	1069.76
447.16	1068.85
447.53	1068.55
447.90	1063.23
448.27	1057.98
448.64	1050.03
449.01	1044.43
449.37	1033.58
449.74	1023.00
450.11	1010.07
450.48	996.32
450.85	982.20
451.22	970.16
451.59	958.53
451.96	947.41
452.33	932.29
452.70	918.41
453.07	901.80
453.43	884.82
453.80	868.67
454.17	853.03
454.54	838.05
454.91	822.17
455.28	806.49
455.65	791.91
456.02	777.14
456.38	764.71
456.75	749.20
457.12	736.27
457.49	723.39
457.86	711.10
458.23	700.33
458.59	688.58
458.96	676.70
459.33	666.18
459.70	655.64
460.07	647.18
460.43	637.77
460.80	628.74
461.17	620.81
461.54	612.34
461.91	604.26
462.27	596.37
462.64	589.51
463.01	581.96
463.38	574.58
463.74	567.24
464.11	560.85
464.48	555.22
464.85	549.11
465.21	544.57
465.58	539.56
465.95	533.51
466.32	528.61
466.68	523.50
467.05	518.67
467.42	513.76
467.78	508.62
468.15	503.63
468.52	499.93
468.88	495.39
469.25	491.10
469.62	487.76
469.98	483.99
470.35	480.38
470.72	477.02
471.08	473.50
471.45	470.48
471.82	467.27
472.18	463.96
472.55	461.50
472.92	458.43
473.28	455.84
473.65	453.38
474.02	450.95
474.38	449.04
474.75	447.26
475.11	445.55
475.48	444.15
475.85	442.88
476.21	441.65
476.58	440.52
476.94	439.86
477.31	438.91
477.67	438.17
478.04	437.64
478.41	437.33
478.77	437.29
479.14	436.82
479.50	436.70
479.87	436.90
480.23	437.16
480.60	437.26
480.96	437.40
481.33	438.14
481.69	438.84
482.06	439.36
482.42	439.83
482.79	440.28
483.15	441.26
483.52	442.55
483.88	443.73
484.25	444.82
484.61	445.94
484.98	447.23
485.34	448.85
485.71	450.75
486.07	452.69
486.44	454.43
486.80	456.57
487.17	458.95
487.53	461.56
487.90	464.27
488.26	467.34
488.62	470.45
488.99	473.51
489.35	476.69
489.72	480.20
490.08	484.02
490.44	487.78
490.81	491.70
491.17	495.51
491.54	499.70
491.90	504.15
492.26	508.93
492.63	513.93
492.99	518.92
493.36	524.12
493.72	529.50
494.08	535.01
494.45	541.08
494.81	547.30
495.17	553.34
495.54	559.61
495.90	565.97
496.26	572.66
496.63	579.41
496.99	586.35
497.35	593.53
497.72	600.83
498.08	608.59
498.44	616.23
498.80	624.54
499.17	632.87
499.53	641.27
499.89	649.91
500.26	658.51
500.62	667.03
500.98	675.90
501.34	684.76
501.71	693.93
502.07	703.01
502.43	712.35
502.79	721.49
503.16	730.97
503.52	740.45
503.88	749.96
504.24	759.58
504.60	769.30
504.97	779.27
505.33	789.22
505.69	799.64
506.05	809.87
506.41	819.71
506.78	829.38
507.14	839.14
507.50	849.14
507.86	858.96
508.22	869.14
508.59	878.91
508.95	888.98
509.31	898.91
509.67	908.98
510.03	918.80
510.39	929.26
510.75	939.42
511.12	949.47
511.48	959.66
511.84	969.71
512.20	979.65
512.56	989.48
512.92	999.29
513.28	1008.74
513.64	1018.29
514.00	1027.80
514.37	1037.30
514.73	1047.09
515.09	1056.25
515.45	1065.43
515.81	1074.49
516.17	1083.30
516.53	1092.11
516.89	1100.85
517.25	1109.25
517.61	1117.41
517.97	1125.06
518.33	1132.72
518.69	1140.28
519.05	1147.90
519.41	1155.59
519.77	1163.42
520.13	1170.71
520.49	1177.48
520.85	1184.36
521.21	1191.50
521.57	1198.61
521.93	1205.13
522.29	1211.87
522.65	1218.48
523.01	1225.22
523.37	1231.05
523.73	1237.49
524.09	1243.35
524.45	1249.37
524.81	1255.32
525.17	1261.57
525.53	1267.74
525.89	1273.46
526.25	1279.39
526.61	1284.24
526.97	1289.27
527.33	1294.22
527.68	1299.35
528.04	1304.34
528.40	1308.93
528.76	1313.50
529.12	1318.13
529.48	1323.07
529.84	1327.34
530.20	1331.80
530.56	1336.11
530.91	1341.43
531.27	1345.80
531.63	1350.24
531.99	1354.38
532.35	1358.28
532.71	1361.82
533.07	1365.95
533.42	1369.96
533.78	1373.70
534.14	1377.72
534.50	1381.02
534.86	1384.62
535.21	1387.34
535.57	1391.09
535.93	1394.35
536.29	1397.22
536.65	1400.10
537.00	1402.65
537.36	1405.02
537.72	1407.44
538.08	1409.50
538.44	1411.53
538.79	1414.21
539.15	1416.47
539.51	1418.75
539.87	1421.26
540.22	1423.75
540.58	1426.15
540.94	1428.52
541.29	1430.29
541.65	1431.71
542.01	1433.80
542.37	1435.26
542.72	1437.23
543.08	1438.68
543.44	1440.75
543.79	1441.88
544.15	1443.12
544.51	1445.15
544.87	1446.98
545.22	1448.19
545.58	1449.47
545.94	1449.81
546.29	1450.15
546.65	1450.69
547.01	1451.06
547.36	1451.39
547.72	1451.54
548.07	1451.44
548.43	1450.99
548.79	1450.72
549.14	1451.18
549.50	1451.28
549.86	1451.12
550.21	1451.39
550.57	1451.57
550.92	1450.87
551.28	1451.20
551.64	1450.89
551.99	1450.55
552.35	1449.98
552.70	1449.51
553.06	1449.39
553.41	1449.30
553.77	1449.23
554.13	1448.97
554.48	1448.84
554.84	1449.17
555.19	1449.04
555.55	1448.51
555.90	1448.24
556.26	1447.80
556.61	1447.06
556.97	1446.06
557.32	1445.60
557.68	1444.35
558.03	1443.27
558.39	1442.32
558.74	1441.33
559.10	1440.49
559.45	1439.21
559.81	1438.59
560.16	1437.54
560.52	1436.42
560.87	1435.78
561.23	1434.27
561.58	1433.64
561.94	1432.16
562.29	1429.91
562.64	1428.52
563.00	1427.33
563.35	1426.37
563.71	1425.98
564.06	1424.84
564.42	1424.26
564.77	1423.48
565.12	1423.03
565.48	1422.45
565.83	1421.72
566.19	1420.97
566.54	1419.91
566.89	1418.79
567.25	1417.69
567.60	1417.01
567.96	1416.08
568.31	1415.18
568.66	1414.21
569.02	1412.40
569.37	1410.82
569.72	1409.93
570.08	1408.54
570.43	1406.69
570.78	1404.75
571.14	1402.43
571.49	1400.60
571.84	1398.65
572.20	1396.36
572.55	1393.92
572.90	1390.87
573.26	1388.17
573.61	1385.16
573.96	1382.77
574.31	1379.80
574.67	1376.54
575.02	1372.70
575.37	1369.52
575.72	1365.75
576.08	1362.55
576.43	1358.85
576.78	1355.51
577.13	1351.95
577.49	1348.73
577.84	1345.53
578.19	1342.40
578.54	1339.51
578.90	1336.80
579.25	1333.15
579.60	1329.40
579.95	1325.63
580.30	1322.49
580.66	1319.23
581.01	1315.74
581.36	1311.60
581.71	1307.68
582.06	1304.09
582.42	1300.85
582.77	1296.56
583.12	1292.63
583.47	1288.82
583.82	1285.21
584.17	1281.70
584.53	1277.92
584.88	1273.53
585.23	1269.31
585.58	1265.09
585.93	1260.77
586.28	1256.45
586.63	1252.46
586.98	1248.57
587.34	1244.94
587.69	1240.71
588.04	1236.78
588.39	1232.93
588.74	1228.78
589.09	1225.12
589.44	1220.59
589.79	1216.59
590.14	1212.89
590.49	1208.87
590.84	1204.51
591.19	1201.09
591.54	1197.18
591.89	1192.68
592.25	1188.66
592.60	1184.45
592.95	1179.81
593.30	1175.00
593.65	1169.97
594.00	1165.28
594.35	1161.85
594.70	1157.07
595.05	1152.82
595.40	1148.19
595.75	1143.46
596.10	1139.24
596.45	1135.10
596.80	1131.32
597.15	1127.17
597.50	1122.57
597.85	1118.32
598.19	1113.97
598.54	1109.32
598.89	1104.76
599.24	1101.03
599.59	1096.81
599.94	1092.67
600.29	1088.57
600.64	1084.48
600.99	1080.14
601.34	1076.23
601.69	1070.73
602.04	1066.51
602.39	1062.11
602.74	1057.80
603.08	1053.75
603.43	1050.01
603.78	1045.55
604.13	1041.17
604.48	1036.91
604.83	1033.19
605.18	1029.37
605.53	1025.20
605.87	1020.67
606.22	1016.73
606.57	1011.80
606.92	1007.19
607.27	1002.74
607.62	998.47
607.96	994.42
608.31	990.72
608.66	986.05
609.01	981.79
609.36	977.18
609.70	972.44
610.05	967.72
610.40	963.14
610.75	958.15
611.10	953.84
611.44	948.71
611.79	943.70
612.14	938.65
612.49	933.47
612.83	928.84
613.18	924.02
613.53	918.90
613.88	914.33
614.22	909.81
614.57	904.89
614.92	900.01
615.27	895.08
615.61	890.09
615.96	885.65
616.31	881.15
616.65	877.08
617.00	872.61
617.35	868.34
617.70	863.80
618.04	858.96
618.39	853.80
618.74	849.49
619.08	845.02
619.43	840.62
619.78	836.46
620.12	832.25
620.47	828.05
620.82	823.59
621.16	818.98
621.51	814.45
621.85	810.39
622.20	805.98
622.55	801.54
622.89	796.98
623.24	792.60
623.59	788.05
623.93	783.55
624.28	779.61
624.62	775.54
624.97	771.25
625.32	767.08
625.66	763.18
626.01	759.10
626.35	755.03
626.70	750.85
627.04	746.71
627.39	742.43
627.73	738.50
628.08	734.90
628.43	730.99
628.77	727.19
629.12	723.07
629.46	719.48
629.81	715.87
630.15	712.14
630.50	708.35
630.84	704.58
631.19	700.75
631.53	696.83
631.88	692.70
632.22	688.88
632.57	685.77
632.91	682.06
633.26	678.63
633.60	675.03
633.95	671.51
634.29	667.92
634.64	664.61
634.98	660.91
635.32	657.35
635.67	654.14
636.01	650.75
636.36	647.52
636.70	644.26
637.05	640.85
637.39	637.75
637.73	634.66
638.08	631.98
638.42	629.11
638.77	626.15
639.11	623.15
639.45	620.16
639.80	616.56
640.14	613.39
640.49	610.13
640.83	606.98
641.17	603.84
641.52	600.68
641.86	597.41
642.20	594.61
642.55	591.10
642.89	587.91
643.23	584.68
643.58	581.80
643.92	578.60
644.26	575.60
644.61	572.66
644.95	569.43
645.29	565.99
645.64	562.74
645.98	559.53
646.32	556.64
646.66	553.65
647.01	550.84
647.35	548.18
647.69	545.24
648.04	542.50
648.38	539.69
648.72	536.88
649.06	533.95
649.41	530.98
649.75	528.27
650.09	525.46
650.43	522.72
650.78	519.61
651.12	516.74
651.46	513.98
651.80	511.24
652.14	508.65
652.49	506.17
652.83	503.49
653.17	500.69
653.51	497.96
653.85	495.46
654.20	492.77
654.54	489.85
654.88	487.26
655.22	484.73
655.56	481.98
655.90	479.21
656.25	476.69
656.59	474.06
656.93	471.67
657.27	469.34
657.61	466.69
657.95	464.38
658.29	462.00
658.64	459.73
658.98	457.15
659.32	454.53
659.66	451.95
660.00	449.42
660.34	446.99
660.68	444.48
661.02	441.80
661.36	439.50
661.70	437.32
662.05	434.94
662.39	432.80
662.73	430.86
663.07	428.94
663.41	426.70
663.75	424.48
664.09	422.41
664.43	420.10
664.77	418.25
665.11	416.09
665.45	414.10
665.79	412.08
666.13	410.12
666.47	408.29
666.81	406.35
667.15	404.42
667.49	402.70
667.83	401.11
668.17	399.48
668.51	397.69
668.85	396.08
669.19	394.66
669.53	392.69
669.87	390.70
670.21	388.91
670.55	387.32
670.89	385.94
671.23	384.32
671.57	382.89
671.91	381.26
672.25	379.84
672.58	378.30
672.92	376.52
673.26	375.07
673.60	373.44
673.94	371.90
674.28	370.46
674.62	368.99
674.96	367.38
675.30	365.95
675.64	364.47
675.97	362.86
676.31	361.33
676.65	359.89
676.99	358.77
677.33	357.39
677.67	356.03
678.01	354.41
678.34	353.02
678.68	351.63
679.02	350.12
679.36	348.61
679.70	347.17
680.04	345.90
680.37	344.55
680.71	343.29
681.05	342.04
681.39	340.75
681.73	339.48
682.06	338.33
682.40	337.05
682.74	335.89
683.08	334.83
683.42	333.55
683.75	332.35
684.09	330.99
684.43	329.77
684.77	328.51
685.10	327.43
685.44	326.12
685.78	324.83
686.12	323.78
686.45	322.69
686.79	321.58
687.13	320.64
687.46	319.56
687.80	318.49
688.14	317.30
688.48	316.32
688.81	315.25
689.15	314.17
689.49	313.04
689.82	311.99
690.16	310.74
690.50	309.60
690.83	308.55
691.17	307.44
691.51	306.27
691.84	305.34
692.18	304.33
692.52	303.45
692.85	302.60
693.19	301.76
693.52	300.86
693.86	299.86
694.20	298.78
694.53	297.91
694.87	296.94
695.21	296.02
695.54	295.06
695.88	294.01
696.21	292.97
696.55	292.09
696.88	291.13
697.22	290.25
697.56	289.51
697.89	288.68
698.23	287.82
698.56	287.00
698.90	286.19
699.23	285.34
699.57	284.45
699.90	283.52
700.24	282.60
700.58	281.74
700.91	280.99
701.25	280.43
701.58	279.64
701.92	278.97
702.25	278.34
702.59	277.50
702.92	276.84
703.26	276.06
703.59	275.22
703.93	274.78
704.26	274.11
704.60	273.39
704.93	272.65
705.26	271.96
705.60	271.34
705.93	270.57
706.27	270.03
706.60	269.51
706.94	269.05
707.27	268.38
707.61	267.76
707.94	267.12
708.27	266.35
708.61	265.63
708.94	264.96
709.28	264.35
709.61	263.79
709.94	263.16
710.28	262.74
710.61	262.34
710.95	261.50
711.28	261.27
711.61	260.76
711.95	260.37
712.28	259.93
712.61	259.46
712.95	259.14
713.28	258.71
713.61	258.10
713.95	257.51
714.28	257.10
714.61	256.60
714.95	256.12
715.28	255.52
715.61	255.04
715.95	254.56
716.28	253.95
716.61	253.58
716.95	253.13
717.28	252.64
717.61	252.19
717.94	251.79
718.28	251.07
718.61	250.57
718.94	250.00
719.27	249.58
719.61	249.16
719.94	248.68
720.27	248.05
720.60	247.74
720.94	247.37
721.27	246.93
721.60	246.61
721.93	246.32
722.27	246.16
722.60	245.94
722.93	245.64
723.26	245.36
723.59	244.94
723.93	244.59
724.26	244.31
724.59	243.92
724.92	243.62
725.25	243.38
725.59	243.14
725.92	242.90
726.25	242.57
726.58	242.29
726.91	241.93
727.24	241.67
727.57	241.38
727.91	240.95
728.24	240.73
728.57	240.43
728.90	240.19
729.23	239.75
729.56	239.57
729.89	239.34
730.22	239.06
730.55	238.76
730.89	238.56
731.22	238.27
731.55	238.05
731.88	237.72
732.21	237.38
732.54	236.98
732.87	236.70
733.20	236.39
733.53	236.14
733.86	235.88
734.19	235.67
734.52	235.43
734.85	235.46
735.18	235.19
735.51	235.05
735.84	234.77
736.17	234.67
736.50	234.25
736.83	234.36
737.16	234.13
737.49	233.98
737.82	233.77
738.15	233.54
738.48	233.30
738.81	233.17
739.14	232.86
739.47	232.68
739.80	232.53
740.13	232.36
740.46	232.03
740.79	231.78
741.12	231.55
741.45	231.32
741.78	230.96
742.11	230.80
742.44	230.47
742.77	230.34
743.10	230.10
743.43	229.86
743.75	229.29
744.08	229.58
744.41	229.35
744.74	229.18
745.07	228.92
745.40	228.84
745.73	228.77
746.06	228.65
746.39	228.56
746.71	228.29
747.04	228.11
747.37	228.03
747.70	227.86
748.03	227.68
748.36	227.52
748.68	227.39
749.01	227.19
749.34	227.07
749.67	226.82
750.00	226.69
750.33	226.85
750.65	226.76
750.98	226.24
751.31	226.01
751.64	225.76
751.97	225.84
752.29	225.62
752.62	225.36
752.95	225.16
753.28	224.89
753.60	224.84
753.93	224.81
754.26	224.62
754.59	224.40
754.91	224.22
755.24	224.10
755.57	223.90
755.90	223.71
756.22	223.49
756.55	223.30
756.88	223.04
757.20	222.69
757.53	222.40
757.86	222.20
758.19	222.14
758.51	222.18
758.84	221.82
759.17	221.63
759.49	221.48
759.82	221.53
760.15	221.50
760.47	221.26
760.80	221.04
761.13	220.96
761.45	220.83
761.78	220.71
762.11	220.63
762.43	220.55
762.76	220.42
763.08	220.48
763.41	220.52
763.74	220.47
764.06	220.33
764.39	220.28
764.71	220.20
765.04	220.06
765.37	219.84
765.69	219.85
766.02	219.79
766.34	219.62
766.67	219.47
767.00	219.40
767.32	219.55
767.65	219.68
767.97	219.61
768.30	219.62
768.62	219.57
768.95	219.34
769.27	219.18
769.60	219.17
769.92	218.97
770.25	218.78
770.57	218.64
770.90	218.60
771.22	218.52
771.55	218.45
771.87	218.41
772.20	218.35
772.52	218.50
772.85	218.82
773.17	218.78
773.50	218.68
773.82	218.53
774.15	218.25
774.47	217.92
774.80	217.75
775.12	217.65
775.45	217.51
775.77	217.50
776.09	217.46
776.42	217.42
776.74	217.46
777.07	217.35
777.39	217.35
777.72	217.16
778.04	217.09
778.36	216.95
778.69	216.90
779.01	216.83
779.33	216.50
779.66	216.05
779.98	215.98
780.31	215.92
780.63	216.00
780.95	216.15
781.28	216.07
781.60	216.06
781.92	216.05
782.25	216.03
782.57	216.01
782.89	215.99
783.22	215.87
783.54	215.78
783.86	215.81
784.19	215.74
784.51	215.87
784.83	215.77
785.16	215.78
785.48	215.78
785.80	215.76
786.12	215.72
786.45	215.70
786.77	215.70
787.09	215.62
787.42	215.49
787.74	215.32
788.06	215.30
788.38	215.32
788.71	215.27
789.03	215.28
789.35	215.27
789.67	215.11
789.99	215.17
790.32	214.99
790.64	215.00
790.96	215.29
791.28	215.16
791.61	215.12
791.93	215.13
792.25	215.07
792.57	215.30
792.89	215.23
793.21	215.20
793.54	215.23
793.86	215.19
794.18	215.16
794.50	215.07
794.82	215.05
795.14	215.01
795.47	215.03
795.79	215.00
796.11	214.90
796.43	214.90
796.75	214.89
797.07	214.90
797.39	214.83
797.71	214.48
798.04	214.42
798.36	214.44
798.68	214.37
799.00	214.37
799.32	214.16
799.64	214.22
799.96	214.20
800.28	214.16
800.60	214.11
800.92	214.14
801.24	214.12
801.56	214.19
801.89	214.11
802.21	214.05
802.53	213.99
802.85	214.11
803.17	214.29
803.49	214.20
803.81	214.20
804.13	214.15
804.45	214.13
804.77	214.12
805.09	214.08
805.41	214.06
805.73	213.90
806.05	213.78
806.37	213.65
806.69	213.64
807.01	213.52
807.33	213.62
807.65	213.49
807.97	213.70
808.28	213.64
808.60	213.68
808.92	213.66
809.24	213.86
809.56	213.69
809.88	213.54
810.20	213.51
810.52	213.59
810.84	213.57
811.16	213.57
811.48	213.53
811.80	213.63
812.12	213.64
812.43	213.76
812.75	213.80
813.07	213.82
813.39	213.80
813.71	213.78
814.03	213.63
814.35	213.63
814.67	213.42
814.98	213.31
815.30	213.32
815.62	213.29
815.94	213.03
816.26	213.00
816.58	212.92
816.89	212.97
817.21	212.83
817.53	212.77
817.85	212.74
818.17	212.79
818.48	212.59
818.80	212.60
819.12	212.54
819.44	212.47
819.76	212.45
820.07	212.44
820.39	212.45
820.71	212.52
821.03	212.54
821.34	212.56
821.66	212.68
821.98	212.63
822.30	212.60
822.61	212.83
822.93	212.87
823.25	212.90
823.57	212.83
823.88	212.96
824.20	212.99
824.52	213.05
824.83	213.02
825.15	213.08
825.47	213.09
825.79	213.10
826.10	213.02
826.42	213.00
826.74	213.03
827.05	212.98
827.37	213.00
827.69	212.96
828.00	212.95
828.32	212.93
828.64	212.92
828.95	213.15
829.27	213.09
829.58	213.03
829.90	213.09
830.22	213.18
830.53	213.00
830.85	212.95
831.17	212.84
831.48	212.79
831.80	212.76
832.11	212.79
832.43	212.76
832.75	212.82
833.06	213.03
833.38	212.96
833.69	213.02
834.01	212.99
834.32	212.95
834.64	212.97
834.96	212.96
835.27	212.94
835.59	212.75
835.90	212.62
836.22	212.60
836.53	212.50
836.85	212.42
837.16	212.80
837.48	212.85
837.79	212.98
838.11	212.98
838.42	212.95
838.74	212.93
839.05	212.90
839.37	212.89
839.68	212.63
840.00	212.60
840.31	212.61
840.63	212.51
840.94	212.46
841.26	212.40
841.57	212.36
841.88	212.42
842.20	212.32
842.51	212.26
842.83	212.30
843.14	212.63
843.46	212.61
843.77	212.37
844.08	212.29
844.40	212.19
844.71	212.12
845.03	212.13
845.34	212.02
845.65	212.00
845.97	212.00
846.28	212.06
846.60	212.12
846.91	212.09
847.22	212.13
847.54	212.24
847.85	212.26
848.16	212.24
848.48	212.15
848.79	212.40
849.10	212.49
849.42	212.49
849.73	212.10
850.04	212.06
850.36	212.00
850.67	212.06
850.98	212.11
851.30	212.15
851.61	212.15
851.92	212.18
852.23	212.25
852.55	212.27
852.86	212.24
853.17	212.19
853.49	212.21
853.80	212.24
854.11	212.22
854.42	212.26
854.74	212.18
855.05	212.16
855.36	211.87
855.67	211.86
855.99	211.89
856.30	212.35
856.61	212.37
856.92	212.31
857.23	212.27
857.55	212.20
857.86	212.18
858.17	212.25
858.48	212.18
858.79	212.11
859.11	212.13
859.42	212.12
859.73	212.11
860.04	212.08
860.35	212.02
860.66	211.95
860.98	211.87
861.29	211.95
861.60	211.98
861.91	212.13
862.22	211.97
862.53	211.90
862.84	211.40
863.16	211.38
863.47	211.41
863.78	211.44
864.09	211.42
864.40	211.53
864.71	211.45
865.02	211.57
865.33	211.54
865.64	211.51
865.95	211.47
866.27	211.66
866.58	211.67
866.89	211.72
867.20	211.72
867.51	211.69
867.82	211.75
868.13	211.82
868.44	211.72
868.75	211.87
869.06	211.91
869.37	212.05
869.68	212.08
869.99	212.11
870.30	212.12
870.61	212.21
870.92	212.13
871.23	212.18
871.54	212.18
871.85	212.30
872.16	212.34
872.47	212.35
872.78	212.19
873.09	212.28
873.40	212.24
873.71	212.26
874.02	212.35
874.33	212.25
874.64	212.18
874.95	212.28
875.26	212.28
875.56	212.31
875.87	212.25
876.18	212.22
876.49	212.57
876.80	212.58
877.11	212.54
877.42	212.53
877.73	212.58
878.04	212.45
878.35	212.42
878.66	212.42
878.96	212.49
879.27	212.38
879.58	212.29
879.89	212.29
880.20	212.43
880.51	212.34
880.82	212.38
881.12	212.34
881.43	212.21
881.74	212.16
882.05	212.13
882.36	212.13
882.67	212.19
882.97	211.84
883.28	211.81
883.59	211.70
883.90	211.77
884.21	211.81
884.51	211.82
884.82	211.73
885.13	211.67
885.44	211.59
885.74	211.67
886.05	211.64
886.36	211.55
886.67	211.38
886.98	211.50
887.28	211.45
887.59	211.48
887.90	211.55
888.20	211.50
888.51	211.59
888.82	211.55
889.13	211.50
889.43	211.75
889.74	211.70
890.05	211.78
890.35	211.71
890.66	211.55
890.97	211.50
891.28	211.52
891.58	211.51
891.89	211.53
892.20	211.47
892.50	211.43
892.81	211.45
893.12	211.39
893.42	211.27
893.73	211.31
894.04	211.31
894.34	211.32
894.65	211.29
894.95	211.14
895.26	211.20
895.57	211.35
895.87	211.01
896.18	211.04
896.48	211.05
896.79	211.04
897.10	211.12
897.40	211.20
897.71	211.17
898.01	211.17
898.32	211.26
898.63	211.28
898.93	211.33
899.24	211.43
899.54	211.44
899.85	211.43
900.15	211.48
900.46	211.42
900.76	211.38
901.07	211.45
901.38	211.50
901.68	211.48
901.99	211.26
902.29	211.32
902.60	211.27
902.90	211.22
903.21	211.24
903.51	211.21
903.82	211.32
904.12	211.30
904.43	211.31
904.73	211.29
905.03	211.27
905.34	211.58
905.64	211.50
905.95	211.54
906.25	211.58
906.56	211.49
906.86	211.52
907.17	211.56
907.47	211.59
907.77	211.55
908.08	211.53
908.38	211.65
908.69	211.61
908.99	211.75
909.30	211.83
909.60	211.84
909.90	211.87
910.21	211.75
910.51	211.70
910.81	211.78
911.12	211.75
911.42	211.72
911.73	211.35
912.03	211.39
912.33	211.45
912.64	211.36
912.94	211.34
913.24	211.34
913.55	211.27
913.85	211.15
914.15	211.22
914.46	211.26
914.76	211.15
915.06	211.17
915.37	211.14
915.67	211.07
915.97	211.06
916.27	211.05
916.58	211.06
916.88	211.19
917.18	211.04
917.49	211.22
917.79	211.26
918.09	211.40
918.39	211.52
918.70	211.51
919.00	211.60
919.30	211.71
919.60	211.66
919.91	211.59
920.21	211.64
920.51	211.58
920.81	211.53
921.12	211.65
921.42	211.60
921.72	211.56
922.02	211.62
922.32	211.65
922.63	211.63
922.93	211.79
923.23	211.70
923.53	211.72
923.83	211.55
924.13	211.59
924.44	211.52
924.74	211.53
925.04	211.62
925.34	211.55
925.64	211.50
925.94	211.50
926.24	211.69
926.55	211.68
926.85	211.66
927.15	211.58
927.45	211.58
927.75	211.60
928.05	211.56
928.35	211.50
928.65	211.46
928.95	211.41
929.26	211.21
929.56	211.32
929.86	211.37
930.16	211.33
930.46	211.33
930.76	211.37
931.06	211.18
931.36	211.00
931.66	211.03
931.96	211.03
932.26	211.05
932.56	210.93
932.86	210.90
933.16	210.96
933.46	211.05
933.76	210.96
934.06	211.00
934.36	211.13
934.66	211.12
934.96	211.09
935.26	211.11
935.56	211.21
935.86	211.13
936.16	211.12
936.46	211.10
936.76	211.02
937.06	210.95
937.36	211.02
937.66	211.02
937.96	211.09
938.26	211.03
938.56	211.03
938.86	211.05
939.16	211.18
939.46	211.18
939.76	211.16
940.06	211.13
940.35	211.08
940.65	210.90
940.95	210.93
941.25	210.92
941.55	210.90
941.85	210.86
942.15	210.89
942.45	210.87
942.75	210.86
943.04	210.88
943.34	210.96
943.64	210.89
943.94	210.87
944.24	210.82
944.54	210.85
944.84	210.80
945.13	210.73
945.43	210.66
945.73	210.62
946.03	210.61
946.33	210.57
946.62	210.56
946.92	210.60
947.22	210.61
947.52	210.68
947.82	210.73
948.11	210.74
948.41	210.70
948.71	210.65
949.01	210.65
949.31	210.59
949.60	210.48
949.90	210.55
950.20	210.59
950.50	210.59
950.79	210.63
951.09	210.70
951.39	210.74
951.69	210.69
951.98	210.78
952.28	210.76
952.58	210.80
952.87	210.83
953.17	210.85
953.47	210.78
953.76	210.71
954.06	210.66
954.36	210.58
954.66	210.53
954.95	210.70
955.25	210.76
955.55	210.73
955.84	210.75
956.14	210.77
956.44	210.75
956.73	210.65
957.03	210.63
957.32	210.60
957.62	210.63
957.92	210.66
958.21	210.65
958.51	211.12
958.81	211.16
959.10	211.18
959.40	211.22
959.69	211.29
959.99	211.35
960.29	211.40
960.58	211.46
960.88	211.63
961.17	211.53
961.47	211.58
961.76	211.58
962.06	211.59
962.36	211.54
962.65	211.56
962.95	211.60
963.24	211.54
963.54	211.57
963.83	211.56
964.13	211.60
964.42	211.46
964.72	211.14
965.01	211.19
965.31	211.17
965.60	211.18
965.90	211.40
966.19	211.34
966.49	211.36
966.78	211.25
967.08	211.27
967.37	211.31
967.67	211.18
967.96	211.29
968.26	211.34
968.55	211.44
968.85	211.42
969.14	211.50
969.43	211.50
969.73	211.52
970.02	211.52
970.32	211.51
970.61	211.55
970.91	211.49
971.20	211.37
971.49	211.33
971.79	211.32
972.08	211.01
972.38	211.07
972.67	211.02
972.96	211.14
973.26	211.05
973.55	211.17
973.85	211.25
974.14	211.23
974.43	211.27
974.73	211.21
975.02	211.23
975.31	211.23
975.61	211.30
975.90	211.21
976.19	211.19
976.49	211.22
976.78	211.21
977.07	211.19
977.37	211.30
977.66	211.35
977.95	211.26
978.24	211.33
978.54	211.36
978.83	211.34
979.12	211.32
979.42	211.31
979.71	211.20
980.00	211.13
980.29	211.21
980.59	211.13
980.88	211.26
981.17	211.23
981.46	211.24
981.76	211.24
982.05	211.35
982.34	211.37
982.63	211.37
982.93	211.50
983.22	211.56
983.51	211.50
983.80	211.56
984.09	211.65
984.39	211.66
984.68	211.63
984.97	211.65
985.26	211.62
985.55	211.64
985.85	211.64
986.14	211.68
986.43	211.71
986.72	211.75
987.01	211.60
987.30	211.61
987.59	211.55
987.89	211.58
988.18	211.47
988.47	211.50
988.76	211.51
989.05	211.40
989.34	211.32
989.63	211.42
989.92	211.39
990.22	211.28
990.51	211.25
990.80	211.26
991.09	211.22
991.38	211.29
991.67	211.30
991.96	211.25
992.25	211.28
992.54	211.17
992.83	211.16
993.12	211.16
993.41	211.26
993.70	211.37
993.99	211.31
994.28	211.33
994.58	211.33
994.87	211.22
995.16	211.17
995.45	211.24
995.74	211.11
996.03	211.15
996.32	211.25
996.61	211.38
996.90	211.35
997.19	211.31
997.48	211.32
997.77	211.24
998.06	211.25
998.34	211.23
998.63	211.21
998.92	211.15
999.21	211.15
999.50	211.04
999.79	210.94
1000.08	211.00
1000.37	211.08
1000.66	211.03
1000.95	211.17
1001.24	211.19
1001.53	211.18
1001.82	211.17
1002.11	211.08
1002.40	211.09
1002.68	211.10
1002.97	211.27
1003.26	211.29
1003.55	211.12
1003.84	211.20
1004.13	211.39
1004.42	211.35
1004.71	211.30
1004.99	211.28
1005.28	211.38
1005.57	211.41
1005.86	211.42
1006.15	211.42
1006.44	211.31
1006.72	211.37
1007.01	211.31
1007.30	211.36
1007.59	211.32
1007.88	211.34
1008.17	211.42
1008.45	211.38
1008.74	211.23
1009.03	211.13
1009.32	211.15
1009.60	211.20
1009.89	211.10
1010.18	210.93
1010.47	210.88
1010.76	210.91
1011.04	210.98
1011.33	211.02
1011.62	211.03
1011.91	211.05
1012.19	211.04
1012.48	211.04
1012.77	211.00
1013.05	211.11
1013.34	211.15
1013.63	211.15
1013.92	211.18
1014.20	211.12
1014.49	211.10
1014.78	211.10
1015.06	211.05
1015.35	211.06
1015.64	211.20
1015.92	211.30
1016.21	211.30
1016.50	211.34
1016.78	211.46
1017.07	211.43
1017.36	211.34
1017.64	211.31
1017.93	211.33
1018.22	211.31
1018.50	211.35
1018.79	211.32
1019.08	211.18
1019.36	211.20
1019.65	211.14
1019.93	211.24
1020.22	211.33
1020.51	211.53
1020.79	211.54
1021.08	211.00
1021.36	210.50
1021.65	210.60
1021.94	210.55
1022.22	212.25
1022.51	210.05
1022.79	213.30
1023.08	212.40
1023.36	215.05
1023.65	210.65
>>>>>End Processed Spectral Data<<<<<
