SpectraSuite Data File
++++++++++++++++++++++++++++++++++++
Date: Mon Feb 25 17:04:55 EST 2013
User: group
Dark Spectrum Present: No
Reference Spectrum Present: No
Number of Sampled Component Spectra: 1
Spectrometers: USB2E7196
Integration Time (usec): 104000 (USB2E7196)
Spectra Averaged: 20 (USB2E7196)
Boxcar Smoothing: 10 (USB2E7196)
Correct for Electrical Dark: No (USB2E7196)
Strobe/Lamp Enabled: No (USB2E7196)
Correct for Detector Non-linearity: No (USB2E7196)
Correct for Stray Light: No (USB2E7196)
Number of Pixels in Processed Spectrum: 2048
>>>>>Begin Processed Spectral Data<<<<<
339.09	0.00
339.48	197.70
339.86	199.35
340.24	200.10
340.63	202.35
341.01	208.60
341.39	205.70
341.78	206.95
342.16	209.40
342.54	207.85
342.93	198.01
343.31	207.96
343.69	208.50
344.07	209.04
344.46	209.52
344.84	209.92
345.22	210.00
345.60	210.19
345.99	210.37
346.37	210.37
346.75	210.57
347.13	210.60
347.52	210.65
347.90	210.70
348.28	210.70
348.66	210.69
349.05	210.56
349.43	210.61
349.81	210.67
350.19	210.67
350.57	210.65
350.96	210.72
351.34	210.81
351.72	210.97
352.10	211.00
352.48	211.01
352.87	211.09
353.25	211.16
353.63	211.23
354.01	211.27
354.39	211.45
354.77	211.47
355.15	211.63
355.54	211.66
355.92	211.69
356.30	211.73
356.68	212.00
357.06	212.11
357.44	212.06
357.82	212.13
358.20	212.27
358.58	212.30
358.97	212.43
359.35	212.53
359.73	212.61
360.11	212.65
360.49	212.72
360.87	212.75
361.25	212.79
361.63	212.92
362.01	212.98
362.39	212.94
362.77	212.96
363.15	213.00
363.53	213.06
363.91	213.08
364.29	213.12
364.67	212.85
365.05	212.88
365.43	212.99
365.81	213.04
366.19	213.20
366.57	213.39
366.95	213.36
367.33	213.33
367.71	213.26
368.09	213.31
368.47	213.33
368.85	213.26
369.23	213.34
369.61	213.27
369.99	213.35
370.37	213.34
370.75	213.39
371.13	213.23
371.51	213.09
371.89	213.10
372.27	213.07
372.65	213.11
373.03	213.06
373.41	213.02
373.78	212.93
374.16	212.71
374.54	212.49
374.92	212.40
375.30	212.35
375.68	212.29
376.06	212.28
376.44	212.23
376.82	212.20
377.19	212.14
377.57	212.08
377.95	211.96
378.33	211.99
378.71	211.78
379.09	211.77
379.47	211.81
379.84	211.71
380.22	211.64
380.60	211.51
380.98	211.46
381.36	211.42
381.73	211.33
382.11	211.34
382.49	211.41
382.87	211.30
383.25	211.29
383.62	211.64
384.00	211.48
384.38	211.46
384.76	211.51
385.13	211.59
385.51	211.53
385.89	211.42
386.27	211.31
386.64	211.33
387.02	211.31
387.40	211.19
387.78	211.12
388.15	211.14
388.53	211.11
388.91	211.10
389.29	211.02
389.66	211.13
390.04	211.03
390.42	211.03
390.79	211.05
391.17	211.06
391.55	210.66
391.92	210.64
392.30	210.53
392.68	210.44
393.05	210.37
393.43	210.35
393.81	210.33
394.18	210.32
394.56	210.27
394.94	210.30
395.31	210.28
395.69	210.37
396.06	210.33
396.44	210.33
396.82	210.31
397.19	210.48
397.57	210.38
397.95	210.42
398.32	210.26
398.70	210.28
399.07	210.30
399.45	210.36
399.82	210.38
400.20	210.45
400.58	210.45
400.95	210.39
401.33	210.48
401.70	210.76
402.08	210.80
402.45	210.87
402.83	211.03
403.20	211.20
403.58	211.20
403.95	211.35
404.33	211.46
404.71	211.54
405.08	211.77
405.46	211.95
405.83	212.04
406.21	212.19
406.58	212.31
406.96	212.45
407.33	212.59
407.70	212.82
408.08	213.25
408.45	213.58
408.83	213.89
409.20	214.05
409.58	214.11
409.95	214.41
410.33	214.65
410.70	214.81
411.08	215.13
411.45	215.57
411.82	215.85
412.20	216.31
412.57	216.94
412.95	217.08
413.32	217.49
413.69	218.02
414.07	218.66
414.44	219.29
414.82	219.89
415.19	220.55
415.56	221.21
415.94	221.74
416.31	222.59
416.68	223.31
417.06	224.28
417.43	225.35
417.81	226.39
418.18	227.59
418.55	228.78
418.93	230.03
419.30	231.28
419.67	232.63
420.04	233.94
420.42	235.28
420.79	237.22
421.16	238.87
421.54	240.67
421.91	242.41
422.28	244.22
422.66	246.16
423.03	248.33
423.40	250.42
423.77	252.67
424.15	254.79
424.52	257.12
424.89	259.71
425.26	261.98
425.64	264.27
426.01	266.84
426.38	269.52
426.75	272.21
427.13	275.00
427.50	277.94
427.87	281.10
428.24	284.16
428.61	286.94
428.99	290.42
429.36	293.89
429.73	297.34
430.10	300.94
430.47	304.64
430.85	308.21
431.22	312.15
431.59	316.53
431.96	320.48
432.33	325.01
432.70	329.26
433.08	334.39
433.45	339.31
433.82	344.08
434.19	349.41
434.56	354.77
434.93	359.87
435.30	364.90
435.68	370.50
436.05	376.05
436.42	381.51
436.79	386.62
437.16	392.13
437.53	397.95
437.90	403.55
438.27	409.13
438.64	415.08
439.01	420.71
439.38	425.52
439.75	430.40
440.13	435.83
440.50	440.98
440.87	445.15
441.24	449.49
441.61	454.38
441.98	458.11
442.35	462.26
442.72	466.57
443.09	470.83
443.46	473.51
443.83	475.34
444.20	477.05
444.57	479.22
444.94	480.44
445.31	481.81
445.68	483.34
446.05	484.08
446.42	483.76
446.79	483.37
447.16	483.00
447.53	482.86
447.90	480.93
448.27	479.21
448.64	476.56
449.01	474.85
449.37	471.36
449.74	467.97
450.11	464.04
450.48	459.49
450.85	454.89
451.22	450.89
451.59	447.22
451.96	443.67
452.33	438.82
452.70	434.49
453.07	429.15
453.43	423.53
453.80	418.44
454.17	413.47
454.54	408.67
454.91	403.56
455.28	398.53
455.65	393.97
456.02	389.66
456.38	385.84
456.75	380.84
457.12	376.72
457.49	372.66
457.86	368.53
458.23	365.20
458.59	361.45
458.96	357.70
459.33	354.40
459.70	351.06
460.07	348.35
460.43	345.24
460.80	342.35
461.17	339.92
461.54	337.15
461.91	334.53
462.27	331.95
462.64	329.68
463.01	327.24
463.38	325.01
463.74	322.14
464.11	320.00
464.48	318.27
464.85	316.23
465.21	314.73
465.58	313.13
465.95	311.03
466.32	309.35
466.68	307.69
467.05	306.01
467.42	304.38
467.78	302.66
468.15	301.10
468.52	299.90
468.88	298.26
469.25	296.82
469.62	295.70
469.98	294.50
470.35	293.33
470.72	292.22
471.08	290.95
471.45	290.03
471.82	289.09
472.18	287.89
472.55	287.19
472.92	286.08
473.28	285.29
473.65	284.46
474.02	283.64
474.38	283.03
474.75	282.48
475.11	281.78
475.48	281.28
475.85	280.73
476.21	280.25
476.58	279.90
476.94	279.56
477.31	279.20
477.67	278.81
478.04	278.50
478.41	278.25
478.77	278.25
479.14	278.00
479.50	277.85
479.87	277.77
480.23	277.61
480.60	277.44
480.96	277.24
481.33	277.47
481.69	277.48
482.06	277.39
482.42	277.37
482.79	277.45
483.15	277.49
483.52	277.77
483.88	277.84
484.25	277.88
484.61	278.14
484.98	278.35
485.34	278.71
485.71	279.00
486.07	279.35
486.44	279.45
486.80	279.91
487.17	280.27
487.53	280.81
487.90	281.36
488.26	282.09
488.62	282.80
488.99	283.18
489.35	283.77
489.72	284.42
490.08	285.04
490.44	285.66
490.81	286.57
491.17	287.22
491.54	288.12
491.90	288.98
492.26	289.87
492.63	290.82
492.99	291.67
493.36	292.72
493.72	293.83
494.08	294.90
494.45	295.98
494.81	297.13
495.17	298.24
495.54	299.35
495.90	300.57
496.26	301.70
496.63	302.97
496.99	304.25
497.35	305.57
497.72	306.95
498.08	308.36
498.44	309.54
498.80	310.97
499.17	312.31
499.53	313.70
499.89	315.10
500.26	316.45
500.62	317.71
500.98	319.07
501.34	320.35
501.71	321.79
502.07	323.05
502.43	324.34
502.79	325.45
503.16	326.68
503.52	327.89
503.88	329.09
504.24	330.35
504.60	331.65
504.97	332.87
505.33	333.92
505.69	335.19
506.05	336.45
506.41	337.49
506.78	338.50
507.14	339.57
507.50	340.56
507.86	341.58
508.22	342.64
508.59	343.46
508.95	344.45
509.31	345.47
509.67	346.46
510.03	347.38
510.39	348.45
510.75	349.41
511.12	350.21
511.48	351.04
511.84	351.80
512.20	352.48
512.56	353.23
512.92	354.20
513.28	354.97
513.64	355.57
514.00	356.33
514.37	357.14
514.73	357.82
515.09	358.50
515.45	359.15
515.81	359.86
516.17	360.53
516.53	361.05
516.89	361.53
517.25	362.03
517.61	362.71
517.97	363.35
518.33	363.80
518.69	364.42
519.05	364.99
519.41	365.67
519.77	366.57
520.13	367.14
520.49	367.64
520.85	368.12
521.21	369.02
521.57	369.78
521.93	370.31
522.29	371.10
522.65	371.86
523.01	372.67
523.37	373.29
523.73	374.26
524.09	375.16
524.45	376.12
524.81	377.17
525.17	378.07
525.53	379.03
525.89	380.25
526.25	381.51
526.61	382.62
526.97	383.79
527.33	384.85
527.68	386.43
528.04	387.72
528.40	389.14
528.76	390.43
529.12	391.81
529.48	393.53
529.84	394.94
530.20	396.55
530.56	398.27
530.91	400.09
531.27	401.80
531.63	403.74
531.99	405.53
532.35	407.36
532.71	409.25
533.07	411.28
533.42	413.61
533.78	415.48
534.14	417.59
534.50	419.65
534.86	421.84
535.21	423.70
535.57	425.95
535.93	428.23
536.29	430.71
536.65	433.07
537.00	435.15
537.36	437.51
537.72	439.88
538.08	442.21
538.44	444.58
538.79	447.07
539.15	449.40
539.51	452.01
539.87	454.37
540.22	457.06
540.58	459.69
540.94	461.89
541.29	464.60
541.65	467.15
542.01	469.80
542.37	472.44
542.72	475.20
543.08	477.82
543.44	480.68
543.79	483.03
544.15	485.73
544.51	488.68
544.87	491.58
545.22	494.39
545.58	497.16
545.94	500.00
546.29	502.71
546.65	505.36
547.01	507.94
547.36	510.94
547.72	513.68
548.07	516.39
548.43	519.00
548.79	521.37
549.14	524.09
549.50	526.74
549.86	529.34
550.21	531.94
550.57	534.66
550.92	537.06
551.28	539.90
551.64	542.55
551.99	545.00
552.35	547.51
552.70	549.79
553.06	552.32
553.41	554.72
553.77	557.17
554.13	559.85
554.48	562.34
554.84	564.76
555.19	566.91
555.55	569.41
555.90	571.70
556.26	574.17
556.61	576.46
556.97	578.47
557.32	580.53
557.68	582.51
558.03	584.61
558.39	586.60
558.74	588.50
559.10	590.38
559.45	592.50
559.81	594.59
560.16	596.60
560.52	598.55
560.87	600.47
561.23	602.28
561.58	604.28
561.94	606.14
562.29	607.75
562.64	609.67
563.00	611.09
563.35	613.05
563.71	614.85
564.06	616.63
564.42	618.54
564.77	620.40
565.12	622.30
565.48	624.24
565.83	626.19
566.19	627.94
566.54	629.44
566.89	630.85
567.25	632.40
567.60	634.09
567.96	635.78
568.31	637.54
568.66	639.03
569.02	639.89
569.37	640.92
569.72	642.24
570.08	643.31
570.43	644.46
570.78	645.30
571.14	646.16
571.49	646.79
571.84	647.59
572.20	648.31
572.55	648.86
572.90	649.11
573.26	649.30
573.61	649.52
573.96	649.95
574.31	650.31
574.67	650.31
575.02	650.36
575.37	650.15
575.72	649.92
576.08	650.02
576.43	650.12
576.78	650.05
577.13	650.01
577.49	650.04
577.84	650.03
578.19	650.19
578.54	650.37
578.90	650.52
579.25	650.52
579.60	650.39
579.95	650.23
580.30	650.15
580.66	650.15
581.01	650.14
581.36	649.86
581.71	649.73
582.06	649.80
582.42	649.61
582.77	649.47
583.12	649.36
583.47	649.18
583.82	649.15
584.17	649.06
584.53	648.92
584.88	648.57
585.23	648.25
585.58	647.85
585.93	647.16
586.28	646.92
586.63	646.65
586.98	646.32
587.34	646.31
587.69	645.95
588.04	645.65
588.39	645.39
588.74	644.92
589.09	644.52
589.44	643.83
589.79	643.42
590.14	642.96
590.49	642.36
590.84	641.70
591.19	641.17
591.54	640.68
591.89	639.83
592.25	639.40
592.60	638.61
592.95	637.79
593.30	637.06
593.65	636.10
594.00	635.09
594.35	635.30
594.70	634.24
595.05	633.40
595.40	632.36
595.75	631.23
596.10	630.52
596.45	629.67
596.80	628.95
597.15	628.04
597.50	626.90
597.85	626.07
598.19	625.04
598.54	624.09
598.89	623.09
599.24	622.35
599.59	621.34
599.94	620.68
600.29	619.72
600.64	618.81
600.99	617.90
601.34	617.20
601.69	615.17
602.04	614.00
602.39	612.99
602.74	612.19
603.08	611.47
603.43	610.80
603.78	609.76
604.13	608.70
604.48	607.84
604.83	607.32
605.18	606.52
605.53	605.64
605.87	604.63
606.22	603.80
606.57	602.85
606.92	601.74
607.27	600.60
607.62	599.71
607.96	598.92
608.31	598.12
608.66	596.97
609.01	595.86
609.36	594.94
609.70	593.75
610.05	592.46
610.40	591.30
610.75	589.88
611.10	588.91
611.44	587.64
611.79	586.20
612.14	584.63
612.49	583.02
612.83	581.58
613.18	580.18
613.53	578.77
613.88	577.14
614.22	575.80
614.57	574.33
614.92	572.87
615.27	571.29
615.61	569.50
615.96	567.91
616.31	566.53
616.65	565.13
617.00	563.58
617.35	562.14
617.70	560.49
618.04	558.83
618.39	556.87
618.74	555.40
619.08	553.79
619.43	552.25
619.78	550.61
620.12	549.08
620.47	547.51
620.82	545.66
621.16	543.90
621.51	542.35
621.85	540.74
622.20	538.93
622.55	537.20
622.89	535.49
623.24	533.86
623.59	532.11
623.93	530.46
624.28	528.97
624.62	527.62
624.97	526.00
625.32	524.40
625.66	522.92
626.01	521.09
626.35	519.58
626.70	517.82
627.04	516.50
627.39	514.90
627.73	513.37
628.08	511.92
628.43	510.44
628.77	508.55
629.12	506.69
629.46	505.21
629.81	503.57
630.15	502.05
630.50	500.24
630.84	498.48
631.19	496.84
631.53	495.26
631.88	493.22
632.22	491.54
632.57	490.06
632.91	488.45
633.26	486.93
633.60	485.27
633.95	483.81
634.29	481.99
634.64	480.37
634.98	478.54
635.32	476.97
635.67	475.48
636.01	474.04
636.36	472.50
636.70	471.19
637.05	469.72
637.39	468.22
637.73	467.03
638.08	465.94
638.42	464.58
638.77	463.15
639.11	461.81
639.45	460.22
639.80	458.43
640.14	456.70
640.49	455.04
640.83	453.51
641.17	452.02
641.52	450.51
641.86	448.99
642.20	447.63
642.55	445.82
642.89	444.11
643.23	442.53
643.58	441.30
643.92	439.40
644.26	437.79
644.61	436.28
644.95	434.56
645.29	432.69
645.64	431.09
645.98	429.42
646.32	427.85
646.66	426.08
647.01	424.54
647.35	423.19
647.69	421.78
648.04	420.20
648.38	418.52
648.72	416.99
649.06	415.33
649.41	413.65
649.75	412.21
650.09	410.83
650.43	409.24
650.78	407.36
651.12	405.75
651.46	404.17
651.80	402.60
652.14	401.14
652.49	399.75
652.83	398.09
653.17	396.49
653.51	394.87
653.85	393.65
654.20	392.32
654.54	390.69
654.88	389.07
655.22	387.69
655.56	386.24
655.90	384.61
656.25	383.17
656.59	381.68
656.93	380.22
657.27	378.76
657.61	377.19
657.95	375.93
658.29	374.64
658.64	373.41
658.98	372.00
659.32	370.40
659.66	368.89
660.00	367.35
660.34	365.81
660.68	364.30
661.02	362.78
661.36	361.36
661.70	360.10
662.05	358.77
662.39	357.46
662.73	356.29
663.07	355.24
663.41	353.89
663.75	352.52
664.09	351.31
664.43	349.91
664.77	348.80
665.11	347.42
665.45	346.15
665.79	344.96
666.13	343.62
666.47	342.50
666.81	341.31
667.15	340.15
667.49	339.18
667.83	338.25
668.17	337.05
668.51	335.91
668.85	334.91
669.19	333.99
669.53	332.72
669.87	331.44
670.21	330.26
670.55	329.26
670.89	328.46
671.23	327.45
671.57	326.56
671.91	325.53
672.25	324.55
672.58	323.63
672.92	322.43
673.26	321.54
673.60	320.58
673.94	319.69
674.28	318.84
674.62	317.99
674.96	317.02
675.30	316.25
675.64	315.24
675.97	314.27
676.31	313.27
676.65	312.45
676.99	311.68
677.33	310.69
677.67	309.87
678.01	308.84
678.34	307.87
678.68	306.99
679.02	306.10
679.36	305.30
679.70	304.35
680.04	303.51
680.37	302.68
680.71	301.78
681.05	300.91
681.39	300.14
681.73	299.20
682.06	298.42
682.40	297.60
682.74	296.83
683.08	296.10
683.42	295.22
683.75	294.49
684.09	293.64
684.43	292.80
684.77	291.95
685.10	291.25
685.44	290.46
685.78	289.66
686.12	288.90
686.45	288.14
686.79	287.32
687.13	286.62
687.46	285.87
687.80	285.26
688.14	284.49
688.48	283.72
688.81	282.99
689.15	282.24
689.49	281.50
689.82	280.82
690.16	279.87
690.50	279.19
690.83	278.38
691.17	277.55
691.51	276.95
691.84	276.30
692.18	275.57
692.52	275.07
692.85	274.52
693.19	274.02
693.52	273.34
693.86	272.68
694.20	272.07
694.53	271.44
694.87	270.79
695.21	270.13
695.54	269.52
695.88	268.77
696.21	268.09
696.55	267.45
696.88	266.82
697.22	266.33
697.56	265.86
697.89	265.28
698.23	264.84
698.56	264.21
698.90	263.66
699.23	263.09
699.57	262.36
699.90	261.69
700.24	260.98
700.58	260.50
700.91	260.04
701.25	259.75
701.58	259.37
701.92	258.96
702.25	258.51
702.59	258.00
702.92	257.59
703.26	257.15
703.59	256.73
703.93	256.59
704.26	256.15
704.60	255.66
704.93	255.20
705.26	254.66
705.60	254.32
705.93	253.79
706.27	253.46
706.60	253.20
706.94	252.91
707.27	252.51
707.61	252.06
707.94	251.65
708.27	250.95
708.61	250.34
708.94	249.92
709.28	249.50
709.61	249.12
709.94	248.76
710.28	248.32
710.61	247.91
710.95	247.22
711.28	247.01
711.61	246.59
711.95	246.37
712.28	246.00
712.61	245.58
712.95	245.40
713.28	245.08
713.61	244.59
713.95	244.19
714.28	243.85
714.61	243.54
714.95	243.19
715.28	242.84
715.61	242.58
715.95	242.23
716.28	241.83
716.61	241.50
716.95	241.15
717.28	240.76
717.61	240.50
717.94	240.20
718.28	239.72
718.61	239.41
718.94	239.10
719.27	238.83
719.61	238.59
719.94	238.25
720.27	237.88
720.60	237.65
720.94	237.33
721.27	237.06
721.60	236.82
721.93	236.57
722.27	236.44
722.60	236.25
722.93	235.83
723.26	235.67
723.59	235.39
723.93	235.25
724.26	235.14
724.59	234.84
724.92	234.63
725.25	234.39
725.59	234.17
725.92	233.89
726.25	233.67
726.58	233.48
726.91	233.33
727.24	233.14
727.57	232.91
727.91	232.62
728.24	232.40
728.57	232.19
728.90	232.06
729.23	231.80
729.56	231.73
729.89	231.59
730.22	231.30
730.55	231.14
730.89	230.87
731.22	230.66
731.55	230.50
731.88	230.35
732.21	230.14
732.54	229.93
732.87	229.79
733.20	229.59
733.53	229.36
733.86	229.16
734.19	228.89
734.52	228.86
734.85	229.03
735.18	228.85
735.51	228.71
735.84	228.55
736.17	228.53
736.50	228.21
736.83	228.48
737.16	228.45
737.49	228.33
737.82	228.17
738.15	228.15
738.48	228.03
738.81	227.82
739.14	227.75
739.47	227.58
739.80	227.39
740.13	227.31
740.46	227.13
740.79	226.93
741.12	226.75
741.45	226.46
741.78	226.03
742.11	225.97
742.44	225.80
742.77	225.65
743.10	225.43
743.43	225.21
743.75	224.65
744.08	225.00
744.41	224.76
744.74	224.54
745.07	224.34
745.40	224.23
745.73	224.21
746.06	224.09
746.39	223.97
746.71	223.88
747.04	223.69
747.37	223.55
747.70	223.46
748.03	223.47
748.36	223.44
748.68	223.37
749.01	223.17
749.34	223.04
749.67	222.93
750.00	222.85
750.33	223.01
750.65	222.94
750.98	222.26
751.31	222.17
751.64	222.17
751.97	222.20
752.29	222.06
752.62	221.82
752.95	221.62
753.28	221.52
753.60	221.37
753.93	221.37
754.26	221.30
754.59	221.14
754.91	221.01
755.24	220.83
755.57	220.77
755.90	220.62
756.22	220.52
756.55	220.35
756.88	220.19
757.20	219.88
757.53	219.69
757.86	219.58
758.19	219.55
758.51	219.40
758.84	219.13
759.17	218.96
759.49	218.94
759.82	219.03
760.15	218.95
760.47	218.81
760.80	218.67
761.13	218.64
761.45	218.50
761.78	218.41
762.11	218.43
762.43	218.28
762.76	218.20
763.08	218.10
763.41	218.05
763.74	218.00
764.06	217.90
764.39	217.91
764.71	217.87
765.04	217.72
765.37	217.62
765.69	217.51
766.02	217.44
766.34	217.29
766.67	217.13
767.00	217.13
767.32	217.25
767.65	217.39
767.97	217.25
768.30	217.18
768.62	217.13
768.95	216.91
769.27	216.85
769.60	216.87
769.92	216.76
770.25	216.63
770.57	216.47
770.90	216.45
771.22	216.29
771.55	216.25
771.87	216.20
772.20	216.13
772.52	216.33
772.85	216.77
773.17	216.82
773.50	216.76
773.82	216.69
774.15	216.55
774.47	216.21
774.80	216.20
775.12	216.19
775.45	216.11
775.77	216.12
776.09	216.07
776.42	215.99
776.74	216.05
777.07	216.07
777.39	216.12
777.72	215.98
778.04	215.96
778.36	215.84
778.69	215.78
779.01	215.81
779.33	215.58
779.66	215.11
779.98	214.98
780.31	214.94
780.63	215.02
780.95	215.01
781.28	215.02
781.60	214.95
781.92	214.89
782.25	214.87
782.57	214.86
782.89	214.86
783.22	214.86
783.54	214.77
783.86	214.73
784.19	214.61
784.51	214.79
784.83	214.71
785.16	214.72
785.48	214.70
785.80	214.57
786.12	214.57
786.45	214.59
786.77	214.58
787.09	214.45
787.42	214.20
787.74	214.19
788.06	214.15
788.38	214.05
788.71	213.99
789.03	213.96
789.35	213.93
789.67	213.79
789.99	213.75
790.32	213.67
790.64	213.72
790.96	213.97
791.28	213.69
791.61	213.77
791.93	213.80
792.25	213.76
792.57	214.04
792.89	213.93
793.21	213.85
793.54	213.82
793.86	213.84
794.18	213.92
794.50	213.85
794.82	213.87
795.14	213.93
795.47	213.99
795.79	213.97
796.11	213.88
796.43	213.87
796.75	213.88
797.07	213.90
797.39	213.81
797.71	213.60
798.04	213.70
798.36	213.62
798.68	213.52
799.00	213.54
799.32	213.33
799.64	213.37
799.96	213.38
800.28	213.36
800.60	213.26
800.92	213.24
801.24	213.09
801.56	213.09
801.89	213.02
802.21	212.95
802.53	212.83
802.85	212.94
803.17	213.11
803.49	213.02
803.81	212.95
804.13	212.92
804.45	212.80
804.77	212.78
805.09	212.78
805.41	212.79
805.73	212.67
806.05	212.52
806.37	212.47
806.69	212.38
807.01	212.36
807.33	212.48
807.65	212.30
807.97	212.46
808.28	212.44
808.60	212.42
808.92	212.41
809.24	212.65
809.56	212.52
809.88	212.33
810.20	212.30
810.52	212.39
810.84	212.31
811.16	212.31
811.48	212.30
811.80	212.42
812.12	212.37
812.43	212.46
812.75	212.50
813.07	212.41
813.39	212.45
813.71	212.44
814.03	212.35
814.35	212.40
814.67	212.26
814.98	212.23
815.30	212.22
815.62	212.20
815.94	211.96
816.26	211.97
816.58	211.94
816.89	211.97
817.21	211.88
817.53	211.91
817.85	211.85
818.17	211.83
818.48	211.68
818.80	211.76
819.12	211.69
819.44	211.67
819.76	211.65
820.07	211.69
820.39	211.68
820.71	211.65
821.03	211.68
821.34	211.71
821.66	211.74
821.98	211.68
822.30	211.65
822.61	211.87
822.93	211.84
823.25	211.85
823.57	211.85
823.88	211.91
824.20	211.92
824.52	212.01
824.83	211.97
825.15	211.97
825.47	211.96
825.79	212.05
826.10	212.06
826.42	212.10
826.74	212.16
827.05	212.13
827.37	212.20
827.69	212.18
828.00	212.20
828.32	212.11
828.64	212.16
828.95	212.33
829.27	212.24
829.58	212.31
829.90	212.35
830.22	212.40
830.53	212.38
830.85	212.30
831.17	212.23
831.48	212.24
831.80	212.19
832.11	212.09
832.43	211.95
832.75	211.90
833.06	212.09
833.38	211.88
833.69	211.85
834.01	211.81
834.32	211.78
834.64	211.74
834.96	211.80
835.27	211.80
835.59	211.70
835.90	211.55
836.22	211.45
836.53	211.38
836.85	211.29
837.16	211.55
837.48	211.52
837.79	211.65
838.11	211.65
838.42	211.72
838.74	211.85
839.05	211.90
839.37	211.91
839.68	211.65
840.00	211.67
840.31	211.75
840.63	211.68
840.94	211.67
841.26	211.63
841.57	211.59
841.88	211.60
842.20	211.56
842.51	211.58
842.83	211.64
843.14	211.91
843.46	211.91
843.77	211.72
844.08	211.75
844.40	211.59
844.71	211.55
845.03	211.47
845.34	211.43
845.65	211.41
845.97	211.38
846.28	211.54
846.60	211.53
846.91	211.45
847.22	211.42
847.54	211.53
847.85	211.61
848.16	211.55
848.48	211.53
848.79	211.68
849.10	211.70
849.42	211.67
849.73	211.35
850.04	211.32
850.36	211.21
850.67	211.25
850.98	211.27
851.30	211.30
851.61	211.30
851.92	211.22
852.23	211.30
852.55	211.35
852.86	211.27
853.17	211.37
853.49	211.42
853.80	211.59
854.11	211.56
854.42	211.51
854.74	211.54
855.05	211.57
855.36	211.31
855.67	211.28
855.99	211.27
856.30	211.73
856.61	211.74
856.92	211.76
857.23	211.80
857.55	211.79
857.86	211.80
858.17	211.82
858.48	211.80
858.79	211.73
859.11	211.82
859.42	211.80
859.73	211.75
860.04	211.76
860.35	211.64
860.66	211.54
860.98	211.63
861.29	211.67
861.60	211.59
861.91	211.75
862.22	211.76
862.53	211.73
862.84	211.35
863.16	211.40
863.47	211.36
863.78	211.33
864.09	211.33
864.40	211.34
864.71	211.35
865.02	211.42
865.33	211.42
865.64	211.30
865.95	211.30
866.27	211.46
866.58	211.45
866.89	211.52
867.20	211.59
867.51	211.46
867.82	211.50
868.13	211.62
868.44	211.52
868.75	211.63
869.06	211.67
869.37	211.65
869.68	211.58
869.99	211.68
870.30	211.69
870.61	211.77
870.92	211.78
871.23	211.78
871.54	211.83
871.85	211.89
872.16	211.91
872.47	211.91
872.78	211.78
873.09	211.79
873.40	211.76
873.71	211.81
874.02	211.85
874.33	211.74
874.64	211.68
874.95	211.71
875.26	211.58
875.56	211.53
875.87	211.58
876.18	211.60
876.49	211.89
876.80	211.95
877.11	211.93
877.42	211.96
877.73	211.97
878.04	211.90
878.35	211.85
878.66	211.94
878.96	211.92
879.27	211.90
879.58	211.92
879.89	211.90
880.20	211.91
880.51	211.90
880.82	211.93
881.12	211.95
881.43	211.85
881.74	211.81
882.05	211.80
882.36	211.81
882.67	211.78
882.97	211.45
883.28	211.33
883.59	211.30
883.90	211.23
884.21	211.21
884.51	211.24
884.82	211.27
885.13	211.17
885.44	211.15
885.74	211.11
886.05	211.06
886.36	211.08
886.67	211.00
886.98	211.11
887.28	211.14
887.59	211.11
887.90	211.13
888.20	211.16
888.51	211.25
888.82	211.16
889.13	211.18
889.43	211.39
889.74	211.39
890.05	211.32
890.35	211.28
890.66	211.28
890.97	211.18
891.28	211.10
891.58	211.16
891.89	211.17
892.20	211.16
892.50	211.08
892.81	211.00
893.12	210.90
893.42	210.77
893.73	210.70
894.04	210.69
894.34	210.70
894.65	210.72
894.95	210.65
895.26	210.65
895.57	210.85
895.87	210.49
896.18	210.57
896.48	210.66
896.79	210.72
897.10	210.74
897.40	210.78
897.71	210.83
898.01	210.80
898.32	210.85
898.63	210.86
898.93	210.89
899.24	210.94
899.54	211.05
899.85	211.03
900.15	211.04
900.46	211.02
900.76	211.09
901.07	211.05
901.38	211.09
901.68	211.09
901.99	210.87
902.29	210.95
902.60	210.89
902.90	210.74
903.21	210.69
903.51	210.70
903.82	210.75
904.12	210.75
904.43	210.75
904.73	210.65
905.03	210.73
905.34	211.08
905.64	211.09
905.95	210.99
906.25	210.99
906.56	211.06
906.86	211.12
907.17	211.09
907.47	211.11
907.77	211.05
908.08	211.06
908.38	211.17
908.69	211.27
908.99	211.37
909.30	211.49
909.60	211.55
909.90	211.54
910.21	211.52
910.51	211.48
910.81	211.50
911.12	211.50
911.42	211.41
911.73	211.09
912.03	211.09
912.33	211.19
912.64	211.26
912.94	211.14
913.24	211.05
913.55	211.04
913.85	210.99
914.15	211.07
914.46	211.14
914.76	211.06
915.06	210.96
915.37	210.88
915.67	210.88
915.97	210.84
916.27	210.73
916.58	210.70
916.88	210.66
917.18	210.56
917.49	210.89
917.79	210.90
918.09	210.95
918.39	210.96
918.70	210.96
919.00	210.92
919.30	211.09
919.60	211.15
919.91	211.12
920.21	211.21
920.51	211.08
920.81	211.03
921.12	211.09
921.42	211.05
921.72	211.05
922.02	210.94
922.32	211.02
922.63	211.08
922.93	211.25
923.23	211.37
923.53	211.41
923.83	211.12
924.13	211.11
924.44	211.08
924.74	211.23
925.04	211.30
925.34	211.29
925.64	211.17
925.94	211.07
926.24	211.25
926.55	211.17
926.85	211.26
927.15	211.27
927.45	211.24
927.75	211.28
928.05	211.26
928.35	211.31
928.65	211.29
928.95	211.28
929.26	211.16
929.56	211.17
929.86	211.22
930.16	211.25
930.46	211.26
930.76	211.28
931.06	211.08
931.36	211.00
931.66	211.09
931.96	211.13
932.26	211.23
932.56	211.01
932.86	211.05
933.16	211.07
933.46	211.01
933.76	210.95
934.06	211.07
934.36	211.20
934.66	211.24
934.96	211.26
935.26	211.31
935.56	211.28
935.86	211.21
936.16	211.16
936.46	211.13
936.76	211.12
937.06	211.06
937.36	211.11
937.66	211.16
937.96	211.07
938.26	211.08
938.56	211.06
938.86	211.24
939.16	211.31
939.46	211.39
939.76	211.42
940.06	211.52
940.35	211.42
940.65	211.26
940.95	211.24
941.25	211.17
941.55	211.16
941.85	211.22
942.15	211.25
942.45	211.40
942.75	211.39
943.04	211.37
943.34	211.36
943.64	211.30
943.94	211.25
944.24	211.27
944.54	211.24
944.84	211.22
945.13	211.06
945.43	210.99
945.73	210.93
946.03	210.99
946.33	210.95
946.62	210.89
946.92	210.93
947.22	210.97
947.52	210.97
947.82	210.95
948.11	210.87
948.41	210.80
948.71	210.66
949.01	210.65
949.31	210.65
949.60	210.65
949.90	210.69
950.20	210.61
950.50	210.60
950.79	210.60
951.09	210.62
951.39	210.66
951.69	210.69
951.98	210.72
952.28	210.68
952.58	210.63
952.87	210.62
953.17	210.67
953.47	210.61
953.76	210.64
954.06	210.61
954.36	210.58
954.66	210.61
954.95	210.68
955.25	210.65
955.55	210.67
955.84	210.63
956.14	210.70
956.44	210.72
956.73	210.70
957.03	210.66
957.32	210.71
957.62	210.73
957.92	210.75
958.21	210.71
958.51	211.14
958.81	211.29
959.10	211.33
959.40	211.30
959.69	211.28
959.99	211.25
960.29	211.22
960.58	211.15
960.88	211.29
961.17	211.30
961.47	211.43
961.76	211.41
962.06	211.50
962.36	211.38
962.65	211.44
962.95	211.47
963.24	211.48
963.54	211.47
963.83	211.51
964.13	211.52
964.42	211.47
964.72	211.11
965.01	211.00
965.31	210.96
965.60	210.92
965.90	211.23
966.19	211.20
966.49	211.26
966.78	211.38
967.08	211.34
967.37	211.33
967.67	211.24
967.96	211.30
968.26	211.27
968.55	211.39
968.85	211.32
969.14	211.32
969.43	211.37
969.73	211.31
970.02	211.35
970.32	211.26
970.61	211.18
970.91	211.13
971.20	211.10
971.49	211.11
971.79	211.19
972.08	210.90
972.38	210.98
972.67	210.91
972.96	210.91
973.26	210.89
973.55	210.95
973.85	210.96
974.14	210.95
974.43	210.97
974.73	210.88
975.02	210.88
975.31	210.88
975.61	210.88
975.90	210.87
976.19	210.76
976.49	210.84
976.78	210.88
977.07	210.85
977.37	210.91
977.66	210.94
977.95	210.79
978.24	210.86
978.54	210.94
978.83	210.93
979.12	210.96
979.42	210.90
979.71	210.90
980.00	210.87
980.29	210.81
980.59	210.75
980.88	210.86
981.17	210.83
981.46	210.79
981.76	210.72
982.05	210.77
982.34	210.73
982.63	210.70
982.93	210.77
983.22	210.86
983.51	210.81
983.80	210.90
984.09	211.02
984.39	210.95
984.68	210.86
984.97	210.98
985.26	210.93
985.55	210.97
985.85	210.84
986.14	210.91
986.43	210.98
986.72	210.97
987.01	210.86
987.30	210.86
987.59	210.87
987.89	210.85
988.18	210.83
988.47	210.81
988.76	210.80
989.05	210.77
989.34	210.74
989.63	210.83
989.92	210.76
990.22	210.65
990.51	210.63
990.80	210.57
991.09	210.54
991.38	210.48
991.67	210.46
991.96	210.46
992.25	210.41
992.54	210.32
992.83	210.36
993.12	210.38
993.41	210.49
993.70	210.60
993.99	210.70
994.28	210.70
994.58	210.83
994.87	210.76
995.16	210.73
995.45	210.69
995.74	210.57
996.03	210.65
996.32	210.75
996.61	210.90
996.90	210.87
997.19	210.83
997.48	210.89
997.77	210.84
998.06	210.85
998.34	210.85
998.63	210.92
998.92	210.95
999.21	210.98
999.50	210.93
999.79	210.83
1000.08	210.81
1000.37	210.81
1000.66	210.72
1000.95	210.89
1001.24	210.87
1001.53	210.86
1001.82	210.85
1002.11	210.75
1002.40	210.80
1002.68	210.84
1002.97	211.11
1003.26	211.08
1003.55	211.03
1003.84	211.03
1004.13	211.12
1004.42	211.10
1004.71	211.02
1004.99	210.94
1005.28	211.06
1005.57	211.14
1005.86	211.11
1006.15	211.08
1006.44	211.05
1006.72	211.14
1007.01	210.96
1007.30	211.05
1007.59	211.02
1007.88	211.01
1008.17	211.01
1008.45	210.91
1008.74	210.67
1009.03	210.47
1009.32	210.55
1009.60	210.61
1009.89	210.61
1010.18	210.42
1010.47	210.38
1010.76	210.39
1011.04	210.39
1011.33	210.36
1011.62	210.27
1011.91	210.31
1012.19	210.38
1012.48	210.40
1012.77	210.33
1013.05	210.55
1013.34	210.58
1013.63	210.59
1013.92	210.67
1014.20	210.69
1014.49	210.64
1014.78	210.75
1015.06	210.69
1015.35	210.63
1015.64	210.62
1015.92	210.63
1016.21	210.72
1016.50	210.76
1016.78	210.81
1017.07	210.85
1017.36	210.75
1017.64	210.67
1017.93	210.67
1018.22	210.66
1018.50	210.60
1018.79	210.61
1019.08	210.41
1019.36	210.38
1019.65	210.30
1019.93	210.34
1020.22	210.34
1020.51	210.52
1020.79	210.48
1021.08	211.45
1021.36	209.65
1021.65	210.50
1021.94	209.85
1022.22	210.95
1022.51	208.90
1022.79	212.00
1023.08	211.00
1023.36	213.40
1023.65	209.75
>>>>>End Processed Spectral Data<<<<<
