SpectraSuite Data File
++++++++++++++++++++++++++++++++++++
Date: Mon Feb 25 17:03:23 EST 2013
User: group
Dark Spectrum Present: No
Reference Spectrum Present: No
Number of Sampled Component Spectra: 1
Spectrometers: USB2E7196
Integration Time (usec): 104000 (USB2E7196)
Spectra Averaged: 20 (USB2E7196)
Boxcar Smoothing: 10 (USB2E7196)
Correct for Electrical Dark: No (USB2E7196)
Strobe/Lamp Enabled: No (USB2E7196)
Correct for Detector Non-linearity: No (USB2E7196)
Correct for Stray Light: No (USB2E7196)
Number of Pixels in Processed Spectrum: 2048
>>>>>Begin Processed Spectral Data<<<<<
339.09	0.00
339.48	198.50
339.86	198.55
340.24	201.45
340.63	203.10
341.01	209.20
341.39	206.20
341.78	208.25
342.16	209.20
342.54	208.10
342.93	198.17
343.31	208.16
343.69	208.67
344.07	209.20
344.46	209.64
344.84	209.97
345.22	210.03
345.60	210.23
345.99	210.39
346.37	210.45
346.75	210.53
347.13	210.61
347.52	210.53
347.90	210.66
348.28	210.71
348.66	210.90
349.05	210.81
349.43	210.79
349.81	210.88
350.19	210.92
350.57	210.92
350.96	210.91
351.34	210.95
351.72	211.09
352.10	211.19
352.48	211.23
352.87	211.30
353.25	211.31
353.63	211.36
354.01	211.41
354.39	211.52
354.77	211.69
355.15	211.79
355.54	211.94
355.92	211.95
356.30	212.01
356.68	212.24
357.06	212.33
357.44	212.38
357.82	212.47
358.20	212.50
358.58	212.56
358.97	212.62
359.35	212.77
359.73	212.85
360.11	212.92
360.49	213.00
360.87	213.07
361.25	213.19
361.63	213.32
362.01	213.27
362.39	213.28
362.77	213.31
363.15	213.31
363.53	213.30
363.91	213.32
364.29	213.40
364.67	213.10
365.05	213.09
365.43	213.12
365.81	213.17
366.19	213.33
366.57	213.51
366.95	213.55
367.33	213.46
367.71	213.46
368.09	213.44
368.47	213.41
368.85	213.38
369.23	213.40
369.61	213.32
369.99	213.50
370.37	213.51
370.75	213.61
371.13	213.48
371.51	213.35
371.89	213.33
372.27	213.25
372.65	213.21
373.03	213.18
373.41	213.16
373.78	213.05
374.16	212.84
374.54	212.65
374.92	212.56
375.30	212.55
375.68	212.40
376.06	212.46
376.44	212.35
376.82	212.33
377.19	212.25
377.57	212.17
377.95	211.98
378.33	211.92
378.71	211.62
379.09	211.71
379.47	211.78
379.84	211.72
380.22	211.64
380.60	211.52
380.98	211.47
381.36	211.35
381.73	211.25
382.11	211.27
382.49	211.22
382.87	211.20
383.25	211.12
383.62	211.53
384.00	211.28
384.38	211.26
384.76	211.29
385.13	211.47
385.51	211.46
385.89	211.41
386.27	211.36
386.64	211.38
387.02	211.24
387.40	211.15
387.78	211.11
388.15	211.10
388.53	211.05
388.91	211.00
389.29	211.00
389.66	211.01
390.04	210.95
390.42	210.98
390.79	210.89
391.17	210.90
391.55	210.51
391.92	210.60
392.30	210.67
392.68	210.61
393.05	210.46
393.43	210.44
393.81	210.44
394.18	210.38
394.56	210.42
394.94	210.60
395.31	210.55
395.69	210.68
396.06	210.80
396.44	210.93
396.82	210.90
397.19	211.05
397.57	211.01
397.95	211.05
398.32	210.97
398.70	211.10
399.07	211.22
399.45	211.16
399.82	211.16
400.20	211.09
400.58	211.09
400.95	211.07
401.33	211.20
401.70	211.46
402.08	211.55
402.45	211.63
402.83	211.64
403.20	211.74
403.58	211.72
403.95	211.79
404.33	211.87
404.71	212.00
405.08	212.26
405.46	212.39
405.83	212.54
406.21	212.65
406.58	212.80
406.96	212.86
407.33	213.03
407.70	213.29
408.08	213.76
408.45	214.05
408.83	214.26
409.20	214.45
409.58	214.53
409.95	214.89
410.33	215.26
410.70	215.59
411.08	216.04
411.45	216.42
411.82	216.85
412.20	217.39
412.57	218.07
412.95	218.30
413.32	218.95
413.69	219.45
414.07	220.09
414.44	220.76
414.82	221.53
415.19	222.39
415.56	223.18
415.94	223.91
416.31	224.87
416.68	225.86
417.06	226.99
417.43	228.18
417.81	229.33
418.18	230.57
418.55	231.87
418.93	233.38
419.30	234.90
419.67	236.50
420.04	238.03
420.42	239.71
420.79	241.88
421.16	243.94
421.54	246.21
421.91	248.48
422.28	250.75
422.66	253.21
423.03	255.75
423.40	258.24
423.77	260.87
424.15	263.55
424.52	266.30
424.89	269.39
425.26	272.30
425.64	275.18
426.01	278.31
426.38	281.64
426.75	284.90
427.13	288.31
427.50	291.87
427.87	295.69
428.24	299.42
428.61	303.00
428.99	307.01
429.36	311.18
429.73	315.37
430.10	319.58
430.47	323.93
430.85	328.33
431.22	332.96
431.59	338.10
431.96	342.89
432.33	348.41
432.70	353.69
433.08	359.84
433.45	365.62
433.82	371.39
434.19	377.76
434.56	384.15
434.93	390.36
435.30	396.45
435.68	403.17
436.05	409.93
436.42	416.60
436.79	422.73
437.16	429.38
437.53	436.33
437.90	443.29
438.27	450.16
438.64	457.20
439.01	463.97
439.38	469.90
439.75	475.92
440.13	482.57
440.50	488.70
440.87	493.82
441.24	499.18
441.61	505.05
441.98	509.60
442.35	514.62
442.72	519.72
443.09	524.69
443.46	527.92
443.83	530.22
444.20	532.18
444.57	534.90
444.94	536.44
445.31	538.11
445.68	539.99
446.05	540.84
446.42	540.59
446.79	540.40
447.16	539.90
447.53	539.70
447.90	537.55
448.27	535.44
448.64	532.35
449.01	530.24
449.37	526.04
449.74	521.95
450.11	517.34
450.48	512.00
450.85	506.54
451.22	501.83
451.59	497.36
451.96	493.09
452.33	487.20
452.70	481.88
453.07	475.47
453.43	468.70
453.80	462.52
454.17	456.56
454.54	450.69
454.91	444.58
455.28	438.45
455.65	432.85
456.02	427.60
456.38	422.89
456.75	416.95
457.12	411.95
457.49	407.06
457.86	402.09
458.23	398.05
458.59	393.64
458.96	389.07
459.33	384.96
459.70	380.93
460.07	377.73
460.43	374.09
460.80	370.64
461.17	367.62
461.54	364.37
461.91	361.35
462.27	358.22
462.64	355.55
463.01	352.67
463.38	349.91
463.74	346.67
464.11	344.01
464.48	341.82
464.85	339.42
465.21	337.59
465.58	335.59
465.95	333.12
466.32	331.10
466.68	329.01
467.05	327.12
467.42	325.17
467.78	323.10
468.15	321.22
468.52	319.79
468.88	317.79
469.25	316.05
469.62	314.61
469.98	313.19
470.35	311.75
470.72	310.35
471.08	308.82
471.45	307.63
471.82	306.46
472.18	305.04
472.55	304.13
472.92	302.98
473.28	301.92
473.65	300.88
474.02	299.79
474.38	299.10
474.75	298.28
475.11	297.39
475.48	296.85
475.85	296.22
476.21	295.54
476.58	295.05
476.94	294.67
477.31	294.27
477.67	293.78
478.04	293.36
478.41	293.12
478.77	293.07
479.14	292.65
479.50	292.44
479.87	292.33
480.23	292.22
480.60	292.06
480.96	291.89
481.33	292.12
481.69	292.29
482.06	292.37
482.42	292.35
482.79	292.46
483.15	292.55
483.52	292.86
483.88	292.96
484.25	293.15
484.61	293.36
484.98	293.51
485.34	293.95
485.71	294.45
486.07	294.84
486.44	295.01
486.80	295.59
487.17	296.14
487.53	296.86
487.90	297.56
488.26	298.36
488.62	299.21
488.99	299.79
489.35	300.57
489.72	301.29
490.08	302.20
490.44	303.09
490.81	304.09
491.17	304.84
491.54	306.00
491.90	306.98
492.26	308.02
492.63	309.13
492.99	310.15
493.36	311.40
493.72	312.64
494.08	313.90
494.45	315.31
494.81	316.70
495.17	318.01
495.54	319.39
495.90	320.65
496.26	322.05
496.63	323.47
496.99	324.72
497.35	326.19
497.72	327.74
498.08	329.20
498.44	330.64
498.80	332.24
499.17	333.71
499.53	335.34
499.89	336.91
500.26	338.47
500.62	340.04
500.98	341.50
501.34	342.94
501.71	344.51
502.07	345.91
502.43	347.12
502.79	348.40
503.16	349.70
503.52	351.02
503.88	352.17
504.24	353.45
504.60	354.80
504.97	356.19
505.33	357.27
505.69	358.65
506.05	359.80
506.41	360.93
506.78	361.77
507.14	362.58
507.50	363.47
507.86	364.49
508.22	365.36
508.59	366.01
508.95	366.80
509.31	367.51
509.67	368.16
510.03	368.90
510.39	369.65
510.75	370.28
511.12	370.81
511.48	371.38
511.84	371.88
512.20	372.37
512.56	372.58
512.92	372.96
513.28	373.15
513.64	373.26
514.00	373.49
514.37	373.91
514.73	374.24
515.09	374.49
515.45	374.49
515.81	374.58
516.17	374.65
516.53	374.68
516.89	374.58
517.25	374.61
517.61	374.64
517.97	374.50
518.33	374.33
518.69	374.34
519.05	374.34
519.41	374.21
519.77	374.37
520.13	374.33
520.49	374.22
520.85	374.11
521.21	374.28
521.57	374.33
521.93	374.20
522.29	374.07
522.65	374.01
523.01	374.07
523.37	374.03
523.73	374.20
524.09	374.19
524.45	374.37
524.81	374.47
525.17	374.68
525.53	374.91
525.89	375.34
526.25	375.69
526.61	376.02
526.97	376.43
527.33	376.71
527.68	377.57
528.04	378.24
528.40	378.84
528.76	379.43
529.12	380.04
529.48	380.92
529.84	381.79
530.20	382.78
530.56	383.78
530.91	384.96
531.27	385.95
531.63	387.21
531.99	388.40
532.35	389.67
532.71	390.91
533.07	392.28
533.42	393.90
533.78	395.16
534.14	396.51
534.50	397.99
534.86	399.60
535.21	400.94
535.57	402.65
535.93	404.20
536.29	406.02
536.65	407.80
537.00	409.45
537.36	411.40
537.72	413.14
538.08	415.11
538.44	417.00
538.79	419.17
539.15	421.05
539.51	423.15
539.87	425.26
540.22	427.48
540.58	429.75
540.94	431.76
541.29	434.23
541.65	436.59
542.01	439.13
542.37	441.50
542.72	443.96
543.08	446.35
543.44	449.15
543.79	451.48
544.15	454.06
544.51	456.98
544.87	459.70
545.22	462.42
545.58	464.90
545.94	467.64
546.29	470.31
546.65	473.13
547.01	475.82
547.36	478.61
547.72	481.32
548.07	484.13
548.43	486.67
548.79	489.37
549.14	492.08
549.50	494.71
549.86	497.36
550.21	500.07
550.57	502.78
550.92	505.31
551.28	508.15
551.64	510.74
551.99	513.24
552.35	515.74
552.70	518.23
553.06	521.03
553.41	523.52
553.77	526.22
554.13	528.83
554.48	531.52
554.84	534.13
555.19	536.78
555.55	539.47
555.90	542.05
556.26	544.48
556.61	546.98
556.97	549.30
557.32	551.79
557.68	554.01
558.03	556.34
558.39	558.66
558.74	560.97
559.10	563.36
559.45	565.73
559.81	568.11
560.16	570.40
560.52	572.59
560.87	574.92
561.23	577.14
561.58	579.49
561.94	581.41
562.29	583.42
562.64	585.43
563.00	587.34
563.35	589.41
563.71	591.59
564.06	593.76
564.42	596.00
564.77	598.10
565.12	600.32
565.48	602.69
565.83	604.70
566.19	606.69
566.54	608.55
566.89	610.44
567.25	612.43
567.60	614.45
567.96	616.35
568.31	618.31
568.66	619.90
569.02	621.26
569.37	622.67
569.72	624.31
570.08	625.80
570.43	626.84
570.78	628.19
571.14	629.17
571.49	630.03
571.84	631.15
572.20	631.88
572.55	632.69
572.90	633.13
573.26	633.89
573.61	634.43
573.96	635.15
574.31	635.53
574.67	635.87
575.02	636.18
575.37	636.43
575.72	636.32
576.08	636.56
576.43	636.85
576.78	637.37
577.13	637.70
577.49	637.92
577.84	638.47
578.19	638.71
578.54	639.16
578.90	639.73
579.25	639.74
579.60	639.89
579.95	639.92
580.30	640.08
580.66	640.19
581.01	640.17
581.36	640.12
581.71	640.13
582.06	640.35
582.42	640.30
582.77	640.25
583.12	640.32
583.47	640.35
583.82	640.25
584.17	640.09
584.53	639.95
584.88	639.78
585.23	639.60
585.58	639.36
585.93	639.10
586.28	638.84
586.63	638.71
586.98	638.56
587.34	638.42
587.69	638.17
588.04	637.90
588.39	637.76
588.74	637.28
589.09	637.23
589.44	636.54
589.79	636.19
590.14	635.88
590.49	635.40
590.84	634.81
591.19	634.58
591.54	634.10
591.89	633.21
592.25	632.84
592.60	632.01
592.95	631.25
593.30	630.28
593.65	629.38
594.00	628.40
594.35	628.64
594.70	627.70
595.05	626.96
595.40	626.15
595.75	625.15
596.10	624.46
596.45	623.47
596.80	622.93
597.15	622.16
597.50	621.12
597.85	620.53
598.19	619.61
598.54	618.64
598.89	617.66
599.24	617.14
599.59	616.11
599.94	615.50
600.29	614.69
600.64	613.91
600.99	613.06
601.34	612.36
601.69	610.39
602.04	609.44
602.39	608.42
602.74	607.59
603.08	606.87
603.43	606.22
603.78	605.26
604.13	604.22
604.48	603.53
604.83	603.02
605.18	602.03
605.53	601.19
605.87	600.26
606.22	599.49
606.57	598.51
606.92	597.52
607.27	596.47
607.62	595.52
607.96	594.65
608.31	593.65
608.66	592.59
609.01	591.58
609.36	590.66
609.70	589.63
610.05	588.38
610.40	587.22
610.75	585.74
611.10	584.76
611.44	583.30
611.79	581.65
612.14	579.99
612.49	578.50
612.83	577.21
613.18	575.71
613.53	574.30
613.88	572.62
614.22	571.16
614.57	569.59
614.92	568.11
615.27	566.65
615.61	565.20
615.96	563.76
616.31	562.33
616.65	560.89
617.00	559.37
617.35	557.88
617.70	556.30
618.04	554.60
618.39	552.90
618.74	551.56
619.08	549.91
619.43	548.38
619.78	546.82
620.12	545.17
620.47	543.59
620.82	541.77
621.16	540.03
621.51	538.47
621.85	536.92
622.20	535.15
622.55	533.32
622.89	531.52
623.24	529.80
623.59	528.02
623.93	526.39
624.28	524.72
624.62	523.34
624.97	521.85
625.32	520.36
625.66	518.75
626.01	516.95
626.35	515.47
626.70	513.68
627.04	512.24
627.39	510.52
627.73	509.13
628.08	507.65
628.43	506.15
628.77	504.47
629.12	502.78
629.46	501.34
629.81	499.88
630.15	498.35
630.50	496.64
630.84	494.94
631.19	493.24
631.53	491.64
631.88	489.59
632.22	487.67
632.57	486.25
632.91	484.55
633.26	483.06
633.60	481.35
633.95	479.81
634.29	477.91
634.64	476.42
634.98	474.55
635.32	473.19
635.67	471.68
636.01	470.13
636.36	468.53
636.70	467.04
637.05	465.44
637.39	463.95
637.73	462.63
638.08	461.53
638.42	460.24
638.77	458.83
639.11	457.53
639.45	456.11
639.80	454.28
640.14	452.75
640.49	451.16
640.83	449.69
641.17	448.38
641.52	446.92
641.86	445.27
642.20	443.90
642.55	442.08
642.89	440.48
643.23	438.87
643.58	437.63
643.92	435.86
644.26	434.33
644.61	432.80
644.95	431.13
645.29	429.24
645.64	427.55
645.98	425.87
646.32	424.28
646.66	422.64
647.01	421.20
647.35	419.77
647.69	418.13
648.04	416.76
648.38	415.22
648.72	413.83
649.06	412.33
649.41	410.73
649.75	409.24
650.09	407.85
650.43	406.29
650.78	404.50
651.12	403.10
651.46	401.59
651.80	400.19
652.14	398.81
652.49	397.47
652.83	396.05
653.17	394.50
653.51	392.94
653.85	391.61
654.20	390.19
654.54	388.54
654.88	387.13
655.22	385.64
655.56	383.98
655.90	382.41
656.25	380.92
656.59	379.50
656.93	378.10
657.27	376.73
657.61	375.31
657.95	373.94
658.29	372.54
658.64	371.25
658.98	369.64
659.32	368.15
659.66	366.62
660.00	365.18
660.34	363.88
660.68	362.57
661.02	361.15
661.36	359.73
661.70	358.50
662.05	357.12
662.39	355.93
662.73	354.99
663.07	353.93
663.41	352.74
663.75	351.52
664.09	350.29
664.43	348.92
664.77	347.74
665.11	346.47
665.45	345.31
665.79	344.12
666.13	343.08
666.47	341.91
666.81	340.94
667.15	339.69
667.49	338.54
667.83	337.61
668.17	336.46
668.51	335.47
668.85	334.49
669.19	333.63
669.53	332.35
669.87	330.94
670.21	329.73
670.55	328.71
670.89	327.69
671.23	326.73
671.57	325.72
671.91	324.76
672.25	323.73
672.58	322.77
672.92	321.77
673.26	320.74
673.60	319.76
673.94	318.76
674.28	317.76
674.62	316.89
674.96	315.82
675.30	315.06
675.64	314.02
675.97	312.99
676.31	312.01
676.65	311.15
676.99	310.49
677.33	309.60
677.67	308.71
678.01	307.75
678.34	306.87
678.68	306.01
679.02	305.07
679.36	304.27
679.70	303.34
680.04	302.44
680.37	301.60
680.71	300.75
681.05	299.90
681.39	299.20
681.73	298.38
682.06	297.54
682.40	296.66
682.74	296.01
683.08	295.42
683.42	294.53
683.75	293.77
684.09	292.89
684.43	292.18
684.77	291.34
685.10	290.65
685.44	289.82
685.78	289.08
686.12	288.43
686.45	287.73
686.79	287.03
687.13	286.36
687.46	285.57
687.80	284.87
688.14	284.09
688.48	283.44
688.81	282.78
689.15	282.11
689.49	281.39
689.82	280.69
690.16	279.74
690.50	279.08
690.83	278.33
691.17	277.59
691.51	276.90
691.84	276.30
692.18	275.62
692.52	274.98
692.85	274.41
693.19	273.84
693.52	273.18
693.86	272.42
694.20	271.69
694.53	271.22
694.87	270.58
695.21	269.96
695.54	269.21
695.88	268.40
696.21	267.74
696.55	267.13
696.88	266.51
697.22	266.04
697.56	265.50
697.89	264.92
698.23	264.36
698.56	263.73
698.90	263.28
699.23	262.70
699.57	262.18
699.90	261.55
700.24	260.88
700.58	260.30
700.91	259.92
701.25	259.75
701.58	259.16
701.92	258.77
702.25	258.30
702.59	257.81
702.92	257.43
703.26	256.98
703.59	256.50
703.93	256.30
704.26	255.86
704.60	255.40
704.93	254.93
705.26	254.50
705.60	254.13
705.93	253.64
706.27	253.31
706.60	252.97
706.94	252.69
707.27	252.25
707.61	251.88
707.94	251.37
708.27	250.63
708.61	250.27
708.94	249.79
709.28	249.41
709.61	249.05
709.94	248.70
710.28	248.32
710.61	248.00
710.95	247.31
711.28	247.10
711.61	246.69
711.95	246.42
712.28	246.07
712.61	245.63
712.95	245.45
713.28	245.17
713.61	244.75
713.95	244.21
714.28	243.93
714.61	243.55
714.95	243.23
715.28	242.88
715.61	242.50
715.95	242.19
716.28	241.83
716.61	241.51
716.95	241.08
717.28	240.73
717.61	240.40
717.94	240.12
718.28	239.59
718.61	239.33
718.94	239.05
719.27	238.78
719.61	238.52
719.94	238.09
720.27	237.75
720.60	237.43
720.94	237.30
721.27	237.05
721.60	236.85
721.93	236.61
722.27	236.54
722.60	236.32
722.93	236.03
723.26	235.85
723.59	235.64
723.93	235.43
724.26	235.24
724.59	234.95
724.92	234.75
725.25	234.65
725.59	234.39
725.92	234.20
726.25	233.97
726.58	233.81
726.91	233.61
727.24	233.37
727.57	233.16
727.91	232.83
728.24	232.68
728.57	232.50
728.90	232.38
729.23	231.99
729.56	231.90
729.89	231.65
730.22	231.41
730.55	231.17
730.89	230.97
731.22	230.75
731.55	230.64
731.88	230.44
732.21	230.14
732.54	229.93
732.87	229.74
733.20	229.52
733.53	229.29
733.86	229.10
734.19	228.89
734.52	228.75
734.85	228.85
735.18	228.60
735.51	228.56
735.84	228.32
736.17	228.32
736.50	228.02
736.83	228.37
737.16	228.24
737.49	228.09
737.82	227.95
738.15	227.78
738.48	227.57
738.81	227.36
739.14	227.21
739.47	227.10
739.80	226.89
740.13	226.75
740.46	226.62
740.79	226.41
741.12	226.27
741.45	226.05
741.78	225.77
742.11	225.79
742.44	225.48
742.77	225.39
743.10	225.18
743.43	224.97
743.75	224.40
744.08	224.67
744.41	224.55
744.74	224.39
745.07	224.26
745.40	224.21
745.73	224.29
746.06	224.14
746.39	224.01
746.71	223.85
747.04	223.72
747.37	223.58
747.70	223.54
748.03	223.47
748.36	223.45
748.68	223.32
749.01	223.03
749.34	222.90
749.67	222.86
750.00	222.78
750.33	222.99
750.65	222.83
750.98	222.31
751.31	222.16
751.64	222.02
751.97	222.05
752.29	221.91
752.62	221.60
752.95	221.51
753.28	221.45
753.60	221.40
753.93	221.39
754.26	221.27
754.59	221.02
754.91	220.79
755.24	220.70
755.57	220.58
755.90	220.55
756.22	220.48
756.55	220.29
756.88	220.11
757.20	219.74
757.53	219.60
757.86	219.46
758.19	219.41
758.51	219.43
758.84	219.25
759.17	219.12
759.49	219.10
759.82	219.18
760.15	219.02
760.47	218.86
760.80	218.74
761.13	218.74
761.45	218.71
761.78	218.70
762.11	218.61
762.43	218.37
762.76	218.19
763.08	218.13
763.41	218.11
763.74	218.11
764.06	218.01
764.39	217.98
764.71	217.90
765.04	217.79
765.37	217.63
765.69	217.54
766.02	217.54
766.34	217.42
766.67	217.20
767.00	217.27
767.32	217.39
767.65	217.45
767.97	217.30
768.30	217.21
768.62	217.14
768.95	216.96
769.27	216.94
769.60	216.97
769.92	216.82
770.25	216.68
770.57	216.47
770.90	216.52
771.22	216.44
771.55	216.36
771.87	216.35
772.20	216.30
772.52	216.49
772.85	216.73
773.17	216.62
773.50	216.59
773.82	216.40
774.15	216.23
774.47	216.02
774.80	215.94
775.12	215.88
775.45	215.78
775.77	215.80
776.09	215.81
776.42	215.75
776.74	215.86
777.07	215.76
777.39	215.75
777.72	215.75
778.04	215.79
778.36	215.78
778.69	215.73
779.01	215.73
779.33	215.42
779.66	215.03
779.98	214.94
780.31	214.93
780.63	215.11
780.95	215.13
781.28	215.01
781.60	214.96
781.92	215.02
782.25	215.03
782.57	215.01
782.89	215.00
783.22	214.94
783.54	214.89
783.86	214.93
784.19	214.89
784.51	214.88
784.83	214.75
785.16	214.70
785.48	214.75
785.80	214.67
786.12	214.71
786.45	214.68
786.77	214.72
787.09	214.65
787.42	214.42
787.74	214.36
788.06	214.40
788.38	214.43
788.71	214.28
789.03	214.22
789.35	214.25
789.67	214.18
789.99	214.19
790.32	214.06
790.64	214.10
790.96	214.38
791.28	214.22
791.61	214.16
791.93	214.17
792.25	214.00
792.57	214.23
792.89	214.12
793.21	214.09
793.54	214.05
793.86	214.00
794.18	214.08
794.50	213.98
794.82	213.92
795.14	213.94
795.47	214.02
795.79	213.97
796.11	213.82
796.43	213.79
796.75	213.68
797.07	213.70
797.39	213.61
797.71	213.33
798.04	213.31
798.36	213.37
798.68	213.31
799.00	213.40
799.32	213.13
799.64	213.12
799.96	213.12
800.28	213.14
800.60	213.10
800.92	213.09
801.24	213.06
801.56	213.11
801.89	213.01
802.21	212.99
802.53	212.98
802.85	213.11
803.17	213.27
803.49	213.23
803.81	213.11
804.13	213.05
804.45	212.99
804.77	212.97
805.09	212.95
805.41	212.83
805.73	212.75
806.05	212.78
806.37	212.81
806.69	212.77
807.01	212.75
807.33	212.73
807.65	212.61
807.97	212.82
808.28	212.74
808.60	212.71
808.92	212.63
809.24	212.90
809.56	212.85
809.88	212.69
810.20	212.72
810.52	212.80
810.84	212.74
811.16	212.59
811.48	212.59
811.80	212.66
812.12	212.74
812.43	212.82
812.75	212.80
813.07	212.71
813.39	212.69
813.71	212.65
814.03	212.62
814.35	212.59
814.67	212.42
814.98	212.40
815.30	212.43
815.62	212.36
815.94	212.03
816.26	211.97
816.58	211.87
816.89	211.89
817.21	211.83
817.53	211.92
817.85	212.10
818.17	212.08
818.48	211.96
818.80	212.04
819.12	211.92
819.44	211.90
819.76	211.92
820.07	211.92
820.39	211.89
820.71	211.91
821.03	211.94
821.34	211.86
821.66	211.88
821.98	211.87
822.30	211.90
822.61	212.10
822.93	212.10
823.25	212.11
823.57	212.08
823.88	212.16
824.20	212.18
824.52	212.17
824.83	212.18
825.15	212.17
825.47	212.10
825.79	212.09
826.10	212.04
826.42	212.05
826.74	212.09
827.05	212.13
827.37	212.18
827.69	212.14
828.00	212.12
828.32	212.09
828.64	212.08
828.95	212.25
829.27	212.15
829.58	212.13
829.90	212.18
830.22	212.23
830.53	212.13
830.85	212.04
831.17	211.93
831.48	211.92
831.80	211.90
832.11	211.90
832.43	211.92
832.75	211.93
833.06	212.05
833.38	211.90
833.69	211.95
834.01	211.91
834.32	211.91
834.64	211.94
834.96	211.94
835.27	211.96
835.59	211.81
835.90	211.75
836.22	211.75
836.53	211.65
836.85	211.60
837.16	211.95
837.48	211.99
837.79	212.15
838.11	212.15
838.42	212.14
838.74	212.15
839.05	212.08
839.37	211.98
839.68	211.78
840.00	211.81
840.31	211.75
840.63	211.76
840.94	211.73
841.26	211.71
841.57	211.76
841.88	211.76
842.20	211.76
842.51	211.73
842.83	211.76
843.14	212.07
843.46	212.05
843.77	211.87
844.08	211.82
844.40	211.71
844.71	211.66
845.03	211.58
845.34	211.48
845.65	211.50
845.97	211.54
846.28	211.63
846.60	211.63
846.91	211.55
847.22	211.53
847.54	211.54
847.85	211.49
848.16	211.49
848.48	211.38
848.79	211.49
849.10	211.58
849.42	211.56
849.73	211.29
850.04	211.24
850.36	211.15
850.67	211.19
850.98	211.10
851.30	211.15
851.61	211.25
851.92	211.28
852.23	211.34
852.55	211.46
852.86	211.49
853.17	211.54
853.49	211.67
853.80	211.69
854.11	211.77
854.42	211.80
854.74	211.65
855.05	211.73
855.36	211.56
855.67	211.49
855.99	211.50
856.30	211.92
856.61	211.93
856.92	211.90
857.23	211.87
857.55	211.87
857.86	211.86
858.17	211.91
858.48	211.85
858.79	211.79
859.11	211.77
859.42	211.73
859.73	211.67
860.04	211.63
860.35	211.58
860.66	211.40
860.98	211.45
861.29	211.55
861.60	211.50
861.91	211.52
862.22	211.48
862.53	211.35
862.84	210.95
863.16	211.09
863.47	210.99
863.78	210.94
864.09	211.01
864.40	210.98
864.71	210.94
865.02	211.01
865.33	210.97
865.64	210.93
865.95	210.92
866.27	211.20
866.58	211.17
866.89	211.21
867.20	211.24
867.51	211.25
867.82	211.19
868.13	211.32
868.44	211.25
868.75	211.34
869.06	211.36
869.37	211.39
869.68	211.25
869.99	211.40
870.30	211.49
870.61	211.55
870.92	211.55
871.23	211.53
871.54	211.61
871.85	211.71
872.16	211.74
872.47	211.67
872.78	211.46
873.09	211.51
873.40	211.49
873.71	211.57
874.02	211.51
874.33	211.55
874.64	211.50
874.95	211.61
875.26	211.55
875.56	211.65
875.87	211.60
876.18	211.60
876.49	211.93
876.80	211.87
877.11	211.72
877.42	211.73
877.73	211.67
878.04	211.58
878.35	211.54
878.66	211.59
878.96	211.61
879.27	211.55
879.58	211.53
879.89	211.43
880.20	211.48
880.51	211.51
880.82	211.54
881.12	211.50
881.43	211.45
881.74	211.36
882.05	211.25
882.36	211.33
882.67	211.29
882.97	210.90
883.28	210.88
883.59	210.87
883.90	210.89
884.21	211.01
884.51	210.97
884.82	210.91
885.13	210.87
885.44	210.86
885.74	210.87
886.05	210.84
886.36	210.90
886.67	210.78
886.98	210.93
887.28	210.85
887.59	210.84
887.90	210.81
888.20	210.91
888.51	211.05
888.82	211.00
889.13	211.11
889.43	211.35
889.74	211.31
890.05	211.39
890.35	211.38
890.66	211.32
890.97	211.37
891.28	211.39
891.58	211.37
891.89	211.37
892.20	211.39
892.50	211.38
892.81	211.38
893.12	211.35
893.42	211.14
893.73	211.20
894.04	211.20
894.34	211.23
894.65	211.15
894.95	211.09
895.26	211.13
895.57	211.24
895.87	210.97
896.18	211.08
896.48	211.10
896.79	211.06
897.10	211.15
897.40	211.14
897.71	211.17
898.01	211.17
898.32	211.32
898.63	211.31
898.93	211.27
899.24	211.26
899.54	211.37
899.85	211.37
900.15	211.38
900.46	211.39
900.76	211.46
901.07	211.47
901.38	211.44
901.68	211.39
901.99	211.24
902.29	211.22
902.60	211.14
902.90	211.11
903.21	211.12
903.51	211.06
903.82	211.13
904.12	211.04
904.43	211.01
904.73	210.87
905.03	210.90
905.34	211.32
905.64	211.34
905.95	211.32
906.25	211.35
906.56	211.32
906.86	211.28
907.17	211.32
907.47	211.32
907.77	211.35
908.08	211.40
908.38	211.40
908.69	211.46
908.99	211.55
909.30	211.46
909.60	211.50
909.90	211.52
910.21	211.43
910.51	211.45
910.81	211.37
911.12	211.37
911.42	211.32
911.73	210.87
912.03	210.84
912.33	210.85
912.64	210.83
912.94	210.79
913.24	210.72
913.55	210.55
913.85	210.58
914.15	210.61
914.46	210.59
914.76	210.56
915.06	210.40
915.37	210.32
915.67	210.35
915.97	210.29
916.27	210.23
916.58	210.27
916.88	210.28
917.18	210.42
917.49	210.60
917.79	210.63
918.09	210.72
918.39	210.89
918.70	210.90
919.00	210.95
919.30	211.18
919.60	211.20
919.91	211.24
920.21	211.21
920.51	211.18
920.81	211.19
921.12	211.19
921.42	211.31
921.72	211.40
922.02	211.45
922.32	211.57
922.63	211.58
922.93	211.76
923.23	211.80
923.53	211.72
923.83	211.57
924.13	211.61
924.44	211.60
924.74	211.60
925.04	211.66
925.34	211.57
925.64	211.39
925.94	211.41
926.24	211.58
926.55	211.57
926.85	211.54
927.15	211.48
927.45	211.55
927.75	211.54
928.05	211.47
928.35	211.42
928.65	211.47
928.95	211.52
929.26	211.36
929.56	211.38
929.86	211.43
930.16	211.40
930.46	211.36
930.76	211.45
931.06	211.35
931.36	211.24
931.66	211.32
931.96	211.35
932.26	211.34
932.56	211.20
932.86	211.24
933.16	211.35
933.46	211.32
933.76	211.20
934.06	211.22
934.36	211.33
934.66	211.32
934.96	211.25
935.26	211.15
935.56	211.25
935.86	211.14
936.16	211.03
936.46	211.06
936.76	211.05
937.06	210.91
937.36	210.90
937.66	210.94
937.96	210.88
938.26	210.77
938.56	210.75
938.86	210.79
939.16	210.85
939.46	210.80
939.76	210.90
940.06	210.89
940.35	210.86
940.65	210.76
940.95	210.87
941.25	210.77
941.55	210.82
941.85	210.74
942.15	210.87
942.45	211.01
942.75	210.95
943.04	210.91
943.34	210.97
943.64	210.94
943.94	210.83
944.24	210.89
944.54	210.94
944.84	210.94
945.13	210.79
945.43	210.69
945.73	210.66
946.03	210.55
946.33	210.55
946.62	210.54
946.92	210.54
947.22	210.47
947.52	210.51
947.82	210.54
948.11	210.53
948.41	210.44
948.71	210.37
949.01	210.32
949.31	210.32
949.60	210.36
949.90	210.41
950.20	210.41
950.50	210.34
950.79	210.41
951.09	210.46
951.39	210.47
951.69	210.48
951.98	210.56
952.28	210.62
952.58	210.62
952.87	210.66
953.17	210.78
953.47	210.77
953.76	210.77
954.06	210.74
954.36	210.68
954.66	210.66
954.95	210.74
955.25	210.86
955.55	210.90
955.84	210.83
956.14	210.79
956.44	210.86
956.73	210.82
957.03	210.74
957.32	210.72
957.62	210.77
957.92	210.84
958.21	210.80
958.51	211.22
958.81	211.26
959.10	211.28
959.40	211.34
959.69	211.36
959.99	211.41
960.29	211.47
960.58	211.45
960.88	211.59
961.17	211.56
961.47	211.52
961.76	211.46
962.06	211.53
962.36	211.50
962.65	211.53
962.95	211.61
963.24	211.55
963.54	211.64
963.83	211.67
964.13	211.56
964.42	211.56
964.72	211.16
965.01	211.20
965.31	211.16
965.60	210.99
965.90	211.14
966.19	211.08
966.49	211.02
966.78	211.00
967.08	210.97
967.37	211.00
967.67	210.94
967.96	210.99
968.26	210.97
968.55	211.01
968.85	211.01
969.14	210.93
969.43	211.02
969.73	210.94
970.02	210.93
970.32	210.99
970.61	210.92
970.91	210.87
971.20	210.73
971.49	210.71
971.79	210.78
972.08	210.55
972.38	210.56
972.67	210.50
972.96	210.59
973.26	210.49
973.55	210.57
973.85	210.56
974.14	210.54
974.43	210.50
974.73	210.47
975.02	210.37
975.31	210.40
975.61	210.39
975.90	210.38
976.19	210.38
976.49	210.41
976.78	210.50
977.07	210.54
977.37	210.59
977.66	210.59
977.95	210.48
978.24	210.53
978.54	210.58
978.83	210.63
979.12	210.59
979.42	210.62
979.71	210.50
980.00	210.55
980.29	210.58
980.59	210.52
980.88	210.63
981.17	210.67
981.46	210.63
981.76	210.63
982.05	210.76
982.34	210.80
982.63	210.80
982.93	210.76
983.22	210.80
983.51	210.95
983.80	210.99
984.09	211.08
984.39	211.10
984.68	211.10
984.97	211.16
985.26	211.17
985.55	211.23
985.85	211.18
986.14	211.20
986.43	211.23
986.72	211.27
987.01	211.15
987.30	211.11
987.59	211.10
987.89	211.15
988.18	211.08
988.47	211.04
988.76	211.01
989.05	210.98
989.34	210.97
989.63	210.99
989.92	210.97
990.22	210.95
990.51	210.97
990.80	210.85
991.09	210.79
991.38	210.82
991.67	210.81
991.96	210.78
992.25	210.69
992.54	210.65
992.83	210.62
993.12	210.60
993.41	210.69
993.70	210.87
993.99	210.90
994.28	210.90
994.58	210.90
994.87	210.87
995.16	210.87
995.45	210.80
995.74	210.67
996.03	210.71
996.32	210.74
996.61	210.75
996.90	210.80
997.19	210.77
997.48	210.74
997.77	210.62
998.06	210.70
998.34	210.78
998.63	210.72
998.92	210.77
999.21	210.90
999.50	210.91
999.79	210.79
1000.08	210.82
1000.37	210.79
1000.66	210.78
1000.95	210.83
1001.24	210.84
1001.53	210.91
1001.82	210.91
1002.11	210.91
1002.40	210.96
1002.68	211.04
1002.97	211.35
1003.26	211.34
1003.55	211.28
1003.84	211.34
1004.13	211.43
1004.42	211.40
1004.71	211.47
1004.99	211.41
1005.28	211.42
1005.57	211.43
1005.86	211.39
1006.15	211.34
1006.44	211.29
1006.72	211.30
1007.01	211.35
1007.30	211.32
1007.59	211.29
1007.88	211.27
1008.17	211.23
1008.45	211.16
1008.74	211.00
1009.03	210.82
1009.32	210.89
1009.60	210.90
1009.89	210.85
1010.18	210.72
1010.47	210.65
1010.76	210.67
1011.04	210.74
1011.33	210.78
1011.62	210.76
1011.91	210.75
1012.19	210.79
1012.48	210.81
1012.77	210.86
1013.05	210.96
1013.34	211.05
1013.63	211.02
1013.92	211.09
1014.20	211.07
1014.49	211.08
1014.78	211.15
1015.06	211.01
1015.35	210.98
1015.64	211.04
1015.92	211.18
1016.21	211.20
1016.50	211.27
1016.78	211.27
1017.07	211.22
1017.36	211.11
1017.64	211.08
1017.93	211.14
1018.22	211.09
1018.50	211.05
1018.79	211.05
1019.08	210.96
1019.36	210.91
1019.65	210.88
1019.93	210.96
1020.22	211.06
1020.51	211.20
1020.79	211.23
1021.08	210.65
1021.36	209.90
1021.65	211.25
1021.94	212.55
1022.22	210.80
1022.51	210.10
1022.79	212.90
1023.08	212.30
1023.36	214.65
1023.65	211.90
>>>>>End Processed Spectral Data<<<<<
