SpectraSuite Data File
++++++++++++++++++++++++++++++++++++
Date: Mon Feb 25 17:00:24 EST 2013
User: group
Dark Spectrum Present: No
Reference Spectrum Present: No
Number of Sampled Component Spectra: 1
Spectrometers: USB2E7196
Integration Time (usec): 104000 (USB2E7196)
Spectra Averaged: 20 (USB2E7196)
Boxcar Smoothing: 10 (USB2E7196)
Correct for Electrical Dark: No (USB2E7196)
Strobe/Lamp Enabled: No (USB2E7196)
Correct for Detector Non-linearity: No (USB2E7196)
Correct for Stray Light: No (USB2E7196)
Number of Pixels in Processed Spectrum: 2048
>>>>>Begin Processed Spectral Data<<<<<
339.09	0.00
339.48	199.35
339.86	199.75
340.24	202.95
340.63	203.50
341.01	210.20
341.39	206.40
341.78	207.60
342.16	209.35
342.54	208.10
342.93	198.46
343.31	208.53
343.69	209.02
344.07	209.44
344.46	209.83
344.84	210.17
345.22	210.20
345.60	210.40
345.99	210.54
346.37	210.57
346.75	210.69
347.13	210.65
347.52	210.63
347.90	210.78
348.28	210.81
348.66	210.80
349.05	210.66
349.43	210.70
349.81	210.70
350.19	210.66
350.57	210.71
350.96	210.80
351.34	210.84
351.72	210.85
352.10	211.02
352.48	210.99
352.87	211.05
353.25	211.02
353.63	211.07
354.01	211.09
354.39	211.24
354.77	211.32
355.15	211.54
355.54	211.59
355.92	211.48
356.30	211.56
356.68	211.81
357.06	211.91
357.44	211.93
357.82	212.06
358.20	212.19
358.58	212.27
358.97	212.25
359.35	212.34
359.73	212.58
360.11	212.59
360.49	212.72
360.87	212.70
361.25	212.89
361.63	213.02
362.01	213.15
362.39	213.08
362.77	213.16
363.15	213.17
363.53	213.22
363.91	213.35
364.29	213.37
364.67	213.12
365.05	213.18
365.43	213.26
365.81	213.32
366.19	213.48
366.57	213.67
366.95	213.77
367.33	213.70
367.71	213.62
368.09	213.69
368.47	213.65
368.85	213.81
369.23	213.82
369.61	213.71
369.99	213.80
370.37	213.88
370.75	214.03
371.13	213.94
371.51	213.92
371.89	213.91
372.27	213.89
372.65	213.96
373.03	213.91
373.41	213.88
373.78	213.84
374.16	213.63
374.54	213.51
374.92	213.45
375.30	213.44
375.68	213.33
376.06	213.32
376.44	213.32
376.82	213.19
377.19	213.13
377.57	213.07
377.95	212.91
378.33	212.87
378.71	212.61
379.09	212.63
379.47	212.69
379.84	212.61
380.22	212.60
380.60	212.45
380.98	212.45
381.36	212.35
381.73	212.21
382.11	212.24
382.49	212.15
382.87	212.06
383.25	212.01
383.62	212.43
384.00	212.28
384.38	212.23
384.76	212.28
385.13	212.37
385.51	212.39
385.89	212.32
386.27	212.31
386.64	212.33
387.02	212.20
387.40	212.02
387.78	212.06
388.15	211.94
388.53	211.88
388.91	211.84
389.29	211.82
389.66	211.88
390.04	211.82
390.42	211.83
390.79	211.76
391.17	211.69
391.55	211.22
391.92	211.30
392.30	211.30
392.68	211.19
393.05	211.15
393.43	211.15
393.81	211.17
394.18	211.05
394.56	211.05
394.94	211.15
395.31	211.16
395.69	211.22
396.06	211.33
396.44	211.39
396.82	211.27
397.19	211.49
397.57	211.45
397.95	211.50
398.32	211.48
398.70	211.55
399.07	211.65
399.45	211.67
399.82	211.61
400.20	211.59
400.58	211.64
400.95	211.52
401.33	211.59
401.70	211.87
402.08	211.90
402.45	211.99
402.83	212.07
403.20	212.16
403.58	212.21
403.95	212.33
404.33	212.48
404.71	212.73
405.08	212.95
405.46	213.10
405.83	213.25
406.21	213.41
406.58	213.63
406.96	213.83
407.33	214.14
407.70	214.50
408.08	215.15
408.45	215.55
408.83	216.00
409.20	216.35
409.58	216.49
409.95	217.06
410.33	217.49
410.70	217.95
411.08	218.57
411.45	219.15
411.82	219.74
412.20	220.41
412.57	221.25
412.95	221.79
413.32	222.69
413.69	223.50
414.07	224.45
414.44	225.49
414.82	226.55
415.19	227.73
415.56	228.91
415.94	229.93
416.31	231.40
416.68	232.84
417.06	234.44
417.43	236.12
417.81	237.86
418.18	239.77
418.55	241.69
418.93	243.73
419.30	245.91
419.67	248.18
420.04	250.57
420.42	253.07
420.79	256.08
421.16	258.97
421.54	262.13
421.91	265.25
422.28	268.50
422.66	271.91
423.03	275.47
423.40	279.06
423.77	282.88
424.15	286.61
424.52	290.66
424.89	295.05
425.26	299.37
425.64	303.44
426.01	307.93
426.38	312.66
426.75	317.46
427.13	322.44
427.50	327.74
427.87	333.13
428.24	338.45
428.61	343.59
428.99	349.37
429.36	355.50
429.73	361.71
430.10	367.81
430.47	374.05
430.85	380.50
431.22	387.45
431.59	394.92
431.96	402.00
432.33	409.81
432.70	417.48
433.08	426.45
433.45	435.01
433.82	443.38
434.19	452.84
434.56	462.00
434.93	470.85
435.30	479.75
435.68	489.74
436.05	499.59
436.42	509.43
436.79	518.46
437.16	528.23
437.53	538.47
437.90	548.63
438.27	558.79
438.64	569.26
439.01	579.04
439.38	587.75
439.75	596.34
440.13	606.06
440.50	615.24
440.87	622.91
441.24	630.78
441.61	639.58
441.98	646.14
442.35	653.97
442.72	661.79
443.09	669.15
443.46	673.82
443.83	677.21
444.20	680.32
444.57	684.59
444.94	686.97
445.31	689.40
445.68	691.92
446.05	693.35
446.42	693.00
446.79	692.52
447.16	691.88
447.53	691.72
447.90	688.70
448.27	685.75
448.64	681.13
449.01	678.09
449.37	671.98
449.74	666.10
450.11	659.08
450.48	651.14
450.85	643.18
451.22	636.46
451.59	630.06
451.96	623.84
452.33	615.10
452.70	607.31
453.07	597.90
453.43	588.34
453.80	579.33
454.17	570.74
454.54	562.54
454.91	553.61
455.28	544.98
455.65	536.82
456.02	528.89
456.38	521.95
456.75	513.12
457.12	505.91
457.49	498.77
457.86	491.66
458.23	485.76
458.59	479.23
458.96	472.68
459.33	466.64
459.70	460.59
460.07	455.95
460.43	450.65
460.80	445.74
461.17	441.36
461.54	436.64
461.91	432.07
462.27	427.42
462.64	423.58
463.01	419.17
463.38	415.15
463.74	410.63
464.11	406.98
464.48	403.88
464.85	400.40
465.21	397.76
465.58	394.88
465.95	391.37
466.32	388.52
466.68	385.47
467.05	382.79
467.42	379.97
467.78	376.96
468.15	374.06
468.52	371.95
468.88	368.99
469.25	366.55
469.62	364.62
469.98	362.54
470.35	360.48
470.72	358.45
471.08	356.23
471.45	354.45
471.82	352.56
472.18	350.60
472.55	349.10
472.92	347.33
473.28	345.72
473.65	344.28
474.02	342.83
474.38	341.83
474.75	340.76
475.11	339.67
475.48	338.91
475.85	338.16
476.21	337.29
476.58	336.68
476.94	336.09
477.31	335.35
477.67	334.65
478.04	334.24
478.41	333.98
478.77	333.99
479.14	333.60
479.50	333.45
479.87	333.37
480.23	333.37
480.60	333.18
480.96	333.15
481.33	333.35
481.69	333.48
482.06	333.48
482.42	333.59
482.79	333.75
483.15	334.01
483.52	334.43
483.88	334.70
484.25	335.10
484.61	335.60
484.98	336.13
485.34	336.87
485.71	337.64
486.07	338.35
486.44	338.76
486.80	339.65
487.17	340.50
487.53	341.46
487.90	342.62
488.26	343.94
488.62	345.30
488.99	346.47
489.35	347.73
489.72	349.05
490.08	350.48
490.44	351.99
490.81	353.50
491.17	354.91
491.54	356.68
491.90	358.39
492.26	360.15
492.63	362.04
492.99	363.98
493.36	365.97
493.72	368.15
494.08	370.40
494.45	372.69
494.81	375.15
495.17	377.59
495.54	380.00
495.90	382.44
496.26	384.83
496.63	387.39
496.99	390.00
497.35	392.69
497.72	395.40
498.08	398.11
498.44	400.92
498.80	404.12
499.17	407.13
499.53	410.13
499.89	413.21
500.26	416.11
500.62	419.05
500.98	422.04
501.34	424.94
501.71	427.99
502.07	430.86
502.43	433.68
502.79	436.34
503.16	439.15
503.52	441.97
503.88	444.72
504.24	447.65
504.60	450.38
504.97	453.19
505.33	455.86
505.69	458.80
506.05	461.49
506.41	463.82
506.78	466.09
507.14	468.38
507.50	470.63
507.86	472.96
508.22	475.07
508.59	476.98
508.95	479.13
509.31	481.20
509.67	483.27
510.03	485.17
510.39	487.20
510.75	489.20
511.12	491.00
511.48	492.87
511.84	494.48
512.20	496.09
512.56	497.55
512.92	499.19
513.28	500.46
513.64	501.59
514.00	502.90
514.37	504.22
514.73	505.55
515.09	506.77
515.45	507.83
515.81	508.80
516.17	509.90
516.53	510.65
516.89	511.30
517.25	511.97
517.61	512.88
517.97	513.37
518.33	513.74
518.69	514.16
519.05	514.66
519.41	515.15
519.77	515.82
520.13	516.24
520.49	516.43
520.85	516.81
521.21	517.43
521.57	517.81
521.93	517.94
522.29	518.23
522.65	518.28
523.01	518.63
523.37	518.96
523.73	519.30
524.09	519.57
524.45	519.75
524.81	520.12
525.17	520.44
525.53	521.00
525.89	521.38
526.25	521.88
526.61	522.14
526.97	522.42
527.33	522.68
527.68	523.47
528.04	523.98
528.40	524.39
528.76	524.84
529.12	525.44
529.48	526.26
529.84	526.77
530.20	527.63
530.56	528.43
530.91	529.42
531.27	530.36
531.63	531.46
531.99	532.69
532.35	533.74
532.71	534.69
533.07	535.90
533.42	537.51
533.78	538.85
534.14	540.30
534.50	541.63
534.86	543.27
535.21	544.50
535.57	546.20
535.93	547.65
536.29	549.28
536.65	550.96
537.00	552.54
537.36	554.35
537.72	556.15
538.08	557.87
538.44	559.70
538.79	561.60
539.15	563.47
539.51	565.36
539.87	567.39
540.22	569.42
540.58	571.55
540.94	573.27
541.29	575.29
541.65	577.23
542.01	579.57
542.37	581.65
542.72	583.85
543.08	585.94
543.44	588.40
543.79	590.55
544.15	592.89
544.51	595.41
544.87	597.98
545.22	600.58
545.58	603.11
545.94	605.37
546.29	607.64
546.65	609.93
547.01	612.42
547.36	614.89
547.72	617.50
548.07	620.02
548.43	622.57
548.79	624.87
549.14	627.39
549.50	629.83
549.86	632.30
550.21	634.98
550.57	637.74
550.92	640.22
551.28	642.80
551.64	645.38
551.99	647.96
552.35	650.39
552.70	652.63
553.06	655.07
553.41	657.76
553.77	660.64
554.13	663.43
554.48	666.10
554.84	668.98
555.19	671.53
555.55	674.35
555.90	676.61
556.26	679.22
556.61	681.60
556.97	683.71
557.32	686.12
557.68	688.17
558.03	690.35
558.39	692.49
558.74	694.91
559.10	697.03
559.45	699.45
559.81	701.78
560.16	703.91
560.52	706.15
560.87	708.39
561.23	710.11
561.58	712.36
561.94	714.31
562.29	715.97
562.64	718.11
563.00	719.78
563.35	722.02
563.71	724.33
564.06	726.46
564.42	728.95
564.77	731.07
565.12	733.30
565.48	735.57
565.83	737.68
566.19	739.70
566.54	741.53
566.89	743.04
567.25	744.99
567.60	747.26
567.96	749.28
568.31	751.38
568.66	753.29
569.02	754.60
569.37	755.97
569.72	757.63
570.08	758.95
570.43	760.17
570.78	761.44
571.14	762.26
571.49	763.23
571.84	764.20
572.20	765.13
572.55	766.09
572.90	766.46
573.26	767.18
573.61	767.60
573.96	768.22
574.31	768.71
574.67	768.88
575.02	768.85
575.37	768.75
575.72	768.10
576.08	768.28
576.43	768.34
576.78	768.48
577.13	768.34
577.49	768.25
577.84	768.22
578.19	768.22
578.54	768.64
578.90	768.95
579.25	768.72
579.60	768.13
579.95	767.44
580.30	767.15
580.66	766.93
581.01	766.50
581.36	765.95
581.71	765.43
582.06	765.23
582.42	764.91
582.77	764.32
583.12	763.87
583.47	763.24
583.82	762.74
584.17	762.05
584.53	761.70
584.88	761.02
585.23	760.40
585.58	759.53
585.93	758.39
586.28	757.47
586.63	756.74
586.98	756.20
587.34	755.82
587.69	755.00
588.04	754.05
588.39	753.34
588.74	752.53
589.09	751.95
589.44	750.71
589.79	749.77
590.14	749.04
590.49	748.30
590.84	747.27
591.19	746.43
591.54	745.56
591.89	744.00
592.25	743.10
592.60	741.95
592.95	740.53
593.30	739.10
593.65	737.59
594.00	735.98
594.35	735.62
594.70	734.06
595.05	732.85
595.40	731.48
595.75	729.98
596.10	728.67
596.45	727.35
596.80	726.25
597.15	724.83
597.50	723.20
597.85	721.72
598.19	720.23
598.54	718.65
598.89	717.12
599.24	715.94
599.59	714.33
599.94	712.94
600.29	711.70
600.64	710.30
600.99	708.68
601.34	707.51
601.69	704.95
602.04	703.35
602.39	701.72
602.74	700.22
603.08	698.79
603.43	697.56
603.78	695.84
604.13	694.12
604.48	692.58
604.83	691.37
605.18	690.05
605.53	688.38
605.87	686.54
606.22	684.98
606.57	683.20
606.92	681.43
607.27	679.45
607.62	677.65
607.96	676.11
608.31	674.56
608.66	672.66
609.01	670.80
609.36	668.92
609.70	667.04
610.05	665.10
610.40	663.23
610.75	660.95
611.10	659.23
611.44	657.05
611.79	654.87
612.14	652.47
612.49	650.13
612.83	648.16
613.18	646.05
613.53	643.75
613.88	641.56
614.22	639.51
614.57	637.57
614.92	635.60
615.27	633.46
615.61	631.42
615.96	629.43
616.31	627.50
616.65	625.79
617.00	623.79
617.35	621.70
617.70	619.40
618.04	617.35
618.39	614.82
618.74	612.69
619.08	610.58
619.43	608.65
619.78	606.70
620.12	604.60
620.47	602.56
620.82	600.29
621.16	598.03
621.51	595.93
621.85	593.70
622.20	591.40
622.55	589.03
622.89	586.66
623.24	584.34
623.59	582.12
623.93	579.87
624.28	577.64
624.62	575.84
624.97	573.87
625.32	571.63
625.66	569.52
626.01	567.47
626.35	565.33
626.70	562.91
627.04	560.83
627.39	558.69
627.73	556.81
628.08	555.01
628.43	552.94
628.77	550.71
629.12	548.55
629.46	546.48
629.81	544.49
630.15	542.36
630.50	540.17
630.84	537.95
631.19	535.83
631.53	533.76
631.88	531.29
632.22	528.97
632.57	527.08
632.91	525.08
633.26	523.14
633.60	521.09
633.95	519.30
634.29	517.16
634.64	515.25
634.98	513.09
635.32	511.22
635.67	509.55
636.01	507.60
636.36	505.77
636.70	504.00
637.05	502.14
637.39	500.41
637.73	498.81
638.08	497.24
638.42	495.42
638.77	493.75
639.11	491.97
639.45	490.27
639.80	488.26
640.14	486.30
640.49	484.33
640.83	482.44
641.17	480.60
641.52	478.70
641.86	476.63
642.20	474.79
642.55	472.59
642.89	470.50
643.23	468.55
643.58	466.76
643.92	464.71
644.26	462.79
644.61	460.92
644.95	458.85
645.29	456.74
645.64	454.75
645.98	452.74
646.32	450.96
646.66	449.11
647.01	447.34
647.35	445.65
647.69	443.76
648.04	442.10
648.38	440.26
648.72	438.44
649.06	436.70
649.41	434.80
649.75	433.10
650.09	431.39
650.43	429.57
650.78	427.67
651.12	426.01
651.46	424.24
651.80	422.66
652.14	421.00
652.49	419.44
652.83	417.69
653.17	415.92
653.51	414.10
653.85	412.45
654.20	410.70
654.54	408.91
654.88	407.28
655.22	405.56
655.56	403.75
655.90	401.92
656.25	400.32
656.59	398.65
656.93	397.10
657.27	395.56
657.61	393.92
657.95	392.39
658.29	390.71
658.64	389.29
658.98	387.56
659.32	385.80
659.66	384.05
660.00	382.52
660.34	380.88
660.68	379.35
661.02	377.70
661.36	376.08
661.70	374.60
662.05	373.15
662.39	371.70
662.73	370.37
663.07	369.26
663.41	367.74
663.75	366.31
664.09	364.91
664.43	363.27
664.77	361.96
665.11	360.60
665.45	359.28
665.79	357.86
666.13	356.45
666.47	355.22
666.81	353.95
667.15	352.54
667.49	351.42
667.83	350.19
668.17	348.91
668.51	347.87
668.85	346.73
669.19	345.71
669.53	344.34
669.87	343.11
670.21	341.73
670.55	340.60
670.89	339.64
671.23	338.49
671.57	337.48
671.91	336.36
672.25	335.20
672.58	334.13
672.92	332.98
673.26	331.99
673.60	330.96
673.94	329.87
674.28	328.86
674.62	327.78
674.96	326.80
675.30	325.77
675.64	324.69
675.97	323.61
676.31	322.41
676.65	321.45
676.99	320.61
677.33	319.59
677.67	318.50
678.01	317.32
678.34	316.30
678.68	315.40
679.02	314.33
679.36	313.31
679.70	312.32
680.04	311.50
680.37	310.53
680.71	309.54
681.05	308.65
681.39	307.75
681.73	306.85
682.06	305.96
682.40	305.03
682.74	304.22
683.08	303.47
683.42	302.58
683.75	301.81
684.09	300.82
684.43	300.02
684.77	299.16
685.10	298.36
685.44	297.49
685.78	296.60
686.12	295.94
686.45	295.14
686.79	294.28
687.13	293.42
687.46	292.62
687.80	291.94
688.14	291.21
688.48	290.51
688.81	289.75
689.15	288.98
689.49	288.29
689.82	287.43
690.16	286.36
690.50	285.54
690.83	284.68
691.17	283.85
691.51	283.04
691.84	282.25
692.18	281.55
692.52	280.84
692.85	280.24
693.19	279.56
693.52	278.90
693.86	278.19
694.20	277.47
694.53	276.79
694.87	276.00
695.21	275.18
695.54	274.44
695.88	273.71
696.21	272.89
696.55	272.29
696.88	271.62
697.22	271.10
697.56	270.57
697.89	269.98
698.23	269.42
698.56	268.79
698.90	268.30
699.23	267.69
699.57	267.18
699.90	266.57
700.24	265.95
700.58	265.43
700.91	264.91
701.25	264.60
701.58	264.10
701.92	263.70
702.25	263.24
702.59	262.73
702.92	262.19
703.26	261.73
703.59	261.15
703.93	260.92
704.26	260.40
704.60	259.92
704.93	259.35
705.26	258.82
705.60	258.41
705.93	257.88
706.27	257.50
706.60	257.05
706.94	256.65
707.27	256.09
707.61	255.45
707.94	254.89
708.27	254.21
708.61	253.67
708.94	253.17
709.28	252.71
709.61	252.16
709.94	251.70
710.28	251.33
710.61	250.96
710.95	250.18
711.28	250.05
711.61	249.59
711.95	249.33
712.28	248.91
712.61	248.43
712.95	248.26
713.28	248.02
713.61	247.52
713.95	247.07
714.28	246.76
714.61	246.46
714.95	246.12
715.28	245.70
715.61	245.35
715.95	244.93
716.28	244.52
716.61	244.34
716.95	244.00
717.28	243.59
717.61	243.23
717.94	242.98
718.28	242.36
718.61	242.07
718.94	241.67
719.27	241.37
719.61	241.11
719.94	240.72
720.27	240.25
720.60	239.95
720.94	239.66
721.27	239.33
721.60	239.09
721.93	238.84
722.27	238.73
722.60	238.51
722.93	238.16
723.26	237.92
723.59	237.51
723.93	237.25
724.26	236.97
724.59	236.74
724.92	236.46
725.25	236.34
725.59	235.96
725.92	235.74
726.25	235.43
726.58	235.23
726.91	234.89
727.24	234.68
727.57	234.46
727.91	234.13
728.24	233.96
728.57	233.78
728.90	233.56
729.23	233.20
729.56	233.10
729.89	233.02
730.22	232.77
730.55	232.59
730.89	232.40
731.22	232.25
731.55	231.97
731.88	231.77
732.21	231.47
732.54	231.31
732.87	231.06
733.20	230.87
733.53	230.73
733.86	230.61
734.19	230.35
734.52	230.19
734.85	230.33
735.18	230.03
735.51	229.86
735.84	229.65
736.17	229.51
736.50	229.20
736.83	229.44
737.16	229.37
737.49	229.18
737.82	228.96
738.15	228.78
738.48	228.54
738.81	228.35
739.14	228.20
739.47	228.04
739.80	227.93
740.13	227.85
740.46	227.55
740.79	227.27
741.12	227.09
741.45	226.90
741.78	226.52
742.11	226.45
742.44	226.25
742.77	226.20
743.10	226.02
743.43	225.83
743.75	225.21
744.08	225.44
744.41	225.28
744.74	225.10
745.07	224.95
745.40	224.92
745.73	224.87
746.06	224.75
746.39	224.70
746.71	224.55
747.04	224.37
747.37	224.21
747.70	224.20
748.03	224.06
748.36	224.03
748.68	223.81
749.01	223.56
749.34	223.44
749.67	223.31
750.00	223.24
750.33	223.43
750.65	223.47
750.98	222.97
751.31	222.90
751.64	222.83
751.97	222.96
752.29	222.83
752.62	222.61
752.95	222.45
753.28	222.17
753.60	222.10
753.93	222.06
754.26	222.08
754.59	221.85
754.91	221.73
755.24	221.54
755.57	221.47
755.90	221.47
756.22	221.35
756.55	221.20
756.88	221.04
757.20	220.72
757.53	220.40
757.86	220.27
758.19	220.17
758.51	220.06
758.84	219.76
759.17	219.63
759.49	219.56
759.82	219.65
760.15	219.65
760.47	219.51
760.80	219.37
761.13	219.32
761.45	219.26
761.78	219.20
762.11	219.13
762.43	219.00
762.76	218.90
763.08	218.79
763.41	218.71
763.74	218.66
764.06	218.56
764.39	218.55
764.71	218.38
765.04	218.18
765.37	218.09
765.69	217.91
766.02	217.88
766.34	217.77
766.67	217.60
767.00	217.64
767.32	217.71
767.65	217.80
767.97	217.67
768.30	217.61
768.62	217.58
768.95	217.51
769.27	217.49
769.60	217.51
769.92	217.43
770.25	217.31
770.57	217.17
770.90	217.07
771.22	216.93
771.55	216.88
771.87	216.96
772.20	216.85
772.52	217.15
772.85	217.46
773.17	217.45
773.50	217.35
773.82	217.20
774.15	217.02
774.47	216.76
774.80	216.66
775.12	216.52
775.45	216.40
775.77	216.28
776.09	216.24
776.42	216.18
776.74	216.17
777.07	216.10
777.39	216.06
777.72	216.00
778.04	216.01
778.36	216.03
778.69	215.98
779.01	216.04
779.33	215.74
779.66	215.28
779.98	215.21
780.31	215.23
780.63	215.37
780.95	215.35
781.28	215.29
781.60	215.24
781.92	215.28
782.25	215.32
782.57	215.30
782.89	215.20
783.22	215.13
783.54	215.05
783.86	215.07
784.19	215.06
784.51	215.14
784.83	215.07
785.16	215.00
785.48	214.95
785.80	214.89
786.12	214.82
786.45	214.81
786.77	214.81
787.09	214.70
787.42	214.49
787.74	214.48
788.06	214.50
788.38	214.44
788.71	214.32
789.03	214.28
789.35	214.35
789.67	214.39
789.99	214.32
790.32	214.32
790.64	214.30
790.96	214.52
791.28	214.39
791.61	214.39
791.93	214.43
792.25	214.36
792.57	214.49
792.89	214.37
793.21	214.39
793.54	214.30
793.86	214.24
794.18	214.30
794.50	214.25
794.82	214.17
795.14	214.18
795.47	214.29
795.79	214.28
796.11	214.19
796.43	214.10
796.75	214.11
797.07	214.10
797.39	214.12
797.71	213.89
798.04	213.86
798.36	213.88
798.68	213.80
799.00	213.82
799.32	213.74
799.64	213.84
799.96	213.74
800.28	213.86
800.60	213.85
800.92	213.82
801.24	213.77
801.56	213.81
801.89	213.84
802.21	213.78
802.53	213.63
802.85	213.61
803.17	213.81
803.49	213.66
803.81	213.57
804.13	213.48
804.45	213.43
804.77	213.47
805.09	213.38
805.41	213.35
805.73	213.25
806.05	213.11
806.37	213.04
806.69	213.08
807.01	213.01
807.33	213.05
807.65	212.84
807.97	212.98
808.28	212.94
808.60	212.87
808.92	212.85
809.24	213.12
809.56	213.11
809.88	212.95
810.20	213.04
810.52	213.14
810.84	213.11
811.16	213.10
811.48	213.03
811.80	213.13
812.12	213.08
812.43	213.19
812.75	213.21
813.07	213.23
813.39	213.20
813.71	213.11
814.03	213.07
814.35	213.20
814.67	213.05
814.98	212.95
815.30	213.02
815.62	212.93
815.94	212.66
816.26	212.68
816.58	212.60
816.89	212.56
817.21	212.42
817.53	212.43
817.85	212.38
818.17	212.45
818.48	212.35
818.80	212.48
819.12	212.39
819.44	212.30
819.76	212.29
820.07	212.30
820.39	212.33
820.71	212.36
821.03	212.27
821.34	212.25
821.66	212.34
821.98	212.24
822.30	212.28
822.61	212.51
822.93	212.43
823.25	212.44
823.57	212.42
823.88	212.54
824.20	212.54
824.52	212.63
824.83	212.53
825.15	212.49
825.47	212.46
825.79	212.48
826.10	212.49
826.42	212.47
826.74	212.47
827.05	212.42
827.37	212.39
827.69	212.39
828.00	212.40
828.32	212.35
828.64	212.41
828.95	212.62
829.27	212.60
829.58	212.60
829.90	212.68
830.22	212.68
830.53	212.62
830.85	212.54
831.17	212.35
831.48	212.36
831.80	212.41
832.11	212.39
832.43	212.40
832.75	212.33
833.06	212.53
833.38	212.41
833.69	212.37
834.01	212.39
834.32	212.33
834.64	212.22
834.96	212.29
835.27	212.26
835.59	212.05
835.90	211.86
836.22	211.91
836.53	211.76
836.85	211.71
837.16	212.02
837.48	212.09
837.79	212.35
838.11	212.35
838.42	212.29
838.74	212.30
839.05	212.22
839.37	212.28
839.68	212.03
840.00	212.03
840.31	212.15
840.63	212.15
840.94	212.21
841.26	212.29
841.57	212.27
841.88	212.28
842.20	212.24
842.51	212.10
842.83	212.06
843.14	212.48
843.46	212.51
843.77	212.25
844.08	212.20
844.40	212.05
844.71	212.03
845.03	211.97
845.34	211.88
845.65	211.85
845.97	211.86
846.28	211.85
846.60	211.88
846.91	211.75
847.22	211.68
847.54	211.73
847.85	211.75
848.16	211.73
848.48	211.60
848.79	211.71
849.10	211.85
849.42	211.85
849.73	211.46
850.04	211.46
850.36	211.37
850.67	211.41
850.98	211.35
851.30	211.41
851.61	211.43
851.92	211.52
852.23	211.65
852.55	211.66
852.86	211.67
853.17	211.74
853.49	211.81
853.80	211.88
854.11	211.93
854.42	211.86
854.74	211.82
855.05	211.84
855.36	211.66
855.67	211.68
855.99	211.65
856.30	212.02
856.61	211.98
856.92	212.01
857.23	211.95
857.55	211.92
857.86	211.83
858.17	211.90
858.48	211.71
858.79	211.65
859.11	211.67
859.42	211.60
859.73	211.48
860.04	211.57
860.35	211.47
860.66	211.25
860.98	211.33
861.29	211.35
861.60	211.46
861.91	211.54
862.22	211.48
862.53	211.37
862.84	210.90
863.16	211.08
863.47	211.00
863.78	210.97
864.09	211.02
864.40	211.08
864.71	211.06
865.02	211.20
865.33	211.13
865.64	211.15
865.95	211.25
866.27	211.51
866.58	211.41
866.89	211.50
867.20	211.55
867.51	211.46
867.82	211.45
868.13	211.52
868.44	211.46
868.75	211.50
869.06	211.59
869.37	211.61
869.68	211.43
869.99	211.49
870.30	211.56
870.61	211.62
870.92	211.55
871.23	211.49
871.54	211.54
871.85	211.64
872.16	211.64
872.47	211.58
872.78	211.41
873.09	211.41
873.40	211.29
873.71	211.36
874.02	211.36
874.33	211.32
874.64	211.18
874.95	211.26
875.26	211.13
875.56	211.11
875.87	211.25
876.18	211.21
876.49	211.47
876.80	211.40
877.11	211.35
877.42	211.33
877.73	211.34
878.04	211.25
878.35	211.30
878.66	211.21
878.96	211.20
879.27	211.13
879.58	211.12
879.89	211.10
880.20	211.15
880.51	211.14
880.82	211.17
881.12	211.19
881.43	211.17
881.74	211.19
882.05	211.18
882.36	211.18
882.67	211.25
882.97	210.96
883.28	210.97
883.59	210.94
883.90	211.01
884.21	211.04
884.51	211.06
884.82	210.99
885.13	211.02
885.44	211.07
885.74	211.09
886.05	211.02
886.36	211.06
886.67	210.95
886.98	211.20
887.28	211.21
887.59	211.20
887.90	211.16
888.20	211.11
888.51	211.15
888.82	211.11
889.13	211.17
889.43	211.38
889.74	211.36
890.05	211.35
890.35	211.29
890.66	211.28
890.97	211.28
891.28	211.25
891.58	211.27
891.89	211.20
892.20	211.17
892.50	211.15
892.81	211.14
893.12	211.16
893.42	210.90
893.73	210.93
894.04	210.94
894.34	210.94
894.65	210.99
894.95	210.97
895.26	210.91
895.57	211.04
895.87	210.76
896.18	210.78
896.48	210.81
896.79	210.80
897.10	210.89
897.40	210.87
897.71	210.93
898.01	210.93
898.32	211.02
898.63	210.99
898.93	211.10
899.24	211.13
899.54	211.11
899.85	211.17
900.15	211.14
900.46	211.08
900.76	211.15
901.07	211.12
901.38	211.15
901.68	211.20
901.99	211.01
902.29	211.12
902.60	211.15
902.90	211.10
903.21	211.16
903.51	211.08
903.82	211.19
904.12	211.12
904.43	211.15
904.73	211.05
905.03	211.13
905.34	211.42
905.64	211.45
905.95	211.45
906.25	211.45
906.56	211.51
906.86	211.60
907.17	211.57
907.47	211.64
907.77	211.64
908.08	211.63
908.38	211.69
908.69	211.66
908.99	211.74
909.30	211.83
909.60	211.80
909.90	211.83
910.21	211.71
910.51	211.70
910.81	211.70
911.12	211.80
911.42	211.79
911.73	211.37
912.03	211.33
912.33	211.38
912.64	211.33
912.94	211.22
913.24	211.15
913.55	211.14
913.85	211.11
914.15	211.20
914.46	211.28
914.76	211.23
915.06	211.22
915.37	211.16
915.67	211.17
915.97	211.15
916.27	211.11
916.58	211.17
916.88	211.14
917.18	211.16
917.49	211.40
917.79	211.39
918.09	211.50
918.39	211.67
918.70	211.66
919.00	211.68
919.30	211.93
919.60	211.93
919.91	211.94
920.21	212.02
920.51	211.85
920.81	211.77
921.12	211.77
921.42	211.77
921.72	211.76
922.02	211.72
922.32	211.78
922.63	211.80
922.93	211.92
923.23	211.95
923.53	211.90
923.83	211.60
924.13	211.65
924.44	211.72
924.74	211.71
925.04	211.80
925.34	211.80
925.64	211.60
925.94	211.57
926.24	211.67
926.55	211.54
926.85	211.62
927.15	211.71
927.45	211.75
927.75	211.72
928.05	211.68
928.35	211.64
928.65	211.67
928.95	211.64
929.26	211.50
929.56	211.60
929.86	211.68
930.16	211.72
930.46	211.72
930.76	211.68
931.06	211.45
931.36	211.34
931.66	211.43
931.96	211.46
932.26	211.52
932.56	211.46
932.86	211.51
933.16	211.55
933.46	211.45
933.76	211.38
934.06	211.42
934.36	211.56
934.66	211.48
934.96	211.45
935.26	211.50
935.56	211.51
935.86	211.33
936.16	211.21
936.46	211.16
936.76	211.08
937.06	211.00
937.36	210.99
937.66	210.99
937.96	210.96
938.26	210.82
938.56	210.77
938.86	210.85
939.16	210.94
939.46	210.95
939.76	210.94
940.06	210.94
940.35	210.94
940.65	210.80
940.95	210.94
941.25	210.90
941.55	210.89
941.85	210.89
942.15	210.97
942.45	211.09
942.75	211.12
943.04	211.15
943.34	211.25
943.64	211.31
943.94	211.20
944.24	211.15
944.54	211.21
944.84	211.25
945.13	211.15
945.43	211.08
945.73	211.06
946.03	210.98
946.33	210.92
946.62	210.91
946.92	210.85
947.22	210.82
947.52	210.80
947.82	210.81
948.11	210.80
948.41	210.73
948.71	210.60
949.01	210.59
949.31	210.55
949.60	210.47
949.90	210.54
950.20	210.61
950.50	210.66
950.79	210.70
951.09	210.80
951.39	210.77
951.69	210.75
951.98	210.78
952.28	210.89
952.58	210.96
952.87	210.91
953.17	211.01
953.47	210.99
953.76	210.98
954.06	210.93
954.36	210.81
954.66	210.85
954.95	211.00
955.25	211.01
955.55	211.07
955.84	211.02
956.14	211.06
956.44	211.11
956.73	211.10
957.03	211.07
957.32	210.97
957.62	210.98
957.92	211.03
958.21	211.04
958.51	211.46
958.81	211.50
959.10	211.53
959.40	211.56
959.69	211.64
959.99	211.69
960.29	211.68
960.58	211.73
960.88	211.84
961.17	211.68
961.47	211.73
961.76	211.69
962.06	211.79
962.36	211.71
962.65	211.74
962.95	211.68
963.24	211.66
963.54	211.62
963.83	211.64
964.13	211.58
964.42	211.52
964.72	211.19
965.01	211.18
965.31	211.17
965.60	211.10
965.90	211.21
966.19	211.14
966.49	211.22
966.78	211.24
967.08	211.24
967.37	211.34
967.67	211.23
967.96	211.29
968.26	211.26
968.55	211.32
968.85	211.27
969.14	211.31
969.43	211.35
969.73	211.35
970.02	211.30
970.32	211.25
970.61	211.17
970.91	211.08
971.20	211.01
971.49	210.96
971.79	211.04
972.08	210.79
972.38	210.80
972.67	210.66
972.96	210.67
973.26	210.59
973.55	210.67
973.85	210.68
974.14	210.62
974.43	210.56
974.73	210.49
975.02	210.48
975.31	210.49
975.61	210.48
975.90	210.48
976.19	210.46
976.49	210.54
976.78	210.64
977.07	210.69
977.37	210.74
977.66	210.75
977.95	210.67
978.24	210.73
978.54	210.81
978.83	210.91
979.12	210.82
979.42	210.81
979.71	210.72
980.00	210.79
980.29	210.76
980.59	210.76
980.88	210.82
981.17	210.78
981.46	210.75
981.76	210.71
982.05	210.84
982.34	210.90
982.63	210.92
982.93	210.91
983.22	210.96
983.51	210.99
983.80	211.13
984.09	211.13
984.39	211.10
984.68	211.07
984.97	211.02
985.26	211.08
985.55	211.10
985.85	211.11
986.14	211.13
986.43	211.23
986.72	211.21
987.01	211.16
987.30	211.15
987.59	211.14
987.89	211.12
988.18	210.93
988.47	210.91
988.76	210.86
989.05	210.82
989.34	210.73
989.63	210.81
989.92	210.67
990.22	210.68
990.51	210.71
990.80	210.68
991.09	210.74
991.38	210.76
991.67	210.82
991.96	210.69
992.25	210.64
992.54	210.52
992.83	210.58
993.12	210.55
993.41	210.58
993.70	210.67
993.99	210.80
994.28	210.96
994.58	211.06
994.87	211.01
995.16	211.07
995.45	211.06
995.74	210.90
996.03	211.01
996.32	211.06
996.61	211.10
996.90	211.11
997.19	211.05
997.48	211.12
997.77	211.02
998.06	211.19
998.34	211.16
998.63	211.24
998.92	211.26
999.21	211.36
999.50	211.42
999.79	211.38
1000.08	211.36
1000.37	211.32
1000.66	211.27
1000.95	211.39
1001.24	211.37
1001.53	211.47
1001.82	211.49
1002.11	211.36
1002.40	211.42
1002.68	211.54
1002.97	211.79
1003.26	211.79
1003.55	211.78
1003.84	211.85
1004.13	211.91
1004.42	211.91
1004.71	211.89
1004.99	211.85
1005.28	211.86
1005.57	211.88
1005.86	211.78
1006.15	211.69
1006.44	211.63
1006.72	211.61
1007.01	211.52
1007.30	211.49
1007.59	211.42
1007.88	211.45
1008.17	211.46
1008.45	211.30
1008.74	211.17
1009.03	210.95
1009.32	210.97
1009.60	210.90
1009.89	210.85
1010.18	210.64
1010.47	210.65
1010.76	210.57
1011.04	210.63
1011.33	210.60
1011.62	210.68
1011.91	210.74
1012.19	210.82
1012.48	210.78
1012.77	210.77
1013.05	210.96
1013.34	211.00
1013.63	211.00
1013.92	211.02
1014.20	211.04
1014.49	211.14
1014.78	211.13
1015.06	211.03
1015.35	211.03
1015.64	211.11
1015.92	211.17
1016.21	211.25
1016.50	211.20
1016.78	211.30
1017.07	211.26
1017.36	211.25
1017.64	211.10
1017.93	211.13
1018.22	211.09
1018.50	211.16
1018.79	211.13
1019.08	210.93
1019.36	210.90
1019.65	210.81
1019.93	210.86
1020.22	210.90
1020.51	211.05
1020.79	211.03
1021.08	210.80
1021.36	210.70
1021.65	210.55
1021.94	210.15
1022.22	210.75
1022.51	209.65
1022.79	212.10
1023.08	211.20
1023.36	215.20
1023.65	210.20
>>>>>End Processed Spectral Data<<<<<
