SpectraSuite Data File
++++++++++++++++++++++++++++++++++++
Date: Mon Feb 25 17:02:16 EST 2013
User: group
Dark Spectrum Present: No
Reference Spectrum Present: No
Number of Sampled Component Spectra: 1
Spectrometers: USB2E7196
Integration Time (usec): 104000 (USB2E7196)
Spectra Averaged: 20 (USB2E7196)
Boxcar Smoothing: 10 (USB2E7196)
Correct for Electrical Dark: No (USB2E7196)
Strobe/Lamp Enabled: No (USB2E7196)
Correct for Detector Non-linearity: No (USB2E7196)
Correct for Stray Light: No (USB2E7196)
Number of Pixels in Processed Spectrum: 2048
>>>>>Begin Processed Spectral Data<<<<<
339.09	0.00
339.48	198.45
339.86	200.10
340.24	201.45
340.63	204.55
341.01	209.05
341.39	205.75
341.78	206.65
342.16	209.35
342.54	209.90
342.93	198.49
343.31	208.48
343.69	209.00
344.07	209.45
344.46	209.88
344.84	210.15
345.22	210.15
345.60	210.44
345.99	210.65
346.37	210.70
346.75	210.74
347.13	210.77
347.52	210.80
347.90	210.99
348.28	211.03
348.66	211.19
349.05	211.09
349.43	211.11
349.81	211.10
350.19	211.09
350.57	211.11
350.96	211.16
351.34	211.26
351.72	211.36
352.10	211.44
352.48	211.45
352.87	211.56
353.25	211.68
353.63	211.67
354.01	211.68
354.39	211.82
354.77	211.88
355.15	212.02
355.54	212.06
355.92	211.95
356.30	211.99
356.68	212.26
357.06	212.30
357.44	212.33
357.82	212.43
358.20	212.59
358.58	212.65
358.97	212.67
359.35	212.77
359.73	212.87
360.11	212.94
360.49	213.00
360.87	213.06
361.25	213.23
361.63	213.44
362.01	213.57
362.39	213.56
362.77	213.65
363.15	213.67
363.53	213.59
363.91	213.61
364.29	213.60
364.67	213.37
365.05	213.40
365.43	213.40
365.81	213.51
366.19	213.59
366.57	213.72
366.95	213.68
367.33	213.64
367.71	213.67
368.09	213.70
368.47	213.67
368.85	213.62
369.23	213.63
369.61	213.45
369.99	213.51
370.37	213.51
370.75	213.65
371.13	213.52
371.51	213.56
371.89	213.54
372.27	213.55
372.65	213.44
373.03	213.44
373.41	213.40
373.78	213.29
374.16	213.07
374.54	212.87
374.92	212.85
375.30	212.74
375.68	212.60
376.06	212.65
376.44	212.68
376.82	212.68
377.19	212.54
377.57	212.52
377.95	212.35
378.33	212.16
378.71	211.95
379.09	212.00
379.47	211.95
379.84	211.87
380.22	211.75
380.60	211.65
380.98	211.63
381.36	211.54
381.73	211.45
382.11	211.51
382.49	211.46
382.87	211.35
383.25	211.27
383.62	211.66
384.00	211.50
384.38	211.39
384.76	211.37
385.13	211.44
385.51	211.36
385.89	211.27
386.27	211.36
386.64	211.31
387.02	211.21
387.40	211.06
387.78	211.10
388.15	211.11
388.53	211.08
388.91	211.00
389.29	210.90
389.66	210.92
390.04	210.88
390.42	211.04
390.79	211.07
391.17	211.12
391.55	210.71
391.92	210.65
392.30	210.74
392.68	210.65
393.05	210.65
393.43	210.71
393.81	210.76
394.18	210.71
394.56	210.72
394.94	210.78
395.31	210.90
395.69	210.94
396.06	210.95
396.44	211.07
396.82	211.10
397.19	211.34
397.57	211.31
397.95	211.27
398.32	211.10
398.70	211.13
399.07	211.25
399.45	211.20
399.82	211.19
400.20	211.16
400.58	211.19
400.95	211.06
401.33	211.04
401.70	211.30
402.08	211.32
402.45	211.39
402.83	211.54
403.20	211.59
403.58	211.70
403.95	211.86
404.33	211.91
404.71	212.00
405.08	212.24
405.46	212.38
405.83	212.62
406.21	212.80
406.58	212.98
406.96	213.09
407.33	213.35
407.70	213.73
408.08	214.30
408.45	214.62
408.83	214.95
409.20	215.35
409.58	215.46
409.95	215.89
410.33	216.23
410.70	216.44
411.08	216.97
411.45	217.45
411.82	217.85
412.20	218.50
412.57	219.30
412.95	219.64
413.32	220.34
413.69	220.95
414.07	221.70
414.44	222.47
414.82	223.34
415.19	224.33
415.56	225.16
415.94	225.95
416.31	227.07
416.68	228.21
417.06	229.46
417.43	230.85
417.81	232.29
418.18	233.75
418.55	235.38
418.93	236.97
419.30	238.58
419.67	240.40
420.04	242.16
420.42	244.00
420.79	246.52
421.16	248.78
421.54	251.24
421.91	253.73
422.28	256.35
422.66	259.08
423.03	261.97
423.40	264.82
423.77	267.82
424.15	270.89
424.52	274.11
424.89	277.55
425.26	280.82
425.64	284.10
426.01	287.75
426.38	291.54
426.75	295.42
427.13	299.42
427.50	303.65
427.87	308.10
428.24	312.38
428.61	316.42
428.99	321.08
429.36	326.04
429.73	330.95
430.10	335.83
430.47	340.75
430.85	345.80
431.22	351.34
431.59	357.32
431.96	362.92
432.33	369.21
432.70	375.32
433.08	382.42
433.45	389.00
433.82	395.69
434.19	403.19
434.56	410.56
434.93	417.62
435.30	424.66
435.68	432.46
436.05	440.28
436.42	448.06
436.79	455.13
437.16	462.75
437.53	470.73
437.90	478.80
438.27	486.89
438.64	495.11
439.01	502.93
439.38	509.73
439.75	516.61
440.13	524.15
440.50	531.38
440.87	537.41
441.24	543.76
441.61	550.70
441.98	555.83
442.35	561.77
442.72	567.85
443.09	573.82
443.46	577.62
443.83	580.29
444.20	582.60
444.57	586.05
444.94	587.90
445.31	590.02
445.68	592.00
446.05	593.11
446.42	592.90
446.79	592.55
447.16	592.13
447.53	591.95
447.90	589.59
448.27	587.17
448.64	583.49
449.01	581.01
449.37	576.18
449.74	571.58
450.11	566.16
450.48	559.91
450.85	553.44
451.22	547.89
451.59	542.75
451.96	537.84
452.33	531.03
452.70	524.94
453.07	517.39
453.43	509.68
453.80	502.45
454.17	495.55
454.54	488.85
454.91	481.67
455.28	474.62
455.65	468.12
456.02	461.90
456.38	456.51
456.75	449.60
457.12	443.90
457.49	438.14
457.86	432.34
458.23	427.69
458.59	422.44
458.96	417.27
459.33	412.59
459.70	407.85
460.07	403.96
460.43	399.62
460.80	395.68
461.17	392.20
461.54	388.35
461.91	384.74
462.27	381.14
462.64	378.05
463.01	374.70
463.38	371.54
463.74	367.92
464.11	364.93
464.48	362.40
464.85	359.51
465.21	357.51
465.58	355.34
465.95	352.45
466.32	350.21
466.68	347.79
467.05	345.54
467.42	343.28
467.78	340.83
468.15	338.61
468.52	336.95
468.88	334.73
469.25	332.82
469.62	331.26
469.98	329.62
470.35	328.03
470.72	326.43
471.08	324.70
471.45	323.36
471.82	321.97
472.18	320.36
472.55	319.24
472.92	317.78
473.28	316.54
473.65	315.45
474.02	314.22
474.38	313.31
474.75	312.42
475.11	311.50
475.48	310.95
475.85	310.30
476.21	309.60
476.58	309.07
476.94	308.62
477.31	308.07
477.67	307.50
478.04	307.16
478.41	306.83
478.77	306.86
479.14	306.42
479.50	306.22
479.87	306.22
480.23	306.06
480.60	305.87
480.96	305.71
481.33	305.97
481.69	306.10
482.06	306.14
482.42	306.18
482.79	306.24
483.15	306.35
483.52	306.66
483.88	306.84
484.25	306.96
484.61	307.25
484.98	307.58
485.34	308.14
485.71	308.55
486.07	309.05
486.44	309.21
486.80	309.90
487.17	310.45
487.53	311.13
487.90	311.95
488.26	312.95
488.62	313.92
488.99	314.62
489.35	315.53
489.72	316.56
490.08	317.56
490.44	318.65
490.81	319.76
491.17	320.83
491.54	321.99
491.90	323.28
492.26	324.58
492.63	325.84
492.99	327.06
493.36	328.46
493.72	329.97
494.08	331.57
494.45	333.20
494.81	334.95
495.17	336.57
495.54	338.29
495.90	339.93
496.26	341.68
496.63	343.45
496.99	345.24
497.35	346.98
497.72	348.94
498.08	350.84
498.44	352.83
498.80	354.78
499.17	356.75
499.53	358.73
499.89	360.80
500.26	362.72
500.62	364.64
500.98	366.73
501.34	368.63
501.71	370.46
502.07	372.25
502.43	374.09
502.79	375.85
503.16	377.56
503.52	379.27
503.88	380.74
504.24	382.30
504.60	383.84
504.97	385.56
505.33	386.99
505.69	388.75
506.05	390.10
506.41	391.41
506.78	392.73
507.14	393.89
507.50	394.97
507.86	396.24
508.22	397.34
508.59	398.22
508.95	399.28
509.31	400.45
509.67	401.41
510.03	402.20
510.39	403.00
510.75	403.85
511.12	404.56
511.48	405.35
511.84	406.09
512.20	406.80
512.56	407.30
512.92	407.94
513.28	408.27
513.64	408.70
514.00	409.11
514.37	409.40
514.73	409.75
515.09	410.03
515.45	410.13
515.81	410.38
516.17	410.47
516.53	410.40
516.89	410.19
517.25	410.15
517.61	410.21
517.97	410.11
518.33	409.91
518.69	409.84
519.05	409.64
519.41	409.53
519.77	409.54
520.13	409.27
520.49	408.95
520.85	408.58
521.21	408.40
521.57	408.19
521.93	407.89
522.29	407.78
522.65	407.60
523.01	407.52
523.37	407.22
523.73	407.16
524.09	407.15
524.45	407.07
524.81	406.96
525.17	406.88
525.53	407.09
525.89	407.08
526.25	407.13
526.61	407.23
526.97	407.30
527.33	407.40
527.68	408.02
528.04	408.48
528.40	408.92
528.76	409.38
529.12	409.82
529.48	410.49
529.84	411.00
530.20	411.64
530.56	412.36
530.91	413.33
531.27	414.13
531.63	414.95
531.99	415.91
532.35	417.04
532.71	418.02
533.07	418.97
533.42	420.65
533.78	421.77
534.14	423.15
534.50	424.37
534.86	425.86
535.21	426.98
535.57	428.26
535.93	429.73
536.29	431.34
536.65	433.05
537.00	434.55
537.36	436.16
537.72	437.92
538.08	439.71
538.44	441.38
538.79	443.27
539.15	445.18
539.51	447.18
539.87	449.14
540.22	451.34
540.58	453.66
540.94	455.49
541.29	457.70
541.65	459.74
542.01	462.11
542.37	464.31
542.72	466.59
543.08	469.00
543.44	471.52
543.79	473.84
544.15	476.31
544.51	479.28
544.87	482.08
545.22	484.78
545.58	487.41
545.94	490.04
546.29	492.72
546.65	495.32
547.01	497.99
547.36	500.79
547.72	503.35
548.07	505.85
548.43	508.35
548.79	511.08
549.14	513.75
549.50	516.54
549.86	519.15
550.21	521.87
550.57	524.67
550.92	527.30
551.28	530.05
551.64	532.57
551.99	535.02
552.35	537.45
552.70	539.90
553.06	542.44
553.41	545.20
553.77	547.98
554.13	550.74
554.48	553.47
554.84	556.14
555.19	558.79
555.55	561.73
555.90	564.33
556.26	566.77
556.61	569.38
556.97	571.68
557.32	574.15
557.68	576.53
558.03	578.92
558.39	581.24
558.74	583.62
559.10	586.13
559.45	588.47
559.81	591.05
560.16	593.47
560.52	595.80
560.87	598.11
561.23	600.22
561.58	602.64
561.94	604.73
562.29	606.60
562.64	608.94
563.00	610.66
563.35	612.99
563.71	615.38
564.06	617.59
564.42	619.94
564.77	622.16
565.12	624.46
565.48	626.91
565.83	629.22
566.19	631.30
566.54	633.28
566.89	635.26
567.25	637.41
567.60	639.55
567.96	641.86
568.31	643.86
568.66	645.57
569.02	647.05
569.37	648.53
569.72	650.30
570.08	651.72
570.43	653.39
570.78	654.67
571.14	655.84
571.49	656.99
571.84	658.13
572.20	659.18
572.55	660.33
572.90	660.85
573.26	661.43
573.61	662.22
573.96	662.90
574.31	663.57
574.67	663.80
575.02	663.81
575.37	663.83
575.72	663.77
576.08	664.25
576.43	664.37
576.78	664.75
577.13	664.93
577.49	665.24
577.84	665.38
578.19	665.65
578.54	666.05
578.90	666.46
579.25	666.60
579.60	666.62
579.95	666.50
580.30	666.67
580.66	666.90
581.01	666.81
581.36	666.57
581.71	666.48
582.06	666.63
582.42	666.74
582.77	666.57
583.12	666.66
583.47	666.57
583.82	666.69
584.17	666.53
584.53	666.56
584.88	666.31
585.23	666.24
585.58	666.07
585.93	665.57
586.28	665.37
586.63	665.07
586.98	664.96
587.34	664.77
587.69	664.35
588.04	663.93
588.39	663.57
588.74	663.24
589.09	663.02
589.44	662.37
589.79	662.08
590.14	661.69
590.49	661.18
590.84	660.43
591.19	659.92
591.54	659.41
591.89	658.46
592.25	658.01
592.60	656.96
592.95	656.00
593.30	655.16
593.65	653.96
594.00	652.75
594.35	652.55
594.70	651.57
595.05	650.64
595.40	649.80
595.75	648.74
596.10	647.88
596.45	646.69
596.80	645.92
597.15	644.96
597.50	643.82
597.85	642.87
598.19	641.89
598.54	640.78
598.89	639.85
599.24	639.11
599.59	637.83
599.94	637.09
600.29	635.99
600.64	634.95
600.99	634.07
601.34	633.32
601.69	631.51
602.04	630.18
602.39	629.20
602.74	628.06
603.08	627.28
603.43	626.54
603.78	625.43
604.13	624.20
604.48	623.01
604.83	622.35
605.18	621.53
605.53	620.62
605.87	619.55
606.22	618.58
606.57	617.31
606.92	616.05
607.27	614.77
607.62	613.68
607.96	612.71
608.31	611.57
608.66	610.36
609.01	609.04
609.36	607.95
609.70	606.65
610.05	605.21
610.40	603.75
610.75	602.08
611.10	601.01
611.44	599.49
611.79	598.07
612.14	596.39
612.49	594.34
612.83	592.71
613.18	591.03
613.53	589.28
613.88	587.57
614.22	586.03
614.57	584.35
614.92	582.83
615.27	581.16
615.61	579.36
615.96	577.71
616.31	576.06
616.65	574.61
617.00	572.77
617.35	571.06
617.70	569.45
618.04	567.76
618.39	565.84
618.74	564.23
619.08	562.52
619.43	560.82
619.78	559.38
620.12	557.60
620.47	556.01
620.82	554.05
621.16	552.25
621.51	550.50
621.85	548.68
622.20	546.85
622.55	545.01
622.89	543.18
623.24	541.44
623.59	539.62
623.93	537.77
624.28	536.19
624.62	534.93
624.97	533.30
625.32	531.61
625.66	529.84
626.01	528.08
626.35	526.40
626.70	524.53
627.04	522.97
627.39	521.33
627.73	519.76
628.08	518.21
628.43	516.55
628.77	514.92
629.12	513.26
629.46	511.51
629.81	509.88
630.15	508.15
630.50	506.35
630.84	504.60
631.19	502.81
631.53	501.02
631.88	498.82
632.22	496.75
632.57	495.19
632.91	493.62
633.26	491.94
633.60	490.19
633.95	488.62
634.29	486.74
634.64	485.20
634.98	483.28
635.32	481.83
635.67	480.38
636.01	478.61
636.36	476.99
636.70	475.70
637.05	474.10
637.39	472.78
637.73	471.28
638.08	469.98
638.42	468.62
638.77	467.24
639.11	465.79
639.45	464.28
639.80	462.57
640.14	460.73
640.49	459.12
640.83	457.34
641.17	455.75
641.52	454.13
641.86	452.34
642.20	450.97
642.55	449.02
642.89	447.15
643.23	445.71
643.58	444.26
643.92	442.34
644.26	440.63
644.61	438.94
644.95	437.33
645.29	435.61
645.64	433.93
645.98	432.18
646.32	430.55
646.66	428.98
647.01	427.36
647.35	425.90
647.69	424.31
648.04	422.86
648.38	421.27
648.72	419.76
649.06	418.18
649.41	416.33
649.75	414.76
650.09	413.33
650.43	411.61
650.78	409.81
651.12	408.20
651.46	406.64
651.80	405.04
652.14	403.56
652.49	402.14
652.83	400.46
653.17	398.75
653.51	397.21
653.85	395.79
654.20	394.26
654.54	392.69
654.88	391.06
655.22	389.67
655.56	388.04
655.90	386.43
656.25	384.84
656.59	383.45
656.93	382.16
657.27	380.81
657.61	379.28
657.95	377.95
658.29	376.47
658.64	375.16
658.98	373.76
659.32	372.19
659.66	370.60
660.00	369.28
660.34	367.86
660.68	366.42
661.02	364.88
661.36	363.54
661.70	362.26
662.05	360.96
662.39	359.63
662.73	358.60
663.07	357.48
663.41	356.30
663.75	354.93
664.09	353.44
664.43	352.01
664.77	350.82
665.11	349.49
665.45	348.35
665.79	347.07
666.13	345.71
666.47	344.51
666.81	343.31
667.15	341.98
667.49	340.95
667.83	339.99
668.17	338.85
668.51	337.75
668.85	336.65
669.19	335.67
669.53	334.37
669.87	333.03
670.21	331.79
670.55	330.66
670.89	329.92
671.23	329.01
671.57	328.04
671.91	327.02
672.25	326.02
672.58	325.07
672.92	323.95
673.26	323.05
673.60	322.10
673.94	321.14
674.28	320.16
674.62	319.22
674.96	318.17
675.30	317.27
675.64	316.30
675.97	315.28
676.31	314.30
676.65	313.43
676.99	312.76
677.33	311.87
677.67	311.04
678.01	309.95
678.34	309.10
678.68	308.27
679.02	307.38
679.36	306.56
679.70	305.60
680.04	304.78
680.37	303.91
680.71	303.13
681.05	302.27
681.39	301.49
681.73	300.69
682.06	299.89
682.40	299.11
682.74	298.28
683.08	297.60
683.42	296.73
683.75	295.92
684.09	294.98
684.43	294.20
684.77	293.31
685.10	292.51
685.44	291.60
685.78	290.71
686.12	289.96
686.45	289.13
686.79	288.27
687.13	287.66
687.46	286.91
687.80	286.11
688.14	285.31
688.48	284.75
688.81	283.96
689.15	283.17
689.49	282.42
689.82	281.77
690.16	280.91
690.50	280.12
690.83	279.41
691.17	278.64
691.51	277.87
691.84	277.26
692.18	276.57
692.52	276.04
692.85	275.49
693.19	274.94
693.52	274.34
693.86	273.75
694.20	273.03
694.53	272.32
694.87	271.60
695.21	271.02
695.54	270.30
695.88	269.59
696.21	269.01
696.55	268.40
696.88	267.72
697.22	267.12
697.56	266.71
697.89	266.18
698.23	265.62
698.56	265.01
698.90	264.49
699.23	263.91
699.57	263.34
699.90	262.71
700.24	262.08
700.58	261.50
700.91	261.09
701.25	260.85
701.58	260.43
701.92	260.07
702.25	259.59
702.59	259.07
702.92	258.70
703.26	258.19
703.59	257.67
703.93	257.50
704.26	257.06
704.60	256.60
704.93	256.06
705.26	255.58
705.60	255.23
705.93	254.67
706.27	254.22
706.60	253.84
706.94	253.54
707.27	253.05
707.61	252.65
707.94	252.15
708.27	251.50
708.61	251.04
708.94	250.57
709.28	250.12
709.61	249.59
709.94	249.14
710.28	248.84
710.61	248.60
710.95	247.89
711.28	247.78
711.61	247.32
711.95	247.07
712.28	246.64
712.61	246.24
712.95	246.15
713.28	245.96
713.61	245.57
713.95	245.04
714.28	244.81
714.61	244.44
714.95	244.05
715.28	243.62
715.61	243.27
715.95	242.91
716.28	242.61
716.61	242.43
716.95	242.11
717.28	241.73
717.61	241.35
717.94	241.01
718.28	240.38
718.61	240.05
718.94	239.68
719.27	239.43
719.61	239.26
719.94	238.79
720.27	238.37
720.60	238.08
720.94	237.88
721.27	237.58
721.60	237.44
721.93	237.27
722.27	237.20
722.60	236.99
722.93	236.73
723.26	236.46
723.59	236.17
723.93	235.99
724.26	235.80
724.59	235.54
724.92	235.46
725.25	235.38
725.59	235.18
725.92	235.02
726.25	234.90
726.58	234.62
726.91	234.38
727.24	234.18
727.57	233.95
727.91	233.68
728.24	233.43
728.57	233.13
728.90	232.91
729.23	232.62
729.56	232.60
729.89	232.39
730.22	232.19
730.55	232.00
730.89	231.76
731.22	231.48
731.55	231.20
731.88	230.92
732.21	230.61
732.54	230.37
732.87	230.14
733.20	229.86
733.53	229.69
733.86	229.59
734.19	229.39
734.52	229.29
734.85	229.40
735.18	229.20
735.51	229.09
735.84	229.01
736.17	228.79
736.50	228.41
736.83	228.66
737.16	228.47
737.49	228.24
737.82	228.13
738.15	228.01
738.48	227.89
738.81	227.74
739.14	227.58
739.47	227.47
739.80	227.26
740.13	227.12
740.46	226.78
740.79	226.51
741.12	226.30
741.45	226.02
741.78	225.65
742.11	225.65
742.44	225.44
742.77	225.26
743.10	225.10
743.43	224.98
743.75	224.44
744.08	224.71
744.41	224.62
744.74	224.36
745.07	224.22
745.40	224.20
745.73	224.16
746.06	224.04
746.39	223.96
746.71	223.81
747.04	223.60
747.37	223.60
747.70	223.49
748.03	223.41
748.36	223.35
748.68	223.28
749.01	222.99
749.34	222.87
749.67	222.68
750.00	222.64
750.33	222.79
750.65	222.74
750.98	222.26
751.31	222.23
751.64	222.13
751.97	222.20
752.29	221.98
752.62	221.76
752.95	221.66
753.28	221.53
753.60	221.46
753.93	221.53
754.26	221.40
754.59	221.29
754.91	221.12
755.24	221.04
755.57	220.93
755.90	220.86
756.22	220.72
756.55	220.65
756.88	220.49
757.20	220.15
757.53	219.98
757.86	219.85
758.19	219.68
758.51	219.63
758.84	219.36
759.17	219.27
759.49	219.25
759.82	219.27
760.15	219.16
760.47	219.04
760.80	218.82
761.13	218.77
761.45	218.62
761.78	218.58
762.11	218.52
762.43	218.35
762.76	218.30
763.08	218.27
763.41	218.24
763.74	218.17
764.06	218.10
764.39	217.92
764.71	217.85
765.04	217.81
765.37	217.70
765.69	217.61
766.02	217.58
766.34	217.47
766.67	217.36
767.00	217.32
767.32	217.44
767.65	217.56
767.97	217.55
768.30	217.52
768.62	217.51
768.95	217.36
769.27	217.27
769.60	217.19
769.92	217.10
770.25	216.92
770.57	216.83
770.90	216.73
771.22	216.77
771.55	216.77
771.87	216.75
772.20	216.71
772.52	216.94
772.85	217.28
773.17	217.22
773.50	217.10
773.82	217.10
774.15	216.89
774.47	216.64
774.80	216.52
775.12	216.46
775.45	216.40
775.77	216.40
776.09	216.43
776.42	216.39
776.74	216.47
777.07	216.41
777.39	216.33
777.72	216.30
778.04	216.29
778.36	216.20
778.69	216.14
779.01	216.18
779.33	215.84
779.66	215.44
779.98	215.36
780.31	215.31
780.63	215.38
780.95	215.45
781.28	215.46
781.60	215.41
781.92	215.44
782.25	215.44
782.57	215.36
782.89	215.31
783.22	215.27
783.54	215.13
783.86	215.12
784.19	215.11
784.51	215.17
784.83	215.12
785.16	215.05
785.48	214.98
785.80	214.87
786.12	214.81
786.45	214.81
786.77	214.78
787.09	214.74
787.42	214.52
787.74	214.43
788.06	214.34
788.38	214.33
788.71	214.21
789.03	214.17
789.35	214.25
789.67	214.16
789.99	214.15
790.32	214.05
790.64	214.06
790.96	214.33
791.28	214.16
791.61	214.05
791.93	214.06
792.25	214.00
792.57	214.22
792.89	214.18
793.21	214.14
793.54	214.11
793.86	214.05
794.18	214.05
794.50	214.04
794.82	214.12
795.14	214.10
795.47	214.15
795.79	214.15
796.11	214.05
796.43	214.03
796.75	214.03
797.07	214.09
797.39	214.02
797.71	213.75
798.04	213.73
798.36	213.76
798.68	213.72
799.00	213.76
799.32	213.56
799.64	213.63
799.96	213.60
800.28	213.62
800.60	213.62
800.92	213.61
801.24	213.55
801.56	213.51
801.89	213.44
802.21	213.46
802.53	213.32
802.85	213.36
803.17	213.50
803.49	213.36
803.81	213.35
804.13	213.40
804.45	213.31
804.77	213.30
805.09	213.29
805.41	213.20
805.73	213.13
806.05	213.09
806.37	213.03
806.69	212.93
807.01	212.92
807.33	212.95
807.65	212.83
807.97	212.93
808.28	212.87
808.60	212.84
808.92	212.77
809.24	213.03
809.56	212.91
809.88	212.77
810.20	212.84
810.52	212.89
810.84	212.82
811.16	212.85
811.48	212.84
811.80	212.89
812.12	212.92
812.43	213.01
812.75	213.00
813.07	212.91
813.39	212.95
813.71	212.92
814.03	212.90
814.35	212.90
814.67	212.79
814.98	212.72
815.30	212.77
815.62	212.77
815.94	212.51
816.26	212.55
816.58	212.52
816.89	212.50
817.21	212.41
817.53	212.42
817.85	212.37
818.17	212.31
818.48	212.20
818.80	212.33
819.12	212.24
819.44	212.14
819.76	212.20
820.07	212.15
820.39	212.09
820.71	212.05
821.03	212.05
821.34	212.00
821.66	212.07
821.98	212.05
822.30	211.92
822.61	212.13
822.93	212.11
823.25	212.09
823.57	212.11
823.88	212.08
824.20	212.08
824.52	212.17
824.83	212.21
825.15	212.13
825.47	212.04
825.79	212.00
826.10	211.98
826.42	211.89
826.74	211.93
827.05	211.88
827.37	211.89
827.69	211.83
828.00	211.77
828.32	211.78
828.64	211.71
828.95	211.93
829.27	211.80
829.58	211.79
829.90	211.93
830.22	211.92
830.53	211.91
830.85	211.87
831.17	211.77
831.48	211.68
831.80	211.73
832.11	211.72
832.43	211.70
832.75	211.65
833.06	211.93
833.38	211.85
833.69	211.90
834.01	211.90
834.32	211.91
834.64	211.96
834.96	211.95
835.27	211.97
835.59	211.82
835.90	211.80
836.22	211.72
836.53	211.65
836.85	211.59
837.16	211.98
837.48	212.01
837.79	212.05
838.11	212.12
838.42	212.19
838.74	212.21
839.05	212.20
839.37	212.17
839.68	211.85
840.00	211.90
840.31	211.91
840.63	211.88
840.94	211.88
841.26	211.87
841.57	211.84
841.88	211.86
842.20	211.82
842.51	211.79
842.83	211.84
843.14	212.09
843.46	212.17
843.77	211.84
844.08	211.82
844.40	211.76
844.71	211.67
845.03	211.61
845.34	211.54
845.65	211.53
845.97	211.58
846.28	211.67
846.60	211.66
846.91	211.64
847.22	211.68
847.54	211.74
847.85	211.76
848.16	211.73
848.48	211.70
848.79	211.83
849.10	211.89
849.42	211.87
849.73	211.48
850.04	211.38
850.36	211.27
850.67	211.32
850.98	211.32
851.30	211.40
851.61	211.29
851.92	211.28
852.23	211.38
852.55	211.40
852.86	211.46
853.17	211.43
853.49	211.46
853.80	211.50
854.11	211.55
854.42	211.57
854.74	211.47
855.05	211.50
855.36	211.34
855.67	211.21
855.99	211.24
856.30	211.68
856.61	211.72
856.92	211.78
857.23	211.78
857.55	211.83
857.86	211.83
858.17	211.91
858.48	211.82
858.79	211.76
859.11	211.84
859.42	211.76
859.73	211.72
860.04	211.70
860.35	211.54
860.66	211.46
860.98	211.50
861.29	211.64
861.60	211.62
861.91	211.70
862.22	211.67
862.53	211.60
862.84	211.24
863.16	211.33
863.47	211.21
863.78	211.14
864.09	211.11
864.40	211.11
864.71	211.18
865.02	211.22
865.33	211.17
865.64	211.09
865.95	211.01
866.27	211.15
866.58	211.09
866.89	211.17
867.20	211.17
867.51	211.03
867.82	210.96
868.13	210.98
868.44	210.87
868.75	210.99
869.06	211.03
869.37	211.01
869.68	210.87
869.99	211.02
870.30	211.02
870.61	211.03
870.92	210.98
871.23	210.94
871.54	211.02
871.85	211.10
872.16	211.08
872.47	211.10
872.78	210.96
873.09	211.10
873.40	211.09
873.71	211.07
874.02	211.11
874.33	211.09
874.64	211.03
874.95	211.13
875.26	211.03
875.56	211.03
875.87	211.00
876.18	210.99
876.49	211.31
876.80	211.24
877.11	211.22
877.42	211.25
877.73	211.21
878.04	211.19
878.35	211.18
878.66	211.22
878.96	211.26
879.27	211.32
879.58	211.21
879.89	211.24
880.20	211.35
880.51	211.31
880.82	211.27
881.12	211.32
881.43	211.22
881.74	211.18
882.05	211.09
882.36	211.10
882.67	211.15
882.97	210.74
883.28	210.74
883.59	210.70
883.90	210.73
884.21	210.86
884.51	210.85
884.82	210.84
885.13	210.81
885.44	210.82
885.74	210.74
886.05	210.74
886.36	210.67
886.67	210.50
886.98	210.69
887.28	210.79
887.59	210.81
887.90	210.88
888.20	210.92
888.51	211.03
888.82	210.95
889.13	210.95
889.43	211.27
889.74	211.30
890.05	211.25
890.35	211.20
890.66	211.09
890.97	211.02
891.28	211.03
891.58	211.06
891.89	211.06
892.20	211.05
892.50	210.99
892.81	211.00
893.12	211.03
893.42	210.82
893.73	210.85
894.04	210.80
894.34	210.76
894.65	210.72
894.95	210.65
895.26	210.72
895.57	210.87
895.87	210.52
896.18	210.57
896.48	210.62
896.79	210.63
897.10	210.67
897.40	210.70
897.71	210.66
898.01	210.66
898.32	210.73
898.63	210.74
898.93	210.83
899.24	210.83
899.54	210.82
899.85	210.84
900.15	210.80
900.46	210.78
900.76	210.81
901.07	210.82
901.38	210.79
901.68	210.83
901.99	210.65
902.29	210.68
902.60	210.63
902.90	210.65
903.21	210.65
903.51	210.60
903.82	210.67
904.12	210.73
904.43	210.71
904.73	210.68
905.03	210.69
905.34	210.98
905.64	210.95
905.95	210.88
906.25	210.88
906.56	210.85
906.86	210.92
907.17	210.85
907.47	210.88
907.77	210.90
908.08	210.85
908.38	210.90
908.69	210.92
908.99	210.90
909.30	210.92
909.60	210.92
909.90	210.92
910.21	210.86
910.51	210.78
910.81	210.76
911.12	210.78
911.42	210.77
911.73	210.49
912.03	210.52
912.33	210.62
912.64	210.64
912.94	210.60
913.24	210.51
913.55	210.52
913.85	210.46
914.15	210.55
914.46	210.63
914.76	210.61
915.06	210.60
915.37	210.65
915.67	210.60
915.97	210.57
916.27	210.54
916.58	210.57
916.88	210.56
917.18	210.53
917.49	210.73
917.79	210.76
918.09	210.70
918.39	210.84
918.70	210.88
919.00	210.89
919.30	211.07
919.60	211.19
919.91	211.15
920.21	211.23
920.51	211.16
920.81	211.00
921.12	211.03
921.42	211.05
921.72	211.05
922.02	210.99
922.32	211.10
922.63	211.10
922.93	211.23
923.23	211.23
923.53	211.26
923.83	211.00
924.13	210.99
924.44	211.02
924.74	211.06
925.04	211.14
925.34	211.11
925.64	210.91
925.94	210.80
926.24	211.01
926.55	210.96
926.85	211.03
927.15	211.08
927.45	211.11
927.75	211.05
928.05	211.05
928.35	211.08
928.65	211.11
928.95	211.16
929.26	211.03
929.56	211.14
929.86	211.15
930.16	211.12
930.46	211.13
930.76	211.12
931.06	210.92
931.36	210.84
931.66	210.97
931.96	211.05
932.26	211.16
932.56	210.99
932.86	211.05
933.16	211.07
933.46	211.10
933.76	211.02
934.06	211.23
934.36	211.30
934.66	211.29
934.96	211.23
935.26	211.23
935.56	211.29
935.86	211.19
936.16	211.20
936.46	211.22
936.76	211.19
937.06	211.18
937.36	211.16
937.66	211.20
937.96	211.11
938.26	211.06
938.56	210.93
938.86	210.98
939.16	210.97
939.46	210.95
939.76	210.95
940.06	210.95
940.35	210.80
940.65	210.65
940.95	210.68
941.25	210.64
941.55	210.54
941.85	210.52
942.15	210.55
942.45	210.56
942.75	210.54
943.04	210.55
943.34	210.59
943.64	210.60
943.94	210.53
944.24	210.63
944.54	210.61
944.84	210.65
945.13	210.62
945.43	210.64
945.73	210.62
946.03	210.61
946.33	210.60
946.62	210.53
946.92	210.54
947.22	210.57
947.52	210.59
947.82	210.70
948.11	210.65
948.41	210.63
948.71	210.60
949.01	210.66
949.31	210.68
949.60	210.65
949.90	210.85
950.20	210.79
950.50	210.71
950.79	210.75
951.09	210.79
951.39	210.67
951.69	210.59
951.98	210.58
952.28	210.61
952.58	210.60
952.87	210.67
953.17	210.77
953.47	210.73
953.76	210.77
954.06	210.71
954.36	210.74
954.66	210.77
954.95	210.81
955.25	210.82
955.55	210.79
955.84	210.80
956.14	210.76
956.44	210.78
956.73	210.77
957.03	210.77
957.32	210.77
957.62	210.85
957.92	210.95
958.21	210.98
958.51	211.39
958.81	211.46
959.10	211.53
959.40	211.63
959.69	211.64
959.99	211.57
960.29	211.50
960.58	211.49
960.88	211.52
961.17	211.56
961.47	211.62
961.76	211.62
962.06	211.66
962.36	211.54
962.65	211.56
962.95	211.51
963.24	211.46
963.54	211.52
963.83	211.59
964.13	211.57
964.42	211.49
964.72	211.21
965.01	211.20
965.31	211.14
965.60	210.98
965.90	211.15
966.19	211.15
966.49	211.19
966.78	211.15
967.08	211.15
967.37	211.12
967.67	210.95
967.96	210.99
968.26	210.93
968.55	211.05
968.85	211.06
969.14	211.08
969.43	211.08
969.73	210.98
970.02	210.92
970.32	210.95
970.61	210.92
970.91	210.77
971.20	210.70
971.49	210.62
971.79	210.66
972.08	210.55
972.38	210.59
972.67	210.62
972.96	210.67
973.26	210.64
973.55	210.71
973.85	210.82
974.14	210.86
974.43	210.87
974.73	210.82
975.02	210.79
975.31	210.75
975.61	210.76
975.90	210.81
976.19	210.80
976.49	210.88
976.78	210.92
977.07	210.96
977.37	210.99
977.66	211.01
977.95	211.00
978.24	210.98
978.54	211.03
978.83	211.02
979.12	211.01
979.42	211.03
979.71	211.00
980.00	210.93
980.29	210.92
980.59	210.89
980.88	210.98
981.17	210.94
981.46	211.01
981.76	211.09
982.05	211.20
982.34	211.14
982.63	211.13
982.93	211.16
983.22	211.16
983.51	211.23
983.80	211.35
984.09	211.41
984.39	211.32
984.68	211.25
984.97	211.37
985.26	211.37
985.55	211.37
985.85	211.32
986.14	211.41
986.43	211.48
986.72	211.49
987.01	211.38
987.30	211.42
987.59	211.40
987.89	211.38
988.18	211.21
988.47	211.24
988.76	211.14
989.05	211.15
989.34	211.18
989.63	211.28
989.92	211.16
990.22	211.07
990.51	211.09
990.80	211.18
991.09	211.15
991.38	211.15
991.67	211.13
991.96	211.09
992.25	211.09
992.54	211.02
992.83	211.02
993.12	210.91
993.41	210.94
993.70	211.09
993.99	211.10
994.28	211.17
994.58	211.25
994.87	211.16
995.16	211.14
995.45	211.10
995.74	210.91
996.03	210.95
996.32	211.10
996.61	211.14
996.90	211.03
997.19	210.99
997.48	211.00
997.77	210.95
998.06	210.99
998.34	210.91
998.63	210.90
998.92	210.90
999.21	210.96
999.50	211.06
999.79	210.86
1000.08	210.84
1000.37	210.83
1000.66	210.77
1000.95	210.92
1001.24	210.95
1001.53	210.97
1001.82	210.99
1002.11	210.85
1002.40	210.80
1002.68	210.95
1002.97	211.20
1003.26	211.13
1003.55	211.05
1003.84	211.11
1004.13	211.17
1004.42	211.11
1004.71	211.01
1004.99	210.94
1005.28	211.00
1005.57	210.94
1005.86	210.97
1006.15	211.05
1006.44	211.03
1006.72	211.08
1007.01	210.92
1007.30	210.91
1007.59	210.86
1007.88	210.81
1008.17	210.91
1008.45	210.83
1008.74	210.66
1009.03	210.49
1009.32	210.47
1009.60	210.50
1009.89	210.35
1010.18	210.18
1010.47	210.25
1010.76	210.27
1011.04	210.36
1011.33	210.43
1011.62	210.42
1011.91	210.40
1012.19	210.25
1012.48	210.19
1012.77	210.24
1013.05	210.41
1013.34	210.38
1013.63	210.38
1013.92	210.38
1014.20	210.37
1014.49	210.43
1014.78	210.46
1015.06	210.35
1015.35	210.40
1015.64	210.48
1015.92	210.57
1016.21	210.61
1016.50	210.64
1016.78	210.72
1017.07	210.69
1017.36	210.56
1017.64	210.51
1017.93	210.61
1018.22	210.63
1018.50	210.70
1018.79	210.62
1019.08	210.51
1019.36	210.57
1019.65	210.52
1019.93	210.65
1020.22	210.69
1020.51	210.80
1020.79	210.73
1021.08	210.00
1021.36	210.75
1021.65	210.45
1021.94	210.25
1022.22	211.55
1022.51	209.45
1022.79	211.85
1023.08	211.30
1023.36	213.90
1023.65	209.25
>>>>>End Processed Spectral Data<<<<<
