SpectraSuite Data File
++++++++++++++++++++++++++++++++++++
Date: Mon Feb 25 17:18:10 EST 2013
User: group
Dark Spectrum Present: No
Reference Spectrum Present: No
Number of Sampled Component Spectra: 1
Spectrometers: USB2E7196
Integration Time (usec): 104000 (USB2E7196)
Spectra Averaged: 20 (USB2E7196)
Boxcar Smoothing: 10 (USB2E7196)
Correct for Electrical Dark: No (USB2E7196)
Strobe/Lamp Enabled: No (USB2E7196)
Correct for Detector Non-linearity: No (USB2E7196)
Correct for Stray Light: No (USB2E7196)
Number of Pixels in Processed Spectrum: 2048
>>>>>Begin Processed Spectral Data<<<<<
339.09	0.00
339.48	197.50
339.86	200.05
340.24	201.30
340.63	201.80
341.01	210.00
341.39	205.50
341.78	206.90
342.16	210.00
342.54	208.30
342.93	198.11
343.31	208.15
343.69	208.70
344.07	209.14
344.46	209.61
344.84	210.13
345.22	210.21
345.60	210.50
345.99	210.72
346.37	210.81
346.75	210.98
347.13	211.07
347.52	211.20
347.90	211.39
348.28	211.49
348.66	211.64
349.05	211.52
349.43	211.65
349.81	211.74
350.19	211.86
350.57	211.94
350.96	212.06
351.34	212.20
351.72	212.35
352.10	212.48
352.48	212.59
352.87	212.59
353.25	212.69
353.63	212.69
354.01	212.69
354.39	212.73
354.77	212.77
355.15	212.87
355.54	213.00
355.92	212.90
356.30	212.95
356.68	213.27
357.06	213.36
357.44	213.37
357.82	213.42
358.20	213.54
358.58	213.62
358.97	213.74
359.35	213.80
359.73	213.94
360.11	213.98
360.49	214.02
360.87	214.11
361.25	214.15
361.63	214.40
362.01	214.54
362.39	214.59
362.77	214.71
363.15	214.77
363.53	214.74
363.91	214.82
364.29	214.83
364.67	214.48
365.05	214.51
365.43	214.64
365.81	214.65
366.19	214.78
366.57	214.88
366.95	214.83
367.33	214.82
367.71	214.83
368.09	215.01
368.47	215.00
368.85	215.00
369.23	215.05
369.61	214.87
369.99	214.95
370.37	215.00
370.75	215.07
371.13	214.93
371.51	214.87
371.89	214.85
372.27	214.86
372.65	214.80
373.03	214.81
373.41	214.70
373.78	214.67
374.16	214.53
374.54	214.39
374.92	214.27
375.30	214.24
375.68	214.04
376.06	214.01
376.44	213.95
376.82	213.90
377.19	213.75
377.57	213.77
377.95	213.57
378.33	213.47
378.71	213.34
379.09	213.40
379.47	213.32
379.84	213.33
380.22	213.26
380.60	213.22
380.98	213.14
381.36	213.14
381.73	213.05
382.11	213.03
382.49	213.01
382.87	213.03
383.25	213.00
383.62	213.41
384.00	213.24
384.38	213.22
384.76	213.27
385.13	213.39
385.51	213.32
385.89	213.23
386.27	213.14
386.64	213.10
387.02	213.09
387.40	213.06
387.78	212.99
388.15	212.99
388.53	212.91
388.91	212.92
389.29	212.85
389.66	212.86
390.04	212.78
390.42	212.78
390.79	212.76
391.17	212.63
391.55	212.28
391.92	212.24
392.30	212.25
392.68	212.07
393.05	212.05
393.43	212.05
393.81	212.16
394.18	212.18
394.56	212.19
394.94	212.25
395.31	212.25
395.69	212.32
396.06	212.32
396.44	212.39
396.82	212.36
397.19	212.51
397.57	212.50
397.95	212.60
398.32	212.51
398.70	212.54
399.07	212.63
399.45	212.71
399.82	212.75
400.20	212.76
400.58	212.92
400.95	212.88
401.33	212.96
401.70	213.21
402.08	213.30
402.45	213.34
402.83	213.41
403.20	213.54
403.58	213.55
403.95	213.70
404.33	213.85
404.71	213.98
405.08	214.31
405.46	214.45
405.83	214.57
406.21	214.72
406.58	214.88
406.96	215.11
407.33	215.22
407.70	215.51
408.08	216.01
408.45	216.28
408.83	216.57
409.20	216.79
409.58	216.86
409.95	217.20
410.33	217.57
410.70	217.84
411.08	218.30
411.45	218.80
411.82	219.21
412.20	219.70
412.57	220.32
412.95	220.53
413.32	221.24
413.69	221.91
414.07	222.64
414.44	223.36
414.82	224.08
415.19	225.01
415.56	225.88
415.94	226.57
416.31	227.61
416.68	228.65
417.06	229.87
417.43	231.05
417.81	232.39
418.18	233.74
418.55	235.19
418.93	236.65
419.30	238.24
419.67	239.83
420.04	241.48
420.42	243.20
420.79	245.45
421.16	247.41
421.54	249.69
421.91	251.98
422.28	254.28
422.66	256.71
423.03	259.20
423.40	261.62
423.77	264.29
424.15	266.80
424.52	269.57
424.89	272.56
425.26	275.48
425.64	278.24
426.01	281.22
426.38	284.36
426.75	287.69
427.13	290.95
427.50	294.55
427.87	298.26
428.24	301.90
428.61	305.30
428.99	309.25
429.36	313.24
429.73	317.31
430.10	321.40
430.47	325.50
430.85	329.65
431.22	334.15
431.59	339.25
431.96	343.90
432.33	349.02
432.70	353.97
433.08	359.72
433.45	365.14
433.82	370.66
434.19	376.58
434.56	382.51
434.93	388.15
435.30	393.69
435.68	399.75
436.05	405.95
436.42	411.96
436.79	417.58
437.16	423.48
437.53	429.70
437.90	435.91
438.27	442.15
438.64	448.40
439.01	454.41
439.38	459.33
439.75	464.44
440.13	470.18
440.50	475.63
440.87	480.11
441.24	484.68
441.61	489.79
441.98	493.65
442.35	497.73
442.72	502.18
443.09	506.52
443.46	509.08
443.83	510.72
444.20	512.14
444.57	514.12
444.94	515.12
445.31	516.17
445.68	517.30
446.05	517.57
446.42	517.13
446.79	516.17
447.16	515.29
447.53	514.56
447.90	512.04
448.27	509.58
448.64	506.21
449.01	503.77
449.37	499.49
449.74	495.34
450.11	490.77
450.48	485.30
450.85	479.79
451.22	475.28
451.59	470.90
451.96	466.69
452.33	461.05
452.70	455.91
453.07	449.69
453.43	443.35
453.80	437.54
454.17	431.73
454.54	426.59
454.91	420.83
455.28	415.37
455.65	410.30
456.02	405.47
456.38	401.07
456.75	395.68
457.12	391.01
457.49	386.51
457.86	381.92
458.23	378.34
458.59	374.26
458.96	369.98
459.33	366.22
459.70	362.60
460.07	359.75
460.43	356.52
460.80	353.57
461.17	350.88
461.54	347.96
461.91	345.22
462.27	342.30
462.64	339.98
463.01	337.45
463.38	335.04
463.74	332.14
464.11	329.92
464.48	328.00
464.85	325.94
465.21	324.48
465.58	322.86
465.95	320.77
466.32	319.12
466.68	317.54
467.05	315.90
467.42	314.27
467.78	312.50
468.15	310.93
468.52	309.78
468.88	308.20
469.25	306.87
469.62	305.88
469.98	304.74
470.35	303.68
470.72	302.55
471.08	301.34
471.45	300.54
471.82	299.79
472.18	298.84
472.55	298.20
472.92	297.34
473.28	296.67
473.65	296.06
474.02	295.37
474.38	294.94
474.75	294.61
475.11	294.17
475.48	293.99
475.85	293.68
476.21	293.42
476.58	293.40
476.94	293.50
477.31	293.52
477.67	293.52
478.04	293.63
478.41	293.86
478.77	294.46
479.14	294.66
479.50	294.96
479.87	295.37
480.23	295.94
480.60	296.35
480.96	296.78
481.33	297.50
481.69	298.32
482.06	299.06
482.42	299.89
482.79	300.79
483.15	301.74
483.52	303.03
483.88	304.20
484.25	305.41
484.61	306.66
484.98	307.94
485.34	309.63
485.71	311.36
486.07	313.05
486.44	314.54
486.80	316.45
487.17	318.40
487.53	320.68
487.90	323.00
488.26	325.60
488.62	328.32
488.99	330.96
489.35	333.74
489.72	336.73
490.08	339.89
490.44	343.10
490.81	346.64
491.17	350.11
491.54	353.93
491.90	357.97
492.26	362.23
492.63	366.65
492.99	371.19
493.36	375.98
493.72	381.23
494.08	386.54
494.45	392.34
494.81	398.42
495.17	404.46
495.54	410.83
495.90	417.33
496.26	424.30
496.63	431.45
496.99	439.04
497.35	446.89
497.72	455.03
498.08	463.43
498.44	472.14
498.80	481.60
499.17	491.21
499.53	501.09
499.89	511.46
500.26	521.93
500.62	532.80
500.98	544.29
501.34	556.05
501.71	568.30
502.07	580.67
502.43	593.35
502.79	606.44
503.16	620.19
503.52	634.32
503.88	648.73
504.24	663.74
504.60	678.99
504.97	694.88
505.33	710.88
505.69	728.08
506.05	745.40
506.41	762.64
506.78	780.35
507.14	798.42
507.50	817.04
507.86	836.37
508.22	855.90
508.59	875.53
508.95	895.84
509.31	916.46
509.67	937.46
510.03	959.03
510.39	981.32
510.75	1004.05
511.12	1026.85
511.48	1049.97
511.84	1073.57
512.20	1097.04
512.56	1121.13
512.92	1145.81
513.28	1170.42
513.64	1195.18
514.00	1220.39
514.37	1245.60
514.73	1271.42
515.09	1297.22
515.45	1323.14
515.81	1349.25
516.17	1375.67
516.53	1402.04
516.89	1428.83
517.25	1455.57
517.61	1482.45
517.97	1508.98
518.33	1535.20
518.69	1562.00
519.05	1588.98
519.41	1616.07
519.77	1643.93
520.13	1670.84
520.49	1697.56
520.85	1724.80
521.21	1752.13
521.57	1779.67
521.93	1806.56
522.29	1834.21
522.65	1861.65
523.01	1888.74
523.37	1915.21
523.73	1941.81
524.09	1968.76
524.45	1995.49
524.81	2022.43
525.17	2049.14
525.53	2076.13
525.89	2102.85
526.25	2129.00
526.61	2154.22
526.97	2179.35
527.33	2204.47
527.68	2229.81
528.04	2254.51
528.40	2278.33
528.76	2302.42
529.12	2326.88
529.48	2352.32
529.84	2376.26
530.20	2399.71
530.56	2422.95
530.91	2447.68
531.27	2471.96
531.63	2495.11
531.99	2517.74
532.35	2539.40
532.71	2560.75
533.07	2582.74
533.42	2603.54
533.78	2625.20
534.14	2646.55
534.50	2666.44
534.86	2686.98
535.21	2706.33
535.57	2727.13
535.93	2746.31
536.29	2765.09
536.65	2783.46
537.00	2800.51
537.36	2817.44
537.72	2833.93
538.08	2850.83
538.44	2866.55
538.79	2882.37
539.15	2897.85
539.51	2913.58
539.87	2930.14
540.22	2945.74
540.58	2961.23
540.94	2976.60
541.29	2989.23
541.65	3001.98
542.01	3015.66
542.37	3027.76
542.72	3040.64
543.08	3051.50
543.44	3064.03
543.79	3074.82
544.15	3084.88
544.51	3096.02
544.87	3106.83
545.22	3116.68
545.58	3125.50
545.94	3133.46
546.29	3140.45
546.65	3147.28
547.01	3153.54
547.36	3159.31
547.72	3165.28
548.07	3169.42
548.43	3173.66
548.79	3178.68
549.14	3183.31
549.50	3187.45
549.86	3190.74
550.21	3193.76
550.57	3197.40
550.92	3198.74
551.28	3200.77
551.64	3203.01
551.99	3204.70
552.35	3205.38
552.70	3206.83
553.06	3208.10
553.41	3209.46
553.77	3210.39
554.13	3211.01
554.48	3211.66
554.84	3212.24
555.19	3211.37
555.55	3210.08
555.90	3208.43
556.26	3206.73
556.61	3204.76
556.97	3202.35
557.32	3200.82
557.68	3197.50
558.03	3194.57
558.39	3192.40
558.74	3190.90
559.10	3188.59
559.45	3185.56
559.81	3182.98
560.16	3179.10
560.52	3176.03
560.87	3172.11
561.23	3167.68
561.58	3164.20
561.94	3159.42
562.29	3153.81
562.64	3149.73
563.00	3145.93
563.35	3142.53
563.71	3139.49
564.06	3135.68
564.42	3132.30
564.77	3128.43
565.12	3125.13
565.48	3120.85
565.83	3116.89
566.19	3112.68
566.54	3106.63
566.89	3101.01
567.25	3096.14
567.60	3091.32
567.96	3085.58
568.31	3080.22
568.66	3074.46
569.02	3067.89
569.37	3061.22
569.72	3055.27
570.08	3048.33
570.43	3041.30
570.78	3033.57
571.14	3025.15
571.49	3017.29
571.84	3009.66
572.20	3000.59
572.55	2992.60
572.90	2983.68
573.26	2974.19
573.61	2964.24
573.96	2955.60
574.31	2945.68
574.67	2934.72
575.02	2924.01
575.37	2913.98
575.72	2903.16
576.08	2893.86
576.43	2882.81
576.78	2873.37
577.13	2863.81
577.49	2854.23
577.84	2844.47
578.19	2835.28
578.54	2826.78
578.90	2817.94
579.25	2807.40
579.60	2796.85
579.95	2785.82
580.30	2776.27
580.66	2767.17
581.01	2756.88
581.36	2746.19
581.71	2736.02
582.06	2726.30
582.42	2716.76
582.77	2705.81
583.12	2695.64
583.47	2685.99
583.82	2677.30
584.17	2667.30
584.53	2657.04
584.88	2646.83
585.23	2636.50
585.58	2626.18
585.93	2615.12
586.28	2604.96
586.63	2594.73
586.98	2585.48
587.34	2576.87
587.69	2566.64
588.04	2556.48
588.39	2547.08
588.74	2536.56
589.09	2527.72
589.44	2517.79
589.79	2508.44
590.14	2499.71
590.49	2490.57
590.84	2480.53
591.19	2471.88
591.54	2461.87
591.89	2451.08
592.25	2441.30
592.60	2430.89
592.95	2420.20
593.30	2409.18
593.65	2398.13
594.00	2388.45
594.35	2379.55
594.70	2368.75
595.05	2359.11
595.40	2348.97
595.75	2338.19
596.10	2329.48
596.45	2319.61
596.80	2310.77
597.15	2301.67
597.50	2291.70
597.85	2282.15
598.19	2272.13
598.54	2262.16
598.89	2253.38
599.24	2245.72
599.59	2236.95
599.94	2229.19
600.29	2220.90
600.64	2212.73
600.99	2203.60
601.34	2194.85
601.69	2184.75
602.04	2175.55
602.39	2166.59
602.74	2157.89
603.08	2150.46
603.43	2142.47
603.78	2133.76
604.13	2125.13
604.48	2116.31
604.83	2109.22
605.18	2102.02
605.53	2093.59
605.87	2084.51
606.22	2076.10
606.57	2067.05
606.92	2057.89
607.27	2048.54
607.62	2039.45
607.96	2031.07
608.31	2023.58
608.66	2014.27
609.01	2005.52
609.36	1996.60
609.70	1986.98
610.05	1977.37
610.40	1967.74
610.75	1957.92
611.10	1948.90
611.44	1937.82
611.79	1927.63
612.14	1916.48
612.49	1905.11
612.83	1895.53
613.18	1885.08
613.53	1874.71
613.88	1863.55
614.22	1853.97
614.57	1843.51
614.92	1833.55
615.27	1822.98
615.61	1812.22
615.96	1802.73
616.31	1793.39
616.65	1784.65
617.00	1775.44
617.35	1766.09
617.70	1755.85
618.04	1745.40
618.39	1734.54
618.74	1725.45
619.08	1715.41
619.43	1705.96
619.78	1696.62
620.12	1686.93
620.47	1677.64
620.82	1667.38
621.16	1657.66
621.51	1647.32
621.85	1637.98
622.20	1628.02
622.55	1618.47
622.89	1608.72
623.24	1598.96
623.59	1588.70
623.93	1578.43
624.28	1568.81
624.62	1559.22
624.97	1549.78
625.32	1541.01
625.66	1532.17
626.01	1523.10
626.35	1514.49
626.70	1505.13
627.04	1496.61
627.39	1487.74
627.73	1478.88
628.08	1470.89
628.43	1462.15
628.77	1453.49
629.12	1444.39
629.46	1436.33
629.81	1427.80
630.15	1419.25
630.50	1410.54
630.84	1401.73
631.19	1393.16
631.53	1384.58
631.88	1375.44
632.22	1366.76
632.57	1358.15
632.91	1349.49
633.26	1341.05
633.60	1332.70
633.95	1324.80
634.29	1316.05
634.64	1307.87
634.98	1299.26
635.32	1290.78
635.67	1283.13
636.01	1275.21
636.36	1267.24
636.70	1259.33
637.05	1251.34
637.39	1243.95
637.73	1236.58
638.08	1229.71
638.42	1222.61
638.77	1215.25
639.11	1208.06
639.45	1200.69
639.80	1192.86
640.14	1185.21
640.49	1177.41
640.83	1169.58
641.17	1161.98
641.52	1154.29
641.86	1146.41
642.20	1138.98
642.55	1131.19
642.89	1123.35
643.23	1115.50
643.58	1108.38
643.92	1100.19
644.26	1092.73
644.61	1084.88
644.95	1077.09
645.29	1069.22
645.64	1060.98
645.98	1053.44
646.32	1046.13
646.66	1038.61
647.01	1031.39
647.35	1024.29
647.69	1016.91
648.04	1009.69
648.38	1002.19
648.72	995.00
649.06	987.58
649.41	980.54
649.75	973.36
650.09	966.29
650.43	959.18
650.78	951.64
651.12	944.55
651.46	937.46
651.80	930.65
652.14	923.83
652.49	916.80
652.83	910.16
653.17	902.68
653.51	895.65
653.85	888.60
654.20	881.69
654.54	874.68
654.88	868.12
655.22	861.20
655.56	854.19
655.90	847.37
656.25	840.87
656.59	834.08
656.93	827.65
657.27	821.38
657.61	814.82
657.95	808.49
658.29	802.39
658.64	796.37
658.98	789.94
659.32	783.27
659.66	777.17
660.00	770.84
660.34	764.73
660.68	758.60
661.02	752.59
661.36	746.95
661.70	741.19
662.05	735.41
662.39	730.14
662.73	724.83
663.07	719.60
663.41	714.28
663.75	708.91
664.09	703.43
664.43	697.80
664.77	692.66
665.11	687.40
665.45	682.34
665.79	677.14
666.13	672.17
666.47	667.34
666.81	662.39
667.15	657.46
667.49	653.02
667.83	648.36
668.17	643.99
668.51	639.40
668.85	635.02
669.19	630.74
669.53	626.04
669.87	621.49
670.21	616.90
670.55	612.31
670.89	608.43
671.23	604.50
671.57	600.48
671.91	596.19
672.25	592.15
672.58	587.98
672.92	584.00
673.26	580.04
673.60	576.25
673.94	572.25
674.28	568.53
674.62	564.84
674.96	561.12
675.30	557.45
675.64	553.62
675.97	549.85
676.31	546.25
676.65	542.73
676.99	539.43
677.33	535.93
677.67	532.45
678.01	528.70
678.34	525.09
678.68	521.69
679.02	518.36
679.36	515.08
679.70	511.83
680.04	508.36
680.37	505.00
680.71	501.69
681.05	498.75
681.39	495.58
681.73	492.46
682.06	489.55
682.40	486.55
682.74	483.61
683.08	480.66
683.42	477.40
683.75	474.45
684.09	471.35
684.43	468.43
684.77	465.47
685.10	462.55
685.44	459.58
685.78	456.68
686.12	454.20
686.45	451.40
686.79	448.64
687.13	446.14
687.46	443.59
687.80	441.03
688.14	438.21
688.48	435.60
688.81	432.73
689.15	429.96
689.49	427.20
689.82	424.60
690.16	421.74
690.50	419.05
690.83	416.53
691.17	413.94
691.51	411.45
691.84	409.18
692.18	406.83
692.52	404.57
692.85	402.45
693.19	400.16
693.52	397.91
693.86	395.55
694.20	393.23
694.53	391.03
694.87	388.66
695.21	386.48
695.54	384.27
695.88	382.10
696.21	380.00
696.55	378.05
696.88	375.95
697.22	374.09
697.56	372.36
697.89	370.28
698.23	368.44
698.56	366.53
698.90	364.68
699.23	362.79
699.57	360.88
699.90	359.00
700.24	357.14
700.58	355.27
700.91	353.63
701.25	352.15
701.58	350.50
701.92	348.85
702.25	347.14
702.59	345.52
702.92	344.03
703.26	342.42
703.59	340.82
703.93	339.59
704.26	338.00
704.60	336.48
704.93	334.99
705.26	333.43
705.60	331.98
705.93	330.39
706.27	328.92
706.60	327.72
706.94	326.43
707.27	324.81
707.61	323.50
707.94	322.12
708.27	320.51
708.61	319.02
708.94	317.66
709.28	316.35
709.61	315.06
709.94	313.81
710.28	312.53
710.61	311.25
710.95	309.72
711.28	308.84
711.61	307.61
711.95	306.57
712.28	305.33
712.61	304.21
712.95	303.22
713.28	302.37
713.61	301.14
713.95	299.98
714.28	299.01
714.61	297.86
714.95	296.82
715.28	295.82
715.61	294.78
715.95	293.83
716.28	292.76
716.61	291.86
716.95	290.77
717.28	289.85
717.61	289.02
717.94	288.08
718.28	286.86
718.61	285.92
718.94	285.00
719.27	284.24
719.61	283.32
719.94	282.40
720.27	281.31
720.60	280.41
720.94	279.50
721.27	278.80
721.60	278.14
721.93	277.35
722.27	276.60
722.60	275.95
722.93	275.17
723.26	274.55
723.59	273.78
723.93	273.14
724.26	272.47
724.59	271.68
724.92	270.99
725.25	270.42
725.59	269.77
725.92	269.09
726.25	268.35
726.58	267.81
726.91	267.22
727.24	266.66
727.57	266.10
727.91	265.48
728.24	264.85
728.57	264.21
728.90	263.61
729.23	262.95
729.56	262.46
729.89	261.85
730.22	261.29
730.55	260.72
730.89	260.18
731.22	259.60
731.55	258.98
731.88	258.48
732.21	257.93
732.54	257.43
732.87	256.91
733.20	256.46
733.53	255.89
733.86	255.38
734.19	254.84
734.52	254.49
734.85	254.22
735.18	253.73
735.51	253.35
735.84	252.90
736.17	252.49
736.50	251.86
736.83	251.83
737.16	251.39
737.49	250.93
737.82	250.46
738.15	250.05
738.48	249.67
738.81	249.20
739.14	248.72
739.47	248.23
739.80	247.85
740.13	247.44
740.46	246.98
740.79	246.55
741.12	246.14
741.45	245.62
741.78	245.08
742.11	244.75
742.44	244.33
742.77	244.04
743.10	243.69
743.43	243.35
743.75	242.66
744.08	242.74
744.41	242.35
744.74	241.97
745.07	241.55
745.40	241.32
745.73	241.11
746.06	240.75
746.39	240.53
746.71	240.17
747.04	239.78
747.37	239.48
747.70	239.20
748.03	238.97
748.36	238.71
748.68	238.35
749.01	237.96
749.34	237.61
749.67	237.28
750.00	237.08
750.33	237.05
750.65	236.82
750.98	236.11
751.31	235.88
751.64	235.65
751.97	235.60
752.29	235.20
752.62	234.81
752.95	234.56
753.28	234.23
753.60	233.91
753.93	233.78
754.26	233.55
754.59	233.18
754.91	232.88
755.24	232.63
755.57	232.38
755.90	232.09
756.22	231.83
756.55	231.56
756.88	231.19
757.20	230.67
757.53	230.27
757.86	230.04
758.19	229.75
758.51	229.54
758.84	229.14
759.17	228.95
759.49	228.77
759.82	228.68
760.15	228.55
760.47	228.40
760.80	228.07
761.13	227.89
761.45	227.76
761.78	227.54
762.11	227.30
762.43	227.06
762.76	226.86
763.08	226.71
763.41	226.53
763.74	226.43
764.06	226.22
764.39	226.07
764.71	225.93
765.04	225.74
765.37	225.49
765.69	225.31
766.02	225.15
766.34	224.91
766.67	224.62
767.00	224.50
767.32	224.50
767.65	224.58
767.97	224.40
768.30	224.22
768.62	224.00
768.95	223.83
769.27	223.73
769.60	223.65
769.92	223.47
770.25	223.24
770.57	222.94
770.90	222.83
771.22	222.70
771.55	222.47
771.87	222.39
772.20	222.29
772.52	222.40
772.85	222.77
773.17	222.63
773.50	222.56
773.82	222.34
774.15	222.00
774.47	221.63
774.80	221.54
775.12	221.42
775.45	221.35
775.77	221.30
776.09	221.17
776.42	221.08
776.74	221.12
777.07	221.02
777.39	220.98
777.72	220.91
778.04	220.81
778.36	220.75
778.69	220.68
779.01	220.66
779.33	220.36
779.66	219.84
779.98	219.75
780.31	219.58
780.63	219.64
780.95	219.67
781.28	219.63
781.60	219.49
781.92	219.46
782.25	219.42
782.57	219.34
782.89	219.22
783.22	219.11
783.54	218.90
783.86	218.90
784.19	218.79
784.51	218.77
784.83	218.69
785.16	218.58
785.48	218.49
785.80	218.38
786.12	218.26
786.45	218.09
786.77	218.10
787.09	218.00
787.42	217.75
787.74	217.67
788.06	217.59
788.38	217.51
788.71	217.34
789.03	217.24
789.35	217.20
789.67	217.18
789.99	217.14
790.32	217.06
790.64	217.01
790.96	217.18
791.28	216.96
791.61	216.86
791.93	216.78
792.25	216.67
792.57	216.89
792.89	216.81
793.21	216.87
793.54	216.73
793.86	216.66
794.18	216.69
794.50	216.62
794.82	216.60
795.14	216.59
795.47	216.65
795.79	216.59
796.11	216.49
796.43	216.42
796.75	216.36
797.07	216.37
797.39	216.32
797.71	216.15
798.04	216.17
798.36	216.22
798.68	216.19
799.00	216.17
799.32	215.93
799.64	215.98
799.96	215.86
800.28	215.95
800.60	215.95
800.92	215.96
801.24	215.87
801.56	215.85
801.89	215.79
802.21	215.76
802.53	215.71
802.85	215.73
803.17	215.84
803.49	215.76
803.81	215.72
804.13	215.63
804.45	215.51
804.77	215.55
805.09	215.47
805.41	215.47
805.73	215.40
806.05	215.33
806.37	215.28
806.69	215.22
807.01	215.10
807.33	215.10
807.65	214.86
807.97	215.05
808.28	214.95
808.60	214.95
808.92	214.97
809.24	215.18
809.56	215.13
809.88	214.97
810.20	215.05
810.52	214.98
810.84	214.85
811.16	214.85
811.48	214.76
811.80	214.90
812.12	214.80
812.43	214.86
812.75	214.77
813.07	214.71
813.39	214.82
813.71	214.81
814.03	214.74
814.35	214.83
814.67	214.66
814.98	214.62
815.30	214.55
815.62	214.36
815.94	214.14
816.26	214.14
816.58	214.10
816.89	214.05
817.21	214.01
817.53	214.12
817.85	214.11
818.17	214.06
818.48	213.83
818.80	213.88
819.12	213.83
819.44	213.81
819.76	213.79
820.07	213.74
820.39	213.69
820.71	213.69
821.03	213.65
821.34	213.54
821.66	213.62
821.98	213.70
822.30	213.67
822.61	213.81
822.93	213.70
823.25	213.66
823.57	213.60
823.88	213.70
824.20	213.73
824.52	213.76
824.83	213.72
825.15	213.70
825.47	213.70
825.79	213.72
826.10	213.60
826.42	213.56
826.74	213.56
827.05	213.55
827.37	213.64
827.69	213.56
828.00	213.60
828.32	213.57
828.64	213.44
828.95	213.67
829.27	213.53
829.58	213.51
829.90	213.56
830.22	213.52
830.53	213.44
830.85	213.27
831.17	213.15
831.48	213.18
831.80	213.26
832.11	213.28
832.43	213.16
832.75	213.19
833.06	213.40
833.38	213.30
833.69	213.28
834.01	213.25
834.32	213.27
834.64	213.23
834.96	213.21
835.27	213.25
835.59	213.09
835.90	213.07
836.22	213.10
836.53	212.98
836.85	212.93
837.16	213.20
837.48	213.20
837.79	213.31
838.11	213.33
838.42	213.22
838.74	213.21
839.05	213.26
839.37	213.27
839.68	213.07
840.00	212.98
840.31	213.05
840.63	212.99
840.94	212.94
841.26	212.90
841.57	212.87
841.88	212.89
842.20	212.89
842.51	212.83
842.83	212.79
843.14	213.18
843.46	213.15
843.77	212.92
844.08	212.92
844.40	212.80
844.71	212.75
845.03	212.75
845.34	212.68
845.65	212.61
845.97	212.65
846.28	212.61
846.60	212.67
846.91	212.58
847.22	212.57
847.54	212.62
847.85	212.65
848.16	212.65
848.48	212.53
848.79	212.65
849.10	212.71
849.42	212.71
849.73	212.37
850.04	212.39
850.36	212.36
850.67	212.38
850.98	212.36
851.30	212.39
851.61	212.38
851.92	212.40
852.23	212.47
852.55	212.43
852.86	212.47
853.17	212.52
853.49	212.59
853.80	212.61
854.11	212.66
854.42	212.68
854.74	212.61
855.05	212.66
855.36	212.46
855.67	212.42
855.99	212.40
856.30	212.75
856.61	212.77
856.92	212.71
857.23	212.72
857.55	212.70
857.86	212.67
858.17	212.71
858.48	212.62
858.79	212.55
859.11	212.61
859.42	212.62
859.73	212.58
860.04	212.56
860.35	212.45
860.66	212.33
860.98	212.25
861.29	212.28
861.60	212.26
861.91	212.39
862.22	212.37
862.53	212.34
862.84	211.95
863.16	212.01
863.47	211.91
863.78	211.91
864.09	211.94
864.40	211.99
864.71	211.98
865.02	212.05
865.33	212.03
865.64	212.02
865.95	211.98
866.27	212.17
866.58	212.06
866.89	212.22
867.20	212.23
867.51	212.25
867.82	212.30
868.13	212.35
868.44	212.24
868.75	212.34
869.06	212.38
869.37	212.40
869.68	212.30
869.99	212.40
870.30	212.44
870.61	212.47
870.92	212.37
871.23	212.29
871.54	212.34
871.85	212.43
872.16	212.39
872.47	212.33
872.78	212.16
873.09	212.22
873.40	212.08
873.71	212.11
874.02	212.05
874.33	211.97
874.64	211.94
874.95	211.98
875.26	211.85
875.56	211.80
875.87	211.76
876.18	211.72
876.49	212.05
876.80	211.92
877.11	211.84
877.42	211.90
877.73	211.90
878.04	211.84
878.35	211.84
878.66	211.85
878.96	211.88
879.27	211.86
879.58	211.86
879.89	211.87
880.20	211.97
880.51	211.99
880.82	212.06
881.12	212.05
881.43	211.95
881.74	211.92
882.05	211.92
882.36	211.99
882.67	212.04
882.97	211.72
883.28	211.76
883.59	211.77
883.90	211.78
884.21	211.90
884.51	211.87
884.82	211.81
885.13	211.92
885.44	211.86
885.74	211.83
886.05	211.84
886.36	211.85
886.67	211.70
886.98	211.84
887.28	211.84
887.59	211.85
887.90	211.92
888.20	211.90
888.51	211.97
888.82	211.91
889.13	211.98
889.43	212.23
889.74	212.22
890.05	212.29
890.35	212.22
890.66	212.14
890.97	212.10
891.28	212.09
891.58	212.03
891.89	212.13
892.20	212.12
892.50	212.08
892.81	212.06
893.12	212.14
893.42	212.12
893.73	212.10
894.04	212.14
894.34	212.16
894.65	212.21
894.95	212.16
895.26	212.23
895.57	212.33
895.87	211.98
896.18	212.01
896.48	212.04
896.79	212.07
897.10	212.11
897.40	212.10
897.71	212.06
898.01	212.02
898.32	211.96
898.63	211.91
898.93	211.98
899.24	212.00
899.54	212.00
899.85	211.89
900.15	211.87
900.46	211.86
900.76	211.82
901.07	211.79
901.38	211.80
901.68	211.79
901.99	211.67
902.29	211.73
902.60	211.68
902.90	211.62
903.21	211.61
903.51	211.67
903.82	211.78
904.12	211.79
904.43	211.77
904.73	211.79
905.03	211.85
905.34	212.15
905.64	212.15
905.95	212.07
906.25	212.09
906.56	212.06
906.86	212.00
907.17	212.02
907.47	212.05
907.77	212.03
908.08	212.01
908.38	211.94
908.69	211.95
908.99	212.03
909.30	212.04
909.60	212.00
909.90	211.98
910.21	211.88
910.51	211.84
910.81	211.88
911.12	211.88
911.42	211.86
911.73	211.43
912.03	211.39
912.33	211.43
912.64	211.40
912.94	211.35
913.24	211.31
913.55	211.30
913.85	211.26
914.15	211.31
914.46	211.37
914.76	211.36
915.06	211.30
915.37	211.28
915.67	211.29
915.97	211.34
916.27	211.24
916.58	211.17
916.88	211.20
917.18	211.18
917.49	211.35
917.79	211.33
918.09	211.45
918.39	211.56
918.70	211.52
919.00	211.53
919.30	211.66
919.60	211.68
919.91	211.60
920.21	211.62
920.51	211.59
920.81	211.48
921.12	211.60
921.42	211.62
921.72	211.62
922.02	211.62
922.32	211.59
922.63	211.60
922.93	211.85
923.23	211.82
923.53	211.86
923.83	211.68
924.13	211.69
924.44	211.72
924.74	211.80
925.04	211.96
925.34	211.89
925.64	211.74
925.94	211.71
926.24	211.93
926.55	211.90
926.85	211.90
927.15	211.97
927.45	211.94
927.75	211.97
928.05	211.99
928.35	211.98
928.65	212.08
928.95	212.08
929.26	211.96
929.56	212.03
929.86	212.04
930.16	212.02
930.46	212.05
930.76	212.03
931.06	211.82
931.36	211.73
931.66	211.84
931.96	211.97
932.26	212.03
932.56	211.87
932.86	211.92
933.16	211.92
933.46	211.86
933.76	211.81
934.06	211.83
934.36	211.94
934.66	211.87
934.96	211.78
935.26	211.81
935.56	211.80
935.86	211.75
936.16	211.69
936.46	211.63
936.76	211.57
937.06	211.49
937.36	211.53
937.66	211.49
937.96	211.50
938.26	211.35
938.56	211.31
938.86	211.37
939.16	211.40
939.46	211.41
939.76	211.43
940.06	211.37
940.35	211.30
940.65	211.09
940.95	211.13
941.25	211.12
941.55	211.10
941.85	211.11
942.15	211.19
942.45	211.21
942.75	211.19
943.04	211.22
943.34	211.30
943.64	211.29
943.94	211.24
944.24	211.25
944.54	211.31
944.84	211.25
945.13	211.18
945.43	211.07
945.73	211.05
946.03	211.02
946.33	211.03
946.62	211.00
946.92	211.03
947.22	211.01
947.52	211.02
947.82	211.06
948.11	211.02
948.41	210.99
948.71	210.90
949.01	210.98
949.31	211.00
949.60	210.99
949.90	210.97
950.20	211.00
950.50	210.97
950.79	210.93
951.09	211.04
951.39	210.99
951.69	211.02
951.98	211.07
952.28	211.10
952.58	211.08
952.87	211.11
953.17	211.24
953.47	211.27
953.76	211.26
954.06	211.20
954.36	211.09
954.66	211.08
954.95	211.22
955.25	211.24
955.55	211.23
955.84	211.17
956.14	211.19
956.44	211.26
956.73	211.25
957.03	211.30
957.32	211.27
957.62	211.32
957.92	211.37
958.21	211.37
958.51	211.78
958.81	211.86
959.10	211.85
959.40	211.85
959.69	211.89
959.99	211.87
960.29	211.92
960.58	211.99
960.88	212.04
961.17	212.03
961.47	212.11
961.76	212.08
962.06	212.16
962.36	212.18
962.65	212.13
962.95	212.07
963.24	212.07
963.54	212.04
963.83	212.09
964.13	212.10
964.42	212.06
964.72	211.64
965.01	211.64
965.31	211.66
965.60	211.60
965.90	211.72
966.19	211.65
966.49	211.64
966.78	211.63
967.08	211.64
967.37	211.57
967.67	211.42
967.96	211.52
968.26	211.53
968.55	211.53
968.85	211.49
969.14	211.54
969.43	211.51
969.73	211.50
970.02	211.48
970.32	211.48
970.61	211.37
970.91	211.35
971.20	211.24
971.49	211.18
971.79	211.21
972.08	211.04
972.38	211.14
972.67	211.10
972.96	211.20
973.26	211.13
973.55	211.23
973.85	211.21
974.14	211.08
974.43	211.07
974.73	211.08
975.02	211.10
975.31	211.03
975.61	211.07
975.90	211.00
976.19	211.02
976.49	210.97
976.78	211.08
977.07	211.11
977.37	211.14
977.66	211.20
977.95	211.15
978.24	211.14
978.54	211.18
978.83	211.15
979.12	211.09
979.42	211.12
979.71	211.13
980.00	211.17
980.29	211.25
980.59	211.15
980.88	211.15
981.17	211.13
981.46	211.17
981.76	211.12
982.05	211.27
982.34	211.21
982.63	211.23
982.93	211.31
983.22	211.35
983.51	211.41
983.80	211.48
984.09	211.50
984.39	211.49
984.68	211.45
984.97	211.44
985.26	211.43
985.55	211.41
985.85	211.28
986.14	211.35
986.43	211.36
986.72	211.38
987.01	211.31
987.30	211.30
987.59	211.23
987.89	211.26
988.18	211.17
988.47	211.14
988.76	211.10
989.05	211.00
989.34	210.92
989.63	211.05
989.92	210.97
990.22	210.92
990.51	210.95
990.80	210.93
991.09	210.94
991.38	210.93
991.67	210.97
991.96	210.99
992.25	210.95
992.54	210.88
992.83	210.87
993.12	210.90
993.41	210.94
993.70	211.12
993.99	211.25
994.28	211.29
994.58	211.38
994.87	211.33
995.16	211.29
995.45	211.29
995.74	211.15
996.03	211.12
996.32	211.18
996.61	211.23
996.90	211.22
997.19	211.30
997.48	211.32
997.77	211.25
998.06	211.24
998.34	211.25
998.63	211.30
998.92	211.34
999.21	211.36
999.50	211.40
999.79	211.32
1000.08	211.25
1000.37	211.35
1000.66	211.28
1000.95	211.34
1001.24	211.38
1001.53	211.43
1001.82	211.37
1002.11	211.42
1002.40	211.41
1002.68	211.47
1002.97	211.74
1003.26	211.66
1003.55	211.62
1003.84	211.66
1004.13	211.79
1004.42	211.72
1004.71	211.73
1004.99	211.72
1005.28	211.82
1005.57	211.77
1005.86	211.70
1006.15	211.63
1006.44	211.51
1006.72	211.57
1007.01	211.60
1007.30	211.63
1007.59	211.60
1007.88	211.61
1008.17	211.52
1008.45	211.45
1008.74	211.34
1009.03	211.14
1009.32	211.13
1009.60	211.06
1009.89	210.98
1010.18	210.85
1010.47	210.91
1010.76	210.78
1011.04	210.74
1011.33	210.70
1011.62	210.71
1011.91	210.77
1012.19	210.84
1012.48	210.82
1012.77	210.88
1013.05	210.96
1013.34	210.88
1013.63	210.83
1013.92	210.84
1014.20	210.89
1014.49	210.92
1014.78	210.94
1015.06	210.85
1015.35	210.80
1015.64	210.90
1015.92	210.94
1016.21	210.90
1016.50	210.85
1016.78	210.98
1017.07	211.02
1017.36	210.96
1017.64	210.96
1017.93	210.97
1018.22	210.90
1018.50	210.89
1018.79	210.78
1019.08	210.69
1019.36	210.79
1019.65	210.81
1019.93	210.93
1020.22	210.96
1020.51	211.08
1020.79	211.08
1021.08	210.30
1021.36	210.45
1021.65	210.20
1021.94	211.45
1022.22	211.85
1022.51	210.85
1022.79	212.50
1023.08	211.50
1023.36	213.65
1023.65	210.90
>>>>>End Processed Spectral Data<<<<<
