SpectraSuite Data File
++++++++++++++++++++++++++++++++++++
Date: Mon Feb 25 17:12:17 EST 2013
User: group
Dark Spectrum Present: No
Reference Spectrum Present: No
Number of Sampled Component Spectra: 1
Spectrometers: USB2E7196
Integration Time (usec): 104000 (USB2E7196)
Spectra Averaged: 20 (USB2E7196)
Boxcar Smoothing: 10 (USB2E7196)
Correct for Electrical Dark: No (USB2E7196)
Strobe/Lamp Enabled: No (USB2E7196)
Correct for Detector Non-linearity: No (USB2E7196)
Correct for Stray Light: No (USB2E7196)
Number of Pixels in Processed Spectrum: 2048
>>>>>Begin Processed Spectral Data<<<<<
339.09	0.00
339.48	198.35
339.86	199.80
340.24	201.80
340.63	202.40
341.01	209.40
341.39	206.70
341.78	207.40
342.16	208.25
342.54	209.15
342.93	198.37
343.31	208.39
343.69	209.03
344.07	209.55
344.46	210.06
344.84	210.53
345.22	210.58
345.60	210.83
345.99	211.05
346.37	211.26
346.75	211.37
347.13	211.44
347.52	211.47
347.90	211.67
348.28	211.74
348.66	211.80
349.05	211.72
349.43	211.88
349.81	211.94
350.19	212.03
350.57	212.11
350.96	212.19
351.34	212.37
351.72	212.40
352.10	212.46
352.48	212.52
352.87	212.50
353.25	212.62
353.63	212.65
354.01	212.71
354.39	212.70
354.77	212.75
355.15	212.93
355.54	213.05
355.92	212.94
356.30	212.96
356.68	213.28
357.06	213.37
357.44	213.36
357.82	213.40
358.20	213.46
358.58	213.50
358.97	213.57
359.35	213.67
359.73	213.79
360.11	213.85
360.49	213.80
360.87	213.85
361.25	213.96
361.63	214.12
362.01	214.13
362.39	214.20
362.77	214.27
363.15	214.32
363.53	214.30
363.91	214.33
364.29	214.42
364.67	214.06
365.05	214.08
365.43	214.14
365.81	214.22
366.19	214.42
366.57	214.51
366.95	214.51
367.33	214.36
367.71	214.34
368.09	214.38
368.47	214.41
368.85	214.44
369.23	214.38
369.61	214.22
369.99	214.30
370.37	214.31
370.75	214.45
371.13	214.27
371.51	214.16
371.89	214.16
372.27	214.05
372.65	214.11
373.03	213.99
373.41	213.85
373.78	213.81
374.16	213.49
374.54	213.30
374.92	213.13
375.30	213.06
375.68	212.94
376.06	212.90
376.44	212.83
376.82	212.80
377.19	212.78
377.57	212.76
377.95	212.59
378.33	212.49
378.71	212.24
379.09	212.29
379.47	212.28
379.84	212.18
380.22	212.09
380.60	212.00
380.98	211.99
381.36	211.95
381.73	211.83
382.11	211.90
382.49	211.86
382.87	211.85
383.25	211.85
383.62	212.17
384.00	212.04
384.38	211.98
384.76	211.97
385.13	212.03
385.51	211.96
385.89	211.94
386.27	211.91
386.64	211.88
387.02	211.85
387.40	211.80
387.78	211.84
388.15	211.87
388.53	211.77
388.91	211.72
389.29	211.68
389.66	211.66
390.04	211.57
390.42	211.60
390.79	211.63
391.17	211.58
391.55	211.23
391.92	211.22
392.30	211.22
392.68	211.12
393.05	211.02
393.43	211.02
393.81	210.95
394.18	210.82
394.56	210.88
394.94	210.83
395.31	210.83
395.69	210.87
396.06	210.90
396.44	210.89
396.82	210.90
397.19	211.07
397.57	211.05
397.95	211.17
398.32	211.04
398.70	211.03
399.07	211.11
399.45	210.97
399.82	211.02
400.20	211.09
400.58	211.10
400.95	210.96
401.33	211.08
401.70	211.39
402.08	211.49
402.45	211.45
402.83	211.65
403.20	211.61
403.58	211.68
403.95	211.85
404.33	211.97
404.71	212.05
405.08	212.34
405.46	212.41
405.83	212.50
406.21	212.75
406.58	212.86
406.96	212.87
407.33	213.09
407.70	213.27
408.08	213.68
408.45	213.87
408.83	214.14
409.20	214.21
409.58	214.12
409.95	214.33
410.33	214.54
410.70	214.61
411.08	215.04
411.45	215.27
411.82	215.44
412.20	215.81
412.57	216.24
412.95	216.16
413.32	216.59
413.69	216.90
414.07	217.21
414.44	217.67
414.82	218.30
415.19	218.82
415.56	219.30
415.94	219.64
416.31	220.29
416.68	220.96
417.06	221.74
417.43	222.57
417.81	223.40
418.18	224.27
418.55	225.07
418.93	225.89
419.30	226.79
419.67	227.91
420.04	228.86
420.42	229.94
420.79	231.48
421.16	232.70
421.54	234.15
421.91	235.55
422.28	236.92
422.66	238.25
423.03	239.98
423.40	241.50
423.77	243.01
424.15	244.62
424.52	246.32
424.89	248.16
425.26	249.88
425.64	251.59
426.01	253.44
426.38	255.46
426.75	257.46
427.13	259.53
427.50	261.60
427.87	263.76
428.24	265.93
428.61	267.85
428.99	270.34
429.36	272.76
429.73	275.25
430.10	277.77
430.47	280.38
430.85	282.78
431.22	285.59
431.59	288.73
431.96	291.60
432.33	294.77
432.70	297.77
433.08	301.35
433.45	304.62
433.82	308.01
434.19	311.66
434.56	315.31
434.93	318.68
435.30	322.08
435.68	326.02
436.05	329.84
436.42	333.53
436.79	336.89
437.16	340.51
437.53	344.30
437.90	348.12
438.27	351.92
438.64	355.86
439.01	359.59
439.38	362.68
439.75	365.85
440.13	369.34
440.50	372.68
440.87	375.44
441.24	378.45
441.61	381.49
441.98	383.78
442.35	386.46
442.72	389.39
443.09	392.15
443.46	393.67
443.83	394.61
444.20	395.53
444.57	396.84
444.94	397.55
445.31	398.24
445.68	399.26
446.05	399.56
446.42	399.15
446.79	398.63
447.16	398.20
447.53	397.84
447.90	396.33
448.27	394.83
448.64	392.95
449.01	391.40
449.37	388.83
449.74	386.41
450.11	383.72
450.48	380.33
450.85	376.81
451.22	373.96
451.59	371.43
451.96	368.96
452.33	365.51
452.70	362.30
453.07	358.58
453.43	354.32
453.80	350.65
454.17	347.16
454.54	343.81
454.91	340.20
455.28	336.62
455.65	333.40
456.02	330.67
456.38	327.74
456.75	324.38
457.12	321.55
457.49	318.68
457.86	315.64
458.23	313.45
458.59	311.08
458.96	308.53
459.33	306.20
459.70	303.84
460.07	302.02
460.43	299.93
460.80	298.03
461.17	296.47
461.54	294.72
461.91	293.04
462.27	291.35
462.64	289.89
463.01	288.34
463.38	286.93
463.74	284.91
464.11	283.46
464.48	282.23
464.85	280.95
465.21	280.21
465.58	279.25
465.95	277.89
466.32	276.77
466.68	275.69
467.05	274.62
467.42	273.61
467.78	272.50
468.15	271.60
468.52	270.82
468.88	269.69
469.25	268.76
469.62	268.02
469.98	267.21
470.35	266.55
470.72	265.83
471.08	264.98
471.45	264.46
471.82	264.04
472.18	263.33
472.55	262.94
472.92	262.13
473.28	261.60
473.65	261.08
474.02	260.58
474.38	260.32
474.75	260.03
475.11	259.68
475.48	259.48
475.85	259.20
476.21	258.97
476.58	258.84
476.94	258.68
477.31	258.59
477.67	258.54
478.04	258.43
478.41	258.49
478.77	258.86
479.14	258.77
479.50	258.78
479.87	258.97
480.23	258.98
480.60	259.08
480.96	259.27
481.33	259.69
481.69	259.98
482.06	260.21
482.42	260.48
482.79	260.84
483.15	261.20
483.52	261.65
483.88	262.03
484.25	262.46
484.61	262.97
484.98	263.50
485.34	264.12
485.71	264.85
486.07	265.54
486.44	265.93
486.80	266.79
487.17	267.56
487.53	268.49
487.90	269.47
488.26	270.66
488.62	271.72
488.99	272.72
489.35	273.85
489.72	275.09
490.08	276.40
490.44	277.74
490.81	279.17
491.17	280.63
491.54	282.35
491.90	284.14
492.26	285.98
492.63	287.78
492.99	289.60
493.36	291.51
493.72	293.64
494.08	295.86
494.45	298.19
494.81	300.66
495.17	303.11
495.54	305.94
495.90	308.43
496.26	311.18
496.63	314.18
496.99	317.27
497.35	320.41
497.72	323.65
498.08	326.94
498.44	330.53
498.80	334.28
499.17	338.10
499.53	341.98
499.89	346.10
500.26	350.32
500.62	354.63
500.98	359.29
501.34	363.89
501.71	368.81
502.07	373.64
502.43	378.57
502.79	383.66
503.16	388.86
503.52	394.40
503.88	399.92
504.24	405.56
504.60	411.44
504.97	417.52
505.33	423.78
505.69	430.49
506.05	437.03
506.41	443.70
506.78	450.42
507.14	457.35
507.50	464.29
507.86	471.50
508.22	479.04
508.59	486.36
508.95	494.10
509.31	501.96
509.67	510.09
510.03	518.47
510.39	527.01
510.75	535.71
511.12	544.38
511.48	553.28
511.84	562.39
512.20	571.26
512.56	580.51
512.92	589.92
513.28	599.37
513.64	608.94
514.00	618.69
514.37	628.55
514.73	638.73
515.09	648.94
515.45	658.97
515.81	669.20
516.17	679.54
516.53	689.86
516.89	700.00
517.25	710.48
517.61	721.05
517.97	731.48
518.33	741.78
518.69	752.48
519.05	763.36
519.41	774.03
519.77	785.50
520.13	796.29
520.49	806.95
520.85	817.81
521.21	828.99
521.57	840.10
521.93	850.97
522.29	862.10
522.65	873.22
523.01	884.57
523.37	895.46
523.73	906.54
524.09	917.71
524.45	929.01
524.81	939.95
525.17	951.01
525.53	962.22
525.89	973.35
526.25	984.37
526.61	995.19
526.97	1006.21
527.33	1016.90
527.68	1028.25
528.04	1039.09
528.40	1049.54
528.76	1060.07
529.12	1070.75
529.48	1081.84
529.84	1092.39
530.20	1102.87
530.56	1113.46
530.91	1124.37
531.27	1135.04
531.63	1145.29
531.99	1155.61
532.35	1165.70
532.71	1175.50
533.07	1185.73
533.42	1195.82
533.78	1205.93
534.14	1215.57
534.50	1224.66
534.86	1234.06
535.21	1242.79
535.57	1252.36
535.93	1261.30
536.29	1270.40
536.65	1279.29
537.00	1287.43
537.36	1295.54
537.72	1303.30
538.08	1311.28
538.44	1319.06
538.79	1326.99
539.15	1334.89
539.51	1342.66
539.87	1350.65
540.22	1358.35
540.58	1365.96
540.94	1373.18
541.29	1379.81
541.65	1386.42
542.01	1393.43
542.37	1399.67
542.72	1406.25
543.08	1412.19
543.44	1418.79
543.79	1424.26
544.15	1429.72
544.51	1435.63
544.87	1441.27
545.22	1446.99
545.58	1451.74
545.94	1456.08
546.29	1460.14
546.65	1464.05
547.01	1468.17
547.36	1472.01
547.72	1475.58
548.07	1478.53
548.43	1481.64
548.79	1484.59
549.14	1487.46
549.50	1490.32
549.86	1492.85
550.21	1495.00
550.57	1497.56
550.92	1499.21
551.28	1500.98
551.64	1502.98
551.99	1504.76
552.35	1506.28
552.70	1507.72
553.06	1509.52
553.41	1511.20
553.77	1512.56
554.13	1513.64
554.48	1514.70
554.84	1515.90
555.19	1516.84
555.55	1517.42
555.90	1517.53
556.26	1517.79
556.61	1518.00
556.97	1517.73
557.32	1517.90
557.68	1517.62
558.03	1517.11
558.39	1516.88
558.74	1517.11
559.10	1517.00
559.45	1516.44
559.81	1516.27
560.16	1515.53
560.52	1514.80
560.87	1513.96
561.23	1513.20
561.58	1513.00
561.94	1511.50
562.29	1509.69
562.64	1508.43
563.00	1507.50
563.35	1506.95
563.71	1506.41
564.06	1505.76
564.42	1505.10
564.77	1504.05
565.12	1503.15
565.48	1502.39
565.83	1501.60
566.19	1500.61
566.54	1498.58
566.89	1496.83
567.25	1495.26
567.60	1493.73
567.96	1492.22
568.31	1490.74
568.66	1488.62
569.02	1486.14
569.37	1483.85
569.72	1481.97
570.08	1479.58
570.43	1477.01
570.78	1474.17
571.14	1471.07
571.49	1467.89
571.84	1465.14
572.20	1461.98
572.55	1459.34
572.90	1455.56
573.26	1451.61
573.61	1447.90
573.96	1444.64
574.31	1440.98
574.67	1437.00
575.02	1432.55
575.37	1428.49
575.72	1424.05
576.08	1420.67
576.43	1416.53
576.78	1412.82
577.13	1409.25
577.49	1405.62
577.84	1401.53
578.19	1397.90
578.54	1394.64
578.90	1391.68
579.25	1387.65
579.60	1383.52
579.95	1379.05
580.30	1375.43
580.66	1372.19
581.01	1367.91
581.36	1363.60
581.71	1359.45
582.06	1355.52
582.42	1352.30
582.77	1347.80
583.12	1343.98
583.47	1339.93
583.82	1336.44
584.17	1332.65
584.53	1328.73
584.88	1324.82
585.23	1321.04
585.58	1317.03
585.93	1312.75
586.28	1308.52
586.63	1304.48
586.98	1300.98
587.34	1297.53
587.69	1293.56
588.04	1289.38
588.39	1285.59
588.74	1281.62
589.09	1278.30
589.44	1274.15
589.79	1270.28
590.14	1266.87
590.49	1262.85
590.84	1258.75
591.19	1255.05
591.54	1251.15
591.89	1246.21
592.25	1242.30
592.60	1238.07
592.95	1233.60
593.30	1228.94
593.65	1224.10
594.00	1219.67
594.35	1216.36
594.70	1211.84
595.05	1207.90
595.40	1203.82
595.75	1199.38
596.10	1195.78
596.45	1191.67
596.80	1188.18
597.15	1184.35
597.50	1180.06
597.85	1176.23
598.19	1172.21
598.54	1168.22
598.89	1164.25
599.24	1161.40
599.59	1157.53
599.94	1154.36
600.29	1151.10
600.64	1147.80
600.99	1144.10
601.34	1140.79
601.69	1136.09
602.04	1132.23
602.39	1128.51
602.74	1125.01
603.08	1122.14
603.43	1118.85
603.78	1115.36
604.13	1111.39
604.48	1107.63
604.83	1104.85
605.18	1101.90
605.53	1098.34
605.87	1094.32
606.22	1090.95
606.57	1087.08
606.92	1083.13
607.27	1078.95
607.62	1074.95
607.96	1071.45
608.31	1068.20
608.66	1064.35
609.01	1060.73
609.36	1056.98
609.70	1052.71
610.05	1048.42
610.40	1044.44
610.75	1039.92
611.10	1036.03
611.44	1031.69
611.79	1027.15
612.14	1022.32
612.49	1017.21
612.83	1012.84
613.18	1008.68
613.53	1004.09
613.88	999.22
614.22	994.95
614.57	990.45
614.92	986.07
615.27	981.32
615.61	976.79
615.96	972.22
616.31	968.01
616.65	964.11
617.00	959.96
617.35	955.60
617.70	950.77
618.04	946.09
618.39	941.02
618.74	936.65
619.08	932.44
619.43	927.99
619.78	923.67
620.12	919.42
620.47	914.74
620.82	910.02
621.16	905.53
621.51	901.05
621.85	896.80
622.20	892.33
622.55	887.67
622.89	883.03
623.24	878.75
623.59	873.98
623.93	869.47
624.28	865.18
624.62	861.07
624.97	856.90
625.32	852.81
625.66	848.67
626.01	844.57
626.35	840.30
626.70	836.16
627.04	832.52
627.39	828.35
627.73	824.52
628.08	820.88
628.43	816.78
628.77	812.52
629.12	808.47
629.46	804.72
629.81	800.98
630.15	797.01
630.50	792.81
630.84	788.65
631.19	784.55
631.53	780.53
631.88	776.16
632.22	772.05
632.57	768.29
632.91	764.44
633.26	760.45
633.60	756.63
633.95	752.91
634.29	748.78
634.64	744.92
634.98	740.79
635.32	737.03
635.67	733.62
636.01	730.13
636.36	726.25
636.70	722.53
637.05	718.78
637.39	715.31
637.73	712.16
638.08	709.04
638.42	705.77
638.77	702.30
639.11	699.02
639.45	695.45
639.80	691.57
640.14	687.95
640.49	684.36
640.83	680.74
641.17	677.11
641.52	673.58
641.86	670.09
642.20	666.73
642.55	662.90
642.89	659.20
643.23	655.38
643.58	652.08
643.92	648.13
644.26	644.62
644.61	641.05
644.95	637.29
645.29	633.65
645.64	630.00
645.98	626.43
646.32	623.01
646.66	619.47
647.01	616.21
647.35	612.94
647.69	609.43
648.04	606.11
648.38	602.70
648.72	599.39
649.06	595.98
649.41	592.57
649.75	589.21
650.09	585.95
650.43	582.73
650.78	579.04
651.12	575.79
651.46	572.57
651.80	569.37
652.14	566.25
652.49	562.92
652.83	559.45
653.17	556.08
653.51	552.73
653.85	549.62
654.20	546.47
654.54	543.09
654.88	539.96
655.22	536.75
655.56	533.54
655.90	530.34
656.25	527.10
656.59	523.94
656.93	520.95
657.27	518.07
657.61	514.90
657.95	512.24
658.29	509.47
658.64	506.70
658.98	503.75
659.32	500.62
659.66	497.75
660.00	494.95
660.34	492.03
660.68	489.02
661.02	486.11
661.36	483.30
661.70	480.69
662.05	478.00
662.39	475.54
662.73	473.01
663.07	470.54
663.41	468.03
663.75	465.43
664.09	462.85
664.43	459.93
664.77	457.52
665.11	454.87
665.45	452.32
665.79	449.76
666.13	447.25
666.47	444.86
666.81	442.40
667.15	440.01
667.49	437.88
667.83	435.82
668.17	433.49
668.51	431.31
668.85	429.11
669.19	427.14
669.53	424.82
669.87	422.64
670.21	420.47
670.55	418.34
670.89	416.62
671.23	414.67
671.57	412.89
671.91	410.87
672.25	408.80
672.58	406.92
672.92	404.86
673.26	403.05
673.60	401.30
673.94	399.54
674.28	397.68
674.62	395.86
674.96	394.00
675.30	392.36
675.64	390.52
675.97	388.73
676.31	386.91
676.65	385.20
676.99	383.65
677.33	381.82
677.67	380.10
678.01	378.21
678.34	376.57
678.68	374.85
679.02	373.17
679.36	371.71
679.70	369.90
680.04	368.41
680.37	366.79
680.71	365.14
681.05	363.57
681.39	362.08
681.73	360.53
682.06	359.07
682.40	357.60
682.74	356.11
683.08	354.75
683.42	353.21
683.75	351.81
684.09	350.16
684.43	348.75
684.77	347.32
685.10	345.83
685.44	344.28
685.78	342.94
686.12	341.70
686.45	340.27
686.79	339.08
687.13	337.74
687.46	336.38
687.80	335.14
688.14	333.67
688.48	332.31
688.81	331.03
689.15	329.66
689.49	328.30
689.82	326.97
690.16	325.36
690.50	324.07
690.83	322.68
691.17	321.27
691.51	319.92
691.84	318.79
692.18	317.62
692.52	316.46
692.85	315.28
693.19	314.16
693.52	312.91
693.86	311.67
694.20	310.55
694.53	309.49
694.87	308.31
695.21	307.26
695.54	306.17
695.88	304.83
696.21	303.86
696.55	302.81
696.88	301.71
697.22	300.79
697.56	299.83
697.89	298.90
698.23	298.03
698.56	296.99
698.90	295.98
699.23	294.93
699.57	294.01
699.90	292.98
700.24	291.87
700.58	290.96
700.91	290.08
701.25	289.28
701.58	288.30
701.92	287.48
702.25	286.60
702.59	285.70
702.92	285.02
703.26	284.05
703.59	283.21
703.93	282.71
704.26	281.87
704.60	280.99
704.93	280.00
705.26	279.15
705.60	278.52
705.93	277.66
706.27	277.00
706.60	276.35
706.94	275.78
707.27	275.03
707.61	274.27
707.94	273.41
708.27	272.52
708.61	271.78
708.94	270.92
709.28	270.19
709.61	269.54
709.94	268.88
710.28	268.23
710.61	267.58
710.95	266.63
711.28	266.24
711.61	265.64
711.95	265.18
712.28	264.57
712.61	263.80
712.95	263.36
713.28	262.87
713.61	262.14
713.95	261.31
714.28	260.82
714.61	260.24
714.95	259.87
715.28	259.29
715.61	258.75
715.95	258.25
716.28	257.71
716.61	257.20
716.95	256.67
717.28	256.13
717.61	255.58
717.94	255.13
718.28	254.40
718.61	253.84
718.94	253.29
719.27	252.78
719.61	252.48
719.94	251.93
720.27	251.38
720.60	250.98
720.94	250.56
721.27	250.05
721.60	249.73
721.93	249.20
722.27	248.92
722.60	248.58
722.93	248.18
723.26	247.76
723.59	247.28
723.93	246.92
724.26	246.55
724.59	246.17
724.92	245.89
725.25	245.58
725.59	245.32
725.92	245.05
726.25	244.79
726.58	244.39
726.91	244.05
727.24	243.67
727.57	243.26
727.91	242.92
728.24	242.68
728.57	242.29
728.90	242.02
729.23	241.54
729.56	241.31
729.89	240.94
730.22	240.63
730.55	240.30
730.89	239.91
731.22	239.63
731.55	239.34
731.88	239.05
732.21	238.71
732.54	238.35
732.87	238.00
733.20	237.65
733.53	237.37
733.86	237.07
734.19	236.75
734.52	236.53
734.85	236.57
735.18	236.25
735.51	236.09
735.84	235.77
736.17	235.65
736.50	235.26
736.83	235.44
737.16	235.16
737.49	235.00
737.82	234.72
738.15	234.44
738.48	234.21
738.81	233.87
739.14	233.62
739.47	233.37
739.80	233.10
740.13	232.86
740.46	232.58
740.79	232.37
741.12	232.19
741.45	231.94
741.78	231.52
742.11	231.34
742.44	231.07
742.77	230.91
743.10	230.63
743.43	230.42
743.75	229.80
744.08	230.10
744.41	229.80
744.74	229.54
745.07	229.29
745.40	229.17
745.73	229.12
746.06	228.95
746.39	228.78
746.71	228.59
747.04	228.39
747.37	228.18
747.70	227.99
748.03	227.77
748.36	227.63
748.68	227.46
749.01	227.16
749.34	227.03
749.67	226.85
750.00	226.75
750.33	226.79
750.65	226.70
750.98	226.08
751.31	225.93
751.64	225.90
751.97	225.99
752.29	225.83
752.62	225.52
752.95	225.36
753.28	225.20
753.60	225.02
753.93	224.95
754.26	224.87
754.59	224.73
754.91	224.61
755.24	224.45
755.57	224.23
755.90	224.05
756.22	223.77
756.55	223.57
756.88	223.31
757.20	223.00
757.53	222.78
757.86	222.69
758.19	222.56
758.51	222.37
758.84	222.06
759.17	221.87
759.49	221.80
759.82	221.77
760.15	221.66
760.47	221.64
760.80	221.40
761.13	221.27
761.45	221.02
761.78	220.96
762.11	220.85
762.43	220.76
762.76	220.79
763.08	220.81
763.41	220.81
763.74	220.72
764.06	220.58
764.39	220.48
764.71	220.32
765.04	220.24
765.37	220.13
765.69	220.08
766.02	220.00
766.34	219.86
766.67	219.66
767.00	219.67
767.32	219.69
767.65	219.93
767.97	219.87
768.30	219.85
768.62	219.64
768.95	219.51
769.27	219.40
769.60	219.30
769.92	219.16
770.25	218.96
770.57	218.91
770.90	218.75
771.22	218.65
771.55	218.60
771.87	218.53
772.20	218.46
772.52	218.60
772.85	218.95
773.17	218.88
773.50	218.72
773.82	218.63
774.15	218.44
774.47	218.11
774.80	218.01
775.12	217.94
775.45	217.93
775.77	217.86
776.09	217.80
776.42	217.74
776.74	217.76
777.07	217.71
777.39	217.59
777.72	217.56
778.04	217.49
778.36	217.43
778.69	217.46
779.01	217.34
779.33	217.01
779.66	216.52
779.98	216.37
780.31	216.40
780.63	216.37
780.95	216.34
781.28	216.21
781.60	216.10
781.92	216.05
782.25	216.01
782.57	216.00
782.89	216.03
783.22	216.01
783.54	215.90
783.86	215.87
784.19	215.83
784.51	215.92
784.83	215.82
785.16	215.76
785.48	215.65
785.80	215.70
786.12	215.60
786.45	215.60
786.77	215.63
787.09	215.55
787.42	215.38
787.74	215.41
788.06	215.38
788.38	215.35
788.71	215.35
789.03	215.27
789.35	215.21
789.67	215.15
789.99	215.07
790.32	214.99
790.64	215.01
790.96	215.18
791.28	215.10
791.61	215.09
791.93	215.08
792.25	215.01
792.57	215.21
792.89	215.17
793.21	215.16
793.54	215.08
793.86	215.06
794.18	215.06
794.50	214.90
794.82	214.93
795.14	215.01
795.47	215.04
795.79	215.02
796.11	214.96
796.43	214.85
796.75	214.81
797.07	214.82
797.39	214.74
797.71	214.56
798.04	214.48
798.36	214.49
798.68	214.45
799.00	214.50
799.32	214.29
799.64	214.35
799.96	214.32
800.28	214.35
800.60	214.30
800.92	214.32
801.24	214.29
801.56	214.29
801.89	214.20
802.21	214.18
802.53	214.15
802.85	214.24
803.17	214.36
803.49	214.32
803.81	214.28
804.13	214.20
804.45	214.15
804.77	214.13
805.09	214.11
805.41	214.02
805.73	213.88
806.05	213.85
806.37	213.80
806.69	213.70
807.01	213.72
807.33	213.77
807.65	213.64
807.97	213.79
808.28	213.75
808.60	213.73
808.92	213.66
809.24	213.80
809.56	213.72
809.88	213.58
810.20	213.59
810.52	213.70
810.84	213.72
811.16	213.65
811.48	213.65
811.80	213.79
812.12	213.73
812.43	213.75
812.75	213.70
813.07	213.66
813.39	213.68
813.71	213.52
814.03	213.41
814.35	213.45
814.67	213.29
814.98	213.22
815.30	213.18
815.62	213.14
815.94	212.95
816.26	212.95
816.58	212.86
816.89	212.80
817.21	212.68
817.53	212.64
817.85	212.66
818.17	212.59
818.48	212.44
818.80	212.54
819.12	212.59
819.44	212.53
819.76	212.48
820.07	212.51
820.39	212.51
820.71	212.54
821.03	212.48
821.34	212.52
821.66	212.52
821.98	212.54
822.30	212.47
822.61	212.71
822.93	212.64
823.25	212.68
823.57	212.66
823.88	212.72
824.20	212.75
824.52	212.77
824.83	212.78
825.15	212.74
825.47	212.73
825.79	212.68
826.10	212.63
826.42	212.62
826.74	212.66
827.05	212.66
827.37	212.60
827.69	212.60
828.00	212.52
828.32	212.56
828.64	212.50
828.95	212.67
829.27	212.54
829.58	212.53
829.90	212.58
830.22	212.63
830.53	212.42
830.85	212.39
831.17	212.31
831.48	212.30
831.80	212.26
832.11	212.25
832.43	212.23
832.75	212.31
833.06	212.51
833.38	212.31
833.69	212.24
834.01	212.30
834.32	212.28
834.64	212.29
834.96	212.24
835.27	212.25
835.59	212.13
835.90	212.02
836.22	211.98
836.53	211.94
836.85	211.87
837.16	212.33
837.48	212.31
837.79	212.39
838.11	212.37
838.42	212.46
838.74	212.50
839.05	212.45
839.37	212.33
839.68	212.09
840.00	212.22
840.31	212.33
840.63	212.31
840.94	212.35
841.26	212.34
841.57	212.31
841.88	212.32
842.20	212.29
842.51	212.25
842.83	212.26
843.14	212.55
843.46	212.59
843.77	212.32
844.08	212.35
844.40	212.28
844.71	212.30
845.03	212.20
845.34	212.18
845.65	212.16
845.97	212.25
846.28	212.25
846.60	212.20
846.91	212.18
847.22	212.19
847.54	212.21
847.85	212.22
848.16	212.24
848.48	212.22
848.79	212.31
849.10	212.38
849.42	212.44
849.73	212.14
850.04	212.08
850.36	211.97
850.67	211.96
850.98	211.90
851.30	211.93
851.61	211.91
851.92	211.90
852.23	211.99
852.55	211.96
852.86	211.97
853.17	211.93
853.49	212.01
853.80	212.00
854.11	212.06
854.42	212.11
854.74	212.06
855.05	212.06
855.36	211.88
855.67	211.84
855.99	211.84
856.30	212.19
856.61	212.22
856.92	212.22
857.23	212.24
857.55	212.23
857.86	212.20
858.17	212.31
858.48	212.18
858.79	212.12
859.11	212.19
859.42	212.24
859.73	212.20
860.04	212.21
860.35	212.08
860.66	211.99
860.98	211.95
861.29	211.99
861.60	211.96
861.91	212.07
862.22	212.08
862.53	211.95
862.84	211.55
863.16	211.62
863.47	211.59
863.78	211.59
864.09	211.63
864.40	211.61
864.71	211.53
865.02	211.62
865.33	211.59
865.64	211.48
865.95	211.45
866.27	211.69
866.58	211.65
866.89	211.73
867.20	211.73
867.51	211.68
867.82	211.63
868.13	211.67
868.44	211.58
868.75	211.61
869.06	211.70
869.37	211.73
869.68	211.59
869.99	211.66
870.30	211.70
870.61	211.70
870.92	211.61
871.23	211.60
871.54	211.67
871.85	211.72
872.16	211.75
872.47	211.65
872.78	211.43
873.09	211.37
873.40	211.32
873.71	211.36
874.02	211.27
874.33	211.24
874.64	211.21
874.95	211.27
875.26	211.21
875.56	211.21
875.87	211.23
876.18	211.27
876.49	211.55
876.80	211.46
877.11	211.47
877.42	211.52
877.73	211.50
878.04	211.45
878.35	211.51
878.66	211.47
878.96	211.51
879.27	211.51
879.58	211.50
879.89	211.47
880.20	211.59
880.51	211.62
880.82	211.65
881.12	211.68
881.43	211.65
881.74	211.60
882.05	211.51
882.36	211.45
882.67	211.44
882.97	211.13
883.28	211.17
883.59	211.12
883.90	211.23
884.21	211.26
884.51	211.19
884.82	211.09
885.13	211.16
885.44	211.17
885.74	211.17
886.05	211.18
886.36	211.18
886.67	210.98
886.98	211.20
887.28	211.26
887.59	211.29
887.90	211.26
888.20	211.25
888.51	211.31
888.82	211.28
889.13	211.28
889.43	211.58
889.74	211.58
890.05	211.54
890.35	211.40
890.66	211.40
890.97	211.42
891.28	211.45
891.58	211.42
891.89	211.44
892.20	211.44
892.50	211.37
892.81	211.35
893.12	211.32
893.42	211.15
893.73	211.08
894.04	210.95
894.34	210.97
894.65	211.01
894.95	210.97
895.26	210.97
895.57	211.10
895.87	210.70
896.18	210.75
896.48	210.85
896.79	210.83
897.10	210.83
897.40	210.82
897.71	210.80
898.01	210.76
898.32	210.82
898.63	210.83
898.93	210.86
899.24	210.86
899.54	210.91
899.85	210.87
900.15	210.91
900.46	210.99
900.76	211.04
901.07	211.02
901.38	211.06
901.68	211.08
901.99	211.00
902.29	211.06
902.60	210.94
902.90	210.85
903.21	210.91
903.51	210.86
903.82	210.94
904.12	210.98
904.43	211.05
904.73	210.94
905.03	210.94
905.34	211.31
905.64	211.29
905.95	211.29
906.25	211.28
906.56	211.23
906.86	211.22
907.17	211.19
907.47	211.20
907.77	211.14
908.08	211.13
908.38	211.10
908.69	211.10
908.99	211.18
909.30	211.20
909.60	211.18
909.90	211.21
910.21	211.08
910.51	211.06
910.81	210.99
911.12	210.97
911.42	210.99
911.73	210.62
912.03	210.69
912.33	210.72
912.64	210.77
912.94	210.74
913.24	210.74
913.55	210.65
913.85	210.64
914.15	210.79
914.46	210.81
914.76	210.85
915.06	210.81
915.37	210.75
915.67	210.74
915.97	210.84
916.27	210.84
916.58	210.90
916.88	210.83
917.18	210.82
917.49	211.15
917.79	211.10
918.09	211.16
918.39	211.31
918.70	211.33
919.00	211.29
919.30	211.39
919.60	211.34
919.91	211.39
920.21	211.45
920.51	211.32
920.81	211.34
921.12	211.36
921.42	211.40
921.72	211.52
922.02	211.60
922.32	211.51
922.63	211.50
922.93	211.73
923.23	211.79
923.53	211.75
923.83	211.52
924.13	211.66
924.44	211.65
924.74	211.74
925.04	211.75
925.34	211.77
925.64	211.70
925.94	211.72
926.24	211.89
926.55	211.87
926.85	211.95
927.15	211.93
927.45	211.91
927.75	211.94
928.05	211.93
928.35	211.84
928.65	211.95
928.95	212.01
929.26	211.79
929.56	211.84
929.86	212.00
930.16	211.95
930.46	211.92
930.76	211.92
931.06	211.70
931.36	211.69
931.66	211.73
931.96	211.78
932.26	211.83
932.56	211.67
932.86	211.67
933.16	211.64
933.46	211.63
933.76	211.57
934.06	211.58
934.36	211.64
934.66	211.71
934.96	211.65
935.26	211.66
935.56	211.74
935.86	211.66
936.16	211.55
936.46	211.50
936.76	211.46
937.06	211.41
937.36	211.43
937.66	211.42
937.96	211.42
938.26	211.34
938.56	211.30
938.86	211.31
939.16	211.35
939.46	211.40
939.76	211.47
940.06	211.49
940.35	211.44
940.65	211.23
940.95	211.23
941.25	211.20
941.55	211.11
941.85	211.03
942.15	211.10
942.45	211.17
942.75	211.20
943.04	211.13
943.34	211.19
943.64	211.17
943.94	211.17
944.24	211.20
944.54	211.26
944.84	211.18
945.13	211.14
945.43	211.10
945.73	211.06
946.03	210.98
946.33	210.87
946.62	210.80
946.92	210.81
947.22	210.79
947.52	210.76
947.82	210.86
948.11	210.85
948.41	210.78
948.71	210.71
949.01	210.80
949.31	210.81
949.60	210.82
949.90	210.87
950.20	210.81
950.50	210.72
950.79	210.67
951.09	210.76
951.39	210.78
951.69	210.73
951.98	210.83
952.28	210.91
952.58	211.00
952.87	211.05
953.17	211.11
953.47	211.08
953.76	211.05
954.06	210.94
954.36	210.97
954.66	210.92
954.95	211.03
955.25	211.03
955.55	211.04
955.84	211.02
956.14	211.03
956.44	210.99
956.73	210.96
957.03	210.96
957.32	210.97
957.62	210.97
957.92	211.10
958.21	211.05
958.51	211.43
958.81	211.45
959.10	211.51
959.40	211.59
959.69	211.57
959.99	211.71
960.29	211.76
960.58	211.67
960.88	211.84
961.17	211.75
961.47	211.72
961.76	211.74
962.06	211.79
962.36	211.72
962.65	211.84
962.95	211.89
963.24	211.89
963.54	211.84
963.83	211.85
964.13	211.71
964.42	211.63
964.72	211.29
965.01	211.20
965.31	211.15
965.60	211.02
965.90	211.29
966.19	211.17
966.49	211.20
966.78	211.30
967.08	211.29
967.37	211.34
967.67	211.35
967.96	211.42
968.26	211.37
968.55	211.47
968.85	211.43
969.14	211.44
969.43	211.42
969.73	211.41
970.02	211.45
970.32	211.50
970.61	211.49
970.91	211.44
971.20	211.47
971.49	211.40
971.79	211.54
972.08	211.29
972.38	211.33
972.67	211.32
972.96	211.35
973.26	211.26
973.55	211.32
973.85	211.26
974.14	211.17
974.43	211.17
974.73	211.06
975.02	211.05
975.31	210.94
975.61	210.93
975.90	211.01
976.19	210.89
976.49	210.95
976.78	211.04
977.07	210.99
977.37	211.01
977.66	211.11
977.95	210.98
978.24	211.02
978.54	211.04
978.83	211.01
979.12	210.95
979.42	210.95
979.71	210.87
980.00	210.91
980.29	210.95
980.59	210.92
980.88	210.97
981.17	210.96
981.46	210.99
981.76	211.06
982.05	211.04
982.34	211.12
982.63	211.08
982.93	211.00
983.22	211.12
983.51	211.19
983.80	211.23
984.09	211.30
984.39	211.27
984.68	211.22
984.97	211.24
985.26	211.23
985.55	211.25
985.85	211.27
986.14	211.25
986.43	211.29
986.72	211.27
987.01	211.23
987.30	211.22
987.59	211.27
987.89	211.29
988.18	211.28
988.47	211.22
988.76	211.20
989.05	211.22
989.34	211.21
989.63	211.22
989.92	211.23
990.22	211.14
990.51	211.19
990.80	211.17
991.09	211.19
991.38	211.22
991.67	211.20
991.96	211.15
992.25	211.17
992.54	211.08
992.83	211.09
993.12	211.11
993.41	211.18
993.70	211.31
993.99	211.33
994.28	211.37
994.58	211.49
994.87	211.50
995.16	211.51
995.45	211.42
995.74	211.32
996.03	211.34
996.32	211.42
996.61	211.44
996.90	211.42
997.19	211.40
997.48	211.47
997.77	211.42
998.06	211.41
998.34	211.30
998.63	211.33
998.92	211.36
999.21	211.40
999.50	211.44
999.79	211.32
1000.08	211.29
1000.37	211.29
1000.66	211.21
1000.95	211.25
1001.24	211.25
1001.53	211.33
1001.82	211.34
1002.11	211.25
1002.40	211.31
1002.68	211.34
1002.97	211.62
1003.26	211.57
1003.55	211.44
1003.84	211.46
1004.13	211.59
1004.42	211.67
1004.71	211.72
1004.99	211.66
1005.28	211.68
1005.57	211.56
1005.86	211.51
1006.15	211.52
1006.44	211.43
1006.72	211.46
1007.01	211.40
1007.30	211.42
1007.59	211.39
1007.88	211.39
1008.17	211.53
1008.45	211.47
1008.74	211.39
1009.03	211.24
1009.32	211.28
1009.60	211.28
1009.89	211.35
1010.18	211.22
1010.47	211.11
1010.76	210.99
1011.04	210.99
1011.33	210.99
1011.62	211.03
1011.91	211.07
1012.19	211.07
1012.48	211.06
1012.77	211.10
1013.05	211.28
1013.34	211.23
1013.63	211.18
1013.92	211.24
1014.20	211.05
1014.49	210.99
1014.78	211.00
1015.06	210.83
1015.35	210.81
1015.64	210.93
1015.92	210.86
1016.21	210.86
1016.50	210.92
1016.78	211.06
1017.07	211.10
1017.36	211.09
1017.64	211.07
1017.93	211.10
1018.22	211.07
1018.50	211.06
1018.79	211.01
1019.08	210.81
1019.36	210.88
1019.65	210.82
1019.93	210.91
1020.22	210.97
1020.51	211.23
1020.79	211.21
1021.08	210.25
1021.36	209.85
1021.65	211.25
1021.94	210.25
1022.22	211.95
1022.51	209.85
1022.79	213.45
1023.08	210.75
1023.36	216.10
1023.65	210.25
>>>>>End Processed Spectral Data<<<<<
