SpectraSuite Data File
++++++++++++++++++++++++++++++++++++
Date: Mon Feb 25 17:06:27 EST 2013
User: group
Dark Spectrum Present: No
Reference Spectrum Present: No
Number of Sampled Component Spectra: 1
Spectrometers: USB2E7196
Integration Time (usec): 104000 (USB2E7196)
Spectra Averaged: 20 (USB2E7196)
Boxcar Smoothing: 10 (USB2E7196)
Correct for Electrical Dark: No (USB2E7196)
Strobe/Lamp Enabled: No (USB2E7196)
Correct for Detector Non-linearity: No (USB2E7196)
Correct for Stray Light: No (USB2E7196)
Number of Pixels in Processed Spectrum: 2048
>>>>>Begin Processed Spectral Data<<<<<
339.09	0.00
339.48	199.30
339.86	199.30
340.24	202.15
340.63	203.45
341.01	209.95
341.39	206.65
341.78	208.25
342.16	209.80
342.54	208.35
342.93	198.57
343.31	208.52
343.69	209.06
344.07	209.61
344.46	210.05
344.84	210.35
345.22	210.36
345.60	210.55
345.99	210.59
346.37	210.63
346.75	210.71
347.13	210.71
347.52	210.69
347.90	210.80
348.28	210.71
348.66	210.75
349.05	210.60
349.43	210.60
349.81	210.54
350.19	210.60
350.57	210.62
350.96	210.72
351.34	210.77
351.72	210.76
352.10	210.80
352.48	210.79
352.87	210.78
353.25	210.82
353.63	210.82
354.01	210.91
354.39	211.02
354.77	211.06
355.15	211.20
355.54	211.17
355.92	211.05
356.30	211.20
356.68	211.50
357.06	211.50
357.44	211.53
357.82	211.62
358.20	211.62
358.58	211.64
358.97	211.69
359.35	211.86
359.73	211.99
360.11	212.01
360.49	212.09
360.87	212.24
361.25	212.31
361.63	212.52
362.01	212.60
362.39	212.56
362.77	212.69
363.15	212.73
363.53	212.79
363.91	212.83
364.29	212.91
364.67	212.61
365.05	212.74
365.43	212.85
365.81	212.87
366.19	213.09
366.57	213.28
366.95	213.21
367.33	213.16
367.71	213.17
368.09	213.27
368.47	213.25
368.85	213.18
369.23	213.27
369.61	213.10
369.99	213.24
370.37	213.30
370.75	213.45
371.13	213.32
371.51	213.24
371.89	213.29
372.27	213.35
372.65	213.43
373.03	213.44
373.41	213.34
373.78	213.35
374.16	213.15
374.54	213.04
374.92	213.00
375.30	213.07
375.68	212.94
376.06	212.91
376.44	212.86
376.82	212.98
377.19	212.92
377.57	212.88
377.95	212.67
378.33	212.62
378.71	212.32
379.09	212.40
379.47	212.54
379.84	212.44
380.22	212.25
380.60	212.03
380.98	211.91
381.36	211.84
381.73	211.73
382.11	211.75
382.49	211.69
382.87	211.60
383.25	211.46
383.62	211.81
384.00	211.71
384.38	211.68
384.76	211.58
385.13	211.64
385.51	211.62
385.89	211.54
386.27	211.45
386.64	211.50
387.02	211.44
387.40	211.26
387.78	211.24
388.15	211.22
388.53	211.19
388.91	211.13
389.29	211.08
389.66	211.07
390.04	210.90
390.42	210.91
390.79	210.87
391.17	210.84
391.55	210.46
391.92	210.38
392.30	210.38
392.68	210.30
393.05	210.27
393.43	210.24
393.81	210.30
394.18	210.26
394.56	210.29
394.94	210.29
395.31	210.27
395.69	210.38
396.06	210.40
396.44	210.47
396.82	210.49
397.19	210.74
397.57	210.74
397.95	210.80
398.32	210.69
398.70	210.77
399.07	210.82
399.45	210.79
399.82	210.77
400.20	210.67
400.58	210.74
400.95	210.55
401.33	210.66
401.70	210.91
402.08	210.92
402.45	210.83
402.83	210.93
403.20	211.06
403.58	211.05
403.95	211.17
404.33	211.19
404.71	211.27
405.08	211.52
405.46	211.60
405.83	211.81
406.21	211.93
406.58	212.06
406.96	212.15
407.33	212.32
407.70	212.55
408.08	213.04
408.45	213.19
408.83	213.47
409.20	213.69
409.58	213.63
409.95	213.94
410.33	214.22
410.70	214.39
411.08	214.68
411.45	215.01
411.82	215.26
412.20	215.74
412.57	216.18
412.95	216.15
413.32	216.64
413.69	217.01
414.07	217.51
414.44	217.94
414.82	218.51
415.19	219.12
415.56	219.73
415.94	220.18
416.31	220.95
416.68	221.68
417.06	222.47
417.43	223.44
417.81	224.40
418.18	225.45
418.55	226.48
418.93	227.55
419.30	228.62
419.67	229.87
420.04	231.10
420.42	232.35
420.79	234.08
421.16	235.51
421.54	237.20
421.91	238.80
422.28	240.46
422.66	242.13
423.03	244.06
423.40	245.91
423.77	247.89
424.15	249.72
424.52	251.70
424.89	254.00
425.26	256.01
425.64	257.98
426.01	260.18
426.38	262.50
426.75	264.93
427.13	267.37
427.50	269.92
427.87	272.55
428.24	275.18
428.61	277.57
428.99	280.53
429.36	283.47
429.73	286.39
430.10	289.53
430.47	292.69
430.85	295.79
431.22	299.17
431.59	302.97
431.96	306.54
432.33	310.45
432.70	314.17
433.08	318.69
433.45	322.88
433.82	326.99
434.19	331.64
434.56	336.11
434.93	340.43
435.30	344.69
435.68	349.48
436.05	354.35
436.42	359.17
436.79	363.50
437.16	368.26
437.53	373.22
437.90	378.12
438.27	382.97
438.64	387.99
439.01	392.68
439.38	396.75
439.75	400.75
440.13	405.28
440.50	409.53
440.87	413.08
441.24	416.88
441.61	420.96
441.98	423.99
442.35	427.63
442.72	431.31
443.09	434.98
443.46	437.14
443.83	438.55
444.20	439.83
444.57	441.74
444.94	442.65
445.31	443.77
445.68	445.13
446.05	445.69
446.42	445.45
446.79	445.07
447.16	444.54
447.53	444.48
447.90	443.00
448.27	441.54
448.64	439.17
449.01	437.42
449.37	434.45
449.74	431.57
450.11	428.13
450.48	424.21
450.85	420.12
451.22	416.84
451.59	413.71
451.96	410.60
452.33	406.39
452.70	402.55
453.07	398.00
453.43	392.95
453.80	388.44
454.17	384.03
454.54	379.98
454.91	375.69
455.28	371.36
455.65	367.29
456.02	363.65
456.38	360.26
456.75	356.03
457.12	352.40
457.49	348.85
457.86	345.23
458.23	342.30
458.59	339.12
458.96	335.75
459.33	332.86
459.70	330.00
460.07	327.70
460.43	325.24
460.80	322.78
461.17	320.64
461.54	318.43
461.91	316.35
462.27	314.16
462.64	312.18
463.01	310.03
463.38	308.18
463.74	305.72
464.11	303.90
464.48	302.38
464.85	300.75
465.21	299.52
465.58	298.23
465.95	296.59
466.32	295.24
466.68	293.86
467.05	292.48
467.42	291.07
467.78	289.50
468.15	288.03
468.52	286.97
468.88	285.57
469.25	284.41
469.62	283.49
469.98	282.36
470.35	281.44
470.72	280.43
471.08	279.34
471.45	278.53
471.82	277.76
472.18	276.82
472.55	276.14
472.92	275.25
473.28	274.47
473.65	273.66
474.02	272.94
474.38	272.37
474.75	271.90
475.11	271.37
475.48	271.11
475.85	270.71
476.21	270.25
476.58	270.00
476.94	269.64
477.31	269.26
477.67	269.05
478.04	268.70
478.41	268.59
478.77	268.69
479.14	268.38
479.50	268.22
479.87	268.19
480.23	268.12
480.60	267.97
480.96	267.91
481.33	268.19
481.69	268.20
482.06	268.25
482.42	268.23
482.79	268.38
483.15	268.41
483.52	268.59
483.88	268.68
484.25	268.73
484.61	268.90
484.98	269.14
485.34	269.52
485.71	269.94
486.07	270.28
486.44	270.24
486.80	270.65
487.17	270.88
487.53	271.39
487.90	271.91
488.26	272.60
488.62	273.18
488.99	273.62
489.35	274.23
489.72	274.84
490.08	275.53
490.44	276.08
490.81	276.73
491.17	277.38
491.54	278.28
491.90	279.24
492.26	280.09
492.63	280.96
492.99	281.80
493.36	282.74
493.72	283.69
494.08	284.70
494.45	285.72
494.81	287.00
495.17	288.00
495.54	289.08
495.90	290.14
496.26	291.35
496.63	292.60
496.99	293.84
497.35	295.14
497.72	296.48
498.08	297.75
498.44	299.30
498.80	300.80
499.17	302.20
499.53	303.64
499.89	305.21
500.26	306.60
500.62	307.94
500.98	309.41
501.34	310.83
501.71	312.33
502.07	313.98
502.43	315.40
502.79	316.94
503.16	318.46
503.52	320.00
503.88	321.47
504.24	323.06
504.60	324.58
504.97	326.25
505.33	327.78
505.69	329.67
506.05	331.15
506.41	332.76
506.78	334.26
507.14	335.59
507.50	337.10
507.86	338.68
508.22	340.35
508.59	341.85
508.95	343.44
509.31	345.30
509.67	346.77
510.03	348.40
510.39	350.12
510.75	351.74
511.12	353.33
511.48	354.90
511.84	356.34
512.20	357.95
512.56	359.51
512.92	361.12
513.28	362.64
513.64	364.18
514.00	365.74
514.37	367.38
514.73	369.32
515.09	370.95
515.45	372.65
515.81	374.35
516.17	375.96
516.53	377.65
516.89	379.11
517.25	380.83
517.61	382.54
517.97	384.15
518.33	385.81
518.69	387.55
519.05	389.29
519.41	391.07
519.77	393.09
520.13	394.89
520.49	396.65
520.85	398.50
521.21	400.55
521.57	402.50
521.93	404.39
522.29	406.26
522.65	408.16
523.01	410.24
523.37	412.12
523.73	414.22
524.09	416.33
524.45	418.43
524.81	420.57
525.17	422.76
525.53	424.97
525.89	427.34
526.25	429.69
526.61	432.05
526.97	434.37
527.33	436.58
527.68	439.36
528.04	441.84
528.40	444.25
528.76	446.77
529.12	449.32
529.48	452.05
529.84	454.48
530.20	457.25
530.56	459.96
530.91	462.75
531.27	465.60
531.63	468.53
531.99	471.43
532.35	474.34
532.71	477.23
533.07	480.28
533.42	483.48
533.78	486.40
534.14	489.28
534.50	492.28
534.86	495.46
535.21	497.99
535.57	501.10
535.93	503.99
536.29	507.10
536.65	510.21
537.00	513.11
537.36	516.22
537.72	519.08
538.08	522.06
538.44	525.08
538.79	528.27
539.15	531.24
539.51	534.34
539.87	537.49
540.22	540.53
540.58	543.69
540.94	546.52
541.29	549.65
541.65	552.64
542.01	555.83
542.37	558.89
542.72	562.10
543.08	564.98
543.44	568.24
543.79	570.82
544.15	573.84
544.51	577.07
544.87	580.25
545.22	583.38
545.58	586.41
545.94	589.26
546.29	591.99
546.65	594.79
547.01	597.62
547.36	600.39
547.72	603.14
548.07	605.69
548.43	608.27
548.79	610.80
549.14	613.53
549.50	616.30
549.86	618.61
550.21	621.08
550.57	623.82
550.92	626.09
551.28	628.64
551.64	630.92
551.99	633.25
552.35	635.41
552.70	637.61
553.06	639.69
553.41	642.10
553.77	644.52
554.13	646.72
554.48	649.01
554.84	651.32
555.19	653.45
555.55	655.67
555.90	657.65
556.26	659.66
556.61	661.56
556.97	663.05
557.32	664.82
557.68	666.49
558.03	668.21
558.39	669.94
558.74	671.85
559.10	673.65
559.45	675.27
559.81	677.08
560.16	678.59
560.52	680.31
560.87	681.88
561.23	683.02
561.58	684.86
561.94	686.30
562.29	687.41
562.64	688.81
563.00	690.00
563.35	691.47
563.71	692.91
564.06	694.44
564.42	695.80
564.77	697.43
565.12	698.90
565.48	700.31
565.83	701.86
566.19	703.08
566.54	704.03
566.89	704.96
567.25	706.04
567.60	707.40
567.96	708.55
568.31	709.59
568.66	710.69
569.02	711.20
569.37	711.39
569.72	712.20
570.08	712.77
570.43	713.33
570.78	713.65
571.14	713.92
571.49	714.05
571.84	714.60
572.20	714.64
572.55	714.97
572.90	714.84
573.26	714.67
573.61	714.46
573.96	714.59
574.31	714.32
574.67	713.95
575.02	713.26
575.37	712.70
575.72	712.09
576.08	711.86
576.43	711.36
576.78	711.23
577.13	710.80
577.49	710.63
577.84	710.16
578.19	710.00
578.54	710.09
578.90	709.95
579.25	709.42
579.60	708.81
579.95	707.95
580.30	707.53
580.66	707.18
581.01	706.63
581.36	705.84
581.71	705.49
582.06	705.21
582.42	704.83
582.77	704.34
583.12	703.97
583.47	703.43
583.82	703.07
584.17	702.52
584.53	702.14
584.88	701.30
585.23	700.99
585.58	700.11
585.93	699.08
586.28	698.32
586.63	697.74
586.98	697.22
587.34	696.75
587.69	696.01
588.04	695.28
588.39	694.70
588.74	693.91
589.09	693.18
589.44	692.05
589.79	691.27
590.14	690.48
590.49	689.53
590.84	688.42
591.19	687.58
591.54	686.80
591.89	685.48
592.25	684.77
592.60	683.46
592.95	682.41
593.30	681.18
593.65	679.78
594.00	678.41
594.35	678.22
594.70	676.94
595.05	675.83
595.40	674.44
595.75	673.11
596.10	672.21
596.45	671.13
596.80	670.45
597.15	669.42
597.50	668.16
597.85	667.23
598.19	666.16
598.54	664.97
598.89	663.81
599.24	663.05
599.59	661.78
599.94	660.81
600.29	659.74
600.64	658.86
600.99	658.00
601.34	657.09
601.69	655.02
602.04	653.93
602.39	652.66
602.74	651.82
603.08	651.07
603.43	650.28
603.78	649.24
604.13	647.95
604.48	646.84
604.83	646.05
605.18	645.12
605.53	644.09
605.87	642.90
606.22	641.99
606.57	640.74
606.92	639.43
607.27	638.20
607.62	637.01
607.96	635.95
608.31	634.88
608.66	633.57
609.01	632.26
609.36	631.02
609.70	629.79
610.05	628.30
610.40	626.75
610.75	624.97
611.10	623.55
611.44	621.82
611.79	620.30
612.14	618.54
612.49	616.37
612.83	614.67
613.18	612.86
613.53	610.82
613.88	608.93
614.22	607.25
614.57	605.53
614.92	603.88
615.27	601.91
615.61	600.00
615.96	598.31
616.31	596.71
616.65	595.11
617.00	593.32
617.35	591.49
617.70	589.69
618.04	587.67
618.39	585.64
618.74	583.96
619.08	582.00
619.43	580.15
619.78	578.50
620.12	576.69
620.47	575.02
620.82	573.14
621.16	571.23
621.51	569.57
621.85	567.67
622.20	565.77
622.55	563.74
622.89	561.80
623.24	559.93
623.59	557.85
623.93	555.86
624.28	554.12
624.62	552.64
624.97	550.88
625.32	549.15
625.66	547.52
626.01	545.57
626.35	543.86
626.70	542.04
627.04	540.50
627.39	538.70
627.73	536.92
628.08	535.38
628.43	533.63
628.77	531.74
629.12	529.81
629.46	528.19
629.81	526.42
630.15	524.58
630.50	522.72
630.84	520.80
631.19	519.14
631.53	517.19
631.88	514.90
632.22	512.88
632.57	511.35
632.91	509.36
633.26	507.64
633.60	505.73
633.95	504.07
634.29	502.07
634.64	500.38
634.98	498.49
635.32	496.68
635.67	495.02
636.01	493.45
636.36	491.69
636.70	489.93
637.05	488.24
637.39	486.61
637.73	485.20
638.08	483.88
638.42	482.20
638.77	480.71
639.11	479.16
639.45	477.54
639.80	475.61
640.14	473.90
640.49	472.17
640.83	470.50
641.17	468.65
641.52	466.90
641.86	465.15
642.20	463.64
642.55	461.68
642.89	459.96
643.23	457.91
643.58	456.62
643.92	454.75
644.26	453.10
644.61	451.37
644.95	449.32
645.29	447.51
645.64	445.75
645.98	443.89
646.32	442.31
646.66	440.43
647.01	438.69
647.35	437.18
647.69	435.50
648.04	433.90
648.38	432.29
648.72	430.59
649.06	428.84
649.41	427.06
649.75	425.60
650.09	423.90
650.43	422.25
650.78	420.19
651.12	418.52
651.46	416.81
651.80	415.21
652.14	413.58
652.49	411.99
652.83	410.42
653.17	408.79
653.51	406.90
653.85	405.36
654.20	403.91
654.54	402.08
654.88	400.49
655.22	398.84
655.56	397.15
655.90	395.50
656.25	393.86
656.59	392.30
656.93	390.55
657.27	389.03
657.61	387.49
657.95	386.03
658.29	384.48
658.64	383.10
658.98	381.48
659.32	379.85
659.66	378.26
660.00	376.60
660.34	374.92
660.68	373.48
661.02	371.98
661.36	370.50
661.70	369.11
662.05	367.61
662.39	366.29
662.73	364.94
663.07	363.78
663.41	362.37
663.75	360.89
664.09	359.65
664.43	358.23
664.77	356.81
665.11	355.40
665.45	354.12
665.79	352.73
666.13	351.49
666.47	350.19
666.81	348.84
667.15	347.47
667.49	346.46
667.83	345.35
668.17	344.13
668.51	342.83
668.85	341.66
669.19	340.65
669.53	339.30
669.87	338.03
670.21	336.71
670.55	335.55
670.89	334.64
671.23	333.58
671.57	332.52
671.91	331.44
672.25	330.41
672.58	329.45
672.92	328.28
673.26	327.30
673.60	326.25
673.94	325.22
674.28	324.23
674.62	323.22
674.96	322.17
675.30	321.34
675.64	320.31
675.97	319.36
676.31	318.29
676.65	317.32
676.99	316.60
677.33	315.55
677.67	314.76
678.01	313.62
678.34	312.65
678.68	311.73
679.02	310.80
679.36	309.86
679.70	308.79
680.04	307.93
680.37	306.94
680.71	306.19
681.05	305.39
681.39	304.48
681.73	303.62
682.06	302.69
682.40	301.72
682.74	300.98
683.08	300.25
683.42	299.35
683.75	298.67
684.09	297.74
684.43	297.01
684.77	296.00
685.10	295.18
685.44	294.34
685.78	293.50
686.12	292.76
686.45	291.99
686.79	291.19
687.13	290.51
687.46	289.75
687.80	289.00
688.14	288.13
688.48	287.46
688.81	286.58
689.15	285.94
689.49	285.10
689.82	284.36
690.16	283.40
690.50	282.63
690.83	281.80
691.17	280.89
691.51	280.08
691.84	279.51
692.18	278.80
692.52	278.07
692.85	277.42
693.19	276.83
693.52	276.18
693.86	275.50
694.20	274.79
694.53	274.11
694.87	273.36
695.21	272.76
695.54	272.03
695.88	271.38
696.21	270.58
696.55	270.02
696.88	269.29
697.22	268.58
697.56	268.12
697.89	267.50
698.23	266.92
698.56	266.37
698.90	265.71
699.23	265.12
699.57	264.55
699.90	263.97
700.24	263.27
700.58	262.72
700.91	262.26
701.25	262.00
701.58	261.51
701.92	261.10
702.25	260.51
702.59	260.02
702.92	259.58
703.26	259.05
703.59	258.56
703.93	258.43
704.26	258.05
704.60	257.55
704.93	257.08
705.26	256.58
705.60	256.16
705.93	255.64
706.27	255.29
706.60	254.93
706.94	254.58
707.27	254.13
707.61	253.68
707.94	253.17
708.27	252.36
708.61	251.84
708.94	251.24
709.28	250.85
709.61	250.45
709.94	250.02
710.28	249.72
710.61	249.35
710.95	248.56
711.28	248.52
711.61	248.03
711.95	247.73
712.28	247.44
712.61	247.00
712.95	246.91
713.28	246.65
713.61	246.20
713.95	245.74
714.28	245.51
714.61	245.06
714.95	244.74
715.28	244.43
715.61	244.15
715.95	243.92
716.28	243.52
716.61	243.23
716.95	242.88
717.28	242.46
717.61	242.15
717.94	241.92
718.28	241.34
718.61	241.02
718.94	240.68
719.27	240.34
719.61	240.10
719.94	239.64
720.27	239.15
720.60	238.93
720.94	238.70
721.27	238.34
721.60	238.11
721.93	237.83
722.27	237.60
722.60	237.36
722.93	237.08
723.26	236.94
723.59	236.65
723.93	236.35
724.26	236.15
724.59	235.86
724.92	235.60
725.25	235.46
725.59	235.27
725.92	235.04
726.25	234.83
726.58	234.59
726.91	234.36
727.24	234.25
727.57	233.96
727.91	233.65
728.24	233.53
728.57	233.32
728.90	233.16
729.23	232.96
729.56	232.90
729.89	232.58
730.22	232.26
730.55	231.99
730.89	231.84
731.22	231.64
731.55	231.42
731.88	231.21
732.21	230.93
732.54	230.66
732.87	230.43
733.20	230.19
733.53	230.09
733.86	229.90
734.19	229.64
734.52	229.56
734.85	229.63
735.18	229.32
735.51	229.30
735.84	229.12
736.17	228.90
736.50	228.56
736.83	228.87
737.16	228.76
737.49	228.64
737.82	228.41
738.15	228.33
738.48	228.15
738.81	227.99
739.14	227.70
739.47	227.57
739.80	227.45
740.13	227.35
740.46	227.05
740.79	226.88
741.12	226.74
741.45	226.49
741.78	226.04
742.11	226.04
742.44	225.82
742.77	225.70
743.10	225.59
743.43	225.43
743.75	225.02
744.08	225.34
744.41	225.15
744.74	225.07
745.07	224.85
745.40	224.80
745.73	224.83
746.06	224.80
746.39	224.70
746.71	224.54
747.04	224.37
747.37	224.22
747.70	224.08
748.03	223.93
748.36	223.89
748.68	223.86
749.01	223.66
749.34	223.51
749.67	223.42
750.00	223.38
750.33	223.46
750.65	223.30
750.98	222.73
751.31	222.65
751.64	222.58
751.97	222.72
752.29	222.59
752.62	222.32
752.95	222.14
753.28	222.06
753.60	221.85
753.93	221.87
754.26	221.85
754.59	221.68
754.91	221.58
755.24	221.45
755.57	221.32
755.90	221.15
756.22	221.03
756.55	220.84
756.88	220.62
757.20	220.37
757.53	220.15
757.86	220.10
758.19	219.99
758.51	219.80
758.84	219.43
759.17	219.27
759.49	219.12
759.82	219.21
760.15	219.11
760.47	219.12
760.80	218.91
761.13	218.82
761.45	218.70
761.78	218.56
762.11	218.44
762.43	218.34
762.76	218.20
763.08	218.16
763.41	218.15
763.74	218.09
764.06	217.92
764.39	217.85
764.71	217.68
765.04	217.59
765.37	217.52
765.69	217.48
766.02	217.38
766.34	217.32
766.67	217.08
767.00	217.08
767.32	217.15
767.65	217.35
767.97	217.28
768.30	217.28
768.62	217.18
768.95	217.10
769.27	217.01
769.60	217.03
769.92	216.90
770.25	216.70
770.57	216.58
770.90	216.53
771.22	216.39
771.55	216.43
771.87	216.45
772.20	216.40
772.52	216.62
772.85	216.94
773.17	216.91
773.50	216.84
773.82	216.71
774.15	216.48
774.47	216.15
774.80	216.01
775.12	216.00
775.45	216.02
775.77	215.94
776.09	215.94
776.42	215.86
776.74	215.91
777.07	215.93
777.39	215.92
777.72	215.88
778.04	215.91
778.36	215.80
778.69	215.74
779.01	215.74
779.33	215.40
779.66	215.00
779.98	214.88
780.31	214.87
780.63	214.97
780.95	215.00
781.28	214.94
781.60	214.96
781.92	214.88
782.25	214.81
782.57	214.78
782.89	214.65
783.22	214.65
783.54	214.53
783.86	214.56
784.19	214.49
784.51	214.57
784.83	214.51
785.16	214.49
785.48	214.44
785.80	214.37
786.12	214.41
786.45	214.44
786.77	214.46
787.09	214.48
787.42	214.34
787.74	214.27
788.06	214.32
788.38	214.24
788.71	214.16
789.03	214.10
789.35	214.10
789.67	214.05
789.99	214.04
790.32	214.06
790.64	214.01
790.96	214.30
791.28	214.13
791.61	214.09
791.93	214.10
792.25	213.97
792.57	214.29
792.89	214.16
793.21	214.18
793.54	214.14
793.86	214.07
794.18	214.09
794.50	214.07
794.82	214.00
795.14	214.06
795.47	214.12
795.79	214.15
796.11	214.12
796.43	214.18
796.75	214.15
797.07	214.11
797.39	214.05
797.71	213.79
798.04	213.81
798.36	213.83
798.68	213.78
799.00	213.78
799.32	213.54
799.64	213.54
799.96	213.53
800.28	213.53
800.60	213.45
800.92	213.44
801.24	213.43
801.56	213.46
801.89	213.40
802.21	213.36
802.53	213.32
802.85	213.39
803.17	213.52
803.49	213.46
803.81	213.35
804.13	213.36
804.45	213.22
804.77	213.18
805.09	213.20
805.41	213.12
805.73	213.07
806.05	212.95
806.37	212.97
806.69	212.89
807.01	212.85
807.33	212.86
807.65	212.64
807.97	212.77
808.28	212.75
808.60	212.71
808.92	212.69
809.24	212.87
809.56	212.78
809.88	212.65
810.20	212.60
810.52	212.71
810.84	212.62
811.16	212.63
811.48	212.68
811.80	212.78
812.12	212.77
812.43	212.83
812.75	212.82
813.07	212.72
813.39	212.71
813.71	212.67
814.03	212.62
814.35	212.71
814.67	212.56
814.98	212.54
815.30	212.49
815.62	212.40
815.94	212.13
816.26	212.06
816.58	211.95
816.89	211.95
817.21	211.82
817.53	211.84
817.85	211.83
818.17	211.77
818.48	211.59
818.80	211.68
819.12	211.70
819.44	211.62
819.76	211.61
820.07	211.62
820.39	211.67
820.71	211.67
821.03	211.70
821.34	211.60
821.66	211.61
821.98	211.68
822.30	211.67
822.61	211.93
822.93	211.92
823.25	211.90
823.57	211.91
823.88	211.96
824.20	211.93
824.52	212.06
824.83	212.07
825.15	212.05
825.47	211.96
825.79	211.98
826.10	212.02
826.42	212.03
826.74	212.11
827.05	212.03
827.37	212.01
827.69	211.93
828.00	212.04
828.32	211.99
828.64	211.92
828.95	212.08
829.27	211.95
829.58	211.95
829.90	211.99
830.22	212.00
830.53	211.92
830.85	211.91
831.17	211.77
831.48	211.73
831.80	211.72
832.11	211.72
832.43	211.63
832.75	211.61
833.06	211.80
833.38	211.61
833.69	211.66
834.01	211.72
834.32	211.63
834.64	211.55
834.96	211.47
835.27	211.45
835.59	211.34
835.90	211.31
836.22	211.32
836.53	211.29
836.85	211.22
837.16	211.57
837.48	211.64
837.79	211.75
838.11	211.73
838.42	211.72
838.74	211.76
839.05	211.72
839.37	211.66
839.68	211.41
840.00	211.39
840.31	211.43
840.63	211.43
840.94	211.47
841.26	211.45
841.57	211.52
841.88	211.61
842.20	211.58
842.51	211.45
842.83	211.43
843.14	211.74
843.46	211.82
843.77	211.59
844.08	211.51
844.40	211.37
844.71	211.35
845.03	211.35
845.34	211.31
845.65	211.34
845.97	211.32
846.28	211.35
846.60	211.40
846.91	211.36
847.22	211.30
847.54	211.36
847.85	211.36
848.16	211.36
848.48	211.22
848.79	211.41
849.10	211.50
849.42	211.53
849.73	211.28
850.04	211.25
850.36	211.19
850.67	211.27
850.98	211.29
851.30	211.32
851.61	211.26
851.92	211.26
852.23	211.31
852.55	211.42
852.86	211.37
853.17	211.39
853.49	211.45
853.80	211.53
854.11	211.60
854.42	211.64
854.74	211.58
855.05	211.68
855.36	211.45
855.67	211.45
855.99	211.45
856.30	211.79
856.61	211.78
856.92	211.78
857.23	211.77
857.55	211.73
857.86	211.69
858.17	211.79
858.48	211.73
858.79	211.75
859.11	211.80
859.42	211.88
859.73	211.87
860.04	211.83
860.35	211.78
860.66	211.61
860.98	211.65
861.29	211.73
861.60	211.64
861.91	211.75
862.22	211.66
862.53	211.63
862.84	211.30
863.16	211.37
863.47	211.30
863.78	211.22
864.09	211.29
864.40	211.37
864.71	211.35
865.02	211.45
865.33	211.41
865.64	211.28
865.95	211.26
866.27	211.48
866.58	211.44
866.89	211.50
867.20	211.62
867.51	211.52
867.82	211.53
868.13	211.66
868.44	211.57
868.75	211.66
869.06	211.72
869.37	211.70
869.68	211.59
869.99	211.75
870.30	211.84
870.61	211.85
870.92	211.76
871.23	211.77
871.54	211.82
871.85	211.87
872.16	212.01
872.47	212.02
872.78	211.84
873.09	211.84
873.40	211.78
873.71	211.71
874.02	211.77
874.33	211.63
874.64	211.59
874.95	211.63
875.26	211.56
875.56	211.49
875.87	211.49
876.18	211.50
876.49	211.75
876.80	211.73
877.11	211.68
877.42	211.67
877.73	211.72
878.04	211.60
878.35	211.52
878.66	211.43
878.96	211.35
879.27	211.28
879.58	211.30
879.89	211.24
880.20	211.27
880.51	211.23
880.82	211.23
881.12	211.22
881.43	211.23
881.74	211.20
882.05	211.24
882.36	211.22
882.67	211.23
882.97	210.88
883.28	210.84
883.59	210.88
883.90	210.98
884.21	210.96
884.51	210.94
884.82	210.94
885.13	210.94
885.44	211.00
885.74	211.00
886.05	210.95
886.36	210.97
886.67	210.92
886.98	211.07
887.28	211.13
887.59	211.07
887.90	211.02
888.20	210.97
888.51	211.00
888.82	210.94
889.13	210.96
889.43	211.19
889.74	211.15
890.05	211.04
890.35	211.03
890.66	210.91
890.97	210.96
891.28	210.96
891.58	210.99
891.89	210.90
892.20	210.90
892.50	210.92
892.81	210.95
893.12	210.97
893.42	210.83
893.73	210.87
894.04	210.91
894.34	210.94
894.65	210.97
894.95	210.90
895.26	210.95
895.57	211.07
895.87	210.82
896.18	210.90
896.48	210.96
896.79	210.92
897.10	211.00
897.40	210.99
897.71	211.02
898.01	210.99
898.32	211.11
898.63	211.03
898.93	211.05
899.24	211.01
899.54	211.00
899.85	210.99
900.15	210.90
900.46	210.97
900.76	211.01
901.07	211.09
901.38	211.09
901.68	211.13
901.99	210.98
902.29	210.98
902.60	210.98
902.90	210.98
903.21	210.95
903.51	211.01
903.82	211.09
904.12	211.12
904.43	211.15
904.73	211.12
905.03	211.20
905.34	211.54
905.64	211.53
905.95	211.57
906.25	211.56
906.56	211.62
906.86	211.57
907.17	211.49
907.47	211.50
907.77	211.49
908.08	211.39
908.38	211.41
908.69	211.45
908.99	211.47
909.30	211.47
909.60	211.56
909.90	211.48
910.21	211.38
910.51	211.28
910.81	211.24
911.12	211.23
911.42	211.24
911.73	210.91
912.03	210.90
912.33	210.90
912.64	210.93
912.94	210.87
913.24	210.80
913.55	210.83
913.85	210.78
914.15	210.82
914.46	210.91
914.76	210.91
915.06	210.88
915.37	210.79
915.67	210.79
915.97	210.69
916.27	210.60
916.58	210.62
916.88	210.68
917.18	210.67
917.49	210.92
917.79	210.93
918.09	210.97
918.39	210.99
918.70	210.98
919.00	210.96
919.30	211.16
919.60	211.13
919.91	211.12
920.21	211.15
920.51	211.05
920.81	211.00
921.12	211.06
921.42	211.10
921.72	211.09
922.02	211.14
922.32	211.19
922.63	211.26
922.93	211.34
923.23	211.35
923.53	211.28
923.83	211.02
924.13	211.04
924.44	211.03
924.74	211.15
925.04	211.24
925.34	211.27
925.64	211.13
925.94	211.17
926.24	211.32
926.55	211.26
926.85	211.40
927.15	211.40
927.45	211.34
927.75	211.23
928.05	211.29
928.35	211.24
928.65	211.30
928.95	211.33
929.26	211.25
929.56	211.29
929.86	211.44
930.16	211.46
930.46	211.44
930.76	211.48
931.06	211.32
931.36	211.20
931.66	211.24
931.96	211.22
932.26	211.29
932.56	211.14
932.86	211.16
933.16	211.13
933.46	211.09
933.76	211.02
934.06	211.09
934.36	211.21
934.66	211.20
934.96	211.13
935.26	211.16
935.56	211.22
935.86	211.10
936.16	210.99
936.46	210.92
936.76	210.86
937.06	210.77
937.36	210.80
937.66	210.76
937.96	210.74
938.26	210.74
938.56	210.68
938.86	210.75
939.16	210.88
939.46	210.87
939.76	210.93
940.06	210.97
940.35	210.96
940.65	210.79
940.95	210.84
941.25	210.80
941.55	210.72
941.85	210.69
942.15	210.78
942.45	210.86
942.75	210.85
943.04	210.90
943.34	210.94
943.64	210.88
943.94	210.85
944.24	210.82
944.54	210.78
944.84	210.74
945.13	210.63
945.43	210.51
945.73	210.56
946.03	210.48
946.33	210.43
946.62	210.39
946.92	210.35
947.22	210.35
947.52	210.32
947.82	210.37
948.11	210.30
948.41	210.29
948.71	210.18
949.01	210.22
949.31	210.16
949.60	210.19
949.90	210.27
950.20	210.25
950.50	210.21
950.79	210.23
951.09	210.27
951.39	210.30
951.69	210.25
951.98	210.22
952.28	210.20
952.58	210.21
952.87	210.20
953.17	210.24
953.47	210.20
953.76	210.23
954.06	210.29
954.36	210.27
954.66	210.18
954.95	210.27
955.25	210.27
955.55	210.36
955.84	210.32
956.14	210.32
956.44	210.36
956.73	210.38
957.03	210.43
957.32	210.45
957.62	210.44
957.92	210.47
958.21	210.44
958.51	210.96
958.81	211.02
959.10	211.06
959.40	211.18
959.69	211.22
959.99	211.29
960.29	211.14
960.58	211.15
960.88	211.31
961.17	211.28
961.47	211.37
961.76	211.32
962.06	211.37
962.36	211.35
962.65	211.43
962.95	211.44
963.24	211.43
963.54	211.43
963.83	211.43
964.13	211.45
964.42	211.37
964.72	210.99
965.01	210.98
965.31	211.00
965.60	210.96
965.90	211.15
966.19	211.06
966.49	211.11
966.78	211.10
967.08	211.07
967.37	211.13
967.67	211.02
967.96	211.12
968.26	211.09
968.55	211.22
968.85	211.16
969.14	211.14
969.43	211.15
969.73	211.17
970.02	211.25
970.32	211.25
970.61	211.29
970.91	211.23
971.20	211.22
971.49	211.19
971.79	211.19
972.08	211.00
972.38	211.07
972.67	211.08
972.96	211.15
973.26	211.06
973.55	211.15
973.85	211.17
974.14	211.09
974.43	211.11
974.73	210.94
975.02	210.90
975.31	210.86
975.61	210.85
975.90	210.82
976.19	210.76
976.49	210.79
976.78	210.80
977.07	210.83
977.37	210.78
977.66	210.86
977.95	210.77
978.24	210.75
978.54	210.78
978.83	210.73
979.12	210.64
979.42	210.65
979.71	210.55
980.00	210.48
980.29	210.49
980.59	210.42
980.88	210.61
981.17	210.62
981.46	210.67
981.76	210.67
982.05	210.72
982.34	210.64
982.63	210.70
982.93	210.71
983.22	210.79
983.51	210.84
983.80	210.90
984.09	211.02
984.39	210.98
984.68	211.00
984.97	211.08
985.26	211.04
985.55	211.16
985.85	211.11
986.14	211.24
986.43	211.34
986.72	211.29
987.01	211.06
987.30	211.08
987.59	211.06
987.89	211.06
988.18	210.99
988.47	211.04
988.76	210.94
989.05	210.89
989.34	210.83
989.63	210.93
989.92	210.82
990.22	210.73
990.51	210.76
990.80	210.69
991.09	210.70
991.38	210.85
991.67	210.75
991.96	210.76
992.25	210.75
992.54	210.56
992.83	210.61
993.12	210.65
993.41	210.77
993.70	210.86
993.99	210.87
994.28	210.89
994.58	210.95
994.87	210.97
995.16	210.95
995.45	210.88
995.74	210.73
996.03	210.77
996.32	210.85
996.61	210.87
996.90	210.88
997.19	210.84
997.48	210.85
997.77	210.91
998.06	210.92
998.34	210.83
998.63	210.92
998.92	210.97
999.21	211.04
999.50	211.00
999.79	210.88
1000.08	210.88
1000.37	210.86
1000.66	210.75
1000.95	210.76
1001.24	210.82
1001.53	210.90
1001.82	210.90
1002.11	210.84
1002.40	210.82
1002.68	210.90
1002.97	211.10
1003.26	211.03
1003.55	210.94
1003.84	210.85
1004.13	210.90
1004.42	210.96
1004.71	210.95
1004.99	210.84
1005.28	210.95
1005.57	210.90
1005.86	210.94
1006.15	210.94
1006.44	210.93
1006.72	210.99
1007.01	210.93
1007.30	210.89
1007.59	210.89
1007.88	210.89
1008.17	210.91
1008.45	210.84
1008.74	210.72
1009.03	210.55
1009.32	210.60
1009.60	210.60
1009.89	210.55
1010.18	210.46
1010.47	210.43
1010.76	210.43
1011.04	210.45
1011.33	210.34
1011.62	210.34
1011.91	210.33
1012.19	210.32
1012.48	210.31
1012.77	210.33
1013.05	210.53
1013.34	210.60
1013.63	210.50
1013.92	210.55
1014.20	210.50
1014.49	210.51
1014.78	210.60
1015.06	210.51
1015.35	210.50
1015.64	210.49
1015.92	210.56
1016.21	210.60
1016.50	210.58
1016.78	210.57
1017.07	210.64
1017.36	210.58
1017.64	210.60
1017.93	210.65
1018.22	210.62
1018.50	210.60
1018.79	210.53
1019.08	210.30
1019.36	210.28
1019.65	210.30
1019.93	210.36
1020.22	210.48
1020.51	210.66
1020.79	210.55
1021.08	210.10
1021.36	209.70
1021.65	209.15
1021.94	209.40
1022.22	210.35
1022.51	210.05
1022.79	212.15
1023.08	212.15
1023.36	214.85
1023.65	209.30
>>>>>End Processed Spectral Data<<<<<
