SpectraSuite Data File
++++++++++++++++++++++++++++++++++++
Date: Mon Feb 25 17:18:53 EST 2013
User: group
Dark Spectrum Present: No
Reference Spectrum Present: No
Number of Sampled Component Spectra: 1
Spectrometers: USB2E7196
Integration Time (usec): 104000 (USB2E7196)
Spectra Averaged: 20 (USB2E7196)
Boxcar Smoothing: 10 (USB2E7196)
Correct for Electrical Dark: No (USB2E7196)
Strobe/Lamp Enabled: No (USB2E7196)
Correct for Detector Non-linearity: No (USB2E7196)
Correct for Stray Light: No (USB2E7196)
Number of Pixels in Processed Spectrum: 2048
>>>>>Begin Processed Spectral Data<<<<<
339.09	0.00
339.48	197.05
339.86	200.40
340.24	200.60
340.63	203.55
341.01	209.95
341.39	205.85
341.78	208.35
342.16	210.35
342.54	208.60
342.93	198.50
343.31	208.52
343.69	209.15
344.07	209.65
344.46	210.21
344.84	210.54
345.22	210.58
345.60	210.92
345.99	211.10
346.37	211.17
346.75	211.40
347.13	211.46
347.52	211.61
347.90	211.81
348.28	211.96
348.66	212.10
349.05	212.10
349.43	212.19
349.81	212.35
350.19	212.39
350.57	212.52
350.96	212.67
351.34	212.78
351.72	212.86
352.10	212.96
352.48	213.03
352.87	213.17
353.25	213.24
353.63	213.21
354.01	213.24
354.39	213.36
354.77	213.33
355.15	213.53
355.54	213.45
355.92	213.39
356.30	213.41
356.68	213.68
357.06	213.77
357.44	213.79
357.82	213.75
358.20	213.84
358.58	213.88
358.97	213.88
359.35	213.97
359.73	214.10
360.11	214.17
360.49	214.22
360.87	214.22
361.25	214.30
361.63	214.43
362.01	214.55
362.39	214.51
362.77	214.58
363.15	214.54
363.53	214.65
363.91	214.65
364.29	214.72
364.67	214.46
365.05	214.43
365.43	214.48
365.81	214.56
366.19	214.72
366.57	214.87
366.95	214.89
367.33	214.86
367.71	214.86
368.09	214.89
368.47	214.85
368.85	214.89
369.23	214.97
369.61	214.90
369.99	214.95
370.37	215.05
370.75	215.22
371.13	215.15
371.51	215.03
371.89	215.12
372.27	215.04
372.65	215.00
373.03	214.96
373.41	214.86
373.78	214.76
374.16	214.52
374.54	214.35
374.92	214.30
375.30	214.28
375.68	214.13
376.06	214.14
376.44	214.03
376.82	214.04
377.19	214.00
377.57	213.95
377.95	213.80
378.33	213.67
378.71	213.40
379.09	213.39
379.47	213.45
379.84	213.34
380.22	213.33
380.60	213.18
380.98	213.10
381.36	213.09
381.73	213.09
382.11	213.17
382.49	213.13
382.87	213.10
383.25	213.05
383.62	213.46
384.00	213.34
384.38	213.34
384.76	213.34
385.13	213.40
385.51	213.36
385.89	213.32
386.27	213.33
386.64	213.41
387.02	213.37
387.40	213.25
387.78	213.30
388.15	213.27
388.53	213.29
388.91	213.32
389.29	213.28
389.66	213.29
390.04	213.18
390.42	213.21
390.79	213.13
391.17	213.08
391.55	212.67
391.92	212.65
392.30	212.74
392.68	212.61
393.05	212.59
393.43	212.58
393.81	212.63
394.18	212.60
394.56	212.53
394.94	212.60
395.31	212.65
395.69	212.75
396.06	212.83
396.44	212.90
396.82	212.91
397.19	213.09
397.57	213.04
397.95	213.15
398.32	213.08
398.70	213.15
399.07	213.28
399.45	213.35
399.82	213.41
400.20	213.37
400.58	213.39
400.95	213.28
401.33	213.46
401.70	213.69
402.08	213.82
402.45	213.89
402.83	213.96
403.20	214.06
403.58	214.04
403.95	214.13
404.33	214.30
404.71	214.41
405.08	214.73
405.46	214.94
405.83	215.12
406.21	215.35
406.58	215.59
406.96	215.77
407.33	215.92
407.70	216.16
408.08	216.71
408.45	217.12
408.83	217.57
409.20	217.79
409.58	217.90
409.95	218.29
410.33	218.69
410.70	219.02
411.08	219.53
411.45	220.06
411.82	220.59
412.20	221.16
412.57	221.92
412.95	222.22
413.32	222.91
413.69	223.48
414.07	224.13
414.44	224.91
414.82	225.72
415.19	226.75
415.56	227.74
415.94	228.59
416.31	229.73
416.68	230.79
417.06	232.17
417.43	233.52
417.81	234.81
418.18	236.37
418.55	237.98
418.93	239.54
419.30	241.11
419.67	242.88
420.04	244.66
420.42	246.52
420.79	248.86
421.16	251.14
421.54	253.60
421.91	256.07
422.28	258.58
422.66	261.19
423.03	263.81
423.40	266.40
423.77	269.24
424.15	272.06
424.52	275.07
424.89	278.30
425.26	281.35
425.64	284.43
426.01	287.66
426.38	291.05
426.75	294.63
427.13	298.30
427.50	302.12
427.87	306.08
428.24	310.05
428.61	313.67
428.99	317.80
429.36	322.24
429.73	326.62
430.10	330.97
430.47	335.53
430.85	340.15
431.22	345.07
431.59	350.41
431.96	355.38
432.33	360.89
432.70	366.29
433.08	372.63
433.45	378.51
433.82	384.22
434.19	390.75
434.56	397.05
434.93	403.19
435.30	409.21
435.68	416.00
436.05	422.51
436.42	429.23
436.79	435.24
437.16	441.61
437.53	448.36
437.90	455.13
438.27	461.76
438.64	468.59
439.01	475.09
439.38	480.58
439.75	486.10
440.13	492.36
440.50	498.16
440.87	502.95
441.24	507.92
441.61	513.51
441.98	517.57
442.35	522.42
442.72	527.18
443.09	531.79
443.46	534.50
443.83	536.37
444.20	537.85
444.57	540.07
444.94	541.15
445.31	542.38
445.68	543.64
446.05	543.94
446.42	543.22
446.79	542.34
447.16	541.41
447.53	540.58
447.90	537.92
448.27	535.19
448.64	531.50
449.01	528.71
449.37	524.20
449.74	519.66
450.11	514.41
450.48	508.66
450.85	502.68
451.22	497.62
451.59	492.82
451.96	488.22
452.33	482.10
452.70	476.56
453.07	469.82
453.43	462.93
453.80	456.64
454.17	450.56
454.54	444.74
454.91	438.50
455.28	432.61
455.65	426.96
456.02	421.77
456.38	417.05
456.75	411.27
457.12	406.33
457.49	401.45
457.86	396.54
458.23	392.51
458.59	388.20
458.96	383.64
459.33	379.70
459.70	375.72
460.07	372.63
460.43	368.99
460.80	365.69
461.17	362.72
461.54	359.56
461.91	356.60
462.27	353.63
462.64	351.08
463.01	348.23
463.38	345.64
463.74	342.56
464.11	340.10
464.48	338.06
464.85	335.74
465.21	334.20
465.58	332.45
465.95	330.17
466.32	328.32
466.68	326.59
467.05	324.79
467.42	323.03
467.78	321.15
468.15	319.49
468.52	318.30
468.88	316.65
469.25	315.17
469.62	314.04
469.98	312.74
470.35	311.64
470.72	310.61
471.08	309.35
471.45	308.44
471.82	307.67
472.18	306.64
472.55	306.00
472.92	305.09
473.28	304.35
473.65	303.69
474.02	303.00
474.38	302.51
474.75	302.12
475.11	301.73
475.48	301.59
475.85	301.42
476.21	301.23
476.58	301.14
476.94	301.28
477.31	301.23
477.67	301.26
478.04	301.37
478.41	301.52
478.77	302.11
479.14	302.35
479.50	302.64
479.87	303.13
480.23	303.64
480.60	304.11
480.96	304.58
481.33	305.41
481.69	306.26
482.06	307.08
482.42	307.89
482.79	308.87
483.15	309.93
483.52	311.23
483.88	312.36
484.25	313.65
484.61	314.98
484.98	316.43
485.34	318.19
485.71	320.02
486.07	321.98
486.44	323.64
486.80	325.67
487.17	327.91
487.53	330.36
487.90	332.92
488.26	335.66
488.62	338.72
488.99	341.65
489.35	344.74
489.72	348.11
490.08	351.69
490.44	355.28
490.81	359.12
491.17	362.97
491.54	367.32
491.90	371.75
492.26	376.34
492.63	381.21
492.99	386.33
493.36	391.72
493.72	397.50
494.08	403.43
494.45	409.79
494.81	416.33
495.17	422.98
495.54	430.13
495.90	437.49
496.26	444.97
496.63	452.87
496.99	461.26
497.35	469.90
497.72	478.93
498.08	488.20
498.44	497.83
498.80	508.21
499.17	518.76
499.53	529.74
499.89	541.20
500.26	552.95
500.62	564.80
500.98	577.40
501.34	590.24
501.71	603.67
502.07	617.23
502.43	631.34
502.79	645.87
503.16	660.92
503.52	676.57
503.88	692.60
504.24	709.22
504.60	725.79
504.97	743.18
505.33	760.88
505.69	779.86
506.05	798.85
506.41	818.04
506.78	837.39
507.14	857.28
507.50	877.79
507.86	898.84
508.22	920.55
508.59	942.05
508.95	964.30
509.31	987.01
509.67	1010.41
510.03	1034.30
510.39	1058.93
510.75	1083.60
511.12	1108.62
511.48	1133.85
511.84	1159.55
512.20	1185.60
512.56	1212.07
512.92	1239.07
513.28	1265.50
513.64	1292.89
514.00	1320.30
514.37	1348.16
514.73	1376.66
515.09	1405.02
515.45	1433.34
515.81	1461.76
516.17	1490.55
516.53	1519.61
516.89	1548.76
517.25	1577.88
517.61	1606.82
517.97	1635.44
518.33	1664.29
518.69	1693.34
519.05	1723.05
519.41	1752.65
519.77	1782.85
520.13	1811.96
520.49	1840.80
520.85	1870.62
521.21	1900.37
521.57	1930.24
521.93	1959.20
522.29	1989.03
522.65	2018.66
523.01	2047.90
523.37	2076.70
523.73	2106.03
524.09	2134.77
524.45	2163.46
524.81	2192.29
525.17	2221.48
525.53	2250.60
525.89	2279.50
526.25	2307.76
526.61	2334.95
526.97	2362.41
527.33	2389.45
527.68	2417.31
528.04	2444.51
528.40	2470.42
528.76	2496.26
529.12	2522.70
529.48	2550.41
529.84	2576.23
530.20	2602.00
530.56	2627.89
530.91	2654.57
531.27	2680.16
531.63	2705.36
531.99	2730.22
532.35	2754.11
532.71	2777.61
533.07	2801.74
533.42	2824.75
533.78	2848.09
534.14	2870.90
534.50	2892.22
534.86	2914.50
535.21	2935.14
535.57	2956.88
535.93	2977.52
536.29	2997.90
536.65	3018.08
537.00	3036.30
537.36	3054.40
537.72	3072.18
538.08	3089.86
538.44	3107.25
538.79	3125.06
539.15	3142.25
539.51	3159.34
539.87	3177.05
540.22	3193.44
540.58	3210.04
540.94	3226.09
541.29	3240.34
541.65	3253.95
542.01	3268.19
542.37	3281.23
542.72	3295.01
543.08	3307.15
543.44	3321.19
543.79	3332.71
544.15	3342.97
544.51	3354.90
544.87	3366.56
545.22	3376.87
545.58	3386.45
545.94	3394.38
546.29	3401.53
546.65	3408.44
547.01	3415.20
547.36	3421.43
547.72	3427.36
548.07	3431.65
548.43	3435.64
548.79	3439.57
549.14	3444.45
549.50	3449.00
549.86	3452.27
550.21	3455.10
550.57	3458.84
550.92	3460.20
551.28	3462.08
551.64	3464.57
551.99	3466.67
552.35	3467.84
552.70	3469.26
553.06	3470.21
553.41	3471.51
553.77	3472.12
554.13	3472.75
554.48	3473.59
554.84	3474.01
555.19	3473.31
555.55	3472.16
555.90	3470.90
556.26	3469.95
556.61	3467.97
556.97	3465.40
557.32	3463.72
557.68	3460.71
558.03	3457.35
558.39	3454.28
558.74	3452.72
559.10	3450.02
559.45	3446.32
559.81	3443.00
560.16	3438.86
560.52	3435.60
560.87	3431.35
561.23	3426.36
561.58	3422.55
561.94	3416.60
562.29	3410.02
562.64	3405.64
563.00	3401.55
563.35	3397.91
563.71	3394.53
564.06	3390.55
564.42	3386.81
564.77	3382.78
565.12	3379.08
565.48	3374.47
565.83	3370.13
566.19	3365.25
566.54	3358.97
566.89	3352.95
567.25	3347.57
567.60	3342.27
567.96	3336.03
568.31	3330.41
568.66	3324.39
569.02	3317.18
569.37	3310.26
569.72	3304.35
570.08	3296.95
570.43	3288.98
570.78	3280.45
571.14	3271.23
571.49	3262.67
571.84	3254.44
572.20	3244.19
572.55	3235.44
572.90	3225.80
573.26	3215.90
573.61	3205.40
573.96	3195.92
574.31	3185.37
574.67	3174.33
575.02	3162.61
575.37	3151.40
575.72	3139.33
576.08	3128.79
576.43	3117.39
576.78	3106.84
577.13	3096.25
577.49	3085.34
577.84	3074.44
578.19	3064.47
578.54	3055.38
578.90	3045.28
579.25	3034.09
579.60	3023.29
579.95	3011.47
580.30	3001.01
580.66	2990.64
581.01	2979.26
581.36	2967.68
581.71	2956.19
582.06	2944.91
582.42	2934.56
582.77	2922.96
583.12	2912.08
583.47	2901.73
583.82	2891.86
584.17	2880.81
584.53	2869.91
584.88	2858.72
585.23	2847.66
585.58	2836.37
585.93	2824.42
586.28	2813.75
586.63	2802.52
586.98	2792.16
587.34	2782.37
587.69	2771.07
588.04	2759.98
588.39	2749.65
588.74	2738.62
589.09	2728.47
589.44	2717.48
589.79	2707.09
590.14	2697.38
590.49	2687.05
590.84	2676.11
591.19	2666.11
591.54	2655.93
591.89	2643.55
592.25	2632.63
592.60	2620.97
592.95	2609.00
593.30	2596.74
593.65	2584.35
594.00	2573.09
594.35	2563.46
594.70	2551.85
595.05	2541.42
595.40	2530.55
595.75	2518.92
596.10	2508.79
596.45	2498.55
596.80	2489.02
597.15	2478.92
597.50	2468.06
597.85	2458.01
598.19	2447.32
598.54	2436.43
598.89	2426.36
599.24	2418.29
599.59	2409.06
599.94	2400.67
600.29	2391.96
600.64	2382.78
600.99	2372.89
601.34	2363.91
601.69	2352.57
602.04	2342.60
602.39	2332.75
602.74	2323.17
603.08	2315.32
603.43	2306.62
603.78	2297.13
604.13	2287.50
604.48	2278.00
604.83	2270.32
605.18	2262.30
605.53	2253.28
605.87	2243.61
606.22	2234.98
606.57	2225.40
606.92	2215.76
607.27	2205.90
607.62	2196.20
607.96	2187.70
608.31	2179.77
608.66	2169.64
609.01	2160.23
609.36	2150.38
609.70	2139.88
610.05	2129.66
610.40	2118.86
610.75	2108.35
611.10	2098.92
611.44	2087.43
611.79	2076.32
612.14	2064.50
612.49	2052.02
612.83	2041.33
613.18	2030.10
613.53	2018.40
613.88	2006.20
614.22	1995.51
614.57	1984.15
614.92	1973.08
615.27	1961.16
615.61	1949.60
615.96	1939.02
616.31	1928.72
616.65	1919.16
617.00	1909.44
617.35	1899.06
617.70	1887.81
618.04	1876.06
618.39	1864.22
618.74	1854.12
619.08	1843.36
619.43	1832.99
619.78	1823.20
620.12	1812.83
620.47	1802.94
620.82	1791.75
621.16	1781.05
621.51	1770.04
621.85	1759.69
622.20	1748.82
622.55	1738.67
622.89	1728.00
623.24	1717.40
623.59	1706.38
623.93	1695.32
624.28	1684.80
624.62	1674.53
624.97	1664.67
625.32	1655.32
625.66	1645.79
626.01	1635.95
626.35	1626.54
626.70	1616.65
627.04	1607.48
627.39	1597.90
627.73	1588.10
628.08	1579.40
628.43	1570.10
628.77	1560.67
629.12	1550.89
629.46	1542.22
629.81	1532.92
630.15	1523.67
630.50	1514.47
630.84	1505.01
631.19	1495.74
631.53	1486.46
631.88	1476.79
632.22	1467.40
632.57	1458.37
632.91	1448.87
633.26	1439.60
633.60	1430.47
633.95	1421.67
634.29	1412.24
634.64	1403.52
634.98	1394.32
635.32	1385.35
635.67	1377.25
636.01	1368.92
636.36	1360.18
636.70	1351.53
637.05	1342.68
637.39	1334.53
637.73	1326.69
638.08	1319.25
638.42	1311.51
638.77	1303.27
639.11	1295.15
639.45	1286.93
639.80	1278.19
640.14	1269.77
640.49	1261.58
640.83	1252.95
641.17	1244.55
641.52	1235.85
641.86	1227.03
642.20	1218.89
642.55	1210.04
642.89	1201.33
643.23	1192.51
643.58	1184.90
643.92	1176.30
644.26	1168.33
644.61	1159.89
644.95	1151.04
645.29	1142.46
645.64	1133.79
645.98	1125.76
646.32	1117.89
646.66	1109.77
647.01	1101.90
647.35	1094.24
647.69	1085.78
648.04	1078.25
648.38	1070.01
648.72	1062.34
649.06	1054.57
649.41	1046.69
649.75	1039.02
650.09	1031.26
650.43	1023.71
650.78	1015.44
651.12	1007.38
651.46	999.50
651.80	992.18
652.14	984.61
652.49	976.96
652.83	969.31
653.17	961.36
653.51	953.61
653.85	946.26
654.20	938.97
654.54	931.23
654.88	923.92
655.22	916.41
655.56	909.15
655.90	901.59
656.25	894.01
656.59	886.93
656.93	879.80
657.27	872.89
657.61	865.51
657.95	858.80
658.29	852.29
658.64	845.67
658.98	838.53
659.32	831.53
659.66	824.93
660.00	818.09
660.34	811.51
660.68	804.81
661.02	798.11
661.36	791.74
661.70	785.50
662.05	779.64
662.39	773.89
662.73	768.00
663.07	762.29
663.41	756.61
663.75	750.76
664.09	744.87
664.43	738.76
664.77	733.23
665.11	727.46
665.45	721.96
665.79	716.38
666.13	710.95
666.47	705.60
666.81	700.22
667.15	695.01
667.49	690.04
667.83	685.14
668.17	680.13
668.51	675.30
668.85	670.46
669.19	665.69
669.53	660.54
669.87	655.47
670.21	650.60
670.55	645.74
670.89	641.30
671.23	637.01
671.57	632.76
671.91	628.30
672.25	623.76
672.58	619.23
672.92	614.89
673.26	610.62
673.60	606.65
673.94	602.38
674.28	598.26
674.62	594.32
674.96	590.28
675.30	586.46
675.64	582.15
675.97	578.21
676.31	574.22
676.65	570.55
676.99	567.08
677.33	563.29
677.67	559.65
678.01	555.63
678.34	551.75
678.68	548.00
679.02	544.20
679.36	540.65
679.70	537.13
680.04	533.42
680.37	529.91
680.71	526.22
681.05	522.83
681.39	519.46
681.73	515.80
682.06	512.56
682.40	509.25
682.74	506.12
683.08	502.91
683.42	499.47
683.75	496.07
684.09	492.61
684.43	489.39
684.77	486.10
685.10	482.85
685.44	479.66
685.78	476.58
686.12	473.76
686.45	470.79
686.79	467.60
687.13	464.94
687.46	462.04
687.80	459.28
688.14	456.17
688.48	453.42
688.81	450.57
689.15	447.69
689.49	444.80
689.82	441.90
690.16	438.76
690.50	435.94
690.83	433.26
691.17	430.42
691.51	427.70
691.84	425.23
692.18	422.70
692.52	420.47
692.85	418.11
693.19	415.68
693.52	413.20
693.86	410.80
694.20	408.28
694.53	405.90
694.87	403.51
695.21	401.23
695.54	398.65
695.88	396.14
696.21	393.66
696.55	391.45
696.88	389.33
697.22	387.28
697.56	385.26
697.89	382.99
698.23	380.90
698.56	378.85
698.90	376.81
699.23	374.77
699.57	372.61
699.90	370.36
700.24	368.13
700.58	366.10
700.91	364.22
701.25	362.55
701.58	360.61
701.92	358.69
702.25	356.95
702.59	355.21
702.92	353.48
703.26	351.70
703.59	349.94
703.93	348.49
704.26	346.85
704.60	345.20
704.93	343.53
705.26	341.83
705.60	340.26
705.93	338.70
706.27	337.23
706.60	335.75
706.94	334.37
707.27	332.85
707.61	331.38
707.94	329.84
708.27	328.02
708.61	326.50
708.94	325.11
709.28	323.58
709.61	322.22
709.94	320.95
710.28	319.71
710.61	318.47
710.95	316.72
711.28	315.58
711.61	314.25
711.95	313.16
712.28	312.08
712.61	310.86
712.95	309.73
713.28	308.58
713.61	307.32
713.95	306.17
714.28	305.16
714.61	304.02
714.95	302.93
715.28	301.85
715.61	300.70
715.95	299.61
716.28	298.58
716.61	297.51
716.95	296.44
717.28	295.44
717.61	294.31
717.94	293.39
718.28	292.25
718.61	291.34
718.94	290.28
719.27	289.33
719.61	288.43
719.94	287.43
720.27	286.39
720.60	285.45
720.94	284.51
721.27	283.71
721.60	282.95
721.93	282.14
722.27	281.43
722.60	280.71
722.93	279.89
723.26	279.12
723.59	278.27
723.93	277.56
724.26	276.82
724.59	276.14
724.92	275.48
725.25	274.82
725.59	274.10
725.92	273.57
726.25	272.88
726.58	272.21
726.91	271.50
727.24	270.94
727.57	270.32
727.91	269.58
728.24	268.87
728.57	268.15
728.90	267.55
729.23	266.84
729.56	266.41
729.89	265.80
730.22	265.21
730.55	264.64
730.89	264.04
731.22	263.45
731.55	262.87
731.88	262.27
732.21	261.70
732.54	261.05
732.87	260.41
733.20	259.83
733.53	259.32
733.86	258.80
734.19	258.15
734.52	257.65
734.85	257.52
735.18	257.00
735.51	256.63
735.84	256.06
736.17	255.69
736.50	255.05
736.83	254.92
737.16	254.42
737.49	254.00
737.82	253.48
738.15	253.08
738.48	252.60
738.81	252.21
739.14	251.66
739.47	251.25
739.80	250.70
740.13	250.25
740.46	249.71
740.79	249.25
741.12	248.84
741.45	248.41
741.78	247.75
742.11	247.43
742.44	246.93
742.77	246.62
743.10	246.09
743.43	245.60
743.75	244.87
744.08	244.95
744.41	244.47
744.74	244.10
745.07	243.65
745.40	243.28
745.73	243.03
746.06	242.64
746.39	242.30
746.71	242.00
747.04	241.56
747.37	241.25
747.70	240.98
748.03	240.75
748.36	240.45
748.68	240.06
749.01	239.59
749.34	239.31
749.67	238.99
750.00	238.81
750.33	238.76
750.65	238.49
750.98	237.77
751.31	237.57
751.64	237.30
751.97	237.16
752.29	236.79
752.62	236.31
752.95	235.99
753.28	235.65
753.60	235.42
753.93	235.29
754.26	235.00
754.59	234.62
754.91	234.20
755.24	233.89
755.57	233.67
755.90	233.38
756.22	233.08
756.55	232.78
756.88	232.47
757.20	232.04
757.53	231.70
757.86	231.41
758.19	231.12
758.51	230.91
758.84	230.59
759.17	230.40
759.49	230.21
759.82	230.24
760.15	230.04
760.47	229.79
760.80	229.51
761.13	229.35
761.45	229.08
761.78	228.92
762.11	228.65
762.43	228.36
762.76	228.20
763.08	228.03
763.41	227.84
763.74	227.67
764.06	227.43
764.39	227.20
764.71	227.07
765.04	226.88
765.37	226.65
765.69	226.41
766.02	226.27
766.34	226.03
766.67	225.75
767.00	225.70
767.32	225.69
767.65	225.78
767.97	225.58
768.30	225.51
768.62	225.37
768.95	225.25
769.27	225.10
769.60	225.00
769.92	224.82
770.25	224.59
770.57	224.35
770.90	224.21
771.22	224.07
771.55	223.89
771.87	223.67
772.20	223.52
772.52	223.62
772.85	223.88
773.17	223.77
773.50	223.59
773.82	223.34
774.15	223.02
774.47	222.65
774.80	222.49
775.12	222.31
775.45	222.22
775.77	222.13
776.09	222.02
776.42	221.85
776.74	221.83
777.07	221.66
777.39	221.56
777.72	221.40
778.04	221.34
778.36	221.14
778.69	221.10
779.01	221.02
779.33	220.62
779.66	220.18
779.98	220.03
780.31	219.94
780.63	220.03
780.95	220.03
781.28	219.83
781.60	219.73
781.92	219.68
782.25	219.57
782.57	219.54
782.89	219.50
783.22	219.40
783.54	219.31
783.86	219.36
784.19	219.21
784.51	219.26
784.83	219.18
785.16	219.19
785.48	219.15
785.80	219.11
786.12	219.18
786.45	219.05
786.77	219.04
787.09	218.94
787.42	218.69
787.74	218.52
788.06	218.52
788.38	218.44
788.71	218.30
789.03	218.28
789.35	218.20
789.67	218.07
789.99	218.05
790.32	217.87
790.64	217.81
790.96	218.15
791.28	217.96
791.61	217.91
791.93	217.80
792.25	217.75
792.57	217.95
792.89	217.79
793.21	217.77
793.54	217.64
793.86	217.55
794.18	217.56
794.50	217.44
794.82	217.42
795.14	217.44
795.47	217.47
795.79	217.38
796.11	217.28
796.43	217.18
796.75	217.18
797.07	217.14
797.39	217.10
797.71	216.81
798.04	216.75
798.36	216.73
798.68	216.72
799.00	216.61
799.32	216.32
799.64	216.34
799.96	216.34
800.28	216.38
800.60	216.34
800.92	216.36
801.24	216.40
801.56	216.34
801.89	216.28
802.21	216.25
802.53	216.15
802.85	216.22
803.17	216.41
803.49	216.28
803.81	216.22
804.13	216.07
804.45	215.93
804.77	215.98
805.09	215.92
805.41	215.87
805.73	215.80
806.05	215.72
806.37	215.62
806.69	215.50
807.01	215.51
807.33	215.53
807.65	215.41
807.97	215.59
808.28	215.54
808.60	215.47
808.92	215.36
809.24	215.56
809.56	215.39
809.88	215.22
810.20	215.20
810.52	215.29
810.84	215.31
811.16	215.28
811.48	215.22
811.80	215.27
812.12	215.23
812.43	215.32
812.75	215.30
813.07	215.29
813.39	215.28
813.71	215.15
814.03	215.06
814.35	215.04
814.67	214.88
814.98	214.80
815.30	214.78
815.62	214.77
815.94	214.53
816.26	214.55
816.58	214.46
816.89	214.51
817.21	214.39
817.53	214.35
817.85	214.34
818.17	214.22
818.48	214.14
818.80	214.19
819.12	214.10
819.44	213.99
819.76	213.98
820.07	214.01
820.39	214.00
820.71	214.06
821.03	214.03
821.34	213.88
821.66	213.95
821.98	213.96
822.30	213.95
822.61	214.12
822.93	213.98
823.25	213.90
823.57	213.87
823.88	213.94
824.20	213.92
824.52	213.96
824.83	214.01
825.15	213.87
825.47	213.76
825.79	213.72
826.10	213.69
826.42	213.60
826.74	213.53
827.05	213.50
827.37	213.45
827.69	213.40
828.00	213.43
828.32	213.38
828.64	213.34
828.95	213.44
829.27	213.34
829.58	213.42
829.90	213.55
830.22	213.48
830.53	213.35
830.85	213.34
831.17	213.24
831.48	213.18
831.80	213.25
832.11	213.30
832.43	213.25
832.75	213.28
833.06	213.43
833.38	213.36
833.69	213.33
834.01	213.30
834.32	213.23
834.64	213.22
834.96	213.17
835.27	213.11
835.59	213.05
835.90	213.02
836.22	212.91
836.53	212.84
836.85	212.81
837.16	213.18
837.48	213.23
837.79	213.30
838.11	213.35
838.42	213.36
838.74	213.33
839.05	213.30
839.37	213.23
839.68	213.07
840.00	213.02
840.31	213.07
840.63	213.05
840.94	213.03
841.26	212.93
841.57	212.99
841.88	213.07
842.20	212.98
842.51	212.94
842.83	212.92
843.14	213.18
843.46	213.16
843.77	212.93
844.08	212.85
844.40	212.81
844.71	212.80
845.03	212.75
845.34	212.75
845.65	212.71
845.97	212.71
846.28	212.73
846.60	212.77
846.91	212.72
847.22	212.66
847.54	212.85
847.85	212.94
848.16	212.80
848.48	212.66
848.79	212.80
849.10	212.75
849.42	212.88
849.73	212.53
850.04	212.51
850.36	212.33
850.67	212.42
850.98	212.34
851.30	212.39
851.61	212.35
851.92	212.27
852.23	212.48
852.55	212.51
852.86	212.50
853.17	212.57
853.49	212.61
853.80	212.73
854.11	212.67
854.42	212.70
854.74	212.72
855.05	212.82
855.36	212.65
855.67	212.67
855.99	212.66
856.30	213.08
856.61	213.08
856.92	213.09
857.23	212.97
857.55	212.99
857.86	212.92
858.17	213.02
858.48	213.04
858.79	212.85
859.11	212.92
859.42	212.88
859.73	212.80
860.04	212.83
860.35	212.71
860.66	212.56
860.98	212.54
861.29	212.61
861.60	212.59
861.91	212.65
862.22	212.62
862.53	212.50
862.84	212.19
863.16	212.26
863.47	212.26
863.78	212.37
864.09	212.40
864.40	212.41
864.71	212.48
865.02	212.52
865.33	212.57
865.64	212.56
865.95	212.62
866.27	212.80
866.58	212.74
866.89	212.81
867.20	212.79
867.51	212.62
867.82	212.58
868.13	212.68
868.44	212.59
868.75	212.70
869.06	212.75
869.37	212.77
869.68	212.67
869.99	212.74
870.30	212.62
870.61	212.59
870.92	212.53
871.23	212.41
871.54	212.40
871.85	212.46
872.16	212.41
872.47	212.27
872.78	212.10
873.09	212.10
873.40	212.03
873.71	212.12
874.02	212.18
874.33	212.22
874.64	212.08
874.95	212.16
875.26	211.99
875.56	212.00
875.87	211.95
876.18	211.95
876.49	212.22
876.80	212.19
877.11	212.14
877.42	212.16
877.73	212.12
878.04	212.07
878.35	212.02
878.66	212.01
878.96	212.07
879.27	211.98
879.58	211.96
879.89	211.93
880.20	212.02
880.51	212.04
880.82	212.00
881.12	212.07
881.43	212.02
881.74	212.01
882.05	211.99
882.36	211.97
882.67	212.01
882.97	211.65
883.28	211.62
883.59	211.56
883.90	211.67
884.21	211.78
884.51	211.70
884.82	211.70
885.13	211.70
885.44	211.77
885.74	211.83
886.05	211.81
886.36	211.82
886.67	211.64
886.98	211.81
887.28	211.82
887.59	211.72
887.90	211.70
888.20	211.74
888.51	211.78
888.82	211.71
889.13	211.77
889.43	212.11
889.74	212.14
890.05	212.19
890.35	212.12
890.66	212.06
890.97	212.04
891.28	212.05
891.58	212.13
891.89	212.02
892.20	212.02
892.50	212.00
892.81	211.99
893.12	212.06
893.42	211.90
893.73	211.93
894.04	212.00
894.34	212.00
894.65	211.94
894.95	211.97
895.26	212.00
895.57	212.04
895.87	211.66
896.18	211.79
896.48	211.76
896.79	211.73
897.10	211.76
897.40	211.84
897.71	211.77
898.01	211.67
898.32	211.73
898.63	211.78
898.93	211.78
899.24	211.79
899.54	211.70
899.85	211.63
900.15	211.62
900.46	211.60
900.76	211.73
901.07	211.76
901.38	211.68
901.68	211.72
901.99	211.65
902.29	211.64
902.60	211.51
902.90	211.55
903.21	211.58
903.51	211.57
903.82	211.70
904.12	211.74
904.43	211.81
904.73	211.81
905.03	211.68
905.34	212.00
905.64	212.02
905.95	212.07
906.25	212.10
906.56	212.13
906.86	212.15
907.17	212.15
907.47	212.14
907.77	212.14
908.08	212.09
908.38	212.04
908.69	212.12
908.99	212.21
909.30	212.22
909.60	212.20
909.90	212.15
910.21	212.00
910.51	211.94
910.81	211.89
911.12	211.93
911.42	212.03
911.73	211.71
912.03	211.69
912.33	211.77
912.64	211.83
912.94	211.79
913.24	211.73
913.55	211.64
913.85	211.62
914.15	211.72
914.46	211.82
914.76	211.76
915.06	211.75
915.37	211.62
915.67	211.58
915.97	211.57
916.27	211.50
916.58	211.54
916.88	211.56
917.18	211.52
917.49	211.70
917.79	211.72
918.09	211.74
918.39	211.86
918.70	211.78
919.00	211.75
919.30	211.83
919.60	211.80
919.91	211.78
920.21	211.78
920.51	211.63
920.81	211.46
921.12	211.61
921.42	211.60
921.72	211.67
922.02	211.69
922.32	211.72
922.63	211.75
922.93	211.86
923.23	211.85
923.53	211.81
923.83	211.69
924.13	211.66
924.44	211.68
924.74	211.73
925.04	211.80
925.34	211.81
925.64	211.65
925.94	211.64
926.24	211.86
926.55	211.82
926.85	211.93
927.15	212.02
927.45	211.96
927.75	211.93
928.05	211.93
928.35	211.87
928.65	211.90
928.95	211.96
929.26	211.87
929.56	211.96
929.86	212.06
930.16	211.94
930.46	211.95
930.76	211.91
931.06	211.75
931.36	211.73
931.66	211.74
931.96	211.88
932.26	211.94
932.56	211.75
932.86	211.77
933.16	211.72
933.46	211.68
933.76	211.66
934.06	211.71
934.36	211.87
934.66	211.95
934.96	211.95
935.26	211.89
935.56	211.94
935.86	211.86
936.16	211.73
936.46	211.70
936.76	211.68
937.06	211.65
937.36	211.63
937.66	211.60
937.96	211.58
938.26	211.53
938.56	211.51
938.86	211.53
939.16	211.63
939.46	211.68
939.76	211.71
940.06	211.71
940.35	211.66
940.65	211.41
940.95	211.50
941.25	211.40
941.55	211.34
941.85	211.24
942.15	211.33
942.45	211.46
942.75	211.48
943.04	211.48
943.34	211.61
943.64	211.61
943.94	211.57
944.24	211.55
944.54	211.53
944.84	211.50
945.13	211.42
945.43	211.37
945.73	211.36
946.03	211.30
946.33	211.22
946.62	211.19
946.92	211.24
947.22	211.19
947.52	211.23
947.82	211.32
948.11	211.35
948.41	211.25
948.71	211.11
949.01	211.18
949.31	211.13
949.60	211.05
949.90	211.06
950.20	211.01
950.50	211.02
950.79	210.94
951.09	210.99
951.39	211.02
951.69	210.92
951.98	211.05
952.28	211.06
952.58	211.01
952.87	210.98
953.17	211.01
953.47	210.94
953.76	210.93
954.06	210.84
954.36	210.79
954.66	210.75
954.95	210.85
955.25	210.79
955.55	210.83
955.84	210.82
956.14	210.82
956.44	210.89
956.73	210.77
957.03	210.85
957.32	210.87
957.62	210.87
957.92	210.99
958.21	210.86
958.51	211.25
958.81	211.33
959.10	211.43
959.40	211.45
959.69	211.48
959.99	211.57
960.29	211.66
960.58	211.61
960.88	211.76
961.17	211.76
961.47	211.85
961.76	211.83
962.06	211.83
962.36	211.85
962.65	211.92
962.95	212.05
963.24	212.01
963.54	212.04
963.83	211.95
964.13	211.91
964.42	211.82
964.72	211.55
965.01	211.58
965.31	211.52
965.60	211.51
965.90	211.78
966.19	211.57
966.49	211.59
966.78	211.62
967.08	211.60
967.37	211.67
967.67	211.61
967.96	211.67
968.26	211.65
968.55	211.72
968.85	211.69
969.14	211.63
969.43	211.64
969.73	211.61
970.02	211.58
970.32	211.54
970.61	211.49
970.91	211.45
971.20	211.41
971.49	211.44
971.79	211.46
972.08	211.16
972.38	211.21
972.67	211.22
972.96	211.26
973.26	211.18
973.55	211.21
973.85	211.17
974.14	211.07
974.43	211.14
974.73	211.05
975.02	210.97
975.31	210.96
975.61	210.93
975.90	210.83
976.19	210.88
976.49	210.94
976.78	211.09
977.07	211.06
977.37	211.16
977.66	211.19
977.95	211.15
978.24	211.17
978.54	211.35
978.83	211.30
979.12	211.22
979.42	211.28
979.71	211.19
980.00	211.22
980.29	211.31
980.59	211.21
980.88	211.30
981.17	211.32
981.46	211.34
981.76	211.38
982.05	211.57
982.34	211.62
982.63	211.63
982.93	211.60
983.22	211.67
983.51	211.65
983.80	211.64
984.09	211.68
984.39	211.75
984.68	211.59
984.97	211.65
985.26	211.68
985.55	211.67
985.85	211.66
986.14	211.64
986.43	211.64
986.72	211.63
987.01	211.55
987.30	211.50
987.59	211.46
987.89	211.46
988.18	211.26
988.47	211.20
988.76	211.23
989.05	211.19
989.34	211.12
989.63	211.11
989.92	211.15
990.22	211.17
990.51	211.11
990.80	211.13
991.09	211.16
991.38	211.22
991.67	211.20
991.96	211.17
992.25	211.26
992.54	211.25
992.83	211.21
993.12	211.13
993.41	211.26
993.70	211.39
993.99	211.44
994.28	211.50
994.58	211.61
994.87	211.50
995.16	211.48
995.45	211.48
995.74	211.41
996.03	211.44
996.32	211.49
996.61	211.48
996.90	211.49
997.19	211.43
997.48	211.48
997.77	211.47
998.06	211.43
998.34	211.41
998.63	211.41
998.92	211.54
999.21	211.73
999.50	211.70
999.79	211.62
1000.08	211.65
1000.37	211.73
1000.66	211.67
1000.95	211.84
1001.24	211.90
1001.53	211.93
1001.82	211.89
1002.11	211.80
1002.40	211.82
1002.68	211.94
1002.97	212.22
1003.26	212.17
1003.55	212.07
1003.84	212.06
1004.13	212.18
1004.42	212.14
1004.71	212.14
1004.99	212.11
1005.28	212.09
1005.57	212.07
1005.86	212.09
1006.15	212.03
1006.44	211.90
1006.72	211.88
1007.01	211.78
1007.30	211.74
1007.59	211.73
1007.88	211.80
1008.17	211.76
1008.45	211.66
1008.74	211.46
1009.03	211.21
1009.32	211.21
1009.60	211.25
1009.89	211.20
1010.18	211.08
1010.47	211.11
1010.76	211.09
1011.04	211.10
1011.33	211.08
1011.62	211.03
1011.91	211.02
1012.19	211.04
1012.48	211.07
1012.77	211.11
1013.05	211.14
1013.34	211.14
1013.63	211.10
1013.92	211.06
1014.20	211.07
1014.49	211.11
1014.78	211.17
1015.06	211.09
1015.35	211.15
1015.64	211.15
1015.92	211.28
1016.21	211.31
1016.50	211.21
1016.78	211.28
1017.07	211.25
1017.36	211.20
1017.64	211.18
1017.93	211.17
1018.22	211.07
1018.50	211.07
1018.79	211.02
1019.08	211.02
1019.36	211.04
1019.65	211.06
1019.93	211.10
1020.22	211.17
1020.51	211.26
1020.79	211.25
1021.08	209.50
1021.36	210.70
1021.65	210.65
1021.94	211.50
1022.22	211.50
1022.51	211.50
1022.79	211.70
1023.08	211.35
1023.36	214.40
1023.65	210.30
>>>>>End Processed Spectral Data<<<<<
