SpectraSuite Data File
++++++++++++++++++++++++++++++++++++
Date: Mon Feb 25 17:11:09 EST 2013
User: group
Dark Spectrum Present: No
Reference Spectrum Present: No
Number of Sampled Component Spectra: 1
Spectrometers: USB2E7196
Integration Time (usec): 104000 (USB2E7196)
Spectra Averaged: 20 (USB2E7196)
Boxcar Smoothing: 10 (USB2E7196)
Correct for Electrical Dark: No (USB2E7196)
Strobe/Lamp Enabled: No (USB2E7196)
Correct for Detector Non-linearity: No (USB2E7196)
Correct for Stray Light: No (USB2E7196)
Number of Pixels in Processed Spectrum: 2048
>>>>>Begin Processed Spectral Data<<<<<
339.09	0.00
339.48	199.20
339.86	200.45
340.24	200.50
340.63	203.10
341.01	209.25
341.39	205.30
341.78	206.85
342.16	208.55
342.54	207.70
342.93	198.34
343.31	208.29
343.69	208.79
344.07	209.21
344.46	209.71
344.84	210.10
345.22	210.16
345.60	210.44
345.99	210.63
346.37	210.75
346.75	210.90
347.13	210.96
347.52	210.96
347.90	211.07
348.28	211.05
348.66	211.14
349.05	210.93
349.43	210.96
349.81	210.99
350.19	211.05
350.57	211.13
350.96	211.16
351.34	211.30
351.72	211.43
352.10	211.51
352.48	211.53
352.87	211.57
353.25	211.65
353.63	211.70
354.01	211.76
354.39	211.84
354.77	211.93
355.15	212.05
355.54	212.15
355.92	212.10
356.30	212.22
356.68	212.46
357.06	212.61
357.44	212.73
357.82	212.80
358.20	212.87
358.58	212.81
358.97	212.93
359.35	213.05
359.73	213.17
360.11	213.30
360.49	213.31
360.87	213.41
361.25	213.47
361.63	213.61
362.01	213.70
362.39	213.80
362.77	213.87
363.15	213.92
363.53	213.87
363.91	213.90
364.29	213.91
364.67	213.61
365.05	213.59
365.43	213.63
365.81	213.66
366.19	213.74
366.57	213.96
366.95	213.91
367.33	213.79
367.71	213.67
368.09	213.72
368.47	213.79
368.85	213.66
369.23	213.71
369.61	213.62
369.99	213.62
370.37	213.55
370.75	213.68
371.13	213.49
371.51	213.52
371.89	213.51
372.27	213.52
372.65	213.52
373.03	213.49
373.41	213.39
373.78	213.33
374.16	213.15
374.54	212.99
374.92	212.95
375.30	212.95
375.68	212.97
376.06	212.82
376.44	212.71
376.82	212.78
377.19	212.74
377.57	212.61
377.95	212.50
378.33	212.43
378.71	212.15
379.09	212.21
379.47	212.15
379.84	212.11
380.22	211.96
380.60	211.93
380.98	211.90
381.36	211.86
381.73	211.80
382.11	211.80
382.49	211.81
382.87	211.73
383.25	211.68
383.62	211.98
384.00	211.95
384.38	211.93
384.76	211.90
385.13	211.97
385.51	211.97
385.89	211.94
386.27	211.87
386.64	211.89
387.02	211.80
387.40	211.75
387.78	211.73
388.15	211.69
388.53	211.54
388.91	211.48
389.29	211.44
389.66	211.43
390.04	211.33
390.42	211.37
390.79	211.31
391.17	211.32
391.55	210.88
391.92	210.90
392.30	210.90
392.68	210.85
393.05	210.79
393.43	210.78
393.81	210.77
394.18	210.73
394.56	210.64
394.94	210.72
395.31	210.70
395.69	210.74
396.06	210.87
396.44	210.87
396.82	210.86
397.19	211.07
397.57	211.02
397.95	211.15
398.32	211.04
398.70	211.12
399.07	211.17
399.45	211.21
399.82	211.16
400.20	211.11
400.58	211.09
400.95	210.95
401.33	211.01
401.70	211.27
402.08	211.34
402.45	211.45
402.83	211.46
403.20	211.56
403.58	211.58
403.95	211.64
404.33	211.76
404.71	211.78
405.08	212.02
405.46	212.16
405.83	212.23
406.21	212.37
406.58	212.49
406.96	212.54
407.33	212.69
407.70	212.88
408.08	213.34
408.45	213.55
408.83	213.83
409.20	213.98
409.58	213.83
409.95	214.06
410.33	214.29
410.70	214.40
411.08	214.63
411.45	214.85
411.82	215.04
412.20	215.45
412.57	215.92
412.95	215.90
413.32	216.27
413.69	216.52
414.07	216.85
414.44	217.24
414.82	217.66
415.19	218.12
415.56	218.56
415.94	218.91
416.31	219.52
416.68	220.05
417.06	220.77
417.43	221.55
417.81	222.34
418.18	223.10
418.55	223.94
418.93	224.85
419.30	225.74
419.67	226.74
420.04	227.69
420.42	228.69
420.79	230.17
421.16	231.39
421.54	232.84
421.91	234.15
422.28	235.53
422.66	236.95
423.03	238.65
423.40	240.16
423.77	241.68
424.15	243.17
424.52	244.88
424.89	246.71
425.26	248.43
425.64	250.10
426.01	251.87
426.38	253.73
426.75	255.66
427.13	257.65
427.50	259.74
427.87	261.85
428.24	263.99
428.61	265.80
428.99	268.20
429.36	270.56
429.73	273.10
430.10	275.53
430.47	278.02
430.85	280.39
431.22	283.15
431.59	286.32
431.96	289.10
432.33	292.10
432.70	295.05
433.08	298.43
433.45	301.68
433.82	305.00
434.19	308.76
434.56	312.34
434.93	315.72
435.30	319.12
435.68	323.00
436.05	326.60
436.42	330.42
436.79	333.80
437.16	337.37
437.53	341.15
437.90	344.89
438.27	348.75
438.64	352.57
439.01	356.12
439.38	359.05
439.75	362.22
440.13	365.83
440.50	369.03
440.87	371.82
441.24	374.61
441.61	377.70
441.98	379.96
442.35	382.50
442.72	385.13
443.09	387.91
443.46	389.41
443.83	390.64
444.20	391.41
444.57	392.64
444.94	393.41
445.31	394.18
445.68	395.25
446.05	395.45
446.42	395.10
446.79	394.76
447.16	394.35
447.53	394.02
447.90	392.56
448.27	391.17
448.64	389.29
449.01	387.98
449.37	385.48
449.74	383.07
450.11	380.53
450.48	377.46
450.85	374.09
451.22	371.28
451.59	368.59
451.96	366.11
452.33	362.81
452.70	359.67
453.07	355.87
453.43	351.76
453.80	348.25
454.17	344.97
454.54	341.63
454.91	338.14
455.28	334.79
455.65	331.60
456.02	329.04
456.38	326.29
456.75	322.91
457.12	320.18
457.49	317.45
457.86	314.54
458.23	312.38
458.59	309.86
458.96	307.42
459.33	305.15
459.70	302.93
460.07	301.03
460.43	298.93
460.80	297.06
461.17	295.53
461.54	293.71
461.91	292.02
462.27	290.44
462.64	288.89
463.01	287.24
463.38	285.86
463.74	283.83
464.11	282.47
464.48	281.29
464.85	279.95
465.21	278.97
465.58	277.91
465.95	276.51
466.32	275.47
466.68	274.33
467.05	273.32
467.42	272.31
467.78	271.27
468.15	270.31
468.52	269.58
468.88	268.43
469.25	267.51
469.62	266.76
469.98	265.92
470.35	265.27
470.72	264.57
471.08	263.73
471.45	263.17
471.82	262.64
472.18	261.94
472.55	261.45
472.92	260.82
473.28	260.27
473.65	259.80
474.02	259.31
474.38	258.99
474.75	258.69
475.11	258.30
475.48	258.03
475.85	257.78
476.21	257.50
476.58	257.27
476.94	257.15
477.31	256.90
477.67	256.82
478.04	256.70
478.41	256.69
478.77	256.92
479.14	256.79
479.50	256.73
479.87	256.76
480.23	256.76
480.60	256.78
480.96	256.89
481.33	257.17
481.69	257.30
482.06	257.40
482.42	257.56
482.79	257.85
483.15	258.05
483.52	258.43
483.88	258.65
484.25	258.99
484.61	259.37
484.98	259.71
485.34	260.20
485.71	260.75
486.07	261.27
486.44	261.47
486.80	262.09
487.17	262.67
487.53	263.46
487.90	264.32
488.26	265.24
488.62	266.21
488.99	266.96
489.35	267.98
489.72	269.06
490.08	270.15
490.44	271.20
490.81	272.53
491.17	273.73
491.54	275.11
491.90	276.48
492.26	277.92
492.63	279.47
492.99	280.91
493.36	282.49
493.72	284.20
494.08	286.07
494.45	287.95
494.81	290.00
495.17	291.95
495.54	294.13
495.90	296.22
496.26	298.49
496.63	300.96
496.99	303.39
497.35	305.84
497.72	308.56
498.08	311.21
498.44	313.90
498.80	316.87
499.17	319.79
499.53	322.94
499.89	326.15
500.26	329.46
500.62	332.85
500.98	336.49
501.34	340.09
501.71	343.80
502.07	347.53
502.43	351.44
502.79	355.37
503.16	359.41
503.52	363.63
503.88	367.82
504.24	372.19
504.60	376.64
504.97	381.48
505.33	386.16
505.69	391.30
506.05	396.30
506.41	401.32
506.78	406.54
507.14	411.80
507.50	417.22
507.86	422.80
508.22	428.44
508.59	433.99
508.95	439.86
509.31	445.88
509.67	452.09
510.03	458.32
510.39	464.73
510.75	471.13
511.12	477.76
511.48	484.40
511.84	491.25
512.20	498.04
512.56	504.87
512.92	511.93
513.28	518.92
513.64	526.12
514.00	533.43
514.37	540.74
514.73	548.33
515.09	555.99
515.45	563.67
515.81	571.37
516.17	579.17
516.53	586.89
516.89	594.66
517.25	602.47
517.61	610.45
517.97	618.20
518.33	626.23
518.69	634.17
519.05	642.35
519.41	650.34
519.77	658.94
520.13	667.14
520.49	675.35
520.85	683.72
521.21	692.18
521.57	700.68
521.93	709.00
522.29	717.53
522.65	725.83
523.01	734.08
523.37	742.30
523.73	750.92
524.09	759.45
524.45	768.11
524.81	776.58
525.17	785.14
525.53	793.97
525.89	802.52
526.25	811.02
526.61	819.37
526.97	827.93
527.33	836.35
527.68	845.05
528.04	853.27
528.40	861.34
528.76	869.43
529.12	877.73
529.48	886.33
529.84	894.60
530.20	902.98
530.56	911.40
530.91	920.14
531.27	928.26
531.63	936.38
531.99	944.45
532.35	952.51
532.71	960.38
533.07	968.45
533.42	976.54
533.78	984.60
534.14	992.37
534.50	999.60
534.86	1007.18
535.21	1014.15
535.57	1021.90
535.93	1029.23
536.29	1036.65
536.65	1043.79
537.00	1050.52
537.36	1057.08
537.72	1063.52
538.08	1069.99
538.44	1076.38
538.79	1082.97
539.15	1089.26
539.51	1095.63
539.87	1102.18
540.22	1108.33
540.58	1114.55
540.94	1120.30
541.29	1125.86
541.65	1131.18
542.01	1137.00
542.37	1142.45
542.72	1148.07
543.08	1153.03
543.44	1158.51
543.79	1163.27
544.15	1168.07
544.51	1173.30
544.87	1178.33
545.22	1183.00
545.58	1187.47
545.94	1191.42
546.29	1195.13
546.65	1199.09
547.01	1202.40
547.36	1205.71
547.72	1209.30
548.07	1212.46
548.43	1215.39
548.79	1218.21
549.14	1221.28
549.50	1224.00
549.86	1226.09
550.21	1228.53
550.57	1231.10
550.92	1232.90
551.28	1234.93
551.64	1237.02
551.99	1239.00
552.35	1240.52
552.70	1242.13
553.06	1243.75
553.41	1245.30
553.77	1246.85
554.13	1248.14
554.48	1249.64
554.84	1251.20
555.19	1251.84
555.55	1252.59
555.90	1253.20
556.26	1253.91
556.61	1254.45
556.97	1254.69
557.32	1255.39
557.68	1255.41
558.03	1255.54
558.39	1255.81
558.74	1256.40
559.10	1256.71
559.45	1256.77
559.81	1257.31
560.16	1257.10
560.52	1256.89
560.87	1256.96
561.23	1256.51
561.58	1256.28
561.94	1256.07
562.29	1255.26
562.64	1254.85
563.00	1254.44
563.35	1254.33
563.71	1254.38
564.06	1254.19
564.42	1254.11
564.77	1253.86
565.12	1253.73
565.48	1253.34
565.83	1253.10
566.19	1252.68
566.54	1251.40
566.89	1250.16
567.25	1249.13
567.60	1248.68
567.96	1248.03
568.31	1247.07
568.66	1246.18
569.02	1244.92
569.37	1242.99
569.72	1241.59
570.08	1240.26
570.43	1238.47
570.78	1236.47
571.14	1234.36
571.49	1232.30
571.84	1230.52
572.20	1228.22
572.55	1226.36
572.90	1223.86
573.26	1221.24
573.61	1218.60
573.96	1216.15
574.31	1213.43
574.67	1210.42
575.02	1207.23
575.37	1204.20
575.72	1200.73
576.08	1198.05
576.43	1194.95
576.78	1192.40
577.13	1189.59
577.49	1186.78
577.84	1183.96
578.19	1181.45
578.54	1178.62
578.90	1176.06
579.25	1172.87
579.60	1169.76
579.95	1166.19
580.30	1163.46
580.66	1160.73
581.01	1157.56
581.36	1154.66
581.71	1151.99
582.06	1149.19
582.42	1146.67
582.77	1143.42
583.12	1140.76
583.47	1137.85
583.82	1135.39
584.17	1132.55
584.53	1129.90
584.88	1126.79
585.23	1123.99
585.58	1121.01
585.93	1118.29
586.28	1115.46
586.63	1112.49
586.98	1109.97
587.34	1107.60
587.69	1104.63
588.04	1101.73
588.39	1099.10
588.74	1096.11
589.09	1093.28
589.44	1090.04
589.79	1086.84
590.14	1084.25
590.49	1081.29
590.84	1078.08
591.19	1075.25
591.54	1072.23
591.89	1068.75
592.25	1065.91
592.60	1062.74
592.95	1059.50
593.30	1055.69
593.65	1052.16
594.00	1048.96
594.35	1046.61
594.70	1043.20
595.05	1040.09
595.40	1036.65
595.75	1033.10
596.10	1030.11
596.45	1026.88
596.80	1024.31
597.15	1021.45
597.50	1018.18
597.85	1015.32
598.19	1012.24
598.54	1009.02
598.89	1006.17
599.24	1003.49
599.59	1000.44
599.94	997.80
600.29	994.86
600.64	992.39
600.99	989.33
601.34	986.61
601.69	982.72
602.04	979.73
602.39	976.68
602.74	974.02
603.08	971.68
603.43	969.19
603.78	966.39
604.13	963.45
604.48	960.67
604.83	958.52
605.18	955.92
605.53	953.19
605.87	950.33
606.22	947.38
606.57	944.42
606.92	941.50
607.27	938.30
607.62	935.41
607.96	932.59
608.31	930.04
608.66	926.91
609.01	923.70
609.36	920.47
609.70	917.52
610.05	914.23
610.40	910.88
610.75	907.22
611.10	904.14
611.44	900.30
611.79	896.70
612.14	892.72
612.49	888.73
612.83	885.35
613.18	881.60
613.53	878.06
613.88	874.20
614.22	870.72
614.57	866.98
614.92	863.39
615.27	859.58
615.61	855.90
615.96	852.39
616.31	849.06
616.65	846.06
617.00	842.41
617.35	838.92
617.70	835.09
618.04	831.36
618.39	827.21
618.74	823.90
619.08	820.00
619.43	816.36
619.78	812.82
620.12	809.15
620.47	805.60
620.82	801.57
621.16	797.86
621.51	794.20
621.85	790.69
622.20	786.94
622.55	783.23
622.89	779.39
623.24	775.76
623.59	771.94
623.93	768.27
624.28	764.86
624.62	761.54
624.97	758.08
625.32	754.60
625.66	751.55
626.01	747.95
626.35	744.87
626.70	741.60
627.04	738.62
627.39	735.22
627.73	731.98
628.08	729.02
628.43	725.54
628.77	722.10
629.12	718.69
629.46	715.70
629.81	712.49
630.15	709.20
630.50	705.94
630.84	702.60
631.19	699.12
631.53	695.78
631.88	692.18
632.22	688.61
632.57	685.64
632.91	682.08
633.26	679.03
633.60	675.77
633.95	672.70
634.29	669.42
634.64	666.24
634.98	663.04
635.32	659.98
635.67	657.30
636.01	654.31
636.36	651.34
636.70	648.25
637.05	645.29
637.39	642.47
637.73	639.81
638.08	637.14
638.42	634.45
638.77	631.63
639.11	628.74
639.45	626.05
639.80	622.83
640.14	619.95
640.49	616.77
640.83	613.75
641.17	610.66
641.52	607.51
641.86	604.51
642.20	601.47
642.55	598.30
642.89	595.24
643.23	592.22
643.58	589.32
643.92	586.27
644.26	583.16
644.61	580.19
644.95	577.04
645.29	574.00
645.64	570.82
645.98	567.71
646.32	564.87
646.66	561.78
647.01	558.99
647.35	556.18
647.69	553.36
648.04	550.71
648.38	547.87
648.72	545.03
649.06	542.21
649.41	539.32
649.75	536.52
650.09	533.83
650.43	531.01
650.78	528.15
651.12	525.25
651.46	522.67
651.80	519.95
652.14	517.18
652.49	514.46
652.83	511.74
653.17	508.88
653.51	506.03
653.85	503.43
654.20	500.68
654.54	497.90
654.88	495.13
655.22	492.30
655.56	489.58
655.90	486.90
656.25	484.35
656.59	481.78
656.93	479.16
657.27	476.52
657.61	473.82
657.95	471.33
658.29	468.89
658.64	466.36
658.98	463.76
659.32	461.12
659.66	458.62
660.00	456.13
660.34	453.63
660.68	451.05
661.02	448.55
661.36	446.26
661.70	443.91
662.05	441.70
662.39	439.52
662.73	437.38
663.07	435.47
663.41	433.20
663.75	430.86
664.09	428.64
664.43	426.38
664.77	424.38
665.11	422.09
665.45	420.04
665.79	418.00
666.13	415.93
666.47	413.94
666.81	411.89
667.15	409.83
667.49	408.01
667.83	406.31
668.17	404.45
668.51	402.65
668.85	400.89
669.19	399.17
669.53	397.26
669.87	395.22
670.21	393.17
670.55	391.44
670.89	390.09
671.23	388.53
671.57	386.89
671.91	385.15
672.25	383.57
672.58	381.88
672.92	380.19
673.26	378.65
673.60	377.02
673.94	375.46
674.28	373.94
674.62	372.47
674.96	370.92
675.30	369.41
675.64	367.74
675.97	366.23
676.31	364.66
676.65	363.21
676.99	361.97
677.33	360.50
677.67	358.93
678.01	357.25
678.34	355.69
678.68	354.26
679.02	352.89
679.36	351.51
679.70	350.21
680.04	348.78
680.37	347.38
680.71	346.13
681.05	344.82
681.39	343.47
681.73	342.08
682.06	340.72
682.40	339.50
682.74	338.34
683.08	337.14
683.42	335.77
683.75	334.49
684.09	333.06
684.43	331.78
684.77	330.55
685.10	329.36
685.44	328.10
685.78	326.85
686.12	325.65
686.45	324.41
686.79	323.02
687.13	321.92
687.46	320.75
687.80	319.54
688.14	318.34
688.48	317.27
688.81	316.10
689.15	315.06
689.49	313.83
689.82	312.67
690.16	311.33
690.50	310.22
690.83	309.13
691.17	307.99
691.51	306.94
691.84	305.84
692.18	304.73
692.52	303.66
692.85	302.72
693.19	301.81
693.52	300.80
693.86	299.83
694.20	298.77
694.53	297.75
694.87	296.71
695.21	295.69
695.54	294.71
695.88	293.69
696.21	292.57
696.55	291.74
696.88	290.85
697.22	290.09
697.56	289.26
697.89	288.34
698.23	287.48
698.56	286.56
698.90	285.80
699.23	284.87
699.57	284.06
699.90	283.12
700.24	282.03
700.58	281.17
700.91	280.39
701.25	279.87
701.58	279.21
701.92	278.53
702.25	277.85
702.59	277.02
702.92	276.34
703.26	275.65
703.59	274.86
703.93	274.38
704.26	273.65
704.60	273.03
704.93	272.34
705.26	271.59
705.60	270.98
705.93	270.15
706.27	269.67
706.60	269.21
706.94	268.65
707.27	268.10
707.61	267.51
707.94	266.92
708.27	266.03
708.61	265.16
708.94	264.52
709.28	263.85
709.61	263.21
709.94	262.67
710.28	262.18
710.61	261.67
710.95	260.77
711.28	260.35
711.61	259.73
711.95	259.23
712.28	258.78
712.61	258.25
712.95	257.95
713.28	257.51
713.61	256.86
713.95	256.39
714.28	255.91
714.61	255.37
714.95	254.94
715.28	254.39
715.61	254.07
715.95	253.55
716.28	253.08
716.61	252.73
716.95	252.16
717.28	251.68
717.61	251.18
717.94	250.79
718.28	250.21
718.61	249.71
718.94	249.22
719.27	248.70
719.61	248.34
719.94	247.84
720.27	247.31
720.60	246.97
720.94	246.50
721.27	246.06
721.60	245.83
721.93	245.38
722.27	245.12
722.60	244.76
722.93	244.44
723.26	244.11
723.59	243.70
723.93	243.47
724.26	243.15
724.59	242.82
724.92	242.45
725.25	242.16
725.59	241.86
725.92	241.67
726.25	241.40
726.58	241.08
726.91	240.79
727.24	240.54
727.57	240.19
727.91	239.92
728.24	239.73
728.57	239.34
728.90	239.07
729.23	238.73
729.56	238.63
729.89	238.34
730.22	238.01
730.55	237.70
730.89	237.43
731.22	237.18
731.55	236.93
731.88	236.76
732.21	236.47
732.54	236.18
732.87	235.83
733.20	235.61
733.53	235.34
733.86	235.06
734.19	234.71
734.52	234.53
734.85	234.55
735.18	234.28
735.51	234.15
735.84	233.94
736.17	233.85
736.50	233.47
736.83	233.68
737.16	233.55
737.49	233.34
737.82	233.10
738.15	232.84
738.48	232.65
738.81	232.42
739.14	232.11
739.47	231.88
739.80	231.70
740.13	231.51
740.46	231.26
740.79	231.16
741.12	230.98
741.45	230.74
741.78	230.32
742.11	230.17
742.44	229.88
742.77	229.74
743.10	229.40
743.43	229.13
743.75	228.48
744.08	228.69
744.41	228.48
744.74	228.26
745.07	228.01
745.40	227.84
745.73	227.78
746.06	227.62
746.39	227.53
746.71	227.37
747.04	227.18
747.37	227.05
747.70	226.80
748.03	226.62
748.36	226.52
748.68	226.37
749.01	226.18
749.34	226.03
749.67	225.82
750.00	225.71
750.33	225.79
750.65	225.69
750.98	225.13
751.31	225.00
751.64	224.84
751.97	224.94
752.29	224.78
752.62	224.44
752.95	224.25
753.28	224.08
753.60	223.94
753.93	223.87
754.26	223.74
754.59	223.57
754.91	223.43
755.24	223.30
755.57	223.14
755.90	223.00
756.22	222.82
756.55	222.69
756.88	222.52
757.20	222.19
757.53	222.01
757.86	221.88
758.19	221.78
758.51	221.70
758.84	221.29
759.17	221.10
759.49	221.02
759.82	221.12
760.15	221.03
760.47	220.88
760.80	220.68
761.13	220.58
761.45	220.34
761.78	220.28
762.11	220.10
762.43	219.98
762.76	219.76
763.08	219.73
763.41	219.66
763.74	219.60
764.06	219.58
764.39	219.52
764.71	219.40
765.04	219.32
765.37	219.20
765.69	219.20
766.02	219.19
766.34	219.08
766.67	218.84
767.00	218.81
767.32	218.97
767.65	219.08
767.97	218.98
768.30	219.09
768.62	218.99
768.95	218.94
769.27	218.84
769.60	218.92
769.92	218.75
770.25	218.64
770.57	218.53
770.90	218.41
771.22	218.29
771.55	218.29
771.87	218.15
772.20	218.05
772.52	218.27
772.85	218.59
773.17	218.61
773.50	218.54
773.82	218.40
774.15	218.15
774.47	217.86
774.80	217.82
775.12	217.64
775.45	217.59
775.77	217.50
776.09	217.49
776.42	217.38
776.74	217.48
777.07	217.38
777.39	217.37
777.72	217.29
778.04	217.25
778.36	217.15
778.69	217.16
779.01	217.25
779.33	216.94
779.66	216.43
779.98	216.28
780.31	216.25
780.63	216.39
780.95	216.37
781.28	216.33
781.60	216.19
781.92	216.18
782.25	216.05
782.57	216.09
782.89	215.99
783.22	215.93
783.54	215.79
783.86	215.80
784.19	215.70
784.51	215.76
784.83	215.63
785.16	215.54
785.48	215.49
785.80	215.37
786.12	215.33
786.45	215.31
786.77	215.30
787.09	215.21
787.42	215.04
787.74	214.97
788.06	215.05
788.38	215.02
788.71	214.92
789.03	215.01
789.35	214.90
789.67	214.91
789.99	214.88
790.32	214.77
790.64	214.75
790.96	215.01
791.28	214.88
791.61	214.97
791.93	215.00
792.25	215.01
792.57	215.28
792.89	215.15
793.21	215.17
793.54	215.07
793.86	215.07
794.18	215.05
794.50	215.00
794.82	214.90
795.14	214.91
795.47	214.98
795.79	214.96
796.11	214.95
796.43	214.87
796.75	214.88
797.07	214.95
797.39	214.95
797.71	214.68
798.04	214.61
798.36	214.57
798.68	214.51
799.00	214.41
799.32	214.16
799.64	214.23
799.96	214.20
800.28	214.30
800.60	214.25
800.92	214.23
801.24	214.13
801.56	214.10
801.89	214.05
802.21	214.02
802.53	213.97
802.85	214.03
803.17	214.15
803.49	214.04
803.81	213.95
804.13	213.85
804.45	213.81
804.77	213.87
805.09	213.81
805.41	213.75
805.73	213.70
806.05	213.68
806.37	213.59
806.69	213.54
807.01	213.49
807.33	213.50
807.65	213.41
807.97	213.59
808.28	213.65
808.60	213.60
808.92	213.58
809.24	213.72
809.56	213.61
809.88	213.44
810.20	213.50
810.52	213.57
810.84	213.46
811.16	213.42
811.48	213.43
811.80	213.59
812.12	213.56
812.43	213.59
812.75	213.50
813.07	213.56
813.39	213.55
813.71	213.46
814.03	213.41
814.35	213.40
814.67	213.24
814.98	213.13
815.30	213.18
815.62	213.08
815.94	212.79
816.26	212.79
816.58	212.74
816.89	212.72
817.21	212.63
817.53	212.62
817.85	212.59
818.17	212.49
818.48	212.31
818.80	212.37
819.12	212.35
819.44	212.34
819.76	212.25
820.07	212.27
820.39	212.33
820.71	212.33
821.03	212.29
821.34	212.29
821.66	212.34
821.98	212.34
822.30	212.35
822.61	212.57
822.93	212.55
823.25	212.45
823.57	212.35
823.88	212.41
824.20	212.50
824.52	212.49
824.83	212.50
825.15	212.44
825.47	212.41
825.79	212.38
826.10	212.36
826.42	212.31
826.74	212.38
827.05	212.32
827.37	212.33
827.69	212.30
828.00	212.31
828.32	212.30
828.64	212.26
828.95	212.49
829.27	212.40
829.58	212.40
829.90	212.54
830.22	212.60
830.53	212.53
830.85	212.45
831.17	212.44
831.48	212.43
831.80	212.50
832.11	212.44
832.43	212.45
832.75	212.39
833.06	212.60
833.38	212.47
833.69	212.49
834.01	212.51
834.32	212.53
834.64	212.55
834.96	212.57
835.27	212.54
835.59	212.38
835.90	212.32
836.22	212.24
836.53	212.21
836.85	212.11
837.16	212.45
837.48	212.48
837.79	212.54
838.11	212.50
838.42	212.48
838.74	212.60
839.05	212.55
839.37	212.58
839.68	212.36
840.00	212.25
840.31	212.30
840.63	212.21
840.94	212.12
841.26	211.97
841.57	211.99
841.88	211.95
842.20	211.85
842.51	211.83
842.83	211.86
843.14	212.11
843.46	212.17
843.77	211.95
844.08	211.85
844.40	211.68
844.71	211.64
845.03	211.59
845.34	211.51
845.65	211.49
845.97	211.48
846.28	211.55
846.60	211.65
846.91	211.56
847.22	211.55
847.54	211.69
847.85	211.77
848.16	211.67
848.48	211.65
848.79	211.81
849.10	211.86
849.42	211.87
849.73	211.55
850.04	211.50
850.36	211.38
850.67	211.50
850.98	211.56
851.30	211.62
851.61	211.58
851.92	211.52
852.23	211.62
852.55	211.67
852.86	211.56
853.17	211.62
853.49	211.68
853.80	211.79
854.11	211.80
854.42	211.73
854.74	211.71
855.05	211.77
855.36	211.60
855.67	211.59
855.99	211.58
856.30	212.02
856.61	212.07
856.92	212.08
857.23	212.09
857.55	212.04
857.86	212.00
858.17	212.05
858.48	212.00
858.79	211.83
859.11	211.83
859.42	211.85
859.73	211.70
860.04	211.65
860.35	211.56
860.66	211.46
860.98	211.51
861.29	211.55
861.60	211.46
861.91	211.51
862.22	211.49
862.53	211.45
862.84	211.06
863.16	211.15
863.47	211.13
863.78	211.02
864.09	211.13
864.40	211.18
864.71	211.19
865.02	211.24
865.33	211.31
865.64	211.22
865.95	211.24
866.27	211.59
866.58	211.63
866.89	211.65
867.20	211.60
867.51	211.57
867.82	211.52
868.13	211.72
868.44	211.66
868.75	211.71
869.06	211.69
869.37	211.67
869.68	211.52
869.99	211.54
870.30	211.64
870.61	211.63
870.92	211.60
871.23	211.55
871.54	211.57
871.85	211.67
872.16	211.77
872.47	211.70
872.78	211.48
873.09	211.41
873.40	211.34
873.71	211.45
874.02	211.49
874.33	211.48
874.64	211.36
874.95	211.43
875.26	211.36
875.56	211.44
875.87	211.40
876.18	211.44
876.49	211.79
876.80	211.75
877.11	211.67
877.42	211.71
877.73	211.79
878.04	211.79
878.35	211.69
878.66	211.71
878.96	211.75
879.27	211.73
879.58	211.77
879.89	211.78
880.20	211.79
880.51	211.69
880.82	211.74
881.12	211.77
881.43	211.67
881.74	211.68
882.05	211.64
882.36	211.72
882.67	211.79
882.97	211.41
883.28	211.41
883.59	211.44
883.90	211.46
884.21	211.48
884.51	211.45
884.82	211.51
885.13	211.45
885.44	211.47
885.74	211.49
886.05	211.43
886.36	211.49
886.67	211.39
886.98	211.62
887.28	211.66
887.59	211.62
887.90	211.62
888.20	211.54
888.51	211.60
888.82	211.52
889.13	211.54
889.43	211.78
889.74	211.75
890.05	211.72
890.35	211.60
890.66	211.53
890.97	211.55
891.28	211.42
891.58	211.45
891.89	211.42
892.20	211.33
892.50	211.35
892.81	211.30
893.12	211.36
893.42	211.16
893.73	211.18
894.04	211.22
894.34	211.36
894.65	211.39
894.95	211.30
895.26	211.32
895.57	211.38
895.87	211.11
896.18	211.13
896.48	211.12
896.79	211.15
897.10	211.18
897.40	211.12
897.71	211.21
898.01	211.22
898.32	211.25
898.63	211.24
898.93	211.28
899.24	211.25
899.54	211.19
899.85	211.23
900.15	211.15
900.46	211.10
900.76	211.10
901.07	211.10
901.38	211.14
901.68	211.15
901.99	211.00
902.29	211.00
902.60	211.01
902.90	211.06
903.21	211.06
903.51	211.01
903.82	211.16
904.12	211.12
904.43	211.15
904.73	211.10
905.03	211.15
905.34	211.47
905.64	211.52
905.95	211.47
906.25	211.43
906.56	211.43
906.86	211.45
907.17	211.39
907.47	211.44
907.77	211.31
908.08	211.28
908.38	211.34
908.69	211.44
908.99	211.52
909.30	211.52
909.60	211.49
909.90	211.51
910.21	211.41
910.51	211.43
910.81	211.40
911.12	211.47
911.42	211.48
911.73	211.08
912.03	211.06
912.33	211.20
912.64	211.17
912.94	211.15
913.24	211.11
913.55	211.08
913.85	211.00
914.15	211.14
914.46	211.17
914.76	211.15
915.06	211.07
915.37	210.94
915.67	210.88
915.97	210.94
916.27	210.87
916.58	210.81
916.88	210.77
917.18	210.72
917.49	210.84
917.79	210.82
918.09	210.92
918.39	211.01
918.70	210.91
919.00	210.98
919.30	211.16
919.60	211.07
919.91	211.05
920.21	211.10
920.51	211.03
920.81	211.01
921.12	211.03
921.42	211.07
921.72	211.11
922.02	211.16
922.32	211.16
922.63	211.14
922.93	211.39
923.23	211.40
923.53	211.36
923.83	211.22
924.13	211.26
924.44	211.15
924.74	211.14
925.04	211.27
925.34	211.19
925.64	211.07
925.94	211.13
926.24	211.28
926.55	211.30
926.85	211.31
927.15	211.34
927.45	211.34
927.75	211.28
928.05	211.30
928.35	211.27
928.65	211.33
928.95	211.40
929.26	211.21
929.56	211.22
929.86	211.32
930.16	211.29
930.46	211.30
930.76	211.40
931.06	211.26
931.36	211.16
931.66	211.31
931.96	211.35
932.26	211.33
932.56	211.26
932.86	211.24
933.16	211.23
933.46	211.15
933.76	211.07
934.06	211.18
934.36	211.27
934.66	211.22
934.96	211.17
935.26	211.24
935.56	211.25
935.86	211.24
936.16	211.11
936.46	211.03
936.76	210.97
937.06	210.91
937.36	211.01
937.66	210.97
937.96	210.87
938.26	210.74
938.56	210.73
938.86	210.71
939.16	210.76
939.46	210.78
939.76	210.87
940.06	210.93
940.35	210.83
940.65	210.72
940.95	210.77
941.25	210.73
941.55	210.60
941.85	210.63
942.15	210.68
942.45	210.75
942.75	210.82
943.04	210.82
943.34	210.91
943.64	210.80
943.94	210.78
944.24	210.81
944.54	210.79
944.84	210.86
945.13	210.79
945.43	210.74
945.73	210.75
946.03	210.67
946.33	210.61
946.62	210.56
946.92	210.57
947.22	210.61
947.52	210.52
947.82	210.60
948.11	210.61
948.41	210.57
948.71	210.49
949.01	210.42
949.31	210.46
949.60	210.39
949.90	210.51
950.20	210.50
950.50	210.50
950.79	210.55
951.09	210.54
951.39	210.51
951.69	210.43
951.98	210.54
952.28	210.56
952.58	210.58
952.87	210.60
953.17	210.61
953.47	210.58
953.76	210.65
954.06	210.58
954.36	210.54
954.66	210.54
954.95	210.67
955.25	210.76
955.55	210.77
955.84	210.74
956.14	210.76
956.44	210.81
956.73	210.82
957.03	210.83
957.32	210.87
957.62	210.94
957.92	211.05
958.21	210.91
958.51	211.32
958.81	211.35
959.10	211.42
959.40	211.52
959.69	211.58
959.99	211.65
960.29	211.63
960.58	211.60
960.88	211.69
961.17	211.72
961.47	211.75
961.76	211.67
962.06	211.70
962.36	211.70
962.65	211.69
962.95	211.64
963.24	211.58
963.54	211.62
963.83	211.66
964.13	211.62
964.42	211.58
964.72	211.34
965.01	211.38
965.31	211.32
965.60	211.23
965.90	211.44
966.19	211.37
966.49	211.48
966.78	211.47
967.08	211.47
967.37	211.37
967.67	211.27
967.96	211.34
968.26	211.36
968.55	211.32
968.85	211.38
969.14	211.40
969.43	211.38
969.73	211.30
970.02	211.22
970.32	211.20
970.61	211.24
970.91	211.08
971.20	211.00
971.49	210.99
971.79	211.01
972.08	210.77
972.38	210.84
972.67	210.80
972.96	210.85
973.26	210.75
973.55	210.91
973.85	210.90
974.14	210.86
974.43	210.88
974.73	210.81
975.02	210.74
975.31	210.76
975.61	210.79
975.90	210.76
976.19	210.76
976.49	210.87
976.78	210.88
977.07	210.90
977.37	210.86
977.66	210.91
977.95	210.86
978.24	210.84
978.54	210.88
978.83	210.85
979.12	210.79
979.42	210.82
979.71	210.69
980.00	210.65
980.29	210.78
980.59	210.71
980.88	210.78
981.17	210.77
981.46	210.78
981.76	210.79
982.05	210.90
982.34	210.91
982.63	210.84
982.93	210.80
983.22	210.93
983.51	211.01
983.80	211.05
984.09	211.08
984.39	211.03
984.68	210.91
984.97	210.95
985.26	210.95
985.55	210.98
985.85	210.93
986.14	211.06
986.43	211.05
986.72	211.00
987.01	210.95
987.30	210.90
987.59	210.88
987.89	210.88
988.18	210.78
988.47	210.70
988.76	210.74
989.05	210.74
989.34	210.68
989.63	210.72
989.92	210.66
990.22	210.70
990.51	210.70
990.80	210.75
991.09	210.76
991.38	210.80
991.67	210.75
991.96	210.72
992.25	210.65
992.54	210.52
992.83	210.57
993.12	210.55
993.41	210.62
993.70	210.73
993.99	210.82
994.28	210.82
994.58	210.88
994.87	210.82
995.16	210.82
995.45	210.77
995.74	210.70
996.03	210.75
996.32	210.81
996.61	210.90
996.90	210.90
997.19	210.91
997.48	210.91
997.77	210.93
998.06	210.99
998.34	211.06
998.63	211.09
998.92	211.09
999.21	211.19
999.50	211.20
999.79	211.01
1000.08	211.00
1000.37	211.07
1000.66	211.07
1000.95	211.15
1001.24	211.20
1001.53	211.30
1001.82	211.20
1002.11	211.11
1002.40	211.07
1002.68	211.23
1002.97	211.49
1003.26	211.42
1003.55	211.37
1003.84	211.36
1004.13	211.47
1004.42	211.38
1004.71	211.39
1004.99	211.37
1005.28	211.45
1005.57	211.40
1005.86	211.37
1006.15	211.26
1006.44	211.17
1006.72	211.21
1007.01	211.10
1007.30	211.13
1007.59	211.05
1007.88	211.09
1008.17	211.19
1008.45	211.13
1008.74	210.94
1009.03	210.73
1009.32	210.74
1009.60	210.75
1009.89	210.72
1010.18	210.60
1010.47	210.69
1010.76	210.66
1011.04	210.70
1011.33	210.67
1011.62	210.74
1011.91	210.85
1012.19	210.93
1012.48	211.00
1012.77	211.02
1013.05	211.24
1013.34	211.23
1013.63	211.18
1013.92	211.22
1014.20	211.13
1014.49	211.16
1014.78	211.19
1015.06	211.08
1015.35	211.09
1015.64	211.16
1015.92	211.27
1016.21	211.28
1016.50	211.26
1016.78	211.41
1017.07	211.41
1017.36	211.34
1017.64	211.23
1017.93	211.24
1018.22	211.31
1018.50	211.28
1018.79	211.22
1019.08	211.05
1019.36	211.08
1019.65	211.10
1019.93	211.25
1020.22	211.31
1020.51	211.48
1020.79	211.44
1021.08	212.25
1021.36	210.45
1021.65	210.65
1021.94	211.10
1022.22	211.85
1022.51	210.65
1022.79	213.95
1023.08	211.80
1023.36	215.00
1023.65	210.60
>>>>>End Processed Spectral Data<<<<<
