SpectraSuite Data File
++++++++++++++++++++++++++++++++++++
Date: Mon Feb 25 16:58:03 EST 2013
User: group
Dark Spectrum Present: No
Reference Spectrum Present: No
Number of Sampled Component Spectra: 1
Spectrometers: USB2E7196
Integration Time (usec): 104000 (USB2E7196)
Spectra Averaged: 20 (USB2E7196)
Boxcar Smoothing: 10 (USB2E7196)
Correct for Electrical Dark: No (USB2E7196)
Strobe/Lamp Enabled: No (USB2E7196)
Correct for Detector Non-linearity: No (USB2E7196)
Correct for Stray Light: No (USB2E7196)
Number of Pixels in Processed Spectrum: 2048
>>>>>Begin Processed Spectral Data<<<<<
339.09	0.00
339.48	198.75
339.86	199.80
340.24	202.10
340.63	202.60
341.01	208.85
341.39	205.05
341.78	206.75
342.16	207.90
342.54	209.80
342.93	197.85
343.31	207.78
343.69	208.30
344.07	208.79
344.46	209.23
344.84	209.63
345.22	209.74
345.60	209.97
345.99	210.14
346.37	210.26
346.75	210.23
347.13	210.32
347.52	210.42
347.90	210.63
348.28	210.64
348.66	210.71
349.05	210.63
349.43	210.71
349.81	210.83
350.19	210.95
350.57	210.97
350.96	211.09
351.34	211.24
351.72	211.35
352.10	211.44
352.48	211.47
352.87	211.51
353.25	211.56
353.63	211.67
354.01	211.71
354.39	211.85
354.77	212.01
355.15	212.26
355.54	212.29
355.92	212.17
356.30	212.32
356.68	212.63
357.06	212.75
357.44	212.74
357.82	212.77
358.20	212.84
358.58	213.01
358.97	213.11
359.35	213.25
359.73	213.41
360.11	213.43
360.49	213.41
360.87	213.48
361.25	213.62
361.63	213.81
362.01	213.91
362.39	213.95
362.77	214.05
363.15	214.03
363.53	214.13
363.91	214.30
364.29	214.32
364.67	213.99
365.05	214.00
365.43	214.08
365.81	214.13
366.19	214.24
366.57	214.32
366.95	214.33
367.33	214.24
367.71	214.26
368.09	214.32
368.47	214.40
368.85	214.35
369.23	214.36
369.61	214.34
369.99	214.45
370.37	214.50
370.75	214.62
371.13	214.49
371.51	214.41
371.89	214.29
372.27	214.28
372.65	214.34
373.03	214.35
373.41	214.30
373.78	214.25
374.16	214.03
374.54	213.96
374.92	213.91
375.30	213.93
375.68	213.76
376.06	213.79
376.44	213.70
376.82	213.71
377.19	213.61
377.57	213.39
377.95	213.23
378.33	213.15
378.71	212.93
379.09	212.96
379.47	212.97
379.84	212.92
380.22	212.85
380.60	212.71
380.98	212.60
381.36	212.51
381.73	212.37
382.11	212.46
382.49	212.42
382.87	212.30
383.25	212.17
383.62	212.53
384.00	212.37
384.38	212.33
384.76	212.38
385.13	212.48
385.51	212.50
385.89	212.43
386.27	212.33
386.64	212.25
387.02	212.15
387.40	212.10
387.78	212.04
388.15	212.00
388.53	211.98
388.91	211.96
389.29	211.96
389.66	212.03
390.04	211.90
390.42	211.93
390.79	211.93
391.17	211.91
391.55	211.53
391.92	211.59
392.30	211.61
392.68	211.52
393.05	211.49
393.43	211.50
393.81	211.54
394.18	211.54
394.56	211.64
394.94	211.69
395.31	211.68
395.69	211.84
396.06	211.89
396.44	211.89
396.82	211.93
397.19	212.14
397.57	212.07
397.95	212.19
398.32	212.09
398.70	212.13
399.07	212.29
399.45	212.30
399.82	212.29
400.20	212.31
400.58	212.37
400.95	212.29
401.33	212.42
401.70	212.74
402.08	212.86
402.45	212.87
402.83	213.09
403.20	213.24
403.58	213.29
403.95	213.47
404.33	213.71
404.71	213.89
405.08	214.26
405.46	214.51
405.83	214.72
406.21	214.94
406.58	215.23
406.96	215.58
407.33	215.95
407.70	216.31
408.08	217.06
408.45	217.54
408.83	218.12
409.20	218.53
409.58	218.88
409.95	219.49
410.33	220.24
410.70	220.80
411.08	221.53
411.45	222.32
411.82	223.14
412.20	224.02
412.57	225.10
412.95	225.73
413.32	226.85
413.69	228.00
414.07	229.30
414.44	230.58
414.82	231.90
415.19	233.48
415.56	235.15
415.94	236.67
416.31	238.57
416.68	240.44
417.06	242.64
417.43	244.75
417.81	247.07
418.18	249.52
418.55	252.14
418.93	254.92
419.30	257.85
419.67	260.98
420.04	264.15
420.42	267.50
420.79	271.51
421.16	275.54
421.54	279.65
421.91	283.89
422.28	288.30
422.66	292.90
423.03	297.55
423.40	302.34
423.77	307.54
424.15	312.73
424.52	318.21
424.89	324.16
425.26	329.92
425.64	335.55
426.01	341.63
426.38	348.04
426.75	354.55
427.13	361.39
427.50	368.38
427.87	375.83
428.24	383.26
428.61	390.20
428.99	397.89
429.36	406.22
429.73	414.51
430.10	422.81
430.47	431.45
430.85	440.31
431.22	449.73
431.59	459.65
431.96	469.28
432.33	479.80
432.70	490.10
433.08	502.29
433.45	513.71
433.82	525.06
434.19	537.78
434.56	550.27
434.93	562.33
435.30	574.50
435.68	587.96
436.05	601.34
436.42	614.82
436.79	627.05
437.16	640.26
437.53	654.22
437.90	668.25
438.27	681.90
438.64	696.23
439.01	709.63
439.38	721.64
439.75	733.33
440.13	746.66
440.50	759.40
440.87	769.98
441.24	780.78
441.61	792.90
441.98	802.02
442.35	812.45
442.72	822.87
443.09	832.96
443.46	839.40
443.83	844.09
444.20	848.27
444.57	853.94
444.94	857.44
445.31	861.04
445.68	864.25
446.05	866.28
446.42	865.99
446.79	865.40
447.16	864.87
447.53	864.65
447.90	860.58
448.27	856.56
448.64	850.24
449.01	846.20
449.37	837.87
449.74	830.08
450.11	820.71
450.48	810.10
450.85	799.30
451.22	790.07
451.59	781.23
451.96	772.87
452.33	761.54
452.70	750.93
453.07	738.09
453.43	725.18
453.80	712.92
454.17	701.04
454.54	689.75
454.91	677.50
455.28	665.55
455.65	654.41
456.02	643.12
456.38	633.72
456.75	621.90
457.12	612.19
457.49	602.35
457.86	592.66
458.23	584.65
458.59	575.72
458.96	566.73
459.33	558.67
459.70	550.55
460.07	544.07
460.43	536.72
460.80	529.98
461.17	524.06
461.54	517.55
461.91	511.52
462.27	505.41
462.64	500.12
463.01	494.36
463.38	488.90
463.74	483.25
464.11	478.25
464.48	473.79
464.85	469.01
465.21	465.43
465.58	461.57
465.95	456.84
466.32	453.03
466.68	449.26
467.05	445.47
467.42	441.68
467.78	437.69
468.15	433.98
468.52	430.97
468.88	427.31
469.25	424.07
469.62	421.40
469.98	418.48
470.35	415.77
470.72	413.23
471.08	410.41
471.45	408.07
471.82	405.74
472.18	403.25
472.55	401.33
472.92	399.02
473.28	397.10
473.65	395.15
474.02	393.32
474.38	391.78
474.75	390.45
475.11	388.89
475.48	387.76
475.85	386.78
476.21	385.70
476.58	384.68
476.94	383.97
477.31	383.19
477.67	382.43
478.04	381.85
478.41	381.40
478.77	381.33
479.14	380.90
479.50	380.73
479.87	380.78
480.23	380.75
480.60	380.73
480.96	380.72
481.33	381.29
481.69	381.53
482.06	381.76
482.42	381.95
482.79	382.33
483.15	382.87
483.52	383.76
483.88	384.44
484.25	385.25
484.61	386.07
484.98	386.82
485.34	388.00
485.71	389.19
486.07	390.60
486.44	391.63
486.80	393.16
487.17	394.75
487.53	396.55
487.90	398.41
488.26	400.42
488.62	402.50
488.99	404.42
489.35	406.52
489.72	408.88
490.08	411.38
490.44	414.01
490.81	416.64
491.17	419.00
491.54	421.91
491.90	424.89
492.26	428.00
492.63	431.18
492.99	434.41
493.36	437.82
493.72	441.34
494.08	445.04
494.45	448.88
494.81	452.73
495.17	456.59
495.54	460.68
495.90	464.87
496.26	469.00
496.63	473.43
496.99	478.01
497.35	482.65
497.72	487.35
498.08	492.00
498.44	496.90
498.80	502.22
499.17	507.41
499.53	512.55
499.89	517.92
500.26	523.26
500.62	528.31
500.98	533.67
501.34	539.05
501.71	544.65
502.07	550.02
502.43	555.48
502.79	560.88
503.16	566.30
503.52	571.85
503.88	577.26
504.24	582.67
504.60	588.20
504.97	593.75
505.33	599.31
505.69	605.22
506.05	610.87
506.41	616.30
506.78	621.64
507.14	627.04
507.50	632.36
507.86	637.68
508.22	643.18
508.59	648.36
508.95	653.61
509.31	658.87
509.67	664.00
510.03	669.06
510.39	674.35
510.75	679.68
511.12	684.60
511.48	689.83
511.84	694.93
512.20	699.65
512.56	704.40
512.92	709.15
513.28	713.51
513.64	717.89
514.00	722.21
514.37	726.45
514.73	730.80
515.09	735.05
515.45	739.08
515.81	743.11
516.17	746.91
516.53	750.51
516.89	754.02
517.25	757.52
517.61	761.17
517.97	764.43
518.33	767.37
518.69	770.59
519.05	773.57
519.41	776.55
519.77	780.03
520.13	782.99
520.49	785.64
520.85	788.46
521.21	791.47
521.57	794.33
521.93	796.60
522.29	799.14
522.65	801.58
523.01	804.15
523.37	806.44
523.73	808.96
524.09	811.27
524.45	813.50
524.81	816.07
525.17	818.49
525.53	820.67
525.89	823.00
526.25	825.13
526.61	826.99
526.97	828.79
527.33	830.50
527.68	832.72
528.04	834.81
528.40	836.58
528.76	838.42
529.12	840.22
529.48	842.88
529.84	844.98
530.20	846.91
530.56	849.08
530.91	851.28
531.27	853.44
531.63	855.58
531.99	857.64
532.35	859.67
532.71	861.29
533.07	863.66
533.42	866.09
533.78	868.28
534.14	870.72
534.50	872.77
534.86	875.04
535.21	876.80
535.57	879.12
535.93	881.28
536.29	883.39
536.65	885.70
537.00	887.39
537.36	889.10
537.72	891.08
538.08	892.94
538.44	894.90
538.79	896.99
539.15	899.10
539.51	901.22
539.87	903.18
540.22	905.49
540.58	907.98
540.94	909.78
541.29	911.70
541.65	913.35
542.01	915.68
542.37	917.72
542.72	919.92
543.08	921.72
543.44	924.23
543.79	925.95
544.15	927.85
544.51	930.09
544.87	932.38
545.22	934.50
545.58	936.56
545.94	938.21
546.29	939.79
546.65	941.52
547.01	943.38
547.36	945.47
547.72	947.30
548.07	948.50
548.43	950.15
548.79	951.65
549.14	953.41
549.50	955.08
549.86	956.33
550.21	957.84
550.57	959.80
550.92	961.04
551.28	962.78
551.64	964.29
551.99	965.90
552.35	967.36
552.70	968.92
553.06	970.55
553.41	972.14
553.77	974.15
554.13	975.87
554.48	977.56
554.84	979.29
555.19	981.03
555.55	982.80
555.90	984.24
556.26	985.69
556.61	986.99
556.97	988.16
557.32	989.80
557.68	991.11
558.03	992.06
558.39	993.12
558.74	994.32
559.10	995.66
559.45	996.98
559.81	998.30
560.16	999.25
560.52	1000.32
560.87	1001.87
561.23	1002.36
561.58	1003.55
561.94	1004.48
562.29	1004.93
562.64	1005.69
563.00	1006.36
563.35	1007.50
563.71	1009.22
564.06	1010.40
564.42	1011.62
564.77	1012.90
565.12	1014.12
565.48	1015.19
565.83	1016.52
566.19	1017.74
566.54	1018.43
566.89	1018.97
567.25	1019.98
567.60	1021.08
567.96	1022.28
568.31	1023.10
568.66	1024.06
569.02	1024.45
569.37	1024.77
569.72	1025.41
570.08	1025.70
570.43	1026.11
570.78	1026.25
571.14	1025.73
571.49	1025.79
571.84	1025.71
572.20	1025.38
572.55	1025.08
572.90	1024.78
573.26	1024.24
573.61	1023.58
573.96	1022.99
574.31	1022.30
574.67	1021.20
575.02	1019.84
575.37	1018.30
575.72	1016.76
576.08	1015.76
576.43	1014.59
576.78	1013.16
577.13	1012.05
577.49	1010.97
577.84	1009.55
578.19	1008.30
578.54	1007.57
578.90	1006.78
579.25	1005.42
579.60	1003.76
579.95	1002.11
580.30	1000.85
580.66	999.38
581.01	997.76
581.36	996.00
581.71	994.43
582.06	992.86
582.42	991.45
582.77	989.63
583.12	987.73
583.47	985.85
583.82	983.94
584.17	982.26
584.53	980.24
584.88	978.23
585.23	976.31
585.58	974.28
585.93	971.84
586.28	969.54
586.63	967.55
586.98	965.65
587.34	963.88
587.69	961.37
588.04	959.13
588.39	957.08
588.74	954.92
589.09	952.93
589.44	950.40
589.79	948.15
590.14	946.10
590.49	944.25
590.84	942.00
591.19	940.04
591.54	937.87
591.89	935.06
592.25	932.91
592.60	930.22
592.95	927.51
593.30	924.76
593.65	921.74
594.00	919.01
594.35	917.32
594.70	914.50
595.05	912.08
595.40	909.59
595.75	906.68
596.10	904.14
596.45	901.43
596.80	899.20
597.15	896.73
597.50	893.83
597.85	891.23
598.19	888.40
598.54	885.60
598.89	883.10
599.24	880.97
599.59	878.10
599.94	875.85
600.29	873.28
600.64	870.65
600.99	868.00
601.34	865.52
601.69	861.86
602.04	858.77
602.39	855.87
602.74	853.07
603.08	850.60
603.43	848.15
603.78	845.28
604.13	842.34
604.48	839.54
604.83	837.37
605.18	834.84
605.53	832.08
605.87	829.12
606.22	826.31
606.57	823.39
606.92	820.37
607.27	817.21
607.62	814.43
607.96	811.77
608.31	809.42
608.66	806.37
609.01	803.33
609.36	800.63
609.70	797.50
610.05	794.23
610.40	791.13
610.75	787.85
611.10	785.07
611.44	781.63
611.79	778.45
612.14	774.82
612.49	771.13
612.83	767.96
613.18	764.64
613.53	761.22
613.88	757.76
614.22	754.50
614.57	751.19
614.92	747.97
615.27	744.60
615.61	741.14
615.96	737.93
616.31	734.83
616.65	731.80
617.00	728.87
617.35	725.84
617.70	722.53
618.04	719.12
618.39	715.51
618.74	712.50
619.08	709.15
619.43	706.17
619.78	703.29
620.12	700.36
620.47	697.40
620.82	694.13
621.16	690.80
621.51	687.78
621.85	684.84
622.20	681.60
622.55	678.32
622.89	674.96
623.24	671.73
623.59	668.37
623.93	665.23
624.28	662.12
624.62	659.46
624.97	656.54
625.32	653.59
625.66	650.65
626.01	647.71
626.35	644.67
626.70	641.49
627.04	638.42
627.39	635.38
627.73	632.53
628.08	629.95
628.43	627.22
628.77	624.19
629.12	621.15
629.46	618.38
629.81	615.63
630.15	612.79
630.50	609.92
630.84	607.05
631.19	604.26
631.53	601.45
631.88	598.09
632.22	594.93
632.57	592.28
632.91	589.65
633.26	586.93
633.60	584.23
633.95	581.60
634.29	578.79
634.64	576.06
634.98	573.02
635.32	570.34
635.67	567.92
636.01	565.51
636.36	562.97
636.70	560.48
637.05	558.07
637.39	555.68
637.73	553.29
638.08	551.38
638.42	548.99
638.77	546.75
639.11	544.48
639.45	542.45
639.80	539.92
640.14	537.30
640.49	534.85
640.83	532.53
641.17	530.24
641.52	527.81
641.86	525.36
642.20	523.24
642.55	520.52
642.89	518.00
643.23	515.42
643.58	513.36
643.92	510.98
644.26	508.64
644.61	506.49
644.95	504.11
645.29	501.56
645.64	499.10
645.98	496.55
646.32	494.30
646.66	491.74
647.01	489.43
647.35	487.34
647.69	485.10
648.04	483.00
648.38	480.70
648.72	478.65
649.06	476.52
649.41	474.20
649.75	472.02
650.09	469.85
650.43	467.73
650.78	465.13
651.12	462.79
651.46	460.54
651.80	458.13
652.14	456.05
652.49	453.92
652.83	451.74
653.17	449.58
653.51	447.28
653.85	445.39
654.20	443.30
654.54	441.00
654.88	438.79
655.22	436.63
655.56	434.44
655.90	432.20
656.25	430.06
656.59	428.03
656.93	426.10
657.27	424.21
657.61	422.09
657.95	420.27
658.29	418.35
658.64	416.59
658.98	414.87
659.32	412.80
659.66	410.77
660.00	408.90
660.34	407.10
660.68	405.24
661.02	403.21
661.36	401.44
661.70	399.74
662.05	398.06
662.39	396.32
662.73	394.72
663.07	393.31
663.41	391.65
663.75	389.98
664.09	388.30
664.43	386.45
664.77	384.87
665.11	383.30
665.45	381.75
665.79	379.95
666.13	378.17
666.47	376.65
666.81	375.08
667.15	373.48
667.49	371.95
667.83	370.69
668.17	369.18
668.51	367.76
668.85	366.35
669.19	364.98
669.53	363.42
669.87	361.92
670.21	360.33
670.55	358.95
670.89	357.79
671.23	356.52
671.57	355.25
671.91	354.03
672.25	352.61
672.58	351.25
672.92	350.00
673.26	348.67
673.60	347.47
673.94	346.18
674.28	344.94
674.62	343.79
674.96	342.51
675.30	341.31
675.64	340.03
675.97	338.75
676.31	337.45
676.65	336.38
676.99	335.38
677.33	334.14
677.67	333.00
678.01	331.70
678.34	330.56
678.68	329.46
679.02	328.23
679.36	327.13
679.70	326.03
680.04	324.98
680.37	323.96
680.71	322.80
681.05	321.84
681.39	320.83
681.73	319.70
682.06	318.58
682.40	317.59
682.74	316.56
683.08	315.76
683.42	314.75
683.75	313.84
684.09	312.70
684.43	311.79
684.77	310.78
685.10	309.84
685.44	308.79
685.78	307.86
686.12	306.98
686.45	305.98
686.79	304.98
687.13	304.11
687.46	303.18
687.80	302.38
688.14	301.45
688.48	300.58
688.81	299.68
689.15	298.81
689.49	297.89
689.82	297.15
690.16	296.12
690.50	295.29
690.83	294.18
691.17	293.25
691.51	292.30
691.84	291.46
692.18	290.62
692.52	289.80
692.85	289.00
693.19	288.33
693.52	287.55
693.86	286.75
694.20	285.88
694.53	285.24
694.87	284.36
695.21	283.50
695.54	282.70
695.88	281.86
696.21	281.04
696.55	280.37
696.88	279.53
697.22	278.75
697.56	278.05
697.89	277.40
698.23	276.77
698.56	276.10
698.90	275.48
699.23	274.79
699.57	274.14
699.90	273.38
700.24	272.52
700.58	271.91
700.91	271.43
701.25	271.08
701.58	270.38
701.92	269.80
702.25	269.19
702.59	268.58
702.92	268.02
703.26	267.43
703.59	266.79
703.93	266.53
704.26	265.98
704.60	265.36
704.93	264.80
705.26	264.18
705.60	263.58
705.93	262.91
706.27	262.43
706.60	261.91
706.94	261.55
707.27	261.02
707.61	260.46
707.94	259.74
708.27	258.91
708.61	258.36
708.94	257.80
709.28	257.31
709.61	256.75
709.94	256.30
710.28	255.89
710.61	255.51
710.95	254.71
711.28	254.52
711.61	254.10
711.95	253.71
712.28	253.27
712.61	252.95
712.95	252.70
713.28	252.35
713.61	251.82
713.95	251.26
714.28	250.95
714.61	250.52
714.95	250.17
715.28	249.70
715.61	249.24
715.95	248.85
716.28	248.52
716.61	248.11
716.95	247.67
717.28	247.23
717.61	246.81
717.94	246.50
718.28	245.84
718.61	245.42
718.94	244.95
719.27	244.59
719.61	244.13
719.94	243.72
720.27	243.18
720.60	242.91
720.94	242.58
721.27	242.19
721.60	241.90
721.93	241.63
722.27	241.48
722.60	241.17
722.93	240.86
723.26	240.50
723.59	240.26
723.93	240.00
724.26	239.79
724.59	239.46
724.92	239.14
725.25	239.01
725.59	238.81
725.92	238.61
726.25	238.37
726.58	238.26
726.91	237.97
727.24	237.87
727.57	237.61
727.91	237.30
728.24	237.04
728.57	236.79
728.90	236.54
729.23	236.22
729.56	236.20
729.89	236.05
730.22	235.87
730.55	235.58
730.89	235.35
731.22	235.10
731.55	234.84
731.88	234.65
732.21	234.32
732.54	233.98
732.87	233.79
733.20	233.58
733.53	233.25
733.86	233.00
734.19	232.65
734.52	232.47
734.85	232.52
735.18	232.24
735.51	232.18
735.84	232.01
736.17	231.84
736.50	231.39
736.83	231.54
737.16	231.28
737.49	231.15
737.82	230.88
738.15	230.69
738.48	230.50
738.81	230.26
739.14	230.00
739.47	229.93
739.80	229.73
740.13	229.51
740.46	229.31
740.79	229.13
741.12	228.96
741.45	228.72
741.78	228.29
742.11	228.25
742.44	227.96
742.77	227.83
743.10	227.65
743.43	227.58
743.75	227.12
744.08	227.37
744.41	227.14
744.74	226.95
745.07	226.73
745.40	226.64
745.73	226.67
746.06	226.55
746.39	226.39
746.71	226.22
747.04	226.02
747.37	225.84
747.70	225.74
748.03	225.61
748.36	225.51
748.68	225.37
749.01	225.15
749.34	224.99
749.67	224.81
750.00	224.74
750.33	224.80
750.65	224.59
750.98	224.05
751.31	223.89
751.64	223.88
751.97	223.95
752.29	223.86
752.62	223.59
752.95	223.47
753.28	223.23
753.60	223.08
753.93	223.09
754.26	223.03
754.59	222.78
754.91	222.60
755.24	222.46
755.57	222.36
755.90	222.22
756.22	222.06
756.55	221.93
756.88	221.69
757.20	221.30
757.53	221.12
757.86	220.98
758.19	220.93
758.51	220.77
758.84	220.45
759.17	220.22
759.49	220.06
759.82	220.09
760.15	220.06
760.47	219.94
760.80	219.69
761.13	219.59
761.45	219.46
761.78	219.38
762.11	219.33
762.43	219.24
762.76	219.10
763.08	219.11
763.41	219.00
763.74	218.94
764.06	218.85
764.39	218.76
764.71	218.68
765.04	218.53
765.37	218.40
765.69	218.37
766.02	218.32
766.34	218.25
766.67	218.06
767.00	218.06
767.32	218.16
767.65	218.35
767.97	218.31
768.30	218.30
768.62	218.24
768.95	218.11
769.27	217.99
769.60	218.04
769.92	217.87
770.25	217.82
770.57	217.72
770.90	217.65
771.22	217.53
771.55	217.46
771.87	217.44
772.20	217.38
772.52	217.57
772.85	217.81
773.17	217.75
773.50	217.64
773.82	217.56
774.15	217.33
774.47	217.04
774.80	216.94
775.12	216.89
775.45	216.83
775.77	216.76
776.09	216.74
776.42	216.61
776.74	216.69
777.07	216.58
777.39	216.57
777.72	216.53
778.04	216.55
778.36	216.52
778.69	216.48
779.01	216.49
779.33	216.14
779.66	215.85
779.98	215.75
780.31	215.77
780.63	215.82
780.95	215.88
781.28	215.80
781.60	215.68
781.92	215.55
782.25	215.51
782.57	215.44
782.89	215.40
783.22	215.37
783.54	215.26
783.86	215.23
784.19	215.20
784.51	215.29
784.83	215.21
785.16	215.17
785.48	215.16
785.80	215.09
786.12	215.09
786.45	214.97
786.77	215.05
787.09	214.95
787.42	214.77
787.74	214.77
788.06	214.80
788.38	214.72
788.71	214.71
789.03	214.74
789.35	214.80
789.67	214.71
789.99	214.66
790.32	214.57
790.64	214.57
790.96	214.76
791.28	214.60
791.61	214.59
791.93	214.57
792.25	214.54
792.57	214.80
792.89	214.74
793.21	214.72
793.54	214.58
793.86	214.50
794.18	214.54
794.50	214.39
794.82	214.38
795.14	214.46
795.47	214.53
795.79	214.42
796.11	214.33
796.43	214.30
796.75	214.26
797.07	214.21
797.39	214.16
797.71	213.91
798.04	213.89
798.36	213.80
798.68	213.80
799.00	213.77
799.32	213.49
799.64	213.52
799.96	213.56
800.28	213.66
800.60	213.65
800.92	213.65
801.24	213.62
801.56	213.56
801.89	213.53
802.21	213.54
802.53	213.50
802.85	213.59
803.17	213.70
803.49	213.65
803.81	213.65
804.13	213.59
804.45	213.55
804.77	213.53
805.09	213.52
805.41	213.45
805.73	213.40
806.05	213.34
806.37	213.31
806.69	213.24
807.01	213.16
807.33	213.19
807.65	213.03
807.97	213.18
808.28	213.22
808.60	213.18
808.92	213.06
809.24	213.29
809.56	213.20
809.88	213.10
810.20	213.09
810.52	213.11
810.84	213.05
811.16	212.97
811.48	212.96
811.80	213.15
812.12	213.10
812.43	213.12
812.75	213.16
813.07	213.08
813.39	213.05
813.71	212.98
814.03	212.97
814.35	212.96
814.67	212.81
814.98	212.72
815.30	212.69
815.62	212.63
815.94	212.33
816.26	212.33
816.58	212.27
816.89	212.33
817.21	212.32
817.53	212.40
817.85	212.37
818.17	212.40
818.48	212.17
818.80	212.24
819.12	212.23
819.44	212.13
819.76	212.10
820.07	212.10
820.39	212.09
820.71	212.06
821.03	212.03
821.34	212.05
821.66	212.08
821.98	212.11
822.30	212.20
822.61	212.43
822.93	212.35
823.25	212.35
823.57	212.29
823.88	212.32
824.20	212.34
824.52	212.39
824.83	212.35
825.15	212.35
825.47	212.35
825.79	212.37
826.10	212.31
826.42	212.28
826.74	212.34
827.05	212.29
827.37	212.34
827.69	212.38
828.00	212.31
828.32	212.34
828.64	212.32
828.95	212.46
829.27	212.34
829.58	212.31
829.90	212.38
830.22	212.47
830.53	212.38
830.85	212.30
831.17	212.27
831.48	212.28
831.80	212.28
832.11	212.23
832.43	212.11
832.75	212.13
833.06	212.33
833.38	212.21
833.69	212.22
834.01	212.17
834.32	212.11
834.64	212.15
834.96	212.11
835.27	212.04
835.59	211.85
835.90	211.73
836.22	211.74
836.53	211.60
836.85	211.44
837.16	211.79
837.48	211.81
837.79	211.90
838.11	211.89
838.42	211.94
838.74	211.97
839.05	211.98
839.37	212.05
839.68	211.89
840.00	211.93
840.31	212.00
840.63	211.96
840.94	211.96
841.26	211.91
841.57	211.88
841.88	211.99
842.20	211.96
842.51	212.00
842.83	212.01
843.14	212.35
843.46	212.37
843.77	212.20
844.08	212.13
844.40	212.07
844.71	212.00
845.03	211.98
845.34	211.91
845.65	211.93
845.97	211.97
846.28	212.04
846.60	212.00
846.91	211.95
847.22	211.89
847.54	211.94
847.85	211.95
848.16	211.91
848.48	211.86
848.79	212.04
849.10	212.07
849.42	212.08
849.73	211.76
850.04	211.78
850.36	211.61
850.67	211.75
850.98	211.72
851.30	211.80
851.61	211.70
851.92	211.76
852.23	211.78
852.55	211.73
852.86	211.68
853.17	211.73
853.49	211.79
853.80	211.88
854.11	211.90
854.42	211.93
854.74	211.92
855.05	211.93
855.36	211.65
855.67	211.66
855.99	211.63
856.30	212.04
856.61	212.00
856.92	211.96
857.23	211.91
857.55	211.83
857.86	211.80
858.17	211.90
858.48	211.80
858.79	211.85
859.11	211.91
859.42	211.79
859.73	211.75
860.04	211.74
860.35	211.66
860.66	211.56
860.98	211.53
861.29	211.56
861.60	211.59
861.91	211.78
862.22	211.71
862.53	211.73
862.84	211.30
863.16	211.43
863.47	211.43
863.78	211.38
864.09	211.41
864.40	211.35
864.71	211.33
865.02	211.31
865.33	211.21
865.64	211.14
865.95	211.20
866.27	211.42
866.58	211.41
866.89	211.45
867.20	211.45
867.51	211.47
867.82	211.48
868.13	211.52
868.44	211.40
868.75	211.47
869.06	211.46
869.37	211.58
869.68	211.44
869.99	211.50
870.30	211.49
870.61	211.59
870.92	211.62
871.23	211.60
871.54	211.69
871.85	211.73
872.16	211.77
872.47	211.72
872.78	211.47
873.09	211.46
873.40	211.43
873.71	211.49
874.02	211.44
874.33	211.35
874.64	211.27
874.95	211.34
875.26	211.28
875.56	211.21
875.87	211.13
876.18	211.17
876.49	211.50
876.80	211.50
877.11	211.40
877.42	211.46
877.73	211.53
878.04	211.45
878.35	211.46
878.66	211.40
878.96	211.39
879.27	211.39
879.58	211.37
879.89	211.40
880.20	211.44
880.51	211.47
880.82	211.55
881.12	211.57
881.43	211.47
881.74	211.49
882.05	211.51
882.36	211.53
882.67	211.55
882.97	211.16
883.28	211.15
883.59	211.18
883.90	211.10
884.21	211.06
884.51	211.11
884.82	211.05
885.13	211.13
885.44	211.19
885.74	211.18
886.05	211.18
886.36	211.21
886.67	211.15
886.98	211.30
887.28	211.37
887.59	211.38
887.90	211.40
888.20	211.34
888.51	211.43
888.82	211.39
889.13	211.40
889.43	211.76
889.74	211.81
890.05	211.73
890.35	211.75
890.66	211.71
890.97	211.68
891.28	211.70
891.58	211.62
891.89	211.65
892.20	211.65
892.50	211.57
892.81	211.52
893.12	211.47
893.42	211.30
893.73	211.22
894.04	211.27
894.34	211.29
894.65	211.25
894.95	211.18
895.26	211.21
895.57	211.35
895.87	211.02
896.18	211.02
896.48	211.08
896.79	211.06
897.10	211.12
897.40	211.13
897.71	211.20
898.01	211.20
898.32	211.24
898.63	211.30
898.93	211.44
899.24	211.44
899.54	211.43
899.85	211.45
900.15	211.45
900.46	211.37
900.76	211.43
901.07	211.47
901.38	211.51
901.68	211.54
901.99	211.39
902.29	211.37
902.60	211.32
902.90	211.32
903.21	211.30
903.51	211.33
903.82	211.44
904.12	211.39
904.43	211.45
904.73	211.43
905.03	211.40
905.34	211.69
905.64	211.71
905.95	211.70
906.25	211.72
906.56	211.75
906.86	211.79
907.17	211.65
907.47	211.69
907.77	211.68
908.08	211.61
908.38	211.58
908.69	211.62
908.99	211.66
909.30	211.69
909.60	211.74
909.90	211.71
910.21	211.55
910.51	211.49
910.81	211.47
911.12	211.38
911.42	211.48
911.73	211.10
912.03	211.11
912.33	211.21
912.64	211.21
912.94	211.12
913.24	211.02
913.55	211.08
913.85	211.07
914.15	211.08
914.46	211.15
914.76	211.20
915.06	211.24
915.37	211.20
915.67	211.10
915.97	211.11
916.27	211.05
916.58	211.13
916.88	211.15
917.18	211.09
917.49	211.40
917.79	211.27
918.09	211.35
918.39	211.44
918.70	211.39
919.00	211.40
919.30	211.58
919.60	211.56
919.91	211.58
920.21	211.55
920.51	211.51
920.81	211.44
921.12	211.45
921.42	211.40
921.72	211.42
922.02	211.46
922.32	211.53
922.63	211.58
922.93	211.68
923.23	211.72
923.53	211.67
923.83	211.41
924.13	211.46
924.44	211.40
924.74	211.50
925.04	211.56
925.34	211.50
925.64	211.29
925.94	211.36
926.24	211.46
926.55	211.53
926.85	211.50
927.15	211.54
927.45	211.54
927.75	211.54
928.05	211.55
928.35	211.59
928.65	211.58
928.95	211.57
929.26	211.49
929.56	211.57
929.86	211.66
930.16	211.64
930.46	211.60
930.76	211.61
931.06	211.44
931.36	211.30
931.66	211.34
931.96	211.42
932.26	211.42
932.56	211.35
932.86	211.28
933.16	211.27
933.46	211.26
933.76	211.29
934.06	211.34
934.36	211.50
934.66	211.46
934.96	211.43
935.26	211.45
935.56	211.45
935.86	211.29
936.16	211.21
936.46	211.17
936.76	211.13
937.06	211.08
937.36	211.07
937.66	211.17
937.96	211.15
938.26	211.09
938.56	211.08
938.86	211.07
939.16	211.15
939.46	211.32
939.76	211.29
940.06	211.16
940.35	211.14
940.65	210.92
940.95	210.92
941.25	210.83
941.55	210.82
941.85	210.85
942.15	210.93
942.45	211.04
942.75	211.00
943.04	211.03
943.34	211.12
943.64	211.03
943.94	211.01
944.24	211.02
944.54	211.06
944.84	211.03
945.13	210.98
945.43	210.95
945.73	210.80
946.03	210.80
946.33	210.83
946.62	210.69
946.92	210.66
947.22	210.68
947.52	210.79
947.82	210.74
948.11	210.64
948.41	210.55
948.71	210.47
949.01	210.51
949.31	210.49
949.60	210.45
949.90	210.56
950.20	210.52
950.50	210.48
950.79	210.45
951.09	210.48
951.39	210.52
951.69	210.46
951.98	210.49
952.28	210.48
952.58	210.50
952.87	210.62
953.17	210.74
953.47	210.70
953.76	210.65
954.06	210.61
954.36	210.55
954.66	210.57
954.95	210.72
955.25	210.78
955.55	210.80
955.84	210.73
956.14	210.76
956.44	210.76
956.73	210.75
957.03	210.79
957.32	210.80
957.62	210.72
957.92	210.83
958.21	210.87
958.51	211.30
958.81	211.31
959.10	211.27
959.40	211.31
959.69	211.35
959.99	211.39
960.29	211.42
960.58	211.37
960.88	211.55
961.17	211.46
961.47	211.49
961.76	211.52
962.06	211.62
962.36	211.59
962.65	211.61
962.95	211.68
963.24	211.71
963.54	211.74
963.83	211.79
964.13	211.79
964.42	211.68
964.72	211.44
965.01	211.46
965.31	211.48
965.60	211.36
965.90	211.56
966.19	211.47
966.49	211.46
966.78	211.54
967.08	211.46
967.37	211.43
967.67	211.40
967.96	211.43
968.26	211.44
968.55	211.43
968.85	211.40
969.14	211.42
969.43	211.34
969.73	211.29
970.02	211.27
970.32	211.24
970.61	211.30
970.91	211.13
971.20	211.07
971.49	211.08
971.79	211.15
972.08	210.96
972.38	211.00
972.67	210.99
972.96	210.99
973.26	210.95
973.55	211.09
973.85	211.09
974.14	211.02
974.43	210.98
974.73	210.95
975.02	210.89
975.31	210.82
975.61	210.86
975.90	210.78
976.19	210.75
976.49	210.84
976.78	210.84
977.07	210.81
977.37	210.83
977.66	210.78
977.95	210.72
978.24	210.70
978.54	210.78
978.83	210.79
979.12	210.83
979.42	210.78
979.71	210.69
980.00	210.71
980.29	210.75
980.59	210.75
980.88	210.83
981.17	210.90
981.46	210.98
981.76	210.99
982.05	211.12
982.34	211.14
982.63	211.09
982.93	211.10
983.22	211.20
983.51	211.19
983.80	211.26
984.09	211.29
984.39	211.28
984.68	211.21
984.97	211.25
985.26	211.25
985.55	211.28
985.85	211.24
986.14	211.20
986.43	211.22
986.72	211.12
987.01	211.00
987.30	210.99
987.59	210.87
987.89	210.82
988.18	210.70
988.47	210.72
988.76	210.66
989.05	210.60
989.34	210.56
989.63	210.62
989.92	210.60
990.22	210.55
990.51	210.52
990.80	210.52
991.09	210.50
991.38	210.54
991.67	210.55
991.96	210.48
992.25	210.44
992.54	210.32
992.83	210.35
993.12	210.31
993.41	210.35
993.70	210.54
993.99	210.63
994.28	210.69
994.58	210.71
994.87	210.65
995.16	210.65
995.45	210.56
995.74	210.50
996.03	210.55
996.32	210.60
996.61	210.67
996.90	210.66
997.19	210.65
997.48	210.55
997.77	210.50
998.06	210.56
998.34	210.53
998.63	210.62
998.92	210.65
999.21	210.71
999.50	210.77
999.79	210.61
1000.08	210.60
1000.37	210.61
1000.66	210.53
1000.95	210.61
1001.24	210.59
1001.53	210.65
1001.82	210.63
1002.11	210.52
1002.40	210.58
1002.68	210.66
1002.97	210.93
1003.26	210.87
1003.55	210.87
1003.84	210.92
1004.13	211.01
1004.42	211.02
1004.71	210.98
1004.99	211.03
1005.28	211.11
1005.57	211.03
1005.86	211.03
1006.15	210.94
1006.44	210.95
1006.72	211.05
1007.01	211.02
1007.30	211.05
1007.59	211.07
1007.88	211.06
1008.17	211.07
1008.45	211.08
1008.74	210.95
1009.03	210.72
1009.32	210.81
1009.60	210.76
1009.89	210.75
1010.18	210.60
1010.47	210.63
1010.76	210.69
1011.04	210.62
1011.33	210.64
1011.62	210.70
1011.91	210.71
1012.19	210.76
1012.48	210.71
1012.77	210.72
1013.05	210.89
1013.34	210.95
1013.63	210.91
1013.92	210.94
1014.20	210.90
1014.49	210.87
1014.78	210.79
1015.06	210.68
1015.35	210.58
1015.64	210.79
1015.92	210.81
1016.21	210.82
1016.50	210.83
1016.78	210.92
1017.07	211.04
1017.36	210.92
1017.64	210.84
1017.93	210.87
1018.22	210.84
1018.50	210.89
1018.79	210.84
1019.08	210.68
1019.36	210.71
1019.65	210.74
1019.93	210.81
1020.22	210.86
1020.51	210.94
1020.79	211.08
1021.08	210.30
1021.36	210.80
1021.65	210.50
1021.94	211.30
1022.22	211.50
1022.51	211.20
1022.79	211.85
1023.08	210.75
1023.36	213.50
1023.65	211.30
>>>>>End Processed Spectral Data<<<<<
