SpectraSuite Data File
++++++++++++++++++++++++++++++++++++
Date: Mon Feb 25 17:02:11 EST 2013
User: group
Dark Spectrum Present: No
Reference Spectrum Present: No
Number of Sampled Component Spectra: 1
Spectrometers: USB2E7196
Integration Time (usec): 104000 (USB2E7196)
Spectra Averaged: 20 (USB2E7196)
Boxcar Smoothing: 10 (USB2E7196)
Correct for Electrical Dark: No (USB2E7196)
Strobe/Lamp Enabled: No (USB2E7196)
Correct for Detector Non-linearity: No (USB2E7196)
Correct for Stray Light: No (USB2E7196)
Number of Pixels in Processed Spectrum: 2048
>>>>>Begin Processed Spectral Data<<<<<
339.09	0.00
339.48	199.05
339.86	200.10
340.24	200.60
340.63	202.00
341.01	210.80
341.39	204.55
341.78	206.40
342.16	207.50
342.54	209.30
342.93	198.22
343.31	208.23
343.69	208.68
344.07	209.17
344.46	209.69
344.84	210.14
345.22	210.09
345.60	210.36
345.99	210.59
346.37	210.77
346.75	210.81
347.13	210.80
347.52	210.84
347.90	210.95
348.28	210.97
348.66	211.12
349.05	211.06
349.43	211.08
349.81	211.11
350.19	211.07
350.57	211.09
350.96	211.17
351.34	211.22
351.72	211.43
352.10	211.46
352.48	211.48
352.87	211.49
353.25	211.60
353.63	211.67
354.01	211.73
354.39	211.80
354.77	211.89
355.15	212.06
355.54	212.00
355.92	211.92
356.30	212.01
356.68	212.29
357.06	212.39
357.44	212.49
357.82	212.59
358.20	212.68
358.58	212.72
358.97	212.73
359.35	212.89
359.73	212.95
360.11	213.05
360.49	213.13
360.87	213.22
361.25	213.27
361.63	213.48
362.01	213.48
362.39	213.46
362.77	213.51
363.15	213.57
363.53	213.62
363.91	213.70
364.29	213.62
364.67	213.26
365.05	213.20
365.43	213.16
365.81	213.18
366.19	213.37
366.57	213.51
366.95	213.45
367.33	213.28
367.71	213.26
368.09	213.27
368.47	213.22
368.85	213.16
369.23	213.20
369.61	212.99
369.99	213.10
370.37	213.13
370.75	213.25
371.13	213.15
371.51	213.10
371.89	213.10
372.27	213.13
372.65	213.13
373.03	213.11
373.41	213.09
373.78	212.95
374.16	212.71
374.54	212.44
374.92	212.41
375.30	212.40
375.68	212.30
376.06	212.27
376.44	212.14
376.82	212.11
377.19	212.04
377.57	211.97
377.95	211.85
378.33	211.73
378.71	211.49
379.09	211.49
379.47	211.51
379.84	211.36
380.22	211.29
380.60	211.20
380.98	211.18
381.36	211.13
381.73	211.10
382.11	211.08
382.49	211.10
382.87	211.01
383.25	211.00
383.62	211.38
384.00	211.25
384.38	211.28
384.76	211.29
385.13	211.37
385.51	211.31
385.89	211.18
386.27	211.20
386.64	211.24
387.02	211.17
387.40	211.15
387.78	211.15
388.15	211.15
388.53	211.15
388.91	211.11
389.29	211.03
389.66	211.12
390.04	211.09
390.42	211.17
390.79	211.25
391.17	211.25
391.55	210.83
391.92	210.83
392.30	210.91
392.68	210.84
393.05	210.74
393.43	210.84
393.81	210.86
394.18	210.80
394.56	210.77
394.94	210.87
395.31	210.78
395.69	210.93
396.06	211.03
396.44	211.02
396.82	211.02
397.19	211.20
397.57	211.08
397.95	211.15
398.32	211.05
398.70	211.09
399.07	211.15
399.45	211.17
399.82	211.22
400.20	211.15
400.58	211.12
400.95	211.06
401.33	211.20
401.70	211.45
402.08	211.56
402.45	211.65
402.83	211.75
403.20	211.91
403.58	211.91
403.95	212.05
404.33	212.20
404.71	212.35
405.08	212.70
405.46	212.82
405.83	213.01
406.21	213.21
406.58	213.41
406.96	213.61
407.33	213.86
407.70	214.15
408.08	214.63
408.45	215.01
408.83	215.43
409.20	215.61
409.58	215.76
409.95	216.15
410.33	216.48
410.70	216.79
411.08	217.22
411.45	217.68
411.82	218.03
412.20	218.65
412.57	219.35
412.95	219.55
413.32	220.30
413.69	220.91
414.07	221.58
414.44	222.40
414.82	223.23
415.19	224.16
415.56	225.11
415.94	226.01
416.31	227.22
416.68	228.28
417.06	229.61
417.43	231.00
417.81	232.47
418.18	233.98
418.55	235.49
418.93	237.16
419.30	238.93
419.67	240.79
420.04	242.61
420.42	244.47
420.79	247.04
421.16	249.33
421.54	251.92
421.91	254.46
422.28	257.01
422.66	259.73
423.03	262.65
423.40	265.56
423.77	268.59
424.15	271.60
424.52	274.88
424.89	278.47
425.26	281.84
425.64	285.09
426.01	288.68
426.38	292.52
426.75	296.51
427.13	300.57
427.50	304.73
427.87	309.14
428.24	313.67
428.61	317.73
428.99	322.43
429.36	327.26
429.73	332.21
430.10	337.11
430.47	342.25
430.85	347.35
431.22	352.92
431.59	359.04
431.96	364.68
432.33	371.08
432.70	377.17
433.08	384.36
433.45	391.07
433.82	397.89
434.19	405.62
434.56	412.93
434.93	420.02
435.30	427.20
435.68	435.08
436.05	442.90
436.42	450.83
436.79	458.11
437.16	465.90
437.53	474.18
437.90	482.39
438.27	490.51
438.64	498.91
439.01	506.70
439.38	513.42
439.75	520.26
440.13	527.95
440.50	535.29
440.87	541.40
441.24	547.66
441.61	554.67
441.98	559.76
442.35	565.99
442.72	572.06
443.09	578.07
443.46	582.04
443.83	584.94
444.20	587.24
444.57	590.52
444.94	592.41
445.31	594.29
445.68	596.35
446.05	597.23
446.42	597.08
446.79	596.76
447.16	596.31
447.53	596.31
447.90	593.83
448.27	591.40
448.64	587.72
449.01	585.34
449.37	580.51
449.74	575.81
450.11	570.07
450.48	563.88
450.85	557.38
451.22	551.74
451.59	546.38
451.96	541.44
452.33	534.60
452.70	528.45
453.07	520.92
453.43	513.08
453.80	505.90
454.17	498.87
454.54	492.17
454.91	485.12
455.28	477.93
455.65	471.48
456.02	465.15
456.38	459.57
456.75	452.59
457.12	446.72
457.49	440.90
457.86	435.22
458.23	430.43
458.59	425.15
458.96	419.84
459.33	415.00
459.70	410.24
460.07	406.50
460.43	402.08
460.80	398.04
461.17	394.61
461.54	390.86
461.91	387.22
462.27	383.55
462.64	380.44
463.01	377.06
463.38	373.80
463.74	370.24
464.11	367.26
464.48	364.80
464.85	361.98
465.21	359.89
465.58	357.60
465.95	354.75
466.32	352.48
466.68	350.18
467.05	347.90
467.42	345.58
467.78	343.06
468.15	340.73
468.52	339.14
468.88	336.83
469.25	334.80
469.62	333.17
469.98	331.44
470.35	329.74
470.72	328.21
471.08	326.45
471.45	325.01
471.82	323.65
472.18	321.95
472.55	320.81
472.92	319.44
473.28	318.19
473.65	317.04
474.02	315.89
474.38	314.90
474.75	314.08
475.11	313.19
475.48	312.44
475.85	311.89
476.21	311.13
476.58	310.58
476.94	310.07
477.31	309.53
477.67	308.91
478.04	308.40
478.41	307.93
478.77	307.88
479.14	307.40
479.50	307.15
479.87	307.11
480.23	306.96
480.60	306.83
480.96	306.64
481.33	306.76
481.69	306.81
482.06	306.85
482.42	306.86
482.79	307.03
483.15	307.25
483.52	307.64
483.88	307.73
484.25	307.93
484.61	308.32
484.98	308.52
485.34	309.06
485.71	309.72
486.07	310.30
486.44	310.52
486.80	311.26
487.17	311.83
487.53	312.56
487.90	313.43
488.26	314.41
488.62	315.41
488.99	316.29
489.35	317.17
489.72	318.21
490.08	319.23
490.44	320.23
490.81	321.34
491.17	322.38
491.54	323.77
491.90	325.09
492.26	326.45
492.63	327.92
492.99	329.29
493.36	330.70
493.72	332.25
494.08	333.81
494.45	335.34
494.81	337.11
495.17	338.73
495.54	340.36
495.90	341.97
496.26	343.70
496.63	345.48
496.99	347.30
497.35	349.09
497.72	351.08
498.08	353.04
498.44	354.95
498.80	356.92
499.17	358.80
499.53	360.81
499.89	362.75
500.26	364.77
500.62	366.65
500.98	368.57
501.34	370.38
501.71	372.37
502.07	374.24
502.43	375.93
502.79	377.68
503.16	379.47
503.52	381.18
503.88	382.79
504.24	384.40
504.60	386.04
504.97	387.66
505.33	389.06
505.69	390.74
506.05	392.33
506.41	393.71
506.78	395.04
507.14	396.09
507.50	397.36
507.86	398.54
508.22	399.80
508.59	400.75
508.95	401.91
509.31	402.99
509.67	403.96
510.03	405.05
510.39	406.01
510.75	406.82
511.12	407.58
511.48	408.33
511.84	409.10
512.20	409.69
512.56	410.30
512.92	410.96
513.28	411.20
513.64	411.52
514.00	411.94
514.37	412.33
514.73	412.82
515.09	413.09
515.45	413.17
515.81	413.31
516.17	413.53
516.53	413.52
516.89	413.41
517.25	413.46
517.61	413.30
517.97	413.15
518.33	413.02
518.69	413.06
519.05	412.96
519.41	412.77
519.77	412.87
520.13	412.71
520.49	412.40
520.85	412.36
521.21	412.25
521.57	412.08
521.93	411.74
522.29	411.60
522.65	411.22
523.01	411.16
523.37	410.91
523.73	410.81
524.09	410.78
524.45	410.68
524.81	410.59
525.17	410.70
525.53	410.80
525.89	410.89
526.25	410.89
526.61	410.87
526.97	411.01
527.33	411.14
527.68	411.73
528.04	412.14
528.40	412.43
528.76	412.83
529.12	413.30
529.48	413.92
529.84	414.49
530.20	415.38
530.56	416.11
530.91	417.05
531.27	417.89
531.63	418.70
531.99	419.66
532.35	420.58
532.71	421.52
533.07	422.58
533.42	424.15
533.78	425.25
534.14	426.66
534.50	427.88
534.86	429.22
535.21	430.26
535.57	431.71
535.93	433.14
536.29	434.79
536.65	436.47
537.00	438.08
537.36	439.66
537.72	441.22
538.08	442.95
538.44	444.62
538.79	446.37
539.15	448.29
539.51	450.38
539.87	452.51
540.22	454.55
540.58	456.64
540.94	458.36
541.29	460.62
541.65	462.77
542.01	465.14
542.37	467.44
542.72	469.77
543.08	472.13
543.44	474.75
543.79	476.87
544.15	479.22
544.51	481.96
544.87	484.59
545.22	487.20
545.58	489.90
545.94	492.47
546.29	495.17
546.65	497.68
547.01	500.14
547.36	502.79
547.72	505.57
548.07	508.37
548.43	511.10
548.79	513.74
549.14	516.36
549.50	519.10
549.86	521.69
550.21	524.33
550.57	527.13
550.92	529.55
551.28	532.34
551.64	535.01
551.99	537.67
552.35	540.16
552.70	542.74
553.06	545.33
553.41	547.98
553.77	550.81
554.13	553.60
554.48	556.52
554.84	559.29
555.19	561.83
555.55	564.72
555.90	567.32
556.26	569.72
556.61	572.30
556.97	574.61
557.32	577.00
557.68	579.50
558.03	581.69
558.39	584.23
558.74	586.72
559.10	589.16
559.45	591.44
559.81	594.00
560.16	596.48
560.52	598.89
560.87	601.39
561.23	603.45
561.58	605.85
561.94	607.88
562.29	610.00
562.64	612.30
563.00	614.17
563.35	616.33
563.71	618.88
564.06	621.04
564.42	623.43
564.77	625.82
565.12	628.20
565.48	630.77
565.83	633.01
566.19	635.18
566.54	637.13
566.89	639.08
567.25	641.17
567.60	643.27
567.96	645.45
568.31	647.40
568.66	649.42
569.02	650.89
569.37	652.36
569.72	654.01
570.08	655.37
570.43	656.87
570.78	658.20
571.14	659.31
571.49	660.47
571.84	661.54
572.20	662.47
572.55	663.30
572.90	663.80
573.26	664.47
573.61	665.13
573.96	665.75
574.31	666.27
574.67	666.70
575.02	666.91
575.37	666.88
575.72	666.78
576.08	667.00
576.43	667.30
576.78	667.63
577.13	667.95
577.49	668.30
577.84	668.41
578.19	668.69
578.54	668.98
578.90	669.27
579.25	669.35
579.60	669.43
579.95	669.28
580.30	669.57
580.66	669.66
581.01	669.70
581.36	669.75
581.71	669.66
582.06	669.67
582.42	669.74
582.77	669.62
583.12	669.81
583.47	669.60
583.82	669.50
584.17	669.47
584.53	669.34
584.88	669.00
585.23	668.85
585.58	668.53
585.93	668.05
586.28	668.03
586.63	667.80
586.98	667.56
587.34	667.63
587.69	667.03
588.04	666.73
588.39	666.30
588.74	665.77
589.09	665.53
589.44	664.95
589.79	664.40
590.14	663.90
590.49	663.15
590.84	662.50
591.19	662.12
591.54	661.44
591.89	660.43
592.25	660.01
592.60	658.95
592.95	658.11
593.30	657.25
593.65	656.01
594.00	654.84
594.35	654.96
594.70	653.86
595.05	653.05
595.40	651.97
595.75	650.83
596.10	649.98
596.45	648.94
596.80	647.91
597.15	647.05
597.50	645.92
597.85	645.22
598.19	644.28
598.54	643.11
598.89	642.08
599.24	641.33
599.59	640.06
599.94	639.29
600.29	638.27
600.64	637.29
600.99	636.34
601.34	635.72
601.69	633.57
602.04	632.27
602.39	631.16
602.74	630.18
603.08	629.49
603.43	628.80
603.78	627.81
604.13	626.85
604.48	625.75
604.83	625.03
605.18	624.01
605.53	622.98
605.87	621.87
606.22	621.05
606.57	619.71
606.92	618.55
607.27	617.29
607.62	616.13
607.96	615.12
608.31	614.10
608.66	612.80
609.01	611.54
609.36	610.43
609.70	609.26
610.05	607.63
610.40	606.17
610.75	604.67
611.10	603.45
611.44	601.86
611.79	600.19
612.14	598.70
612.49	596.85
612.83	595.40
613.18	593.75
613.53	591.83
613.88	590.23
614.22	588.55
614.57	586.95
614.92	585.17
615.27	583.39
615.61	581.43
615.96	579.64
616.31	578.10
616.65	576.61
617.00	574.88
617.35	573.35
617.70	571.46
618.04	569.39
618.39	567.37
618.74	565.70
619.08	564.02
619.43	562.09
619.78	560.55
620.12	558.74
620.47	557.12
620.82	555.26
621.16	553.28
621.51	551.82
621.85	550.00
622.20	548.26
622.55	546.40
622.89	544.64
623.24	542.92
623.59	540.99
623.93	539.08
624.28	537.31
624.62	535.90
624.97	534.29
625.32	532.55
625.66	530.92
626.01	529.19
626.35	527.52
626.70	525.68
627.04	524.07
627.39	522.31
627.73	520.55
628.08	519.20
628.43	517.55
628.77	515.55
629.12	513.76
629.46	512.21
629.81	510.46
630.15	508.85
630.50	507.23
630.84	505.42
631.19	503.60
631.53	501.85
631.88	499.70
632.22	497.94
632.57	496.44
632.91	494.62
633.26	492.82
633.60	491.06
633.95	489.57
634.29	487.59
634.64	486.05
634.98	484.15
635.32	482.43
635.67	481.00
636.01	479.55
636.36	478.00
636.70	476.38
637.05	474.87
637.39	473.24
637.73	471.64
638.08	470.41
638.42	469.03
638.77	467.56
639.11	466.06
639.45	464.44
639.80	462.70
640.14	461.08
640.49	459.49
640.83	457.97
641.17	456.27
641.52	454.71
641.86	453.04
642.20	451.68
642.55	449.76
642.89	447.97
643.23	446.18
643.58	444.77
643.92	442.96
644.26	441.24
644.61	439.66
644.95	437.87
645.29	435.89
645.64	434.24
645.98	432.51
646.32	430.88
646.66	429.23
647.01	427.68
647.35	426.16
647.69	424.59
648.04	423.00
648.38	421.50
648.72	419.99
649.06	418.23
649.41	416.50
649.75	415.10
650.09	413.64
650.43	412.11
650.78	410.28
651.12	408.70
651.46	407.30
651.80	405.85
652.14	404.36
652.49	403.08
652.83	401.52
653.17	399.91
653.51	398.43
653.85	397.03
654.20	395.52
654.54	393.96
654.88	392.40
655.22	390.94
655.56	389.31
655.90	387.78
656.25	386.33
656.59	384.95
656.93	383.41
657.27	382.05
657.61	380.48
657.95	379.14
658.29	377.80
658.64	376.47
658.98	374.84
659.32	373.27
659.66	371.72
660.00	370.23
660.34	368.82
660.68	367.32
661.02	365.85
661.36	364.52
661.70	363.19
662.05	361.87
662.39	360.58
662.73	359.43
663.07	358.26
663.41	356.95
663.75	355.62
664.09	354.33
664.43	352.80
664.77	351.54
665.11	350.28
665.45	349.15
665.79	347.82
666.13	346.62
666.47	345.48
666.81	344.14
667.15	342.95
667.49	341.81
667.83	340.83
668.17	339.53
668.51	338.36
668.85	337.20
669.19	336.24
669.53	334.91
669.87	333.71
670.21	332.55
670.55	331.51
670.89	330.66
671.23	329.73
671.57	328.81
671.91	327.86
672.25	326.83
672.58	325.84
672.92	324.80
673.26	323.83
673.60	322.84
673.94	322.00
674.28	321.09
674.62	320.18
674.96	319.04
675.30	318.20
675.64	317.25
675.97	316.32
676.31	315.28
676.65	314.38
676.99	313.65
677.33	312.60
677.67	311.68
678.01	310.56
678.34	309.60
678.68	308.70
679.02	307.74
679.36	306.80
679.70	305.90
680.04	304.98
680.37	304.10
680.71	303.28
681.05	302.46
681.39	301.57
681.73	300.70
682.06	299.97
682.40	299.16
682.74	298.36
683.08	297.65
683.42	296.83
683.75	296.10
684.09	295.10
684.43	294.31
684.77	293.49
685.10	292.67
685.44	291.80
685.78	290.96
686.12	290.26
686.45	289.55
686.79	288.64
687.13	288.01
687.46	287.28
687.80	286.61
688.14	285.83
688.48	285.14
688.81	284.41
689.15	283.76
689.49	282.93
689.82	282.21
690.16	281.31
690.50	280.59
690.83	279.79
691.17	278.95
691.51	278.34
691.84	277.70
692.18	277.04
692.52	276.42
692.85	275.84
693.19	275.25
693.52	274.58
693.86	273.94
694.20	273.28
694.53	272.65
694.87	271.91
695.21	271.25
695.54	270.59
695.88	269.87
696.21	269.15
696.55	268.65
696.88	267.94
697.22	267.34
697.56	266.75
697.89	266.22
698.23	265.83
698.56	265.23
698.90	264.68
699.23	264.10
699.57	263.60
699.90	262.99
700.24	262.40
700.58	261.80
700.91	261.29
701.25	260.92
701.58	260.47
701.92	260.01
702.25	259.54
702.59	259.01
702.92	258.61
703.26	258.07
703.59	257.58
703.93	257.32
704.26	256.95
704.60	256.50
704.93	256.02
705.26	255.40
705.60	254.96
705.93	254.46
706.27	254.07
706.60	253.70
706.94	253.45
707.27	252.86
707.61	252.55
707.94	252.10
708.27	251.53
708.61	250.97
708.94	250.51
709.28	250.10
709.61	249.65
709.94	249.35
710.28	249.02
710.61	248.65
710.95	248.09
711.28	247.94
711.61	247.56
711.95	247.23
712.28	246.94
712.61	246.58
712.95	246.35
713.28	246.27
713.61	245.82
713.95	245.36
714.28	245.20
714.61	244.81
714.95	244.54
715.28	244.08
715.61	243.73
715.95	243.47
716.28	243.13
716.61	242.94
716.95	242.49
717.28	242.18
717.61	241.87
717.94	241.60
718.28	241.05
718.61	240.71
718.94	240.35
719.27	240.05
719.61	239.77
719.94	239.41
720.27	238.88
720.60	238.58
720.94	238.25
721.27	237.99
721.60	237.73
721.93	237.44
722.27	237.32
722.60	237.14
722.93	236.82
723.26	236.70
723.59	236.33
723.93	236.23
724.26	235.95
724.59	235.75
724.92	235.45
725.25	235.25
725.59	235.10
725.92	234.97
726.25	234.71
726.58	234.53
726.91	234.30
727.24	234.12
727.57	233.88
727.91	233.67
728.24	233.44
728.57	233.16
728.90	233.02
729.23	232.72
729.56	232.65
729.89	232.47
730.22	232.22
730.55	231.98
730.89	231.73
731.22	231.50
731.55	231.21
731.88	231.07
732.21	230.90
732.54	230.65
732.87	230.44
733.20	230.32
733.53	230.10
733.86	230.02
734.19	229.79
734.52	229.71
734.85	229.74
735.18	229.52
735.51	229.48
735.84	229.35
736.17	229.30
736.50	228.95
736.83	229.13
737.16	228.90
737.49	228.83
737.82	228.59
738.15	228.51
738.48	228.36
738.81	228.11
739.14	227.83
739.47	227.64
739.80	227.49
740.13	227.32
740.46	227.11
740.79	226.79
741.12	226.60
741.45	226.38
741.78	225.99
742.11	225.87
742.44	225.66
742.77	225.56
743.10	225.32
743.43	225.13
743.75	224.70
744.08	225.00
744.41	224.83
744.74	224.70
745.07	224.46
745.40	224.35
745.73	224.37
746.06	224.32
746.39	224.23
746.71	224.07
747.04	223.85
747.37	223.72
747.70	223.67
748.03	223.55
748.36	223.43
748.68	223.34
749.01	223.13
749.34	223.02
749.67	222.83
750.00	222.72
750.33	222.91
750.65	222.77
750.98	222.23
751.31	222.14
751.64	222.01
751.97	222.09
752.29	221.93
752.62	221.66
752.95	221.49
753.28	221.37
753.60	221.22
753.93	221.21
754.26	221.11
754.59	220.90
754.91	220.74
755.24	220.64
755.57	220.54
755.90	220.45
756.22	220.29
756.55	220.18
756.88	220.00
757.20	219.67
757.53	219.49
757.86	219.42
758.19	219.36
758.51	219.32
758.84	219.10
759.17	219.05
759.49	219.05
759.82	219.17
760.15	219.06
760.47	219.01
760.80	218.90
761.13	218.90
761.45	218.81
761.78	218.79
762.11	218.69
762.43	218.62
762.76	218.41
763.08	218.42
763.41	218.39
763.74	218.40
764.06	218.35
764.39	218.35
764.71	218.26
765.04	218.10
765.37	217.99
765.69	217.91
766.02	217.85
766.34	217.79
766.67	217.53
767.00	217.57
767.32	217.68
767.65	217.77
767.97	217.67
768.30	217.65
768.62	217.60
768.95	217.49
769.27	217.40
769.60	217.60
769.92	217.47
770.25	217.30
770.57	217.15
770.90	217.06
771.22	216.89
771.55	216.83
771.87	216.79
772.20	216.72
772.52	216.95
772.85	217.26
773.17	217.15
773.50	217.13
773.82	217.03
774.15	216.80
774.47	216.57
774.80	216.52
775.12	216.47
775.45	216.41
775.77	216.51
776.09	216.55
776.42	216.42
776.74	216.44
777.07	216.31
777.39	216.33
777.72	216.24
778.04	216.37
778.36	216.28
778.69	216.25
779.01	216.21
779.33	215.88
779.66	215.51
779.98	215.40
780.31	215.40
780.63	215.48
780.95	215.53
781.28	215.45
781.60	215.37
781.92	215.41
782.25	215.40
782.57	215.31
782.89	215.19
783.22	215.12
783.54	215.06
783.86	215.17
784.19	215.08
784.51	215.15
784.83	215.00
785.16	215.00
785.48	214.93
785.80	214.97
786.12	214.97
786.45	214.86
786.77	214.96
787.09	214.85
787.42	214.74
787.74	214.69
788.06	214.69
788.38	214.68
788.71	214.60
789.03	214.57
789.35	214.70
789.67	214.63
789.99	214.67
790.32	214.58
790.64	214.65
790.96	214.95
791.28	214.80
791.61	214.77
791.93	214.75
792.25	214.76
792.57	215.01
792.89	214.93
793.21	214.95
793.54	214.87
793.86	214.85
794.18	214.81
794.50	214.66
794.82	214.62
795.14	214.65
795.47	214.61
795.79	214.62
796.11	214.35
796.43	214.37
796.75	214.33
797.07	214.34
797.39	214.23
797.71	213.96
798.04	214.01
798.36	214.04
798.68	214.01
799.00	214.03
799.32	213.80
799.64	213.88
799.96	213.88
800.28	213.89
800.60	213.91
800.92	213.90
801.24	213.94
801.56	213.99
801.89	213.90
802.21	213.91
802.53	213.82
802.85	213.95
803.17	214.06
803.49	213.96
803.81	213.85
804.13	213.82
804.45	213.72
804.77	213.76
805.09	213.72
805.41	213.61
805.73	213.50
806.05	213.39
806.37	213.30
806.69	213.25
807.01	213.15
807.33	213.19
807.65	213.03
807.97	213.17
808.28	213.08
808.60	213.07
808.92	213.05
809.24	213.26
809.56	213.16
809.88	212.99
810.20	213.06
810.52	213.18
810.84	213.07
811.16	213.01
811.48	212.91
811.80	212.99
812.12	213.02
812.43	213.07
812.75	213.01
813.07	212.94
813.39	212.92
813.71	212.94
814.03	212.81
814.35	212.79
814.67	212.60
814.98	212.56
815.30	212.55
815.62	212.45
815.94	212.19
816.26	212.18
816.58	212.12
816.89	212.08
817.21	211.94
817.53	212.08
817.85	212.10
818.17	212.08
818.48	211.98
818.80	211.99
819.12	211.94
819.44	211.86
819.76	211.78
820.07	211.81
820.39	211.75
820.71	211.83
821.03	211.85
821.34	211.79
821.66	211.86
821.98	211.90
822.30	211.89
822.61	212.03
822.93	212.08
823.25	212.11
823.57	212.01
823.88	212.09
824.20	211.95
824.52	211.95
824.83	211.93
825.15	211.85
825.47	211.94
825.79	212.05
826.10	212.08
826.42	212.11
826.74	212.14
827.05	212.17
827.37	212.10
827.69	212.15
828.00	212.19
828.32	212.15
828.64	212.05
828.95	212.21
829.27	212.13
829.58	212.03
829.90	212.01
830.22	212.05
830.53	211.95
830.85	211.98
831.17	211.95
831.48	211.94
831.80	211.98
832.11	211.83
832.43	211.61
832.75	211.57
833.06	211.80
833.38	211.67
833.69	211.63
834.01	211.66
834.32	211.64
834.64	211.64
834.96	211.59
835.27	211.56
835.59	211.49
835.90	211.45
836.22	211.42
836.53	211.37
836.85	211.36
837.16	211.79
837.48	211.78
837.79	211.85
838.11	211.89
838.42	211.88
838.74	211.97
839.05	212.03
839.37	212.09
839.68	211.87
840.00	211.85
840.31	211.97
840.63	211.89
840.94	211.84
841.26	211.81
841.57	211.84
841.88	211.98
842.20	211.90
842.51	211.85
842.83	211.97
843.14	212.36
843.46	212.31
843.77	212.09
844.08	212.01
844.40	211.94
844.71	211.90
845.03	211.78
845.34	211.78
845.65	211.78
845.97	211.72
846.28	211.75
846.60	211.78
846.91	211.65
847.22	211.64
847.54	211.63
847.85	211.63
848.16	211.61
848.48	211.47
848.79	211.63
849.10	211.65
849.42	211.60
849.73	211.18
850.04	211.16
850.36	210.97
850.67	211.07
850.98	211.07
851.30	211.10
851.61	211.13
851.92	211.10
852.23	211.23
852.55	211.21
852.86	211.18
853.17	211.18
853.49	211.25
853.80	211.33
854.11	211.39
854.42	211.41
854.74	211.36
855.05	211.35
855.36	211.17
855.67	211.13
855.99	211.14
856.30	211.66
856.61	211.69
856.92	211.74
857.23	211.75
857.55	211.72
857.86	211.60
858.17	211.67
858.48	211.64
858.79	211.48
859.11	211.55
859.42	211.56
859.73	211.49
860.04	211.45
860.35	211.34
860.66	211.24
860.98	211.27
861.29	211.30
861.60	211.33
861.91	211.38
862.22	211.39
862.53	211.31
862.84	210.85
863.16	210.99
863.47	210.94
863.78	210.91
864.09	210.95
864.40	211.08
864.71	211.16
865.02	211.21
865.33	211.25
865.64	211.25
865.95	211.21
866.27	211.50
866.58	211.55
866.89	211.66
867.20	211.72
867.51	211.68
867.82	211.71
868.13	211.85
868.44	211.79
868.75	211.87
869.06	211.97
869.37	212.03
869.68	211.91
869.99	211.97
870.30	212.05
870.61	212.11
870.92	212.02
871.23	211.93
871.54	211.95
871.85	212.03
872.16	212.09
872.47	212.15
872.78	211.89
873.09	211.91
873.40	211.85
873.71	211.88
874.02	211.84
874.33	211.83
874.64	211.72
874.95	211.90
875.26	211.85
875.56	211.80
875.87	211.80
876.18	211.80
876.49	212.15
876.80	212.11
877.11	212.01
877.42	212.05
877.73	212.10
878.04	212.00
878.35	212.02
878.66	211.98
878.96	211.94
879.27	212.00
879.58	211.90
879.89	211.85
880.20	211.92
880.51	211.95
880.82	211.96
881.12	212.00
881.43	211.84
881.74	211.80
882.05	211.77
882.36	211.76
882.67	211.80
882.97	211.41
883.28	211.39
883.59	211.37
883.90	211.39
884.21	211.41
884.51	211.50
884.82	211.39
885.13	211.34
885.44	211.31
885.74	211.31
886.05	211.37
886.36	211.36
886.67	211.27
886.98	211.46
887.28	211.41
887.59	211.47
887.90	211.52
888.20	211.48
888.51	211.60
888.82	211.56
889.13	211.54
889.43	211.83
889.74	211.73
890.05	211.73
890.35	211.65
890.66	211.54
890.97	211.43
891.28	211.37
891.58	211.40
891.89	211.39
892.20	211.25
892.50	211.16
892.81	211.14
893.12	211.14
893.42	210.84
893.73	210.82
894.04	210.78
894.34	210.79
894.65	210.74
894.95	210.63
895.26	210.56
895.57	210.72
895.87	210.41
896.18	210.48
896.48	210.58
896.79	210.69
897.10	210.80
897.40	210.81
897.71	210.90
898.01	210.98
898.32	211.05
898.63	211.13
898.93	211.18
899.24	211.23
899.54	211.21
899.85	211.29
900.15	211.35
900.46	211.27
900.76	211.28
901.07	211.30
901.38	211.25
901.68	211.37
901.99	211.15
902.29	211.17
902.60	211.11
902.90	211.05
903.21	210.95
903.51	210.86
903.82	210.98
904.12	210.98
904.43	210.95
904.73	210.95
905.03	211.06
905.34	211.36
905.64	211.35
905.95	211.36
906.25	211.36
906.56	211.40
906.86	211.39
907.17	211.38
907.47	211.45
907.77	211.45
908.08	211.36
908.38	211.40
908.69	211.41
908.99	211.50
909.30	211.57
909.60	211.62
909.90	211.71
910.21	211.60
910.51	211.55
910.81	211.53
911.12	211.53
911.42	211.48
911.73	211.18
912.03	211.27
912.33	211.33
912.64	211.34
912.94	211.24
913.24	211.20
913.55	211.15
913.85	211.13
914.15	211.23
914.46	211.33
914.76	211.39
915.06	211.36
915.37	211.36
915.67	211.31
915.97	211.27
916.27	211.11
916.58	211.13
916.88	211.15
917.18	211.12
917.49	211.32
917.79	211.29
918.09	211.29
918.39	211.28
918.70	211.30
919.00	211.33
919.30	211.48
919.60	211.53
919.91	211.50
920.21	211.49
920.51	211.39
920.81	211.29
921.12	211.27
921.42	211.25
921.72	211.18
922.02	211.24
922.32	211.30
922.63	211.45
922.93	211.61
923.23	211.63
923.53	211.60
923.83	211.35
924.13	211.34
924.44	211.37
924.74	211.53
925.04	211.58
925.34	211.52
925.64	211.42
925.94	211.36
926.24	211.57
926.55	211.51
926.85	211.57
927.15	211.61
927.45	211.66
927.75	211.69
928.05	211.70
928.35	211.63
928.65	211.70
928.95	211.71
929.26	211.57
929.56	211.65
929.86	211.65
930.16	211.72
930.46	211.77
930.76	211.76
931.06	211.58
931.36	211.47
931.66	211.60
931.96	211.62
932.26	211.64
932.56	211.47
932.86	211.57
933.16	211.58
933.46	211.48
933.76	211.37
934.06	211.44
934.36	211.58
934.66	211.58
934.96	211.47
935.26	211.40
935.56	211.47
935.86	211.37
936.16	211.35
936.46	211.27
936.76	211.17
937.06	211.10
937.36	211.10
937.66	211.11
937.96	211.00
938.26	210.95
938.56	210.96
938.86	210.95
939.16	210.93
939.46	211.02
939.76	211.09
940.06	211.13
940.35	210.98
940.65	210.88
940.95	210.95
941.25	210.93
941.55	210.87
941.85	210.84
942.15	210.95
942.45	211.01
942.75	210.98
943.04	211.05
943.34	211.12
943.64	211.10
943.94	211.05
944.24	211.07
944.54	211.07
944.84	211.08
945.13	211.05
945.43	211.00
945.73	210.91
946.03	210.82
946.33	210.80
946.62	210.83
946.92	210.79
947.22	210.79
947.52	210.77
947.82	210.87
948.11	210.82
948.41	210.73
948.71	210.70
949.01	210.79
949.31	210.72
949.60	210.75
949.90	210.81
950.20	210.80
950.50	210.81
950.79	210.79
951.09	210.80
951.39	210.79
951.69	210.78
951.98	210.89
952.28	210.95
952.58	210.88
952.87	210.85
953.17	210.88
953.47	210.80
953.76	210.86
954.06	210.75
954.36	210.68
954.66	210.64
954.95	210.71
955.25	210.74
955.55	210.79
955.84	210.68
956.14	210.68
956.44	210.72
956.73	210.65
957.03	210.67
957.32	210.71
957.62	210.63
957.92	210.72
958.21	210.62
958.51	211.00
958.81	211.08
959.10	211.19
959.40	211.26
959.69	211.27
959.99	211.34
960.29	211.31
960.58	211.39
960.88	211.46
961.17	211.44
961.47	211.41
961.76	211.42
962.06	211.45
962.36	211.40
962.65	211.32
962.95	211.26
963.24	211.24
963.54	211.21
963.83	211.30
964.13	211.32
964.42	211.28
964.72	210.97
965.01	210.97
965.31	210.92
965.60	210.75
965.90	210.96
966.19	210.85
966.49	210.97
966.78	210.89
967.08	210.96
967.37	210.92
967.67	210.81
967.96	210.80
968.26	210.83
968.55	210.90
968.85	210.92
969.14	210.93
969.43	210.93
969.73	210.96
970.02	210.99
970.32	210.94
970.61	210.92
970.91	210.88
971.20	210.86
971.49	210.83
971.79	210.90
972.08	210.62
972.38	210.63
972.67	210.55
972.96	210.61
973.26	210.50
973.55	210.63
973.85	210.67
974.14	210.69
974.43	210.71
974.73	210.65
975.02	210.66
975.31	210.76
975.61	210.76
975.90	210.60
976.19	210.53
976.49	210.51
976.78	210.54
977.07	210.45
977.37	210.46
977.66	210.54
977.95	210.54
978.24	210.65
978.54	210.71
978.83	210.75
979.12	210.76
979.42	210.79
979.71	210.71
980.00	210.73
980.29	210.71
980.59	210.64
980.88	210.70
981.17	210.67
981.46	210.64
981.76	210.57
982.05	210.78
982.34	210.83
982.63	210.88
982.93	210.87
983.22	211.01
983.51	210.94
983.80	210.98
984.09	211.00
984.39	210.95
984.68	210.88
984.97	210.87
985.26	210.79
985.55	210.82
985.85	210.80
986.14	210.80
986.43	210.81
986.72	210.85
987.01	210.75
987.30	210.78
987.59	210.77
987.89	210.82
988.18	210.67
988.47	210.62
988.76	210.55
989.05	210.55
989.34	210.48
989.63	210.67
989.92	210.58
990.22	210.51
990.51	210.52
990.80	210.56
991.09	210.59
991.38	210.55
991.67	210.42
991.96	210.32
992.25	210.32
992.54	210.30
992.83	210.25
993.12	210.24
993.41	210.30
993.70	210.44
993.99	210.50
994.28	210.58
994.58	210.65
994.87	210.64
995.16	210.57
995.45	210.54
995.74	210.39
996.03	210.49
996.32	210.52
996.61	210.57
996.90	210.50
997.19	210.50
997.48	210.57
997.77	210.62
998.06	210.69
998.34	210.67
998.63	210.63
998.92	210.66
999.21	210.73
999.50	210.71
999.79	210.59
1000.08	210.55
1000.37	210.55
1000.66	210.55
1000.95	210.58
1001.24	210.61
1001.53	210.70
1001.82	210.60
1002.11	210.51
1002.40	210.55
1002.68	210.58
1002.97	210.84
1003.26	210.81
1003.55	210.81
1003.84	210.81
1004.13	210.92
1004.42	210.97
1004.71	210.99
1004.99	211.00
1005.28	211.06
1005.57	211.11
1005.86	211.05
1006.15	211.04
1006.44	210.88
1006.72	210.89
1007.01	210.88
1007.30	210.92
1007.59	210.90
1007.88	210.95
1008.17	211.00
1008.45	210.98
1008.74	210.92
1009.03	210.74
1009.32	210.67
1009.60	210.61
1009.89	210.60
1010.18	210.47
1010.47	210.46
1010.76	210.47
1011.04	210.44
1011.33	210.50
1011.62	210.48
1011.91	210.57
1012.19	210.72
1012.48	210.84
1012.77	210.85
1013.05	211.06
1013.34	211.02
1013.63	211.02
1013.92	211.03
1014.20	211.03
1014.49	211.08
1014.78	211.09
1015.06	210.98
1015.35	211.10
1015.64	211.19
1015.92	211.25
1016.21	211.27
1016.50	211.21
1016.78	211.30
1017.07	211.30
1017.36	211.30
1017.64	211.32
1017.93	211.34
1018.22	211.23
1018.50	211.26
1018.79	211.27
1019.08	211.12
1019.36	211.21
1019.65	211.18
1019.93	211.32
1020.22	211.37
1020.51	211.46
1020.79	211.43
1021.08	210.90
1021.36	211.25
1021.65	211.20
1021.94	211.45
1022.22	211.95
1022.51	211.00
1022.79	212.60
1023.08	211.90
1023.36	214.10
1023.65	210.05
>>>>>End Processed Spectral Data<<<<<
