SpectraSuite Data File
++++++++++++++++++++++++++++++++++++
Date: Mon Feb 25 17:01:56 EST 2013
User: group
Dark Spectrum Present: No
Reference Spectrum Present: No
Number of Sampled Component Spectra: 1
Spectrometers: USB2E7196
Integration Time (usec): 104000 (USB2E7196)
Spectra Averaged: 20 (USB2E7196)
Boxcar Smoothing: 10 (USB2E7196)
Correct for Electrical Dark: No (USB2E7196)
Strobe/Lamp Enabled: No (USB2E7196)
Correct for Detector Non-linearity: No (USB2E7196)
Correct for Stray Light: No (USB2E7196)
Number of Pixels in Processed Spectrum: 2048
>>>>>Begin Processed Spectral Data<<<<<
339.09	0.00
339.48	198.45
339.86	200.00
340.24	201.45
340.63	202.60
341.01	209.60
341.39	205.40
341.78	206.80
342.16	208.85
342.54	208.20
342.93	197.98
343.31	207.97
343.69	208.48
344.07	209.00
344.46	209.46
344.84	209.91
345.22	209.90
345.60	210.19
345.99	210.36
346.37	210.52
346.75	210.58
347.13	210.60
347.52	210.65
347.90	210.83
348.28	210.88
348.66	211.00
349.05	210.90
349.43	210.98
349.81	211.04
350.19	211.10
350.57	211.21
350.96	211.33
351.34	211.44
351.72	211.56
352.10	211.59
352.48	211.56
352.87	211.53
353.25	211.58
353.63	211.59
354.01	211.70
354.39	211.69
354.77	211.79
355.15	211.95
355.54	211.99
355.92	211.93
356.30	212.00
356.68	212.29
357.06	212.38
357.44	212.39
357.82	212.55
358.20	212.54
358.58	212.57
358.97	212.65
359.35	212.73
359.73	212.78
360.11	212.83
360.49	212.91
360.87	212.99
361.25	213.10
361.63	213.28
362.01	213.32
362.39	213.34
362.77	213.46
363.15	213.46
363.53	213.51
363.91	213.51
364.29	213.57
364.67	213.21
365.05	213.24
365.43	213.30
365.81	213.21
366.19	213.40
366.57	213.51
366.95	213.45
367.33	213.40
367.71	213.42
368.09	213.55
368.47	213.60
368.85	213.55
369.23	213.62
369.61	213.49
369.99	213.56
370.37	213.56
370.75	213.69
371.13	213.57
371.51	213.52
371.89	213.53
372.27	213.47
372.65	213.50
373.03	213.45
373.41	213.37
373.78	213.25
374.16	213.03
374.54	212.91
374.92	212.80
375.30	212.76
375.68	212.58
376.06	212.45
376.44	212.34
376.82	212.33
377.19	212.26
377.57	212.17
377.95	211.93
378.33	211.95
378.71	211.67
379.09	211.74
379.47	211.71
379.84	211.65
380.22	211.49
380.60	211.36
380.98	211.26
381.36	211.20
381.73	211.19
382.11	211.24
382.49	211.21
382.87	211.20
383.25	211.19
383.62	211.69
384.00	211.59
384.38	211.52
384.76	211.54
385.13	211.65
385.51	211.57
385.89	211.62
386.27	211.54
386.64	211.49
387.02	211.38
387.40	211.32
387.78	211.29
388.15	211.32
388.53	211.35
388.91	211.27
389.29	211.22
389.66	211.22
390.04	211.15
390.42	211.12
390.79	211.15
391.17	210.98
391.55	210.52
391.92	210.55
392.30	210.58
392.68	210.51
393.05	210.45
393.43	210.49
393.81	210.43
394.18	210.33
394.56	210.36
394.94	210.39
395.31	210.36
395.69	210.48
396.06	210.59
396.44	210.57
396.82	210.62
397.19	210.86
397.57	210.84
397.95	210.85
398.32	210.79
398.70	210.83
399.07	210.97
399.45	211.01
399.82	211.07
400.20	211.14
400.58	211.11
400.95	210.94
401.33	211.05
401.70	211.32
402.08	211.39
402.45	211.44
402.83	211.63
403.20	211.74
403.58	211.77
403.95	211.87
404.33	212.01
404.71	212.17
405.08	212.42
405.46	212.57
405.83	212.75
406.21	212.93
406.58	213.14
406.96	213.38
407.33	213.59
407.70	213.76
408.08	214.27
408.45	214.60
408.83	215.05
409.20	215.32
409.58	215.41
409.95	215.83
410.33	216.23
410.70	216.57
411.08	217.10
411.45	217.55
411.82	217.97
412.20	218.56
412.57	219.22
412.95	219.55
413.32	220.25
413.69	220.95
414.07	221.68
414.44	222.45
414.82	223.21
415.19	224.18
415.56	225.19
415.94	225.99
416.31	227.22
416.68	228.30
417.06	229.73
417.43	231.10
417.81	232.57
418.18	234.09
418.55	235.65
418.93	237.27
419.30	239.12
419.67	241.02
420.04	242.92
420.42	244.99
420.79	247.48
421.16	249.82
421.54	252.42
421.91	255.02
422.28	257.68
422.66	260.54
423.03	263.63
423.40	266.52
423.77	269.64
424.15	272.83
424.52	276.20
424.89	279.76
425.26	283.34
425.64	286.68
426.01	290.43
426.38	294.35
426.75	298.37
427.13	302.40
427.50	306.73
427.87	311.20
428.24	315.70
428.61	319.99
428.99	324.89
429.36	329.88
429.73	334.92
430.10	340.04
430.47	345.26
430.85	350.40
431.22	356.13
431.59	362.40
431.96	368.25
432.33	374.85
432.70	381.17
433.08	388.54
433.45	395.67
433.82	402.79
434.19	410.39
434.56	418.02
434.93	425.44
435.30	432.71
435.68	440.88
436.05	449.04
436.42	457.10
436.79	464.46
437.16	472.39
437.53	480.87
437.90	489.17
438.27	497.36
438.64	505.97
439.01	513.95
439.38	521.02
439.75	528.06
440.13	535.83
440.50	543.37
440.87	549.67
441.24	556.14
441.61	563.12
441.98	568.73
442.35	574.92
442.72	581.17
443.09	587.45
443.46	591.33
443.83	594.08
444.20	596.55
444.57	599.95
444.94	601.96
445.31	603.98
445.68	606.22
446.05	607.36
446.42	607.14
446.79	606.87
447.16	606.41
447.53	606.17
447.90	603.69
448.27	601.10
448.64	597.32
449.01	594.79
449.37	589.85
449.74	584.99
450.11	579.25
450.48	572.90
450.85	566.14
451.22	560.60
451.59	555.35
451.96	550.12
452.33	543.12
452.70	536.82
453.07	529.14
453.43	521.05
453.80	513.74
454.17	506.46
454.54	499.64
454.91	492.33
455.28	485.05
455.65	478.31
456.02	471.78
456.38	466.00
456.75	458.65
457.12	452.65
457.49	446.81
457.86	440.95
458.23	436.11
458.59	430.77
458.96	425.29
459.33	420.21
459.70	415.41
460.07	411.53
460.43	407.04
460.80	402.86
461.17	399.28
461.54	395.33
461.91	391.74
462.27	387.99
462.64	384.71
463.01	381.27
463.38	378.10
463.74	374.43
464.11	371.47
464.48	368.92
464.85	366.07
465.21	363.91
465.58	361.58
465.95	358.52
466.32	356.10
466.68	353.82
467.05	351.56
467.42	349.18
467.78	346.68
468.15	344.37
468.52	342.60
468.88	340.21
469.25	338.17
469.62	336.47
469.98	334.69
470.35	333.05
470.72	331.50
471.08	329.58
471.45	328.21
471.82	326.74
472.18	325.15
472.55	323.94
472.92	322.40
473.28	321.19
473.65	319.96
474.02	318.86
474.38	317.77
474.75	316.86
475.11	315.89
475.48	315.15
475.85	314.46
476.21	313.71
476.58	313.23
476.94	312.75
477.31	312.22
477.67	311.63
478.04	311.12
478.41	310.65
478.77	310.66
479.14	310.35
479.50	310.12
479.87	309.92
480.23	309.83
480.60	309.67
480.96	309.50
481.33	309.77
481.69	309.81
482.06	309.85
482.42	309.94
482.79	310.05
483.15	310.26
483.52	310.62
483.88	310.98
484.25	311.22
484.61	311.59
484.98	311.92
485.34	312.47
485.71	313.06
486.07	313.62
486.44	313.93
486.80	314.43
487.17	315.13
487.53	316.00
487.90	316.84
488.26	317.83
488.62	318.84
488.99	319.66
489.35	320.65
489.72	321.69
490.08	322.75
490.44	323.89
490.81	325.10
491.17	326.17
491.54	327.37
491.90	328.66
492.26	330.05
492.63	331.53
492.99	332.95
493.36	334.43
493.72	336.07
494.08	337.64
494.45	339.28
494.81	341.05
495.17	342.62
495.54	344.44
495.90	346.16
496.26	347.94
496.63	349.78
496.99	351.62
497.35	353.50
497.72	355.48
498.08	357.41
498.44	359.34
498.80	361.43
499.17	363.43
499.53	365.42
499.89	367.53
500.26	369.45
500.62	371.36
500.98	373.54
501.34	375.48
501.71	377.49
502.07	379.49
502.43	381.33
502.79	383.23
503.16	384.91
503.52	386.73
503.88	388.47
504.24	390.28
504.60	392.08
504.97	393.83
505.33	395.39
505.69	397.09
506.05	398.79
506.41	400.39
506.78	401.82
507.14	403.23
507.50	404.61
507.86	405.96
508.22	407.34
508.59	408.43
508.95	409.64
509.31	410.95
509.67	412.11
510.03	413.00
510.39	414.00
510.75	414.97
511.12	415.93
511.48	416.68
511.84	417.45
512.20	417.98
512.56	418.62
512.92	419.34
513.28	419.93
513.64	420.26
514.00	420.58
514.37	420.97
514.73	421.47
515.09	421.70
515.45	421.82
515.81	421.88
516.17	421.91
516.53	421.92
516.89	421.83
517.25	421.73
517.61	421.82
517.97	421.80
518.33	421.68
518.69	421.52
519.05	421.51
519.41	421.37
519.77	421.49
520.13	421.28
520.49	421.06
520.85	420.86
521.21	420.82
521.57	420.61
521.93	420.27
522.29	420.02
522.65	419.73
523.01	419.66
523.37	419.55
523.73	419.50
524.09	419.38
524.45	419.25
524.81	419.26
525.17	419.28
525.53	419.37
525.89	419.39
526.25	419.60
526.61	419.60
526.97	419.65
527.33	419.74
527.68	420.31
528.04	420.67
528.40	420.99
528.76	421.38
529.12	421.90
529.48	422.73
529.84	423.27
530.20	424.00
530.56	424.79
530.91	425.75
531.27	426.61
531.63	427.51
531.99	428.45
532.35	429.44
532.71	430.37
533.07	431.55
533.42	433.17
533.78	434.17
534.14	435.46
534.50	436.69
534.86	438.07
535.21	439.10
535.57	440.54
535.93	442.01
536.29	443.68
536.65	445.34
537.00	446.85
537.36	448.48
537.72	450.15
538.08	451.92
538.44	453.62
538.79	455.44
539.15	457.36
539.51	459.34
539.87	461.28
540.22	463.38
540.58	465.45
540.94	467.18
541.29	469.43
541.65	471.65
542.01	474.04
542.37	476.26
542.72	478.57
543.08	480.77
543.44	483.25
543.79	485.36
544.15	487.94
544.51	490.58
544.87	493.22
545.22	495.85
545.58	498.43
545.94	500.90
546.29	503.49
546.65	505.96
547.01	508.50
547.36	511.31
547.72	513.98
548.07	516.52
548.43	519.12
548.79	521.62
549.14	524.14
549.50	526.71
549.86	529.43
550.21	532.20
550.57	535.10
550.92	537.67
551.28	540.54
551.64	543.18
551.99	545.78
552.35	548.28
552.70	550.76
553.06	553.43
553.41	556.13
553.77	559.02
554.13	561.77
554.48	564.66
554.84	567.40
555.19	570.03
555.55	572.96
555.90	575.71
556.26	578.26
556.61	580.89
556.97	583.35
557.32	585.90
557.68	588.41
558.03	590.66
558.39	592.98
558.74	595.25
559.10	597.51
559.45	599.95
559.81	602.53
560.16	604.87
560.52	607.19
560.87	609.60
561.23	611.60
561.58	614.10
561.94	616.10
562.29	618.04
562.64	620.16
563.00	622.17
563.35	624.27
563.71	626.70
564.06	628.89
564.42	631.28
564.77	633.44
565.12	635.72
565.48	638.25
565.83	640.63
566.19	643.05
566.54	645.08
566.89	646.88
567.25	648.96
567.60	651.21
567.96	653.42
568.31	655.58
568.66	657.45
569.02	658.86
569.37	660.45
569.72	662.18
570.08	663.92
570.43	665.14
570.78	666.51
571.14	667.83
571.49	669.11
571.84	670.16
572.20	671.18
572.55	672.06
572.90	672.60
573.26	673.24
573.61	673.73
573.96	674.48
574.31	675.19
574.67	675.53
575.02	675.63
575.37	675.75
575.72	675.65
576.08	675.97
576.43	676.21
576.78	676.48
577.13	676.67
577.49	676.75
577.84	677.13
578.19	677.42
578.54	677.65
578.90	677.91
579.25	678.03
579.60	678.02
579.95	677.87
580.30	677.99
580.66	678.33
581.01	678.20
581.36	677.95
581.71	677.70
582.06	677.69
582.42	677.75
582.77	677.60
583.12	677.50
583.47	677.35
583.82	677.47
584.17	677.31
584.53	677.13
584.88	676.94
585.23	676.69
585.58	676.31
585.93	675.84
586.28	675.48
586.63	675.29
586.98	675.01
587.34	675.11
587.69	674.71
588.04	673.99
588.39	673.77
588.74	673.45
589.09	673.28
589.44	672.50
589.79	672.05
590.14	671.56
590.49	671.06
590.84	670.34
591.19	669.69
591.54	669.15
591.89	668.30
592.25	667.70
592.60	666.67
592.95	665.75
593.30	664.84
593.65	663.78
594.00	662.61
594.35	662.43
594.70	661.14
595.05	660.16
595.40	659.24
595.75	657.93
596.10	656.83
596.45	655.65
596.80	654.99
597.15	653.85
597.50	652.77
597.85	651.72
598.19	650.81
598.54	649.75
598.89	648.70
599.24	647.94
599.59	646.75
599.94	645.95
600.29	644.98
600.64	644.02
600.99	642.88
601.34	641.97
601.69	640.05
602.04	638.86
602.39	637.78
602.74	636.88
603.08	636.01
603.43	635.28
603.78	634.27
604.13	633.06
604.48	632.11
604.83	631.16
605.18	630.31
605.53	629.16
605.87	627.98
606.22	626.89
606.57	625.53
606.92	624.37
607.27	623.08
607.62	622.00
607.96	620.90
608.31	619.97
608.66	618.78
609.01	617.55
609.36	616.22
609.70	614.80
610.05	613.19
610.40	611.93
610.75	610.26
611.10	608.95
611.44	607.28
611.79	605.69
612.14	603.87
612.49	601.85
612.83	600.13
613.18	598.36
613.53	596.69
613.88	594.92
614.22	593.25
614.57	591.59
614.92	589.75
615.27	587.87
615.61	585.80
615.96	584.00
616.31	582.34
616.65	580.94
617.00	579.13
617.35	577.42
617.70	575.50
618.04	573.68
618.39	571.60
618.74	569.97
619.08	568.07
619.43	566.39
619.78	564.89
620.12	563.16
620.47	561.52
620.82	559.58
621.16	557.67
621.51	555.95
621.85	554.08
622.20	552.10
622.55	550.24
622.89	548.52
623.24	546.74
623.59	544.70
623.93	542.76
624.28	541.16
624.62	539.77
624.97	538.06
625.32	536.38
625.66	534.79
626.01	533.00
626.35	531.27
626.70	529.44
627.04	527.73
627.39	526.00
627.73	524.34
628.08	522.71
628.43	521.05
628.77	519.10
629.12	517.30
629.46	515.82
629.81	514.05
630.15	512.33
630.50	510.42
630.84	508.61
631.19	506.92
631.53	505.06
631.88	502.82
632.22	500.83
632.57	499.07
632.91	497.37
633.26	495.63
633.60	493.90
633.95	492.27
634.29	490.27
634.64	488.54
634.98	486.62
635.32	485.00
635.67	483.46
636.01	481.83
636.36	480.27
636.70	478.66
637.05	477.11
637.39	475.49
637.73	474.10
638.08	472.97
638.42	471.28
638.77	469.77
639.11	468.30
639.45	466.80
639.80	465.03
640.14	463.26
640.49	461.63
640.83	459.92
641.17	458.33
641.52	456.80
641.86	455.13
642.20	453.59
642.55	451.64
642.89	449.88
643.23	448.19
643.58	446.62
643.92	444.85
644.26	443.11
644.61	441.50
644.95	439.76
645.29	437.89
645.64	436.19
645.98	434.50
646.32	432.75
646.66	431.00
647.01	429.35
647.35	427.85
647.69	426.13
648.04	424.67
648.38	423.01
648.72	421.37
649.06	419.74
649.41	418.05
649.75	416.60
650.09	415.09
650.43	413.54
650.78	411.80
651.12	410.18
651.46	408.61
651.80	407.05
652.14	405.45
652.49	403.92
652.83	402.41
653.17	400.83
653.51	399.27
653.85	397.95
654.20	396.54
654.54	394.98
654.88	393.43
655.22	391.85
655.56	390.26
655.90	388.77
656.25	387.27
656.59	385.85
656.93	384.41
657.27	383.09
657.61	381.59
657.95	380.16
658.29	378.68
658.64	377.29
658.98	375.85
659.32	374.37
659.66	372.84
660.00	371.39
660.34	369.93
660.68	368.44
661.02	366.86
661.36	365.34
661.70	363.88
662.05	362.60
662.39	361.30
662.73	360.17
663.07	358.97
663.41	357.76
663.75	356.37
664.09	355.04
664.43	353.57
664.77	352.28
665.11	351.02
665.45	349.78
665.79	348.55
666.13	347.25
666.47	345.92
666.81	344.71
667.15	343.51
667.49	342.41
667.83	341.41
668.17	340.17
668.51	339.10
668.85	338.05
669.19	337.04
669.53	335.90
669.87	334.55
670.21	333.45
670.55	332.35
670.89	331.54
671.23	330.54
671.57	329.44
671.91	328.46
672.25	327.38
672.58	326.46
672.92	325.41
673.26	324.44
673.60	323.51
673.94	322.55
674.28	321.58
674.62	320.61
674.96	319.63
675.30	318.84
675.64	317.93
675.97	316.90
676.31	315.85
676.65	314.95
676.99	314.25
677.33	313.20
677.67	312.24
678.01	311.16
678.34	310.18
678.68	309.33
679.02	308.42
679.36	307.49
679.70	306.48
680.04	305.57
680.37	304.60
680.71	303.66
681.05	302.76
681.39	301.93
681.73	301.05
682.06	300.19
682.40	299.36
682.74	298.48
683.08	297.85
683.42	297.00
683.75	296.12
684.09	295.17
684.43	294.41
684.77	293.57
685.10	292.75
685.44	291.95
685.78	291.07
686.12	290.29
686.45	289.57
686.79	288.78
687.13	288.16
687.46	287.46
687.80	286.86
688.14	286.14
688.48	285.47
688.81	284.71
689.15	284.08
689.49	283.27
689.82	282.60
690.16	281.68
690.50	280.98
690.83	280.26
691.17	279.48
691.51	278.75
691.84	278.12
692.18	277.32
692.52	276.62
692.85	276.18
693.19	275.67
693.52	275.02
693.86	274.35
694.20	273.63
694.53	273.10
694.87	272.43
695.21	271.82
695.54	271.03
695.88	270.39
696.21	269.62
696.55	269.12
696.88	268.50
697.22	267.89
697.56	267.37
697.89	266.71
698.23	266.20
698.56	265.63
698.90	265.09
699.23	264.60
699.57	264.11
699.90	263.43
700.24	262.80
700.58	262.31
700.91	261.82
701.25	261.53
701.58	260.95
701.92	260.40
702.25	259.82
702.59	259.35
702.92	258.84
703.26	258.41
703.59	257.85
703.93	257.68
704.26	257.26
704.60	256.80
704.93	256.34
705.26	255.82
705.60	255.40
705.93	254.90
706.27	254.52
706.60	254.13
706.94	253.79
707.27	253.26
707.61	252.75
707.94	252.29
708.27	251.51
708.61	251.09
708.94	250.76
709.28	250.37
709.61	249.93
709.94	249.61
710.28	249.24
710.61	248.87
710.95	248.10
711.28	247.98
711.61	247.50
711.95	247.33
712.28	246.87
712.61	246.60
712.95	246.42
713.28	246.22
713.61	245.87
713.95	245.43
714.28	245.10
714.61	244.80
714.95	244.46
715.28	244.18
715.61	243.77
715.95	243.39
716.28	243.06
716.61	242.79
716.95	242.34
717.28	241.92
717.61	241.55
717.94	241.32
718.28	240.76
718.61	240.47
718.94	240.00
719.27	239.76
719.61	239.38
719.94	238.85
720.27	238.37
720.60	238.03
720.94	237.82
721.27	237.61
721.60	237.36
721.93	237.07
722.27	236.99
722.60	236.84
722.93	236.58
723.26	236.35
723.59	236.10
723.93	235.92
724.26	235.76
724.59	235.60
724.92	235.44
725.25	235.22
725.59	234.98
725.92	234.91
726.25	234.66
726.58	234.44
726.91	234.28
727.24	234.13
727.57	233.95
727.91	233.58
728.24	233.44
728.57	233.20
728.90	233.01
729.23	232.63
729.56	232.54
729.89	232.36
730.22	232.14
730.55	231.94
730.89	231.73
731.22	231.49
731.55	231.26
731.88	231.02
732.21	230.86
732.54	230.70
732.87	230.35
733.20	230.25
733.53	230.13
733.86	230.03
734.19	229.79
734.52	229.69
734.85	229.75
735.18	229.43
735.51	229.32
735.84	229.21
736.17	229.15
736.50	228.85
736.83	229.04
737.16	228.87
737.49	228.71
737.82	228.54
738.15	228.44
738.48	228.23
738.81	228.08
739.14	227.87
739.47	227.69
739.80	227.61
740.13	227.50
740.46	227.29
740.79	227.07
741.12	226.94
741.45	226.70
741.78	226.38
742.11	226.38
742.44	226.17
742.77	226.11
743.10	225.96
743.43	225.82
743.75	225.37
744.08	225.72
744.41	225.53
744.74	225.43
745.07	225.27
745.40	225.29
745.73	225.27
746.06	225.11
746.39	225.04
746.71	224.86
747.04	224.62
747.37	224.50
747.70	224.43
748.03	224.28
748.36	224.17
748.68	224.05
749.01	223.85
749.34	223.75
749.67	223.58
750.00	223.51
750.33	223.62
750.65	223.51
750.98	222.96
751.31	222.90
751.64	222.82
751.97	222.80
752.29	222.62
752.62	222.33
752.95	222.20
753.28	222.01
753.60	221.91
753.93	221.96
754.26	221.89
754.59	221.67
754.91	221.55
755.24	221.46
755.57	221.36
755.90	221.26
756.22	221.11
756.55	220.96
756.88	220.77
757.20	220.47
757.53	220.26
757.86	220.17
758.19	220.04
758.51	219.88
758.84	219.65
759.17	219.50
759.49	219.40
759.82	219.48
760.15	219.49
760.47	219.30
760.80	219.11
761.13	219.06
761.45	219.00
761.78	218.89
762.11	218.79
762.43	218.66
762.76	218.52
763.08	218.45
763.41	218.46
763.74	218.40
764.06	218.30
764.39	218.20
764.71	218.01
765.04	217.95
765.37	217.79
765.69	217.77
766.02	217.72
766.34	217.68
766.67	217.53
767.00	217.45
767.32	217.69
767.65	217.86
767.97	217.67
768.30	217.56
768.62	217.57
768.95	217.49
769.27	217.43
769.60	217.44
769.92	217.37
770.25	217.22
770.57	217.02
770.90	216.97
771.22	216.90
771.55	216.88
771.87	216.85
772.20	216.82
772.52	217.03
772.85	217.37
773.17	217.29
773.50	217.18
773.82	217.03
774.15	216.81
774.47	216.49
774.80	216.42
775.12	216.41
775.45	216.30
775.77	216.28
776.09	216.27
776.42	216.20
776.74	216.21
777.07	216.13
777.39	216.23
777.72	216.10
778.04	216.07
778.36	216.06
778.69	215.95
779.01	215.97
779.33	215.59
779.66	215.17
779.98	215.14
780.31	215.03
780.63	215.11
780.95	215.05
781.28	214.98
781.60	215.02
781.92	214.99
782.25	214.95
782.57	214.88
782.89	214.81
783.22	214.69
783.54	214.63
783.86	214.63
784.19	214.56
784.51	214.69
784.83	214.72
785.16	214.70
785.48	214.75
785.80	214.70
786.12	214.65
786.45	214.60
786.77	214.61
787.09	214.56
787.42	214.43
787.74	214.43
788.06	214.50
788.38	214.38
788.71	214.26
789.03	214.22
789.35	214.23
789.67	214.16
789.99	214.21
790.32	214.10
790.64	214.06
790.96	214.25
791.28	214.01
791.61	213.89
791.93	213.88
792.25	213.79
792.57	214.02
792.89	213.96
793.21	213.98
793.54	213.82
793.86	213.77
794.18	213.79
794.50	213.75
794.82	213.68
795.14	213.75
795.47	213.79
795.79	213.78
796.11	213.66
796.43	213.72
796.75	213.64
797.07	213.63
797.39	213.59
797.71	213.32
798.04	213.37
798.36	213.39
798.68	213.33
799.00	213.28
799.32	213.10
799.64	213.13
799.96	213.10
800.28	213.26
800.60	213.31
800.92	213.34
801.24	213.30
801.56	213.38
801.89	213.30
802.21	213.30
802.53	213.20
802.85	213.34
803.17	213.40
803.49	213.36
803.81	213.37
804.13	213.45
804.45	213.45
804.77	213.45
805.09	213.41
805.41	213.36
805.73	213.38
806.05	213.25
806.37	213.23
806.69	213.21
807.01	213.10
807.33	213.13
807.65	212.98
807.97	213.06
808.28	212.90
808.60	212.87
808.92	212.89
809.24	213.12
809.56	212.98
809.88	212.91
810.20	212.93
810.52	212.90
810.84	212.80
811.16	212.73
811.48	212.73
811.80	212.91
812.12	212.93
812.43	213.01
812.75	213.05
813.07	213.04
813.39	212.95
813.71	212.98
814.03	212.92
814.35	212.94
814.67	212.79
814.98	212.79
815.30	212.77
815.62	212.65
815.94	212.46
816.26	212.47
816.58	212.33
816.89	212.39
817.21	212.33
817.53	212.31
817.85	212.39
818.17	212.30
818.48	212.12
818.80	212.14
819.12	212.01
819.44	211.95
819.76	211.90
820.07	211.96
820.39	211.92
820.71	211.90
821.03	211.91
821.34	211.93
821.66	212.02
821.98	212.09
822.30	212.06
822.61	212.20
822.93	212.15
823.25	212.12
823.57	212.03
823.88	212.10
824.20	211.97
824.52	211.97
824.83	211.97
825.15	211.91
825.47	211.91
825.79	211.93
826.10	211.89
826.42	211.82
826.74	211.87
827.05	211.80
827.37	211.83
827.69	211.74
828.00	211.73
828.32	211.70
828.64	211.58
828.95	211.75
829.27	211.73
829.58	211.70
829.90	211.80
830.22	211.82
830.53	211.75
830.85	211.82
831.17	211.68
831.48	211.61
831.80	211.62
832.11	211.61
832.43	211.58
832.75	211.56
833.06	211.85
833.38	211.72
833.69	211.77
834.01	211.73
834.32	211.74
834.64	211.68
834.96	211.67
835.27	211.64
835.59	211.55
835.90	211.41
836.22	211.35
836.53	211.25
836.85	211.18
837.16	211.45
837.48	211.44
837.79	211.60
838.11	211.70
838.42	211.68
838.74	211.66
839.05	211.61
839.37	211.64
839.68	211.26
840.00	211.25
840.31	211.24
840.63	211.21
840.94	211.20
841.26	211.17
841.57	211.13
841.88	211.18
842.20	211.15
842.51	211.15
842.83	211.21
843.14	211.55
843.46	211.60
843.77	211.42
844.08	211.39
844.40	211.23
844.71	211.19
845.03	211.14
845.34	211.12
845.65	211.15
845.97	211.18
846.28	211.33
846.60	211.38
846.91	211.39
847.22	211.37
847.54	211.48
847.85	211.54
848.16	211.56
848.48	211.51
848.79	211.64
849.10	211.57
849.42	211.61
849.73	211.23
850.04	211.17
850.36	211.08
850.67	211.17
850.98	211.20
851.30	211.23
851.61	211.26
851.92	211.17
852.23	211.29
852.55	211.35
852.86	211.32
853.17	211.38
853.49	211.34
853.80	211.43
854.11	211.45
854.42	211.54
854.74	211.46
855.05	211.50
855.36	211.29
855.67	211.29
855.99	211.28
856.30	211.71
856.61	211.73
856.92	211.73
857.23	211.68
857.55	211.68
857.86	211.67
858.17	211.73
858.48	211.78
858.79	211.73
859.11	211.72
859.42	211.75
859.73	211.67
860.04	211.75
860.35	211.62
860.66	211.49
860.98	211.43
861.29	211.49
861.60	211.41
861.91	211.50
862.22	211.55
862.53	211.49
862.84	211.13
863.16	211.29
863.47	211.33
863.78	211.33
864.09	211.30
864.40	211.31
864.71	211.34
865.02	211.30
865.33	211.19
865.64	211.04
865.95	211.02
866.27	211.23
866.58	211.17
866.89	211.27
867.20	211.31
867.51	211.23
867.82	211.21
868.13	211.41
868.44	211.37
868.75	211.47
869.06	211.53
869.37	211.51
869.68	211.42
869.99	211.49
870.30	211.54
870.61	211.64
870.92	211.53
871.23	211.47
871.54	211.55
871.85	211.62
872.16	211.67
872.47	211.67
872.78	211.46
873.09	211.53
873.40	211.46
873.71	211.47
874.02	211.58
874.33	211.56
874.64	211.33
874.95	211.37
875.26	211.20
875.56	211.22
875.87	211.23
876.18	211.16
876.49	211.47
876.80	211.36
877.11	211.26
877.42	211.35
877.73	211.30
878.04	211.29
878.35	211.27
878.66	211.30
878.96	211.33
879.27	211.33
879.58	211.25
879.89	211.19
880.20	211.25
880.51	211.11
880.82	211.16
881.12	211.18
881.43	211.19
881.74	211.21
882.05	211.11
882.36	211.12
882.67	211.14
882.97	210.74
883.28	210.76
883.59	210.75
883.90	210.75
884.21	210.90
884.51	210.90
884.82	210.92
885.13	210.93
885.44	210.84
885.74	210.83
886.05	210.82
886.36	210.87
886.67	210.75
886.98	210.99
887.28	210.93
887.59	210.97
887.90	210.95
888.20	210.95
888.51	211.03
888.82	210.91
889.13	210.94
889.43	211.21
889.74	211.20
890.05	211.15
890.35	211.16
890.66	211.09
890.97	211.05
891.28	211.01
891.58	210.96
891.89	210.99
892.20	210.99
892.50	210.92
892.81	210.94
893.12	210.98
893.42	210.77
893.73	210.80
894.04	210.78
894.34	210.77
894.65	210.73
894.95	210.68
895.26	210.74
895.57	210.86
895.87	210.56
896.18	210.58
896.48	210.60
896.79	210.58
897.10	210.59
897.40	210.62
897.71	210.61
898.01	210.61
898.32	210.66
898.63	210.63
898.93	210.73
899.24	210.68
899.54	210.62
899.85	210.59
900.15	210.62
900.46	210.64
900.76	210.67
901.07	210.82
901.38	210.87
901.68	210.99
901.99	210.83
902.29	210.82
902.60	210.81
902.90	210.85
903.21	210.81
903.51	210.78
903.82	210.81
904.12	210.85
904.43	210.83
904.73	210.85
905.03	210.88
905.34	211.14
905.64	211.11
905.95	211.08
906.25	211.08
906.56	211.06
906.86	211.06
907.17	211.05
907.47	211.02
907.77	210.96
908.08	210.79
908.38	210.83
908.69	210.84
908.99	210.92
909.30	210.94
909.60	210.94
909.90	210.93
910.21	210.86
910.51	210.85
910.81	210.93
911.12	210.96
911.42	210.99
911.73	210.60
912.03	210.61
912.33	210.74
912.64	210.73
912.94	210.70
913.24	210.64
913.55	210.63
913.85	210.52
914.15	210.60
914.46	210.65
914.76	210.66
915.06	210.72
915.37	210.66
915.67	210.57
915.97	210.61
916.27	210.62
916.58	210.55
916.88	210.47
917.18	210.39
917.49	210.58
917.79	210.57
918.09	210.65
918.39	210.79
918.70	210.75
919.00	210.82
919.30	210.93
919.60	210.88
919.91	210.79
920.21	210.85
920.51	210.76
920.81	210.77
921.12	210.72
921.42	210.70
921.72	210.72
922.02	210.80
922.32	210.86
922.63	210.88
922.93	211.09
923.23	211.21
923.53	211.22
923.83	210.98
924.13	211.06
924.44	211.07
924.74	211.05
925.04	211.11
925.34	211.13
925.64	211.06
925.94	211.12
926.24	211.37
926.55	211.35
926.85	211.40
927.15	211.43
927.45	211.45
927.75	211.45
928.05	211.39
928.35	211.36
928.65	211.37
928.95	211.32
929.26	211.25
929.56	211.22
929.86	211.21
930.16	211.19
930.46	211.06
930.76	211.07
931.06	211.01
931.36	210.90
931.66	211.00
931.96	211.02
932.26	211.08
932.56	210.86
932.86	210.84
933.16	210.87
933.46	210.82
933.76	210.81
934.06	210.86
934.36	211.06
934.66	211.17
934.96	211.15
935.26	211.24
935.56	211.25
935.86	211.24
936.16	211.23
936.46	211.19
936.76	211.25
937.06	211.17
937.36	211.19
937.66	211.23
937.96	211.20
938.26	211.12
938.56	211.04
938.86	211.13
939.16	211.32
939.46	211.33
939.76	211.38
940.06	211.35
940.35	211.31
940.65	211.16
940.95	211.06
941.25	210.99
941.55	210.89
941.85	210.91
942.15	210.92
942.45	211.02
942.75	211.05
943.04	211.09
943.34	211.29
943.64	211.28
943.94	211.29
944.24	211.26
944.54	211.27
944.84	211.36
945.13	211.31
945.43	211.19
945.73	211.17
946.03	211.20
946.33	211.21
946.62	211.21
946.92	211.20
947.22	211.25
947.52	211.28
947.82	211.37
948.11	211.21
948.41	211.22
948.71	211.16
949.01	211.19
949.31	211.18
949.60	211.07
949.90	211.01
950.20	211.01
950.50	210.96
950.79	210.99
951.09	211.00
951.39	211.07
951.69	211.00
951.98	211.16
952.28	211.12
952.58	211.11
952.87	211.08
953.17	211.15
953.47	211.09
953.76	211.10
954.06	211.04
954.36	211.04
954.66	210.97
954.95	211.06
955.25	211.07
955.55	211.02
955.84	211.01
956.14	211.08
956.44	211.12
956.73	211.06
957.03	211.08
957.32	211.02
957.62	210.98
957.92	211.07
958.21	210.97
958.51	211.36
958.81	211.40
959.10	211.41
959.40	211.40
959.69	211.43
959.99	211.45
960.29	211.48
960.58	211.52
960.88	211.71
961.17	211.64
961.47	211.73
961.76	211.65
962.06	211.72
962.36	211.74
962.65	211.75
962.95	211.75
963.24	211.75
963.54	211.82
963.83	211.82
964.13	211.83
964.42	211.70
964.72	211.39
965.01	211.40
965.31	211.41
965.60	211.38
965.90	211.62
966.19	211.57
966.49	211.58
966.78	211.61
967.08	211.53
967.37	211.54
967.67	211.46
967.96	211.55
968.26	211.52
968.55	211.55
968.85	211.50
969.14	211.56
969.43	211.52
969.73	211.51
970.02	211.53
970.32	211.45
970.61	211.51
970.91	211.44
971.20	211.37
971.49	211.39
971.79	211.38
972.08	211.15
972.38	211.18
972.67	211.15
972.96	211.15
973.26	211.09
973.55	211.18
973.85	211.18
974.14	211.20
974.43	211.21
974.73	211.11
975.02	211.12
975.31	211.11
975.61	211.08
975.90	211.01
976.19	210.92
976.49	210.95
976.78	210.96
977.07	210.99
977.37	211.03
977.66	210.99
977.95	210.98
978.24	211.00
978.54	211.07
978.83	211.07
979.12	211.09
979.42	211.05
979.71	210.95
980.00	210.92
980.29	210.95
980.59	210.89
980.88	211.03
981.17	210.99
981.46	210.98
981.76	211.00
982.05	211.12
982.34	211.20
982.63	211.22
982.93	211.26
983.22	211.28
983.51	211.30
983.80	211.34
984.09	211.39
984.39	211.29
984.68	211.22
984.97	211.21
985.26	211.08
985.55	211.18
985.85	211.07
986.14	211.16
986.43	211.17
986.72	211.16
987.01	211.06
987.30	211.06
987.59	211.03
987.89	211.01
988.18	210.85
988.47	210.75
988.76	210.72
989.05	210.67
989.34	210.68
989.63	210.78
989.92	210.70
990.22	210.64
990.51	210.68
990.80	210.62
991.09	210.64
991.38	210.75
991.67	210.70
991.96	210.68
992.25	210.59
992.54	210.50
992.83	210.50
993.12	210.45
993.41	210.51
993.70	210.63
993.99	210.67
994.28	210.75
994.58	210.88
994.87	210.84
995.16	210.81
995.45	210.66
995.74	210.48
996.03	210.55
996.32	210.69
996.61	210.77
996.90	210.78
997.19	210.78
997.48	210.74
997.77	210.67
998.06	210.75
998.34	210.76
998.63	210.82
998.92	210.84
999.21	210.90
999.50	210.93
999.79	210.82
1000.08	210.85
1000.37	210.85
1000.66	210.79
1000.95	210.93
1001.24	210.92
1001.53	210.97
1001.82	211.01
1002.11	210.97
1002.40	210.92
1002.68	210.98
1002.97	211.25
1003.26	211.19
1003.55	211.25
1003.84	211.37
1004.13	211.54
1004.42	211.50
1004.71	211.43
1004.99	211.35
1005.28	211.43
1005.57	211.41
1005.86	211.41
1006.15	211.39
1006.44	211.39
1006.72	211.42
1007.01	211.30
1007.30	211.35
1007.59	211.38
1007.88	211.35
1008.17	211.36
1008.45	211.33
1008.74	211.20
1009.03	211.05
1009.32	211.11
1009.60	211.00
1009.89	210.86
1010.18	210.69
1010.47	210.68
1010.76	210.73
1011.04	210.82
1011.33	210.79
1011.62	210.77
1011.91	210.80
1012.19	210.80
1012.48	210.73
1012.77	210.74
1013.05	210.94
1013.34	210.98
1013.63	210.95
1013.92	211.02
1014.20	210.99
1014.49	210.95
1014.78	210.97
1015.06	210.79
1015.35	210.79
1015.64	210.88
1015.92	210.94
1016.21	210.96
1016.50	211.03
1016.78	211.04
1017.07	211.00
1017.36	210.99
1017.64	210.91
1017.93	210.89
1018.22	210.85
1018.50	210.83
1018.79	210.81
1019.08	210.58
1019.36	210.57
1019.65	210.56
1019.93	210.63
1020.22	210.72
1020.51	210.92
1020.79	210.87
1021.08	210.65
1021.36	209.00
1021.65	210.90
1021.94	209.90
1022.22	211.45
1022.51	210.65
1022.79	212.55
1023.08	212.15
1023.36	214.75
1023.65	209.50
>>>>>End Processed Spectral Data<<<<<
