SpectraSuite Data File
++++++++++++++++++++++++++++++++++++
Date: Mon Feb 25 17:19:42 EST 2013
User: group
Dark Spectrum Present: No
Reference Spectrum Present: No
Number of Sampled Component Spectra: 1
Spectrometers: USB2E7196
Integration Time (usec): 104000 (USB2E7196)
Spectra Averaged: 20 (USB2E7196)
Boxcar Smoothing: 10 (USB2E7196)
Correct for Electrical Dark: No (USB2E7196)
Strobe/Lamp Enabled: No (USB2E7196)
Correct for Detector Non-linearity: No (USB2E7196)
Correct for Stray Light: No (USB2E7196)
Number of Pixels in Processed Spectrum: 2048
>>>>>Begin Processed Spectral Data<<<<<
339.09	0.00
339.48	197.80
339.86	199.45
340.24	201.55
340.63	201.95
341.01	210.05
341.39	206.60
341.78	207.20
342.16	210.35
342.54	209.20
342.93	198.57
343.31	208.56
343.69	209.23
344.07	209.71
344.46	210.20
344.84	210.69
345.22	210.79
345.60	211.11
345.99	211.35
346.37	211.42
346.75	211.54
347.13	211.60
347.52	211.70
347.90	211.82
348.28	211.81
348.66	211.91
349.05	211.89
349.43	211.97
349.81	212.01
350.19	211.99
350.57	212.10
350.96	212.20
351.34	212.37
351.72	212.49
352.10	212.64
352.48	212.73
352.87	212.77
353.25	212.80
353.63	212.75
354.01	212.83
354.39	212.89
354.77	212.92
355.15	213.15
355.54	213.20
355.92	213.18
356.30	213.39
356.68	213.62
357.06	213.78
357.44	213.83
357.82	213.84
358.20	213.99
358.58	214.05
358.97	214.12
359.35	214.17
359.73	214.23
360.11	214.29
360.49	214.35
360.87	214.40
361.25	214.48
361.63	214.71
362.01	214.74
362.39	214.77
362.77	214.88
363.15	214.87
363.53	214.86
363.91	214.90
364.29	214.83
364.67	214.60
365.05	214.61
365.43	214.64
365.81	214.77
366.19	214.88
366.57	214.95
366.95	214.93
367.33	214.99
367.71	214.95
368.09	215.04
368.47	214.99
368.85	215.01
369.23	215.07
369.61	214.89
369.99	215.03
370.37	215.05
370.75	215.24
371.13	215.11
371.51	215.04
371.89	215.09
372.27	215.17
372.65	215.17
373.03	215.14
373.41	215.13
373.78	215.05
374.16	214.85
374.54	214.72
374.92	214.66
375.30	214.56
375.68	214.50
376.06	214.48
376.44	214.38
376.82	214.33
377.19	214.32
377.57	214.28
377.95	214.10
378.33	214.04
378.71	213.76
379.09	213.81
379.47	213.88
379.84	213.72
380.22	213.59
380.60	213.49
380.98	213.47
381.36	213.37
381.73	213.30
382.11	213.39
382.49	213.43
382.87	213.34
383.25	213.30
383.62	213.62
384.00	213.45
384.38	213.49
384.76	213.54
385.13	213.57
385.51	213.60
385.89	213.56
386.27	213.53
386.64	213.57
387.02	213.48
387.40	213.37
387.78	213.45
388.15	213.45
388.53	213.41
388.91	213.35
389.29	213.30
389.66	213.38
390.04	213.31
390.42	213.31
390.79	213.31
391.17	213.31
391.55	212.92
391.92	212.99
392.30	212.99
392.68	212.95
393.05	213.02
393.43	212.99
393.81	212.98
394.18	212.97
394.56	213.00
394.94	213.08
395.31	213.09
395.69	213.16
396.06	213.17
396.44	213.25
396.82	213.24
397.19	213.43
397.57	213.36
397.95	213.43
398.32	213.41
398.70	213.49
399.07	213.59
399.45	213.69
399.82	213.72
400.20	213.72
400.58	213.77
400.95	213.57
401.33	213.69
401.70	214.04
402.08	214.08
402.45	214.12
402.83	214.25
403.20	214.35
403.58	214.44
403.95	214.66
404.33	214.81
404.71	214.93
405.08	215.25
405.46	215.45
405.83	215.60
406.21	215.77
406.58	215.99
406.96	216.16
407.33	216.39
407.70	216.66
408.08	217.25
408.45	217.54
408.83	217.96
409.20	218.27
409.58	218.43
409.95	218.90
410.33	219.35
410.70	219.70
411.08	220.24
411.45	220.75
411.82	221.21
412.20	221.82
412.57	222.66
412.95	223.02
413.32	223.72
413.69	224.48
414.07	225.25
414.44	226.15
414.82	227.05
415.19	228.10
415.56	229.10
415.94	230.05
416.31	231.37
416.68	232.59
417.06	234.01
417.43	235.43
417.81	236.93
418.18	238.57
418.55	240.30
418.93	242.10
419.30	243.93
419.67	245.95
420.04	248.00
420.42	250.04
420.79	252.68
421.16	255.16
421.54	257.81
421.91	260.49
422.28	263.25
422.66	266.06
423.03	269.01
423.40	272.03
423.77	275.08
424.15	278.08
424.52	281.33
424.89	284.88
425.26	288.29
425.64	291.66
426.01	295.14
426.38	298.91
426.75	302.77
427.13	306.80
427.50	310.94
427.87	315.24
428.24	319.55
428.61	323.61
428.99	328.26
429.36	333.04
429.73	337.89
430.10	342.59
430.47	347.60
430.85	352.60
431.22	357.93
431.59	363.80
431.96	369.29
432.33	375.44
432.70	381.32
433.08	388.12
433.45	394.55
433.82	401.05
434.19	408.11
434.56	415.17
434.93	421.80
435.30	428.42
435.68	435.86
436.05	443.26
436.42	450.49
436.79	456.99
437.16	464.17
437.53	471.59
437.90	479.15
438.27	486.49
438.64	493.96
439.01	501.07
439.38	507.12
439.75	513.32
440.13	520.18
440.50	526.64
440.87	531.93
441.24	537.44
441.61	543.43
441.98	547.94
442.35	552.97
442.72	558.23
443.09	563.30
443.46	566.13
443.83	568.06
444.20	569.76
444.57	572.40
444.94	573.60
445.31	574.77
445.68	576.12
446.05	576.57
446.42	575.84
446.79	574.88
447.16	573.90
447.53	573.00
447.90	570.06
448.27	567.19
448.64	563.27
449.01	560.32
449.37	555.29
449.74	550.49
450.11	545.03
450.48	538.65
450.85	532.29
451.22	526.87
451.59	521.58
451.96	516.48
452.33	509.66
452.70	503.41
453.07	496.25
453.43	488.58
453.80	481.62
454.17	474.88
454.54	468.52
454.91	461.70
455.28	455.09
455.65	448.89
456.02	443.04
456.38	437.74
456.75	431.25
457.12	425.93
457.49	420.50
457.86	414.97
458.23	410.68
458.59	405.70
458.96	400.74
459.33	396.30
459.70	391.94
460.07	388.50
460.43	384.60
460.80	380.85
461.17	377.73
461.54	374.23
461.91	370.97
462.27	367.63
462.64	364.86
463.01	361.78
463.38	358.93
463.74	355.54
464.11	352.94
464.48	350.67
464.85	348.14
465.21	346.32
465.58	344.32
465.95	341.81
466.32	339.85
466.68	337.96
467.05	336.09
467.42	334.23
467.78	332.16
468.15	330.30
468.52	329.00
468.88	327.11
469.25	325.47
469.62	324.30
469.98	322.91
470.35	321.57
470.72	320.48
471.08	319.13
471.45	318.15
471.82	317.12
472.18	315.90
472.55	315.11
472.92	314.06
473.28	313.40
473.65	312.61
474.02	312.00
474.38	311.44
474.75	310.97
475.11	310.56
475.48	310.37
475.85	310.14
476.21	309.92
476.58	309.80
476.94	309.90
477.31	309.85
477.67	309.88
478.04	310.10
478.41	310.31
478.77	310.97
479.14	311.31
479.50	311.79
479.87	312.41
480.23	313.03
480.60	313.67
480.96	314.25
481.33	315.24
481.69	316.03
482.06	316.93
482.42	317.96
482.79	318.96
483.15	320.22
483.52	321.70
483.88	323.03
484.25	324.57
484.61	326.02
484.98	327.68
485.34	329.67
485.71	331.64
486.07	333.70
486.44	335.47
486.80	337.88
487.17	340.38
487.53	343.30
487.90	346.15
488.26	349.33
488.62	352.67
488.99	355.88
489.35	359.36
489.72	363.11
490.08	367.03
490.44	371.09
490.81	375.31
491.17	379.63
491.54	384.45
491.90	389.43
492.26	394.78
492.63	400.27
492.99	406.00
493.36	412.13
493.72	418.44
494.08	425.05
494.45	431.91
494.81	439.24
495.17	446.51
495.54	454.48
495.90	462.61
496.26	471.01
496.63	479.93
496.99	489.20
497.35	498.79
497.72	508.88
498.08	519.30
498.44	530.10
498.80	541.73
499.17	553.53
499.53	565.61
499.89	578.26
500.26	591.00
500.62	604.16
500.98	618.01
501.34	632.48
501.71	647.52
502.07	662.99
502.43	678.57
502.79	694.88
503.16	711.59
503.52	728.79
503.88	746.37
504.24	764.47
504.60	783.08
504.97	802.39
505.33	821.92
505.69	842.75
506.05	863.85
506.41	885.01
506.78	906.65
507.14	928.71
507.50	951.36
507.86	974.86
508.22	998.75
508.59	1022.96
508.95	1047.56
509.31	1072.68
509.67	1098.20
510.03	1124.74
510.39	1151.90
510.75	1179.18
511.12	1206.89
511.48	1235.09
511.84	1263.80
512.20	1292.39
512.56	1321.76
512.92	1351.89
513.28	1381.68
513.64	1411.59
514.00	1441.99
514.37	1472.66
514.73	1504.13
515.09	1535.55
515.45	1566.87
515.81	1598.54
516.17	1630.19
516.53	1662.08
516.89	1694.24
517.25	1726.30
517.61	1758.17
517.97	1789.84
518.33	1821.72
518.69	1853.67
519.05	1885.82
519.41	1918.17
519.77	1951.12
520.13	1983.37
520.49	2015.18
520.85	2047.44
521.21	2080.04
521.57	2112.64
521.93	2144.33
522.29	2177.30
522.65	2209.90
523.01	2242.25
523.37	2273.57
523.73	2305.57
524.09	2337.55
524.45	2369.45
524.81	2401.42
525.17	2433.31
525.53	2464.97
525.89	2496.77
526.25	2527.87
526.61	2558.09
526.97	2588.28
527.33	2618.04
527.68	2648.27
528.04	2677.41
528.40	2705.48
528.76	2733.87
529.12	2763.23
529.48	2793.32
529.84	2821.27
530.20	2848.97
530.56	2876.96
530.91	2906.19
531.27	2934.12
531.63	2961.15
531.99	2987.91
532.35	3013.60
532.71	3038.87
533.07	3065.17
533.42	3089.74
533.78	3115.41
534.14	3139.98
534.50	3162.84
534.86	3186.77
535.21	3209.13
535.57	3233.16
535.93	3256.00
536.29	3278.00
536.65	3299.18
537.00	3318.95
537.36	3338.06
537.72	3357.40
538.08	3376.74
538.44	3395.34
538.79	3414.17
539.15	3432.81
539.51	3450.99
539.87	3469.60
540.22	3487.27
540.58	3505.33
540.94	3522.50
541.29	3537.60
541.65	3552.26
542.01	3568.00
542.37	3582.26
542.72	3596.70
543.08	3609.61
543.44	3624.05
543.79	3636.29
544.15	3647.81
544.51	3660.53
544.87	3673.55
545.22	3684.71
545.58	3694.68
545.94	3703.12
546.29	3711.06
546.65	3718.50
547.01	3725.82
547.36	3732.48
547.72	3739.42
548.07	3743.67
548.43	3748.40
548.79	3752.80
549.14	3758.25
549.50	3762.83
549.86	3766.54
550.21	3770.14
550.57	3773.84
550.92	3775.35
551.28	3777.26
551.64	3779.56
551.99	3781.80
552.35	3782.48
552.70	3783.94
553.06	3785.21
553.41	3786.56
553.77	3787.21
554.13	3787.76
554.48	3788.22
554.84	3788.92
555.19	3788.26
555.55	3786.73
555.90	3784.97
556.26	3783.39
556.61	3781.19
556.97	3778.46
557.32	3776.65
557.68	3772.89
558.03	3769.45
558.39	3766.55
558.74	3765.19
559.10	3762.31
559.45	3758.02
559.81	3754.91
560.16	3750.05
560.52	3746.31
560.87	3741.92
561.23	3736.69
561.58	3732.39
561.94	3726.27
562.29	3719.50
562.64	3714.07
563.00	3709.45
563.35	3705.46
563.71	3701.62
564.06	3696.88
564.42	3692.48
564.77	3688.38
565.12	3684.10
565.48	3678.70
565.83	3673.94
566.19	3668.63
566.54	3661.71
566.89	3655.48
567.25	3649.15
567.60	3643.59
567.96	3636.52
568.31	3630.24
568.66	3623.45
569.02	3615.77
569.37	3607.77
569.72	3600.88
570.08	3592.78
570.43	3584.26
570.78	3575.27
571.14	3565.48
571.49	3556.15
571.84	3547.49
572.20	3536.21
572.55	3526.84
572.90	3516.37
573.26	3505.04
573.61	3493.39
573.96	3482.84
574.31	3470.83
574.67	3458.22
575.02	3445.76
575.37	3433.80
575.72	3420.90
576.08	3409.96
576.43	3397.19
576.78	3385.90
577.13	3374.42
577.49	3362.85
577.84	3351.31
578.19	3340.28
578.54	3329.72
578.90	3319.28
579.25	3306.89
579.60	3294.58
579.95	3281.75
580.30	3270.58
580.66	3259.26
581.01	3247.13
581.36	3234.30
581.71	3222.37
582.06	3210.81
582.42	3199.34
582.77	3186.48
583.12	3174.28
583.47	3162.37
583.82	3151.36
584.17	3139.28
584.53	3127.20
584.88	3114.90
585.23	3102.66
585.58	3089.93
585.93	3077.09
586.28	3065.05
586.63	3052.91
586.98	3041.30
587.34	3030.04
587.69	3017.77
588.04	3005.78
588.39	2994.39
588.74	2982.45
589.09	2971.21
589.44	2959.29
589.79	2947.88
590.14	2937.46
590.49	2926.04
590.84	2913.60
591.19	2903.05
591.54	2891.55
591.89	2878.18
592.25	2865.86
592.60	2853.51
592.95	2840.63
593.30	2827.50
593.65	2813.99
594.00	2801.53
594.35	2790.86
594.70	2778.76
595.05	2767.51
595.40	2755.78
595.75	2742.85
596.10	2731.80
596.45	2720.61
596.80	2709.80
597.15	2698.58
597.50	2686.52
597.85	2675.52
598.19	2664.30
598.54	2652.26
598.89	2641.56
599.24	2632.42
599.59	2622.05
599.94	2612.33
600.29	2602.68
600.64	2592.93
600.99	2581.91
601.34	2571.92
601.69	2560.02
602.04	2548.67
602.39	2537.50
602.74	2526.80
603.08	2517.79
603.43	2508.16
603.78	2497.65
604.13	2487.38
604.48	2476.90
604.83	2468.11
605.18	2458.80
605.53	2448.52
605.87	2438.05
606.22	2428.24
606.57	2417.55
606.92	2407.23
607.27	2396.37
607.62	2385.50
607.96	2375.27
608.31	2366.40
608.66	2355.55
609.01	2344.63
609.36	2333.85
609.70	2322.29
610.05	2310.92
610.40	2299.48
610.75	2287.96
611.10	2277.15
611.44	2264.34
611.79	2252.00
612.14	2238.82
612.49	2225.82
612.83	2214.18
613.18	2201.58
613.53	2188.72
613.88	2175.56
614.22	2163.98
614.57	2151.47
614.92	2138.96
615.27	2126.53
615.61	2113.84
615.96	2102.14
616.31	2091.16
616.65	2080.61
617.00	2069.78
617.35	2058.33
617.70	2046.15
618.04	2033.60
618.39	2020.58
618.74	2009.57
619.08	1997.69
619.43	1986.39
619.78	1975.19
620.12	1963.72
620.47	1952.92
620.82	1941.27
621.16	1929.61
621.51	1917.46
621.85	1906.34
622.20	1895.02
622.55	1883.55
622.89	1871.59
623.24	1860.06
623.59	1847.98
623.93	1836.22
624.28	1824.73
624.62	1813.70
624.97	1802.82
625.32	1792.29
625.66	1782.36
626.01	1771.77
626.35	1761.56
626.70	1750.94
627.04	1740.83
627.39	1730.49
627.73	1719.80
628.08	1709.95
628.43	1699.60
628.77	1689.19
629.12	1678.30
629.46	1669.15
629.81	1659.04
630.15	1649.67
630.50	1639.70
630.84	1629.67
631.19	1619.45
631.53	1609.67
631.88	1599.20
632.22	1588.85
632.57	1579.00
632.91	1568.38
633.26	1558.28
633.60	1548.29
633.95	1538.54
634.29	1528.45
634.64	1518.96
634.98	1508.78
635.32	1499.07
635.67	1490.47
636.01	1481.17
636.36	1471.67
636.70	1461.92
637.05	1452.39
637.39	1443.03
637.73	1433.94
638.08	1425.65
638.42	1417.27
638.77	1408.12
639.11	1399.20
639.45	1390.26
639.80	1380.70
640.14	1371.56
640.49	1362.31
640.83	1353.44
641.17	1344.38
641.52	1334.98
641.86	1325.29
642.20	1316.55
642.55	1307.00
642.89	1297.12
643.23	1287.75
643.58	1279.26
643.92	1269.75
644.26	1260.75
644.61	1251.47
644.95	1242.21
645.29	1232.64
645.64	1222.98
645.98	1213.99
646.32	1205.61
646.66	1196.53
647.01	1188.35
647.35	1179.69
647.69	1170.47
648.04	1161.81
648.38	1152.95
648.72	1144.37
649.06	1135.76
649.41	1127.26
649.75	1118.75
650.09	1110.73
650.43	1102.45
650.78	1093.59
651.12	1084.94
651.46	1076.59
651.80	1068.44
652.14	1060.17
652.49	1051.82
652.83	1043.48
653.17	1034.62
653.51	1025.70
653.85	1017.80
654.20	1009.19
654.54	1000.98
654.88	993.17
655.22	984.96
655.56	976.66
655.90	968.78
656.25	960.73
656.59	952.79
656.93	945.01
657.27	937.20
657.61	929.02
657.95	921.38
658.29	914.03
658.64	906.78
658.98	899.06
659.32	891.10
659.66	883.89
660.00	876.41
660.34	869.15
660.68	861.78
661.02	854.25
661.36	847.28
661.70	840.50
662.05	833.80
662.39	827.52
662.73	821.22
663.07	814.65
663.41	808.33
663.75	801.96
664.09	795.51
664.43	788.97
664.77	782.77
665.11	776.54
665.45	770.41
665.79	764.13
666.13	758.02
666.47	752.21
666.81	746.07
667.15	740.26
667.49	734.92
667.83	729.54
668.17	724.26
668.51	718.93
668.85	713.50
669.19	708.24
669.53	702.54
669.87	697.09
670.21	691.91
670.55	686.47
670.89	681.48
671.23	676.64
671.57	671.78
671.91	666.84
672.25	661.93
672.58	657.05
672.92	652.35
673.26	647.82
673.60	643.41
673.94	638.79
674.28	634.39
674.62	630.04
674.96	625.65
675.30	621.11
675.64	616.64
675.97	612.26
676.31	608.11
676.65	603.79
676.99	599.81
677.33	595.48
677.67	591.32
678.01	586.90
678.34	582.64
678.68	578.44
679.02	574.41
679.36	570.54
679.70	566.64
680.04	562.66
680.37	558.66
680.71	554.55
681.05	550.94
681.39	547.01
681.73	543.07
682.06	539.49
682.40	536.15
682.74	532.58
683.08	529.05
683.42	525.24
683.75	521.71
684.09	518.00
684.43	514.54
684.77	510.98
685.10	507.59
685.44	504.16
685.78	500.80
686.12	497.71
686.45	494.44
686.79	491.05
687.13	487.96
687.46	484.73
687.80	481.76
688.14	478.38
688.48	475.33
688.81	472.13
689.15	469.04
689.49	465.67
689.82	462.50
690.16	459.13
690.50	455.99
690.83	452.96
691.17	449.86
691.51	446.86
691.84	444.07
692.18	441.25
692.52	438.48
692.85	435.96
693.19	433.29
693.52	430.46
693.86	427.77
694.20	425.09
694.53	422.63
694.87	419.91
695.21	417.39
695.54	414.73
695.88	412.18
696.21	409.47
696.55	407.15
696.88	404.75
697.22	402.33
697.56	400.15
697.89	397.76
698.23	395.52
698.56	393.18
698.90	390.98
699.23	388.68
699.57	386.45
699.90	384.06
700.24	381.68
700.58	379.47
700.91	377.38
701.25	375.31
701.58	373.20
701.92	371.18
702.25	369.18
702.59	367.21
702.92	365.31
703.26	363.44
703.59	361.44
703.93	359.86
704.26	358.12
704.60	356.25
704.93	354.36
705.26	352.50
705.60	350.90
705.93	349.12
706.27	347.49
706.60	345.91
706.94	344.44
707.27	342.74
707.61	341.10
707.94	339.54
708.27	337.81
708.61	336.21
708.94	334.59
709.28	333.01
709.61	331.44
709.94	329.99
710.28	328.57
710.61	327.33
710.95	325.62
711.28	324.48
711.61	323.13
711.95	321.89
712.28	320.55
712.61	319.14
712.95	318.01
713.28	316.85
713.61	315.52
713.95	314.11
714.28	312.97
714.61	311.79
714.95	310.60
715.28	309.41
715.61	308.27
715.95	307.18
716.28	306.05
716.61	305.04
716.95	303.79
717.28	302.63
717.61	301.31
717.94	300.27
718.28	298.95
718.61	297.83
718.94	296.76
719.27	295.77
719.61	294.78
719.94	293.66
720.27	292.49
720.60	291.49
720.94	290.55
721.27	289.66
721.60	288.78
721.93	287.84
722.27	287.03
722.60	286.10
722.93	285.15
723.26	284.38
723.59	283.42
723.93	282.66
724.26	281.89
724.59	281.26
724.92	280.56
725.25	279.94
725.59	279.20
725.92	278.48
726.25	277.77
726.58	277.07
726.91	276.30
727.24	275.69
727.57	275.09
727.91	274.26
728.24	273.59
728.57	272.89
728.90	272.29
729.23	271.54
729.56	271.09
729.89	270.46
730.22	269.76
730.55	269.21
730.89	268.54
731.22	267.84
731.55	267.15
731.88	266.48
732.21	265.73
732.54	265.12
732.87	264.50
733.20	263.93
733.53	263.28
733.86	262.76
734.19	262.06
734.52	261.46
734.85	261.24
735.18	260.64
735.51	260.11
735.84	259.46
736.17	258.98
736.50	258.20
736.83	258.14
737.16	257.64
737.49	257.11
737.82	256.52
738.15	256.09
738.48	255.52
738.81	255.01
739.14	254.47
739.47	253.84
739.80	253.33
740.13	252.85
740.46	252.33
740.79	251.79
741.12	251.30
741.45	250.83
741.78	250.12
742.11	249.76
742.44	249.25
742.77	248.96
743.10	248.53
743.43	248.16
743.75	247.24
744.08	247.24
744.41	246.72
744.74	246.38
745.07	245.97
745.40	245.62
745.73	245.38
746.06	245.04
746.39	244.77
746.71	244.30
747.04	243.79
747.37	243.40
747.70	243.12
748.03	242.83
748.36	242.45
748.68	242.05
749.01	241.56
749.34	241.18
749.67	240.77
750.00	240.43
750.33	240.31
750.65	240.06
750.98	239.29
751.31	239.02
751.64	238.70
751.97	238.50
752.29	238.17
752.62	237.67
752.95	237.35
753.28	236.98
753.60	236.70
753.93	236.60
754.26	236.29
754.59	235.95
754.91	235.65
755.24	235.44
755.57	235.23
755.90	235.02
756.22	234.83
756.55	234.50
756.88	234.15
757.20	233.66
757.53	233.25
757.86	233.01
758.19	232.78
758.51	232.51
758.84	232.01
759.17	231.68
759.49	231.48
759.82	231.37
760.15	231.23
760.47	231.08
760.80	230.64
761.13	230.50
761.45	230.18
761.78	230.05
762.11	229.73
762.43	229.51
762.76	229.24
763.08	229.10
763.41	228.86
763.74	228.70
764.06	228.53
764.39	228.33
764.71	228.08
765.04	227.88
765.37	227.74
765.69	227.66
766.02	227.45
766.34	227.20
766.67	226.92
767.00	226.86
767.32	226.83
767.65	226.86
767.97	226.67
768.30	226.60
768.62	226.38
768.95	226.18
769.27	225.92
769.60	225.84
769.92	225.58
770.25	225.50
770.57	225.27
770.90	225.13
771.22	224.98
771.55	224.84
771.87	224.65
772.20	224.41
772.52	224.54
772.85	224.90
773.17	224.74
773.50	224.52
773.82	224.23
774.15	223.96
774.47	223.65
774.80	223.50
775.12	223.37
775.45	223.28
775.77	223.14
776.09	223.05
776.42	222.82
776.74	222.82
777.07	222.65
777.39	222.62
777.72	222.45
778.04	222.39
778.36	222.34
778.69	222.32
779.01	222.24
779.33	221.78
779.66	221.29
779.98	221.20
780.31	221.21
780.63	221.26
780.95	221.15
781.28	221.02
781.60	220.84
781.92	220.66
782.25	220.45
782.57	220.40
782.89	220.34
783.22	220.32
783.54	220.15
783.86	220.04
784.19	219.87
784.51	219.96
784.83	219.79
785.16	219.65
785.48	219.51
785.80	219.40
786.12	219.45
786.45	219.41
786.77	219.33
787.09	219.17
787.42	218.98
787.74	218.93
788.06	218.85
788.38	218.82
788.71	218.72
789.03	218.77
789.35	218.75
789.67	218.65
789.99	218.54
790.32	218.43
790.64	218.49
790.96	218.78
791.28	218.54
791.61	218.53
791.93	218.50
792.25	218.49
792.57	218.75
792.89	218.57
793.21	218.51
793.54	218.42
793.86	218.33
794.18	218.27
794.50	218.20
794.82	218.21
795.14	218.14
795.47	218.22
795.79	218.09
796.11	217.98
796.43	217.85
796.75	217.75
797.07	217.70
797.39	217.55
797.71	217.14
798.04	217.10
798.36	217.07
798.68	216.91
799.00	216.83
799.32	216.59
799.64	216.59
799.96	216.53
800.28	216.54
800.60	216.48
800.92	216.46
801.24	216.37
801.56	216.36
801.89	216.32
802.21	216.26
802.53	216.17
802.85	216.14
803.17	216.31
803.49	216.25
803.81	216.09
804.13	216.07
804.45	216.03
804.77	215.99
805.09	215.89
805.41	215.87
805.73	215.83
806.05	215.69
806.37	215.58
806.69	215.53
807.01	215.52
807.33	215.51
807.65	215.32
807.97	215.40
808.28	215.30
808.60	215.32
808.92	215.23
809.24	215.49
809.56	215.41
809.88	215.31
810.20	215.38
810.52	215.51
810.84	215.40
811.16	215.31
811.48	215.27
811.80	215.41
812.12	215.38
812.43	215.35
812.75	215.36
813.07	215.30
813.39	215.31
813.71	215.22
814.03	215.14
814.35	215.17
814.67	214.98
814.98	214.93
815.30	214.80
815.62	214.72
815.94	214.39
816.26	214.35
816.58	214.22
816.89	214.24
817.21	214.14
817.53	214.21
817.85	214.25
818.17	214.19
818.48	214.03
818.80	214.03
819.12	213.94
819.44	213.86
819.76	213.85
820.07	213.81
820.39	213.84
820.71	213.90
821.03	213.85
821.34	213.85
821.66	213.88
821.98	213.90
822.30	213.90
822.61	214.08
822.93	214.00
823.25	213.94
823.57	213.89
823.88	213.94
824.20	213.81
824.52	213.79
824.83	213.77
825.15	213.61
825.47	213.63
825.79	213.67
826.10	213.65
826.42	213.59
826.74	213.62
827.05	213.54
827.37	213.50
827.69	213.50
828.00	213.47
828.32	213.39
828.64	213.34
828.95	213.46
829.27	213.38
829.58	213.43
829.90	213.47
830.22	213.40
830.53	213.26
830.85	213.24
831.17	213.21
831.48	213.18
831.80	213.29
832.11	213.25
832.43	213.17
832.75	213.11
833.06	213.33
833.38	213.12
833.69	213.09
834.01	213.11
834.32	213.10
834.64	213.12
834.96	213.14
835.27	213.17
835.59	212.97
835.90	212.88
836.22	212.79
836.53	212.70
836.85	212.76
837.16	213.12
837.48	213.18
837.79	213.28
838.11	213.33
838.42	213.31
838.74	213.35
839.05	213.30
839.37	213.36
839.68	213.21
840.00	213.23
840.31	213.27
840.63	213.25
840.94	213.24
841.26	213.20
841.57	213.14
841.88	213.13
842.20	213.15
842.51	213.12
842.83	213.23
843.14	213.61
843.46	213.49
843.77	213.21
844.08	213.13
844.40	213.03
844.71	212.92
845.03	212.85
845.34	212.77
845.65	212.75
845.97	212.70
846.28	212.57
846.60	212.57
846.91	212.50
847.22	212.37
847.54	212.39
847.85	212.36
848.16	212.40
848.48	212.30
848.79	212.42
849.10	212.50
849.42	212.49
849.73	212.05
850.04	212.08
850.36	212.04
850.67	212.15
850.98	212.13
851.30	212.20
851.61	212.14
851.92	212.13
852.23	212.30
852.55	212.37
852.86	212.41
853.17	212.42
853.49	212.55
853.80	212.65
854.11	212.71
854.42	212.77
854.74	212.67
855.05	212.74
855.36	212.60
855.67	212.60
855.99	212.62
856.30	213.10
856.61	213.09
856.92	213.07
857.23	213.01
857.55	212.94
857.86	212.94
858.17	213.06
858.48	212.98
858.79	212.86
859.11	212.88
859.42	212.90
859.73	212.96
860.04	212.88
860.35	212.87
860.66	212.74
860.98	212.76
861.29	212.80
861.60	212.78
861.91	212.84
862.22	212.76
862.53	212.67
862.84	212.26
863.16	212.40
863.47	212.33
863.78	212.28
864.09	212.30
864.40	212.26
864.71	212.26
865.02	212.39
865.33	212.37
865.64	212.26
865.95	212.24
866.27	212.40
866.58	212.39
866.89	212.34
867.20	212.41
867.51	212.33
867.82	212.36
868.13	212.47
868.44	212.35
868.75	212.41
869.06	212.41
869.37	212.48
869.68	212.32
869.99	212.39
870.30	212.45
870.61	212.50
870.92	212.43
871.23	212.42
871.54	212.45
871.85	212.49
872.16	212.52
872.47	212.52
872.78	212.29
873.09	212.29
873.40	212.30
873.71	212.29
874.02	212.25
874.33	212.22
874.64	212.14
874.95	212.26
875.26	212.22
875.56	212.21
875.87	212.10
876.18	212.04
876.49	212.35
876.80	212.30
877.11	212.23
877.42	212.29
877.73	212.27
878.04	212.19
878.35	212.27
878.66	212.27
878.96	212.21
879.27	212.18
879.58	212.20
879.89	212.15
880.20	212.22
880.51	212.20
880.82	212.18
881.12	212.22
881.43	212.17
881.74	212.10
882.05	212.12
882.36	212.16
882.67	212.21
882.97	211.85
883.28	211.82
883.59	211.86
883.90	211.95
884.21	211.97
884.51	211.90
884.82	211.77
885.13	211.83
885.44	211.81
885.74	211.82
886.05	211.79
886.36	211.77
886.67	211.62
886.98	211.81
887.28	211.80
887.59	211.73
887.90	211.65
888.20	211.73
888.51	211.75
888.82	211.67
889.13	211.75
889.43	212.01
889.74	211.99
890.05	211.91
890.35	211.82
890.66	211.80
890.97	211.83
891.28	211.86
891.58	211.80
891.89	211.85
892.20	211.87
892.50	211.82
892.81	211.87
893.12	211.89
893.42	211.74
893.73	211.80
894.04	211.83
894.34	211.84
894.65	211.70
894.95	211.61
895.26	211.60
895.57	211.67
895.87	211.34
896.18	211.43
896.48	211.52
896.79	211.42
897.10	211.42
897.40	211.45
897.71	211.46
898.01	211.44
898.32	211.44
898.63	211.47
898.93	211.50
899.24	211.50
899.54	211.50
899.85	211.43
900.15	211.40
900.46	211.41
900.76	211.49
901.07	211.56
901.38	211.62
901.68	211.73
901.99	211.66
902.29	211.71
902.60	211.68
902.90	211.65
903.21	211.75
903.51	211.72
903.82	211.80
904.12	211.72
904.43	211.74
904.73	211.76
905.03	211.68
905.34	212.00
905.64	211.95
905.95	211.94
906.25	212.00
906.56	212.00
906.86	212.01
907.17	211.96
907.47	212.02
907.77	211.97
908.08	211.91
908.38	211.90
908.69	211.89
908.99	211.94
909.30	211.97
909.60	212.03
909.90	212.10
910.21	212.00
910.51	211.99
910.81	212.02
911.12	212.09
911.42	212.12
911.73	211.72
912.03	211.78
912.33	211.82
912.64	211.80
912.94	211.75
913.24	211.63
913.55	211.62
913.85	211.57
914.15	211.63
914.46	211.71
914.76	211.73
915.06	211.73
915.37	211.65
915.67	211.58
915.97	211.55
916.27	211.45
916.58	211.53
916.88	211.50
917.18	211.47
917.49	211.70
917.79	211.65
918.09	211.70
918.39	211.74
918.70	211.74
919.00	211.74
919.30	211.86
919.60	211.87
919.91	211.83
920.21	211.85
920.51	211.74
920.81	211.68
921.12	211.66
921.42	211.75
921.72	211.78
922.02	211.82
922.32	211.87
922.63	211.93
922.93	212.01
923.23	212.04
923.53	212.02
923.83	211.82
924.13	211.89
924.44	211.96
924.74	212.05
925.04	212.14
925.34	212.14
925.64	212.10
925.94	212.09
926.24	212.32
926.55	212.30
926.85	212.43
927.15	212.37
927.45	212.37
927.75	212.30
928.05	212.22
928.35	212.18
928.65	212.20
928.95	212.16
929.26	212.00
929.56	212.10
929.86	212.16
930.16	212.09
930.46	212.06
930.76	212.05
931.06	211.87
931.36	211.75
931.66	211.79
931.96	211.83
932.26	211.94
932.56	211.79
932.86	211.79
933.16	211.71
933.46	211.75
933.76	211.70
934.06	211.74
934.36	211.91
934.66	211.94
934.96	211.91
935.26	211.95
935.56	212.06
935.86	211.96
936.16	211.86
936.46	211.84
936.76	211.87
937.06	211.77
937.36	211.84
937.66	211.88
937.96	211.90
938.26	211.79
938.56	211.79
938.86	211.75
939.16	211.82
939.46	211.92
939.76	211.84
940.06	211.77
940.35	211.72
940.65	211.54
940.95	211.58
941.25	211.44
941.55	211.42
941.85	211.36
942.15	211.43
942.45	211.54
942.75	211.55
943.04	211.53
943.34	211.66
943.64	211.55
943.94	211.45
944.24	211.45
944.54	211.50
944.84	211.43
945.13	211.44
945.43	211.34
945.73	211.28
946.03	211.34
946.33	211.35
946.62	211.33
946.92	211.29
947.22	211.28
947.52	211.39
947.82	211.41
948.11	211.34
948.41	211.33
948.71	211.25
949.01	211.28
949.31	211.23
949.60	211.16
949.90	211.27
950.20	211.27
950.50	211.23
950.79	211.20
951.09	211.29
951.39	211.27
951.69	211.19
951.98	211.28
952.28	211.36
952.58	211.34
952.87	211.33
953.17	211.46
953.47	211.41
953.76	211.32
954.06	211.25
954.36	211.22
954.66	211.21
954.95	211.22
955.25	211.19
955.55	211.24
955.84	211.20
956.14	211.19
956.44	211.26
956.73	211.18
957.03	211.21
957.32	211.11
957.62	211.13
957.92	211.28
958.21	211.17
958.51	211.48
958.81	211.64
959.10	211.68
959.40	211.72
959.69	211.81
959.99	211.94
960.29	211.98
960.58	212.00
960.88	212.14
961.17	212.20
961.47	212.21
961.76	212.19
962.06	212.24
962.36	212.22
962.65	212.15
962.95	212.12
963.24	212.08
963.54	212.17
963.83	212.10
964.13	212.10
964.42	212.11
964.72	211.82
965.01	211.75
965.31	211.72
965.60	211.65
965.90	211.81
966.19	211.69
966.49	211.64
966.78	211.64
967.08	211.57
967.37	211.55
967.67	211.51
967.96	211.56
968.26	211.58
968.55	211.67
968.85	211.66
969.14	211.73
969.43	211.68
969.73	211.62
970.02	211.67
970.32	211.53
970.61	211.52
970.91	211.40
971.20	211.39
971.49	211.38
971.79	211.43
972.08	211.17
972.38	211.22
972.67	211.23
972.96	211.23
973.26	211.14
973.55	211.22
973.85	211.21
974.14	211.14
974.43	211.11
974.73	210.99
975.02	210.96
975.31	210.98
975.61	210.98
975.90	210.96
976.19	210.95
976.49	211.05
976.78	211.07
977.07	211.15
977.37	211.16
977.66	211.14
977.95	211.07
978.24	211.13
978.54	211.17
978.83	211.22
979.12	211.25
979.42	211.25
979.71	211.18
980.00	211.15
980.29	211.18
980.59	211.12
980.88	211.29
981.17	211.28
981.46	211.25
981.76	211.23
982.05	211.30
982.34	211.28
982.63	211.26
982.93	211.20
983.22	211.28
983.51	211.23
983.80	211.33
984.09	211.36
984.39	211.30
984.68	211.21
984.97	211.17
985.26	211.13
985.55	211.18
985.85	211.13
986.14	211.13
986.43	211.10
986.72	211.11
987.01	210.92
987.30	211.01
987.59	211.02
987.89	211.08
988.18	210.92
988.47	210.88
988.76	210.82
989.05	210.84
989.34	210.76
989.63	210.90
989.92	210.81
990.22	210.73
990.51	210.75
990.80	210.71
991.09	210.71
991.38	210.69
991.67	210.70
991.96	210.61
992.25	210.66
992.54	210.68
992.83	210.69
993.12	210.66
993.41	210.70
993.70	210.86
993.99	210.92
994.28	211.06
994.58	211.12
994.87	211.14
995.16	211.16
995.45	211.08
995.74	210.90
996.03	210.99
996.32	211.18
996.61	211.20
996.90	211.31
997.19	211.37
997.48	211.45
997.77	211.37
998.06	211.50
998.34	211.55
998.63	211.56
998.92	211.60
999.21	211.67
999.50	211.68
999.79	211.53
1000.08	211.47
1000.37	211.45
1000.66	211.41
1000.95	211.45
1001.24	211.44
1001.53	211.55
1001.82	211.64
1002.11	211.48
1002.40	211.46
1002.68	211.58
1002.97	211.81
1003.26	211.70
1003.55	211.66
1003.84	211.73
1004.13	211.87
1004.42	211.83
1004.71	211.85
1004.99	211.75
1005.28	211.84
1005.57	211.84
1005.86	211.85
1006.15	211.80
1006.44	211.74
1006.72	211.84
1007.01	211.84
1007.30	211.86
1007.59	211.79
1007.88	211.79
1008.17	211.87
1008.45	211.81
1008.74	211.69
1009.03	211.45
1009.32	211.44
1009.60	211.36
1009.89	211.28
1010.18	211.06
1010.47	211.08
1010.76	211.07
1011.04	211.17
1011.33	211.09
1011.62	211.02
1011.91	210.96
1012.19	211.02
1012.48	211.05
1012.77	210.98
1013.05	211.15
1013.34	211.08
1013.63	211.07
1013.92	211.06
1014.20	211.01
1014.49	211.01
1014.78	211.02
1015.06	210.98
1015.35	211.06
1015.64	211.13
1015.92	211.20
1016.21	211.23
1016.50	211.17
1016.78	211.15
1017.07	211.09
1017.36	211.09
1017.64	211.05
1017.93	211.13
1018.22	211.14
1018.50	211.11
1018.79	211.10
1019.08	211.00
1019.36	210.98
1019.65	211.00
1019.93	211.12
1020.22	211.18
1020.51	211.33
1020.79	211.27
1021.08	211.25
1021.36	210.35
1021.65	210.70
1021.94	212.35
1022.22	209.85
1022.51	211.40
1022.79	213.55
1023.08	210.85
1023.36	215.60
1023.65	210.15
>>>>>End Processed Spectral Data<<<<<
