SpectraSuite Data File
++++++++++++++++++++++++++++++++++++
Date: Mon Feb 25 17:06:55 EST 2013
User: group
Dark Spectrum Present: No
Reference Spectrum Present: No
Number of Sampled Component Spectra: 1
Spectrometers: USB2E7196
Integration Time (usec): 104000 (USB2E7196)
Spectra Averaged: 20 (USB2E7196)
Boxcar Smoothing: 10 (USB2E7196)
Correct for Electrical Dark: No (USB2E7196)
Strobe/Lamp Enabled: No (USB2E7196)
Correct for Detector Non-linearity: No (USB2E7196)
Correct for Stray Light: No (USB2E7196)
Number of Pixels in Processed Spectrum: 2048
>>>>>Begin Processed Spectral Data<<<<<
339.09	0.00
339.48	197.80
339.86	200.60
340.24	199.95
340.63	202.90
341.01	210.10
341.39	205.50
341.78	207.20
342.16	208.60
342.54	207.95
342.93	198.00
343.31	207.98
343.69	208.52
344.07	208.97
344.46	209.46
344.84	209.84
345.22	209.78
345.60	209.97
345.99	210.13
346.37	210.20
346.75	210.32
347.13	210.38
347.52	210.41
347.90	210.51
348.28	210.46
348.66	210.58
349.05	210.41
349.43	210.43
349.81	210.49
350.19	210.47
350.57	210.55
350.96	210.67
351.34	210.75
351.72	210.84
352.10	210.89
352.48	210.94
352.87	211.00
353.25	211.03
353.63	211.07
354.01	211.13
354.39	211.24
354.77	211.38
355.15	211.50
355.54	211.59
355.92	211.53
356.30	211.63
356.68	211.88
357.06	212.01
357.44	212.10
357.82	212.15
358.20	212.30
358.58	212.36
358.97	212.40
359.35	212.51
359.73	212.57
360.11	212.68
360.49	212.77
360.87	212.82
361.25	212.99
361.63	213.18
362.01	213.23
362.39	213.23
362.77	213.21
363.15	213.23
363.53	213.18
363.91	213.23
364.29	213.29
364.67	213.05
365.05	213.08
365.43	213.11
365.81	213.16
366.19	213.36
366.57	213.44
366.95	213.45
367.33	213.41
367.71	213.45
368.09	213.50
368.47	213.47
368.85	213.42
369.23	213.49
369.61	213.39
369.99	213.48
370.37	213.54
370.75	213.64
371.13	213.57
371.51	213.57
371.89	213.59
372.27	213.59
372.65	213.50
373.03	213.51
373.41	213.47
373.78	213.42
374.16	213.15
374.54	213.00
374.92	212.95
375.30	212.93
375.68	212.83
376.06	212.80
376.44	212.72
376.82	212.68
377.19	212.57
377.57	212.51
377.95	212.29
378.33	212.17
378.71	211.93
379.09	211.89
379.47	211.83
379.84	211.66
380.22	211.58
380.60	211.47
380.98	211.38
381.36	211.28
381.73	211.19
382.11	211.19
382.49	211.15
382.87	211.03
383.25	210.88
383.62	211.18
384.00	211.03
384.38	211.06
384.76	211.18
385.13	211.25
385.51	211.19
385.89	211.13
386.27	211.18
386.64	211.22
387.02	211.11
387.40	211.01
387.78	211.05
388.15	210.98
388.53	210.97
388.91	210.89
389.29	210.82
389.66	210.83
390.04	210.75
390.42	210.81
390.79	210.79
391.17	210.81
391.55	210.43
391.92	210.44
392.30	210.37
392.68	210.21
393.05	210.15
393.43	210.17
393.81	210.20
394.18	210.08
394.56	210.05
394.94	210.20
395.31	210.23
395.69	210.31
396.06	210.42
396.44	210.39
396.82	210.40
397.19	210.64
397.57	210.58
397.95	210.68
398.32	210.53
398.70	210.53
399.07	210.66
399.45	210.68
399.82	210.64
400.20	210.63
400.58	210.67
400.95	210.46
401.33	210.57
401.70	210.81
402.08	210.90
402.45	210.96
402.83	210.98
403.20	211.06
403.58	211.12
403.95	211.14
404.33	211.20
404.71	211.32
405.08	211.55
405.46	211.67
405.83	211.76
406.21	211.90
406.58	212.01
406.96	212.09
407.33	212.26
407.70	212.41
408.08	212.81
408.45	213.04
408.83	213.35
409.20	213.49
409.58	213.54
409.95	213.73
410.33	213.97
410.70	214.12
411.08	214.41
411.45	214.66
411.82	214.95
412.20	215.36
412.57	215.84
412.95	215.85
413.32	216.30
413.69	216.68
414.07	217.10
414.44	217.62
414.82	218.12
415.19	218.64
415.56	219.20
415.94	219.61
416.31	220.24
416.68	220.94
417.06	221.72
417.43	222.52
417.81	223.47
418.18	224.34
418.55	225.35
418.93	226.32
419.30	227.45
419.67	228.54
420.04	229.72
420.42	230.81
420.79	232.44
421.16	233.80
421.54	235.41
421.91	236.96
422.28	238.52
422.66	240.13
423.03	242.02
423.40	243.76
423.77	245.59
424.15	247.42
424.52	249.39
424.89	251.52
425.26	253.53
425.64	255.47
426.01	257.54
426.38	259.71
426.75	262.08
427.13	264.28
427.50	266.74
427.87	269.23
428.24	271.81
428.61	274.11
428.99	277.06
429.36	279.87
429.73	282.77
430.10	285.71
430.47	288.76
430.85	291.60
431.22	294.83
431.59	298.53
431.96	301.88
432.33	305.58
432.70	309.17
433.08	313.39
433.45	317.30
433.82	321.30
434.19	325.75
434.56	330.07
434.93	334.18
435.30	338.39
435.68	343.07
436.05	347.67
436.42	352.23
436.79	356.39
437.16	360.90
437.53	365.55
437.90	370.21
438.27	374.91
438.64	379.74
439.01	384.15
439.38	387.89
439.75	391.75
440.13	396.18
440.50	400.34
440.87	403.80
441.24	407.38
441.61	411.38
441.98	414.27
442.35	417.56
442.72	421.06
443.09	424.58
443.46	426.67
443.83	428.10
444.20	429.42
444.57	431.12
444.94	432.11
445.31	433.23
445.68	434.52
446.05	434.90
446.42	434.71
446.79	434.52
447.16	434.15
447.53	434.12
447.90	432.60
448.27	431.10
448.64	428.87
449.01	427.40
449.37	424.40
449.74	421.62
450.11	418.47
450.48	414.80
450.85	410.78
451.22	407.48
451.59	404.42
451.96	401.38
452.33	397.27
452.70	393.54
453.07	389.04
453.43	384.27
453.80	380.10
454.17	375.92
454.54	372.01
454.91	367.85
455.28	363.59
455.65	359.77
456.02	356.34
456.38	352.99
456.75	348.83
457.12	345.41
457.49	342.13
457.86	338.66
458.23	335.98
458.59	332.90
458.96	329.80
459.33	327.00
459.70	324.18
460.07	322.07
460.43	319.58
460.80	317.35
461.17	315.34
461.54	313.10
461.91	311.11
462.27	308.97
462.64	307.16
463.01	305.15
463.38	303.25
463.74	300.82
464.11	299.10
464.48	297.69
464.85	296.21
465.21	295.03
465.58	293.76
465.95	292.04
466.32	290.75
466.68	289.39
467.05	288.06
467.42	286.78
467.78	285.35
468.15	283.97
468.52	283.07
468.88	281.67
469.25	280.55
469.62	279.67
469.98	278.69
470.35	277.72
470.72	276.85
471.08	275.80
471.45	275.07
471.82	274.33
472.18	273.40
472.55	272.68
472.92	271.80
473.28	271.14
473.65	270.45
474.02	269.76
474.38	269.25
474.75	268.82
475.11	268.36
475.48	267.98
475.85	267.63
476.21	267.05
476.58	266.78
476.94	266.51
477.31	266.09
477.67	265.76
478.04	265.57
478.41	265.40
478.77	265.65
479.14	265.40
479.50	265.28
479.87	265.25
480.23	265.16
480.60	265.03
480.96	264.92
481.33	265.12
481.69	265.17
482.06	265.20
482.42	265.23
482.79	265.27
483.15	265.34
483.52	265.51
483.88	265.71
484.25	265.82
484.61	265.95
484.98	266.20
485.34	266.53
485.71	266.84
486.07	267.17
486.44	267.07
486.80	267.36
487.17	267.72
487.53	268.26
487.90	268.75
488.26	269.35
488.62	269.95
488.99	270.44
489.35	270.99
489.72	271.61
490.08	272.25
490.44	272.91
490.81	273.68
491.17	274.37
491.54	275.24
491.90	276.27
492.26	277.19
492.63	278.08
492.99	279.06
493.36	280.02
493.72	281.01
494.08	282.18
494.45	283.43
494.81	284.64
495.17	285.65
495.54	286.95
495.90	288.14
496.26	289.42
496.63	290.65
496.99	291.95
497.35	293.30
497.72	294.63
498.08	296.01
498.44	297.41
498.80	299.03
499.17	300.45
499.53	301.78
499.89	303.35
500.26	304.84
500.62	306.25
500.98	307.96
501.34	309.61
501.71	311.28
502.07	312.89
502.43	314.42
502.79	316.04
503.16	317.65
503.52	319.23
503.88	320.74
504.24	322.50
504.60	324.27
504.97	326.16
505.33	328.01
505.69	329.89
506.05	331.73
506.41	333.55
506.78	335.34
507.14	337.07
507.50	338.88
507.86	340.73
508.22	342.80
508.59	344.58
508.95	346.40
509.31	348.37
509.67	350.25
510.03	352.25
510.39	354.23
510.75	356.10
511.12	358.10
511.48	360.14
511.84	362.16
512.20	364.18
512.56	366.15
512.92	368.16
513.28	370.13
513.64	372.12
514.00	373.94
514.37	376.00
514.73	378.24
515.09	380.41
515.45	382.56
515.81	384.53
516.17	386.54
516.53	388.63
516.89	390.51
517.25	392.58
517.61	394.80
517.97	396.92
518.33	399.16
518.69	401.48
519.05	403.77
519.41	405.97
519.77	408.41
520.13	410.69
520.49	412.95
520.85	415.27
521.21	417.71
521.57	420.21
521.93	422.50
522.29	424.89
522.65	427.26
523.01	429.84
523.37	432.26
523.73	434.88
524.09	437.54
524.45	440.28
524.81	443.12
525.17	445.75
525.53	448.60
525.89	451.34
526.25	453.98
526.61	456.71
526.97	459.48
527.33	462.26
527.68	465.33
528.04	468.21
528.40	471.05
528.76	473.95
529.12	476.93
529.48	480.11
529.84	483.15
530.20	486.20
530.56	489.23
530.91	492.71
531.27	495.99
531.63	499.20
531.99	502.42
532.35	505.54
532.71	508.74
533.07	511.88
533.42	515.56
533.78	519.00
534.14	522.37
534.50	525.57
534.86	528.80
535.21	531.85
535.57	535.42
535.93	538.84
536.29	542.37
536.65	545.81
537.00	549.03
537.36	552.20
537.72	555.55
538.08	558.86
538.44	561.95
538.79	565.23
539.15	568.51
539.51	571.82
539.87	575.21
540.22	578.46
540.58	582.08
540.94	585.03
541.29	588.22
541.65	591.40
542.01	594.82
542.37	598.01
542.72	601.25
543.08	604.18
543.44	607.44
543.79	610.34
544.15	613.25
544.51	616.67
544.87	619.96
545.22	622.96
545.58	625.97
545.94	628.97
546.29	631.75
546.65	634.59
547.01	637.29
547.36	640.15
547.72	643.08
548.07	645.73
548.43	648.32
548.79	650.91
549.14	653.51
549.50	656.04
549.86	658.54
550.21	660.89
550.57	663.50
550.92	665.78
551.28	668.10
551.64	670.52
551.99	672.78
552.35	674.97
552.70	677.18
553.06	679.46
553.41	681.57
553.77	683.93
554.13	685.96
554.48	688.27
554.84	690.30
555.19	692.44
555.55	694.39
555.90	696.24
556.26	697.97
556.61	699.77
556.97	701.52
557.32	703.35
557.68	705.05
558.03	706.48
558.39	708.08
558.74	709.69
559.10	711.36
559.45	712.83
559.81	714.57
560.16	715.99
560.52	717.51
560.87	718.94
561.23	720.12
561.58	721.75
561.94	722.83
562.29	723.96
562.64	725.10
563.00	726.02
563.35	727.30
563.71	728.80
564.06	730.14
564.42	731.31
564.77	732.51
565.12	733.85
565.48	735.48
565.83	736.69
566.19	738.04
566.54	738.94
566.89	739.82
567.25	740.74
567.60	741.87
567.96	742.87
568.31	743.92
568.66	744.74
569.02	745.23
569.37	745.62
569.72	746.18
570.08	746.68
570.43	747.13
570.78	747.44
571.14	747.46
571.49	747.41
571.84	747.50
572.20	747.45
572.55	747.59
572.90	747.05
573.26	746.92
573.61	746.46
573.96	746.49
574.31	746.19
574.67	745.56
575.02	744.85
575.37	744.06
575.72	743.10
576.08	742.61
576.43	741.79
576.78	741.37
577.13	740.83
577.49	740.17
577.84	739.70
578.19	739.41
578.54	739.05
578.90	738.72
579.25	738.28
579.60	737.47
579.95	736.45
580.30	735.86
580.66	735.30
581.01	734.60
581.36	733.47
581.71	732.65
582.06	732.28
582.42	731.79
582.77	731.16
583.12	730.66
583.47	730.01
583.82	729.64
584.17	728.96
584.53	728.54
584.88	727.77
585.23	727.08
585.58	726.20
585.93	725.28
586.28	724.43
586.63	723.60
586.98	722.93
587.34	722.35
587.69	721.59
588.04	720.67
588.39	719.88
588.74	718.88
589.09	718.12
589.44	716.83
589.79	715.83
590.14	714.77
590.49	713.64
590.84	712.61
591.19	711.64
591.54	710.74
591.89	709.09
592.25	708.16
592.60	706.90
592.95	705.42
593.30	704.04
593.65	702.53
594.00	701.20
594.35	700.88
594.70	699.48
595.05	698.18
595.40	696.72
595.75	695.21
596.10	694.11
596.45	692.75
596.80	691.60
597.15	690.44
597.50	689.08
597.85	688.08
598.19	686.65
598.54	685.38
598.89	684.00
599.24	683.14
599.59	681.76
599.94	680.63
600.29	679.59
600.64	678.49
600.99	677.45
601.34	676.24
601.69	674.13
602.04	672.78
602.39	671.53
602.74	670.47
603.08	669.53
603.43	668.82
603.78	667.67
604.13	666.48
604.48	665.32
604.83	664.56
605.18	663.46
605.53	662.27
605.87	660.85
606.22	659.71
606.57	658.43
606.92	657.10
607.27	655.77
607.62	654.54
607.96	653.48
608.31	652.42
608.66	651.06
609.01	649.59
609.36	648.19
609.70	646.69
610.05	645.01
610.40	643.58
610.75	641.62
611.10	640.28
611.44	638.57
611.79	636.68
612.14	634.76
612.49	632.64
612.83	630.96
613.18	629.06
613.53	627.16
613.88	625.12
614.22	623.29
614.57	621.34
614.92	619.54
615.27	617.49
615.61	615.44
615.96	613.65
616.31	612.03
616.65	610.49
617.00	608.77
617.35	607.07
617.70	605.09
618.04	603.21
618.39	601.08
618.74	599.33
619.08	597.46
619.43	595.47
619.78	593.65
620.12	591.65
620.47	590.13
620.82	588.18
621.16	586.25
621.51	584.51
621.85	582.55
622.20	580.41
622.55	578.31
622.89	576.27
623.24	574.20
623.59	572.06
623.93	569.93
624.28	567.94
624.62	566.26
624.97	564.33
625.32	562.31
625.66	560.36
626.01	558.27
626.35	556.36
626.70	554.38
627.04	552.80
627.39	550.96
627.73	548.92
628.08	547.17
628.43	545.10
628.77	543.12
629.12	541.14
629.46	539.37
629.81	537.60
630.15	535.83
630.50	533.89
630.84	531.79
631.19	529.92
631.53	528.08
631.88	525.90
632.22	523.96
632.57	522.34
632.91	520.46
633.26	518.66
633.60	516.84
633.95	515.08
634.29	512.99
634.64	511.15
634.98	509.20
635.32	507.31
635.67	505.80
636.01	503.97
636.36	502.30
636.70	500.51
637.05	498.62
637.39	496.75
637.73	495.15
638.08	493.65
638.42	492.05
638.77	490.41
639.11	488.68
639.45	486.90
639.80	484.89
640.14	482.89
640.49	481.06
640.83	479.17
641.17	477.39
641.52	475.55
641.86	473.74
642.20	472.04
642.55	470.10
642.89	468.16
643.23	466.14
643.58	464.54
643.92	462.56
644.26	460.84
644.61	459.08
644.95	457.10
645.29	455.32
645.64	453.38
645.98	451.37
646.32	449.55
646.66	447.68
647.01	446.02
647.35	444.41
647.69	442.61
648.04	440.94
648.38	439.08
648.72	437.36
649.06	435.52
649.41	433.73
649.75	432.09
650.09	430.35
650.43	428.67
650.78	426.75
651.12	425.03
651.46	423.30
651.80	421.55
652.14	419.95
652.49	418.28
652.83	416.49
653.17	414.65
653.51	412.84
653.85	411.24
654.20	409.47
654.54	407.73
654.88	406.06
655.22	404.51
655.56	402.91
655.90	401.15
656.25	399.40
656.59	397.80
656.93	396.16
657.27	394.59
657.61	392.85
657.95	391.19
658.29	389.65
658.64	388.23
658.98	386.60
659.32	384.85
659.66	383.19
660.00	381.60
660.34	380.09
660.68	378.46
661.02	376.85
661.36	375.29
661.70	373.85
662.05	372.38
662.39	370.91
662.73	369.54
663.07	368.30
663.41	367.05
663.75	365.53
664.09	364.05
664.43	362.53
664.77	361.31
665.11	359.97
665.45	358.67
665.79	357.19
666.13	355.77
666.47	354.55
666.81	353.26
667.15	351.88
667.49	350.82
667.83	349.76
668.17	348.55
668.51	347.47
668.85	346.32
669.19	345.30
669.53	343.95
669.87	342.67
670.21	341.39
670.55	340.15
670.89	339.16
671.23	338.10
671.57	337.06
671.91	335.90
672.25	334.80
672.58	333.71
672.92	332.56
673.26	331.57
673.60	330.42
673.94	329.33
674.28	328.37
674.62	327.26
674.96	326.11
675.30	325.07
675.64	323.90
675.97	322.84
676.31	321.74
676.65	320.78
676.99	319.93
677.33	318.87
677.67	317.87
678.01	316.74
678.34	315.72
678.68	314.79
679.02	313.85
679.36	312.94
679.70	311.87
680.04	310.97
680.37	309.96
680.71	309.04
681.05	308.15
681.39	307.29
681.73	306.35
682.06	305.57
682.40	304.75
682.74	303.94
683.08	303.16
683.42	302.18
683.75	301.31
684.09	300.27
684.43	299.42
684.77	298.57
685.10	297.72
685.44	296.87
685.78	295.97
686.12	295.05
686.45	294.10
686.79	293.25
687.13	292.45
687.46	291.77
687.80	291.13
688.14	290.27
688.48	289.51
688.81	288.75
689.15	287.95
689.49	287.03
689.82	286.21
690.16	285.20
690.50	284.40
690.83	283.55
691.17	282.79
691.51	281.98
691.84	281.32
692.18	280.47
692.52	279.85
692.85	279.22
693.19	278.71
693.52	277.99
693.86	277.29
694.20	276.66
694.53	275.90
694.87	275.04
695.21	274.37
695.54	273.59
695.88	272.71
696.21	271.94
696.55	271.41
696.88	270.79
697.22	270.21
697.56	269.68
697.89	269.02
698.23	268.38
698.56	267.79
698.90	267.09
699.23	266.55
699.57	265.87
699.90	265.19
700.24	264.35
700.58	263.75
700.91	263.27
701.25	262.86
701.58	262.40
701.92	261.96
702.25	261.42
702.59	260.90
702.92	260.48
703.26	260.00
703.59	259.44
703.93	259.12
704.26	258.62
704.60	258.05
704.93	257.52
705.26	256.97
705.60	256.60
705.93	256.02
706.27	255.68
706.60	255.26
706.94	255.00
707.27	254.57
707.61	254.25
707.94	253.73
708.27	253.01
708.61	252.46
708.94	251.98
709.28	251.55
709.61	251.10
709.94	250.79
710.28	250.36
710.61	249.97
710.95	249.31
711.28	249.16
711.61	248.75
711.95	248.46
712.28	248.11
712.61	247.62
712.95	247.51
713.28	247.23
713.61	246.78
713.95	246.21
714.28	245.89
714.61	245.44
714.95	245.07
715.28	244.69
715.61	244.33
715.95	243.92
716.28	243.48
716.61	243.18
716.95	242.65
717.28	242.38
717.61	241.99
717.94	241.67
718.28	241.10
718.61	240.81
718.94	240.47
719.27	240.15
719.61	239.93
719.94	239.50
720.27	238.95
720.60	238.68
720.94	238.41
721.27	238.11
721.60	237.89
721.93	237.55
722.27	237.44
722.60	237.21
722.93	237.00
723.26	236.76
723.59	236.48
723.93	236.38
724.26	236.06
724.59	235.84
724.92	235.60
725.25	235.44
725.59	235.13
725.92	234.93
726.25	234.76
726.58	234.52
726.91	234.26
727.24	234.12
727.57	233.85
727.91	233.60
728.24	233.46
728.57	233.14
728.90	233.07
729.23	232.71
729.56	232.65
729.89	232.42
730.22	232.18
730.55	231.93
730.89	231.66
731.22	231.46
731.55	231.22
731.88	230.99
732.21	230.69
732.54	230.49
732.87	230.30
733.20	230.10
733.53	229.93
733.86	229.77
734.19	229.49
734.52	229.45
734.85	229.49
735.18	229.27
735.51	229.28
735.84	229.07
736.17	229.02
736.50	228.68
736.83	228.92
737.16	228.83
737.49	228.75
737.82	228.62
738.15	228.53
738.48	228.35
738.81	228.24
739.14	228.10
739.47	227.98
739.80	227.84
740.13	227.67
740.46	227.40
740.79	227.16
741.12	227.08
741.45	226.81
741.78	226.47
742.11	226.38
742.44	226.16
742.77	226.03
743.10	225.79
743.43	225.60
743.75	225.09
744.08	225.35
744.41	225.12
744.74	224.91
745.07	224.62
745.40	224.58
745.73	224.55
746.06	224.45
746.39	224.31
746.71	224.14
747.04	224.00
747.37	223.84
747.70	223.80
748.03	223.68
748.36	223.50
748.68	223.34
749.01	223.13
749.34	222.97
749.67	222.87
750.00	222.78
750.33	222.98
750.65	222.84
750.98	222.30
751.31	222.18
751.64	222.08
751.97	222.27
752.29	222.16
752.62	221.94
752.95	221.74
753.28	221.61
753.60	221.45
753.93	221.47
754.26	221.46
754.59	221.21
754.91	221.10
755.24	221.05
755.57	220.99
755.90	220.96
756.22	220.85
756.55	220.70
756.88	220.57
757.20	220.16
757.53	219.95
757.86	219.86
758.19	219.79
758.51	219.71
758.84	219.38
759.17	219.18
759.49	219.07
759.82	219.15
760.15	219.06
760.47	218.99
760.80	218.68
761.13	218.57
761.45	218.55
761.78	218.40
762.11	218.32
762.43	218.18
762.76	218.05
763.08	217.99
763.41	217.99
763.74	217.94
764.06	217.90
764.39	217.83
764.71	217.74
765.04	217.65
765.37	217.54
765.69	217.48
766.02	217.43
766.34	217.38
766.67	217.21
767.00	217.23
767.32	217.34
767.65	217.56
767.97	217.50
768.30	217.46
768.62	217.41
768.95	217.31
769.27	217.28
769.60	217.29
769.92	217.13
770.25	216.98
770.57	216.83
770.90	216.69
771.22	216.66
771.55	216.66
771.87	216.62
772.20	216.51
772.52	216.73
772.85	217.09
773.17	216.96
773.50	216.79
773.82	216.66
774.15	216.33
774.47	215.97
774.80	215.90
775.12	215.76
775.45	215.72
775.77	215.72
776.09	215.64
776.42	215.49
776.74	215.62
777.07	215.53
777.39	215.50
777.72	215.46
778.04	215.43
778.36	215.35
778.69	215.29
779.01	215.25
779.33	214.96
779.66	214.57
779.98	214.55
780.31	214.63
780.63	214.73
780.95	214.85
781.28	214.84
781.60	214.75
781.92	214.76
782.25	214.73
782.57	214.71
782.89	214.72
783.22	214.68
783.54	214.53
783.86	214.57
784.19	214.59
784.51	214.68
784.83	214.65
785.16	214.59
785.48	214.59
785.80	214.66
786.12	214.60
786.45	214.51
786.77	214.52
787.09	214.45
787.42	214.31
787.74	214.26
788.06	214.32
788.38	214.39
788.71	214.34
789.03	214.29
789.35	214.32
789.67	214.19
789.99	214.19
790.32	214.16
790.64	214.12
790.96	214.40
791.28	214.25
791.61	214.20
791.93	214.17
792.25	214.20
792.57	214.41
792.89	214.33
793.21	214.35
793.54	214.22
793.86	214.20
794.18	214.19
794.50	214.15
794.82	214.08
795.14	214.14
795.47	214.17
795.79	214.19
796.11	214.08
796.43	214.09
796.75	214.12
797.07	214.14
797.39	214.07
797.71	213.80
798.04	213.81
798.36	213.85
798.68	213.92
799.00	213.81
799.32	213.57
799.64	213.66
799.96	213.65
800.28	213.82
800.60	213.77
800.92	213.83
801.24	213.76
801.56	213.78
801.89	213.70
802.21	213.65
802.53	213.61
802.85	213.69
803.17	213.86
803.49	213.74
803.81	213.69
804.13	213.73
804.45	213.59
804.77	213.72
805.09	213.67
805.41	213.59
805.73	213.57
806.05	213.50
806.37	213.44
806.69	213.44
807.01	213.35
807.33	213.36
807.65	213.19
807.97	213.42
808.28	213.38
808.60	213.32
808.92	213.36
809.24	213.56
809.56	213.44
809.88	213.35
810.20	213.38
810.52	213.47
810.84	213.40
811.16	213.37
811.48	213.15
811.80	213.30
812.12	213.25
812.43	213.36
812.75	213.43
813.07	213.39
813.39	213.37
813.71	213.35
814.03	213.33
814.35	213.41
814.67	213.19
814.98	213.14
815.30	213.14
815.62	213.02
815.94	212.71
816.26	212.79
816.58	212.69
816.89	212.71
817.21	212.61
817.53	212.63
817.85	212.74
818.17	212.83
818.48	212.63
818.80	212.72
819.12	212.57
819.44	212.44
819.76	212.36
820.07	212.28
820.39	212.25
820.71	212.21
821.03	212.17
821.34	212.21
821.66	212.21
821.98	212.22
822.30	212.17
822.61	212.45
822.93	212.32
823.25	212.33
823.57	212.22
823.88	212.21
824.20	212.20
824.52	212.20
824.83	212.19
825.15	212.19
825.47	212.14
825.79	212.14
826.10	212.14
826.42	212.15
826.74	212.25
827.05	212.15
827.37	212.17
827.69	212.12
828.00	212.08
828.32	212.11
828.64	212.04
828.95	212.20
829.27	212.04
829.58	212.07
829.90	212.10
830.22	212.11
830.53	212.02
830.85	212.00
831.17	211.82
831.48	211.81
831.80	211.79
832.11	211.77
832.43	211.70
832.75	211.71
833.06	211.95
833.38	211.83
833.69	211.85
834.01	211.86
834.32	211.88
834.64	211.80
834.96	211.79
835.27	211.78
835.59	211.67
835.90	211.63
836.22	211.58
836.53	211.44
836.85	211.45
837.16	211.86
837.48	211.84
837.79	211.93
838.11	211.87
838.42	211.91
838.74	211.94
839.05	211.95
839.37	211.95
839.68	211.73
840.00	211.70
840.31	211.78
840.63	211.74
840.94	211.62
841.26	211.64
841.57	211.60
841.88	211.63
842.20	211.62
842.51	211.60
842.83	211.65
843.14	212.02
843.46	211.99
843.77	211.69
844.08	211.63
844.40	211.59
844.71	211.58
845.03	211.54
845.34	211.52
845.65	211.49
845.97	211.40
846.28	211.44
846.60	211.48
846.91	211.43
847.22	211.48
847.54	211.59
847.85	211.58
848.16	211.54
848.48	211.42
848.79	211.50
849.10	211.55
849.42	211.52
849.73	211.21
850.04	211.24
850.36	211.18
850.67	211.34
850.98	211.34
851.30	211.35
851.61	211.29
851.92	211.22
852.23	211.39
852.55	211.46
852.86	211.41
853.17	211.42
853.49	211.45
853.80	211.45
854.11	211.49
854.42	211.56
854.74	211.66
855.05	211.73
855.36	211.58
855.67	211.59
855.99	211.55
856.30	211.95
856.61	211.93
856.92	211.89
857.23	211.82
857.55	211.74
857.86	211.70
858.17	211.79
858.48	211.76
858.79	211.60
859.11	211.70
859.42	211.69
859.73	211.60
860.04	211.64
860.35	211.51
860.66	211.39
860.98	211.36
861.29	211.30
861.60	211.33
861.91	211.40
862.22	211.26
862.53	211.27
862.84	210.78
863.16	210.83
863.47	210.80
863.78	210.75
864.09	210.85
864.40	210.94
864.71	210.94
865.02	211.01
865.33	210.97
865.64	210.80
865.95	210.71
866.27	210.98
866.58	210.88
866.89	210.99
867.20	210.99
867.51	210.89
867.82	210.85
868.13	210.86
868.44	210.83
868.75	210.97
869.06	210.94
869.37	211.12
869.68	211.01
869.99	211.12
870.30	211.17
870.61	211.15
870.92	211.13
871.23	211.06
871.54	211.12
871.85	211.26
872.16	211.33
872.47	211.36
872.78	211.15
873.09	211.22
873.40	211.13
873.71	211.15
874.02	211.27
874.33	211.21
874.64	211.14
874.95	211.18
875.26	211.07
875.56	211.09
875.87	210.97
876.18	210.99
876.49	211.25
876.80	211.24
877.11	211.16
877.42	211.14
877.73	211.14
878.04	211.12
878.35	211.07
878.66	211.15
878.96	211.16
879.27	211.12
879.58	211.05
879.89	211.01
880.20	211.11
880.51	211.01
880.82	211.09
881.12	211.18
881.43	211.08
881.74	211.05
882.05	210.99
882.36	211.08
882.67	211.15
882.97	210.78
883.28	210.74
883.59	210.80
883.90	210.76
884.21	210.84
884.51	210.75
884.82	210.65
885.13	210.58
885.44	210.56
885.74	210.61
886.05	210.60
886.36	210.67
886.67	210.55
886.98	210.74
887.28	210.75
887.59	210.69
887.90	210.77
888.20	210.81
888.51	210.95
888.82	210.89
889.13	210.83
889.43	211.19
889.74	211.14
890.05	211.14
890.35	211.16
890.66	211.11
890.97	211.08
891.28	211.08
891.58	211.06
891.89	211.08
892.20	211.04
892.50	211.01
892.81	211.00
893.12	211.04
893.42	210.86
893.73	210.88
894.04	210.91
894.34	210.89
894.65	210.82
894.95	210.79
895.26	210.81
895.57	211.00
895.87	210.63
896.18	210.68
896.48	210.66
896.79	210.64
897.10	210.66
897.40	210.72
897.71	210.83
898.01	210.81
898.32	210.89
898.63	210.89
898.93	210.97
899.24	210.94
899.54	210.86
899.85	210.85
900.15	210.79
900.46	210.77
900.76	210.78
901.07	210.84
901.38	210.79
901.68	210.73
901.99	210.48
902.29	210.54
902.60	210.50
902.90	210.49
903.21	210.49
903.51	210.46
903.82	210.55
904.12	210.48
904.43	210.54
904.73	210.48
905.03	210.47
905.34	210.77
905.64	210.83
905.95	210.87
906.25	210.87
906.56	210.95
906.86	210.95
907.17	210.95
907.47	211.01
907.77	210.97
908.08	210.94
908.38	211.03
908.69	211.01
908.99	211.05
909.30	211.08
909.60	211.12
909.90	211.14
910.21	211.04
910.51	211.01
910.81	210.96
911.12	211.02
911.42	211.00
911.73	210.59
912.03	210.56
912.33	210.65
912.64	210.66
912.94	210.59
913.24	210.55
913.55	210.55
913.85	210.52
914.15	210.58
914.46	210.74
914.76	210.76
915.06	210.75
915.37	210.72
915.67	210.78
915.97	210.76
916.27	210.71
916.58	210.70
916.88	210.74
917.18	210.82
917.49	211.02
917.79	211.02
918.09	211.14
918.39	211.21
918.70	211.18
919.00	211.20
919.30	211.36
919.60	211.37
919.91	211.34
920.21	211.35
920.51	211.27
920.81	211.19
921.12	211.22
921.42	211.29
921.72	211.35
922.02	211.29
922.32	211.30
922.63	211.30
922.93	211.55
923.23	211.59
923.53	211.51
923.83	211.31
924.13	211.37
924.44	211.28
924.74	211.37
925.04	211.36
925.34	211.34
925.64	211.22
925.94	211.22
926.24	211.43
926.55	211.38
926.85	211.47
927.15	211.43
927.45	211.38
927.75	211.39
928.05	211.41
928.35	211.48
928.65	211.55
928.95	211.61
929.26	211.42
929.56	211.40
929.86	211.44
930.16	211.34
930.46	211.35
930.76	211.42
931.06	211.18
931.36	211.18
931.66	211.26
931.96	211.27
932.26	211.23
932.56	211.06
932.86	211.08
933.16	211.09
933.46	211.09
933.76	211.04
934.06	211.08
934.36	211.19
934.66	211.11
934.96	211.10
935.26	211.10
935.56	211.13
935.86	211.05
936.16	210.97
936.46	211.03
936.76	211.02
937.06	211.04
937.36	211.13
937.66	211.19
937.96	211.21
938.26	211.11
938.56	211.15
938.86	211.15
939.16	211.22
939.46	211.15
939.76	211.16
940.06	211.23
940.35	211.15
940.65	210.94
940.95	211.03
941.25	210.90
941.55	210.94
941.85	210.95
942.15	211.02
942.45	211.11
942.75	211.09
943.04	211.07
943.34	211.11
943.64	211.10
943.94	210.96
944.24	210.91
944.54	210.92
944.84	210.92
945.13	210.85
945.43	210.82
945.73	210.84
946.03	210.84
946.33	210.76
946.62	210.73
946.92	210.76
947.22	210.73
947.52	210.81
947.82	210.73
948.11	210.71
948.41	210.72
948.71	210.65
949.01	210.66
949.31	210.67
949.60	210.63
949.90	210.67
950.20	210.71
950.50	210.76
950.79	210.75
951.09	210.77
951.39	210.79
951.69	210.69
951.98	210.75
952.28	210.72
952.58	210.72
952.87	210.72
953.17	210.70
953.47	210.63
953.76	210.54
954.06	210.46
954.36	210.38
954.66	210.35
954.95	210.43
955.25	210.50
955.55	210.52
955.84	210.46
956.14	210.45
956.44	210.46
956.73	210.34
957.03	210.41
957.32	210.48
957.62	210.44
957.92	210.58
958.21	210.49
958.51	210.97
958.81	210.98
959.10	211.02
959.40	211.10
959.69	211.17
959.99	211.28
960.29	211.31
960.58	211.33
960.88	211.40
961.17	211.33
961.47	211.37
961.76	211.28
962.06	211.38
962.36	211.40
962.65	211.42
962.95	211.53
963.24	211.49
963.54	211.41
963.83	211.47
964.13	211.49
964.42	211.45
964.72	211.10
965.01	211.16
965.31	211.13
965.60	211.10
965.90	211.33
966.19	211.26
966.49	211.35
966.78	211.30
967.08	211.32
967.37	211.36
967.67	211.23
967.96	211.31
968.26	211.25
968.55	211.31
968.85	211.29
969.14	211.24
969.43	211.30
969.73	211.25
970.02	211.31
970.32	211.29
970.61	211.25
970.91	211.17
971.20	211.12
971.49	211.09
971.79	211.11
972.08	210.80
972.38	210.85
972.67	210.80
972.96	210.83
973.26	210.80
973.55	210.95
973.85	210.95
974.14	210.99
974.43	211.02
974.73	210.93
975.02	210.89
975.31	210.89
975.61	210.79
975.90	210.82
976.19	210.75
976.49	210.73
976.78	210.84
977.07	210.82
977.37	210.77
977.66	210.81
977.95	210.72
978.24	210.75
978.54	210.82
978.83	210.78
979.12	210.73
979.42	210.68
979.71	210.59
980.00	210.60
980.29	210.56
980.59	210.46
980.88	210.56
981.17	210.63
981.46	210.61
981.76	210.68
982.05	210.75
982.34	210.79
982.63	210.81
982.93	210.75
983.22	210.91
983.51	210.95
983.80	211.00
984.09	211.05
984.39	211.08
984.68	210.98
984.97	210.98
985.26	211.01
985.55	211.04
985.85	210.95
986.14	210.98
986.43	210.97
986.72	210.97
987.01	210.86
987.30	210.83
987.59	210.84
987.89	210.78
988.18	210.66
988.47	210.54
988.76	210.52
989.05	210.53
989.34	210.40
989.63	210.50
989.92	210.43
990.22	210.41
990.51	210.32
990.80	210.28
991.09	210.26
991.38	210.33
991.67	210.28
991.96	210.23
992.25	210.16
992.54	210.10
992.83	210.10
993.12	210.04
993.41	210.05
993.70	210.20
993.99	210.25
994.28	210.35
994.58	210.44
994.87	210.38
995.16	210.33
995.45	210.37
995.74	210.26
996.03	210.38
996.32	210.38
996.61	210.44
996.90	210.46
997.19	210.45
997.48	210.42
997.77	210.42
998.06	210.49
998.34	210.48
998.63	210.49
998.92	210.49
999.21	210.55
999.50	210.52
999.79	210.38
1000.08	210.36
1000.37	210.30
1000.66	210.29
1000.95	210.34
1001.24	210.37
1001.53	210.31
1001.82	210.29
1002.11	210.13
1002.40	210.18
1002.68	210.33
1002.97	210.61
1003.26	210.59
1003.55	210.51
1003.84	210.53
1004.13	210.60
1004.42	210.68
1004.71	210.65
1004.99	210.56
1005.28	210.67
1005.57	210.64
1005.86	210.56
1006.15	210.59
1006.44	210.56
1006.72	210.57
1007.01	210.53
1007.30	210.57
1007.59	210.62
1007.88	210.64
1008.17	210.66
1008.45	210.69
1008.74	210.52
1009.03	210.28
1009.32	210.35
1009.60	210.44
1009.89	210.44
1010.18	210.32
1010.47	210.27
1010.76	210.25
1011.04	210.35
1011.33	210.35
1011.62	210.39
1011.91	210.50
1012.19	210.52
1012.48	210.56
1012.77	210.63
1013.05	210.82
1013.34	210.81
1013.63	210.77
1013.92	210.75
1014.20	210.74
1014.49	210.73
1014.78	210.75
1015.06	210.68
1015.35	210.70
1015.64	210.70
1015.92	210.71
1016.21	210.75
1016.50	210.82
1016.78	210.90
1017.07	210.97
1017.36	210.93
1017.64	210.90
1017.93	210.85
1018.22	210.78
1018.50	210.72
1018.79	210.71
1019.08	210.52
1019.36	210.50
1019.65	210.46
1019.93	210.61
1020.22	210.63
1020.51	210.81
1020.79	210.79
1021.08	209.65
1021.36	209.15
1021.65	211.55
1021.94	210.75
1022.22	209.75
1022.51	209.55
1022.79	212.95
1023.08	210.05
1023.36	215.30
1023.65	210.05
>>>>>End Processed Spectral Data<<<<<
