SpectraSuite Data File
++++++++++++++++++++++++++++++++++++
Date: Mon Feb 25 17:19:44 EST 2013
User: group
Dark Spectrum Present: No
Reference Spectrum Present: No
Number of Sampled Component Spectra: 1
Spectrometers: USB2E7196
Integration Time (usec): 104000 (USB2E7196)
Spectra Averaged: 20 (USB2E7196)
Boxcar Smoothing: 10 (USB2E7196)
Correct for Electrical Dark: No (USB2E7196)
Strobe/Lamp Enabled: No (USB2E7196)
Correct for Detector Non-linearity: No (USB2E7196)
Correct for Stray Light: No (USB2E7196)
Number of Pixels in Processed Spectrum: 2048
>>>>>Begin Processed Spectral Data<<<<<
339.09	0.00
339.48	197.60
339.86	200.10
340.24	202.00
340.63	202.60
341.01	208.60
341.39	204.75
341.78	207.65
342.16	209.65
342.54	207.50
342.93	198.10
343.31	208.10
343.69	208.70
344.07	209.19
344.46	209.62
344.84	210.05
345.22	210.14
345.60	210.45
345.99	210.68
346.37	210.78
346.75	210.99
347.13	211.10
347.52	211.19
347.90	211.31
348.28	211.42
348.66	211.59
349.05	211.55
349.43	211.70
349.81	211.86
350.19	212.00
350.57	212.06
350.96	212.21
351.34	212.34
351.72	212.43
352.10	212.54
352.48	212.63
352.87	212.68
353.25	212.82
353.63	212.88
354.01	212.92
354.39	213.07
354.77	213.22
355.15	213.39
355.54	213.41
355.92	213.42
356.30	213.48
356.68	213.85
357.06	213.98
357.44	213.99
357.82	213.99
358.20	214.04
358.58	214.14
358.97	214.18
359.35	214.38
359.73	214.52
360.11	214.61
360.49	214.69
360.87	214.78
361.25	214.80
361.63	215.07
362.01	215.17
362.39	215.14
362.77	215.15
363.15	215.20
363.53	215.30
363.91	215.36
364.29	215.41
364.67	215.07
365.05	215.02
365.43	215.09
365.81	215.15
366.19	215.31
366.57	215.40
366.95	215.47
367.33	215.30
367.71	215.38
368.09	215.51
368.47	215.50
368.85	215.49
369.23	215.60
369.61	215.38
369.99	215.52
370.37	215.64
370.75	215.78
371.13	215.68
371.51	215.66
371.89	215.68
372.27	215.73
372.65	215.71
373.03	215.75
373.41	215.68
373.78	215.65
374.16	215.43
374.54	215.27
374.92	215.24
375.30	215.30
375.68	215.24
376.06	215.16
376.44	215.12
376.82	215.16
377.19	215.11
377.57	215.10
377.95	214.89
378.33	214.82
378.71	214.60
379.09	214.67
379.47	214.65
379.84	214.50
380.22	214.34
380.60	214.25
380.98	214.10
381.36	214.09
381.73	214.00
382.11	213.96
382.49	213.97
382.87	213.85
383.25	213.76
383.62	214.01
384.00	213.93
384.38	213.92
384.76	213.88
385.13	213.95
385.51	213.96
385.89	213.87
386.27	213.77
386.64	213.77
387.02	213.68
387.40	213.56
387.78	213.60
388.15	213.62
388.53	213.60
388.91	213.60
389.29	213.57
389.66	213.51
390.04	213.53
390.42	213.59
390.79	213.57
391.17	213.58
391.55	213.21
391.92	213.15
392.30	213.13
392.68	213.04
393.05	213.06
393.43	213.03
393.81	213.05
394.18	213.04
394.56	213.04
394.94	213.07
395.31	213.09
395.69	213.21
396.06	213.33
396.44	213.35
396.82	213.43
397.19	213.66
397.57	213.74
397.95	213.89
398.32	213.77
398.70	213.84
399.07	213.93
399.45	213.92
399.82	213.99
400.20	213.96
400.58	214.03
400.95	213.86
401.33	213.95
401.70	214.22
402.08	214.30
402.45	214.36
402.83	214.53
403.20	214.67
403.58	214.75
403.95	214.85
404.33	215.03
404.71	215.19
405.08	215.45
405.46	215.56
405.83	215.64
406.21	215.81
406.58	216.07
406.96	216.22
407.33	216.51
407.70	216.78
408.08	217.40
408.45	217.71
408.83	218.10
409.20	218.44
409.58	218.70
409.95	219.14
410.33	219.57
410.70	219.91
411.08	220.44
411.45	220.96
411.82	221.43
412.20	222.08
412.57	222.80
412.95	223.11
413.32	223.87
413.69	224.60
414.07	225.46
414.44	226.35
414.82	227.26
415.19	228.32
415.56	229.34
415.94	230.29
416.31	231.47
416.68	232.78
417.06	234.20
417.43	235.53
417.81	237.06
418.18	238.65
418.55	240.27
418.93	241.96
419.30	243.76
419.67	245.68
420.04	247.69
420.42	249.80
420.79	252.44
421.16	254.82
421.54	257.52
421.91	260.09
422.28	262.72
422.66	265.61
423.03	268.47
423.40	271.41
423.77	274.50
424.15	277.67
424.52	281.02
424.89	284.58
425.26	288.09
425.64	291.42
426.01	295.04
426.38	298.92
426.75	302.93
427.13	306.95
427.50	311.28
427.87	315.59
428.24	319.81
428.61	323.94
428.99	328.68
429.36	333.41
429.73	338.32
430.10	343.21
430.47	348.18
430.85	353.24
431.22	358.76
431.59	364.70
431.96	370.29
432.33	376.22
432.70	382.00
433.08	388.84
433.45	395.34
433.82	401.90
434.19	409.11
434.56	416.04
434.93	422.80
435.30	429.52
435.68	436.97
436.05	444.44
436.42	451.61
436.79	458.24
437.16	465.41
437.53	472.96
437.90	480.38
438.27	487.77
438.64	495.43
439.01	502.44
439.38	508.61
439.75	514.68
440.13	521.65
440.50	528.32
440.87	533.64
441.24	539.19
441.61	545.25
441.98	549.67
442.35	554.98
442.72	560.32
443.09	565.26
443.46	568.29
443.83	570.25
444.20	572.05
444.57	574.56
444.94	575.74
445.31	577.00
445.68	578.39
446.05	578.71
446.42	577.92
446.79	576.97
447.16	575.78
447.53	575.03
447.90	572.11
448.27	569.17
448.64	565.22
449.01	562.17
449.37	557.04
449.74	552.10
450.11	546.35
450.48	539.84
450.85	533.41
451.22	527.78
451.59	522.43
451.96	517.30
452.33	510.59
452.70	504.47
453.07	497.13
453.43	489.61
453.80	482.69
454.17	475.90
454.54	469.51
454.91	462.80
455.28	456.00
455.65	449.81
456.02	443.91
456.38	438.60
456.75	432.08
457.12	426.70
457.49	421.46
457.86	416.10
458.23	411.67
458.59	406.67
458.96	401.73
459.33	397.45
459.70	393.25
460.07	389.74
460.43	385.75
460.80	382.02
461.17	378.72
461.54	375.32
461.91	372.08
462.27	368.74
462.64	365.84
463.01	362.85
463.38	359.99
463.74	356.69
464.11	354.12
464.48	351.86
464.85	349.33
465.21	347.40
465.58	345.34
465.95	342.95
466.32	340.93
466.68	339.14
467.05	337.23
467.42	335.15
467.78	333.13
468.15	331.27
468.52	330.02
468.88	328.22
469.25	326.53
469.62	325.33
469.98	323.94
470.35	322.72
470.72	321.55
471.08	320.19
471.45	319.13
471.82	318.04
472.18	316.94
472.55	316.16
472.92	315.23
473.28	314.51
473.65	313.74
474.02	313.09
474.38	312.45
474.75	311.99
475.11	311.45
475.48	311.17
475.85	311.02
476.21	310.75
476.58	310.66
476.94	310.71
477.31	310.66
477.67	310.70
478.04	310.80
478.41	311.12
478.77	311.70
479.14	311.98
479.50	312.43
479.87	312.97
480.23	313.61
480.60	314.13
480.96	314.78
481.33	315.76
481.69	316.78
482.06	317.68
482.42	318.55
482.79	319.69
483.15	320.87
483.52	322.27
483.88	323.65
484.25	325.13
484.61	326.71
484.98	328.23
485.34	330.25
485.71	332.30
486.07	334.40
486.44	336.38
486.80	338.89
487.17	341.30
487.53	344.05
487.90	346.85
488.26	349.99
488.62	353.30
488.99	356.57
489.35	359.98
489.72	363.66
490.08	367.56
490.44	371.73
490.81	376.12
491.17	380.55
491.54	385.24
491.90	390.20
492.26	395.39
492.63	401.02
492.99	406.71
493.36	412.76
493.72	419.13
494.08	425.66
494.45	432.54
494.81	439.89
495.17	447.40
495.54	455.37
495.90	463.49
496.26	471.91
496.63	480.80
496.99	490.05
497.35	499.85
497.72	510.02
498.08	520.30
498.44	531.06
498.80	542.60
499.17	554.33
499.53	566.54
499.89	579.36
500.26	592.21
500.62	605.56
500.98	619.59
501.34	634.05
501.71	649.07
502.07	664.54
502.43	680.40
502.79	696.63
503.16	713.49
503.52	730.80
503.88	748.73
504.24	766.93
504.60	785.75
504.97	804.96
505.33	824.58
505.69	845.75
506.05	867.00
506.41	888.24
506.78	910.18
507.14	932.50
507.50	955.47
507.86	979.00
508.22	1003.06
508.59	1027.34
508.95	1052.28
509.31	1077.48
509.67	1103.20
510.03	1129.77
510.39	1157.04
510.75	1184.43
511.12	1212.34
511.48	1240.69
511.84	1269.45
512.20	1298.25
512.56	1327.80
512.92	1357.95
513.28	1387.65
513.64	1417.66
514.00	1448.16
514.37	1478.83
514.73	1509.94
515.09	1541.00
515.45	1572.46
515.81	1604.02
516.17	1635.96
516.53	1667.75
516.89	1699.83
517.25	1731.92
517.61	1763.73
517.97	1795.52
518.33	1827.27
518.69	1859.78
519.05	1892.04
519.41	1924.68
519.77	1957.88
520.13	1990.14
520.49	2022.05
520.85	2054.51
521.21	2087.29
521.57	2120.17
521.93	2152.11
522.29	2185.26
522.65	2218.20
523.01	2250.77
523.37	2282.35
523.73	2314.33
524.09	2346.01
524.45	2378.18
524.81	2410.29
525.17	2442.63
525.53	2474.28
525.89	2506.42
526.25	2537.23
526.61	2567.28
526.97	2597.42
527.33	2627.26
527.68	2657.60
528.04	2686.98
528.40	2715.72
528.76	2744.55
529.12	2773.75
529.48	2803.66
529.84	2831.68
530.20	2859.26
530.56	2887.24
530.91	2916.24
531.27	2944.55
531.63	2972.22
531.99	2999.14
532.35	3024.84
532.71	3050.29
533.07	3077.11
533.42	3101.80
533.78	3127.10
534.14	3151.90
534.50	3174.76
534.86	3198.60
535.21	3220.75
535.57	3244.89
535.93	3267.35
536.29	3289.01
536.65	3310.46
537.00	3330.37
537.36	3350.43
537.72	3369.98
538.08	3389.22
538.44	3408.10
538.79	3426.40
539.15	3445.17
539.51	3463.25
539.87	3482.28
540.22	3500.21
540.58	3517.65
540.94	3534.88
541.29	3550.46
541.65	3565.42
542.01	3581.40
542.37	3595.85
542.72	3611.16
543.08	3623.75
543.44	3638.43
543.79	3651.22
544.15	3662.98
544.51	3675.74
544.87	3688.44
545.22	3699.58
545.58	3709.53
545.94	3718.34
546.29	3726.61
546.65	3733.67
547.01	3740.94
547.36	3747.53
547.72	3753.85
548.07	3758.77
548.43	3763.31
548.79	3767.91
549.14	3772.98
549.50	3777.50
549.86	3780.99
550.21	3783.58
550.57	3787.80
550.92	3788.80
551.28	3790.70
551.64	3792.85
551.99	3795.20
552.35	3795.75
552.70	3797.26
553.06	3798.85
553.41	3799.88
553.77	3800.64
554.13	3801.68
554.48	3802.67
554.84	3803.13
555.19	3802.27
555.55	3800.97
555.90	3799.31
556.26	3797.72
556.61	3795.58
556.97	3792.56
557.32	3790.56
557.68	3787.54
558.03	3783.57
558.39	3780.71
558.74	3778.61
559.10	3775.45
559.45	3771.06
559.81	3768.25
560.16	3763.81
560.52	3760.24
560.87	3755.70
561.23	3749.79
561.58	3745.00
561.94	3738.60
562.29	3731.66
562.64	3726.83
563.00	3722.10
563.35	3718.16
563.71	3714.29
564.06	3709.91
564.42	3706.13
564.77	3701.47
565.12	3697.71
565.48	3692.87
565.83	3688.43
566.19	3683.42
566.54	3676.65
566.89	3670.38
567.25	3663.57
567.60	3657.52
567.96	3649.98
568.31	3643.63
568.66	3637.48
569.02	3629.30
569.37	3621.25
569.72	3614.40
570.08	3606.06
570.43	3597.13
570.78	3587.94
571.14	3577.78
571.49	3568.08
571.84	3559.02
572.20	3548.48
572.55	3538.40
572.90	3527.86
573.26	3516.52
573.61	3504.67
573.96	3494.28
574.31	3482.66
574.67	3470.45
575.02	3457.67
575.37	3445.91
575.72	3432.90
576.08	3421.58
576.43	3409.64
576.78	3398.50
577.13	3387.12
577.49	3375.83
577.84	3364.37
578.19	3352.93
578.54	3342.80
578.90	3332.47
579.25	3320.04
579.60	3307.27
579.95	3294.27
580.30	3282.92
580.66	3271.71
581.01	3259.65
581.36	3246.73
581.71	3234.70
582.06	3222.90
582.42	3211.35
582.77	3198.19
583.12	3186.36
583.47	3174.79
583.82	3163.76
584.17	3151.58
584.53	3139.62
584.88	3126.90
585.23	3114.71
585.58	3102.38
585.93	3088.91
586.28	3076.49
586.63	3064.21
586.98	3053.15
587.34	3042.37
587.69	3030.17
588.04	3017.46
588.39	3005.75
588.74	2993.75
589.09	2982.57
589.44	2970.17
589.79	2958.94
590.14	2948.52
590.49	2936.90
590.84	2924.55
591.19	2913.79
591.54	2902.40
591.89	2888.85
592.25	2876.73
592.60	2863.85
592.95	2851.24
593.30	2838.05
593.65	2824.60
594.00	2812.04
594.35	2800.99
594.70	2788.35
595.05	2776.65
595.40	2765.00
595.75	2752.43
596.10	2741.40
596.45	2729.57
596.80	2719.02
597.15	2707.99
597.50	2696.08
597.85	2685.06
598.19	2673.53
598.54	2661.33
598.89	2650.27
599.24	2640.90
599.59	2630.67
599.94	2621.48
600.29	2611.38
600.64	2601.84
600.99	2590.85
601.34	2580.75
601.69	2568.70
602.04	2557.41
602.39	2546.26
602.74	2535.75
603.08	2526.54
603.43	2516.71
603.78	2506.31
604.13	2495.57
604.48	2485.21
604.83	2476.13
605.18	2467.14
605.53	2456.87
605.87	2446.04
606.22	2436.34
606.57	2425.83
606.92	2415.10
607.27	2403.50
607.62	2392.76
607.96	2382.68
608.31	2373.77
608.66	2362.66
609.01	2351.81
609.36	2341.19
609.70	2329.71
610.05	2318.23
610.40	2306.73
610.75	2294.86
611.10	2284.52
611.44	2272.00
611.79	2259.57
612.14	2246.94
612.49	2233.48
612.83	2221.67
613.18	2209.29
613.53	2196.38
613.88	2183.13
614.22	2171.29
614.57	2159.15
614.92	2146.97
615.27	2134.16
615.61	2121.18
615.96	2109.65
616.31	2098.82
616.65	2088.03
617.00	2077.30
617.35	2066.21
617.70	2054.28
618.04	2042.05
618.39	2028.51
618.74	2017.33
619.08	2005.31
619.43	1993.43
619.78	1982.39
620.12	1970.97
620.47	1960.07
620.82	1948.36
621.16	1936.72
621.51	1924.91
621.85	1913.85
622.20	1901.99
622.55	1890.65
622.89	1879.08
623.24	1867.54
623.59	1855.25
623.93	1843.21
624.28	1831.66
624.62	1820.37
624.97	1809.06
625.32	1798.50
625.66	1788.38
626.01	1777.87
626.35	1767.82
626.70	1757.26
627.04	1746.96
627.39	1736.40
627.73	1726.03
628.08	1716.15
628.43	1705.56
628.77	1694.99
629.12	1684.09
629.46	1674.70
629.81	1664.77
630.15	1654.79
630.50	1644.61
630.84	1634.38
631.19	1624.04
631.53	1614.19
631.88	1603.31
632.22	1592.97
632.57	1582.97
632.91	1572.78
633.26	1562.48
633.60	1552.35
633.95	1542.96
634.29	1532.72
634.64	1523.07
634.98	1512.89
635.32	1503.12
635.67	1494.35
636.01	1485.03
636.36	1475.55
636.70	1466.21
637.05	1456.55
637.39	1447.58
637.73	1438.91
638.08	1430.71
638.42	1422.67
638.77	1413.42
639.11	1404.85
639.45	1396.13
639.80	1386.57
640.14	1377.01
640.49	1367.92
640.83	1358.88
641.17	1349.34
641.52	1340.12
641.86	1330.53
642.20	1321.48
642.55	1311.66
642.89	1302.28
643.23	1292.87
643.58	1284.17
643.92	1274.42
644.26	1265.32
644.61	1256.06
644.95	1246.45
645.29	1237.14
645.64	1227.44
645.98	1218.53
646.32	1209.90
646.66	1200.75
647.01	1192.46
647.35	1184.13
647.69	1175.04
648.04	1166.36
648.38	1157.65
648.72	1148.83
649.06	1140.23
649.41	1131.67
649.75	1123.37
650.09	1114.86
650.43	1106.57
650.78	1097.67
651.12	1089.10
651.46	1080.61
651.80	1072.35
652.14	1064.23
652.49	1055.60
652.83	1047.42
653.17	1038.43
653.51	1029.58
653.85	1021.50
654.20	1013.10
654.54	1004.85
654.88	996.76
655.22	988.22
655.56	979.90
655.90	972.03
656.25	963.99
656.59	956.05
656.93	948.31
657.27	940.82
657.61	932.58
657.95	925.04
658.29	917.73
658.64	910.45
658.98	902.75
659.32	894.83
659.66	887.38
660.00	879.83
660.34	872.48
660.68	865.17
661.02	857.71
661.36	850.66
661.70	843.67
662.05	837.12
662.39	830.86
662.73	824.41
663.07	817.92
663.41	811.53
663.75	805.02
664.09	798.28
664.43	791.43
664.77	785.20
665.11	778.81
665.45	772.65
665.79	766.44
666.13	760.39
666.47	754.55
666.81	748.71
667.15	742.63
667.49	737.42
667.83	732.01
668.17	726.70
668.51	721.19
668.85	715.75
669.19	710.37
669.53	704.81
669.87	699.47
670.21	694.09
670.55	688.81
670.89	683.90
671.23	679.16
671.57	674.20
671.91	669.25
672.25	664.33
672.58	659.30
672.92	654.62
673.26	649.95
673.60	645.24
673.94	640.66
674.28	636.18
674.62	631.71
674.96	627.18
675.30	622.69
675.64	618.16
675.97	613.83
676.31	609.63
676.65	605.48
676.99	601.51
677.33	597.21
677.67	592.98
678.01	588.55
678.34	584.41
678.68	580.38
679.02	576.18
679.36	572.28
679.70	568.40
680.04	564.14
680.37	560.02
680.71	556.23
681.05	552.47
681.39	548.66
681.73	544.79
682.06	541.29
682.40	537.77
682.74	534.21
683.08	530.62
683.42	526.65
683.75	522.99
684.09	519.14
684.43	515.65
684.77	512.10
685.10	508.69
685.44	505.08
685.78	501.66
686.12	498.59
686.45	495.35
686.79	492.05
687.13	489.10
687.46	486.10
687.80	483.02
688.14	479.76
688.48	476.74
688.81	473.55
689.15	470.25
689.49	466.90
689.82	463.89
690.16	460.42
690.50	457.40
690.83	454.24
691.17	451.14
691.51	448.19
691.84	445.35
692.18	442.52
692.52	439.85
692.85	437.20
693.19	434.57
693.52	431.74
693.86	428.88
694.20	426.14
694.53	423.40
694.87	420.67
695.21	417.95
695.54	415.31
695.88	412.64
696.21	409.97
696.55	407.62
696.88	405.13
697.22	402.89
697.56	400.73
697.89	398.49
698.23	396.16
698.56	393.92
698.90	391.75
699.23	389.42
699.57	387.16
699.90	384.93
700.24	382.58
700.58	380.40
700.91	378.43
701.25	376.54
701.58	374.55
701.92	372.51
702.25	370.54
702.59	368.56
702.92	366.71
703.26	364.85
703.59	362.94
703.93	361.26
704.26	359.53
704.60	357.60
704.93	355.80
705.26	353.96
705.60	352.21
705.93	350.38
706.27	348.75
706.60	347.18
706.94	345.69
707.27	344.09
707.61	342.57
707.94	340.91
708.27	338.98
708.61	337.27
708.94	335.65
709.28	334.16
709.61	332.74
709.94	331.21
710.28	329.80
710.61	328.43
710.95	326.74
711.28	325.41
711.61	324.02
711.95	322.81
712.28	321.53
712.61	320.21
712.95	319.08
713.28	317.84
713.61	316.52
713.95	315.13
714.28	313.88
714.61	312.55
714.95	311.40
715.28	310.26
715.61	309.08
715.95	307.94
716.28	306.74
716.61	305.46
716.95	304.35
717.28	303.25
717.61	302.14
717.94	301.15
718.28	299.91
718.61	298.82
718.94	297.61
719.27	296.52
719.61	295.51
719.94	294.48
720.27	293.38
720.60	292.36
720.94	291.31
721.27	290.32
721.60	289.43
721.93	288.50
722.27	287.77
722.60	286.91
722.93	286.02
723.26	285.19
723.59	284.37
723.93	283.54
724.26	282.66
724.59	281.78
724.92	280.97
725.25	280.21
725.59	279.47
725.92	278.80
726.25	278.08
726.58	277.23
726.91	276.42
727.24	275.78
727.57	275.02
727.91	274.29
728.24	273.63
728.57	272.90
728.90	272.25
729.23	271.40
729.56	270.88
729.89	270.22
730.22	269.46
730.55	268.70
730.89	268.05
731.22	267.43
731.55	266.80
731.88	266.15
732.21	265.49
732.54	264.85
732.87	264.17
733.20	263.57
733.53	263.02
733.86	262.44
734.19	261.82
734.52	261.30
734.85	261.00
735.18	260.49
735.51	260.02
735.84	259.48
736.17	259.08
736.50	258.33
736.83	258.19
737.16	257.80
737.49	257.34
737.82	256.68
738.15	256.18
738.48	255.67
738.81	255.20
739.14	254.71
739.47	254.15
739.80	253.62
740.13	253.21
740.46	252.72
740.79	252.12
741.12	251.58
741.45	251.10
741.78	250.43
742.11	249.99
742.44	249.47
742.77	249.06
743.10	248.56
743.43	248.13
743.75	247.41
744.08	247.35
744.41	246.98
744.74	246.68
745.07	246.28
745.40	245.96
745.73	245.60
746.06	245.20
746.39	244.86
746.71	244.50
747.04	244.09
747.37	243.61
747.70	243.33
748.03	243.00
748.36	242.71
748.68	242.47
749.01	242.04
749.34	241.72
749.67	241.36
750.00	241.02
750.33	240.96
750.65	240.52
750.98	239.74
751.31	239.44
751.64	239.13
751.97	238.97
752.29	238.62
752.62	238.22
752.95	237.85
753.28	237.53
753.60	237.15
753.93	236.84
754.26	236.63
754.59	236.28
754.91	235.91
755.24	235.62
755.57	235.15
755.90	234.85
756.22	234.57
756.55	234.29
756.88	233.95
757.20	233.39
757.53	233.07
757.86	232.84
758.19	232.54
758.51	232.28
758.84	231.86
759.17	231.60
759.49	231.38
759.82	231.30
760.15	231.14
760.47	230.90
760.80	230.67
761.13	230.53
761.45	230.33
761.78	230.16
762.11	229.91
762.43	229.74
762.76	229.50
763.08	229.31
763.41	229.12
763.74	228.93
764.06	228.85
764.39	228.67
764.71	228.41
765.04	228.16
765.37	227.86
765.69	227.66
766.02	227.43
766.34	227.23
766.67	226.96
767.00	226.85
767.32	226.90
767.65	226.85
767.97	226.60
768.30	226.47
768.62	226.34
768.95	226.11
769.27	225.97
769.60	225.81
769.92	225.58
770.25	225.29
770.57	225.04
770.90	224.84
771.22	224.66
771.55	224.58
771.87	224.50
772.20	224.41
772.52	224.60
772.85	224.89
773.17	224.81
773.50	224.69
773.82	224.47
774.15	224.18
774.47	223.82
774.80	223.62
775.12	223.43
775.45	223.27
775.77	223.15
776.09	223.01
776.42	223.01
776.74	223.03
777.07	222.90
777.39	222.90
777.72	222.70
778.04	222.62
778.36	222.51
778.69	222.41
779.01	222.34
779.33	221.90
779.66	221.35
779.98	221.21
780.31	221.09
780.63	221.11
780.95	221.06
781.28	221.04
781.60	220.98
781.92	220.90
782.25	220.82
782.57	220.75
782.89	220.65
783.22	220.49
783.54	220.29
783.86	220.26
784.19	220.11
784.51	220.20
784.83	220.01
785.16	219.89
785.48	219.80
785.80	219.65
786.12	219.60
786.45	219.53
786.77	219.45
787.09	219.28
787.42	219.13
787.74	219.00
788.06	218.95
788.38	218.85
788.71	218.71
789.03	218.64
789.35	218.65
789.67	218.48
789.99	218.43
790.32	218.34
790.64	218.31
790.96	218.52
791.28	218.35
791.61	218.36
791.93	218.28
792.25	218.18
792.57	218.39
792.89	218.23
793.21	218.20
793.54	218.07
793.86	218.07
794.18	217.95
794.50	217.85
794.82	217.80
795.14	217.80
795.47	217.85
795.79	217.81
796.11	217.62
796.43	217.59
796.75	217.54
797.07	217.47
797.39	217.35
797.71	217.07
798.04	217.06
798.36	216.97
798.68	216.95
799.00	216.92
799.32	216.62
799.64	216.62
799.96	216.50
800.28	216.52
800.60	216.38
800.92	216.40
801.24	216.30
801.56	216.20
801.89	216.12
802.21	216.08
802.53	215.97
802.85	215.99
803.17	216.08
803.49	215.97
803.81	215.92
804.13	215.87
804.45	215.75
804.77	215.69
805.09	215.70
805.41	215.64
805.73	215.51
806.05	215.42
806.37	215.32
806.69	215.31
807.01	215.27
807.33	215.27
807.65	215.07
807.97	215.26
808.28	215.20
808.60	215.14
808.92	215.03
809.24	215.21
809.56	215.10
809.88	214.94
810.20	214.93
810.52	214.93
810.84	214.84
811.16	214.79
811.48	214.72
811.80	214.75
812.12	214.75
812.43	214.85
812.75	214.86
813.07	214.82
813.39	214.84
813.71	214.75
814.03	214.72
814.35	214.77
814.67	214.58
814.98	214.55
815.30	214.52
815.62	214.50
815.94	214.18
816.26	214.21
816.58	214.18
816.89	214.13
817.21	214.05
817.53	214.07
817.85	214.09
818.17	214.06
818.48	213.92
818.80	213.91
819.12	213.85
819.44	213.75
819.76	213.72
820.07	213.79
820.39	213.76
820.71	213.79
821.03	213.76
821.34	213.71
821.66	213.74
821.98	213.71
822.30	213.66
822.61	213.88
822.93	213.83
823.25	213.80
823.57	213.77
823.88	213.85
824.20	213.83
824.52	213.88
824.83	213.91
825.15	213.85
825.47	213.80
825.79	213.85
826.10	213.85
826.42	213.81
826.74	213.76
827.05	213.81
827.37	213.83
827.69	213.87
828.00	213.90
828.32	213.94
828.64	213.99
828.95	214.16
829.27	214.05
829.58	214.05
829.90	214.09
830.22	214.10
830.53	214.03
830.85	214.02
831.17	213.92
831.48	213.89
831.80	213.93
832.11	213.88
832.43	213.77
832.75	213.85
833.06	214.06
833.38	213.95
833.69	213.90
834.01	213.92
834.32	213.82
834.64	213.67
834.96	213.59
835.27	213.54
835.59	213.43
835.90	213.33
836.22	213.29
836.53	213.21
836.85	213.22
837.16	213.51
837.48	213.49
837.79	213.57
838.11	213.57
838.42	213.55
838.74	213.56
839.05	213.56
839.37	213.40
839.68	213.18
840.00	213.15
840.31	213.18
840.63	213.10
840.94	213.12
841.26	213.12
841.57	213.11
841.88	213.16
842.20	213.01
842.51	213.05
842.83	213.01
843.14	213.30
843.46	213.27
843.77	213.11
844.08	213.05
844.40	212.92
844.71	212.88
845.03	212.82
845.34	212.85
845.65	212.81
845.97	212.83
846.28	212.85
846.60	212.81
846.91	212.73
847.22	212.65
847.54	212.63
847.85	212.72
848.16	212.68
848.48	212.55
848.79	212.70
849.10	212.71
849.42	212.74
849.73	212.40
850.04	212.40
850.36	212.23
850.67	212.30
850.98	212.37
851.30	212.36
851.61	212.42
851.92	212.43
852.23	212.57
852.55	212.65
852.86	212.64
853.17	212.73
853.49	212.81
853.80	212.90
854.11	212.95
854.42	212.93
854.74	212.90
855.05	212.97
855.36	212.80
855.67	212.85
855.99	212.91
856.30	213.35
856.61	213.28
856.92	213.34
857.23	213.32
857.55	213.19
857.86	213.16
858.17	213.19
858.48	213.04
858.79	212.90
859.11	212.91
859.42	212.89
859.73	212.82
860.04	212.73
860.35	212.69
860.66	212.54
860.98	212.49
861.29	212.50
861.60	212.50
861.91	212.59
862.22	212.50
862.53	212.42
862.84	211.99
863.16	212.12
863.47	212.02
863.78	212.01
864.09	212.11
864.40	212.15
864.71	212.13
865.02	212.25
865.33	212.25
865.64	212.20
865.95	212.25
866.27	212.45
866.58	212.53
866.89	212.52
867.20	212.57
867.51	212.56
867.82	212.60
868.13	212.59
868.44	212.54
868.75	212.60
869.06	212.59
869.37	212.65
869.68	212.46
869.99	212.54
870.30	212.61
870.61	212.57
870.92	212.49
871.23	212.43
871.54	212.47
871.85	212.51
872.16	212.52
872.47	212.47
872.78	212.25
873.09	212.23
873.40	212.20
873.71	212.26
874.02	212.26
874.33	212.17
874.64	212.11
874.95	212.19
875.26	212.13
875.56	212.12
875.87	212.09
876.18	212.14
876.49	212.50
876.80	212.40
877.11	212.35
877.42	212.41
877.73	212.44
878.04	212.31
878.35	212.30
878.66	212.31
878.96	212.29
879.27	212.30
879.58	212.30
879.89	212.26
880.20	212.32
880.51	212.35
880.82	212.42
881.12	212.51
881.43	212.42
881.74	212.41
882.05	212.37
882.36	212.35
882.67	212.37
882.97	211.98
883.28	211.93
883.59	211.94
883.90	211.99
884.21	212.06
884.51	212.16
884.82	212.08
885.13	212.05
885.44	212.07
885.74	212.06
886.05	212.03
886.36	212.06
886.67	211.89
886.98	212.06
887.28	212.06
887.59	212.00
887.90	212.02
888.20	211.97
888.51	212.11
888.82	212.08
889.13	212.11
889.43	212.36
889.74	212.37
890.05	212.41
890.35	212.35
890.66	212.27
890.97	212.20
891.28	212.19
891.58	212.23
891.89	212.19
892.20	212.22
892.50	212.17
892.81	212.14
893.12	212.18
893.42	212.02
893.73	212.03
894.04	212.03
894.34	212.04
894.65	211.98
894.95	211.86
895.26	211.85
895.57	212.00
895.87	211.73
896.18	211.85
896.48	211.82
896.79	211.83
897.10	211.84
897.40	211.86
897.71	211.95
898.01	211.92
898.32	212.01
898.63	211.95
898.93	212.02
899.24	212.04
899.54	212.12
899.85	212.12
900.15	212.09
900.46	212.11
900.76	212.12
901.07	212.12
901.38	212.14
901.68	212.27
901.99	212.06
902.29	212.10
902.60	212.00
902.90	212.01
903.21	212.00
903.51	212.00
903.82	212.05
904.12	212.02
904.43	212.09
904.73	212.05
905.03	212.09
905.34	212.37
905.64	212.30
905.95	212.20
906.25	212.15
906.56	212.14
906.86	212.12
907.17	212.15
907.47	212.26
907.77	212.22
908.08	212.10
908.38	212.17
908.69	212.16
908.99	212.16
909.30	212.17
909.60	212.17
909.90	212.20
910.21	212.17
910.51	212.15
910.81	212.01
911.12	212.04
911.42	211.99
911.73	211.64
912.03	211.70
912.33	211.82
912.64	211.85
912.94	211.82
913.24	211.84
913.55	211.79
913.85	211.78
914.15	211.87
914.46	211.91
914.76	211.84
915.06	211.83
915.37	211.82
915.67	211.81
915.97	211.81
916.27	211.68
916.58	211.55
916.88	211.41
917.18	211.45
917.49	211.71
917.79	211.75
918.09	211.87
918.39	212.01
918.70	211.96
919.00	211.92
919.30	212.08
919.60	212.06
919.91	212.01
920.21	212.05
920.51	211.95
920.81	211.92
921.12	212.05
921.42	211.99
921.72	211.98
922.02	211.98
922.32	212.01
922.63	212.08
922.93	212.31
923.23	212.37
923.53	212.36
923.83	212.05
924.13	212.08
924.44	211.98
924.74	211.97
925.04	212.07
925.34	212.08
925.64	211.94
925.94	211.86
926.24	212.13
926.55	212.03
926.85	212.13
927.15	212.10
927.45	211.97
927.75	211.98
928.05	212.00
928.35	211.97
928.65	212.08
928.95	212.10
929.26	211.98
929.56	212.06
929.86	212.07
930.16	212.03
930.46	211.98
930.76	212.05
931.06	211.79
931.36	211.67
931.66	211.72
931.96	211.69
932.26	211.73
932.56	211.48
932.86	211.51
933.16	211.44
933.46	211.39
933.76	211.45
934.06	211.52
934.36	211.62
934.66	211.64
934.96	211.54
935.26	211.58
935.56	211.70
935.86	211.63
936.16	211.66
936.46	211.67
936.76	211.64
937.06	211.58
937.36	211.68
937.66	211.70
937.96	211.67
938.26	211.68
938.56	211.69
938.86	211.84
939.16	211.89
939.46	211.95
939.76	211.94
940.06	211.90
940.35	211.85
940.65	211.65
940.95	211.67
941.25	211.50
941.55	211.45
941.85	211.32
942.15	211.39
942.45	211.43
942.75	211.37
943.04	211.37
943.34	211.41
943.64	211.38
943.94	211.38
944.24	211.40
944.54	211.40
944.84	211.41
945.13	211.28
945.43	211.20
945.73	211.17
946.03	211.18
946.33	211.13
946.62	211.07
946.92	211.11
947.22	211.19
947.52	211.31
947.82	211.38
948.11	211.28
948.41	211.17
948.71	211.11
949.01	211.17
949.31	211.17
949.60	211.14
949.90	211.26
950.20	211.18
950.50	211.16
950.79	211.11
951.09	211.14
951.39	211.08
951.69	211.13
951.98	211.24
952.28	211.29
952.58	211.29
952.87	211.39
953.17	211.43
953.47	211.33
953.76	211.28
954.06	211.23
954.36	211.24
954.66	211.31
954.95	211.37
955.25	211.39
955.55	211.40
955.84	211.38
956.14	211.36
956.44	211.39
956.73	211.39
957.03	211.42
957.32	211.40
957.62	211.41
957.92	211.50
958.21	211.46
958.51	211.85
958.81	211.93
959.10	211.92
959.40	212.00
959.69	212.00
959.99	211.98
960.29	211.96
960.58	212.03
960.88	212.15
961.17	212.12
961.47	212.19
961.76	212.27
962.06	212.32
962.36	212.35
962.65	212.33
962.95	212.37
963.24	212.35
963.54	212.34
963.83	212.38
964.13	212.25
964.42	212.20
964.72	211.92
965.01	211.83
965.31	211.78
965.60	211.72
965.90	211.95
966.19	211.97
966.49	211.99
966.78	211.93
967.08	211.89
967.37	211.89
967.67	211.82
967.96	211.74
968.26	211.73
968.55	211.77
968.85	211.75
969.14	211.69
969.43	211.72
969.73	211.72
970.02	211.72
970.32	211.70
970.61	211.65
970.91	211.55
971.20	211.53
971.49	211.49
971.79	211.56
972.08	211.34
972.38	211.38
972.67	211.37
972.96	211.43
973.26	211.36
973.55	211.47
973.85	211.50
974.14	211.53
974.43	211.51
974.73	211.41
975.02	211.40
975.31	211.34
975.61	211.30
975.90	211.26
976.19	211.23
976.49	211.30
976.78	211.31
977.07	211.34
977.37	211.36
977.66	211.40
977.95	211.28
978.24	211.28
978.54	211.30
978.83	211.23
979.12	211.22
979.42	211.19
979.71	211.09
980.00	211.07
980.29	211.08
980.59	211.02
980.88	211.09
981.17	211.10
981.46	211.23
981.76	211.24
982.05	211.33
982.34	211.32
982.63	211.30
982.93	211.32
983.22	211.36
983.51	211.37
983.80	211.42
984.09	211.49
984.39	211.43
984.68	211.35
984.97	211.33
985.26	211.28
985.55	211.29
985.85	211.19
986.14	211.26
986.43	211.30
986.72	211.32
987.01	211.22
987.30	211.24
987.59	211.18
987.89	211.19
988.18	211.10
988.47	211.10
988.76	211.09
989.05	211.08
989.34	211.07
989.63	211.17
989.92	211.15
990.22	211.10
990.51	211.16
990.80	211.18
991.09	211.27
991.38	211.37
991.67	211.32
991.96	211.27
992.25	211.25
992.54	211.21
992.83	211.13
993.12	211.16
993.41	211.15
993.70	211.28
993.99	211.33
994.28	211.36
994.58	211.37
994.87	211.28
995.16	211.22
995.45	211.21
995.74	211.10
996.03	211.10
996.32	211.15
996.61	211.19
996.90	211.20
997.19	211.20
997.48	211.19
997.77	211.21
998.06	211.32
998.34	211.32
998.63	211.29
998.92	211.34
999.21	211.34
999.50	211.34
999.79	211.17
1000.08	211.14
1000.37	211.18
1000.66	211.12
1000.95	211.26
1001.24	211.31
1001.53	211.29
1001.82	211.31
1002.11	211.25
1002.40	211.34
1002.68	211.45
1002.97	211.69
1003.26	211.64
1003.55	211.59
1003.84	211.60
1004.13	211.73
1004.42	211.64
1004.71	211.62
1004.99	211.65
1005.28	211.81
1005.57	211.81
1005.86	211.76
1006.15	211.77
1006.44	211.62
1006.72	211.73
1007.01	211.63
1007.30	211.61
1007.59	211.56
1007.88	211.52
1008.17	211.54
1008.45	211.38
1008.74	211.24
1009.03	211.02
1009.32	211.02
1009.60	210.98
1009.89	210.91
1010.18	210.77
1010.47	210.74
1010.76	210.75
1011.04	210.72
1011.33	210.64
1011.62	210.71
1011.91	210.84
1012.19	210.87
1012.48	210.91
1012.77	210.92
1013.05	211.06
1013.34	211.10
1013.63	211.09
1013.92	211.09
1014.20	211.11
1014.49	211.14
1014.78	211.17
1015.06	211.12
1015.35	211.07
1015.64	211.08
1015.92	211.12
1016.21	211.11
1016.50	211.16
1016.78	211.20
1017.07	211.18
1017.36	211.15
1017.64	210.99
1017.93	210.96
1018.22	210.89
1018.50	210.89
1018.79	210.85
1019.08	210.78
1019.36	210.85
1019.65	210.86
1019.93	210.96
1020.22	210.94
1020.51	211.07
1020.79	210.95
1021.08	210.30
1021.36	210.15
1021.65	211.10
1021.94	211.95
1022.22	212.95
1022.51	210.70
1022.79	212.25
1023.08	210.90
1023.36	213.80
1023.65	209.35
>>>>>End Processed Spectral Data<<<<<
