SpectraSuite Data File
++++++++++++++++++++++++++++++++++++
Date: Mon Feb 25 17:07:54 EST 2013
User: group
Dark Spectrum Present: No
Reference Spectrum Present: No
Number of Sampled Component Spectra: 1
Spectrometers: USB2E7196
Integration Time (usec): 104000 (USB2E7196)
Spectra Averaged: 20 (USB2E7196)
Boxcar Smoothing: 10 (USB2E7196)
Correct for Electrical Dark: No (USB2E7196)
Strobe/Lamp Enabled: No (USB2E7196)
Correct for Detector Non-linearity: No (USB2E7196)
Correct for Stray Light: No (USB2E7196)
Number of Pixels in Processed Spectrum: 2048
>>>>>Begin Processed Spectral Data<<<<<
339.09	0.00
339.48	198.70
339.86	199.75
340.24	200.60
340.63	202.95
341.01	209.50
341.39	205.95
341.78	206.05
342.16	209.70
342.54	208.65
342.93	198.06
343.31	208.12
343.69	208.65
344.07	209.19
344.46	209.72
344.84	210.13
345.22	210.15
345.60	210.36
345.99	210.61
346.37	210.70
346.75	210.81
347.13	210.83
347.52	210.94
347.90	211.07
348.28	211.04
348.66	211.10
349.05	211.02
349.43	211.06
349.81	211.10
350.19	211.12
350.57	211.17
350.96	211.26
351.34	211.27
351.72	211.37
352.10	211.37
352.48	211.30
352.87	211.29
353.25	211.36
353.63	211.41
354.01	211.46
354.39	211.46
354.77	211.53
355.15	211.74
355.54	211.73
355.92	211.69
356.30	211.72
356.68	212.08
357.06	212.19
357.44	212.23
357.82	212.21
358.20	212.34
358.58	212.38
358.97	212.36
359.35	212.46
359.73	212.52
360.11	212.54
360.49	212.66
360.87	212.71
361.25	212.78
361.63	212.92
362.01	212.99
362.39	213.04
362.77	213.00
363.15	213.01
363.53	213.07
363.91	213.14
364.29	213.20
364.67	212.81
365.05	212.82
365.43	212.84
365.81	212.89
366.19	213.02
366.57	213.24
366.95	213.18
367.33	213.06
367.71	213.10
368.09	213.20
368.47	213.17
368.85	213.11
369.23	213.17
369.61	213.09
369.99	213.20
370.37	213.18
370.75	213.34
371.13	213.23
371.51	213.09
371.89	213.06
372.27	213.05
372.65	213.06
373.03	213.07
373.41	213.00
373.78	212.92
374.16	212.65
374.54	212.53
374.92	212.52
375.30	212.55
375.68	212.42
376.06	212.42
376.44	212.32
376.82	212.28
377.19	212.26
377.57	212.17
377.95	211.88
378.33	211.84
378.71	211.60
379.09	211.53
379.47	211.55
379.84	211.49
380.22	211.34
380.60	211.25
380.98	211.17
381.36	211.24
381.73	211.16
382.11	211.18
382.49	211.05
382.87	210.94
383.25	210.84
383.62	211.19
384.00	211.00
384.38	211.03
384.76	211.09
385.13	211.11
385.51	211.14
385.89	211.10
386.27	211.08
386.64	211.15
387.02	211.13
387.40	211.06
387.78	210.96
388.15	210.97
388.53	210.95
388.91	210.97
389.29	210.79
389.66	210.84
390.04	210.78
390.42	210.86
390.79	210.95
391.17	210.97
391.55	210.60
391.92	210.64
392.30	210.66
392.68	210.58
393.05	210.60
393.43	210.56
393.81	210.55
394.18	210.50
394.56	210.43
394.94	210.52
395.31	210.50
395.69	210.65
396.06	210.66
396.44	210.65
396.82	210.61
397.19	210.80
397.57	210.72
397.95	210.82
398.32	210.65
398.70	210.65
399.07	210.73
399.45	210.70
399.82	210.68
400.20	210.62
400.58	210.58
400.95	210.37
401.33	210.44
401.70	210.75
402.08	210.75
402.45	210.76
402.83	210.77
403.20	210.81
403.58	210.82
403.95	210.97
404.33	211.08
404.71	211.09
405.08	211.35
405.46	211.48
405.83	211.53
406.21	211.65
406.58	211.70
406.96	211.71
407.33	211.87
407.70	212.08
408.08	212.44
408.45	212.70
408.83	212.96
409.20	213.08
409.58	213.00
409.95	213.25
410.33	213.50
410.70	213.67
411.08	213.95
411.45	214.13
411.82	214.24
412.20	214.56
412.57	215.06
412.95	215.12
413.32	215.55
413.69	215.90
414.07	216.32
414.44	216.76
414.82	217.30
415.19	217.82
415.56	218.23
415.94	218.64
416.31	219.33
416.68	220.02
417.06	220.76
417.43	221.61
417.81	222.47
418.18	223.30
418.55	224.27
418.93	225.24
419.30	226.26
419.67	227.47
420.04	228.55
420.42	229.65
420.79	231.17
421.16	232.50
421.54	233.97
421.91	235.40
422.28	236.89
422.66	238.44
423.03	240.22
423.40	241.90
423.77	243.63
424.15	245.17
424.52	246.96
424.89	248.89
425.26	250.71
425.64	252.50
426.01	254.45
426.38	256.42
426.75	258.63
427.13	260.77
427.50	263.10
427.87	265.45
428.24	267.85
428.61	269.95
428.99	272.50
429.36	275.20
429.73	277.93
430.10	280.66
430.47	283.47
430.85	286.16
431.22	289.19
431.59	292.67
431.96	295.85
432.33	299.18
432.70	302.55
433.08	306.42
433.45	310.16
433.82	313.94
434.19	318.04
434.56	322.05
434.93	325.90
435.30	329.63
435.68	333.91
436.05	338.04
436.42	342.16
436.79	346.06
437.16	350.15
437.53	354.45
437.90	358.75
438.27	363.06
438.64	367.49
439.01	371.66
439.38	375.20
439.75	378.77
440.13	382.92
440.50	386.64
440.87	389.93
441.24	393.25
441.61	396.78
441.98	399.46
442.35	402.42
442.72	405.65
443.09	408.82
443.46	410.73
443.83	412.07
444.20	413.41
444.57	414.99
444.94	415.92
445.31	416.79
445.68	418.03
446.05	418.45
446.42	418.18
446.79	417.95
447.16	417.56
447.53	417.43
447.90	415.89
448.27	414.50
448.64	412.30
449.01	410.70
449.37	408.13
449.74	405.62
450.11	402.80
450.48	399.22
450.85	395.60
451.22	392.56
451.59	389.74
451.96	386.93
452.33	383.09
452.70	379.74
453.07	375.70
453.43	371.28
453.80	367.19
454.17	363.45
454.54	359.62
454.91	355.59
455.28	351.64
455.65	348.10
456.02	345.09
456.38	342.12
456.75	338.45
457.12	335.22
457.49	332.02
457.86	328.72
458.23	326.35
458.59	323.50
458.96	320.65
459.33	318.10
459.70	315.49
460.07	313.49
460.43	311.16
460.80	309.10
461.17	307.20
461.54	305.25
461.91	303.20
462.27	301.38
462.64	299.71
463.01	298.03
463.38	296.49
463.74	294.15
464.11	292.50
464.48	291.13
464.85	289.63
465.21	288.67
465.58	287.49
465.95	285.87
466.32	284.69
466.68	283.48
467.05	282.19
467.42	281.00
467.78	279.74
468.15	278.44
468.52	277.50
468.88	276.25
469.25	275.27
469.62	274.45
469.98	273.49
470.35	272.60
470.72	271.71
471.08	270.72
471.45	270.09
471.82	269.44
472.18	268.59
472.55	267.98
472.92	267.06
473.28	266.44
473.65	265.85
474.02	265.26
474.38	264.80
474.75	264.34
475.11	263.81
475.48	263.53
475.85	263.25
476.21	262.86
476.58	262.57
476.94	262.26
477.31	261.98
477.67	261.74
478.04	261.58
478.41	261.53
478.77	261.69
479.14	261.52
479.50	261.47
479.87	261.39
480.23	261.37
480.60	261.39
480.96	261.28
481.33	261.45
481.69	261.49
482.06	261.52
482.42	261.77
482.79	262.00
483.15	262.06
483.52	262.33
483.88	262.47
484.25	262.66
484.61	262.80
484.98	262.94
485.34	263.30
485.71	263.65
486.07	263.83
486.44	263.94
486.80	264.29
487.17	264.58
487.53	265.17
487.90	265.73
488.26	266.38
488.62	267.10
488.99	267.60
489.35	268.26
489.72	268.96
490.08	269.48
490.44	270.07
490.81	270.83
491.17	271.52
491.54	272.45
491.90	273.33
492.26	274.30
492.63	275.42
492.99	276.29
493.36	277.34
493.72	278.52
494.08	279.61
494.45	280.77
494.81	282.08
495.17	283.22
495.54	284.46
495.90	285.70
496.26	287.02
496.63	288.38
496.99	289.88
497.35	291.30
497.72	292.91
498.08	294.50
498.44	296.09
498.80	297.79
499.17	299.45
499.53	301.19
499.89	303.03
500.26	304.73
500.62	306.65
500.98	308.58
501.34	310.46
501.71	312.43
502.07	314.48
502.43	316.42
502.79	318.42
503.16	320.49
503.52	322.65
503.88	324.75
504.24	326.97
504.60	329.18
504.97	331.51
505.33	333.67
505.69	336.27
506.05	338.61
506.41	340.94
506.78	343.27
507.14	345.61
507.50	348.05
507.86	350.64
508.22	353.03
508.59	355.49
508.95	358.12
509.31	360.91
509.67	363.59
510.03	366.36
510.39	369.16
510.75	371.90
511.12	374.61
511.48	377.47
511.84	380.32
512.20	383.17
512.56	386.05
512.92	389.14
513.28	391.88
513.64	394.93
514.00	398.03
514.37	401.18
514.73	404.43
515.09	407.60
515.45	410.62
515.81	413.78
516.17	416.92
516.53	420.02
516.89	422.99
517.25	426.13
517.61	429.48
517.97	432.70
518.33	435.94
518.69	439.22
519.05	442.53
519.41	445.93
519.77	449.46
520.13	452.80
520.49	456.06
520.85	459.48
521.21	462.97
521.57	466.47
521.93	469.91
522.29	473.37
522.65	476.82
523.01	480.42
523.37	483.97
523.73	487.62
524.09	491.23
524.45	495.10
524.81	498.85
525.17	502.52
525.53	506.34
525.89	510.21
526.25	514.15
526.61	517.89
526.97	521.66
527.33	525.47
527.68	529.68
528.04	533.67
528.40	537.49
528.76	541.38
529.12	545.28
529.48	549.37
529.84	553.44
530.20	557.60
530.56	561.79
530.91	566.21
531.27	570.51
531.63	574.71
531.99	578.80
532.35	582.92
532.71	586.99
533.07	591.19
533.42	595.64
533.78	599.78
534.14	603.88
534.50	607.86
534.86	612.05
535.21	615.77
535.57	620.02
535.93	624.01
536.29	628.22
536.65	632.29
537.00	636.13
537.36	640.04
537.72	643.93
538.08	647.93
538.44	651.62
538.79	655.32
539.15	659.16
539.51	662.97
539.87	666.88
540.22	670.74
540.58	674.73
540.94	678.30
541.29	682.18
541.65	685.90
542.01	689.75
542.37	693.35
542.72	697.05
543.08	700.38
543.44	704.20
543.79	707.44
544.15	710.95
544.51	714.63
544.87	718.19
545.22	721.58
545.58	724.66
545.94	728.08
546.29	731.30
546.65	734.35
547.01	737.31
547.36	740.36
547.72	743.26
548.07	745.96
548.43	748.57
548.79	751.03
549.14	753.65
549.50	756.19
549.86	758.37
550.21	760.85
550.57	763.48
550.92	765.78
551.28	768.14
551.64	770.25
551.99	772.41
552.35	774.44
552.70	776.37
553.06	778.36
553.41	780.18
553.77	782.29
554.13	784.17
554.48	786.29
554.84	788.30
555.19	790.14
555.55	791.92
555.90	793.59
556.26	795.20
556.61	796.82
556.97	798.24
557.32	799.76
557.68	801.00
558.03	802.35
558.39	803.58
558.74	805.00
559.10	806.45
559.45	807.72
559.81	809.27
560.16	810.47
560.52	811.75
560.87	813.01
561.23	813.78
561.58	815.24
561.94	816.05
562.29	816.65
562.64	817.57
563.00	818.47
563.35	819.62
563.71	820.74
564.06	821.69
564.42	822.81
564.77	823.90
565.12	825.08
565.48	826.09
565.83	826.92
566.19	827.84
566.54	828.26
566.89	828.79
567.25	829.25
567.60	830.05
567.96	830.78
568.31	831.24
568.66	831.86
569.02	831.92
569.37	831.95
569.72	832.12
570.08	832.20
570.43	832.01
570.78	831.92
571.14	831.38
571.49	831.00
571.84	830.90
572.20	830.31
572.55	829.81
572.90	829.07
573.26	828.36
573.61	827.49
573.96	826.87
574.31	826.03
574.67	824.99
575.02	823.64
575.37	822.48
575.72	821.30
576.08	820.25
576.43	818.87
576.78	817.90
577.13	816.92
577.49	815.92
577.84	814.96
578.19	813.98
578.54	813.39
578.90	812.67
579.25	811.41
579.60	810.50
579.95	809.12
580.30	808.04
580.66	807.46
581.01	806.33
581.36	804.93
581.71	803.73
582.06	802.79
582.42	801.88
582.77	800.65
583.12	799.51
583.47	798.38
583.82	797.44
584.17	796.37
584.53	795.54
584.88	794.23
585.23	793.28
585.58	792.10
585.93	790.74
586.28	789.50
586.63	788.27
586.98	786.99
587.34	786.22
587.69	784.97
588.04	783.29
588.39	782.18
588.74	781.09
589.09	779.92
589.44	778.19
589.79	777.05
590.14	775.85
590.49	774.49
590.84	773.00
591.19	772.05
591.54	770.59
591.89	768.80
592.25	767.54
592.60	765.74
592.95	763.94
593.30	762.20
593.65	760.46
594.00	758.76
594.35	758.10
594.70	756.32
595.05	754.79
595.40	753.36
595.75	751.57
596.10	750.18
596.45	748.75
596.80	747.64
597.15	746.12
597.50	744.45
597.85	743.13
598.19	741.61
598.54	739.91
598.89	738.60
599.24	737.37
599.59	735.91
599.94	734.78
600.29	733.36
600.64	731.82
600.99	730.20
601.34	728.82
601.69	726.48
602.04	724.92
602.39	723.23
602.74	721.77
603.08	720.44
603.43	719.42
603.78	717.86
604.13	716.27
604.48	714.66
604.83	713.46
605.18	712.16
605.53	710.79
605.87	709.19
606.22	707.79
606.57	706.19
606.92	704.52
607.27	702.71
607.62	701.05
607.96	699.81
608.31	698.55
608.66	696.87
609.01	695.21
609.36	693.43
609.70	691.74
610.05	689.84
610.40	688.25
610.75	685.97
611.10	684.37
611.44	682.25
611.79	680.33
612.14	678.29
612.49	675.87
612.83	673.94
613.18	671.71
613.53	669.46
613.88	667.29
614.22	665.16
614.57	662.99
614.92	660.82
615.27	658.56
615.61	656.30
615.96	654.37
616.31	652.25
616.65	650.57
617.00	648.50
617.35	646.49
617.70	644.20
618.04	641.80
618.39	639.25
618.74	637.16
619.08	634.89
619.43	632.41
619.78	630.29
620.12	628.00
620.47	625.88
620.82	623.55
621.16	620.93
621.51	618.66
621.85	616.49
622.20	614.33
622.55	611.98
622.89	609.67
623.24	607.18
623.59	604.77
623.93	602.50
624.28	600.49
624.62	598.56
624.97	596.34
625.32	594.33
625.66	592.38
626.01	590.20
626.35	588.11
626.70	586.00
627.04	584.06
627.39	581.95
627.73	579.87
628.08	577.81
628.43	575.71
628.77	573.56
629.12	571.31
629.46	569.46
629.81	567.39
630.15	565.20
630.50	563.11
630.84	561.00
631.19	558.64
631.53	556.34
631.88	553.74
632.22	551.38
632.57	549.45
632.91	547.16
633.26	544.90
633.60	542.75
633.95	540.84
634.29	538.53
634.64	536.42
634.98	534.27
635.32	532.33
635.67	530.60
636.01	528.67
636.36	526.71
636.70	524.63
637.05	522.73
637.39	520.76
637.73	518.94
638.08	517.34
638.42	515.49
638.77	513.63
639.11	511.70
639.45	509.78
639.80	507.48
640.14	505.58
640.49	503.67
640.83	501.56
641.17	499.61
641.52	497.67
641.86	495.67
642.20	493.83
642.55	491.57
642.89	489.36
643.23	487.32
643.58	485.48
643.92	483.35
644.26	481.32
644.61	479.40
644.95	477.29
645.29	475.01
645.64	472.94
645.98	470.80
646.32	468.88
646.66	466.95
647.01	465.13
647.35	463.17
647.69	461.20
648.04	459.42
648.38	457.31
648.72	455.47
649.06	453.44
649.41	451.33
649.75	449.56
650.09	447.75
650.43	445.90
650.78	443.73
651.12	441.66
651.46	439.67
651.80	437.73
652.14	435.87
652.49	434.15
652.83	432.22
653.17	430.28
653.51	428.32
653.85	426.53
654.20	424.65
654.54	422.65
654.88	420.79
655.22	418.98
655.56	417.15
655.90	415.20
656.25	413.42
656.59	411.61
656.93	409.77
657.27	408.04
657.61	406.07
657.95	404.41
658.29	402.76
658.64	401.12
658.98	399.34
659.32	397.51
659.66	395.64
660.00	393.85
660.34	392.15
660.68	390.38
661.02	388.59
661.36	386.92
661.70	385.35
662.05	383.84
662.39	382.33
662.73	380.87
663.07	379.55
663.41	378.00
663.75	376.51
664.09	374.93
664.43	373.28
664.77	371.87
665.11	370.31
665.45	368.84
665.79	367.42
666.13	365.96
666.47	364.47
666.81	363.11
667.15	361.74
667.49	360.56
667.83	359.41
668.17	358.01
668.51	356.66
668.85	355.46
669.19	354.29
669.53	352.79
669.87	351.38
670.21	349.93
670.55	348.62
670.89	347.50
671.23	346.42
671.57	345.20
671.91	344.02
672.25	342.73
672.58	341.62
672.92	340.36
673.26	339.27
673.60	338.20
673.94	337.01
674.28	335.89
674.62	334.75
674.96	333.55
675.30	332.42
675.64	331.33
675.97	330.16
676.31	328.95
676.65	327.96
676.99	327.08
677.33	325.93
677.67	324.93
678.01	323.73
678.34	322.56
678.68	321.56
679.02	320.42
679.36	319.46
679.70	318.35
680.04	317.22
680.37	316.10
680.71	315.06
681.05	314.16
681.39	313.16
681.73	312.15
682.06	311.34
682.40	310.49
682.74	309.54
683.08	308.64
683.42	307.62
683.75	306.67
684.09	305.62
684.43	304.72
684.77	303.70
685.10	302.85
685.44	301.92
685.78	300.93
686.12	300.12
686.45	299.26
686.79	298.32
687.13	297.53
687.46	296.75
687.80	295.97
688.14	295.02
688.48	294.17
688.81	293.29
689.15	292.37
689.49	291.51
689.82	290.68
690.16	289.80
690.50	288.91
690.83	287.99
691.17	287.10
691.51	286.26
691.84	285.54
692.18	284.69
692.52	283.95
692.85	283.35
693.19	282.73
693.52	281.93
693.86	281.14
694.20	280.44
694.53	279.69
694.87	278.89
695.21	278.10
695.54	277.33
695.88	276.47
696.21	275.62
696.55	274.89
696.88	274.19
697.22	273.39
697.56	272.87
697.89	272.22
698.23	271.55
698.56	270.93
698.90	270.30
699.23	269.65
699.57	268.96
699.90	268.22
700.24	267.45
700.58	266.88
700.91	266.32
701.25	265.94
701.58	265.48
701.92	264.90
702.25	264.31
702.59	263.75
702.92	263.20
703.26	262.64
703.59	262.07
703.93	261.77
704.26	261.35
704.60	260.75
704.93	260.25
705.26	259.73
705.60	259.24
705.93	258.58
706.27	258.17
706.60	257.77
706.94	257.43
707.27	256.83
707.61	256.31
707.94	255.82
708.27	255.08
708.61	254.44
708.94	253.90
709.28	253.54
709.61	252.99
709.94	252.65
710.28	252.26
710.61	251.83
710.95	251.10
711.28	250.88
711.61	250.47
711.95	250.09
712.28	249.65
712.61	249.22
712.95	249.07
713.28	248.77
713.61	248.29
713.95	247.81
714.28	247.50
714.61	247.09
714.95	246.78
715.28	246.36
715.61	246.02
715.95	245.78
716.28	245.31
716.61	245.07
716.95	244.62
717.28	244.27
717.61	243.90
717.94	243.55
718.28	242.87
718.61	242.54
718.94	242.14
719.27	241.85
719.61	241.61
719.94	241.15
720.27	240.68
720.60	240.32
720.94	240.02
721.27	239.70
721.60	239.44
721.93	239.08
722.27	238.94
722.60	238.67
722.93	238.34
723.26	238.07
723.59	237.77
723.93	237.57
724.26	237.31
724.59	237.05
724.92	236.86
725.25	236.70
725.59	236.37
725.92	236.23
726.25	235.97
726.58	235.73
726.91	235.49
727.24	235.27
727.57	235.03
727.91	234.72
728.24	234.50
728.57	234.24
728.90	234.05
729.23	233.63
729.56	233.58
729.89	233.31
730.22	233.15
730.55	232.89
730.89	232.67
731.22	232.41
731.55	232.22
731.88	232.11
732.21	231.87
732.54	231.61
732.87	231.33
733.20	231.03
733.53	230.79
733.86	230.58
734.19	230.37
734.52	230.27
734.85	230.34
735.18	230.12
735.51	230.05
735.84	229.94
736.17	229.88
736.50	229.45
736.83	229.68
737.16	229.49
737.49	229.27
737.82	229.03
738.15	228.97
738.48	228.76
738.81	228.43
739.14	228.21
739.47	228.12
739.80	227.92
740.13	227.87
740.46	227.63
740.79	227.46
741.12	227.27
741.45	227.05
741.78	226.70
742.11	226.60
742.44	226.35
742.77	226.25
743.10	226.03
743.43	225.91
743.75	225.36
744.08	225.64
744.41	225.57
744.74	225.45
745.07	225.24
745.40	225.22
745.73	225.25
746.06	225.14
746.39	225.02
746.71	224.85
747.04	224.61
747.37	224.47
747.70	224.39
748.03	224.24
748.36	224.11
748.68	223.94
749.01	223.80
749.34	223.66
749.67	223.49
750.00	223.45
750.33	223.59
750.65	223.50
750.98	222.95
751.31	222.79
751.64	222.66
751.97	222.69
752.29	222.52
752.62	222.27
752.95	222.17
753.28	222.04
753.60	221.99
753.93	222.01
754.26	221.86
754.59	221.60
754.91	221.40
755.24	221.31
755.57	221.18
755.90	221.01
756.22	220.90
756.55	220.66
756.88	220.46
757.20	220.14
757.53	219.93
757.86	219.82
758.19	219.75
758.51	219.72
758.84	219.44
759.17	219.25
759.49	219.16
759.82	219.21
760.15	219.12
760.47	218.99
760.80	218.81
761.13	218.91
761.45	218.79
761.78	218.79
762.11	218.73
762.43	218.61
762.76	218.49
763.08	218.51
763.41	218.47
763.74	218.40
764.06	218.32
764.39	218.30
764.71	218.20
765.04	218.07
765.37	217.99
765.69	217.91
766.02	217.86
766.34	217.70
766.67	217.51
767.00	217.50
767.32	217.56
767.65	217.68
767.97	217.54
768.30	217.65
768.62	217.64
768.95	217.48
769.27	217.45
769.60	217.52
769.92	217.38
770.25	217.29
770.57	217.18
770.90	217.15
771.22	217.01
771.55	216.98
771.87	216.96
772.20	216.86
772.52	217.05
772.85	217.40
773.17	217.40
773.50	217.30
773.82	217.22
774.15	217.07
774.47	216.82
774.80	216.73
775.12	216.58
775.45	216.47
775.77	216.41
776.09	216.38
776.42	216.19
776.74	216.24
777.07	216.21
777.39	216.16
777.72	216.08
778.04	216.08
778.36	215.94
778.69	215.93
779.01	215.83
779.33	215.63
779.66	215.22
779.98	215.18
780.31	215.13
780.63	215.20
780.95	215.19
781.28	215.17
781.60	215.07
781.92	215.01
782.25	215.01
782.57	215.00
782.89	214.95
783.22	214.95
783.54	214.82
783.86	214.79
784.19	214.78
784.51	214.79
784.83	214.81
785.16	214.85
785.48	214.78
785.80	214.77
786.12	214.72
786.45	214.73
786.77	214.82
787.09	214.78
787.42	214.61
787.74	214.54
788.06	214.52
788.38	214.46
788.71	214.41
789.03	214.42
789.35	214.45
789.67	214.41
789.99	214.41
790.32	214.35
790.64	214.37
790.96	214.56
791.28	214.46
791.61	214.45
791.93	214.43
792.25	214.45
792.57	214.70
792.89	214.59
793.21	214.56
793.54	214.39
793.86	214.35
794.18	214.41
794.50	214.36
794.82	214.34
795.14	214.40
795.47	214.50
795.79	214.44
796.11	214.31
796.43	214.22
796.75	214.27
797.07	214.26
797.39	214.25
797.71	214.01
798.04	214.01
798.36	213.93
798.68	213.89
799.00	213.86
799.32	213.69
799.64	213.72
799.96	213.64
800.28	213.66
800.60	213.67
800.92	213.67
801.24	213.65
801.56	213.58
801.89	213.47
802.21	213.38
802.53	213.30
802.85	213.47
803.17	213.60
803.49	213.47
803.81	213.43
804.13	213.34
804.45	213.29
804.77	213.32
805.09	213.26
805.41	213.15
805.73	213.11
806.05	212.99
806.37	212.95
806.69	212.96
807.01	212.98
807.33	213.00
807.65	212.79
807.97	212.94
808.28	212.97
808.60	213.03
808.92	213.02
809.24	213.19
809.56	212.99
809.88	212.87
810.20	212.85
810.52	212.90
810.84	212.87
811.16	212.90
811.48	212.86
811.80	213.03
812.12	213.07
812.43	213.13
812.75	213.11
813.07	213.04
813.39	213.01
813.71	212.96
814.03	212.91
814.35	213.01
814.67	212.80
814.98	212.80
815.30	212.80
815.62	212.73
815.94	212.47
816.26	212.52
816.58	212.47
816.89	212.55
817.21	212.45
817.53	212.47
817.85	212.42
818.17	212.37
818.48	212.21
818.80	212.27
819.12	212.19
819.44	212.13
819.76	212.18
820.07	212.14
820.39	212.08
820.71	212.14
821.03	212.07
821.34	212.04
821.66	212.00
821.98	211.99
822.30	211.94
822.61	212.13
822.93	212.06
823.25	212.11
823.57	212.04
823.88	212.10
824.20	212.12
824.52	212.19
824.83	212.14
825.15	212.10
825.47	212.10
825.79	212.11
826.10	212.18
826.42	212.10
826.74	212.17
827.05	212.19
827.37	212.15
827.69	212.16
828.00	212.19
828.32	212.18
828.64	212.13
828.95	212.32
829.27	212.29
829.58	212.28
829.90	212.28
830.22	212.29
830.53	212.24
830.85	212.13
831.17	212.09
831.48	212.11
831.80	212.10
832.11	212.03
832.43	212.00
832.75	211.91
833.06	212.16
833.38	212.12
833.69	212.08
834.01	212.07
834.32	212.04
834.64	212.05
834.96	212.13
835.27	212.13
835.59	212.05
835.90	212.00
836.22	212.02
836.53	212.00
836.85	211.99
837.16	212.37
837.48	212.43
837.79	212.47
838.11	212.53
838.42	212.59
838.74	212.60
839.05	212.54
839.37	212.55
839.68	212.34
840.00	212.31
840.31	212.32
840.63	212.30
840.94	212.31
841.26	212.25
841.57	212.14
841.88	212.20
842.20	212.10
842.51	212.06
842.83	212.09
843.14	212.33
843.46	212.27
843.77	211.95
844.08	211.93
844.40	211.88
844.71	211.82
845.03	211.71
845.34	211.73
845.65	211.75
845.97	211.76
846.28	211.78
846.60	211.80
846.91	211.81
847.22	211.86
847.54	211.92
847.85	211.91
848.16	211.89
848.48	211.87
848.79	212.02
849.10	212.03
849.42	211.98
849.73	211.72
850.04	211.69
850.36	211.63
850.67	211.72
850.98	211.74
851.30	211.79
851.61	211.85
851.92	211.84
852.23	211.95
852.55	211.99
852.86	211.92
853.17	211.92
853.49	212.00
853.80	211.97
854.11	211.97
854.42	211.98
854.74	212.00
855.05	211.93
855.36	211.78
855.67	211.77
855.99	211.82
856.30	212.26
856.61	212.31
856.92	212.34
857.23	212.24
857.55	212.17
857.86	212.08
858.17	212.09
858.48	211.97
858.79	211.81
859.11	211.79
859.42	211.80
859.73	211.70
860.04	211.63
860.35	211.55
860.66	211.45
860.98	211.45
861.29	211.48
861.60	211.46
861.91	211.53
862.22	211.48
862.53	211.39
862.84	210.91
863.16	211.02
863.47	210.97
863.78	210.91
864.09	210.85
864.40	210.84
864.71	210.84
865.02	210.88
865.33	210.89
865.64	210.81
865.95	210.86
866.27	211.13
866.58	211.11
866.89	211.19
867.20	211.12
867.51	211.08
867.82	210.99
868.13	211.08
868.44	211.02
868.75	211.04
869.06	211.06
869.37	211.10
869.68	210.95
869.99	210.99
870.30	211.04
870.61	211.19
870.92	211.22
871.23	211.20
871.54	211.19
871.85	211.30
872.16	211.36
872.47	211.32
872.78	211.10
873.09	211.14
873.40	211.09
873.71	211.16
874.02	211.18
874.33	211.17
874.64	211.12
874.95	211.15
875.26	211.12
875.56	211.13
875.87	211.19
876.18	211.16
876.49	211.49
876.80	211.46
877.11	211.37
877.42	211.36
877.73	211.35
878.04	211.35
878.35	211.37
878.66	211.38
878.96	211.32
879.27	211.26
879.58	211.28
879.89	211.28
880.20	211.29
880.51	211.39
880.82	211.42
881.12	211.44
881.43	211.37
881.74	211.34
882.05	211.26
882.36	211.18
882.67	211.29
882.97	210.87
883.28	210.77
883.59	210.77
883.90	210.82
884.21	210.88
884.51	210.86
884.82	210.80
885.13	210.81
885.44	210.85
885.74	210.87
886.05	210.79
886.36	210.77
886.67	210.69
886.98	210.80
887.28	210.83
887.59	210.81
887.90	210.85
888.20	210.84
888.51	210.95
888.82	210.93
889.13	210.90
889.43	211.26
889.74	211.30
890.05	211.32
890.35	211.26
890.66	211.18
890.97	211.13
891.28	211.08
891.58	211.08
891.89	211.14
892.20	211.14
892.50	211.11
892.81	211.14
893.12	211.22
893.42	211.07
893.73	211.14
894.04	211.17
894.34	211.22
894.65	211.22
894.95	211.18
895.26	211.19
895.57	211.35
895.87	211.03
896.18	211.16
896.48	211.13
896.79	211.18
897.10	211.30
897.40	211.35
897.71	211.44
898.01	211.41
898.32	211.49
898.63	211.52
898.93	211.58
899.24	211.58
899.54	211.49
899.85	211.40
900.15	211.32
900.46	211.29
900.76	211.30
901.07	211.33
901.38	211.31
901.68	211.35
901.99	211.14
902.29	211.13
902.60	211.06
902.90	211.01
903.21	210.98
903.51	210.90
903.82	210.94
904.12	210.94
904.43	211.00
904.73	210.86
905.03	210.86
905.34	211.22
905.64	211.21
905.95	211.24
906.25	211.34
906.56	211.29
906.86	211.30
907.17	211.23
907.47	211.21
907.77	211.21
908.08	211.19
908.38	211.25
908.69	211.28
908.99	211.27
909.30	211.29
909.60	211.26
909.90	211.35
910.21	211.30
910.51	211.26
910.81	211.22
911.12	211.24
911.42	211.21
911.73	210.82
912.03	210.83
912.33	210.88
912.64	210.85
912.94	210.84
913.24	210.81
913.55	210.83
913.85	210.82
914.15	210.91
914.46	210.96
914.76	210.95
915.06	210.95
915.37	210.96
915.67	211.04
915.97	211.08
916.27	210.94
916.58	210.96
916.88	210.96
917.18	210.93
917.49	211.22
917.79	211.27
918.09	211.27
918.39	211.31
918.70	211.34
919.00	211.28
919.30	211.44
919.60	211.38
919.91	211.33
920.21	211.35
920.51	211.29
920.81	211.20
921.12	211.20
921.42	211.20
921.72	211.19
922.02	211.16
922.32	211.24
922.63	211.22
922.93	211.42
923.23	211.34
923.53	211.28
923.83	210.95
924.13	210.94
924.44	210.95
924.74	211.09
925.04	211.13
925.34	211.22
925.64	211.16
925.94	211.15
926.24	211.41
926.55	211.36
926.85	211.40
927.15	211.42
927.45	211.37
927.75	211.36
928.05	211.36
928.35	211.38
928.65	211.41
928.95	211.50
929.26	211.31
929.56	211.37
929.86	211.41
930.16	211.48
930.46	211.48
930.76	211.55
931.06	211.36
931.36	211.25
931.66	211.25
931.96	211.20
932.26	211.28
932.56	211.06
932.86	211.08
933.16	211.02
933.46	211.00
933.76	211.06
934.06	211.11
934.36	211.25
934.66	211.16
934.96	211.10
935.26	211.12
935.56	211.17
935.86	211.09
936.16	211.09
936.46	211.09
936.76	211.04
937.06	210.92
937.36	210.96
937.66	210.98
937.96	210.88
938.26	210.81
938.56	210.79
938.86	210.88
939.16	210.98
939.46	211.05
939.76	211.06
940.06	210.98
940.35	210.94
940.65	210.74
940.95	210.78
941.25	210.66
941.55	210.60
941.85	210.56
942.15	210.67
942.45	210.80
942.75	210.71
943.04	210.70
943.34	210.81
943.64	210.71
943.94	210.65
944.24	210.64
944.54	210.64
944.84	210.65
945.13	210.53
945.43	210.40
945.73	210.45
946.03	210.51
946.33	210.45
946.62	210.41
946.92	210.48
947.22	210.54
947.52	210.52
947.82	210.55
948.11	210.49
948.41	210.47
948.71	210.33
949.01	210.40
949.31	210.40
949.60	210.31
949.90	210.34
950.20	210.38
950.50	210.47
950.79	210.47
951.09	210.53
951.39	210.53
951.69	210.53
951.98	210.48
952.28	210.45
952.58	210.51
952.87	210.47
953.17	210.45
953.47	210.45
953.76	210.51
954.06	210.50
954.36	210.46
954.66	210.41
954.95	210.52
955.25	210.51
955.55	210.53
955.84	210.49
956.14	210.61
956.44	210.61
956.73	210.51
957.03	210.53
957.32	210.46
957.62	210.49
957.92	210.52
958.21	210.53
958.51	210.93
958.81	210.99
959.10	211.08
959.40	211.12
959.69	211.01
959.99	211.05
960.29	211.08
960.58	211.12
960.88	211.27
961.17	211.18
961.47	211.17
961.76	211.11
962.06	211.20
962.36	211.13
962.65	211.19
962.95	211.25
963.24	211.23
963.54	211.23
963.83	211.19
964.13	211.20
964.42	211.10
964.72	210.81
965.01	210.82
965.31	210.81
965.60	210.74
965.90	211.05
966.19	210.99
966.49	210.91
966.78	210.92
967.08	210.83
967.37	210.83
967.67	210.77
967.96	210.88
968.26	210.86
968.55	210.91
968.85	210.90
969.14	210.89
969.43	210.92
969.73	210.93
970.02	210.94
970.32	210.91
970.61	210.89
970.91	210.78
971.20	210.64
971.49	210.64
971.79	210.73
972.08	210.40
972.38	210.41
972.67	210.38
972.96	210.38
973.26	210.35
973.55	210.45
973.85	210.48
974.14	210.41
974.43	210.40
974.73	210.25
975.02	210.19
975.31	210.20
975.61	210.19
975.90	210.20
976.19	210.16
976.49	210.15
976.78	210.19
977.07	210.15
977.37	210.18
977.66	210.15
977.95	210.04
978.24	210.07
978.54	210.21
978.83	210.28
979.12	210.30
979.42	210.24
979.71	210.20
980.00	210.18
980.29	210.23
980.59	210.19
980.88	210.38
981.17	210.37
981.46	210.35
981.76	210.36
982.05	210.35
982.34	210.40
982.63	210.47
982.93	210.49
983.22	210.55
983.51	210.63
983.80	210.69
984.09	210.82
984.39	210.82
984.68	210.75
984.97	210.76
985.26	210.74
985.55	210.87
985.85	210.79
986.14	210.85
986.43	210.92
986.72	210.98
987.01	210.82
987.30	210.81
987.59	210.77
987.89	210.81
988.18	210.72
988.47	210.76
988.76	210.70
989.05	210.72
989.34	210.72
989.63	210.83
989.92	210.81
990.22	210.77
990.51	210.82
990.80	210.83
991.09	210.89
991.38	210.98
991.67	210.90
991.96	210.93
992.25	210.91
992.54	210.82
992.83	210.81
993.12	210.83
993.41	210.98
993.70	211.13
993.99	211.21
994.28	211.31
994.58	211.36
994.87	211.40
995.16	211.42
995.45	211.38
995.74	211.19
996.03	211.20
996.32	211.21
996.61	211.25
996.90	211.22
997.19	211.14
997.48	211.09
997.77	211.11
998.06	211.14
998.34	211.17
998.63	211.17
998.92	211.21
999.21	211.26
999.50	211.22
999.79	211.11
1000.08	211.05
1000.37	211.02
1000.66	210.96
1000.95	210.98
1001.24	210.95
1001.53	211.01
1001.82	211.07
1002.11	211.04
1002.40	211.06
1002.68	211.14
1002.97	211.36
1003.26	211.37
1003.55	211.32
1003.84	211.27
1004.13	211.35
1004.42	211.32
1004.71	211.33
1004.99	211.27
1005.28	211.35
1005.57	211.34
1005.86	211.27
1006.15	211.27
1006.44	211.26
1006.72	211.29
1007.01	211.20
1007.30	211.22
1007.59	211.12
1007.88	211.12
1008.17	211.12
1008.45	211.10
1008.74	211.00
1009.03	210.80
1009.32	210.74
1009.60	210.72
1009.89	210.75
1010.18	210.62
1010.47	210.61
1010.76	210.56
1011.04	210.54
1011.33	210.52
1011.62	210.48
1011.91	210.59
1012.19	210.53
1012.48	210.57
1012.77	210.58
1013.05	210.76
1013.34	210.72
1013.63	210.80
1013.92	210.87
1014.20	210.86
1014.49	210.78
1014.78	210.79
1015.06	210.73
1015.35	210.73
1015.64	210.80
1015.92	210.86
1016.21	210.87
1016.50	210.84
1016.78	210.90
1017.07	210.95
1017.36	210.87
1017.64	210.90
1017.93	210.83
1018.22	210.88
1018.50	210.83
1018.79	210.76
1019.08	210.62
1019.36	210.66
1019.65	210.67
1019.93	210.66
1020.22	210.76
1020.51	211.03
1020.79	210.99
1021.08	210.75
1021.36	210.30
1021.65	210.05
1021.94	210.70
1022.22	210.75
1022.51	211.60
1022.79	211.75
1023.08	212.00
1023.36	215.95
1023.65	210.00
>>>>>End Processed Spectral Data<<<<<
