SpectraSuite Data File
++++++++++++++++++++++++++++++++++++
Date: Mon Feb 25 17:07:42 EST 2013
User: group
Dark Spectrum Present: No
Reference Spectrum Present: No
Number of Sampled Component Spectra: 1
Spectrometers: USB2E7196
Integration Time (usec): 104000 (USB2E7196)
Spectra Averaged: 20 (USB2E7196)
Boxcar Smoothing: 10 (USB2E7196)
Correct for Electrical Dark: No (USB2E7196)
Strobe/Lamp Enabled: No (USB2E7196)
Correct for Detector Non-linearity: No (USB2E7196)
Correct for Stray Light: No (USB2E7196)
Number of Pixels in Processed Spectrum: 2048
>>>>>Begin Processed Spectral Data<<<<<
339.09	0.00
339.48	199.10
339.86	199.20
340.24	201.65
340.63	203.65
341.01	209.55
341.39	205.90
341.78	207.95
342.16	208.45
342.54	209.00
342.93	198.46
343.31	208.46
343.69	208.99
344.07	209.53
344.46	210.00
344.84	210.27
345.22	210.31
345.60	210.55
345.99	210.69
346.37	210.80
346.75	210.87
347.13	210.90
347.52	210.94
347.90	211.03
348.28	211.02
348.66	211.17
349.05	211.01
349.43	211.04
349.81	211.02
350.19	210.95
350.57	211.06
350.96	211.18
351.34	211.25
351.72	211.35
352.10	211.36
352.48	211.39
352.87	211.50
353.25	211.60
353.63	211.62
354.01	211.72
354.39	211.81
354.77	211.91
355.15	212.10
355.54	212.05
355.92	211.99
356.30	212.07
356.68	212.31
357.06	212.41
357.44	212.41
357.82	212.50
358.20	212.62
358.58	212.64
358.97	212.65
359.35	212.75
359.73	212.81
360.11	212.93
360.49	213.02
360.87	213.02
361.25	213.09
361.63	213.24
362.01	213.23
362.39	213.26
362.77	213.32
363.15	213.26
363.53	213.33
363.91	213.34
364.29	213.34
364.67	213.01
365.05	212.97
365.43	212.94
365.81	212.93
366.19	213.08
366.57	213.25
366.95	213.22
367.33	213.10
367.71	213.07
368.09	213.12
368.47	213.05
368.85	213.10
369.23	213.18
369.61	213.06
369.99	213.20
370.37	213.19
370.75	213.30
371.13	213.23
371.51	213.19
371.89	213.20
372.27	213.20
372.65	213.23
373.03	213.27
373.41	213.23
373.78	213.19
374.16	213.01
374.54	212.90
374.92	212.77
375.30	212.80
375.68	212.75
376.06	212.65
376.44	212.57
376.82	212.48
377.19	212.31
377.57	212.25
377.95	212.00
378.33	211.85
378.71	211.57
379.09	211.53
379.47	211.46
379.84	211.41
380.22	211.32
380.60	211.19
380.98	211.06
381.36	211.03
381.73	210.91
382.11	210.91
382.49	210.80
382.87	210.77
383.25	210.72
383.62	211.01
384.00	210.94
384.38	210.93
384.76	210.98
385.13	211.05
385.51	210.98
385.89	210.92
386.27	210.90
386.64	210.90
387.02	210.85
387.40	210.81
387.78	210.76
388.15	210.80
388.53	210.76
388.91	210.79
389.29	210.71
389.66	210.82
390.04	210.75
390.42	210.80
390.79	210.79
391.17	210.75
391.55	210.41
391.92	210.40
392.30	210.40
392.68	210.27
393.05	210.28
393.43	210.36
393.81	210.35
394.18	210.36
394.56	210.37
394.94	210.42
395.31	210.46
395.69	210.67
396.06	210.68
396.44	210.71
396.82	210.69
397.19	210.87
397.57	210.81
397.95	210.94
398.32	210.89
398.70	210.95
399.07	211.03
399.45	210.98
399.82	210.98
400.20	210.95
400.58	211.02
400.95	210.91
401.33	210.97
401.70	211.29
402.08	211.34
402.45	211.42
402.83	211.50
403.20	211.53
403.58	211.44
403.95	211.59
404.33	211.75
404.71	211.88
405.08	212.15
405.46	212.21
405.83	212.30
406.21	212.32
406.58	212.44
406.96	212.49
407.33	212.66
407.70	212.81
408.08	213.20
408.45	213.38
408.83	213.57
409.20	213.68
409.58	213.69
409.95	213.91
410.33	214.15
410.70	214.38
411.08	214.72
411.45	215.01
411.82	215.13
412.20	215.44
412.57	215.95
412.95	215.97
413.32	216.39
413.69	216.80
414.07	217.35
414.44	217.77
414.82	218.23
415.19	218.83
415.56	219.36
415.94	219.77
416.31	220.41
416.68	221.07
417.06	221.87
417.43	222.67
417.81	223.53
418.18	224.35
418.55	225.24
418.93	226.18
419.30	227.10
419.67	228.26
420.04	229.38
420.42	230.41
420.79	232.03
421.16	233.35
421.54	234.80
421.91	236.14
422.28	237.64
422.66	239.28
423.03	240.97
423.40	242.62
423.77	244.34
424.15	246.02
424.52	247.82
424.89	249.86
425.26	251.69
425.64	253.42
426.01	255.42
426.38	257.52
426.75	259.67
427.13	261.86
427.50	264.14
427.87	266.51
428.24	268.86
428.61	270.96
428.99	273.65
429.36	276.31
429.73	279.05
430.10	281.86
430.47	284.68
430.85	287.40
431.22	290.53
431.59	294.03
431.96	297.28
432.33	300.73
432.70	304.06
433.08	308.06
433.45	311.89
433.82	315.59
434.19	319.69
434.56	323.79
434.93	327.74
435.30	331.52
435.68	335.78
436.05	340.12
436.42	344.29
436.79	348.20
437.16	352.40
437.53	356.86
437.90	361.22
438.27	365.60
438.64	370.04
439.01	374.17
439.38	377.71
439.75	381.27
440.13	385.35
440.50	389.24
440.87	392.33
441.24	395.65
441.61	399.35
441.98	402.13
442.35	405.22
442.72	408.55
443.09	411.87
443.46	413.80
443.83	415.19
444.20	416.47
444.57	418.03
444.94	418.93
445.31	419.92
445.68	421.10
446.05	421.43
446.42	421.22
446.79	420.99
447.16	420.51
447.53	420.40
447.90	418.98
448.27	417.48
448.64	415.40
449.01	414.01
449.37	411.31
449.74	408.60
450.11	405.65
450.48	402.01
450.85	398.33
451.22	395.35
451.59	392.46
451.96	389.62
452.33	385.89
452.70	382.43
453.07	378.15
453.43	373.65
453.80	369.72
454.17	365.86
454.54	362.11
454.91	358.16
455.28	354.18
455.65	350.67
456.02	347.58
456.38	344.61
456.75	340.73
457.12	337.59
457.49	334.59
457.86	331.29
458.23	328.73
458.59	325.86
458.96	322.87
459.33	320.20
459.70	317.55
460.07	315.47
460.43	313.10
460.80	311.05
461.17	309.21
461.54	307.15
461.91	305.21
462.27	303.21
462.64	301.57
463.01	299.80
463.38	297.99
463.74	295.63
464.11	293.95
464.48	292.50
464.85	290.85
465.21	289.71
465.58	288.52
465.95	286.97
466.32	285.74
466.68	284.47
467.05	283.21
467.42	282.00
467.78	280.67
468.15	279.46
468.52	278.59
468.88	277.27
469.25	276.23
469.62	275.40
469.98	274.47
470.35	273.57
470.72	272.75
471.08	271.88
471.45	271.28
471.82	270.71
472.18	270.00
472.55	269.48
472.92	268.58
473.28	267.87
473.65	267.29
474.02	266.70
474.38	266.34
474.75	265.98
475.11	265.60
475.48	265.25
475.85	264.96
476.21	264.50
476.58	264.23
476.94	263.94
477.31	263.68
477.67	263.47
478.04	263.29
478.41	263.08
478.77	263.17
479.14	262.87
479.50	262.63
479.87	262.50
480.23	262.37
480.60	262.40
480.96	262.34
481.33	262.40
481.69	262.39
482.06	262.33
482.42	262.35
482.79	262.42
483.15	262.49
483.52	262.59
483.88	262.64
484.25	262.85
484.61	263.05
484.98	263.20
485.34	263.48
485.71	263.84
486.07	264.09
486.44	264.16
486.80	264.55
487.17	264.97
487.53	265.60
487.90	266.15
488.26	266.74
488.62	267.41
488.99	267.95
489.35	268.68
489.72	269.35
490.08	269.98
490.44	270.70
490.81	271.48
491.17	272.34
491.54	273.27
491.90	274.14
492.26	275.03
492.63	276.04
492.99	276.98
493.36	278.00
493.72	279.17
494.08	280.27
494.45	281.50
494.81	282.72
495.17	283.83
495.54	285.12
495.90	286.40
496.26	287.68
496.63	289.10
496.99	290.47
497.35	291.95
497.72	293.46
498.08	294.95
498.44	296.50
498.80	298.12
499.17	299.73
499.53	301.36
499.89	303.17
500.26	304.91
500.62	306.68
500.98	308.47
501.34	310.34
501.71	312.24
502.07	314.13
502.43	316.09
502.79	317.99
503.16	319.89
503.52	321.80
503.88	323.77
504.24	325.81
504.60	327.87
504.97	330.06
505.33	332.10
505.69	334.45
506.05	336.69
506.41	339.01
506.78	341.20
507.14	343.44
507.50	345.68
507.86	348.03
508.22	350.51
508.59	352.84
508.95	355.22
509.31	357.79
509.67	360.38
510.03	362.84
510.39	365.45
510.75	368.10
511.12	370.84
511.48	373.49
511.84	376.12
512.20	378.75
512.56	381.45
512.92	384.28
513.28	386.94
513.64	389.75
514.00	392.39
514.37	395.28
514.73	398.23
515.09	401.23
515.45	404.00
515.81	406.78
516.17	409.71
516.53	412.69
516.89	415.29
517.25	418.09
517.61	421.12
517.97	424.03
518.33	426.91
518.69	430.00
519.05	433.09
519.41	436.38
519.77	439.79
520.13	442.86
520.49	446.06
520.85	449.36
521.21	452.63
521.57	455.98
521.93	459.19
522.29	462.55
522.65	465.76
523.01	469.20
523.37	472.55
523.73	476.04
524.09	479.40
524.45	483.04
524.81	486.67
525.17	490.27
525.53	493.82
525.89	497.59
526.25	501.14
526.61	504.60
526.97	508.06
527.33	511.57
527.68	515.70
528.04	519.43
528.40	522.99
528.76	526.65
529.12	530.34
529.48	534.07
529.84	537.91
530.20	541.83
530.56	545.84
530.91	549.92
531.27	553.81
531.63	557.82
531.99	561.85
532.35	565.77
532.71	569.67
533.07	573.90
533.42	578.11
533.78	582.04
534.14	586.18
534.50	590.03
534.86	594.08
535.21	597.52
535.57	601.46
535.93	605.22
536.29	609.20
536.65	613.23
537.00	617.02
537.36	620.78
537.72	624.38
538.08	628.15
538.44	631.69
538.79	635.53
539.15	639.05
539.51	642.64
539.87	646.37
540.22	650.00
540.58	653.72
540.94	657.15
541.29	660.81
541.65	664.27
542.01	667.91
542.37	671.51
542.72	675.10
543.08	678.43
543.44	682.30
543.79	685.59
544.15	688.93
544.51	692.71
544.87	696.20
545.22	699.73
545.58	702.81
545.94	706.01
546.29	709.16
546.65	712.39
547.01	715.48
547.36	718.49
547.72	721.33
548.07	723.96
548.43	726.51
548.79	729.13
549.14	731.80
549.50	734.44
549.86	736.62
550.21	739.02
550.57	741.62
550.92	743.60
551.28	746.03
551.64	748.10
551.99	750.20
552.35	752.14
552.70	754.21
553.06	756.31
553.41	758.45
553.77	760.35
554.13	762.42
554.48	764.33
554.84	766.31
555.19	768.22
555.55	770.02
555.90	771.78
556.26	773.31
556.61	774.85
556.97	776.16
557.32	777.68
557.68	779.02
558.03	780.30
558.39	781.75
558.74	783.16
559.10	784.75
559.45	785.99
559.81	787.39
560.16	788.36
560.52	789.62
560.87	790.72
561.23	791.69
561.58	792.93
561.94	793.93
562.29	794.64
562.64	795.57
563.00	796.57
563.35	797.71
563.71	799.01
564.06	800.05
564.42	801.29
564.77	802.32
565.12	803.60
565.48	804.92
565.83	805.95
566.19	806.82
566.54	807.23
566.89	807.92
567.25	808.76
567.60	809.74
567.96	810.53
568.31	811.40
568.66	812.07
569.02	812.18
569.37	812.40
569.72	812.70
570.08	812.86
570.43	812.79
570.78	812.62
571.14	812.36
571.49	812.19
571.84	811.95
572.20	811.58
572.55	811.19
572.90	810.45
573.26	809.75
573.61	808.80
573.96	808.55
574.31	807.73
574.67	806.73
575.02	805.68
575.37	804.60
575.72	803.24
576.08	802.50
576.43	801.38
576.78	800.46
577.13	799.68
577.49	798.84
577.84	798.04
578.19	797.40
578.54	796.61
578.90	796.05
579.25	794.95
579.60	794.05
579.95	792.75
580.30	791.96
580.66	791.33
581.01	790.55
581.36	789.32
581.71	788.25
582.06	787.41
582.42	786.42
582.77	785.30
583.12	784.28
583.47	783.20
583.82	782.46
584.17	781.56
584.53	780.75
584.88	779.65
585.23	778.69
585.58	777.34
585.93	776.26
586.28	775.04
586.63	774.20
586.98	773.15
587.34	772.37
587.69	771.05
588.04	769.72
588.39	768.57
588.74	767.32
589.09	766.60
589.44	765.14
589.79	764.23
590.14	763.01
590.49	761.70
590.84	760.13
591.19	759.02
591.54	757.93
591.89	756.02
592.25	754.77
592.60	753.16
592.95	751.65
593.30	749.99
593.65	748.27
594.00	746.53
594.35	745.98
594.70	744.17
595.05	742.64
595.40	741.10
595.75	739.40
596.10	737.97
596.45	736.31
596.80	735.02
597.15	733.50
597.50	731.98
597.85	730.81
598.19	729.43
598.54	727.67
598.89	725.98
599.24	724.86
599.59	723.27
599.94	722.07
600.29	720.77
600.64	719.45
600.99	717.96
601.34	716.68
601.69	714.19
602.04	712.79
602.39	711.18
602.74	709.80
603.08	708.90
603.43	707.83
603.78	706.41
604.13	704.83
604.48	703.24
604.83	702.13
605.18	700.83
605.53	699.45
605.87	697.96
606.22	696.55
606.57	695.07
606.92	693.68
607.27	692.01
607.62	690.45
607.96	689.08
608.31	687.95
608.66	686.38
609.01	684.96
609.36	683.50
609.70	681.95
610.05	680.21
610.40	678.18
610.75	676.16
611.10	674.52
611.44	672.54
611.79	670.55
612.14	668.41
612.49	666.00
612.83	664.09
613.18	662.14
613.53	660.18
613.88	657.96
614.22	655.89
614.57	653.84
614.92	651.75
615.27	649.50
615.61	647.12
615.96	645.12
616.31	643.03
616.65	641.02
617.00	639.07
617.35	636.95
617.70	634.71
618.04	632.53
618.39	630.02
618.74	628.04
619.08	625.89
619.43	623.75
619.78	621.83
620.12	619.60
620.47	617.40
620.82	614.99
621.16	612.55
621.51	610.38
621.85	608.12
622.20	605.87
622.55	603.60
622.89	601.38
623.24	599.08
623.59	596.75
623.93	594.54
624.28	592.41
624.62	590.58
624.97	588.67
625.32	586.53
625.66	584.57
626.01	582.52
626.35	580.33
626.70	578.14
627.04	576.13
627.39	574.03
627.73	572.07
628.08	570.20
628.43	568.22
628.77	566.11
629.12	563.93
629.46	562.13
629.81	560.09
630.15	558.02
630.50	555.92
630.84	553.77
631.19	551.55
631.53	549.48
631.88	547.07
632.22	544.74
632.57	542.82
632.91	540.71
633.26	538.56
633.60	536.73
633.95	534.86
634.29	532.65
634.64	530.81
634.98	528.68
635.32	526.73
635.67	525.10
636.01	523.22
636.36	521.39
636.70	519.41
637.05	517.46
637.39	515.57
637.73	513.84
638.08	512.21
638.42	510.46
638.77	508.64
639.11	506.76
639.45	504.95
639.80	502.84
640.14	500.76
640.49	498.94
640.83	496.94
641.17	495.07
641.52	493.16
641.86	491.08
642.20	489.28
642.55	487.23
642.89	485.11
643.23	483.04
643.58	481.42
643.92	479.30
644.26	477.35
644.61	475.40
644.95	473.26
645.29	471.23
645.64	469.20
645.98	467.01
646.32	465.14
646.66	463.11
647.01	461.29
647.35	459.52
647.69	457.53
648.04	455.67
648.38	453.63
648.72	451.84
649.06	449.96
649.41	447.98
649.75	446.08
650.09	444.18
650.43	442.31
650.78	440.09
651.12	438.17
651.46	436.24
651.80	434.41
652.14	432.64
652.49	430.92
652.83	429.19
653.17	427.35
653.51	425.39
653.85	423.52
654.20	421.68
654.54	419.73
654.88	417.77
655.22	416.15
655.56	414.31
655.90	412.45
656.25	410.68
656.59	408.79
656.93	407.04
657.27	405.34
657.61	403.49
657.95	401.77
658.29	400.13
658.64	398.59
658.98	396.81
659.32	394.91
659.66	393.03
660.00	391.29
660.34	389.49
660.68	387.80
661.02	386.19
661.36	384.52
661.70	382.98
662.05	381.55
662.39	379.82
662.73	378.38
663.07	377.02
663.41	375.46
663.75	374.00
664.09	372.41
664.43	370.86
664.77	369.31
665.11	367.83
665.45	366.28
665.79	364.87
666.13	363.40
666.47	361.97
666.81	360.56
667.15	359.08
667.49	357.90
667.83	356.71
668.17	355.35
668.51	354.10
668.85	352.87
669.19	351.73
669.53	350.39
669.87	349.07
670.21	347.68
670.55	346.37
670.89	345.35
671.23	344.19
671.57	343.00
671.91	341.88
672.25	340.77
672.58	339.72
672.92	338.50
673.26	337.45
673.60	336.42
673.94	335.32
674.28	334.21
674.62	333.09
674.96	331.90
675.30	330.90
675.64	329.81
675.97	328.64
676.31	327.45
676.65	326.44
676.99	325.51
677.33	324.34
677.67	323.35
678.01	322.09
678.34	321.02
678.68	320.09
679.02	319.09
679.36	317.98
679.70	316.93
680.04	315.85
680.37	314.78
680.71	313.77
681.05	312.82
681.39	311.85
681.73	310.90
682.06	309.91
682.40	308.96
682.74	308.02
683.08	307.30
683.42	306.35
683.75	305.44
684.09	304.39
684.43	303.53
684.77	302.51
685.10	301.55
685.44	300.68
685.78	299.69
686.12	298.75
686.45	297.86
686.79	297.00
687.13	296.27
687.46	295.46
687.80	294.66
688.14	293.76
688.48	293.03
688.81	292.14
689.15	291.37
689.49	290.51
689.82	289.65
690.16	288.63
690.50	287.73
690.83	286.82
691.17	285.85
691.51	285.00
691.84	284.33
692.18	283.58
692.52	282.84
692.85	282.20
693.19	281.64
693.52	280.94
693.86	280.10
694.20	279.28
694.53	278.56
694.87	277.84
695.21	277.11
695.54	276.31
695.88	275.57
696.21	274.78
696.55	274.05
696.88	273.33
697.22	272.58
697.56	272.09
697.89	271.40
698.23	270.94
698.56	270.32
698.90	269.72
699.23	269.11
699.57	268.46
699.90	267.70
700.24	266.97
700.58	266.34
700.91	265.90
701.25	265.53
701.58	265.06
701.92	264.55
702.25	263.97
702.59	263.32
702.92	262.79
703.26	262.30
703.59	261.82
703.93	261.64
704.26	261.26
704.60	260.69
704.93	260.26
705.26	259.69
705.60	259.19
705.93	258.56
706.27	258.16
706.60	257.81
706.94	257.50
707.27	256.99
707.61	256.48
707.94	255.87
708.27	255.18
708.61	254.63
708.94	254.15
709.28	253.71
709.61	253.35
709.94	252.97
710.28	252.59
710.61	252.14
710.95	251.39
711.28	251.14
711.61	250.60
711.95	250.16
712.28	249.78
712.61	249.42
712.95	249.19
713.28	248.94
713.61	248.49
713.95	248.03
714.28	247.68
714.61	247.31
714.95	246.90
715.28	246.48
715.61	245.99
715.95	245.57
716.28	245.19
716.61	244.82
716.95	244.37
717.28	244.02
717.61	243.66
717.94	243.27
718.28	242.65
718.61	242.38
718.94	242.04
719.27	241.62
719.61	241.34
719.94	240.98
720.27	240.47
720.60	240.11
720.94	239.75
721.27	239.41
721.60	239.26
721.93	239.01
722.27	238.84
722.60	238.67
722.93	238.36
723.26	238.09
723.59	237.84
723.93	237.63
724.26	237.29
724.59	237.07
724.92	236.88
725.25	236.77
725.59	236.46
725.92	236.27
726.25	236.08
726.58	235.82
726.91	235.55
727.24	235.36
727.57	235.01
727.91	234.74
728.24	234.65
728.57	234.36
728.90	234.13
729.23	233.83
729.56	233.80
729.89	233.67
730.22	233.52
730.55	233.19
730.89	233.05
731.22	232.88
731.55	232.60
731.88	232.41
732.21	232.09
732.54	231.92
732.87	231.67
733.20	231.45
733.53	231.20
733.86	231.06
734.19	230.84
734.52	230.71
734.85	230.78
735.18	230.46
735.51	230.34
735.84	230.24
736.17	230.18
736.50	229.72
736.83	229.95
737.16	229.75
737.49	229.66
737.82	229.45
738.15	229.28
738.48	229.08
738.81	228.83
739.14	228.68
739.47	228.50
739.80	228.31
740.13	228.20
740.46	227.99
740.79	227.64
741.12	227.40
741.45	227.22
741.78	226.85
742.11	226.74
742.44	226.44
742.77	226.31
743.10	226.04
743.43	225.96
743.75	225.37
744.08	225.67
744.41	225.46
744.74	225.23
745.07	225.03
745.40	224.94
745.73	225.01
746.06	224.84
746.39	224.74
746.71	224.62
747.04	224.40
747.37	224.31
747.70	224.32
748.03	224.23
748.36	224.16
748.68	224.08
749.01	223.92
749.34	223.81
749.67	223.63
750.00	223.56
750.33	223.64
750.65	223.52
750.98	222.95
751.31	222.84
751.64	222.78
751.97	222.90
752.29	222.79
752.62	222.45
752.95	222.31
753.28	222.12
753.60	222.07
753.93	222.11
754.26	222.07
754.59	221.84
754.91	221.72
755.24	221.57
755.57	221.36
755.90	221.16
756.22	221.06
756.55	221.00
756.88	220.79
757.20	220.46
757.53	220.25
757.86	220.10
758.19	219.95
758.51	219.81
758.84	219.53
759.17	219.45
759.49	219.39
759.82	219.52
760.15	219.42
760.47	219.31
760.80	219.09
761.13	218.96
761.45	218.86
761.78	218.83
762.11	218.77
762.43	218.71
762.76	218.72
763.08	218.69
763.41	218.60
763.74	218.66
764.06	218.60
764.39	218.63
764.71	218.59
765.04	218.56
765.37	218.45
765.69	218.35
766.02	218.25
766.34	218.18
766.67	217.95
767.00	217.92
767.32	217.99
767.65	218.14
767.97	218.07
768.30	218.07
768.62	217.92
768.95	217.87
769.27	217.79
769.60	217.79
769.92	217.56
770.25	217.40
770.57	217.19
770.90	217.03
771.22	216.91
771.55	216.83
771.87	216.79
772.20	216.68
772.52	216.88
772.85	217.19
773.17	217.20
773.50	217.16
773.82	217.12
774.15	216.88
774.47	216.61
774.80	216.48
775.12	216.45
775.45	216.43
775.77	216.34
776.09	216.34
776.42	216.21
776.74	216.33
777.07	216.28
777.39	216.30
777.72	216.22
778.04	216.19
778.36	216.13
778.69	216.10
779.01	216.15
779.33	215.84
779.66	215.53
779.98	215.35
780.31	215.31
780.63	215.40
780.95	215.39
781.28	215.33
781.60	215.30
781.92	215.25
782.25	215.23
782.57	215.21
782.89	215.15
783.22	215.16
783.54	215.01
783.86	215.03
784.19	215.01
784.51	215.14
784.83	215.06
785.16	215.08
785.48	215.03
785.80	215.01
786.12	215.00
786.45	214.83
786.77	214.88
787.09	214.78
787.42	214.51
787.74	214.57
788.06	214.56
788.38	214.46
788.71	214.37
789.03	214.30
789.35	214.32
789.67	214.26
789.99	214.18
790.32	214.18
790.64	214.22
790.96	214.47
791.28	214.31
791.61	214.30
791.93	214.27
792.25	214.25
792.57	214.41
792.89	214.36
793.21	214.37
793.54	214.27
793.86	214.28
794.18	214.36
794.50	214.23
794.82	214.21
795.14	214.31
795.47	214.35
795.79	214.36
796.11	214.23
796.43	214.15
796.75	214.20
797.07	214.20
797.39	214.12
797.71	213.81
798.04	213.78
798.36	213.80
798.68	213.73
799.00	213.70
799.32	213.48
799.64	213.51
799.96	213.49
800.28	213.63
800.60	213.54
800.92	213.59
801.24	213.54
801.56	213.56
801.89	213.44
802.21	213.48
802.53	213.45
802.85	213.53
803.17	213.78
803.49	213.59
803.81	213.55
804.13	213.51
804.45	213.45
804.77	213.54
805.09	213.55
805.41	213.44
805.73	213.36
806.05	213.30
806.37	213.17
806.69	213.13
807.01	213.01
807.33	213.08
807.65	212.94
807.97	213.11
808.28	213.08
808.60	213.08
808.92	212.96
809.24	213.11
809.56	213.04
809.88	212.87
810.20	212.96
810.52	213.04
810.84	212.97
811.16	212.98
811.48	212.90
811.80	213.00
812.12	213.02
812.43	213.17
812.75	213.21
813.07	213.27
813.39	213.25
813.71	213.27
814.03	213.21
814.35	213.13
814.67	212.97
814.98	212.93
815.30	212.86
815.62	212.81
815.94	212.63
816.26	212.70
816.58	212.64
816.89	212.62
817.21	212.51
817.53	212.55
817.85	212.58
818.17	212.55
818.48	212.37
818.80	212.43
819.12	212.29
819.44	212.20
819.76	212.05
820.07	212.05
820.39	211.97
820.71	211.95
821.03	211.99
821.34	211.99
821.66	212.02
821.98	212.12
822.30	212.04
822.61	212.23
822.93	212.16
823.25	212.19
823.57	212.14
823.88	212.16
824.20	212.16
824.52	212.20
824.83	212.14
825.15	212.12
825.47	212.14
825.79	212.15
826.10	212.15
826.42	212.24
826.74	212.30
827.05	212.29
827.37	212.32
827.69	212.33
828.00	212.32
828.32	212.30
828.64	212.28
828.95	212.60
829.27	212.48
829.58	212.43
829.90	212.44
830.22	212.47
830.53	212.37
830.85	212.36
831.17	212.17
831.48	212.23
831.80	212.18
832.11	212.12
832.43	212.12
832.75	212.12
833.06	212.31
833.38	212.18
833.69	212.13
834.01	212.10
834.32	212.03
834.64	212.01
834.96	212.00
835.27	211.93
835.59	211.77
835.90	211.69
836.22	211.72
836.53	211.57
836.85	211.55
837.16	211.95
837.48	211.90
837.79	212.10
838.11	212.07
838.42	212.12
838.74	212.16
839.05	212.12
839.37	212.15
839.68	211.95
840.00	211.92
840.31	212.03
840.63	212.00
840.94	212.03
841.26	211.94
841.57	211.92
841.88	212.04
842.20	211.97
842.51	211.95
842.83	211.87
843.14	212.25
843.46	212.22
843.77	212.03
844.08	211.97
844.40	211.95
844.71	211.86
845.03	211.83
845.34	211.79
845.65	211.78
845.97	211.78
846.28	211.82
846.60	211.90
846.91	211.81
847.22	211.82
847.54	211.89
847.85	211.92
848.16	211.90
848.48	211.82
848.79	211.99
849.10	212.03
849.42	212.07
849.73	211.74
850.04	211.73
850.36	211.60
850.67	211.68
850.98	211.57
851.30	211.62
851.61	211.61
851.92	211.69
852.23	211.76
852.55	211.81
852.86	211.74
853.17	211.80
853.49	211.85
853.80	211.92
854.11	211.93
854.42	211.99
854.74	211.95
855.05	211.97
855.36	211.71
855.67	211.70
855.99	211.72
856.30	212.15
856.61	212.17
856.92	212.21
857.23	212.15
857.55	212.17
857.86	212.19
858.17	212.25
858.48	212.09
858.79	212.03
859.11	212.02
859.42	212.04
859.73	211.96
860.04	211.92
860.35	211.85
860.66	211.72
860.98	211.73
861.29	211.82
861.60	211.72
861.91	211.80
862.22	211.73
862.53	211.64
862.84	211.14
863.16	211.25
863.47	211.20
863.78	211.28
864.09	211.26
864.40	211.31
864.71	211.31
865.02	211.40
865.33	211.41
865.64	211.30
865.95	211.26
866.27	211.48
866.58	211.44
866.89	211.47
867.20	211.48
867.51	211.39
867.82	211.29
868.13	211.42
868.44	211.36
868.75	211.41
869.06	211.47
869.37	211.62
869.68	211.45
869.99	211.49
870.30	211.40
870.61	211.43
870.92	211.34
871.23	211.28
871.54	211.27
871.85	211.28
872.16	211.25
872.47	211.26
872.78	210.94
873.09	210.98
873.40	210.85
873.71	210.87
874.02	210.83
874.33	210.76
874.64	210.68
874.95	210.72
875.26	210.69
875.56	210.62
875.87	210.55
876.18	210.58
876.49	210.87
876.80	210.92
877.11	210.89
877.42	210.88
877.73	210.82
878.04	210.78
878.35	210.81
878.66	210.92
878.96	210.95
879.27	211.00
879.58	211.00
879.89	211.05
880.20	211.06
880.51	211.13
880.82	211.22
881.12	211.30
881.43	211.28
881.74	211.24
882.05	211.26
882.36	211.23
882.67	211.23
882.97	210.88
883.28	210.82
883.59	210.82
883.90	210.89
884.21	211.00
884.51	210.99
884.82	210.94
885.13	210.91
885.44	210.86
885.74	210.85
886.05	210.82
886.36	210.83
886.67	210.80
886.98	210.93
887.28	210.93
887.59	210.80
887.90	210.83
888.20	210.81
888.51	210.90
888.82	210.86
889.13	210.88
889.43	211.17
889.74	211.21
890.05	211.22
890.35	211.20
890.66	211.12
890.97	211.08
891.28	211.02
891.58	211.07
891.89	211.01
892.20	211.00
892.50	211.02
892.81	211.04
893.12	210.97
893.42	210.82
893.73	210.84
894.04	210.89
894.34	210.86
894.65	210.81
894.95	210.75
895.26	210.83
895.57	210.94
895.87	210.62
896.18	210.58
896.48	210.55
896.79	210.52
897.10	210.63
897.40	210.66
897.71	210.72
898.01	210.61
898.32	210.74
898.63	210.67
898.93	210.70
899.24	210.67
899.54	210.75
899.85	210.81
900.15	210.82
900.46	210.86
900.76	210.94
901.07	210.99
901.38	211.01
901.68	211.02
901.99	210.93
902.29	211.00
902.60	210.96
902.90	210.97
903.21	210.98
903.51	210.91
903.82	210.99
904.12	210.93
904.43	210.99
904.73	210.95
905.03	211.10
905.34	211.40
905.64	211.43
905.95	211.36
906.25	211.35
906.56	211.40
906.86	211.34
907.17	211.30
907.47	211.34
907.77	211.31
908.08	211.18
908.38	211.24
908.69	211.26
908.99	211.40
909.30	211.35
909.60	211.36
909.90	211.38
910.21	211.31
910.51	211.28
910.81	211.27
911.12	211.27
911.42	211.21
911.73	210.82
912.03	210.81
912.33	211.00
912.64	210.98
912.94	210.85
913.24	210.85
913.55	210.83
913.85	210.81
914.15	210.94
914.46	211.01
914.76	210.89
915.06	210.87
915.37	210.72
915.67	210.73
915.97	210.73
916.27	210.70
916.58	210.72
916.88	210.76
917.18	210.73
917.49	210.97
917.79	210.97
918.09	211.09
918.39	211.13
918.70	211.03
919.00	210.99
919.30	211.17
919.60	211.15
919.91	211.09
920.21	211.06
920.51	210.90
920.81	210.90
921.12	210.96
921.42	210.88
921.72	210.97
922.02	210.99
922.32	211.05
922.63	211.08
922.93	211.30
923.23	211.35
923.53	211.34
923.83	211.11
924.13	211.09
924.44	211.04
924.74	211.12
925.04	211.20
925.34	211.20
925.64	211.04
925.94	211.05
926.24	211.25
926.55	211.26
926.85	211.34
927.15	211.31
927.45	211.36
927.75	211.47
928.05	211.45
928.35	211.44
928.65	211.48
928.95	211.49
929.26	211.30
929.56	211.28
929.86	211.33
930.16	211.32
930.46	211.35
930.76	211.28
931.06	211.15
931.36	211.06
931.66	211.11
931.96	211.19
932.26	211.17
932.56	211.03
932.86	211.00
933.16	211.00
933.46	211.01
933.76	210.91
934.06	210.91
934.36	211.01
934.66	210.97
934.96	210.93
935.26	210.96
935.56	210.97
935.86	210.93
936.16	210.85
936.46	210.86
936.76	210.88
937.06	210.90
937.36	210.83
937.66	210.85
937.96	210.85
938.26	210.73
938.56	210.72
938.86	210.65
939.16	210.76
939.46	210.78
939.76	210.83
940.06	210.88
940.35	210.75
940.65	210.65
940.95	210.66
941.25	210.51
941.55	210.42
941.85	210.40
942.15	210.41
942.45	210.51
942.75	210.46
943.04	210.43
943.34	210.42
943.64	210.43
943.94	210.32
944.24	210.35
944.54	210.36
944.84	210.35
945.13	210.39
945.43	210.32
945.73	210.31
946.03	210.27
946.33	210.20
946.62	210.22
946.92	210.15
947.22	210.26
947.52	210.36
947.82	210.44
948.11	210.42
948.41	210.35
948.71	210.26
949.01	210.30
949.31	210.30
949.60	210.34
949.90	210.43
950.20	210.48
950.50	210.42
950.79	210.41
951.09	210.51
951.39	210.50
951.69	210.46
951.98	210.46
952.28	210.44
952.58	210.43
952.87	210.50
953.17	210.64
953.47	210.54
953.76	210.56
954.06	210.46
954.36	210.37
954.66	210.38
954.95	210.38
955.25	210.38
955.55	210.39
955.84	210.37
956.14	210.43
956.44	210.51
956.73	210.51
957.03	210.60
957.32	210.58
957.62	210.60
957.92	210.66
958.21	210.64
958.51	211.08
958.81	211.11
959.10	211.12
959.40	211.14
959.69	211.18
959.99	211.18
960.29	211.23
960.58	211.27
960.88	211.41
961.17	211.50
961.47	211.57
961.76	211.52
962.06	211.57
962.36	211.52
962.65	211.51
962.95	211.53
963.24	211.45
963.54	211.49
963.83	211.48
964.13	211.54
964.42	211.56
964.72	211.25
965.01	211.25
965.31	211.23
965.60	211.15
965.90	211.40
966.19	211.37
966.49	211.43
966.78	211.47
967.08	211.45
967.37	211.40
967.67	211.39
967.96	211.52
968.26	211.59
968.55	211.66
968.85	211.63
969.14	211.65
969.43	211.69
969.73	211.63
970.02	211.63
970.32	211.55
970.61	211.57
970.91	211.48
971.20	211.51
971.49	211.42
971.79	211.47
972.08	211.22
972.38	211.20
972.67	211.17
972.96	211.23
973.26	211.18
973.55	211.35
973.85	211.24
974.14	211.18
974.43	211.20
974.73	211.07
975.02	211.05
975.31	211.02
975.61	211.04
975.90	210.99
976.19	210.96
976.49	211.04
976.78	210.95
977.07	211.00
977.37	211.06
977.66	211.16
977.95	211.03
978.24	211.05
978.54	211.16
978.83	211.09
979.12	211.07
979.42	211.10
979.71	210.99
980.00	211.02
980.29	211.05
980.59	210.93
980.88	210.99
981.17	210.96
981.46	210.94
981.76	210.92
982.05	211.09
982.34	211.07
982.63	211.02
982.93	211.12
983.22	211.15
983.51	211.08
983.80	211.10
984.09	211.16
984.39	211.15
984.68	211.04
984.97	211.09
985.26	211.01
985.55	211.01
985.85	210.94
986.14	211.01
986.43	210.96
986.72	210.92
987.01	210.80
987.30	210.76
987.59	210.83
987.89	210.85
988.18	210.70
988.47	210.74
988.76	210.67
989.05	210.59
989.34	210.50
989.63	210.59
989.92	210.56
990.22	210.60
990.51	210.59
990.80	210.61
991.09	210.64
991.38	210.71
991.67	210.72
991.96	210.73
992.25	210.70
992.54	210.71
992.83	210.79
993.12	210.78
993.41	210.85
993.70	210.96
993.99	211.04
994.28	211.10
994.58	211.16
994.87	211.16
995.16	211.20
995.45	211.28
995.74	211.14
996.03	211.23
996.32	211.26
996.61	211.38
996.90	211.34
997.19	211.35
997.48	211.33
997.77	211.34
998.06	211.34
998.34	211.32
998.63	211.36
998.92	211.37
999.21	211.51
999.50	211.56
999.79	211.42
1000.08	211.40
1000.37	211.38
1000.66	211.33
1000.95	211.41
1001.24	211.43
1001.53	211.45
1001.82	211.50
1002.11	211.36
1002.40	211.36
1002.68	211.34
1002.97	211.61
1003.26	211.57
1003.55	211.48
1003.84	211.58
1004.13	211.72
1004.42	211.67
1004.71	211.65
1004.99	211.61
1005.28	211.69
1005.57	211.70
1005.86	211.71
1006.15	211.66
1006.44	211.65
1006.72	211.70
1007.01	211.59
1007.30	211.59
1007.59	211.55
1007.88	211.49
1008.17	211.57
1008.45	211.52
1008.74	211.43
1009.03	211.28
1009.32	211.30
1009.60	211.41
1009.89	211.25
1010.18	211.15
1010.47	211.20
1010.76	211.16
1011.04	211.16
1011.33	211.13
1011.62	211.16
1011.91	211.13
1012.19	211.15
1012.48	211.11
1012.77	211.13
1013.05	211.33
1013.34	211.38
1013.63	211.34
1013.92	211.39
1014.20	211.25
1014.49	211.24
1014.78	211.26
1015.06	211.09
1015.35	211.07
1015.64	211.08
1015.92	211.14
1016.21	211.04
1016.50	211.00
1016.78	211.03
1017.07	211.01
1017.36	210.88
1017.64	210.77
1017.93	210.75
1018.22	210.68
1018.50	210.66
1018.79	210.61
1019.08	210.49
1019.36	210.49
1019.65	210.44
1019.93	210.54
1020.22	210.66
1020.51	210.79
1020.79	210.70
1021.08	209.85
1021.36	209.35
1021.65	211.35
1021.94	211.10
1022.22	212.00
1022.51	210.15
1022.79	212.60
1023.08	211.20
1023.36	214.10
1023.65	209.50
>>>>>End Processed Spectral Data<<<<<
