SpectraSuite Data File
++++++++++++++++++++++++++++++++++++
Date: Mon Feb 25 17:06:58 EST 2013
User: group
Dark Spectrum Present: No
Reference Spectrum Present: No
Number of Sampled Component Spectra: 1
Spectrometers: USB2E7196
Integration Time (usec): 104000 (USB2E7196)
Spectra Averaged: 20 (USB2E7196)
Boxcar Smoothing: 10 (USB2E7196)
Correct for Electrical Dark: No (USB2E7196)
Strobe/Lamp Enabled: No (USB2E7196)
Correct for Detector Non-linearity: No (USB2E7196)
Correct for Stray Light: No (USB2E7196)
Number of Pixels in Processed Spectrum: 2048
>>>>>Begin Processed Spectral Data<<<<<
339.09	0.00
339.48	198.65
339.86	200.10
340.24	200.45
340.63	203.05
341.01	209.40
341.39	205.45
341.78	205.60
342.16	208.40
342.54	208.55
342.93	197.92
343.31	207.88
343.69	208.40
344.07	208.86
344.46	209.42
344.84	209.76
345.22	209.84
345.60	210.10
345.99	210.37
346.37	210.45
346.75	210.51
347.13	210.57
347.52	210.60
347.90	210.70
348.28	210.71
348.66	210.86
349.05	210.80
349.43	210.82
349.81	210.81
350.19	210.84
350.57	210.87
350.96	211.03
351.34	211.15
351.72	211.26
352.10	211.37
352.48	211.30
352.87	211.37
353.25	211.38
353.63	211.47
354.01	211.55
354.39	211.64
354.77	211.73
355.15	211.84
355.54	211.92
355.92	211.86
356.30	211.96
356.68	212.23
357.06	212.35
357.44	212.35
357.82	212.36
358.20	212.44
358.58	212.52
358.97	212.56
359.35	212.69
359.73	212.79
360.11	212.80
360.49	212.91
360.87	212.94
361.25	213.04
361.63	213.16
362.01	213.20
362.39	213.20
362.77	213.26
363.15	213.33
363.53	213.37
363.91	213.40
364.29	213.47
364.67	213.17
365.05	213.19
365.43	213.30
365.81	213.42
366.19	213.57
366.57	213.64
366.95	213.65
367.33	213.54
367.71	213.51
368.09	213.54
368.47	213.56
368.85	213.51
369.23	213.57
369.61	213.41
369.99	213.45
370.37	213.46
370.75	213.56
371.13	213.48
371.51	213.32
371.89	213.32
372.27	213.26
372.65	213.19
373.03	213.17
373.41	213.15
373.78	213.08
374.16	212.94
374.54	212.81
374.92	212.73
375.30	212.72
375.68	212.63
376.06	212.64
376.44	212.53
376.82	212.54
377.19	212.46
377.57	212.42
377.95	212.23
378.33	212.20
378.71	212.02
379.09	211.94
379.47	212.00
379.84	211.92
380.22	211.80
380.60	211.71
380.98	211.65
381.36	211.54
381.73	211.45
382.11	211.44
382.49	211.41
382.87	211.26
383.25	211.20
383.62	211.54
384.00	211.39
384.38	211.36
384.76	211.38
385.13	211.45
385.51	211.44
385.89	211.37
386.27	211.30
386.64	211.25
387.02	211.23
387.40	211.15
387.78	211.12
388.15	211.06
388.53	211.05
388.91	211.02
389.29	210.94
389.66	210.97
390.04	210.90
390.42	210.93
390.79	210.99
391.17	210.96
391.55	210.57
391.92	210.58
392.30	210.62
392.68	210.51
393.05	210.45
393.43	210.46
393.81	210.50
394.18	210.46
394.56	210.45
394.94	210.48
395.31	210.47
395.69	210.60
396.06	210.73
396.44	210.73
396.82	210.67
397.19	210.92
397.57	210.83
397.95	210.84
398.32	210.71
398.70	210.67
399.07	210.79
399.45	210.74
399.82	210.75
400.20	210.79
400.58	210.82
400.95	210.71
401.33	210.82
401.70	211.05
402.08	211.16
402.45	211.21
402.83	211.37
403.20	211.41
403.58	211.40
403.95	211.51
404.33	211.61
404.71	211.72
405.08	211.91
405.46	212.04
405.83	212.16
406.21	212.25
406.58	212.36
406.96	212.41
407.33	212.62
407.70	212.82
408.08	213.15
408.45	213.36
408.83	213.63
409.20	213.56
409.58	213.56
409.95	213.72
410.33	213.98
410.70	214.07
411.08	214.34
411.45	214.63
411.82	214.77
412.20	215.10
412.57	215.63
412.95	215.67
413.32	216.10
413.69	216.49
414.07	216.92
414.44	217.40
414.82	217.91
415.19	218.47
415.56	219.00
415.94	219.37
416.31	220.06
416.68	220.74
417.06	221.70
417.43	222.61
417.81	223.51
418.18	224.42
418.55	225.34
418.93	226.40
419.30	227.45
419.67	228.58
420.04	229.72
420.42	230.82
420.79	232.43
421.16	233.84
421.54	235.47
421.91	236.94
422.28	238.46
422.66	240.14
423.03	241.96
423.40	243.68
423.77	245.50
424.15	247.30
424.52	249.18
424.89	251.25
425.26	253.16
425.64	255.11
426.01	257.15
426.38	259.40
426.75	261.75
427.13	264.18
427.50	266.63
427.87	269.22
428.24	271.78
428.61	274.08
428.99	276.90
429.36	279.67
429.73	282.64
430.10	285.69
430.47	288.73
430.85	291.58
431.22	294.82
431.59	298.55
431.96	301.87
432.33	305.51
432.70	309.16
433.08	313.42
433.45	317.43
433.82	321.54
434.19	325.87
434.56	330.22
434.93	334.22
435.30	338.46
435.68	343.00
436.05	347.38
436.42	351.85
436.79	355.92
437.16	360.38
437.53	365.10
437.90	369.65
438.27	374.21
438.64	379.06
439.01	383.55
439.38	387.33
439.75	391.31
440.13	395.80
440.50	399.91
440.87	403.18
441.24	406.73
441.61	410.64
441.98	413.60
442.35	416.84
442.72	420.27
443.09	423.63
443.46	425.70
443.83	427.30
444.20	428.72
444.57	430.40
444.94	431.27
445.31	432.23
445.68	433.50
446.05	433.86
446.42	433.65
446.79	433.42
447.16	432.99
447.53	432.71
447.90	431.05
448.27	429.39
448.64	427.27
449.01	425.58
449.37	422.71
449.74	420.04
450.11	416.91
450.48	413.34
450.85	409.45
451.22	406.23
451.59	403.21
451.96	400.16
452.33	396.22
452.70	392.63
453.07	388.38
453.43	383.66
453.80	379.57
454.17	375.45
454.54	371.46
454.91	367.35
455.28	363.25
455.65	359.57
456.02	356.29
456.38	353.04
456.75	349.08
457.12	345.61
457.49	342.15
457.86	338.65
458.23	335.86
458.59	332.83
458.96	329.79
459.33	326.95
459.70	324.27
460.07	322.10
460.43	319.65
460.80	317.33
461.17	315.24
461.54	312.98
461.91	310.90
462.27	308.78
462.64	306.95
463.01	305.03
463.38	303.20
463.74	300.79
464.11	299.05
464.48	297.59
464.85	295.98
465.21	294.86
465.58	293.67
465.95	291.90
466.32	290.58
466.68	289.29
467.05	287.97
467.42	286.61
467.78	285.25
468.15	283.94
468.52	282.85
468.88	281.60
469.25	280.52
469.62	279.65
469.98	278.65
470.35	277.73
470.72	276.71
471.08	275.62
471.45	274.97
471.82	274.21
472.18	273.29
472.55	272.65
472.92	271.78
473.28	271.00
473.65	270.38
474.02	269.74
474.38	269.12
474.75	268.71
475.11	268.23
475.48	267.77
475.85	267.34
476.21	266.96
476.58	266.72
476.94	266.40
477.31	266.06
477.67	265.80
478.04	265.50
478.41	265.40
478.77	265.57
479.14	265.23
479.50	265.10
479.87	265.10
480.23	264.96
480.60	264.82
480.96	264.73
481.33	264.95
481.69	264.99
482.06	264.97
482.42	265.05
482.79	265.08
483.15	265.23
483.52	265.46
483.88	265.56
484.25	265.68
484.61	265.81
484.98	265.96
485.34	266.34
485.71	266.65
486.07	266.94
486.44	266.90
486.80	267.28
487.17	267.79
487.53	268.21
487.90	268.79
488.26	269.51
488.62	270.14
488.99	270.59
489.35	271.12
489.72	271.86
490.08	272.52
490.44	273.18
490.81	273.96
491.17	274.66
491.54	275.57
491.90	276.38
492.26	277.30
492.63	278.22
492.99	279.08
493.36	280.07
493.72	281.19
494.08	282.39
494.45	283.57
494.81	284.62
495.17	285.82
495.54	287.07
495.90	288.23
496.26	289.42
496.63	290.69
496.99	292.04
497.35	293.28
497.72	294.60
498.08	296.12
498.44	297.53
498.80	299.09
499.17	300.54
499.53	302.02
499.89	303.65
500.26	305.18
500.62	306.75
500.98	308.44
501.34	309.97
501.71	311.64
502.07	313.26
502.43	314.96
502.79	316.55
503.16	318.18
503.52	319.82
503.88	321.50
504.24	323.29
504.60	325.12
504.97	327.03
505.33	328.77
505.69	330.66
506.05	332.48
506.41	334.38
506.78	336.12
507.14	337.95
507.50	339.81
507.86	341.71
508.22	343.61
508.59	345.46
508.95	347.37
509.31	349.34
509.67	351.17
510.03	353.07
510.39	355.05
510.75	356.93
511.12	358.90
511.48	360.88
511.84	362.90
512.20	364.80
512.56	366.75
512.92	368.75
513.28	370.79
513.64	372.75
514.00	374.75
514.37	376.88
514.73	379.02
515.09	381.11
515.45	383.14
515.81	385.20
516.17	387.25
516.53	389.44
516.89	391.39
517.25	393.60
517.61	395.89
517.97	398.10
518.33	400.39
518.69	402.62
519.05	405.06
519.41	407.46
519.77	410.00
520.13	412.27
520.49	414.72
520.85	417.01
521.21	419.64
521.57	421.98
521.93	424.31
522.29	426.80
522.65	429.26
523.01	431.91
523.37	434.37
523.73	437.05
524.09	439.57
524.45	442.26
524.81	445.03
525.17	447.75
525.53	450.49
525.89	453.35
526.25	456.16
526.61	458.78
526.97	461.50
527.33	464.19
527.68	467.47
528.04	470.42
528.40	473.10
528.76	475.88
529.12	479.06
529.48	482.26
529.84	485.34
530.20	488.52
530.56	491.77
530.91	495.19
531.27	498.42
531.63	501.72
531.99	505.12
532.35	508.30
532.71	511.35
533.07	514.64
533.42	518.21
533.78	521.54
534.14	525.05
534.50	528.27
534.86	531.77
535.21	534.77
535.57	538.22
535.93	541.75
536.29	545.40
536.65	548.70
537.00	551.90
537.36	555.25
537.72	558.45
538.08	561.59
538.44	564.76
538.79	568.13
539.15	571.38
539.51	574.56
539.87	577.97
540.22	581.37
540.58	584.80
540.94	587.82
541.29	591.20
541.65	594.27
542.01	597.59
542.37	600.76
542.72	604.05
543.08	607.05
543.44	610.40
543.79	613.28
544.15	616.42
544.51	619.81
544.87	623.07
545.22	626.27
545.58	629.41
545.94	632.30
546.29	635.08
546.65	638.07
547.01	640.88
547.36	643.67
547.72	646.51
548.07	649.19
548.43	651.86
548.79	654.18
549.14	656.76
549.50	659.53
549.86	661.86
550.21	664.22
550.57	666.84
550.92	669.03
551.28	671.30
551.64	673.56
551.99	675.87
552.35	677.90
552.70	679.95
553.06	682.23
553.41	684.45
553.77	686.80
554.13	688.94
554.48	691.21
554.84	693.46
555.19	695.46
555.55	697.67
555.90	699.47
556.26	701.45
556.61	703.25
556.97	704.74
557.32	706.38
557.68	708.12
558.03	709.61
558.39	711.30
558.74	713.07
559.10	714.82
559.45	716.30
559.81	718.07
560.16	719.63
560.52	720.99
560.87	722.55
561.23	723.70
561.58	725.23
561.94	726.31
562.29	727.37
562.64	728.63
563.00	729.59
563.35	730.87
563.71	732.23
564.06	733.59
564.42	734.85
564.77	736.39
565.12	737.71
565.48	739.26
565.83	740.58
566.19	741.75
566.54	742.51
566.89	743.25
567.25	744.24
567.60	745.38
567.96	746.51
568.31	747.37
568.66	748.21
569.02	748.53
569.37	749.00
569.72	749.56
570.08	750.02
570.43	750.65
570.78	750.92
571.14	751.19
571.49	751.18
571.84	751.25
572.20	751.09
572.55	751.11
572.90	750.57
573.26	750.25
573.61	749.85
573.96	749.80
574.31	749.51
574.67	748.91
575.02	748.00
575.37	747.01
575.72	746.21
576.08	745.71
576.43	745.06
576.78	744.70
577.13	744.09
577.49	743.53
577.84	742.81
578.19	742.28
578.54	741.72
578.90	741.42
579.25	740.97
579.60	740.22
579.95	739.34
580.30	738.80
580.66	738.24
581.01	737.56
581.36	736.59
581.71	735.89
582.06	735.37
582.42	734.81
582.77	734.11
583.12	733.50
583.47	732.72
583.82	732.14
584.17	731.44
584.53	730.84
584.88	729.99
585.23	729.20
585.58	728.38
585.93	727.44
586.28	726.57
586.63	725.60
586.98	724.97
587.34	724.38
587.69	723.44
588.04	722.46
588.39	721.62
588.74	720.68
589.09	719.94
589.44	718.63
589.79	717.53
590.14	716.74
590.49	715.62
590.84	714.56
591.19	713.74
591.54	712.54
591.89	711.11
592.25	710.25
592.60	708.77
592.95	707.38
593.30	706.01
593.65	704.58
594.00	703.14
594.35	702.90
594.70	701.43
595.05	700.15
595.40	698.88
595.75	697.27
596.10	696.19
596.45	694.80
596.80	693.90
597.15	692.96
597.50	691.41
597.85	690.29
598.19	688.97
598.54	687.66
598.89	686.57
599.24	685.59
599.59	684.37
599.94	683.60
600.29	682.65
600.64	681.47
600.99	680.28
601.34	679.44
601.69	677.14
602.04	675.77
602.39	674.53
602.74	673.31
603.08	672.49
603.43	671.56
603.78	670.50
604.13	669.11
604.48	667.84
604.83	667.02
605.18	666.11
605.53	664.90
605.87	663.51
606.22	662.24
606.57	660.87
606.92	659.27
607.27	657.77
607.62	656.35
607.96	655.28
608.31	654.18
608.66	652.70
609.01	651.36
609.36	649.89
609.70	648.48
610.05	647.00
610.40	645.46
610.75	643.66
611.10	642.35
611.44	640.57
611.79	638.82
612.14	637.03
612.49	634.94
612.83	633.23
613.18	631.30
613.53	629.39
613.88	627.49
614.22	625.83
614.57	624.00
614.92	622.08
615.27	620.06
615.61	618.07
615.96	616.18
616.31	614.17
616.65	612.78
617.00	610.96
617.35	609.01
617.70	607.16
618.04	604.96
618.39	602.53
618.74	600.68
619.08	598.69
619.43	596.77
619.78	594.81
620.12	592.94
620.47	591.08
620.82	589.06
621.16	587.01
621.51	585.04
621.85	582.91
622.20	580.88
622.55	578.83
622.89	576.78
623.24	574.63
623.59	572.65
623.93	570.45
624.28	568.40
624.62	566.68
624.97	564.82
625.32	563.00
625.66	561.33
626.01	559.41
626.35	557.41
626.70	555.35
627.04	553.74
627.39	551.59
627.73	549.87
628.08	548.05
628.43	546.15
628.77	544.07
629.12	542.24
629.46	540.56
629.81	538.71
630.15	536.69
630.50	534.78
630.84	532.77
631.19	530.83
631.53	528.89
631.88	526.66
632.22	524.41
632.57	522.68
632.91	520.63
633.26	518.83
633.60	517.05
633.95	515.22
634.29	513.16
634.64	511.60
634.98	509.59
635.32	507.83
635.67	506.24
636.01	504.56
636.36	502.75
636.70	501.05
637.05	499.13
637.39	497.40
637.73	495.86
638.08	494.32
638.42	492.74
638.77	491.19
639.11	489.64
639.45	488.02
639.80	486.09
640.14	484.29
640.49	482.40
640.83	480.63
641.17	478.95
641.52	477.10
641.86	475.12
642.20	473.50
642.55	471.43
642.89	469.55
643.23	467.70
643.58	466.09
643.92	464.05
644.26	462.40
644.61	460.70
644.95	458.86
645.29	456.98
645.64	455.03
645.98	453.08
646.32	451.25
646.66	449.34
647.01	447.51
647.35	445.80
647.69	443.89
648.04	442.20
648.38	440.22
648.72	438.46
649.06	436.68
649.41	434.75
649.75	433.11
650.09	431.30
650.43	429.57
650.78	427.62
651.12	425.83
651.46	423.93
651.80	422.17
652.14	420.42
652.49	418.80
652.83	417.07
653.17	415.35
653.51	413.53
653.85	412.01
654.20	410.42
654.54	408.59
654.88	406.83
655.22	405.14
655.56	403.41
655.90	401.70
656.25	399.98
656.59	398.21
656.93	396.63
657.27	395.10
657.61	393.35
657.95	391.71
658.29	390.27
658.64	388.82
658.98	387.15
659.32	385.41
659.66	383.79
660.00	382.15
660.34	380.43
660.68	378.84
661.02	377.15
661.36	375.59
661.70	374.11
662.05	372.76
662.39	371.35
662.73	370.16
663.07	368.93
663.41	367.49
663.75	366.02
664.09	364.54
664.43	363.01
664.77	361.67
665.11	360.26
665.45	358.80
665.79	357.48
666.13	356.06
666.47	354.77
666.81	353.39
667.15	352.06
667.49	350.97
667.83	349.82
668.17	348.51
668.51	347.24
668.85	346.04
669.19	344.93
669.53	343.56
669.87	342.24
670.21	340.94
670.55	339.78
670.89	338.97
671.23	337.92
671.57	336.91
671.91	335.77
672.25	334.59
672.58	333.49
672.92	332.29
673.26	331.32
673.60	330.25
673.94	329.23
674.28	328.24
674.62	327.17
674.96	325.99
675.30	325.03
675.64	323.99
675.97	323.01
676.31	321.98
676.65	321.04
676.99	320.23
677.33	319.06
677.67	318.05
678.01	316.85
678.34	315.84
678.68	314.80
679.02	313.82
679.36	312.93
679.70	311.95
680.04	311.01
680.37	309.97
680.71	309.08
681.05	308.09
681.39	307.19
681.73	306.22
682.06	305.37
682.40	304.50
682.74	303.67
683.08	302.90
683.42	301.94
683.75	301.07
684.09	299.97
684.43	299.21
684.77	298.31
685.10	297.51
685.44	296.60
685.78	295.70
686.12	294.91
686.45	294.06
686.79	293.26
687.13	292.59
687.46	291.77
687.80	291.08
688.14	290.30
688.48	289.50
688.81	288.77
689.15	288.06
689.49	287.23
689.82	286.46
690.16	285.43
690.50	284.65
690.83	283.83
691.17	283.13
691.51	282.37
691.84	281.81
692.18	280.98
692.52	280.20
692.85	279.58
693.19	278.96
693.52	278.30
693.86	277.63
694.20	276.82
694.53	276.21
694.87	275.43
695.21	274.70
695.54	273.96
695.88	273.17
696.21	272.36
696.55	271.75
696.88	271.07
697.22	270.49
697.56	269.96
697.89	269.27
698.23	268.65
698.56	267.99
698.90	267.40
699.23	266.71
699.57	266.20
699.90	265.47
700.24	264.78
700.58	264.20
700.91	263.56
701.25	263.26
701.58	262.75
701.92	262.23
702.25	261.74
702.59	261.25
702.92	260.79
703.26	260.27
703.59	259.73
703.93	259.44
704.26	259.03
704.60	258.46
704.93	258.00
705.26	257.46
705.60	257.07
705.93	256.46
706.27	256.14
706.60	255.74
706.94	255.42
707.27	254.84
707.61	254.38
707.94	253.91
708.27	253.22
708.61	252.67
708.94	252.19
709.28	251.74
709.61	251.28
709.94	250.85
710.28	250.52
710.61	250.12
710.95	249.45
711.28	249.22
711.61	248.75
711.95	248.45
712.28	248.03
712.61	247.56
712.95	247.37
713.28	247.14
713.61	246.64
713.95	246.20
714.28	245.99
714.61	245.60
714.95	245.19
715.28	244.79
715.61	244.43
715.95	244.07
716.28	243.68
716.61	243.37
716.95	242.99
717.28	242.58
717.61	242.28
717.94	241.97
718.28	241.39
718.61	241.12
718.94	240.72
719.27	240.39
719.61	240.07
719.94	239.67
720.27	239.19
720.60	238.90
720.94	238.58
721.27	238.20
721.60	237.96
721.93	237.73
722.27	237.64
722.60	237.52
722.93	237.31
723.26	237.17
723.59	236.80
723.93	236.60
724.26	236.36
724.59	236.08
724.92	235.83
725.25	235.64
725.59	235.35
725.92	235.15
726.25	234.93
726.58	234.80
726.91	234.57
727.24	234.38
727.57	234.24
727.91	234.03
728.24	233.92
728.57	233.67
728.90	233.55
729.23	233.12
729.56	232.98
729.89	232.74
730.22	232.42
730.55	232.22
730.89	232.03
731.22	231.86
731.55	231.61
731.88	231.41
732.21	231.15
732.54	231.02
732.87	230.78
733.20	230.66
733.53	230.43
733.86	230.22
734.19	229.98
734.52	229.74
734.85	229.82
735.18	229.53
735.51	229.54
735.84	229.37
736.17	229.30
736.50	228.98
736.83	229.19
737.16	229.12
737.49	228.96
737.82	228.70
738.15	228.58
738.48	228.44
738.81	228.28
739.14	228.13
739.47	227.86
739.80	227.73
740.13	227.60
740.46	227.40
740.79	227.15
741.12	227.01
741.45	226.86
741.78	226.43
742.11	226.39
742.44	226.12
742.77	225.97
743.10	225.77
743.43	225.60
743.75	225.07
744.08	225.35
744.41	225.18
744.74	225.10
745.07	224.82
745.40	224.69
745.73	224.73
746.06	224.59
746.39	224.52
746.71	224.40
747.04	224.12
747.37	223.90
747.70	223.94
748.03	223.84
748.36	223.75
748.68	223.68
749.01	223.41
749.34	223.22
749.67	223.05
750.00	223.04
750.33	223.15
750.65	223.07
750.98	222.43
751.31	222.33
751.64	222.21
751.97	222.34
752.29	222.26
752.62	221.91
752.95	221.81
753.28	221.68
753.60	221.50
753.93	221.59
754.26	221.61
754.59	221.28
754.91	221.16
755.24	221.04
755.57	220.92
755.90	220.83
756.22	220.73
756.55	220.61
756.88	220.43
757.20	220.06
757.53	219.85
757.86	219.78
758.19	219.80
758.51	219.61
758.84	219.45
759.17	219.29
759.49	219.25
759.82	219.31
760.15	219.24
760.47	219.13
760.80	218.90
761.13	218.89
761.45	218.86
761.78	218.75
762.11	218.63
762.43	218.55
762.76	218.49
763.08	218.47
763.41	218.38
763.74	218.30
764.06	218.28
764.39	218.18
764.71	218.13
765.04	217.94
765.37	217.88
765.69	217.74
766.02	217.70
766.34	217.60
766.67	217.39
767.00	217.36
767.32	217.55
767.65	217.71
767.97	217.55
768.30	217.52
768.62	217.48
768.95	217.42
769.27	217.28
769.60	217.27
769.92	217.11
770.25	216.99
770.57	216.89
770.90	216.79
771.22	216.82
771.55	216.73
771.87	216.70
772.20	216.67
772.52	216.93
772.85	217.29
773.17	217.25
773.50	217.20
773.82	217.16
774.15	216.85
774.47	216.53
774.80	216.50
775.12	216.46
775.45	216.42
775.77	216.35
776.09	216.40
776.42	216.39
776.74	216.44
777.07	216.42
777.39	216.44
777.72	216.35
778.04	216.33
778.36	216.32
778.69	216.32
779.01	216.30
779.33	215.95
779.66	215.51
779.98	215.47
780.31	215.41
780.63	215.48
780.95	215.55
781.28	215.54
781.60	215.40
781.92	215.35
782.25	215.31
782.57	215.30
782.89	215.21
783.22	215.05
783.54	215.03
783.86	214.98
784.19	214.92
784.51	215.02
784.83	214.96
785.16	214.91
785.48	214.94
785.80	214.90
786.12	214.85
786.45	214.77
786.77	214.81
787.09	214.79
787.42	214.62
787.74	214.61
788.06	214.64
788.38	214.61
788.71	214.50
789.03	214.49
789.35	214.51
789.67	214.45
789.99	214.52
790.32	214.40
790.64	214.49
790.96	214.73
791.28	214.62
791.61	214.55
791.93	214.42
792.25	214.32
792.57	214.57
792.89	214.47
793.21	214.50
793.54	214.37
793.86	214.31
794.18	214.32
794.50	214.26
794.82	214.16
795.14	214.24
795.47	214.35
795.79	214.34
796.11	214.19
796.43	214.21
796.75	214.12
797.07	214.12
797.39	214.04
797.71	213.78
798.04	213.74
798.36	213.74
798.68	213.82
799.00	213.81
799.32	213.54
799.64	213.66
799.96	213.70
800.28	213.79
800.60	213.78
800.92	213.82
801.24	213.78
801.56	213.86
801.89	213.76
802.21	213.73
802.53	213.67
802.85	213.72
803.17	213.94
803.49	213.87
803.81	213.81
804.13	213.78
804.45	213.69
804.77	213.74
805.09	213.72
805.41	213.69
805.73	213.69
806.05	213.58
806.37	213.48
806.69	213.36
807.01	213.32
807.33	213.31
807.65	213.15
807.97	213.27
808.28	213.16
808.60	213.15
808.92	213.11
809.24	213.26
809.56	213.22
809.88	213.06
810.20	213.07
810.52	213.07
810.84	212.98
811.16	212.96
811.48	212.93
811.80	213.07
812.12	212.98
812.43	212.95
812.75	212.99
813.07	212.95
813.39	213.02
813.71	212.94
814.03	212.88
814.35	212.92
814.67	212.76
814.98	212.75
815.30	212.70
815.62	212.65
815.94	212.43
816.26	212.41
816.58	212.32
816.89	212.36
817.21	212.29
817.53	212.33
817.85	212.31
818.17	212.28
818.48	212.14
818.80	212.24
819.12	212.18
819.44	212.17
819.76	212.11
820.07	212.08
820.39	212.05
820.71	211.98
821.03	211.93
821.34	211.83
821.66	211.84
821.98	211.90
822.30	211.90
822.61	212.14
822.93	212.14
823.25	212.11
823.57	212.10
823.88	212.18
824.20	212.20
824.52	212.30
824.83	212.26
825.15	212.18
825.47	212.11
825.79	212.10
826.10	212.05
826.42	212.01
826.74	212.06
827.05	212.14
827.37	212.25
827.69	212.23
828.00	212.32
828.32	212.36
828.64	212.30
828.95	212.47
829.27	212.28
829.58	212.29
829.90	212.33
830.22	212.33
830.53	212.28
830.85	212.23
831.17	212.07
831.48	212.10
831.80	212.10
832.11	212.14
832.43	212.12
832.75	212.10
833.06	212.38
833.38	212.25
833.69	212.19
834.01	212.17
834.32	212.18
834.64	212.16
834.96	212.15
835.27	212.18
835.59	212.03
835.90	211.97
836.22	211.90
836.53	211.86
836.85	211.85
837.16	212.15
837.48	212.14
837.79	212.28
838.11	212.27
838.42	212.24
838.74	212.22
839.05	212.22
839.37	212.15
839.68	211.88
840.00	211.86
840.31	211.87
840.63	211.80
840.94	211.79
841.26	211.75
841.57	211.74
841.88	211.81
842.20	211.77
842.51	211.77
842.83	211.77
843.14	212.08
843.46	212.05
843.77	211.87
844.08	211.88
844.40	211.75
844.71	211.67
845.03	211.69
845.34	211.68
845.65	211.69
845.97	211.76
846.28	211.76
846.60	211.76
846.91	211.65
847.22	211.65
847.54	211.67
847.85	211.69
848.16	211.64
848.48	211.52
848.79	211.70
849.10	211.73
849.42	211.76
849.73	211.43
850.04	211.45
850.36	211.35
850.67	211.43
850.98	211.45
851.30	211.53
851.61	211.51
851.92	211.50
852.23	211.57
852.55	211.58
852.86	211.60
853.17	211.60
853.49	211.81
853.80	211.91
854.11	211.97
854.42	211.94
854.74	211.89
855.05	211.90
855.36	211.64
855.67	211.64
855.99	211.66
856.30	212.03
856.61	211.99
856.92	211.94
857.23	211.86
857.55	211.81
857.86	211.74
858.17	211.76
858.48	211.70
858.79	211.59
859.11	211.65
859.42	211.63
859.73	211.67
860.04	211.54
860.35	211.35
860.66	211.20
860.98	211.22
861.29	211.23
861.60	211.14
861.91	211.22
862.22	211.15
862.53	211.07
862.84	210.65
863.16	210.69
863.47	210.71
863.78	210.70
864.09	210.72
864.40	210.76
864.71	210.78
865.02	210.85
865.33	210.82
865.64	210.69
865.95	210.71
866.27	210.87
866.58	210.90
866.89	211.03
867.20	211.04
867.51	211.02
867.82	210.96
868.13	211.06
868.44	211.00
868.75	211.05
869.06	211.07
869.37	211.16
869.68	211.05
869.99	211.01
870.30	210.95
870.61	210.98
870.92	210.92
871.23	210.88
871.54	210.90
871.85	211.01
872.16	211.05
872.47	210.97
872.78	210.73
873.09	210.74
873.40	210.60
873.71	210.69
874.02	210.68
874.33	210.71
874.64	210.67
874.95	210.79
875.26	210.76
875.56	210.76
875.87	210.71
876.18	210.70
876.49	211.07
876.80	211.18
877.11	211.16
877.42	211.17
877.73	211.26
878.04	211.21
878.35	211.20
878.66	211.22
878.96	211.25
879.27	211.20
879.58	211.16
879.89	211.22
880.20	211.27
880.51	211.24
880.82	211.29
881.12	211.34
881.43	211.23
881.74	211.13
882.05	211.16
882.36	211.25
882.67	211.36
882.97	210.98
883.28	210.87
883.59	210.85
883.90	210.90
884.21	210.91
884.51	210.85
884.82	210.79
885.13	210.79
885.44	210.82
885.74	210.89
886.05	210.87
886.36	210.86
886.67	210.76
886.98	210.99
887.28	211.00
887.59	211.04
887.90	211.10
888.20	211.09
888.51	211.09
888.82	210.98
889.13	210.95
889.43	211.18
889.74	211.25
890.05	211.23
890.35	211.18
890.66	211.11
890.97	211.13
891.28	211.18
891.58	211.20
891.89	211.20
892.20	211.10
892.50	211.14
892.81	211.12
893.12	211.10
893.42	210.93
893.73	210.87
894.04	210.84
894.34	210.83
894.65	210.87
894.95	210.82
895.26	210.84
895.57	211.06
895.87	210.81
896.18	210.82
896.48	210.81
896.79	210.85
897.10	210.91
897.40	210.99
897.71	210.94
898.01	210.84
898.32	210.85
898.63	210.98
898.93	210.97
899.24	210.99
899.54	210.96
899.85	210.94
900.15	211.02
900.46	210.99
900.76	210.98
901.07	210.92
901.38	210.99
901.68	211.08
901.99	210.90
902.29	210.89
902.60	210.82
902.90	210.90
903.21	210.89
903.51	210.82
903.82	210.81
904.12	210.85
904.43	210.97
904.73	210.95
905.03	210.89
905.34	211.18
905.64	211.14
905.95	211.15
906.25	211.20
906.56	211.17
906.86	211.14
907.17	211.16
907.47	211.23
907.77	211.15
908.08	211.10
908.38	211.10
908.69	211.13
908.99	211.26
909.30	211.32
909.60	211.29
909.90	211.30
910.21	211.22
910.51	211.20
910.81	211.16
911.12	211.20
911.42	211.26
911.73	210.95
912.03	210.98
912.33	211.15
912.64	211.12
912.94	211.09
913.24	211.06
913.55	211.00
913.85	210.96
914.15	211.02
914.46	211.06
914.76	210.99
915.06	211.00
915.37	210.88
915.67	210.82
915.97	210.79
916.27	210.75
916.58	210.78
916.88	210.79
917.18	210.74
917.49	210.97
917.79	210.91
918.09	210.96
918.39	211.05
918.70	210.96
919.00	210.99
919.30	211.13
919.60	211.15
919.91	211.12
920.21	211.20
920.51	211.15
920.81	211.09
921.12	211.21
921.42	211.15
921.72	211.25
922.02	211.27
922.32	211.36
922.63	211.40
922.93	211.58
923.23	211.62
923.53	211.66
923.83	211.41
924.13	211.50
924.44	211.52
924.74	211.60
925.04	211.61
925.34	211.64
925.64	211.50
925.94	211.51
926.24	211.69
926.55	211.60
926.85	211.65
927.15	211.65
927.45	211.57
927.75	211.67
928.05	211.63
928.35	211.61
928.65	211.62
928.95	211.63
929.26	211.48
929.56	211.48
929.86	211.49
930.16	211.49
930.46	211.51
930.76	211.45
931.06	211.25
931.36	211.20
931.66	211.20
931.96	211.21
932.26	211.25
932.56	211.09
932.86	211.20
933.16	211.24
933.46	211.21
933.76	211.18
934.06	211.20
934.36	211.35
934.66	211.24
934.96	211.21
935.26	211.24
935.56	211.32
935.86	211.22
936.16	211.15
936.46	211.08
936.76	211.01
937.06	210.99
937.36	210.99
937.66	211.06
937.96	211.06
938.26	211.02
938.56	210.90
938.86	211.02
939.16	211.02
939.46	211.06
939.76	211.12
940.06	211.13
940.35	211.01
940.65	210.77
940.95	210.80
941.25	210.74
941.55	210.68
941.85	210.64
942.15	210.76
942.45	210.84
942.75	210.86
943.04	210.91
943.34	210.95
943.64	210.94
943.94	210.79
944.24	210.76
944.54	210.83
944.84	210.92
945.13	210.78
945.43	210.70
945.73	210.67
946.03	210.57
946.33	210.54
946.62	210.52
946.92	210.56
947.22	210.64
947.52	210.60
947.82	210.66
948.11	210.60
948.41	210.52
948.71	210.45
949.01	210.47
949.31	210.40
949.60	210.39
949.90	210.41
950.20	210.48
950.50	210.48
950.79	210.38
951.09	210.39
951.39	210.42
951.69	210.41
951.98	210.43
952.28	210.46
952.58	210.46
952.87	210.54
953.17	210.68
953.47	210.69
953.76	210.78
954.06	210.75
954.36	210.70
954.66	210.68
954.95	210.76
955.25	210.71
955.55	210.76
955.84	210.69
956.14	210.76
956.44	210.72
956.73	210.67
957.03	210.82
957.32	210.81
957.62	210.83
957.92	210.88
958.21	210.86
958.51	211.29
958.81	211.27
959.10	211.20
959.40	211.19
959.69	211.17
959.99	211.11
960.29	211.10
960.58	211.04
960.88	211.15
961.17	211.09
961.47	211.19
961.76	211.14
962.06	211.21
962.36	211.21
962.65	211.33
962.95	211.26
963.24	211.11
963.54	211.06
963.83	211.05
964.13	211.04
964.42	210.98
964.72	210.66
965.01	210.75
965.31	210.79
965.60	210.72
965.90	210.91
966.19	210.83
966.49	210.82
966.78	210.83
967.08	210.74
967.37	210.82
967.67	210.72
967.96	210.75
968.26	210.71
968.55	210.68
968.85	210.58
969.14	210.68
969.43	210.69
969.73	210.70
970.02	210.68
970.32	210.67
970.61	210.62
970.91	210.54
971.20	210.45
971.49	210.47
971.79	210.40
972.08	210.10
972.38	210.17
972.67	210.16
972.96	210.24
973.26	210.29
973.55	210.40
973.85	210.43
974.14	210.40
974.43	210.45
974.73	210.44
975.02	210.45
975.31	210.37
975.61	210.37
975.90	210.33
976.19	210.36
976.49	210.40
976.78	210.53
977.07	210.53
977.37	210.59
977.66	210.60
977.95	210.61
978.24	210.67
978.54	210.83
978.83	210.85
979.12	210.91
979.42	210.87
979.71	210.72
980.00	210.74
980.29	210.77
980.59	210.78
980.88	210.89
981.17	210.88
981.46	210.96
981.76	211.01
982.05	211.16
982.34	211.14
982.63	211.16
982.93	211.10
983.22	211.23
983.51	211.23
983.80	211.30
984.09	211.38
984.39	211.44
984.68	211.32
984.97	211.36
985.26	211.31
985.55	211.37
985.85	211.40
986.14	211.48
986.43	211.54
986.72	211.45
987.01	211.35
987.30	211.34
987.59	211.27
987.89	211.27
988.18	211.19
988.47	211.20
988.76	211.18
989.05	211.19
989.34	211.12
989.63	211.22
989.92	211.15
990.22	211.10
990.51	211.08
990.80	211.03
991.09	211.02
991.38	211.05
991.67	210.99
991.96	210.90
992.25	210.81
992.54	210.82
992.83	210.90
993.12	210.86
993.41	210.87
993.70	211.05
993.99	211.16
994.28	211.22
994.58	211.30
994.87	211.19
995.16	211.18
995.45	211.19
995.74	211.02
996.03	211.04
996.32	211.11
996.61	211.14
996.90	211.21
997.19	211.13
997.48	211.13
997.77	211.09
998.06	211.15
998.34	211.10
998.63	211.06
998.92	210.99
999.21	211.00
999.50	211.10
999.79	211.00
1000.08	210.88
1000.37	210.85
1000.66	210.72
1000.95	210.88
1001.24	210.87
1001.53	210.82
1001.82	210.85
1002.11	210.80
1002.40	210.76
1002.68	210.82
1002.97	210.98
1003.26	210.96
1003.55	210.93
1003.84	210.92
1004.13	211.01
1004.42	211.08
1004.71	211.04
1004.99	211.11
1005.28	211.25
1005.57	211.16
1005.86	211.14
1006.15	211.15
1006.44	211.07
1006.72	211.19
1007.01	211.08
1007.30	211.05
1007.59	211.12
1007.88	211.14
1008.17	211.17
1008.45	211.10
1008.74	210.89
1009.03	210.78
1009.32	210.85
1009.60	210.86
1009.89	210.85
1010.18	210.72
1010.47	210.70
1010.76	210.75
1011.04	210.73
1011.33	210.73
1011.62	210.73
1011.91	210.70
1012.19	210.78
1012.48	210.78
1012.77	210.68
1013.05	210.87
1013.34	210.85
1013.63	210.72
1013.92	210.73
1014.20	210.67
1014.49	210.67
1014.78	210.81
1015.06	210.70
1015.35	210.66
1015.64	210.65
1015.92	210.72
1016.21	210.80
1016.50	210.79
1016.78	210.88
1017.07	210.91
1017.36	210.89
1017.64	210.86
1017.93	210.87
1018.22	210.81
1018.50	210.88
1018.79	210.89
1019.08	210.71
1019.36	210.76
1019.65	210.78
1019.93	210.92
1020.22	210.96
1020.51	211.13
1020.79	211.04
1021.08	210.80
1021.36	211.20
1021.65	210.05
1021.94	210.55
1022.22	210.90
1022.51	210.00
1022.79	213.30
1023.08	210.70
1023.36	214.00
1023.65	209.25
>>>>>End Processed Spectral Data<<<<<
