SpectraSuite Data File
++++++++++++++++++++++++++++++++++++
Date: Mon Feb 25 17:15:26 EST 2013
User: group
Dark Spectrum Present: No
Reference Spectrum Present: No
Number of Sampled Component Spectra: 1
Spectrometers: USB2E7196
Integration Time (usec): 104000 (USB2E7196)
Spectra Averaged: 20 (USB2E7196)
Boxcar Smoothing: 10 (USB2E7196)
Correct for Electrical Dark: No (USB2E7196)
Strobe/Lamp Enabled: No (USB2E7196)
Correct for Detector Non-linearity: No (USB2E7196)
Correct for Stray Light: No (USB2E7196)
Number of Pixels in Processed Spectrum: 2048
>>>>>Begin Processed Spectral Data<<<<<
339.09	0.00
339.48	198.00
339.86	199.45
340.24	201.65
340.63	202.00
341.01	210.00
341.39	206.35
341.78	207.35
342.16	208.65
342.54	208.10
342.93	198.13
343.31	208.14
343.69	208.68
344.07	209.13
344.46	209.63
344.84	210.02
345.22	210.09
345.60	210.33
345.99	210.56
346.37	210.75
346.75	210.89
347.13	210.97
347.52	211.01
347.90	211.22
348.28	211.20
348.66	211.36
349.05	211.30
349.43	211.41
349.81	211.47
350.19	211.63
350.57	211.69
350.96	211.87
351.34	211.99
351.72	212.19
352.10	212.36
352.48	212.36
352.87	212.53
353.25	212.54
353.63	212.59
354.01	212.64
354.39	212.72
354.77	212.85
355.15	213.01
355.54	213.09
355.92	213.05
356.30	213.17
356.68	213.45
357.06	213.57
357.44	213.69
357.82	213.78
358.20	213.82
358.58	213.87
358.97	213.82
359.35	213.97
359.73	214.01
360.11	214.05
360.49	214.14
360.87	214.10
361.25	214.19
361.63	214.34
362.01	214.39
362.39	214.35
362.77	214.33
363.15	214.40
363.53	214.35
363.91	214.37
364.29	214.45
364.67	214.10
365.05	214.10
365.43	214.02
365.81	214.01
366.19	214.25
366.57	214.45
366.95	214.49
367.33	214.38
367.71	214.41
368.09	214.52
368.47	214.49
368.85	214.50
369.23	214.55
369.61	214.49
369.99	214.56
370.37	214.56
370.75	214.77
371.13	214.58
371.51	214.51
371.89	214.54
372.27	214.48
372.65	214.53
373.03	214.41
373.41	214.40
373.78	214.40
374.16	214.06
374.54	213.85
374.92	213.76
375.30	213.76
375.68	213.57
376.06	213.49
376.44	213.44
376.82	213.40
377.19	213.37
377.57	213.26
377.95	213.07
378.33	213.05
378.71	212.74
379.09	212.74
379.47	212.73
379.84	212.61
380.22	212.48
380.60	212.35
380.98	212.38
381.36	212.26
381.73	212.15
382.11	212.22
382.49	212.17
382.87	212.09
383.25	212.01
383.62	212.36
384.00	212.26
384.38	212.22
384.76	212.30
385.13	212.31
385.51	212.31
385.89	212.23
386.27	212.15
386.64	212.20
387.02	212.12
387.40	212.09
387.78	212.13
388.15	212.06
388.53	212.03
388.91	211.99
389.29	212.00
389.66	212.05
390.04	211.95
390.42	211.97
390.79	211.94
391.17	211.92
391.55	211.56
391.92	211.51
392.30	211.54
392.68	211.42
393.05	211.45
393.43	211.39
393.81	211.46
394.18	211.46
394.56	211.50
394.94	211.67
395.31	211.65
395.69	211.72
396.06	211.84
396.44	211.87
396.82	211.86
397.19	212.05
397.57	212.03
397.95	212.16
398.32	212.11
398.70	212.22
399.07	212.29
399.45	212.40
399.82	212.37
400.20	212.39
400.58	212.39
400.95	212.26
401.33	212.40
401.70	212.65
402.08	212.69
402.45	212.72
402.83	212.82
403.20	212.92
403.58	212.88
403.95	213.02
404.33	213.15
404.71	213.21
405.08	213.48
405.46	213.55
405.83	213.58
406.21	213.72
406.58	213.83
406.96	213.95
407.33	214.06
407.70	214.34
408.08	214.76
408.45	215.07
408.83	215.36
409.20	215.49
409.58	215.51
409.95	215.81
410.33	216.04
410.70	216.23
411.08	216.49
411.45	216.79
411.82	217.07
412.20	217.42
412.57	217.97
412.95	218.08
413.32	218.63
413.69	219.06
414.07	219.54
414.44	220.05
414.82	220.63
415.19	221.25
415.56	221.88
415.94	222.37
416.31	223.15
416.68	223.88
417.06	224.83
417.43	225.79
417.81	226.78
418.18	227.80
418.55	228.86
418.93	230.07
419.30	231.29
419.67	232.45
420.04	233.71
420.42	234.99
420.79	236.73
421.16	238.23
421.54	239.99
421.91	241.71
422.28	243.45
422.66	245.21
423.03	247.22
423.40	249.03
423.77	251.00
424.15	252.88
424.52	254.94
424.89	257.22
425.26	259.29
425.64	261.28
426.01	263.56
426.38	265.96
426.75	268.45
427.13	270.85
427.50	273.47
427.87	276.29
428.24	279.04
428.61	281.42
428.99	284.32
429.36	287.31
429.73	290.31
430.10	293.43
430.47	296.59
430.85	299.70
431.22	303.20
431.59	307.07
431.96	310.60
432.33	314.46
432.70	318.17
433.08	322.47
433.45	326.57
433.82	330.68
434.19	335.16
434.56	339.51
434.93	343.80
435.30	348.09
435.68	352.72
436.05	357.27
436.42	361.85
436.79	366.02
437.16	370.52
437.53	375.22
437.90	379.71
438.27	384.26
438.64	388.96
439.01	393.40
439.38	397.18
439.75	401.05
440.13	405.35
440.50	409.43
440.87	412.85
441.24	416.37
441.61	420.19
441.98	422.93
442.35	426.10
442.72	429.47
443.09	432.75
443.46	434.64
443.83	435.95
444.20	437.17
444.57	438.65
444.94	439.44
445.31	440.25
445.68	441.43
446.05	441.86
446.42	441.27
446.79	440.77
447.16	439.98
447.53	439.47
447.90	437.59
448.27	435.70
448.64	433.16
449.01	431.31
449.37	428.10
449.74	424.85
450.11	421.53
450.48	417.44
450.85	413.26
451.22	409.62
451.59	406.28
451.96	403.01
452.33	398.85
452.70	394.94
453.07	390.33
453.43	385.40
453.80	380.85
454.17	376.56
454.54	372.34
454.91	368.11
455.28	363.72
455.65	359.86
456.02	356.42
456.38	353.06
456.75	348.95
457.12	345.40
457.49	342.19
457.86	338.62
458.23	335.95
458.59	332.85
458.96	329.80
459.33	326.95
459.70	324.23
460.07	322.05
460.43	319.49
460.80	317.23
461.17	315.26
461.54	313.11
461.91	311.10
462.27	309.09
462.64	307.22
463.01	305.37
463.38	303.63
463.74	301.29
464.11	299.67
464.48	298.24
464.85	296.75
465.21	295.57
465.58	294.29
465.95	292.61
466.32	291.35
466.68	290.13
467.05	288.95
467.42	287.68
467.78	286.36
468.15	285.25
468.52	284.33
468.88	283.05
469.25	282.02
469.62	281.28
469.98	280.31
470.35	279.58
470.72	278.83
471.08	277.88
471.45	277.20
471.82	276.62
472.18	275.86
472.55	275.36
472.92	274.74
473.28	274.27
473.65	273.87
474.02	273.41
474.38	273.04
474.75	272.78
475.11	272.44
475.48	272.33
475.85	272.13
476.21	271.94
476.58	271.88
476.94	271.88
477.31	271.85
477.67	271.84
478.04	271.76
478.41	271.86
478.77	272.32
479.14	272.39
479.50	272.50
479.87	272.75
480.23	273.00
480.60	273.23
480.96	273.45
481.33	273.93
481.69	274.27
482.06	274.78
482.42	275.26
482.79	275.85
483.15	276.44
483.52	277.19
483.88	277.88
484.25	278.58
484.61	279.35
484.98	280.14
485.34	281.27
485.71	282.42
486.07	283.62
486.44	284.36
486.80	285.67
487.17	286.99
487.53	288.62
487.90	290.26
488.26	292.14
488.62	294.04
488.99	295.80
489.35	297.84
489.72	299.81
490.08	301.92
490.44	304.06
490.81	306.47
491.17	308.80
491.54	311.46
491.90	314.33
492.26	317.26
492.63	320.29
492.99	323.45
493.36	326.77
493.72	330.21
494.08	333.91
494.45	337.82
494.81	341.82
495.17	345.80
495.54	350.15
495.90	354.44
496.26	359.06
496.63	363.92
496.99	368.99
497.35	374.37
497.72	379.86
498.08	385.54
498.44	391.49
498.80	397.86
499.17	404.40
499.53	410.95
499.89	418.09
500.26	425.25
500.62	432.43
500.98	440.12
501.34	448.08
501.71	456.50
502.07	464.93
502.43	473.56
502.79	482.47
503.16	491.67
503.52	501.15
503.88	510.91
504.24	520.80
504.60	531.00
504.97	541.44
505.33	552.23
505.69	563.77
506.05	575.36
506.41	587.02
506.78	598.67
507.14	610.93
507.50	623.24
507.86	636.03
508.22	649.12
508.59	662.33
508.95	675.90
509.31	689.52
509.67	703.67
510.03	718.38
510.39	733.33
510.75	748.30
511.12	763.65
511.48	779.06
511.84	795.02
512.20	811.05
512.56	827.38
512.92	843.98
513.28	860.56
513.64	877.24
514.00	894.27
514.37	911.65
514.73	929.01
515.09	946.84
515.45	964.46
515.81	982.48
516.17	1000.35
516.53	1018.56
516.89	1036.66
517.25	1054.81
517.61	1072.88
517.97	1091.01
518.33	1109.55
518.69	1128.12
519.05	1146.91
519.41	1165.93
519.77	1185.08
520.13	1203.80
520.49	1222.45
520.85	1241.38
521.21	1260.58
521.57	1279.74
521.93	1298.43
522.29	1318.03
522.65	1336.93
523.01	1356.03
523.37	1374.31
523.73	1393.41
524.09	1412.09
524.45	1431.34
524.81	1450.30
525.17	1469.40
525.53	1488.23
525.89	1506.99
526.25	1525.54
526.61	1543.37
526.97	1561.04
527.33	1578.77
527.68	1597.03
528.04	1614.70
528.40	1631.73
528.76	1648.79
529.12	1666.31
529.48	1684.45
529.84	1701.36
530.20	1718.40
530.56	1735.51
530.91	1753.20
531.27	1770.08
531.63	1786.84
531.99	1803.07
532.35	1818.95
532.71	1834.55
533.07	1850.83
533.42	1866.17
533.78	1881.71
534.14	1897.28
534.50	1911.72
534.86	1926.62
535.21	1940.63
535.57	1955.30
535.93	1969.40
536.29	1983.26
536.65	1996.70
537.00	2009.28
537.36	2021.78
537.72	2033.93
538.08	2046.11
538.44	2058.20
538.79	2070.11
539.15	2081.70
539.51	2093.21
539.87	2105.26
540.22	2116.74
540.58	2127.86
540.94	2138.58
541.29	2148.45
541.65	2157.90
542.01	2167.86
542.37	2177.04
542.72	2186.32
543.08	2194.99
543.44	2204.32
543.79	2212.12
544.15	2219.88
544.51	2228.25
544.87	2236.41
545.22	2243.70
545.58	2249.87
545.94	2255.69
546.29	2261.43
546.65	2266.82
547.01	2271.96
547.36	2276.80
547.72	2281.36
548.07	2285.08
548.43	2288.86
548.79	2292.37
549.14	2295.97
549.50	2299.47
549.86	2302.27
550.21	2304.94
550.57	2307.88
550.92	2309.38
551.28	2311.20
551.64	2312.60
551.99	2314.26
552.35	2315.00
552.70	2316.55
553.06	2318.33
553.41	2319.61
553.77	2320.34
554.13	2321.08
554.48	2321.93
554.84	2322.39
555.19	2322.04
555.55	2321.42
555.90	2320.70
556.26	2320.25
556.61	2319.15
556.97	2317.47
557.32	2316.62
557.68	2314.94
558.03	2312.88
558.39	2311.35
558.74	2311.21
559.10	2310.52
559.45	2308.39
559.81	2307.24
560.16	2304.79
560.52	2302.65
560.87	2300.39
561.23	2297.54
561.58	2295.47
561.94	2291.86
562.29	2288.06
562.64	2285.33
563.00	2282.97
563.35	2280.88
563.71	2278.89
564.06	2276.61
564.42	2274.53
564.77	2272.10
565.12	2269.86
565.48	2267.42
565.83	2264.78
566.19	2261.90
566.54	2257.60
566.89	2253.66
567.25	2250.49
567.60	2247.14
567.96	2243.31
568.31	2239.78
568.66	2236.15
569.02	2231.63
569.37	2227.34
569.72	2223.88
570.08	2219.40
570.43	2214.57
570.78	2209.15
571.14	2203.26
571.49	2197.45
571.84	2192.63
572.20	2186.42
572.55	2181.01
572.90	2174.78
573.26	2168.47
573.61	2161.77
573.96	2156.05
574.31	2149.39
574.67	2141.69
575.02	2134.51
575.37	2127.64
575.72	2119.89
576.08	2113.18
576.43	2105.93
576.78	2099.29
577.13	2092.37
577.49	2085.72
577.84	2078.74
578.19	2072.46
578.54	2066.52
578.90	2061.11
579.25	2054.12
579.60	2046.99
579.95	2039.44
580.30	2032.92
580.66	2026.61
581.01	2019.17
581.36	2011.74
581.71	2004.79
582.06	1998.06
582.42	1991.30
582.77	1983.85
583.12	1977.05
583.47	1970.62
583.82	1964.24
584.17	1957.52
584.53	1950.61
584.88	1943.90
585.23	1937.19
585.58	1930.18
585.93	1923.09
586.28	1916.05
586.63	1908.77
586.98	1902.40
587.34	1896.21
587.69	1889.52
588.04	1882.73
588.39	1876.46
588.74	1869.36
589.09	1863.10
589.44	1856.12
589.79	1849.66
590.14	1843.64
590.49	1837.04
590.84	1830.39
591.19	1824.19
591.54	1817.60
591.89	1809.85
592.25	1802.70
592.60	1795.44
592.95	1788.19
593.30	1780.40
593.65	1772.71
594.00	1765.75
594.35	1760.43
594.70	1753.18
595.05	1746.07
595.40	1739.13
595.75	1731.65
596.10	1725.57
596.45	1719.25
596.80	1713.38
597.15	1707.25
597.50	1700.53
597.85	1694.40
598.19	1687.27
598.54	1680.54
598.89	1674.30
599.24	1668.92
599.59	1662.98
599.94	1657.46
600.29	1651.51
600.64	1645.57
600.99	1639.36
601.34	1633.70
601.69	1626.09
602.04	1619.73
602.39	1613.67
602.74	1607.83
603.08	1602.50
603.43	1597.02
603.78	1590.70
604.13	1584.44
604.48	1578.07
604.83	1572.87
605.18	1567.69
605.53	1561.78
605.87	1555.58
606.22	1549.72
606.57	1543.37
606.92	1537.12
607.27	1530.75
607.62	1524.44
607.96	1518.62
608.31	1513.26
608.66	1506.64
609.01	1500.11
609.36	1493.75
609.70	1486.78
610.05	1479.88
610.40	1473.15
610.75	1466.18
611.10	1459.81
611.44	1452.29
611.79	1445.19
612.14	1437.34
612.49	1429.39
612.83	1422.36
613.18	1414.68
613.53	1407.20
613.88	1399.53
614.22	1392.32
614.57	1384.89
614.92	1377.58
615.27	1370.18
615.61	1362.50
615.96	1355.47
616.31	1348.95
616.65	1342.68
617.00	1336.14
617.35	1329.15
617.70	1321.92
618.04	1314.26
618.39	1306.55
618.74	1299.94
619.08	1292.93
619.43	1286.20
619.78	1279.31
620.12	1272.49
620.47	1266.08
620.82	1259.01
621.16	1252.06
621.51	1245.09
621.85	1238.44
622.20	1231.59
622.55	1224.47
622.89	1217.32
623.24	1210.16
623.59	1202.60
623.93	1195.19
624.28	1188.39
624.62	1181.70
624.97	1174.95
625.32	1168.50
625.66	1162.35
626.01	1155.76
626.35	1149.60
626.70	1143.16
627.04	1137.03
627.39	1130.78
627.73	1124.40
628.08	1118.25
628.43	1111.60
628.77	1105.23
629.12	1098.48
629.46	1092.62
629.81	1086.74
630.15	1080.84
630.50	1074.73
630.84	1068.54
631.19	1062.34
631.53	1056.38
631.88	1049.76
632.22	1043.38
632.57	1037.35
632.91	1031.12
633.26	1024.98
633.60	1018.76
633.95	1012.94
634.29	1006.71
634.64	1000.74
634.98	994.60
635.32	988.99
635.67	983.83
636.01	978.22
636.36	972.66
636.70	966.81
637.05	961.08
637.39	955.35
637.73	950.14
638.08	945.33
638.42	940.26
638.77	934.85
639.11	929.70
639.45	924.24
639.80	918.65
640.14	912.94
640.49	907.40
640.83	901.79
641.17	896.26
641.52	890.75
641.86	885.04
642.20	879.88
642.55	873.84
642.89	868.36
643.23	862.70
643.58	857.60
643.92	852.05
644.26	846.52
644.61	841.24
644.95	835.74
645.29	830.26
645.64	824.73
645.98	819.14
646.32	814.16
646.66	808.99
647.01	803.92
647.35	799.00
647.69	793.91
648.04	788.90
648.38	783.59
648.72	778.39
649.06	773.18
649.41	767.92
649.75	763.05
650.09	758.05
650.43	753.06
650.78	747.62
651.12	742.35
651.46	737.39
651.80	732.57
652.14	727.53
652.49	722.36
652.83	717.37
653.17	712.36
653.51	707.11
653.85	702.44
654.20	697.63
654.54	692.69
654.88	687.80
655.22	682.95
655.56	678.05
655.90	673.51
656.25	668.77
656.59	664.13
656.93	659.54
657.27	654.94
657.61	650.20
657.95	645.91
658.29	641.63
658.64	637.50
658.98	632.83
659.32	628.35
659.66	623.97
660.00	619.38
660.34	614.97
660.68	610.55
661.02	605.98
661.36	601.84
661.70	597.73
662.05	593.75
662.39	589.99
662.73	586.21
663.07	582.34
663.41	578.67
663.75	574.75
664.09	570.95
664.43	566.97
664.77	563.20
665.11	559.37
665.45	555.75
665.79	551.95
666.13	548.33
666.47	544.84
666.81	541.29
667.15	537.86
667.49	534.76
667.83	531.68
668.17	528.54
668.51	525.39
668.85	522.22
669.19	519.13
669.53	515.83
669.87	512.54
670.21	509.32
670.55	506.15
670.89	503.39
671.23	500.42
671.57	497.58
671.91	494.68
672.25	491.86
672.58	488.93
672.92	485.94
673.26	483.23
673.60	480.54
673.94	477.80
674.28	475.08
674.62	472.25
674.96	469.36
675.30	466.72
675.64	463.89
675.97	461.21
676.31	458.55
676.65	455.90
676.99	453.64
677.33	450.97
677.67	448.49
678.01	445.78
678.34	443.34
678.68	440.94
679.02	438.41
679.36	435.92
679.70	433.51
680.04	431.14
680.37	428.69
680.71	426.27
681.05	424.07
681.39	421.82
681.73	419.59
682.06	417.57
682.40	415.34
682.74	413.09
683.08	410.99
683.42	408.73
683.75	406.55
684.09	404.19
684.43	402.16
684.77	399.94
685.10	397.82
685.44	395.59
685.78	393.47
686.12	391.68
686.45	389.69
686.79	387.64
687.13	385.87
687.46	384.10
687.80	382.27
688.14	380.23
688.48	378.51
688.81	376.58
689.15	374.59
689.49	372.61
689.82	370.80
690.16	368.80
690.50	367.00
690.83	365.20
691.17	363.26
691.51	361.42
691.84	359.81
692.18	358.08
692.52	356.40
692.85	354.89
693.19	353.34
693.52	351.66
693.86	350.02
694.20	348.32
694.53	346.62
694.87	344.95
695.21	343.36
695.54	341.75
695.88	340.14
696.21	338.57
696.55	337.15
696.88	335.66
697.22	334.13
697.56	332.63
697.89	331.14
698.23	329.77
698.56	328.31
698.90	326.88
699.23	325.46
699.57	324.11
699.90	322.65
700.24	321.15
700.58	319.77
700.91	318.58
701.25	317.47
701.58	316.20
701.92	314.90
702.25	313.66
702.59	312.30
702.92	311.08
703.26	309.90
703.59	308.67
703.93	307.82
704.26	306.71
704.60	305.64
704.93	304.54
705.26	303.41
705.60	302.48
705.93	301.33
706.27	300.38
706.60	299.40
706.94	298.44
707.27	297.30
707.61	296.26
707.94	295.18
708.27	294.03
708.61	293.03
708.94	292.12
709.28	291.14
709.61	290.17
709.94	289.30
710.28	288.36
710.61	287.59
710.95	286.33
711.28	285.70
711.61	284.79
711.95	283.97
712.28	283.16
712.61	282.28
712.95	281.73
713.28	281.05
713.61	280.14
713.95	279.34
714.28	278.65
714.61	277.95
714.95	277.22
715.28	276.32
715.61	275.51
715.95	274.73
716.28	274.02
716.61	273.38
716.95	272.61
717.28	271.90
717.61	271.22
717.94	270.48
718.28	269.57
718.61	268.92
718.94	268.25
719.27	267.52
719.61	266.91
719.94	266.17
720.27	265.29
720.60	264.68
720.94	263.97
721.27	263.41
721.60	262.82
721.93	262.23
722.27	261.89
722.60	261.43
722.93	260.94
723.26	260.45
723.59	259.95
723.93	259.50
724.26	258.98
724.59	258.40
724.92	258.07
725.25	257.63
725.59	257.13
725.92	256.74
726.25	256.40
726.58	255.95
726.91	255.36
727.24	255.09
727.57	254.61
727.91	254.17
728.24	253.72
728.57	253.26
728.90	252.95
729.23	252.34
729.56	252.00
729.89	251.49
730.22	251.03
730.55	250.56
730.89	250.06
731.22	249.61
731.55	249.21
731.88	248.73
732.21	248.32
732.54	247.96
732.87	247.53
733.20	247.05
733.53	246.60
733.86	246.27
734.19	245.77
734.52	245.46
734.85	245.37
735.18	244.96
735.51	244.73
735.84	244.24
736.17	243.96
736.50	243.45
736.83	243.50
737.16	243.12
737.49	242.70
737.82	242.40
738.15	242.08
738.48	241.81
738.81	241.53
739.14	241.12
739.47	240.69
739.80	240.36
740.13	240.08
740.46	239.74
740.79	239.37
741.12	239.02
741.45	238.56
741.78	237.92
742.11	237.67
742.44	237.30
742.77	237.03
743.10	236.72
743.43	236.40
743.75	235.70
744.08	235.83
744.41	235.50
744.74	235.13
745.07	234.76
745.40	234.52
745.73	234.34
746.06	234.08
746.39	233.83
746.71	233.55
747.04	233.31
747.37	233.03
747.70	232.84
748.03	232.62
748.36	232.53
748.68	232.44
749.01	232.13
749.34	231.91
749.67	231.73
750.00	231.52
750.33	231.53
750.65	231.34
750.98	230.66
751.31	230.50
751.64	230.41
751.97	230.46
752.29	230.13
752.62	229.76
752.95	229.55
753.28	229.35
753.60	229.13
753.93	228.96
754.26	228.79
754.59	228.49
754.91	228.25
755.24	228.00
755.57	227.79
755.90	227.65
756.22	227.39
756.55	227.24
756.88	226.98
757.20	226.63
757.53	226.37
757.86	226.25
758.19	226.19
758.51	226.02
758.84	225.63
759.17	225.44
759.49	225.32
759.82	225.34
760.15	225.20
760.47	225.06
760.80	224.84
761.13	224.76
761.45	224.65
761.78	224.50
762.11	224.36
762.43	224.16
762.76	223.96
763.08	223.80
763.41	223.60
763.74	223.57
764.06	223.47
764.39	223.42
764.71	223.30
765.04	223.07
765.37	222.84
765.69	222.75
766.02	222.71
766.34	222.54
766.67	222.27
767.00	222.24
767.32	222.28
767.65	222.34
767.97	222.18
768.30	222.04
768.62	221.93
768.95	221.81
769.27	221.68
769.60	221.60
769.92	221.54
770.25	221.39
770.57	221.20
770.90	221.06
771.22	220.87
771.55	220.81
771.87	220.70
772.20	220.60
772.52	220.71
772.85	221.04
773.17	221.03
773.50	220.92
773.82	220.76
774.15	220.47
774.47	220.10
774.80	219.98
775.12	219.93
775.45	219.78
775.77	219.71
776.09	219.66
776.42	219.57
776.74	219.54
777.07	219.46
777.39	219.35
777.72	219.16
778.04	219.10
778.36	218.98
778.69	218.90
779.01	218.89
779.33	218.67
779.66	218.19
779.98	218.01
780.31	217.91
780.63	217.87
780.95	217.87
781.28	217.90
781.60	217.75
781.92	217.66
782.25	217.69
782.57	217.67
782.89	217.58
783.22	217.53
783.54	217.38
783.86	217.30
784.19	217.21
784.51	217.27
784.83	217.17
785.16	217.08
785.48	217.07
785.80	216.97
786.12	216.88
786.45	216.79
786.77	216.84
787.09	216.76
787.42	216.61
787.74	216.59
788.06	216.57
788.38	216.56
788.71	216.49
789.03	216.45
789.35	216.45
789.67	216.31
789.99	216.18
790.32	216.10
790.64	216.11
790.96	216.40
791.28	216.25
791.61	216.28
791.93	216.27
792.25	216.11
792.57	216.26
792.89	216.21
793.21	216.21
793.54	216.04
793.86	215.98
794.18	216.01
794.50	215.95
794.82	215.88
795.14	215.89
795.47	215.90
795.79	215.84
796.11	215.72
796.43	215.69
796.75	215.68
797.07	215.68
797.39	215.67
797.71	215.34
798.04	215.37
798.36	215.32
798.68	215.32
799.00	215.36
799.32	215.17
799.64	215.10
799.96	215.13
800.28	215.24
800.60	215.20
800.92	215.17
801.24	215.08
801.56	215.05
801.89	214.99
802.21	214.97
802.53	214.87
802.85	214.89
803.17	215.04
803.49	214.97
803.81	214.94
804.13	214.87
804.45	214.79
804.77	214.71
805.09	214.65
805.41	214.51
805.73	214.43
806.05	214.37
806.37	214.36
806.69	214.21
807.01	214.15
807.33	214.11
807.65	214.05
807.97	214.15
808.28	214.14
808.60	214.08
808.92	213.98
809.24	214.19
809.56	214.15
809.88	213.99
810.20	214.11
810.52	214.17
810.84	214.04
811.16	214.02
811.48	214.04
811.80	214.21
812.12	214.24
812.43	214.34
812.75	214.34
813.07	214.24
813.39	214.24
813.71	214.21
814.03	214.20
814.35	214.11
814.67	213.93
814.98	213.82
815.30	213.86
815.62	213.84
815.94	213.54
816.26	213.51
816.58	213.44
816.89	213.39
817.21	213.27
817.53	213.27
817.85	213.26
818.17	213.26
818.48	213.10
818.80	213.09
819.12	212.95
819.44	212.90
819.76	212.90
820.07	212.94
820.39	212.84
820.71	212.91
821.03	212.93
821.34	212.95
821.66	213.02
821.98	213.02
822.30	213.02
822.61	213.28
822.93	213.21
823.25	213.18
823.57	213.11
823.88	213.15
824.20	213.17
824.52	213.25
824.83	213.19
825.15	213.11
825.47	213.10
825.79	213.14
826.10	213.07
826.42	213.03
826.74	212.99
827.05	212.98
827.37	212.96
827.69	212.97
828.00	212.94
828.32	212.91
828.64	212.86
828.95	212.98
829.27	212.86
829.58	212.90
829.90	212.99
830.22	213.00
830.53	212.98
830.85	212.92
831.17	212.86
831.48	212.82
831.80	212.86
832.11	212.91
832.43	212.82
832.75	212.85
833.06	213.09
833.38	213.00
833.69	213.01
834.01	212.98
834.32	212.90
834.64	212.93
834.96	212.95
835.27	212.89
835.59	212.89
835.90	212.85
836.22	212.86
836.53	212.78
836.85	212.80
837.16	213.08
837.48	213.12
837.79	213.17
838.11	213.19
838.42	213.13
838.74	213.04
839.05	213.07
839.37	213.02
839.68	212.74
840.00	212.72
840.31	212.75
840.63	212.75
840.94	212.83
841.26	212.77
841.57	212.70
841.88	212.72
842.20	212.55
842.51	212.39
842.83	212.31
843.14	212.60
843.46	212.54
843.77	212.40
844.08	212.40
844.40	212.25
844.71	212.19
845.03	212.10
845.34	212.14
845.65	212.09
845.97	212.07
846.28	212.12
846.60	212.10
846.91	212.03
847.22	211.94
847.54	211.88
847.85	211.90
848.16	211.84
848.48	211.80
848.79	212.04
849.10	212.16
849.42	212.17
849.73	211.90
850.04	211.78
850.36	211.60
850.67	211.65
850.98	211.69
851.30	211.77
851.61	211.85
851.92	211.83
852.23	211.95
852.55	212.00
852.86	212.03
853.17	212.08
853.49	212.16
853.80	212.25
854.11	212.32
854.42	212.33
854.74	212.33
855.05	212.37
855.36	212.10
855.67	212.07
855.99	212.08
856.30	212.45
856.61	212.54
856.92	212.56
857.23	212.45
857.55	212.40
857.86	212.32
858.17	212.32
858.48	212.24
858.79	212.16
859.11	212.16
859.42	212.09
859.73	212.02
860.04	211.99
860.35	211.85
860.66	211.75
860.98	211.69
861.29	211.71
861.60	211.72
861.91	211.77
862.22	211.77
862.53	211.70
862.84	211.27
863.16	211.30
863.47	211.16
863.78	211.18
864.09	211.23
864.40	211.31
864.71	211.36
865.02	211.41
865.33	211.34
865.64	211.29
865.95	211.26
866.27	211.49
866.58	211.43
866.89	211.47
867.20	211.48
867.51	211.49
867.82	211.48
868.13	211.60
868.44	211.49
868.75	211.50
869.06	211.50
869.37	211.55
869.68	211.45
869.99	211.55
870.30	211.60
870.61	211.65
870.92	211.58
871.23	211.50
871.54	211.54
871.85	211.72
872.16	211.74
872.47	211.81
872.78	211.59
873.09	211.65
873.40	211.67
873.71	211.68
874.02	211.71
874.33	211.72
874.64	211.55
874.95	211.69
875.26	211.57
875.56	211.54
875.87	211.48
876.18	211.50
876.49	211.84
876.80	211.81
877.11	211.79
877.42	211.78
877.73	211.77
878.04	211.73
878.35	211.73
878.66	211.75
878.96	211.71
879.27	211.74
879.58	211.77
879.89	211.79
880.20	211.90
880.51	211.95
880.82	211.94
881.12	211.97
881.43	211.86
881.74	211.83
882.05	211.96
882.36	211.98
882.67	212.01
882.97	211.67
883.28	211.58
883.59	211.56
883.90	211.55
884.21	211.66
884.51	211.65
884.82	211.52
885.13	211.54
885.44	211.50
885.74	211.51
886.05	211.44
886.36	211.39
886.67	211.19
886.98	211.27
887.28	211.31
887.59	211.30
887.90	211.33
888.20	211.40
888.51	211.38
888.82	211.38
889.13	211.48
889.43	211.75
889.74	211.85
890.05	211.80
890.35	211.80
890.66	211.74
890.97	211.67
891.28	211.63
891.58	211.65
891.89	211.69
892.20	211.62
892.50	211.61
892.81	211.64
893.12	211.66
893.42	211.51
893.73	211.50
894.04	211.58
894.34	211.66
894.65	211.59
894.95	211.63
895.26	211.61
895.57	211.72
895.87	211.35
896.18	211.34
896.48	211.37
896.79	211.37
897.10	211.42
897.40	211.47
897.71	211.52
898.01	211.44
898.32	211.40
898.63	211.39
898.93	211.41
899.24	211.36
899.54	211.40
899.85	211.38
900.15	211.39
900.46	211.40
900.76	211.40
901.07	211.42
901.38	211.35
901.68	211.44
901.99	211.19
902.29	211.26
902.60	211.34
902.90	211.31
903.21	211.37
903.51	211.34
903.82	211.42
904.12	211.43
904.43	211.50
904.73	211.54
905.03	211.63
905.34	211.98
905.64	211.98
905.95	211.89
906.25	211.92
906.56	211.94
906.86	211.85
907.17	211.84
907.47	211.88
907.77	211.83
908.08	211.71
908.38	211.80
908.69	211.83
908.99	211.84
909.30	211.78
909.60	211.77
909.90	211.84
910.21	211.70
910.51	211.66
910.81	211.62
911.12	211.67
911.42	211.64
911.73	211.28
912.03	211.34
912.33	211.47
912.64	211.45
912.94	211.34
913.24	211.29
913.55	211.18
913.85	211.21
914.15	211.27
914.46	211.31
914.76	211.27
915.06	211.25
915.37	211.17
915.67	211.20
915.97	211.17
916.27	211.03
916.58	211.05
916.88	211.02
917.18	210.99
917.49	211.18
917.79	211.11
918.09	211.12
918.39	211.23
918.70	211.14
919.00	211.22
919.30	211.40
919.60	211.34
919.91	211.39
920.21	211.34
920.51	211.25
920.81	211.19
921.12	211.28
921.42	211.25
921.72	211.15
922.02	211.19
922.32	211.24
922.63	211.29
922.93	211.44
923.23	211.48
923.53	211.43
923.83	211.18
924.13	211.30
924.44	211.28
924.74	211.29
925.04	211.38
925.34	211.28
925.64	211.18
925.94	211.17
926.24	211.39
926.55	211.36
926.85	211.43
927.15	211.49
927.45	211.45
927.75	211.49
928.05	211.65
928.35	211.66
928.65	211.69
928.95	211.73
929.26	211.64
929.56	211.71
929.86	211.84
930.16	211.84
930.46	211.79
930.76	211.79
931.06	211.63
931.36	211.56
931.66	211.67
931.96	211.67
932.26	211.74
932.56	211.61
932.86	211.63
933.16	211.68
933.46	211.69
933.76	211.64
934.06	211.71
934.36	211.80
934.66	211.83
934.96	211.80
935.26	211.84
935.56	211.89
935.86	211.84
936.16	211.70
936.46	211.71
936.76	211.70
937.06	211.71
937.36	211.77
937.66	211.89
937.96	211.80
938.26	211.75
938.56	211.79
938.86	211.74
939.16	211.85
939.46	211.85
939.76	211.85
940.06	211.82
940.35	211.72
940.65	211.54
940.95	211.54
941.25	211.49
941.55	211.35
941.85	211.35
942.15	211.37
942.45	211.53
942.75	211.53
943.04	211.54
943.34	211.62
943.64	211.52
943.94	211.39
944.24	211.48
944.54	211.49
944.84	211.47
945.13	211.43
945.43	211.34
945.73	211.30
946.03	211.30
946.33	211.29
946.62	211.21
946.92	211.21
947.22	211.19
947.52	211.19
947.82	211.24
948.11	211.15
948.41	211.05
948.71	210.95
949.01	210.93
949.31	210.90
949.60	210.82
949.90	210.87
950.20	210.88
950.50	210.83
950.79	210.82
951.09	210.88
951.39	210.88
951.69	210.85
951.98	210.90
952.28	210.89
952.58	210.89
952.87	210.97
953.17	211.02
953.47	210.97
953.76	210.94
954.06	210.90
954.36	210.89
954.66	210.90
954.95	211.03
955.25	211.05
955.55	211.05
955.84	211.05
956.14	211.12
956.44	211.14
956.73	211.11
957.03	211.10
957.32	211.11
957.62	211.11
957.92	211.15
958.21	211.08
958.51	211.50
958.81	211.55
959.10	211.62
959.40	211.63
959.69	211.72
959.99	211.75
960.29	211.75
960.58	211.74
960.88	211.85
961.17	211.78
961.47	211.74
961.76	211.73
962.06	211.78
962.36	211.74
962.65	211.73
962.95	211.77
963.24	211.73
963.54	211.71
963.83	211.77
964.13	211.79
964.42	211.76
964.72	211.43
965.01	211.48
965.31	211.37
965.60	211.33
965.90	211.53
966.19	211.49
966.49	211.54
966.78	211.58
967.08	211.66
967.37	211.63
967.67	211.59
967.96	211.60
968.26	211.53
968.55	211.65
968.85	211.68
969.14	211.64
969.43	211.69
969.73	211.64
970.02	211.61
970.32	211.60
970.61	211.58
970.91	211.52
971.20	211.40
971.49	211.39
971.79	211.46
972.08	211.16
972.38	211.19
972.67	211.25
972.96	211.30
973.26	211.20
973.55	211.30
973.85	211.39
974.14	211.44
974.43	211.49
974.73	211.36
975.02	211.32
975.31	211.28
975.61	211.32
975.90	211.26
976.19	211.23
976.49	211.24
976.78	211.33
977.07	211.38
977.37	211.43
977.66	211.45
977.95	211.39
978.24	211.50
978.54	211.59
978.83	211.49
979.12	211.49
979.42	211.51
979.71	211.48
980.00	211.42
980.29	211.37
980.59	211.40
980.88	211.49
981.17	211.57
981.46	211.63
981.76	211.59
982.05	211.76
982.34	211.79
982.63	211.79
982.93	211.74
983.22	211.72
983.51	211.72
983.80	211.90
984.09	211.95
984.39	211.86
984.68	211.82
984.97	211.85
985.26	211.81
985.55	211.82
985.85	211.76
986.14	211.84
986.43	211.96
986.72	211.84
987.01	211.72
987.30	211.69
987.59	211.68
987.89	211.68
988.18	211.56
988.47	211.48
988.76	211.43
989.05	211.41
989.34	211.41
989.63	211.55
989.92	211.39
990.22	211.31
990.51	211.35
990.80	211.35
991.09	211.37
991.38	211.39
991.67	211.31
991.96	211.28
992.25	211.22
992.54	211.10
992.83	211.16
993.12	211.15
993.41	211.11
993.70	211.26
993.99	211.30
994.28	211.34
994.58	211.42
994.87	211.42
995.16	211.39
995.45	211.38
995.74	211.20
996.03	211.25
996.32	211.32
996.61	211.32
996.90	211.22
997.19	211.18
997.48	211.17
997.77	211.15
998.06	211.18
998.34	211.22
998.63	211.21
998.92	211.19
999.21	211.27
999.50	211.31
999.79	211.15
1000.08	211.11
1000.37	211.16
1000.66	211.11
1000.95	211.24
1001.24	211.30
1001.53	211.29
1001.82	211.25
1002.11	211.16
1002.40	211.20
1002.68	211.25
1002.97	211.59
1003.26	211.59
1003.55	211.57
1003.84	211.56
1004.13	211.60
1004.42	211.58
1004.71	211.64
1004.99	211.64
1005.28	211.72
1005.57	211.71
1005.86	211.70
1006.15	211.75
1006.44	211.69
1006.72	211.78
1007.01	211.63
1007.30	211.68
1007.59	211.62
1007.88	211.64
1008.17	211.69
1008.45	211.54
1008.74	211.41
1009.03	211.20
1009.32	211.22
1009.60	211.16
1009.89	211.21
1010.18	211.07
1010.47	210.98
1010.76	210.93
1011.04	210.89
1011.33	210.91
1011.62	210.87
1011.91	210.85
1012.19	210.83
1012.48	210.82
1012.77	210.86
1013.05	211.05
1013.34	210.99
1013.63	211.08
1013.92	211.12
1014.20	211.04
1014.49	211.20
1014.78	211.29
1015.06	211.14
1015.35	211.14
1015.64	211.25
1015.92	211.29
1016.21	211.37
1016.50	211.43
1016.78	211.52
1017.07	211.57
1017.36	211.42
1017.64	211.44
1017.93	211.50
1018.22	211.41
1018.50	211.36
1018.79	211.27
1019.08	211.14
1019.36	211.19
1019.65	211.07
1019.93	211.21
1020.22	211.27
1020.51	211.35
1020.79	211.23
1021.08	209.70
1021.36	210.10
1021.65	210.75
1021.94	211.15
1022.22	211.85
1022.51	209.95
1022.79	213.65
1023.08	211.20
1023.36	214.80
1023.65	209.20
>>>>>End Processed Spectral Data<<<<<
