SpectraSuite Data File
++++++++++++++++++++++++++++++++++++
Date: Mon Feb 25 17:06:08 EST 2013
User: group
Dark Spectrum Present: No
Reference Spectrum Present: No
Number of Sampled Component Spectra: 1
Spectrometers: USB2E7196
Integration Time (usec): 104000 (USB2E7196)
Spectra Averaged: 20 (USB2E7196)
Boxcar Smoothing: 10 (USB2E7196)
Correct for Electrical Dark: No (USB2E7196)
Strobe/Lamp Enabled: No (USB2E7196)
Correct for Detector Non-linearity: No (USB2E7196)
Correct for Stray Light: No (USB2E7196)
Number of Pixels in Processed Spectrum: 2048
>>>>>Begin Processed Spectral Data<<<<<
339.09	0.00
339.48	198.40
339.86	199.55
340.24	203.05
340.63	203.10
341.01	209.45
341.39	206.50
341.78	206.65
342.16	208.70
342.54	209.00
342.93	198.39
343.31	208.40
343.69	208.94
344.07	209.39
344.46	209.70
344.84	210.12
345.22	210.10
345.60	210.33
345.99	210.50
346.37	210.62
346.75	210.69
347.13	210.70
347.52	210.82
347.90	210.97
348.28	211.02
348.66	211.03
349.05	210.90
349.43	210.84
349.81	210.92
350.19	210.85
350.57	210.86
350.96	210.91
351.34	210.99
351.72	211.06
352.10	211.18
352.48	211.24
352.87	211.21
353.25	211.32
353.63	211.32
354.01	211.44
354.39	211.55
354.77	211.63
355.15	211.85
355.54	211.81
355.92	211.77
356.30	211.90
356.68	212.20
357.06	212.31
357.44	212.33
357.82	212.37
358.20	212.44
358.58	212.54
358.97	212.57
359.35	212.65
359.73	212.76
360.11	212.76
360.49	212.87
360.87	212.92
361.25	213.07
361.63	213.22
362.01	213.23
362.39	213.16
362.77	213.20
363.15	213.17
363.53	213.20
363.91	213.23
364.29	213.23
364.67	212.91
365.05	212.91
365.43	213.01
365.81	213.00
366.19	213.21
366.57	213.31
366.95	213.39
367.33	213.34
367.71	213.34
368.09	213.45
368.47	213.42
368.85	213.39
369.23	213.36
369.61	213.28
369.99	213.39
370.37	213.41
370.75	213.54
371.13	213.44
371.51	213.37
371.89	213.40
372.27	213.39
372.65	213.40
373.03	213.38
373.41	213.36
373.78	213.37
374.16	213.15
374.54	213.09
374.92	212.90
375.30	212.85
375.68	212.77
376.06	212.75
376.44	212.60
376.82	212.60
377.19	212.57
377.57	212.50
377.95	212.34
378.33	212.26
378.71	212.02
379.09	212.04
379.47	212.03
379.84	211.92
380.22	211.78
380.60	211.69
380.98	211.62
381.36	211.57
381.73	211.42
382.11	211.50
382.49	211.37
382.87	211.31
383.25	211.30
383.62	211.65
384.00	211.55
384.38	211.59
384.76	211.59
385.13	211.64
385.51	211.53
385.89	211.47
386.27	211.48
386.64	211.48
387.02	211.44
387.40	211.35
387.78	211.39
388.15	211.43
388.53	211.36
388.91	211.33
389.29	211.19
389.66	211.19
390.04	210.99
390.42	211.01
390.79	211.03
391.17	210.98
391.55	210.59
391.92	210.55
392.30	210.56
392.68	210.48
393.05	210.46
393.43	210.52
393.81	210.49
394.18	210.41
394.56	210.44
394.94	210.49
395.31	210.50
395.69	210.58
396.06	210.65
396.44	210.63
396.82	210.66
397.19	210.85
397.57	210.83
397.95	210.98
398.32	210.87
398.70	210.94
399.07	210.98
399.45	210.94
399.82	210.95
400.20	210.93
400.58	210.95
400.95	210.83
401.33	210.90
401.70	211.22
402.08	211.24
402.45	211.35
402.83	211.43
403.20	211.48
403.58	211.44
403.95	211.51
404.33	211.68
404.71	211.70
405.08	212.01
405.46	212.14
405.83	212.20
406.21	212.34
406.58	212.43
406.96	212.51
407.33	212.61
407.70	212.79
408.08	213.24
408.45	213.45
408.83	213.73
409.20	213.86
409.58	213.91
409.95	214.22
410.33	214.41
410.70	214.53
411.08	214.83
411.45	215.13
411.82	215.34
412.20	215.72
412.57	216.17
412.95	216.19
413.32	216.61
413.69	217.00
414.07	217.46
414.44	217.94
414.82	218.51
415.19	219.13
415.56	219.72
415.94	220.16
416.31	220.97
416.68	221.65
417.06	222.52
417.43	223.32
417.81	224.25
418.18	225.20
418.55	226.28
418.93	227.39
419.30	228.43
419.67	229.66
420.04	230.90
420.42	232.21
420.79	233.91
421.16	235.51
421.54	237.29
421.91	238.90
422.28	240.59
422.66	242.41
423.03	244.32
423.40	246.19
423.77	248.09
424.15	250.02
424.52	252.16
424.89	254.42
425.26	256.57
425.64	258.60
426.01	260.86
426.38	263.16
426.75	265.64
427.13	268.21
427.50	270.88
427.87	273.55
428.24	276.23
428.61	278.70
428.99	281.65
429.36	284.59
429.73	287.74
430.10	290.96
430.47	294.11
430.85	297.35
431.22	300.90
431.59	304.92
431.96	308.43
432.33	312.40
432.70	316.27
433.08	320.80
433.45	325.19
433.82	329.53
434.19	334.23
434.56	338.94
434.93	343.43
435.30	347.95
435.68	352.95
436.05	357.95
436.42	362.92
436.79	367.43
437.16	372.44
437.53	377.45
437.90	382.49
438.27	387.62
438.64	392.80
439.01	397.58
439.38	401.75
439.75	406.05
440.13	410.75
440.50	415.23
440.87	418.92
441.24	422.70
441.61	426.85
441.98	430.20
442.35	433.84
442.72	437.55
443.09	441.18
443.46	443.46
443.83	445.10
444.20	446.54
444.57	448.45
444.94	449.51
445.31	450.80
445.68	452.13
446.05	452.60
446.42	452.42
446.79	452.26
447.16	451.75
447.53	451.50
447.90	449.90
448.27	448.36
448.64	446.03
449.01	444.48
449.37	441.45
449.74	438.46
450.11	435.01
450.48	431.05
450.85	426.89
451.22	423.41
451.59	420.02
451.96	416.78
452.33	412.42
452.70	408.42
453.07	403.67
453.43	398.59
453.80	394.03
454.17	389.56
454.54	385.31
454.91	380.82
455.28	376.47
455.65	372.36
456.02	368.60
456.38	365.13
456.75	360.67
457.12	357.02
457.49	353.38
457.86	349.65
458.23	346.82
458.59	343.49
458.96	340.16
459.33	337.20
459.70	334.26
460.07	331.99
460.43	329.26
460.80	326.73
461.17	324.51
461.54	322.22
461.91	320.01
462.27	317.69
462.64	315.73
463.01	313.59
463.38	311.57
463.74	309.06
464.11	307.03
464.48	305.46
464.85	303.72
465.21	302.38
465.58	300.95
465.95	299.00
466.32	297.66
466.68	296.19
467.05	294.73
467.42	293.34
467.78	291.73
468.15	290.28
468.52	289.26
468.88	287.91
469.25	286.49
469.62	285.48
469.98	284.32
470.35	283.38
470.72	282.32
471.08	281.19
471.45	280.30
471.82	279.58
472.18	278.62
472.55	277.86
472.92	276.93
473.28	276.15
473.65	275.41
474.02	274.62
474.38	274.06
474.75	273.57
475.11	272.97
475.48	272.58
475.85	272.16
476.21	271.70
476.58	271.31
476.94	271.09
477.31	270.75
477.67	270.50
478.04	270.16
478.41	269.97
478.77	270.11
479.14	269.85
479.50	269.67
479.87	269.54
480.23	269.50
480.60	269.33
480.96	269.26
481.33	269.52
481.69	269.49
482.06	269.44
482.42	269.36
482.79	269.31
483.15	269.39
483.52	269.61
483.88	269.69
484.25	269.70
484.61	269.88
484.98	270.00
485.34	270.37
485.71	270.70
486.07	271.00
486.44	270.98
486.80	271.45
487.17	271.85
487.53	272.37
487.90	272.84
488.26	273.54
488.62	274.20
488.99	274.60
489.35	275.26
489.72	275.88
490.08	276.63
490.44	277.38
490.81	278.19
491.17	278.83
491.54	279.69
491.90	280.68
492.26	281.56
492.63	282.52
492.99	283.22
493.36	284.20
493.72	285.30
494.08	286.35
494.45	287.41
494.81	288.53
495.17	289.64
495.54	290.88
495.90	291.94
496.26	293.13
496.63	294.37
496.99	295.61
497.35	296.94
497.72	298.30
498.08	299.53
498.44	300.77
498.80	302.26
499.17	303.52
499.53	304.79
499.89	306.11
500.26	307.52
500.62	308.94
500.98	310.36
501.34	311.70
501.71	313.23
502.07	314.58
502.43	315.97
502.79	317.36
503.16	318.75
503.52	320.20
503.88	321.55
504.24	323.03
504.60	324.53
504.97	326.04
505.33	327.36
505.69	329.05
506.05	330.63
506.41	332.04
506.78	333.40
507.14	334.80
507.50	336.40
507.86	337.84
508.22	339.32
508.59	340.73
508.95	342.16
509.31	343.60
509.67	345.02
510.03	346.51
510.39	347.88
510.75	349.19
511.12	350.62
511.48	352.05
511.84	353.45
512.20	354.76
512.56	356.13
512.92	357.63
513.28	358.96
513.64	360.21
514.00	361.61
514.37	363.06
514.73	364.53
515.09	365.83
515.45	367.23
515.81	368.60
516.17	369.94
516.53	371.44
516.89	372.73
517.25	374.09
517.61	375.50
517.97	376.94
518.33	378.34
518.69	379.85
519.05	381.40
519.41	382.88
519.77	384.79
520.13	386.30
520.49	387.79
520.85	389.21
521.21	390.97
521.57	392.53
521.93	394.18
522.29	395.79
522.65	397.41
523.01	399.06
523.37	400.67
523.73	402.57
524.09	404.26
524.45	406.02
524.81	407.97
525.17	409.90
525.53	411.83
525.89	413.88
526.25	415.89
526.61	417.81
526.97	419.81
527.33	421.63
527.68	424.08
528.04	426.20
528.40	428.41
528.76	430.60
529.12	432.85
529.48	435.21
529.84	437.61
530.20	440.10
530.56	442.60
530.91	445.29
531.27	447.79
531.63	450.37
531.99	453.02
532.35	455.57
532.71	458.07
533.07	460.93
533.42	463.89
533.78	466.58
534.14	469.36
534.50	471.91
534.86	474.86
535.21	477.27
535.57	480.20
535.93	482.90
536.29	485.83
536.65	488.77
537.00	491.48
537.36	494.18
537.72	496.91
538.08	499.71
538.44	502.40
538.79	505.32
539.15	508.17
539.51	510.96
539.87	514.01
540.22	517.08
540.58	519.88
540.94	522.64
541.29	525.55
541.65	528.28
542.01	531.36
542.37	534.27
542.72	537.30
543.08	540.09
543.44	543.40
543.79	546.07
544.15	548.89
544.51	552.15
544.87	555.42
545.22	558.57
545.58	561.41
545.94	564.34
546.29	566.90
546.65	569.66
547.01	572.60
547.36	575.44
547.72	578.21
548.07	581.00
548.43	583.61
548.79	586.27
549.14	589.01
549.50	591.66
549.86	594.05
550.21	596.49
550.57	599.22
550.92	601.50
551.28	604.02
551.64	606.52
551.99	608.89
552.35	611.06
552.70	613.18
553.06	615.58
553.41	617.77
553.77	620.46
554.13	622.72
554.48	625.09
554.84	627.38
555.19	629.48
555.55	631.75
555.90	634.03
556.26	636.00
556.61	637.89
556.97	639.79
557.32	641.68
557.68	643.53
558.03	645.23
558.39	646.93
558.74	648.85
559.10	650.67
559.45	652.49
559.81	654.40
560.16	656.17
560.52	657.96
560.87	659.87
561.23	661.22
561.58	663.06
561.94	664.34
562.29	665.66
562.64	667.25
563.00	668.61
563.35	669.94
563.71	671.64
564.06	673.40
564.42	674.96
564.77	676.45
565.12	678.17
565.48	679.84
565.83	681.47
566.19	682.80
566.54	683.99
566.89	684.86
567.25	686.11
567.60	687.42
567.96	688.79
568.31	690.02
568.66	691.20
569.02	691.97
569.37	692.72
569.72	693.58
570.08	694.19
570.43	694.83
570.78	695.39
571.14	695.64
571.49	695.93
571.84	696.45
572.20	696.82
572.55	697.17
572.90	697.07
573.26	696.81
573.61	696.78
573.96	696.97
574.31	697.12
574.67	696.88
575.02	696.44
575.37	695.95
575.72	695.31
576.08	694.94
576.43	694.53
576.78	694.43
577.13	694.16
577.49	693.82
577.84	693.37
578.19	693.14
578.54	693.18
578.90	693.08
579.25	692.72
579.60	692.20
579.95	691.50
580.30	691.31
580.66	691.31
581.01	690.97
581.36	690.39
581.71	689.75
582.06	689.52
582.42	689.28
582.77	688.73
583.12	688.34
583.47	687.89
583.82	687.65
584.17	687.25
584.53	687.00
584.88	686.61
585.23	686.29
585.58	685.70
585.93	684.86
586.28	684.26
586.63	683.76
586.98	683.36
587.34	683.00
587.69	682.26
588.04	681.58
588.39	680.97
588.74	680.06
589.09	679.71
589.44	678.73
589.79	678.15
590.14	677.32
590.49	676.59
590.84	675.85
591.19	675.15
591.54	674.38
591.89	673.07
592.25	672.44
592.60	671.38
592.95	670.40
593.30	669.34
593.65	668.15
594.00	666.77
594.35	666.65
594.70	665.40
595.05	664.33
595.40	663.19
595.75	661.95
596.10	661.14
596.45	659.88
596.80	658.95
597.15	657.77
597.50	656.79
597.85	655.89
598.19	654.75
598.54	653.50
598.89	652.32
599.24	651.56
599.59	650.33
599.94	649.44
600.29	648.44
600.64	647.47
600.99	646.44
601.34	645.62
601.69	643.48
602.04	642.32
602.39	641.17
602.74	640.36
603.08	639.44
603.43	638.59
603.78	637.63
604.13	636.51
604.48	635.26
604.83	634.53
605.18	633.69
605.53	632.61
605.87	631.59
606.22	630.61
606.57	629.46
606.92	628.22
607.27	627.05
607.62	625.93
607.96	624.92
608.31	623.91
608.66	622.53
609.01	621.40
609.36	620.26
609.70	619.02
610.05	617.56
610.40	616.13
610.75	614.56
611.10	613.28
611.44	611.77
611.79	610.33
612.14	608.58
612.49	606.52
612.83	605.03
613.18	603.27
613.53	601.56
613.88	599.69
614.22	598.17
614.57	596.43
614.92	594.67
615.27	592.92
615.61	591.21
615.96	589.68
616.31	588.09
616.65	586.46
617.00	584.79
617.35	583.02
617.70	581.37
618.04	579.60
618.39	577.57
618.74	575.85
619.08	574.14
619.43	572.46
619.78	570.91
620.12	569.06
620.47	567.50
620.82	565.65
621.16	563.89
621.51	562.24
621.85	560.45
622.20	558.56
622.55	556.61
622.89	554.64
623.24	552.84
623.59	550.85
623.93	549.20
624.28	547.57
624.62	546.05
624.97	544.31
625.32	542.52
625.66	540.92
626.01	539.20
626.35	537.54
626.70	535.65
627.04	534.16
627.39	532.49
627.73	530.65
628.08	529.15
628.43	527.40
628.77	525.35
629.12	523.55
629.46	521.94
629.81	520.36
630.15	518.53
630.50	516.70
630.84	514.96
631.19	513.04
631.53	511.21
631.88	509.04
632.22	507.02
632.57	505.41
632.91	503.63
633.26	501.81
633.60	500.07
633.95	498.48
634.29	496.43
634.64	494.68
634.98	492.89
635.32	491.24
635.67	489.76
636.01	488.11
636.36	486.33
636.70	484.76
637.05	483.09
637.39	481.58
637.73	480.04
638.08	478.69
638.42	477.14
638.77	475.69
639.11	474.20
639.45	472.72
639.80	470.91
640.14	469.18
640.49	467.44
640.83	465.68
641.17	464.04
641.52	462.43
641.86	460.71
642.20	459.19
642.55	457.10
642.89	455.19
643.23	453.55
643.58	452.10
643.92	450.32
644.26	448.54
644.61	446.95
644.95	445.13
645.29	443.25
645.64	441.51
645.98	439.69
646.32	438.07
646.66	436.30
647.01	434.59
647.35	433.00
647.69	431.32
648.04	429.74
648.38	428.03
648.72	426.40
649.06	424.67
649.41	423.02
649.75	421.44
650.09	419.95
650.43	418.35
650.78	416.52
651.12	414.83
651.46	413.16
651.80	411.54
652.14	409.96
652.49	408.40
652.83	406.73
653.17	404.98
653.51	403.26
653.85	401.77
654.20	400.25
654.54	398.55
654.88	396.99
655.22	395.47
655.56	393.77
655.90	392.23
656.25	390.65
656.59	389.01
656.93	387.59
657.27	386.05
657.61	384.33
657.95	382.92
658.29	381.45
658.64	380.17
658.98	378.55
659.32	377.03
659.66	375.59
660.00	374.08
660.34	372.57
660.68	371.00
661.02	369.47
661.36	368.09
661.70	366.68
662.05	365.32
662.39	363.97
662.73	362.76
663.07	361.54
663.41	360.29
663.75	358.92
664.09	357.53
664.43	356.07
664.77	354.80
665.11	353.51
665.45	352.27
665.79	350.83
666.13	349.56
666.47	348.25
666.81	346.96
667.15	345.64
667.49	344.62
667.83	343.60
668.17	342.48
668.51	341.28
668.85	340.30
669.19	339.31
669.53	338.05
669.87	336.77
670.21	335.50
670.55	334.37
670.89	333.48
671.23	332.43
671.57	331.44
671.91	330.45
672.25	329.18
672.58	328.15
672.92	327.10
673.26	326.13
673.60	325.09
673.94	324.00
674.28	323.07
674.62	322.03
674.96	321.02
675.30	320.10
675.64	319.19
675.97	318.07
676.31	316.98
676.65	316.02
676.99	315.26
677.33	314.30
677.67	313.40
678.01	312.27
678.34	311.37
678.68	310.51
679.02	309.50
679.36	308.70
679.70	307.75
680.04	306.95
680.37	306.05
680.71	305.24
681.05	304.39
681.39	303.56
681.73	302.67
682.06	301.80
682.40	300.91
682.74	300.06
683.08	299.41
683.42	298.50
683.75	297.68
684.09	296.75
684.43	295.87
684.77	294.95
685.10	294.23
685.44	293.34
685.78	292.41
686.12	291.63
686.45	290.93
686.79	290.12
687.13	289.35
687.46	288.49
687.80	287.80
688.14	287.06
688.48	286.36
688.81	285.63
689.15	284.89
689.49	284.07
689.82	283.30
690.16	282.33
690.50	281.64
690.83	280.90
691.17	280.09
691.51	279.45
691.84	278.80
692.18	278.03
692.52	277.38
692.85	276.87
693.19	276.30
693.52	275.58
693.86	274.87
694.20	274.12
694.53	273.51
694.87	272.76
695.21	272.05
695.54	271.30
695.88	270.56
696.21	269.88
696.55	269.26
696.88	268.71
697.22	268.14
697.56	267.57
697.89	266.86
698.23	266.35
698.56	265.70
698.90	265.14
699.23	264.47
699.57	263.85
699.90	263.14
700.24	262.46
700.58	261.85
700.91	261.31
701.25	261.10
701.58	260.62
701.92	260.25
702.25	259.75
702.59	259.23
702.92	258.82
703.26	258.32
703.59	257.89
703.93	257.62
704.26	257.22
704.60	256.73
704.93	256.31
705.26	255.77
705.60	255.32
705.93	254.93
706.27	254.62
706.60	254.29
706.94	254.01
707.27	253.56
707.61	253.19
707.94	252.77
708.27	251.98
708.61	251.47
708.94	250.87
709.28	250.49
709.61	249.99
709.94	249.50
710.28	249.08
710.61	248.75
710.95	247.97
711.28	247.74
711.61	247.33
711.95	247.10
712.28	246.70
712.61	246.32
712.95	245.97
713.28	245.71
713.61	245.31
713.95	244.82
714.28	244.58
714.61	244.12
714.95	243.76
715.28	243.39
715.61	243.00
715.95	242.76
716.28	242.37
716.61	242.15
716.95	241.85
717.28	241.48
717.61	241.05
717.94	240.81
718.28	240.31
718.61	239.94
718.94	239.48
719.27	239.16
719.61	238.86
719.94	238.53
720.27	238.04
720.60	237.65
720.94	237.40
721.27	237.08
721.60	236.93
721.93	236.64
722.27	236.50
722.60	236.29
722.93	235.99
723.26	235.79
723.59	235.49
723.93	235.33
724.26	235.18
724.59	234.99
724.92	234.75
725.25	234.56
725.59	234.42
725.92	234.32
726.25	234.10
726.58	233.91
726.91	233.65
727.24	233.53
727.57	233.34
727.91	233.10
728.24	232.89
728.57	232.66
728.90	232.51
729.23	232.23
729.56	232.26
729.89	232.06
730.22	231.82
730.55	231.66
730.89	231.36
731.22	231.10
731.55	230.93
731.88	230.74
732.21	230.52
732.54	230.25
732.87	230.02
733.20	229.91
733.53	229.75
733.86	229.64
734.19	229.40
734.52	229.33
734.85	229.42
735.18	229.22
735.51	229.11
735.84	228.97
736.17	228.94
736.50	228.50
736.83	228.74
737.16	228.58
737.49	228.39
737.82	228.22
738.15	228.14
738.48	227.91
738.81	227.78
739.14	227.56
739.47	227.42
739.80	227.17
740.13	227.02
740.46	226.83
740.79	226.63
741.12	226.55
741.45	226.27
741.78	225.85
742.11	225.83
742.44	225.57
742.77	225.45
743.10	225.24
743.43	225.12
743.75	224.61
744.08	224.93
744.41	224.78
744.74	224.70
745.07	224.43
745.40	224.43
745.73	224.36
746.06	224.26
746.39	224.18
746.71	224.10
747.04	223.93
747.37	223.76
747.70	223.65
748.03	223.50
748.36	223.51
748.68	223.38
749.01	223.11
749.34	223.08
749.67	222.95
750.00	222.94
750.33	223.07
750.65	222.98
750.98	222.46
751.31	222.37
751.64	222.28
751.97	222.44
752.29	222.25
752.62	222.01
752.95	221.87
753.28	221.75
753.60	221.60
753.93	221.62
754.26	221.51
754.59	221.35
754.91	221.24
755.24	221.11
755.57	221.02
755.90	220.92
756.22	220.74
756.55	220.62
756.88	220.37
757.20	220.05
757.53	219.88
757.86	219.72
758.19	219.61
758.51	219.51
758.84	219.18
759.17	219.07
759.49	219.05
759.82	219.20
760.15	219.20
760.47	219.19
760.80	219.02
761.13	219.10
761.45	219.01
761.78	218.93
762.11	218.79
762.43	218.69
762.76	218.63
763.08	218.62
763.41	218.52
763.74	218.49
764.06	218.36
764.39	218.34
764.71	218.25
765.04	218.22
765.37	218.19
765.69	218.18
766.02	218.07
766.34	217.95
766.67	217.74
767.00	217.68
767.32	217.77
767.65	217.90
767.97	217.75
768.30	217.72
768.62	217.65
768.95	217.55
769.27	217.46
769.60	217.47
769.92	217.33
770.25	217.23
770.57	217.09
770.90	217.09
771.22	217.00
771.55	216.98
771.87	216.92
772.20	216.79
772.52	217.01
772.85	217.40
773.17	217.40
773.50	217.24
773.82	217.09
774.15	216.86
774.47	216.58
774.80	216.50
775.12	216.45
775.45	216.35
775.77	216.37
776.09	216.36
776.42	216.24
776.74	216.32
777.07	216.30
777.39	216.34
777.72	216.24
778.04	216.22
778.36	216.12
778.69	216.04
779.01	216.00
779.33	215.66
779.66	215.16
779.98	215.04
780.31	215.01
780.63	215.13
780.95	215.10
781.28	215.04
781.60	214.93
781.92	214.81
782.25	214.70
782.57	214.56
782.89	214.56
783.22	214.52
783.54	214.44
783.86	214.36
784.19	214.30
784.51	214.40
784.83	214.31
785.16	214.27
785.48	214.26
785.80	214.20
786.12	214.22
786.45	214.23
786.77	214.23
787.09	214.25
787.42	214.08
787.74	214.07
788.06	214.05
788.38	214.07
788.71	214.02
789.03	214.07
789.35	214.20
789.67	214.06
789.99	214.04
790.32	213.94
790.64	213.98
790.96	214.15
791.28	214.00
791.61	213.95
791.93	213.94
792.25	213.89
792.57	214.07
792.89	213.95
793.21	214.01
793.54	213.96
793.86	213.91
794.18	213.91
794.50	213.85
794.82	213.87
795.14	213.88
795.47	214.00
795.79	214.01
796.11	213.88
796.43	213.91
796.75	213.93
797.07	213.98
797.39	213.92
797.71	213.73
798.04	213.74
798.36	213.81
798.68	213.84
799.00	213.84
799.32	213.75
799.64	213.83
799.96	213.75
800.28	213.76
800.60	213.74
800.92	213.77
801.24	213.79
801.56	213.75
801.89	213.71
802.21	213.63
802.53	213.56
802.85	213.66
803.17	213.79
803.49	213.68
803.81	213.62
804.13	213.68
804.45	213.63
804.77	213.65
805.09	213.59
805.41	213.53
805.73	213.45
806.05	213.32
806.37	213.28
806.69	213.20
807.01	213.25
807.33	213.25
807.65	213.09
807.97	213.20
808.28	213.17
808.60	213.16
808.92	213.13
809.24	213.32
809.56	213.21
809.88	213.11
810.20	213.16
810.52	213.22
810.84	213.03
811.16	213.00
811.48	213.00
811.80	213.11
812.12	213.10
812.43	213.20
812.75	213.20
813.07	213.10
813.39	213.15
813.71	213.02
814.03	212.95
814.35	212.94
814.67	212.75
814.98	212.71
815.30	212.67
815.62	212.56
815.94	212.27
816.26	212.25
816.58	212.19
816.89	212.18
817.21	212.07
817.53	212.14
817.85	212.10
818.17	212.05
818.48	211.90
818.80	211.98
819.12	211.91
819.44	211.80
819.76	211.87
820.07	211.83
820.39	211.75
820.71	211.70
821.03	211.71
821.34	211.74
821.66	211.72
821.98	211.72
822.30	211.74
822.61	212.02
822.93	211.97
823.25	211.88
823.57	211.80
823.88	211.84
824.20	211.86
824.52	211.91
824.83	211.88
825.15	211.86
825.47	211.81
825.79	211.78
826.10	211.77
826.42	211.66
826.74	211.73
827.05	211.79
827.37	211.85
827.69	211.86
828.00	211.85
828.32	211.84
828.64	211.76
828.95	211.89
829.27	211.73
829.58	211.75
829.90	211.77
830.22	211.78
830.53	211.68
830.85	211.67
831.17	211.53
831.48	211.47
831.80	211.39
832.11	211.34
832.43	211.25
832.75	211.24
833.06	211.47
833.38	211.28
833.69	211.26
834.01	211.26
834.32	211.21
834.64	211.16
834.96	211.19
835.27	211.24
835.59	211.15
835.90	211.08
836.22	211.00
836.53	210.95
836.85	210.90
837.16	211.23
837.48	211.12
837.79	211.21
838.11	211.21
838.42	211.25
838.74	211.33
839.05	211.42
839.37	211.44
839.68	211.13
840.00	211.14
840.31	211.21
840.63	211.12
840.94	211.10
841.26	211.06
841.57	211.06
841.88	211.09
842.20	211.06
842.51	211.05
842.83	211.14
843.14	211.54
843.46	211.65
843.77	211.50
844.08	211.53
844.40	211.50
844.71	211.48
845.03	211.52
845.34	211.44
845.65	211.44
845.97	211.49
846.28	211.59
846.60	211.63
846.91	211.57
847.22	211.61
847.54	211.67
847.85	211.69
848.16	211.65
848.48	211.61
848.79	211.78
849.10	211.85
849.42	211.86
849.73	211.49
850.04	211.35
850.36	211.24
850.67	211.34
850.98	211.37
851.30	211.51
851.61	211.52
851.92	211.53
852.23	211.58
852.55	211.57
852.86	211.66
853.17	211.76
853.49	211.85
853.80	211.97
854.11	212.02
854.42	212.13
854.74	212.15
855.05	212.14
855.36	211.89
855.67	211.91
855.99	211.90
856.30	212.38
856.61	212.49
856.92	212.43
857.23	212.38
857.55	212.35
857.86	212.28
858.17	212.35
858.48	212.27
858.79	212.21
859.11	212.25
859.42	212.22
859.73	212.15
860.04	212.13
860.35	211.96
860.66	211.83
860.98	211.74
861.29	211.72
861.60	211.64
861.91	211.74
862.22	211.63
862.53	211.60
862.84	211.15
863.16	211.19
863.47	211.24
863.78	211.29
864.09	211.29
864.40	211.25
864.71	211.17
865.02	211.29
865.33	211.21
865.64	211.16
865.95	211.08
866.27	211.31
866.58	211.29
866.89	211.32
867.20	211.32
867.51	211.21
867.82	211.17
868.13	211.37
868.44	211.32
868.75	211.38
869.06	211.35
869.37	211.42
869.68	211.30
869.99	211.27
870.30	211.23
870.61	211.27
870.92	211.18
871.23	211.15
871.54	211.10
871.85	211.21
872.16	211.24
872.47	211.25
872.78	210.94
873.09	210.95
873.40	210.91
873.71	210.97
874.02	211.05
874.33	211.04
874.64	210.90
874.95	210.99
875.26	210.91
875.56	210.90
875.87	210.81
876.18	210.80
876.49	211.15
876.80	211.15
877.11	211.05
877.42	211.11
877.73	211.11
878.04	211.07
878.35	211.03
878.66	210.99
878.96	210.92
879.27	210.97
879.58	210.89
879.89	210.90
880.20	211.00
880.51	210.96
880.82	210.92
881.12	210.98
881.43	210.89
881.74	210.83
882.05	210.85
882.36	210.92
882.67	210.98
882.97	210.65
883.28	210.64
883.59	210.59
883.90	210.68
884.21	210.74
884.51	210.71
884.82	210.71
885.13	210.76
885.44	210.81
885.74	210.87
886.05	210.87
886.36	210.86
886.67	210.70
886.98	210.91
887.28	211.00
887.59	211.01
887.90	210.98
888.20	211.01
888.51	211.07
888.82	211.00
889.13	211.00
889.43	211.27
889.74	211.21
890.05	211.28
890.35	211.19
890.66	211.10
890.97	211.04
891.28	211.04
891.58	211.00
891.89	211.00
892.20	210.93
892.50	210.95
892.81	210.98
893.12	211.04
893.42	210.83
893.73	210.82
894.04	210.77
894.34	210.92
894.65	210.97
894.95	210.93
895.26	210.95
895.57	211.08
895.87	210.74
896.18	210.91
896.48	210.94
896.79	211.01
897.10	211.12
897.40	211.20
897.71	211.23
898.01	211.27
898.32	211.31
898.63	211.33
898.93	211.33
899.24	211.33
899.54	211.25
899.85	211.31
900.15	211.35
900.46	211.41
900.76	211.34
901.07	211.29
901.38	211.30
901.68	211.32
901.99	211.15
902.29	211.18
902.60	211.02
902.90	211.06
903.21	211.04
903.51	210.95
903.82	211.05
904.12	211.02
904.43	211.00
904.73	211.04
905.03	211.05
905.34	211.44
905.64	211.44
905.95	211.50
906.25	211.43
906.56	211.38
906.86	211.42
907.17	211.30
907.47	211.35
907.77	211.35
908.08	211.31
908.38	211.36
908.69	211.37
908.99	211.41
909.30	211.39
909.60	211.42
909.90	211.45
910.21	211.37
910.51	211.31
910.81	211.31
911.12	211.27
911.42	211.28
911.73	210.92
912.03	210.91
912.33	210.92
912.64	210.97
912.94	210.94
913.24	210.83
913.55	210.86
913.85	210.81
914.15	210.86
914.46	210.85
914.76	210.77
915.06	210.78
915.37	210.81
915.67	210.80
915.97	210.73
916.27	210.64
916.58	210.61
916.88	210.61
917.18	210.55
917.49	210.85
917.79	210.81
918.09	210.86
918.39	210.98
918.70	210.99
919.00	210.99
919.30	211.16
919.60	211.25
919.91	211.29
920.21	211.32
920.51	211.19
920.81	211.24
921.12	211.30
921.42	211.28
921.72	211.31
922.02	211.32
922.32	211.45
922.63	211.49
922.93	211.66
923.23	211.68
923.53	211.62
923.83	211.31
924.13	211.34
924.44	211.30
924.74	211.32
925.04	211.43
925.34	211.43
925.64	211.23
925.94	211.16
926.24	211.33
926.55	211.27
926.85	211.31
927.15	211.31
927.45	211.37
927.75	211.38
928.05	211.32
928.35	211.31
928.65	211.33
928.95	211.38
929.26	211.26
929.56	211.40
929.86	211.53
930.16	211.54
930.46	211.58
930.76	211.62
931.06	211.48
931.36	211.34
931.66	211.43
931.96	211.52
932.26	211.45
932.56	211.24
932.86	211.26
933.16	211.27
933.46	211.21
933.76	211.18
934.06	211.28
934.36	211.42
934.66	211.35
934.96	211.24
935.26	211.26
935.56	211.31
935.86	211.17
936.16	211.06
936.46	211.07
936.76	211.01
937.06	210.98
937.36	211.00
937.66	211.08
937.96	211.03
938.26	210.95
938.56	211.04
938.86	211.13
939.16	211.28
939.46	211.33
939.76	211.38
940.06	211.36
940.35	211.21
940.65	211.03
940.95	211.10
941.25	211.09
941.55	211.03
941.85	210.98
942.15	211.09
942.45	211.18
942.75	211.10
943.04	211.09
943.34	211.11
943.64	211.06
943.94	210.97
944.24	210.90
944.54	210.89
944.84	210.86
945.13	210.73
945.43	210.57
945.73	210.59
946.03	210.54
946.33	210.55
946.62	210.55
946.92	210.54
947.22	210.52
947.52	210.54
947.82	210.58
948.11	210.54
948.41	210.47
948.71	210.45
949.01	210.54
949.31	210.59
949.60	210.53
949.90	210.65
950.20	210.62
950.50	210.67
950.79	210.69
951.09	210.74
951.39	210.80
951.69	210.80
951.98	210.84
952.28	210.85
952.58	210.71
952.87	210.79
953.17	210.87
953.47	210.86
953.76	210.87
954.06	210.84
954.36	210.78
954.66	210.74
954.95	210.81
955.25	210.85
955.55	210.80
955.84	210.73
956.14	210.70
956.44	210.84
956.73	210.79
957.03	210.86
957.32	210.82
957.62	210.78
957.92	210.87
958.21	210.87
958.51	211.31
958.81	211.39
959.10	211.40
959.40	211.41
959.69	211.46
959.99	211.44
960.29	211.44
960.58	211.43
960.88	211.60
961.17	211.59
961.47	211.57
961.76	211.50
962.06	211.57
962.36	211.57
962.65	211.56
962.95	211.59
963.24	211.53
963.54	211.56
963.83	211.61
964.13	211.61
964.42	211.49
964.72	211.18
965.01	211.25
965.31	211.22
965.60	211.16
965.90	211.40
966.19	211.39
966.49	211.44
966.78	211.46
967.08	211.34
967.37	211.34
967.67	211.29
967.96	211.38
968.26	211.42
968.55	211.37
968.85	211.24
969.14	211.21
969.43	211.29
969.73	211.32
970.02	211.30
970.32	211.25
970.61	211.31
970.91	211.16
971.20	211.02
971.49	211.01
971.79	211.07
972.08	210.73
972.38	210.70
972.67	210.68
972.96	210.75
973.26	210.76
973.55	210.86
973.85	210.90
974.14	210.87
974.43	210.83
974.73	210.83
975.02	210.91
975.31	210.90
975.61	210.86
975.90	210.81
976.19	210.84
976.49	210.87
976.78	210.85
977.07	210.87
977.37	210.99
977.66	210.98
977.95	210.93
978.24	211.01
978.54	211.15
978.83	211.17
979.12	211.16
979.42	211.11
979.71	210.95
980.00	210.93
980.29	210.96
980.59	210.91
980.88	211.02
981.17	210.99
981.46	210.98
981.76	210.99
982.05	211.14
982.34	211.17
982.63	211.19
982.93	211.23
983.22	211.33
983.51	211.32
983.80	211.38
984.09	211.45
984.39	211.41
984.68	211.31
984.97	211.29
985.26	211.20
985.55	211.27
985.85	211.26
986.14	211.26
986.43	211.30
986.72	211.32
987.01	211.17
987.30	211.16
987.59	211.21
987.89	211.21
988.18	211.03
988.47	210.91
988.76	210.85
989.05	210.75
989.34	210.72
989.63	210.81
989.92	210.77
990.22	210.69
990.51	210.70
990.80	210.70
991.09	210.77
991.38	210.89
991.67	210.88
991.96	210.83
992.25	210.83
992.54	210.69
992.83	210.68
993.12	210.71
993.41	210.74
993.70	210.87
993.99	210.89
994.28	210.96
994.58	211.02
994.87	211.04
995.16	211.11
995.45	211.12
995.74	211.03
996.03	211.05
996.32	211.08
996.61	211.21
996.90	211.20
997.19	211.15
997.48	211.15
997.77	211.12
998.06	211.15
998.34	211.16
998.63	211.37
998.92	211.44
999.21	211.50
999.50	211.53
999.79	211.42
1000.08	211.45
1000.37	211.41
1000.66	211.43
1000.95	211.49
1001.24	211.48
1001.53	211.47
1001.82	211.46
1002.11	211.36
1002.40	211.41
1002.68	211.43
1002.97	211.66
1003.26	211.58
1003.55	211.52
1003.84	211.57
1004.13	211.65
1004.42	211.61
1004.71	211.54
1004.99	211.48
1005.28	211.55
1005.57	211.54
1005.86	211.49
1006.15	211.44
1006.44	211.39
1006.72	211.45
1007.01	211.42
1007.30	211.42
1007.59	211.41
1007.88	211.39
1008.17	211.47
1008.45	211.43
1008.74	211.25
1009.03	211.05
1009.32	211.01
1009.60	210.96
1009.89	210.90
1010.18	210.81
1010.47	210.81
1010.76	210.79
1011.04	210.73
1011.33	210.75
1011.62	210.72
1011.91	210.65
1012.19	210.72
1012.48	210.74
1012.77	210.75
1013.05	210.80
1013.34	210.84
1013.63	210.81
1013.92	210.86
1014.20	210.89
1014.49	210.84
1014.78	210.92
1015.06	210.86
1015.35	210.88
1015.64	211.00
1015.92	211.05
1016.21	211.05
1016.50	211.07
1016.78	211.09
1017.07	211.17
1017.36	211.10
1017.64	211.07
1017.93	211.15
1018.22	211.11
1018.50	211.07
1018.79	210.95
1019.08	210.87
1019.36	210.91
1019.65	210.88
1019.93	210.94
1020.22	210.92
1020.51	211.09
1020.79	211.10
1021.08	211.05
1021.36	209.05
1021.65	209.85
1021.94	211.15
1022.22	212.05
1022.51	210.40
1022.79	213.00
1023.08	210.90
1023.36	214.45
1023.65	211.60
>>>>>End Processed Spectral Data<<<<<
