SpectraSuite Data File
++++++++++++++++++++++++++++++++++++
Date: Mon Feb 25 16:59:15 EST 2013
User: group
Dark Spectrum Present: No
Reference Spectrum Present: No
Number of Sampled Component Spectra: 1
Spectrometers: USB2E7196
Integration Time (usec): 104000 (USB2E7196)
Spectra Averaged: 20 (USB2E7196)
Boxcar Smoothing: 10 (USB2E7196)
Correct for Electrical Dark: No (USB2E7196)
Strobe/Lamp Enabled: No (USB2E7196)
Correct for Detector Non-linearity: No (USB2E7196)
Correct for Stray Light: No (USB2E7196)
Number of Pixels in Processed Spectrum: 2048
>>>>>Begin Processed Spectral Data<<<<<
339.09	0.00
339.48	199.30
339.86	200.10
340.24	202.00
340.63	202.50
341.01	209.95
341.39	205.40
341.78	207.75
342.16	209.90
342.54	209.50
342.93	198.46
343.31	208.47
343.69	209.00
344.07	209.48
344.46	209.89
344.84	210.29
345.22	210.31
345.60	210.63
345.99	210.79
346.37	210.84
346.75	210.89
347.13	210.87
347.52	210.91
347.90	211.05
348.28	211.05
348.66	211.13
349.05	211.00
349.43	211.06
349.81	211.08
350.19	211.10
350.57	211.14
350.96	211.24
351.34	211.29
351.72	211.40
352.10	211.50
352.48	211.57
352.87	211.62
353.25	211.62
353.63	211.60
354.01	211.65
354.39	211.72
354.77	211.78
355.15	211.90
355.54	211.93
355.92	211.83
356.30	211.90
356.68	212.15
357.06	212.32
357.44	212.33
357.82	212.37
358.20	212.45
358.58	212.54
358.97	212.55
359.35	212.70
359.73	212.70
360.11	212.74
360.49	212.80
360.87	212.81
361.25	212.93
361.63	213.11
362.01	213.16
362.39	213.14
362.77	213.19
363.15	213.26
363.53	213.32
363.91	213.36
364.29	213.35
364.67	213.08
365.05	213.03
365.43	213.07
365.81	213.22
366.19	213.45
366.57	213.54
366.95	213.60
367.33	213.53
367.71	213.50
368.09	213.55
368.47	213.55
368.85	213.56
369.23	213.65
369.61	213.50
369.99	213.59
370.37	213.72
370.75	213.86
371.13	213.72
371.51	213.63
371.89	213.66
372.27	213.67
372.65	213.65
373.03	213.64
373.41	213.63
373.78	213.51
374.16	213.27
374.54	213.23
374.92	213.10
375.30	213.11
375.68	213.07
376.06	213.06
376.44	212.96
376.82	212.94
377.19	212.85
377.57	212.78
377.95	212.61
378.33	212.53
378.71	212.26
379.09	212.39
379.47	212.38
379.84	212.25
380.22	212.11
380.60	212.08
380.98	212.06
381.36	211.95
381.73	211.85
382.11	211.90
382.49	211.77
382.87	211.70
383.25	211.67
383.62	212.04
384.00	211.92
384.38	211.86
384.76	211.83
385.13	211.89
385.51	211.90
385.89	211.83
386.27	211.79
386.64	211.86
387.02	211.73
387.40	211.67
387.78	211.77
388.15	211.81
388.53	211.72
388.91	211.63
389.29	211.61
389.66	211.72
390.04	211.59
390.42	211.70
390.79	211.68
391.17	211.63
391.55	211.20
391.92	211.24
392.30	211.31
392.68	211.25
393.05	211.24
393.43	211.21
393.81	211.31
394.18	211.20
394.56	211.21
394.94	211.25
395.31	211.22
395.69	211.27
396.06	211.30
396.44	211.41
396.82	211.43
397.19	211.65
397.57	211.60
397.95	211.72
398.32	211.67
398.70	211.77
399.07	211.82
399.45	211.88
399.82	211.85
400.20	211.82
400.58	211.91
400.95	211.80
401.33	211.96
401.70	212.24
402.08	212.38
402.45	212.45
402.83	212.64
403.20	212.80
403.58	212.89
403.95	213.16
404.33	213.33
404.71	213.50
405.08	213.84
405.46	213.97
405.83	214.18
406.21	214.35
406.58	214.68
406.96	214.97
407.33	215.30
407.70	215.63
408.08	216.28
408.45	216.70
408.83	217.26
409.20	217.63
409.58	217.85
409.95	218.32
410.33	218.90
410.70	219.35
411.08	220.04
411.45	220.69
411.82	221.26
412.20	221.94
412.57	222.98
412.95	223.55
413.32	224.56
413.69	225.45
414.07	226.49
414.44	227.55
414.82	228.72
415.19	230.10
415.56	231.50
415.94	232.79
416.31	234.41
416.68	236.04
417.06	237.81
417.43	239.67
417.81	241.73
418.18	243.80
418.55	246.02
418.93	248.39
419.30	250.87
419.67	253.51
420.04	256.27
420.42	259.04
420.79	262.43
421.16	265.82
421.54	269.38
421.91	272.99
422.28	276.72
422.66	280.75
423.03	284.72
423.40	288.85
423.77	293.23
424.15	297.66
424.52	302.28
424.89	307.47
425.26	312.30
425.64	317.02
426.01	322.26
426.38	327.69
426.75	333.17
427.13	338.84
427.50	344.83
427.87	351.15
428.24	357.41
428.61	363.28
428.99	369.79
429.36	376.99
429.73	384.03
430.10	391.15
430.47	398.35
430.85	405.78
431.22	413.74
431.59	422.30
431.96	430.51
432.33	439.53
432.70	448.23
433.08	458.41
433.45	468.20
433.82	477.87
434.19	488.84
434.56	499.60
434.93	509.83
435.30	520.10
435.68	531.45
436.05	542.91
436.42	554.45
436.79	564.87
437.16	575.90
437.53	587.78
437.90	599.53
438.27	611.20
438.64	623.34
439.01	634.63
439.38	644.78
439.75	654.55
440.13	665.80
440.50	676.57
440.87	685.61
441.24	694.72
441.61	704.74
441.98	712.23
442.35	720.94
442.72	729.96
443.09	738.64
443.46	744.36
443.83	748.38
444.20	751.80
444.57	756.65
444.94	759.48
445.31	762.40
445.68	765.20
446.05	766.60
446.42	766.25
446.79	765.92
447.16	765.17
447.53	765.11
447.90	761.58
448.27	758.08
448.64	752.79
449.01	749.28
449.37	742.39
449.74	735.74
450.11	727.59
450.48	718.58
450.85	709.41
451.22	701.40
451.59	693.73
451.96	686.57
452.33	676.75
452.70	667.97
453.07	657.22
453.43	646.34
453.80	636.09
454.17	626.10
454.54	616.41
454.91	606.23
455.28	596.01
455.65	586.66
456.02	577.32
456.38	569.37
456.75	559.32
457.12	551.10
457.49	542.85
457.86	534.90
458.23	528.00
458.59	520.31
458.96	512.65
459.33	505.97
459.70	499.16
460.07	493.85
460.43	487.54
460.80	481.50
461.17	476.27
461.54	470.91
461.91	465.84
462.27	460.54
462.64	455.99
463.01	451.10
463.38	446.35
463.74	441.47
464.11	437.23
464.48	433.66
464.85	429.57
465.21	426.59
465.58	423.21
465.95	419.17
466.32	416.00
466.68	412.80
467.05	409.43
467.42	406.16
467.78	402.62
468.15	399.48
468.52	397.32
468.88	394.19
469.25	391.32
469.62	388.86
469.98	386.49
470.35	384.25
470.72	382.07
471.08	379.57
471.45	377.53
471.82	375.49
472.18	373.17
472.55	371.55
472.92	369.50
473.28	367.78
473.65	366.16
474.02	364.48
474.38	363.08
474.75	361.83
475.11	360.50
475.48	359.49
475.85	358.54
476.21	357.50
476.58	356.76
476.94	356.15
477.31	355.46
477.67	354.75
478.04	354.04
478.41	353.68
478.77	353.70
479.14	353.34
479.50	353.18
479.87	353.15
480.23	353.05
480.60	352.91
480.96	352.84
481.33	353.25
481.69	353.47
482.06	353.59
482.42	353.85
482.79	354.16
483.15	354.59
483.52	355.19
483.88	355.71
484.25	356.15
484.61	356.83
484.98	357.45
485.34	358.47
485.71	359.52
486.07	360.44
486.44	361.25
486.80	362.30
487.17	363.39
487.53	364.75
487.90	366.21
488.26	367.81
488.62	369.51
488.99	371.01
489.35	372.67
489.72	374.50
490.08	376.18
490.44	378.04
490.81	380.04
491.17	381.95
491.54	384.09
491.90	386.41
492.26	388.66
492.63	391.10
492.99	393.39
493.36	395.91
493.72	398.64
494.08	401.33
494.45	404.20
494.81	407.23
495.17	410.16
495.54	413.28
495.90	416.42
496.26	419.58
496.63	422.89
496.99	426.30
497.35	429.69
497.72	433.36
498.08	437.01
498.44	440.67
498.80	444.67
499.17	448.54
499.53	452.33
499.89	456.35
500.26	460.22
500.62	463.99
500.98	468.05
501.34	471.91
501.71	475.90
502.07	479.76
502.43	483.59
502.79	487.36
503.16	491.16
503.52	495.00
503.88	498.82
504.24	502.79
504.60	506.58
504.97	510.57
505.33	514.41
505.69	518.45
506.05	522.24
506.41	525.84
506.78	529.22
507.14	532.65
507.50	536.05
507.86	539.58
508.22	543.03
508.59	546.12
508.95	549.40
509.31	552.79
509.67	555.98
510.03	559.28
510.39	562.52
510.75	565.50
511.12	568.40
511.48	571.19
511.84	573.81
512.20	576.53
512.56	579.25
512.92	582.00
513.28	584.33
513.64	586.71
514.00	588.92
514.37	591.44
514.73	593.85
515.09	596.20
515.45	598.46
515.81	600.71
516.17	602.69
516.53	604.65
516.89	606.43
517.25	608.20
517.61	609.77
517.97	611.38
518.33	613.01
518.69	614.62
519.05	616.16
519.41	617.70
519.77	619.25
520.13	620.44
520.49	621.40
520.85	622.65
521.21	624.04
521.57	625.48
521.93	626.21
522.29	627.29
522.65	628.15
523.01	629.14
523.37	629.95
523.73	631.14
524.09	632.14
524.45	633.14
524.81	634.22
525.17	635.27
525.53	636.27
525.89	637.29
526.25	638.19
526.61	638.99
526.97	639.90
527.33	640.77
527.68	642.02
528.04	643.10
528.40	643.92
528.76	644.92
529.12	645.91
529.48	647.41
529.84	648.56
530.20	649.68
530.56	650.76
530.91	652.22
531.27	653.55
531.63	654.84
531.99	656.10
532.35	657.43
532.71	658.70
533.07	660.37
533.42	662.13
533.78	663.72
534.14	665.46
534.50	666.80
534.86	668.61
535.21	669.87
535.57	671.81
535.93	673.61
536.29	675.39
536.65	677.15
537.00	678.70
537.36	680.46
537.72	682.31
538.08	684.25
538.44	686.00
538.79	687.95
539.15	689.84
539.51	691.94
539.87	694.05
540.22	696.33
540.58	698.43
540.94	700.38
541.29	702.50
541.65	704.42
542.01	706.79
542.37	708.93
542.72	711.31
543.08	713.35
543.44	715.72
543.79	717.62
544.15	719.89
544.51	722.49
544.87	725.08
545.22	727.52
545.58	729.85
545.94	732.04
546.29	734.11
546.65	736.40
547.01	738.42
547.36	740.66
547.72	742.92
548.07	745.13
548.43	747.12
548.79	749.28
549.14	751.63
549.50	753.94
549.86	755.94
550.21	758.13
550.57	760.48
550.92	762.58
551.28	765.07
551.64	767.34
551.99	769.56
552.35	771.58
552.70	773.58
553.06	775.92
553.41	778.27
553.77	781.06
554.13	783.40
554.48	785.90
554.84	788.53
555.19	790.80
555.55	793.30
555.90	795.61
556.26	797.63
556.61	799.66
556.97	801.57
557.32	803.75
557.68	805.73
558.03	807.68
558.39	809.60
558.74	811.50
559.10	813.31
559.45	815.12
559.81	817.04
560.16	818.94
560.52	820.71
560.87	822.70
561.23	823.78
561.58	825.73
561.94	827.37
562.29	828.59
562.64	830.44
563.00	831.92
563.35	833.57
563.71	835.69
564.06	837.38
564.42	839.26
564.77	841.11
565.12	843.11
565.48	844.99
565.83	846.90
566.19	848.88
566.54	850.48
566.89	852.10
567.25	853.90
567.60	855.86
567.96	857.69
568.31	859.45
568.66	861.22
569.02	862.30
569.37	863.47
569.72	864.82
570.08	865.78
570.43	866.75
570.78	867.76
571.14	868.50
571.49	869.29
571.84	870.05
572.20	870.55
572.55	870.80
572.90	870.85
573.26	871.05
573.61	871.05
573.96	871.40
574.31	871.47
574.67	871.20
575.02	870.73
575.37	870.07
575.72	869.21
576.08	868.90
576.43	868.45
576.78	868.11
577.13	867.62
577.49	867.16
577.84	866.45
578.19	866.03
578.54	865.71
578.90	865.59
579.25	865.09
579.60	864.15
579.95	863.41
580.30	862.95
580.66	862.27
581.01	861.32
581.36	860.13
581.71	859.07
582.06	858.05
582.42	857.14
582.77	856.12
583.12	855.17
583.47	854.02
583.82	853.15
584.17	851.87
584.53	850.98
584.88	849.70
585.23	848.54
585.58	847.23
585.93	845.68
586.28	844.31
586.63	842.79
586.98	841.73
587.34	840.76
587.69	839.32
588.04	837.95
588.39	836.85
588.74	835.56
589.09	834.23
589.44	832.79
589.79	831.51
590.14	830.35
590.49	828.95
590.84	827.55
591.19	826.31
591.54	825.03
591.89	822.96
592.25	821.61
592.60	819.93
592.95	818.27
593.30	816.31
593.65	814.21
594.00	812.24
594.35	811.32
594.70	809.24
595.05	807.51
595.40	805.72
595.75	803.63
596.10	801.92
596.45	800.20
596.80	798.65
597.15	796.90
597.50	794.66
597.85	792.83
598.19	790.82
598.54	788.74
598.89	786.61
599.24	785.29
599.59	783.24
599.94	781.64
600.29	779.70
600.64	777.98
600.99	776.07
601.34	774.29
601.69	771.20
602.04	768.89
602.39	766.72
602.74	764.59
603.08	762.85
603.43	760.94
603.78	758.82
604.13	756.49
604.48	754.35
604.83	752.83
605.18	750.84
605.53	748.75
605.87	746.50
606.22	744.60
606.57	742.09
606.92	739.81
607.27	737.36
607.62	735.20
607.96	733.30
608.31	731.34
608.66	729.11
609.01	727.10
609.36	725.06
609.70	722.71
610.05	720.41
610.40	717.95
610.75	715.33
611.10	713.11
611.44	710.55
611.79	707.85
612.14	705.14
612.49	702.43
612.83	699.94
613.18	697.41
613.53	694.72
613.88	692.05
614.22	689.55
614.57	686.93
614.92	684.25
615.27	681.50
615.61	678.69
615.96	676.25
616.31	673.81
616.65	671.55
617.00	669.13
617.35	666.61
617.70	663.98
618.04	661.22
618.39	658.33
618.74	655.96
619.08	653.44
619.43	650.75
619.78	648.20
620.12	645.71
620.47	643.08
620.82	640.23
621.16	637.55
621.51	634.97
621.85	632.45
622.20	629.77
622.55	627.04
622.89	624.39
623.24	621.60
623.59	618.76
623.93	615.94
624.28	613.41
624.62	611.08
624.97	608.50
625.32	605.95
625.66	603.63
626.01	600.96
626.35	598.42
626.70	595.83
627.04	593.55
627.39	591.08
627.73	588.71
628.08	586.76
628.43	584.35
628.77	581.90
629.12	579.25
629.46	576.93
629.81	574.66
630.15	572.22
630.50	569.86
630.84	567.37
631.19	565.03
631.53	562.62
631.88	559.82
632.22	557.29
632.57	555.13
632.91	552.70
633.26	550.38
633.60	548.14
633.95	545.98
634.29	543.45
634.64	541.20
634.98	538.66
635.32	536.37
635.67	534.29
636.01	532.11
636.36	530.04
636.70	528.01
637.05	525.71
637.39	523.75
637.73	521.72
638.08	520.06
638.42	518.15
638.77	516.29
639.11	514.36
639.45	512.36
639.80	510.12
640.14	507.98
640.49	506.02
640.83	503.95
641.17	501.80
641.52	499.87
641.86	497.68
642.20	495.92
642.55	493.60
642.89	491.50
643.23	489.50
643.58	487.69
643.92	485.40
644.26	483.35
644.61	481.32
644.95	479.21
645.29	477.06
645.64	474.92
645.98	472.69
646.32	470.65
646.66	468.58
647.01	466.61
647.35	464.79
647.69	462.64
648.04	460.71
648.38	458.71
648.72	456.73
649.06	454.66
649.41	452.58
649.75	450.60
650.09	448.63
650.43	446.48
650.78	444.30
651.12	442.29
651.46	440.35
651.80	438.46
652.14	436.54
652.49	434.60
652.83	432.69
653.17	430.58
653.51	428.62
653.85	426.78
654.20	424.90
654.54	422.84
654.88	420.97
655.22	419.02
655.56	417.06
655.90	415.07
656.25	413.24
656.59	411.27
656.93	409.56
657.27	407.95
657.61	406.06
657.95	404.34
658.29	402.76
658.64	401.17
658.98	399.36
659.32	397.48
659.66	395.65
660.00	393.84
660.34	392.15
660.68	390.39
661.02	388.59
661.36	387.03
661.70	385.41
662.05	383.88
662.39	382.35
662.73	381.02
663.07	379.71
663.41	378.19
663.75	376.68
664.09	375.20
664.43	373.39
664.77	372.00
665.11	370.37
665.45	368.84
665.79	367.36
666.13	365.88
666.47	364.47
666.81	363.03
667.15	361.54
667.49	360.25
667.83	359.06
668.17	357.81
668.51	356.58
668.85	355.32
669.19	354.13
669.53	352.70
669.87	351.25
670.21	349.83
670.55	348.65
670.89	347.71
671.23	346.38
671.57	345.28
671.91	344.04
672.25	342.89
672.58	341.69
672.92	340.32
673.26	339.21
673.60	338.16
673.94	337.02
674.28	335.94
674.62	334.86
674.96	333.62
675.30	332.54
675.64	331.35
675.97	330.23
676.31	329.08
676.65	327.97
676.99	327.09
677.33	325.99
677.67	324.95
678.01	323.64
678.34	322.60
678.68	321.65
679.02	320.53
679.36	319.56
679.70	318.56
680.04	317.58
680.37	316.47
680.71	315.39
681.05	314.55
681.39	313.59
681.73	312.63
682.06	311.86
682.40	310.93
682.74	310.03
683.08	309.20
683.42	308.31
683.75	307.56
684.09	306.51
684.43	305.53
684.77	304.55
685.10	303.64
685.44	302.66
685.78	301.72
686.12	300.89
686.45	300.02
686.79	299.07
687.13	298.33
687.46	297.53
687.80	296.81
688.14	295.83
688.48	295.07
688.81	294.24
689.15	293.39
689.49	292.59
689.82	291.75
690.16	290.75
690.50	289.85
690.83	288.91
691.17	287.98
691.51	287.22
691.84	286.47
692.18	285.68
692.52	285.01
692.85	284.35
693.19	283.73
693.52	282.96
693.86	282.23
694.20	281.45
694.53	280.73
694.87	279.88
695.21	279.08
695.54	278.24
695.88	277.43
696.21	276.55
696.55	275.75
696.88	275.03
697.22	274.33
697.56	273.76
697.89	273.12
698.23	272.57
698.56	271.95
698.90	271.30
699.23	270.63
699.57	269.97
699.90	269.23
700.24	268.50
700.58	267.87
700.91	267.33
701.25	267.00
701.58	266.51
701.92	266.09
702.25	265.55
702.59	265.03
702.92	264.47
703.26	264.05
703.59	263.51
703.93	263.24
704.26	262.76
704.60	262.21
704.93	261.60
705.26	261.03
705.60	260.56
705.93	259.93
706.27	259.52
706.60	259.15
706.94	258.85
707.27	258.35
707.61	257.91
707.94	257.34
708.27	256.60
708.61	255.97
708.94	255.40
709.28	254.92
709.61	254.38
709.94	254.01
710.28	253.44
710.61	253.03
710.95	252.24
711.28	252.14
711.61	251.68
711.95	251.42
712.28	251.02
712.61	250.60
712.95	250.43
713.28	250.13
713.61	249.70
713.95	249.19
714.28	248.77
714.61	248.32
714.95	248.01
715.28	247.57
715.61	247.23
715.95	246.84
716.28	246.45
716.61	246.14
716.95	245.71
717.28	245.44
717.61	245.08
717.94	244.75
718.28	244.04
718.61	243.68
718.94	243.19
719.27	242.79
719.61	242.43
719.94	242.01
720.27	241.53
720.60	241.16
720.94	240.90
721.27	240.70
721.60	240.47
721.93	240.07
722.27	239.94
722.60	239.70
722.93	239.41
723.26	239.20
723.59	238.83
723.93	238.65
724.26	238.36
724.59	238.09
724.92	237.92
725.25	237.81
725.59	237.53
725.92	237.38
726.25	237.17
726.58	236.92
726.91	236.63
727.24	236.53
727.57	236.25
727.91	235.91
728.24	235.63
728.57	235.31
728.90	235.19
729.23	234.76
729.56	234.58
729.89	234.30
730.22	234.04
730.55	233.88
730.89	233.56
731.22	233.33
731.55	233.10
731.88	232.81
732.21	232.46
732.54	232.18
732.87	231.87
733.20	231.71
733.53	231.43
733.86	231.30
734.19	230.97
734.52	230.81
734.85	230.82
735.18	230.53
735.51	230.47
735.84	230.30
736.17	230.25
736.50	229.98
736.83	230.23
737.16	230.04
737.49	229.91
737.82	229.69
738.15	229.59
738.48	229.43
738.81	229.30
739.14	229.16
739.47	229.02
739.80	228.93
740.13	228.76
740.46	228.61
740.79	228.36
741.12	228.14
741.45	227.93
741.78	227.61
742.11	227.56
742.44	227.30
742.77	227.19
743.10	226.96
743.43	226.81
743.75	226.29
744.08	226.61
744.41	226.31
744.74	226.15
745.07	225.91
745.40	225.83
745.73	225.82
746.06	225.64
746.39	225.53
746.71	225.36
747.04	225.14
747.37	225.00
747.70	224.86
748.03	224.80
748.36	224.70
748.68	224.47
749.01	224.34
749.34	224.28
749.67	224.16
750.00	224.09
750.33	224.19
750.65	224.11
750.98	223.50
751.31	223.46
751.64	223.40
751.97	223.50
752.29	223.35
752.62	223.05
752.95	222.90
753.28	222.76
753.60	222.60
753.93	222.58
754.26	222.53
754.59	222.45
754.91	222.26
755.24	222.14
755.57	222.12
755.90	221.98
756.22	221.82
756.55	221.63
756.88	221.49
757.20	221.10
757.53	220.85
757.86	220.75
758.19	220.66
758.51	220.55
758.84	220.28
759.17	220.12
759.49	220.11
759.82	220.20
760.15	220.13
760.47	220.06
760.80	219.84
761.13	219.78
761.45	219.62
761.78	219.61
762.11	219.52
762.43	219.35
762.76	219.24
763.08	219.19
763.41	219.16
763.74	219.05
764.06	219.01
764.39	218.99
764.71	218.94
765.04	218.82
765.37	218.70
765.69	218.60
766.02	218.55
766.34	218.45
766.67	218.21
767.00	218.15
767.32	218.28
767.65	218.45
767.97	218.31
768.30	218.33
768.62	218.22
768.95	218.11
769.27	218.05
769.60	218.05
769.92	217.91
770.25	217.76
770.57	217.70
770.90	217.64
771.22	217.55
771.55	217.48
771.87	217.42
772.20	217.41
772.52	217.59
772.85	217.91
773.17	217.78
773.50	217.73
773.82	217.66
774.15	217.35
774.47	217.10
774.80	217.05
775.12	216.93
775.45	216.92
775.77	216.90
776.09	216.86
776.42	216.80
776.74	216.86
777.07	216.83
777.39	216.75
777.72	216.72
778.04	216.70
778.36	216.61
778.69	216.58
779.01	216.53
779.33	216.15
779.66	215.70
779.98	215.65
780.31	215.66
780.63	215.77
780.95	215.88
781.28	215.83
781.60	215.80
781.92	215.72
782.25	215.60
782.57	215.57
782.89	215.48
783.22	215.40
783.54	215.24
783.86	215.20
784.19	215.19
784.51	215.20
784.83	215.11
785.16	215.05
785.48	215.02
785.80	214.99
786.12	215.01
786.45	214.95
786.77	214.93
787.09	214.81
787.42	214.70
787.74	214.61
788.06	214.64
788.38	214.48
788.71	214.42
789.03	214.43
789.35	214.42
789.67	214.38
789.99	214.36
790.32	214.32
790.64	214.35
790.96	214.56
791.28	214.43
791.61	214.36
791.93	214.39
792.25	214.41
792.57	214.62
792.89	214.55
793.21	214.58
793.54	214.55
793.86	214.51
794.18	214.42
794.50	214.30
794.82	214.22
795.14	214.36
795.47	214.38
795.79	214.35
796.11	214.26
796.43	214.22
796.75	214.15
797.07	214.21
797.39	214.13
797.71	213.92
798.04	213.95
798.36	214.00
798.68	213.95
799.00	213.82
799.32	213.65
799.64	213.72
799.96	213.68
800.28	213.70
800.60	213.67
800.92	213.68
801.24	213.70
801.56	213.75
801.89	213.64
802.21	213.66
802.53	213.56
802.85	213.56
803.17	213.68
803.49	213.63
803.81	213.53
804.13	213.46
804.45	213.32
804.77	213.29
805.09	213.25
805.41	213.20
805.73	213.16
806.05	213.01
806.37	212.95
806.69	212.89
807.01	212.92
807.33	212.88
807.65	212.77
807.97	212.96
808.28	212.85
808.60	212.84
808.92	212.77
809.24	212.99
809.56	212.95
809.88	212.83
810.20	212.86
810.52	212.94
810.84	212.88
811.16	212.87
811.48	212.79
811.80	212.88
812.12	212.86
812.43	212.90
812.75	212.91
813.07	212.90
813.39	212.95
813.71	212.80
814.03	212.84
814.35	212.88
814.67	212.66
814.98	212.61
815.30	212.55
815.62	212.49
815.94	212.25
816.26	212.27
816.58	212.17
816.89	212.11
817.21	212.05
817.53	212.10
817.85	212.11
818.17	212.15
818.48	212.00
818.80	212.05
819.12	211.97
819.44	211.93
819.76	211.84
820.07	211.84
820.39	211.81
820.71	211.79
821.03	211.71
821.34	211.63
821.66	211.62
821.98	211.65
822.30	211.66
822.61	211.82
822.93	211.72
823.25	211.75
823.57	211.74
823.88	211.76
824.20	211.73
824.52	211.71
824.83	211.67
825.15	211.64
825.47	211.62
825.79	211.66
826.10	211.65
826.42	211.63
826.74	211.65
827.05	211.67
827.37	211.67
827.69	211.69
828.00	211.76
828.32	211.81
828.64	211.80
828.95	211.95
829.27	211.95
829.58	212.02
829.90	212.06
830.22	212.06
830.53	211.96
830.85	211.91
831.17	211.85
831.48	211.87
831.80	211.86
832.11	211.82
832.43	211.80
832.75	211.79
833.06	212.06
833.38	211.95
833.69	211.91
834.01	211.95
834.32	211.95
834.64	211.93
834.96	211.87
835.27	211.90
835.59	211.81
835.90	211.65
836.22	211.64
836.53	211.61
836.85	211.58
837.16	211.97
837.48	211.94
837.79	212.05
838.11	212.09
838.42	212.12
838.74	212.20
839.05	212.10
839.37	212.12
839.68	211.85
840.00	211.80
840.31	211.85
840.63	211.80
840.94	211.73
841.26	211.68
841.57	211.75
841.88	211.71
842.20	211.70
842.51	211.70
842.83	211.65
843.14	211.92
843.46	211.95
843.77	211.73
844.08	211.72
844.40	211.58
844.71	211.47
845.03	211.44
845.34	211.38
845.65	211.39
845.97	211.34
846.28	211.36
846.60	211.46
846.91	211.44
847.22	211.39
847.54	211.48
847.85	211.52
848.16	211.50
848.48	211.41
848.79	211.50
849.10	211.51
849.42	211.56
849.73	211.22
850.04	211.20
850.36	211.11
850.67	211.20
850.98	211.25
851.30	211.32
851.61	211.23
851.92	211.24
852.23	211.41
852.55	211.49
852.86	211.43
853.17	211.39
853.49	211.49
853.80	211.55
854.11	211.60
854.42	211.61
854.74	211.60
855.05	211.65
855.36	211.44
855.67	211.47
855.99	211.44
856.30	211.93
856.61	211.92
856.92	211.93
857.23	211.92
857.55	211.90
857.86	211.90
858.17	212.01
858.48	212.04
858.79	211.96
859.11	211.95
859.42	212.04
859.73	211.99
860.04	211.94
860.35	211.90
860.66	211.76
860.98	211.76
861.29	211.74
861.60	211.73
861.91	211.78
862.22	211.70
862.53	211.67
862.84	211.22
863.16	211.28
863.47	211.20
863.78	211.17
864.09	211.20
864.40	211.22
864.71	211.17
865.02	211.17
865.33	211.18
865.64	211.08
865.95	211.08
866.27	211.37
866.58	211.30
866.89	211.31
867.20	211.35
867.51	211.28
867.82	211.23
868.13	211.32
868.44	211.33
868.75	211.44
869.06	211.52
869.37	211.54
869.68	211.49
869.99	211.54
870.30	211.54
870.61	211.58
870.92	211.55
871.23	211.57
871.54	211.61
871.85	211.66
872.16	211.70
872.47	211.67
872.78	211.37
873.09	211.40
873.40	211.35
873.71	211.39
874.02	211.44
874.33	211.46
874.64	211.40
874.95	211.45
875.26	211.38
875.56	211.37
875.87	211.39
876.18	211.33
876.49	211.71
876.80	211.72
877.11	211.68
877.42	211.66
877.73	211.64
878.04	211.55
878.35	211.58
878.66	211.61
878.96	211.65
879.27	211.65
879.58	211.69
879.89	211.71
880.20	211.80
880.51	211.84
880.82	211.82
881.12	211.85
881.43	211.73
881.74	211.74
882.05	211.64
882.36	211.68
882.67	211.70
882.97	211.30
883.28	211.29
883.59	211.27
883.90	211.34
884.21	211.39
884.51	211.34
884.82	211.29
885.13	211.29
885.44	211.20
885.74	211.31
886.05	211.29
886.36	211.33
886.67	211.20
886.98	211.31
887.28	211.34
887.59	211.38
887.90	211.48
888.20	211.48
888.51	211.59
888.82	211.47
889.13	211.49
889.43	211.80
889.74	211.75
890.05	211.74
890.35	211.66
890.66	211.59
890.97	211.57
891.28	211.51
891.58	211.49
891.89	211.56
892.20	211.51
892.50	211.51
892.81	211.48
893.12	211.45
893.42	211.36
893.73	211.37
894.04	211.35
894.34	211.39
894.65	211.31
894.95	211.23
895.26	211.22
895.57	211.46
895.87	211.13
896.18	211.20
896.48	211.23
896.79	211.16
897.10	211.25
897.40	211.33
897.71	211.31
898.01	211.29
898.32	211.30
898.63	211.23
898.93	211.26
899.24	211.20
899.54	211.19
899.85	211.13
900.15	211.13
900.46	211.07
900.76	211.04
901.07	211.02
901.38	211.05
901.68	211.10
901.99	210.87
902.29	210.91
902.60	210.92
902.90	210.90
903.21	210.95
903.51	210.91
903.82	210.93
904.12	210.93
904.43	210.97
904.73	210.96
905.03	210.97
905.34	211.28
905.64	211.28
905.95	211.32
906.25	211.28
906.56	211.21
906.86	211.24
907.17	211.17
907.47	211.30
907.77	211.21
908.08	211.21
908.38	211.20
908.69	211.19
908.99	211.12
909.30	211.16
909.60	211.16
909.90	211.20
910.21	211.11
910.51	211.09
910.81	211.07
911.12	211.08
911.42	211.09
911.73	210.69
912.03	210.74
912.33	210.80
912.64	210.77
912.94	210.83
913.24	210.75
913.55	210.73
913.85	210.64
914.15	210.72
914.46	210.67
914.76	210.70
915.06	210.68
915.37	210.68
915.67	210.63
915.97	210.64
916.27	210.56
916.58	210.57
916.88	210.62
917.18	210.63
917.49	210.78
917.79	210.75
918.09	210.83
918.39	210.94
918.70	210.93
919.00	211.01
919.30	211.10
919.60	211.09
919.91	211.18
920.21	211.20
920.51	211.21
920.81	211.17
921.12	211.24
921.42	211.18
921.72	211.22
922.02	211.22
922.32	211.23
922.63	211.27
922.93	211.48
923.23	211.40
923.53	211.37
923.83	211.17
924.13	211.25
924.44	211.22
924.74	211.27
925.04	211.33
925.34	211.31
925.64	211.23
925.94	211.25
926.24	211.35
926.55	211.29
926.85	211.31
927.15	211.38
927.45	211.30
927.75	211.39
928.05	211.36
928.35	211.33
928.65	211.39
928.95	211.30
929.26	211.17
929.56	211.25
929.86	211.28
930.16	211.27
930.46	211.17
930.76	211.14
931.06	210.95
931.36	210.87
931.66	210.90
931.96	210.93
932.26	210.90
932.56	210.78
932.86	210.85
933.16	210.79
933.46	210.77
933.76	210.73
934.06	210.87
934.36	211.00
934.66	210.99
934.96	210.95
935.26	211.07
935.56	211.09
935.86	211.01
936.16	210.92
936.46	210.93
936.76	210.96
937.06	210.95
937.36	211.03
937.66	211.05
937.96	211.05
938.26	211.00
938.56	211.01
938.86	211.03
939.16	211.07
939.46	211.09
939.76	211.06
940.06	211.05
940.35	210.85
940.65	210.65
940.95	210.80
941.25	210.72
941.55	210.69
941.85	210.72
942.15	210.84
942.45	210.99
942.75	210.96
943.04	211.00
943.34	211.10
943.64	211.03
943.94	210.95
944.24	210.94
944.54	210.92
944.84	210.96
945.13	210.87
945.43	210.82
945.73	210.81
946.03	210.85
946.33	210.87
946.62	210.87
946.92	210.88
947.22	210.78
947.52	210.83
947.82	210.87
948.11	210.79
948.41	210.65
948.71	210.53
949.01	210.59
949.31	210.64
949.60	210.57
949.90	210.63
950.20	210.58
950.50	210.56
950.79	210.55
951.09	210.59
951.39	210.57
951.69	210.56
951.98	210.65
952.28	210.63
952.58	210.63
952.87	210.58
953.17	210.66
953.47	210.66
953.76	210.64
954.06	210.54
954.36	210.51
954.66	210.48
954.95	210.58
955.25	210.60
955.55	210.55
955.84	210.48
956.14	210.50
956.44	210.58
956.73	210.58
957.03	210.58
957.32	210.53
957.62	210.49
957.92	210.54
958.21	210.51
958.51	210.89
958.81	210.88
959.10	211.04
959.40	211.09
959.69	211.13
959.99	211.17
960.29	211.18
960.58	211.11
960.88	211.32
961.17	211.27
961.47	211.26
961.76	211.28
962.06	211.30
962.36	211.24
962.65	211.24
962.95	211.25
963.24	211.26
963.54	211.31
963.83	211.43
964.13	211.41
964.42	211.32
964.72	211.07
965.01	211.14
965.31	211.09
965.60	211.08
965.90	211.29
966.19	211.27
966.49	211.24
966.78	211.27
967.08	211.19
967.37	211.22
967.67	211.14
967.96	211.16
968.26	211.24
968.55	211.32
968.85	211.31
969.14	211.31
969.43	211.29
969.73	211.23
970.02	211.19
970.32	211.14
970.61	211.18
970.91	211.08
971.20	211.00
971.49	210.95
971.79	210.91
972.08	210.63
972.38	210.64
972.67	210.69
972.96	210.73
973.26	210.66
973.55	210.79
973.85	210.75
974.14	210.74
974.43	210.76
974.73	210.69
975.02	210.67
975.31	210.66
975.61	210.67
975.90	210.66
976.19	210.65
976.49	210.74
976.78	210.81
977.07	210.85
977.37	210.84
977.66	210.91
977.95	210.86
978.24	210.94
978.54	211.03
978.83	210.97
979.12	210.97
979.42	211.05
979.71	210.91
980.00	210.96
980.29	210.97
980.59	210.84
980.88	210.93
981.17	210.88
981.46	210.87
981.76	210.88
982.05	211.02
982.34	211.07
982.63	211.07
982.93	211.04
983.22	211.08
983.51	211.15
983.80	211.15
984.09	211.21
984.39	211.22
984.68	211.14
984.97	211.22
985.26	211.23
985.55	211.25
985.85	211.20
986.14	211.23
986.43	211.27
986.72	211.30
987.01	211.21
987.30	211.17
987.59	211.16
987.89	211.17
988.18	211.04
988.47	210.97
988.76	210.91
989.05	210.86
989.34	210.77
989.63	210.84
989.92	210.79
990.22	210.76
990.51	210.67
990.80	210.70
991.09	210.68
991.38	210.70
991.67	210.67
991.96	210.69
992.25	210.67
992.54	210.61
992.83	210.60
993.12	210.57
993.41	210.66
993.70	210.85
993.99	210.90
994.28	210.95
994.58	211.01
994.87	211.02
995.16	211.01
995.45	211.03
995.74	210.89
996.03	210.98
996.32	211.03
996.61	211.18
996.90	211.03
997.19	211.03
997.48	211.08
997.77	211.07
998.06	211.05
998.34	211.08
998.63	211.10
998.92	211.17
999.21	211.21
999.50	211.26
999.79	211.11
1000.08	211.13
1000.37	211.17
1000.66	211.10
1000.95	211.16
1001.24	211.24
1001.53	211.31
1001.82	211.32
1002.11	211.16
1002.40	211.18
1002.68	211.19
1002.97	211.43
1003.26	211.41
1003.55	211.31
1003.84	211.27
1004.13	211.45
1004.42	211.43
1004.71	211.34
1004.99	211.25
1005.28	211.35
1005.57	211.34
1005.86	211.27
1006.15	211.26
1006.44	211.16
1006.72	211.19
1007.01	211.16
1007.30	211.10
1007.59	210.98
1007.88	210.98
1008.17	211.03
1008.45	210.96
1008.74	210.84
1009.03	210.72
1009.32	210.69
1009.60	210.70
1009.89	210.75
1010.18	210.60
1010.47	210.59
1010.76	210.58
1011.04	210.57
1011.33	210.61
1011.62	210.54
1011.91	210.59
1012.19	210.54
1012.48	210.61
1012.77	210.68
1013.05	210.76
1013.34	210.74
1013.63	210.74
1013.92	210.77
1014.20	210.79
1014.49	210.72
1014.78	210.77
1015.06	210.70
1015.35	210.74
1015.64	210.82
1015.92	210.76
1016.21	210.70
1016.50	210.67
1016.78	210.76
1017.07	210.80
1017.36	210.70
1017.64	210.77
1017.93	210.78
1018.22	210.83
1018.50	210.78
1018.79	210.76
1019.08	210.66
1019.36	210.66
1019.65	210.67
1019.93	210.76
1020.22	210.83
1020.51	211.01
1020.79	211.00
1021.08	211.50
1021.36	210.30
1021.65	211.40
1021.94	211.15
1022.22	210.30
1022.51	209.90
1022.79	212.90
1023.08	212.00
1023.36	213.35
1023.65	210.65
>>>>>End Processed Spectral Data<<<<<
