SpectraSuite Data File
++++++++++++++++++++++++++++++++++++
Date: Mon Feb 25 16:56:46 EST 2013
User: group
Dark Spectrum Present: No
Reference Spectrum Present: No
Number of Sampled Component Spectra: 1
Spectrometers: USB2E7196
Integration Time (usec): 104000 (USB2E7196)
Spectra Averaged: 20 (USB2E7196)
Boxcar Smoothing: 10 (USB2E7196)
Correct for Electrical Dark: No (USB2E7196)
Strobe/Lamp Enabled: No (USB2E7196)
Correct for Detector Non-linearity: No (USB2E7196)
Correct for Stray Light: No (USB2E7196)
Number of Pixels in Processed Spectrum: 2048
>>>>>Begin Processed Spectral Data<<<<<
339.09	0.00
339.48	197.70
339.86	198.70
340.24	200.65
340.63	202.90
341.01	208.70
341.39	205.25
341.78	207.85
342.16	209.50
342.54	207.60
342.93	197.85
343.31	207.85
343.69	208.39
344.07	208.90
344.46	209.39
344.84	209.77
345.22	209.79
345.60	210.07
345.99	210.19
346.37	210.21
346.75	210.35
347.13	210.39
347.52	210.41
347.90	210.60
348.28	210.66
348.66	210.75
349.05	210.66
349.43	210.73
349.81	210.80
350.19	210.80
350.57	210.87
350.96	210.94
351.34	211.02
351.72	211.13
352.10	211.24
352.48	211.24
352.87	211.28
353.25	211.43
353.63	211.50
354.01	211.53
354.39	211.69
354.77	211.81
355.15	211.99
355.54	212.01
355.92	211.93
356.30	212.03
356.68	212.41
357.06	212.56
357.44	212.53
357.82	212.57
358.20	212.67
358.58	212.79
358.97	212.77
359.35	212.87
359.73	212.99
360.11	213.09
360.49	213.12
360.87	213.12
361.25	213.15
361.63	213.27
362.01	213.42
362.39	213.39
362.77	213.38
363.15	213.44
363.53	213.57
363.91	213.60
364.29	213.69
364.67	213.30
365.05	213.28
365.43	213.36
365.81	213.52
366.19	213.64
366.57	213.79
366.95	213.84
367.33	213.84
367.71	213.84
368.09	213.86
368.47	213.96
368.85	214.01
369.23	214.12
369.61	214.04
369.99	214.12
370.37	214.21
370.75	214.36
371.13	214.25
371.51	214.11
371.89	214.21
372.27	214.15
372.65	214.19
373.03	214.24
373.41	214.21
373.78	214.15
374.16	213.98
374.54	213.70
374.92	213.63
375.30	213.57
375.68	213.52
376.06	213.50
376.44	213.47
376.82	213.45
377.19	213.42
377.57	213.35
377.95	213.24
378.33	213.13
378.71	212.92
379.09	212.94
379.47	212.96
379.84	212.82
380.22	212.69
380.60	212.51
380.98	212.41
381.36	212.38
381.73	212.25
382.11	212.23
382.49	212.30
382.87	212.35
383.25	212.29
383.62	212.62
384.00	212.51
384.38	212.40
384.76	212.44
385.13	212.49
385.51	212.51
385.89	212.39
386.27	212.40
386.64	212.45
387.02	212.38
387.40	212.34
387.78	212.32
388.15	212.31
388.53	212.34
388.91	212.35
389.29	212.25
389.66	212.29
390.04	212.26
390.42	212.30
390.79	212.25
391.17	212.25
391.55	211.86
391.92	211.95
392.30	211.97
392.68	211.89
393.05	211.84
393.43	211.83
393.81	211.89
394.18	211.86
394.56	211.82
394.94	211.88
395.31	211.85
395.69	211.99
396.06	212.10
396.44	212.20
396.82	212.23
397.19	212.48
397.57	212.46
397.95	212.57
398.32	212.51
398.70	212.60
399.07	212.73
399.45	212.81
399.82	212.82
400.20	212.89
400.58	212.98
400.95	212.93
401.33	213.07
401.70	213.38
402.08	213.47
402.45	213.62
402.83	213.82
403.20	214.03
403.58	214.15
403.95	214.38
404.33	214.62
404.71	214.79
405.08	215.17
405.46	215.49
405.83	215.77
406.21	216.08
406.58	216.42
406.96	216.71
407.33	217.08
407.70	217.53
408.08	218.31
408.45	218.96
408.83	219.60
409.20	220.16
409.58	220.64
409.95	221.48
410.33	222.30
410.70	223.05
411.08	223.92
411.45	224.87
411.82	225.73
412.20	226.79
412.57	228.17
412.95	229.06
413.32	230.38
413.69	231.75
414.07	233.31
414.44	234.95
414.82	236.65
415.19	238.55
415.56	240.49
415.94	242.40
416.31	244.68
416.68	246.94
417.06	249.53
417.43	252.02
417.81	254.79
418.18	257.67
418.55	260.93
418.93	264.35
419.30	267.88
419.67	271.68
420.04	275.54
420.42	279.53
420.79	284.33
421.16	289.05
421.54	294.04
421.91	299.00
422.28	304.29
422.66	309.95
423.03	315.52
423.40	321.28
423.77	327.40
424.15	333.64
424.52	340.18
424.89	347.47
425.26	354.41
425.64	361.08
426.01	368.41
426.38	376.00
426.75	383.86
427.13	391.95
427.50	400.43
427.87	409.40
428.24	418.22
428.61	426.71
428.99	436.06
429.36	446.12
429.73	456.20
430.10	466.10
430.47	476.32
430.85	487.10
431.22	498.53
431.59	510.54
431.96	522.17
432.33	534.95
432.70	547.23
433.08	561.96
433.45	575.68
433.82	589.51
434.19	604.82
434.56	619.91
434.93	634.37
435.30	648.89
435.68	665.10
436.05	681.04
436.42	697.09
436.79	711.77
437.16	727.73
437.53	744.61
437.90	761.52
438.27	778.08
438.64	795.28
439.01	811.46
439.38	826.06
439.75	840.21
440.13	856.31
440.50	871.59
440.87	884.30
441.24	897.45
441.61	911.98
441.98	923.00
442.35	935.81
442.72	948.65
443.09	961.00
443.46	969.06
443.83	974.95
444.20	980.22
444.57	987.42
444.94	991.39
445.31	995.43
445.68	999.32
446.05	1001.85
446.42	1001.50
446.79	1000.71
447.16	999.80
447.53	999.36
447.90	994.55
448.27	989.61
448.64	982.02
449.01	977.16
449.37	967.13
449.74	957.65
450.11	945.66
450.48	933.01
450.85	920.19
451.22	908.91
451.59	898.30
451.96	888.05
452.33	873.97
452.70	861.32
453.07	846.15
453.43	830.57
453.80	815.46
454.17	801.20
454.54	787.53
454.91	772.85
455.28	758.37
455.65	745.05
456.02	731.61
456.38	720.37
456.75	706.03
457.12	694.29
457.49	682.45
457.86	671.27
458.23	661.34
458.59	650.56
458.96	639.61
459.33	629.95
459.70	620.16
460.07	612.53
460.43	603.77
460.80	595.47
461.17	588.10
461.54	580.59
461.91	573.32
462.27	566.01
462.64	559.80
463.01	553.03
463.38	546.25
463.74	539.49
464.11	533.54
464.48	528.37
464.85	522.74
465.21	518.59
465.58	513.92
465.95	508.31
466.32	503.51
466.68	498.89
467.05	494.33
467.42	489.75
467.78	484.94
468.15	480.40
468.52	477.03
468.88	472.67
469.25	468.73
469.62	465.50
469.98	462.02
470.35	458.69
470.72	455.70
471.08	452.41
471.45	449.66
471.82	446.71
472.18	443.52
472.55	441.17
472.92	438.37
473.28	436.06
473.65	433.85
474.02	431.68
474.38	429.87
474.75	428.42
475.11	426.76
475.48	425.45
475.85	424.29
476.21	423.10
476.58	422.21
476.94	421.51
477.31	420.61
477.67	419.79
478.04	419.24
478.41	418.76
478.77	418.70
479.14	418.25
479.50	418.20
479.87	418.44
480.23	418.75
480.60	418.70
480.96	418.72
481.33	419.46
481.69	419.95
482.06	420.42
482.42	420.67
482.79	421.19
483.15	422.11
483.52	423.25
483.88	424.21
484.25	425.19
484.61	426.31
484.98	427.53
485.34	429.19
485.71	430.96
486.07	432.75
486.44	434.17
486.80	436.19
487.17	438.18
487.53	440.46
487.90	442.88
488.26	445.67
488.62	448.45
488.99	450.96
489.35	453.83
489.72	456.79
490.08	460.21
490.44	463.69
490.81	467.04
491.17	470.41
491.54	474.21
491.90	478.13
492.26	482.32
492.63	486.50
492.99	490.75
493.36	495.30
493.72	500.07
494.08	505.09
494.45	510.32
494.81	515.91
495.17	521.32
495.54	526.89
495.90	532.68
496.26	538.42
496.63	544.45
496.99	550.67
497.35	557.20
497.72	563.59
498.08	570.17
498.44	576.99
498.80	584.23
499.17	591.65
499.53	598.96
499.89	606.42
500.26	613.77
500.62	621.19
500.98	628.74
501.34	636.47
501.71	644.41
502.07	652.21
502.43	660.16
502.79	668.00
503.16	676.06
503.52	684.03
503.88	692.24
504.24	700.59
504.60	708.87
504.97	717.31
505.33	725.65
505.69	734.50
506.05	743.02
506.41	751.42
506.78	759.50
507.14	767.68
507.50	775.95
507.86	784.56
508.22	793.01
508.59	801.24
508.95	809.77
509.31	818.02
509.67	826.40
510.03	834.38
510.39	843.08
510.75	851.42
511.12	859.47
511.48	867.79
511.84	876.15
512.20	884.13
512.56	892.05
512.92	900.20
513.28	907.98
513.64	915.91
514.00	923.60
514.37	931.18
514.73	939.24
515.09	946.80
515.45	954.26
515.81	961.47
516.17	968.71
516.53	975.56
516.89	982.43
517.25	988.99
517.61	995.78
517.97	1002.00
518.33	1007.98
518.69	1014.59
519.05	1020.73
519.41	1026.38
519.77	1032.83
520.13	1038.52
520.49	1043.98
520.85	1049.28
521.21	1054.94
521.57	1060.45
521.93	1065.48
522.29	1070.69
522.65	1075.72
523.01	1080.42
523.37	1085.17
523.73	1090.12
524.09	1094.57
524.45	1099.33
524.81	1104.14
525.17	1108.90
525.53	1113.50
525.89	1118.27
526.25	1122.32
526.61	1126.20
526.97	1130.27
527.33	1133.88
527.68	1138.23
528.04	1142.23
528.40	1145.85
528.76	1149.25
529.12	1152.97
529.48	1157.12
529.84	1160.48
530.20	1164.07
530.56	1167.63
530.91	1171.44
531.27	1175.05
531.63	1178.64
531.99	1182.03
532.35	1185.13
532.71	1187.95
533.07	1191.20
533.42	1194.30
533.78	1197.50
534.14	1200.85
534.50	1203.55
534.86	1206.65
535.21	1208.83
535.57	1211.76
535.93	1214.60
536.29	1217.31
536.65	1219.52
537.00	1221.66
537.36	1223.87
537.72	1225.85
538.08	1228.10
538.44	1230.16
538.79	1232.12
539.15	1234.12
539.51	1236.17
539.87	1238.46
540.22	1240.66
540.58	1243.05
540.94	1245.20
541.29	1247.09
541.65	1248.33
542.01	1250.24
542.37	1251.67
542.72	1253.85
543.08	1255.15
543.44	1257.11
543.79	1258.20
544.15	1259.84
544.51	1261.65
544.87	1263.34
545.22	1265.03
545.58	1266.50
545.94	1267.69
546.29	1268.43
546.65	1269.16
547.01	1269.82
547.36	1270.68
547.72	1271.31
548.07	1271.54
548.43	1271.62
548.79	1271.70
549.14	1272.26
549.50	1272.92
549.86	1273.15
550.21	1273.22
550.57	1273.97
550.92	1273.89
551.28	1274.37
551.64	1274.59
551.99	1275.12
552.35	1275.30
552.70	1275.13
553.06	1275.22
553.41	1275.30
553.77	1276.10
554.13	1276.69
554.48	1277.37
554.84	1277.69
555.19	1278.05
555.55	1278.41
555.90	1278.58
556.26	1278.93
556.61	1278.99
556.97	1278.65
557.32	1278.95
557.68	1278.85
558.03	1278.63
558.39	1278.09
558.74	1278.04
559.10	1277.92
559.45	1277.04
559.81	1277.03
560.16	1276.70
560.52	1276.75
560.87	1276.71
561.23	1275.74
561.58	1275.64
561.94	1274.75
562.29	1273.72
562.64	1273.23
563.00	1272.41
563.35	1272.04
563.71	1271.85
564.06	1271.69
564.42	1271.74
564.77	1271.60
565.12	1271.61
565.48	1271.34
565.83	1271.48
566.19	1271.55
566.54	1270.95
566.89	1270.64
567.25	1270.29
567.60	1270.27
567.96	1270.00
568.31	1269.70
568.66	1269.38
569.02	1268.34
569.37	1267.36
569.72	1266.72
570.08	1265.77
570.43	1264.74
570.78	1263.70
571.14	1262.19
571.49	1260.55
571.84	1259.19
572.20	1257.30
572.55	1255.58
572.90	1253.53
573.26	1251.43
573.61	1249.07
573.96	1247.16
574.31	1244.92
574.67	1242.20
575.02	1239.25
575.37	1236.19
575.72	1233.09
576.08	1230.49
576.43	1227.51
576.78	1224.86
577.13	1222.39
577.49	1219.82
577.84	1217.06
578.19	1214.49
578.54	1212.17
578.90	1210.16
579.25	1207.29
579.60	1204.40
579.95	1200.97
580.30	1198.19
580.66	1195.49
581.01	1192.36
581.36	1189.13
581.71	1186.05
582.06	1182.93
582.42	1180.23
582.77	1177.01
583.12	1173.79
583.47	1170.54
583.82	1167.55
584.17	1164.44
584.53	1161.13
584.88	1157.55
585.23	1154.35
585.58	1150.77
585.93	1147.13
586.28	1143.50
586.63	1140.32
586.98	1137.36
587.34	1134.58
587.69	1131.09
588.04	1128.00
588.39	1124.95
588.74	1121.32
589.09	1118.09
589.44	1114.55
589.79	1111.17
590.14	1107.89
590.49	1104.56
590.84	1101.03
591.19	1097.89
591.54	1094.53
591.89	1090.58
592.25	1087.20
592.60	1083.15
592.95	1079.35
593.30	1075.36
593.65	1071.00
594.00	1066.39
594.35	1063.17
594.70	1059.00
595.05	1055.53
595.40	1051.47
595.75	1047.03
596.10	1043.59
596.45	1039.67
596.80	1036.14
597.15	1032.52
597.50	1028.38
597.85	1024.58
598.19	1020.91
598.54	1016.97
598.89	1013.01
599.24	1009.73
599.59	1006.04
599.94	1002.73
600.29	998.98
600.64	995.35
600.99	991.90
601.34	988.72
601.69	983.91
602.04	979.94
602.39	975.66
602.74	971.91
603.08	968.74
603.43	965.00
603.78	961.16
604.13	957.46
604.48	953.65
604.83	950.65
605.18	947.29
605.53	943.37
605.87	939.42
606.22	935.84
606.57	931.81
606.92	927.58
607.27	923.60
607.62	919.86
607.96	916.17
608.31	912.58
608.66	908.56
609.01	904.75
609.36	900.87
609.70	896.95
610.05	892.70
610.40	888.61
610.75	884.43
611.10	880.72
611.44	876.09
611.79	871.73
612.14	867.25
612.49	862.58
612.83	858.44
613.18	854.23
613.53	850.06
613.88	845.62
614.22	841.65
614.57	837.39
614.92	833.22
615.27	828.95
615.61	824.70
615.96	820.72
616.31	817.00
616.65	813.64
617.00	809.73
617.35	805.87
617.70	801.60
618.04	797.38
618.39	792.86
618.74	789.12
619.08	785.05
619.43	781.11
619.78	777.51
620.12	773.66
620.47	769.95
620.82	765.76
621.16	761.81
621.51	757.84
621.85	754.14
622.20	750.19
622.55	746.21
622.89	742.14
623.24	738.05
623.59	733.70
623.93	729.39
624.28	725.70
624.62	722.23
624.97	718.66
625.32	715.06
625.66	711.61
626.01	708.05
626.35	704.69
626.70	700.79
627.04	697.07
627.39	693.32
627.73	689.84
628.08	686.66
628.43	683.27
628.77	679.90
629.12	676.11
629.46	672.80
629.81	669.56
630.15	666.34
630.50	663.12
630.84	659.90
631.19	656.50
631.53	653.10
631.88	649.26
632.22	645.65
632.57	642.62
632.91	639.32
633.26	635.99
633.60	632.52
633.95	629.40
634.29	626.16
634.64	623.29
634.98	619.84
635.32	616.71
635.67	613.86
636.01	610.76
636.36	607.82
636.70	604.86
637.05	601.83
637.39	599.07
637.73	596.21
638.08	593.64
638.42	591.00
638.77	588.17
639.11	585.48
639.45	582.84
639.80	579.72
640.14	576.82
640.49	573.89
640.83	571.04
641.17	568.28
641.52	565.56
641.86	562.50
642.20	559.87
642.55	556.83
642.89	553.78
643.23	550.87
643.58	548.40
643.92	545.55
644.26	542.78
644.61	539.99
644.95	537.11
645.29	534.14
645.64	531.36
645.98	528.68
646.32	526.10
646.66	523.33
647.01	520.70
647.35	518.20
647.69	515.54
648.04	513.09
648.38	510.54
648.72	507.80
649.06	505.16
649.41	502.64
649.75	500.12
650.09	497.78
650.43	495.31
650.78	492.52
651.12	489.91
651.46	487.48
651.80	485.06
652.14	482.81
652.49	480.39
652.83	477.89
653.17	475.25
653.51	472.74
653.85	470.44
654.20	468.08
654.54	465.67
654.88	463.38
655.22	460.99
655.56	458.45
655.90	456.14
656.25	453.88
656.59	451.48
656.93	449.30
657.27	447.07
657.61	444.80
657.95	442.71
658.29	440.51
658.64	438.37
658.98	435.99
659.32	433.50
659.66	431.40
660.00	429.17
660.34	427.03
660.68	424.81
661.02	422.51
661.36	420.49
661.70	418.33
662.05	416.33
662.39	414.45
662.73	412.68
663.07	410.85
663.41	409.07
663.75	407.24
664.09	405.20
664.43	403.13
664.77	401.25
665.11	399.28
665.45	397.53
665.79	395.68
666.13	393.87
666.47	392.24
666.81	390.42
667.15	388.75
667.49	387.17
667.83	385.70
668.17	384.15
668.51	382.58
668.85	381.00
669.19	379.61
669.53	377.78
669.87	376.03
670.21	374.36
670.55	372.72
670.89	371.34
671.23	369.87
671.57	368.49
671.91	367.10
672.25	365.63
672.58	364.13
672.92	362.60
673.26	361.31
673.60	359.83
673.94	358.35
674.28	356.96
674.62	355.65
674.96	354.20
675.30	352.94
675.64	351.58
675.97	350.32
676.31	348.92
676.65	347.72
676.99	346.62
677.33	345.38
677.67	344.14
678.01	342.62
678.34	341.43
678.68	340.18
679.02	338.83
679.36	337.59
679.70	336.39
680.04	335.20
680.37	333.85
680.71	332.70
681.05	331.66
681.39	330.50
681.73	329.27
682.06	328.08
682.40	326.90
682.74	325.67
683.08	324.61
683.42	323.41
683.75	322.27
684.09	321.10
684.43	320.12
684.77	318.95
685.10	318.04
685.44	316.87
685.78	315.75
686.12	314.80
686.45	313.72
686.79	312.68
687.13	311.74
687.46	310.81
687.80	309.90
688.14	308.78
688.48	307.80
688.81	306.95
689.15	306.07
689.49	305.05
689.82	304.19
690.16	303.08
690.50	302.09
690.83	301.08
691.17	300.06
691.51	298.96
691.84	298.04
692.18	296.99
692.52	296.16
692.85	295.42
693.19	294.67
693.52	293.79
693.86	292.87
694.20	291.98
694.53	291.11
694.87	290.15
695.21	289.34
695.54	288.48
695.88	287.44
696.21	286.50
696.55	285.70
696.88	284.88
697.22	284.06
697.56	283.31
697.89	282.57
698.23	281.86
698.56	281.13
698.90	280.41
699.23	279.67
699.57	278.92
699.90	278.05
700.24	277.08
700.58	276.45
700.91	275.75
701.25	275.25
701.58	274.66
701.92	274.07
702.25	273.35
702.59	272.61
702.92	272.00
703.26	271.30
703.59	270.70
703.93	270.33
704.26	269.82
704.60	269.21
704.93	268.53
705.26	267.85
705.60	267.33
705.93	266.63
706.27	266.14
706.60	265.69
706.94	265.26
707.27	264.76
707.61	264.15
707.94	263.65
708.27	262.86
708.61	262.20
708.94	261.60
709.28	261.02
709.61	260.43
709.94	260.01
710.28	259.52
710.61	259.06
710.95	258.20
711.28	257.92
711.61	257.36
711.95	257.01
712.28	256.58
712.61	256.12
712.95	255.85
713.28	255.49
713.61	254.87
713.95	254.34
714.28	253.87
714.61	253.46
714.95	252.99
715.28	252.56
715.61	252.14
715.95	251.69
716.28	251.35
716.61	251.02
716.95	250.44
717.28	250.06
717.61	249.60
717.94	249.22
718.28	248.50
718.61	248.12
718.94	247.60
719.27	247.20
719.61	246.76
719.94	246.31
720.27	245.77
720.60	245.41
720.94	245.02
721.27	244.74
721.60	244.45
721.93	244.10
722.27	243.82
722.60	243.51
722.93	243.29
723.26	243.00
723.59	242.66
723.93	242.45
724.26	242.21
724.59	241.95
724.92	241.73
725.25	241.63
725.59	241.33
725.92	241.19
726.25	240.86
726.58	240.63
726.91	240.34
727.24	240.11
727.57	239.78
727.91	239.34
728.24	239.10
728.57	238.69
728.90	238.44
729.23	238.12
729.56	238.00
729.89	237.67
730.22	237.37
730.55	237.08
730.89	236.83
731.22	236.52
731.55	236.25
731.88	235.88
732.21	235.54
732.54	235.30
732.87	234.94
733.20	234.76
733.53	234.51
733.86	234.30
734.19	234.05
734.52	234.02
734.85	234.17
735.18	233.90
735.51	233.82
735.84	233.58
736.17	233.47
736.50	233.09
736.83	233.32
737.16	233.04
737.49	232.85
737.82	232.60
738.15	232.40
738.48	232.11
738.81	231.92
739.14	231.61
739.47	231.39
739.80	231.25
740.13	230.97
740.46	230.65
740.79	230.42
741.12	230.17
741.45	229.85
741.78	229.45
742.11	229.29
742.44	228.96
742.77	228.89
743.10	228.66
743.43	228.39
743.75	227.73
744.08	228.04
744.41	227.85
744.74	227.69
745.07	227.44
745.40	227.36
745.73	227.40
746.06	227.25
746.39	227.07
746.71	226.76
747.04	226.60
747.37	226.45
747.70	226.31
748.03	226.19
748.36	226.09
748.68	225.89
749.01	225.69
749.34	225.65
749.67	225.40
750.00	225.20
750.33	225.42
750.65	225.41
750.98	224.79
751.31	224.69
751.64	224.52
751.97	224.60
752.29	224.45
752.62	224.08
752.95	224.00
753.28	223.79
753.60	223.72
753.93	223.69
754.26	223.61
754.59	223.47
754.91	223.27
755.24	223.15
755.57	223.06
755.90	222.87
756.22	222.65
756.55	222.49
756.88	222.39
757.20	222.01
757.53	221.77
757.86	221.65
758.19	221.50
758.51	221.34
758.84	221.00
759.17	220.86
759.49	220.85
759.82	220.83
760.15	220.80
760.47	220.69
760.80	220.49
761.13	220.41
761.45	220.22
761.78	220.15
762.11	220.04
762.43	219.95
762.76	219.94
763.08	219.91
763.41	219.89
763.74	219.78
764.06	219.62
764.39	219.53
764.71	219.50
765.04	219.33
765.37	219.28
765.69	219.23
766.02	219.15
766.34	219.08
766.67	218.94
767.00	218.99
767.32	219.14
767.65	219.33
767.97	219.18
768.30	219.14
768.62	219.11
768.95	218.94
769.27	218.81
769.60	218.65
769.92	218.55
770.25	218.39
770.57	218.25
770.90	218.19
771.22	218.10
771.55	218.04
771.87	218.03
772.20	217.90
772.52	218.07
772.85	218.39
773.17	218.27
773.50	218.13
773.82	217.93
774.15	217.67
774.47	217.34
774.80	217.28
775.12	217.19
775.45	217.08
775.77	217.09
776.09	217.13
776.42	217.14
776.74	217.15
777.07	217.04
777.39	216.98
777.72	216.95
778.04	216.95
778.36	216.82
778.69	216.83
779.01	216.87
779.33	216.55
779.66	216.09
779.98	216.04
780.31	216.00
780.63	216.14
780.95	216.15
781.28	216.09
781.60	216.10
781.92	216.10
782.25	216.09
782.57	216.06
782.89	215.88
783.22	215.80
783.54	215.70
783.86	215.73
784.19	215.72
784.51	215.76
784.83	215.73
785.16	215.66
785.48	215.62
785.80	215.56
786.12	215.61
786.45	215.58
786.77	215.58
787.09	215.59
787.42	215.40
787.74	215.37
788.06	215.40
788.38	215.31
788.71	215.29
789.03	215.26
789.35	215.29
789.67	215.27
789.99	215.28
790.32	215.13
790.64	215.16
790.96	215.40
791.28	215.27
791.61	215.19
791.93	215.21
792.25	215.18
792.57	215.37
792.89	215.19
793.21	215.28
793.54	215.20
793.86	215.10
794.18	215.08
794.50	214.98
794.82	214.92
795.14	214.94
795.47	214.96
795.79	214.94
796.11	214.80
796.43	214.71
796.75	214.67
797.07	214.74
797.39	214.67
797.71	214.41
798.04	214.41
798.36	214.40
798.68	214.40
799.00	214.40
799.32	214.23
799.64	214.33
799.96	214.16
800.28	214.17
800.60	214.08
800.92	214.12
801.24	214.09
801.56	214.10
801.89	214.07
802.21	214.02
802.53	213.97
802.85	214.00
803.17	214.18
803.49	214.17
803.81	214.11
804.13	214.05
804.45	214.01
804.77	213.98
805.09	213.95
805.41	213.96
805.73	213.90
806.05	213.82
806.37	213.73
806.69	213.73
807.01	213.67
807.33	213.73
807.65	213.52
807.97	213.62
808.28	213.56
808.60	213.48
808.92	213.45
809.24	213.61
809.56	213.49
809.88	213.33
810.20	213.29
810.52	213.35
810.84	213.28
811.16	213.22
811.48	213.17
811.80	213.27
812.12	213.16
812.43	213.19
812.75	213.11
813.07	213.09
813.39	213.13
813.71	213.11
814.03	213.10
814.35	213.17
814.67	213.01
814.98	213.00
815.30	212.96
815.62	212.88
815.94	212.63
816.26	212.71
816.58	212.67
816.89	212.69
817.21	212.60
817.53	212.57
817.85	212.57
818.17	212.50
818.48	212.43
818.80	212.45
819.12	212.30
819.44	212.29
819.76	212.25
820.07	212.20
820.39	212.24
820.71	212.15
821.03	212.12
821.34	212.14
821.66	212.20
821.98	212.17
822.30	212.16
822.61	212.30
822.93	212.23
823.25	212.19
823.57	212.12
823.88	212.18
824.20	212.25
824.52	212.30
824.83	212.40
825.15	212.28
825.47	212.31
825.79	212.28
826.10	212.27
826.42	212.24
826.74	212.26
827.05	212.22
827.37	212.27
827.69	212.21
828.00	212.23
828.32	212.16
828.64	212.16
828.95	212.39
829.27	212.33
829.58	212.35
829.90	212.46
830.22	212.51
830.53	212.41
830.85	212.33
831.17	212.21
831.48	212.19
831.80	212.23
832.11	212.15
832.43	212.20
832.75	212.18
833.06	212.43
833.38	212.28
833.69	212.30
834.01	212.31
834.32	212.34
834.64	212.28
834.96	212.31
835.27	212.37
835.59	212.21
835.90	212.11
836.22	212.11
836.53	212.01
836.85	211.98
837.16	212.36
837.48	212.46
837.79	212.65
838.11	212.61
838.42	212.52
838.74	212.61
839.05	212.59
839.37	212.58
839.68	212.32
840.00	212.35
840.31	212.34
840.63	212.32
840.94	212.30
841.26	212.32
841.57	212.34
841.88	212.33
842.20	212.25
842.51	212.26
842.83	212.23
843.14	212.57
843.46	212.58
843.77	212.37
844.08	212.29
844.40	212.12
844.71	212.12
845.03	212.11
845.34	211.98
845.65	212.01
845.97	211.99
846.28	212.09
846.60	212.08
846.91	212.06
847.22	211.99
847.54	212.05
847.85	212.07
848.16	212.02
848.48	211.94
848.79	212.10
849.10	212.15
849.42	212.19
849.73	211.83
850.04	211.76
850.36	211.63
850.67	211.67
850.98	211.65
851.30	211.68
851.61	211.64
851.92	211.72
852.23	211.81
852.55	211.84
852.86	211.83
853.17	211.90
853.49	211.94
853.80	212.01
854.11	212.04
854.42	211.97
854.74	211.88
855.05	211.89
855.36	211.71
855.67	211.67
855.99	211.60
856.30	212.03
856.61	211.99
856.92	211.97
857.23	211.90
857.55	211.89
857.86	211.81
858.17	211.90
858.48	211.88
858.79	211.77
859.11	211.79
859.42	211.71
859.73	211.68
860.04	211.64
860.35	211.57
860.66	211.40
860.98	211.43
861.29	211.47
861.60	211.49
861.91	211.56
862.22	211.55
862.53	211.52
862.84	211.15
863.16	211.21
863.47	211.18
863.78	211.27
864.09	211.34
864.40	211.42
864.71	211.44
865.02	211.43
865.33	211.38
865.64	211.32
865.95	211.33
866.27	211.55
866.58	211.50
866.89	211.50
867.20	211.54
867.51	211.53
867.82	211.55
868.13	211.65
868.44	211.49
868.75	211.51
869.06	211.52
869.37	211.49
869.68	211.49
869.99	211.62
870.30	211.58
870.61	211.51
870.92	211.43
871.23	211.41
871.54	211.48
871.85	211.68
872.16	211.75
872.47	211.74
872.78	211.56
873.09	211.59
873.40	211.62
873.71	211.67
874.02	211.71
874.33	211.67
874.64	211.60
874.95	211.70
875.26	211.66
875.56	211.63
875.87	211.64
876.18	211.61
876.49	211.93
876.80	211.94
877.11	212.00
877.42	212.05
877.73	212.06
878.04	211.93
878.35	211.82
878.66	211.81
878.96	211.78
879.27	211.75
879.58	211.78
879.89	211.74
880.20	211.83
880.51	211.79
880.82	211.79
881.12	211.74
881.43	211.70
881.74	211.65
882.05	211.61
882.36	211.59
882.67	211.64
882.97	211.19
883.28	211.07
883.59	210.98
883.90	210.98
884.21	211.01
884.51	211.05
884.82	211.01
885.13	211.01
885.44	211.00
885.74	210.98
886.05	210.91
886.36	210.90
886.67	210.75
886.98	210.90
887.28	210.90
887.59	210.96
887.90	210.89
888.20	210.84
888.51	210.99
888.82	211.04
889.13	210.99
889.43	211.30
889.74	211.28
890.05	211.31
890.35	211.25
890.66	211.17
890.97	211.12
891.28	211.12
891.58	211.15
891.89	211.15
892.20	211.07
892.50	211.05
892.81	211.06
893.12	211.09
893.42	210.98
893.73	210.96
894.04	210.92
894.34	211.04
894.65	211.04
894.95	210.94
895.26	210.82
895.57	211.01
895.87	210.66
896.18	210.75
896.48	210.68
896.79	210.69
897.10	210.75
897.40	210.79
897.71	210.80
898.01	210.72
898.32	210.80
898.63	210.80
898.93	210.84
899.24	210.81
899.54	210.76
899.85	210.70
900.15	210.73
900.46	210.75
900.76	210.74
901.07	210.76
901.38	210.84
901.68	210.92
901.99	210.78
902.29	210.85
902.60	210.87
902.90	210.89
903.21	210.86
903.51	210.83
903.82	210.89
904.12	210.86
904.43	210.92
904.73	210.88
905.03	210.90
905.34	211.21
905.64	211.20
905.95	211.22
906.25	211.25
906.56	211.18
906.86	211.14
907.17	211.13
907.47	211.16
907.77	211.06
908.08	211.05
908.38	210.97
908.69	211.00
908.99	211.05
909.30	211.11
909.60	211.16
909.90	211.18
910.21	211.12
910.51	211.09
910.81	211.13
911.12	211.12
911.42	211.21
911.73	210.90
912.03	210.93
912.33	210.99
912.64	210.95
912.94	210.87
913.24	210.87
913.55	210.87
913.85	210.86
914.15	210.97
914.46	210.96
914.76	210.95
915.06	210.92
915.37	210.81
915.67	210.83
915.97	210.83
916.27	210.80
916.58	210.82
916.88	210.85
917.18	210.74
917.49	210.99
917.79	210.92
918.09	210.89
918.39	210.94
918.70	210.94
919.00	210.95
919.30	211.24
919.60	211.19
919.91	211.16
920.21	211.17
920.51	211.04
920.81	211.05
921.12	211.13
921.42	211.13
921.72	211.24
922.02	211.22
922.32	211.21
922.63	211.22
922.93	211.41
923.23	211.45
923.53	211.42
923.83	211.21
924.13	211.31
924.44	211.38
924.74	211.56
925.04	211.65
925.34	211.66
925.64	211.46
925.94	211.44
926.24	211.66
926.55	211.72
926.85	211.73
927.15	211.74
927.45	211.73
927.75	211.75
928.05	211.65
928.35	211.64
928.65	211.68
928.95	211.68
929.26	211.50
929.56	211.53
929.86	211.48
930.16	211.42
930.46	211.37
930.76	211.39
931.06	211.16
931.36	211.10
931.66	211.10
931.96	211.18
932.26	211.25
932.56	211.00
932.86	210.90
933.16	210.93
933.46	210.86
933.76	210.79
934.06	210.85
934.36	211.00
934.66	210.98
934.96	210.93
935.26	211.00
935.56	211.05
935.86	210.84
936.16	210.93
936.46	210.93
936.76	210.85
937.06	210.79
937.36	210.83
937.66	210.74
937.96	210.73
938.26	210.68
938.56	210.74
938.86	210.84
939.16	210.95
939.46	210.97
939.76	210.99
940.06	211.10
940.35	210.97
940.65	210.85
940.95	210.91
941.25	210.81
941.55	210.74
941.85	210.76
942.15	210.93
942.45	211.00
942.75	211.02
943.04	211.06
943.34	211.10
943.64	211.07
943.94	211.02
944.24	211.10
944.54	211.09
944.84	211.06
945.13	210.94
945.43	210.85
945.73	210.90
946.03	210.95
946.33	210.80
946.62	210.82
946.92	210.80
947.22	210.83
947.52	210.93
947.82	210.88
948.11	210.81
948.41	210.76
948.71	210.73
949.01	210.71
949.31	210.68
949.60	210.66
949.90	210.70
950.20	210.70
950.50	210.65
950.79	210.68
951.09	210.70
951.39	210.79
951.69	210.88
951.98	210.86
952.28	210.81
952.58	210.95
952.87	210.97
953.17	211.03
953.47	210.92
953.76	210.89
954.06	210.91
954.36	210.89
954.66	210.90
954.95	210.96
955.25	211.00
955.55	211.09
955.84	211.08
956.14	211.08
956.44	211.22
956.73	211.25
957.03	211.24
957.32	211.20
957.62	211.13
957.92	211.11
958.21	211.10
958.51	211.57
958.81	211.64
959.10	211.63
959.40	211.68
959.69	211.70
959.99	211.78
960.29	211.85
960.58	211.85
960.88	212.03
961.17	211.95
961.47	212.00
961.76	211.94
962.06	212.03
962.36	212.09
962.65	212.08
962.95	212.03
963.24	212.04
963.54	212.16
963.83	212.23
964.13	212.28
964.42	212.22
964.72	211.95
965.01	211.88
965.31	211.89
965.60	211.78
965.90	212.07
966.19	212.00
966.49	211.97
966.78	212.03
967.08	211.97
967.37	211.99
967.67	211.91
967.96	211.98
968.26	211.93
968.55	211.94
968.85	211.96
969.14	211.95
969.43	211.91
969.73	211.80
970.02	211.86
970.32	211.79
970.61	211.77
970.91	211.64
971.20	211.53
971.49	211.51
971.79	211.67
972.08	211.39
972.38	211.45
972.67	211.35
972.96	211.36
973.26	211.25
973.55	211.35
973.85	211.30
974.14	211.26
974.43	211.25
974.73	211.19
975.02	211.10
975.31	211.13
975.61	211.15
975.90	211.06
976.19	210.98
976.49	211.03
976.78	211.05
977.07	211.00
977.37	210.99
977.66	211.04
977.95	210.86
978.24	210.91
978.54	210.94
978.83	211.00
979.12	211.00
979.42	211.01
979.71	210.95
980.00	210.95
980.29	210.95
980.59	210.93
980.88	210.97
981.17	210.97
981.46	211.00
981.76	211.03
982.05	211.19
982.34	211.18
982.63	211.16
982.93	211.09
983.22	211.23
983.51	211.27
983.80	211.32
984.09	211.42
984.39	211.33
984.68	211.25
984.97	211.27
985.26	211.16
985.55	211.20
985.85	211.15
986.14	211.21
986.43	211.26
986.72	211.21
987.01	211.11
987.30	211.08
987.59	210.98
987.89	210.94
988.18	210.87
988.47	210.77
988.76	210.72
989.05	210.76
989.34	210.67
989.63	210.78
989.92	210.66
990.22	210.58
990.51	210.59
990.80	210.58
991.09	210.61
991.38	210.72
991.67	210.65
991.96	210.53
992.25	210.58
992.54	210.51
992.83	210.50
993.12	210.49
993.41	210.56
993.70	210.67
993.99	210.69
994.28	210.68
994.58	210.78
994.87	210.83
995.16	210.79
995.45	210.75
995.74	210.64
996.03	210.69
996.32	210.74
996.61	210.85
996.90	210.84
997.19	210.83
997.48	210.77
997.77	210.72
998.06	210.74
998.34	210.68
998.63	210.73
998.92	210.76
999.21	210.80
999.50	210.76
999.79	210.68
1000.08	210.64
1000.37	210.70
1000.66	210.60
1000.95	210.65
1001.24	210.68
1001.53	210.76
1001.82	210.75
1002.11	210.68
1002.40	210.74
1002.68	210.77
1002.97	211.00
1003.26	210.93
1003.55	210.90
1003.84	210.90
1004.13	211.06
1004.42	211.06
1004.71	211.01
1004.99	210.98
1005.28	211.05
1005.57	211.11
1005.86	211.10
1006.15	211.14
1006.44	211.08
1006.72	211.16
1007.01	211.12
1007.30	211.10
1007.59	211.11
1007.88	211.13
1008.17	211.17
1008.45	211.08
1008.74	211.02
1009.03	210.96
1009.32	210.95
1009.60	210.96
1009.89	210.95
1010.18	210.76
1010.47	210.74
1010.76	210.77
1011.04	210.83
1011.33	210.86
1011.62	210.84
1011.91	210.93
1012.19	210.96
1012.48	210.99
1012.77	211.01
1013.05	211.17
1013.34	211.20
1013.63	211.11
1013.92	211.13
1014.20	211.13
1014.49	211.15
1014.78	211.13
1015.06	210.99
1015.35	211.03
1015.64	211.02
1015.92	211.17
1016.21	211.25
1016.50	211.26
1016.78	211.25
1017.07	211.30
1017.36	211.17
1017.64	211.07
1017.93	211.09
1018.22	211.00
1018.50	210.91
1018.79	210.90
1019.08	210.69
1019.36	210.67
1019.65	210.73
1019.93	210.80
1020.22	210.84
1020.51	211.02
1020.79	211.01
1021.08	209.55
1021.36	209.45
1021.65	211.10
1021.94	210.50
1022.22	210.05
1022.51	212.05
1022.79	212.15
1023.08	211.40
1023.36	214.65
1023.65	210.95
>>>>>End Processed Spectral Data<<<<<
