SpectraSuite Data File
++++++++++++++++++++++++++++++++++++
Date: Mon Feb 25 17:15:29 EST 2013
User: group
Dark Spectrum Present: No
Reference Spectrum Present: No
Number of Sampled Component Spectra: 1
Spectrometers: USB2E7196
Integration Time (usec): 104000 (USB2E7196)
Spectra Averaged: 20 (USB2E7196)
Boxcar Smoothing: 10 (USB2E7196)
Correct for Electrical Dark: No (USB2E7196)
Strobe/Lamp Enabled: No (USB2E7196)
Correct for Detector Non-linearity: No (USB2E7196)
Correct for Stray Light: No (USB2E7196)
Number of Pixels in Processed Spectrum: 2048
>>>>>Begin Processed Spectral Data<<<<<
339.09	0.00
339.48	198.60
339.86	200.30
340.24	201.25
340.63	202.75
341.01	207.90
341.39	205.70
341.78	207.50
342.16	208.60
342.54	209.05
342.93	198.35
343.31	208.38
343.69	208.91
344.07	209.43
344.46	209.88
344.84	210.33
345.22	210.46
345.60	210.77
345.99	210.99
346.37	211.16
346.75	211.25
347.13	211.33
347.52	211.44
347.90	211.63
348.28	211.72
348.66	211.86
349.05	211.86
349.43	211.97
349.81	212.01
350.19	212.04
350.57	212.17
350.96	212.23
351.34	212.38
351.72	212.43
352.10	212.52
352.48	212.58
352.87	212.57
353.25	212.67
353.63	212.78
354.01	212.87
354.39	212.93
354.77	213.01
355.15	213.20
355.54	213.21
355.92	213.18
356.30	213.19
356.68	213.51
357.06	213.59
357.44	213.52
357.82	213.59
358.20	213.67
358.58	213.70
358.97	213.77
359.35	213.86
359.73	214.01
360.11	214.03
360.49	214.15
360.87	214.21
361.25	214.30
361.63	214.36
362.01	214.36
362.39	214.37
362.77	214.44
363.15	214.40
363.53	214.42
363.91	214.41
364.29	214.50
364.67	214.12
365.05	214.08
365.43	214.14
365.81	214.20
366.19	214.25
366.57	214.39
366.95	214.34
367.33	214.30
367.71	214.29
368.09	214.39
368.47	214.27
368.85	214.28
369.23	214.32
369.61	214.19
369.99	214.29
370.37	214.25
370.75	214.40
371.13	214.37
371.51	214.30
371.89	214.32
372.27	214.26
372.65	214.29
373.03	214.29
373.41	214.23
373.78	214.13
374.16	213.98
374.54	213.79
374.92	213.71
375.30	213.61
375.68	213.54
376.06	213.45
376.44	213.50
376.82	213.47
377.19	213.28
377.57	213.21
377.95	213.02
378.33	213.00
378.71	212.76
379.09	212.67
379.47	212.65
379.84	212.59
380.22	212.51
380.60	212.42
380.98	212.28
381.36	212.21
381.73	212.19
382.11	212.21
382.49	212.24
382.87	212.18
383.25	212.11
383.62	212.54
384.00	212.40
384.38	212.31
384.76	212.34
385.13	212.53
385.51	212.48
385.89	212.37
386.27	212.36
386.64	212.41
387.02	212.33
387.40	212.27
387.78	212.17
388.15	212.15
388.53	212.04
388.91	212.02
389.29	212.06
389.66	212.04
390.04	211.98
390.42	212.01
390.79	212.06
391.17	212.07
391.55	211.54
391.92	211.61
392.30	211.64
392.68	211.50
393.05	211.40
393.43	211.46
393.81	211.58
394.18	211.48
394.56	211.49
394.94	211.62
395.31	211.66
395.69	211.81
396.06	211.90
396.44	211.98
396.82	211.97
397.19	212.07
397.57	212.09
397.95	212.15
398.32	211.98
398.70	211.98
399.07	212.08
399.45	212.10
399.82	212.08
400.20	212.07
400.58	212.16
400.95	212.13
401.33	212.15
401.70	212.41
402.08	212.54
402.45	212.59
402.83	212.69
403.20	212.67
403.58	212.69
403.95	212.77
404.33	212.92
404.71	213.10
405.08	213.34
405.46	213.41
405.83	213.49
406.21	213.65
406.58	213.76
406.96	213.82
407.33	214.09
407.70	214.31
408.08	214.71
408.45	214.90
408.83	215.19
409.20	215.40
409.58	215.41
409.95	215.68
410.33	215.89
410.70	216.06
411.08	216.43
411.45	216.70
411.82	216.96
412.20	217.36
412.57	217.91
412.95	218.08
413.32	218.58
413.69	219.01
414.07	219.50
414.44	220.08
414.82	220.62
415.19	221.23
415.56	221.82
415.94	222.40
416.31	223.20
416.68	223.98
417.06	224.92
417.43	225.93
417.81	226.87
418.18	227.90
418.55	229.00
418.93	230.14
419.30	231.34
419.67	232.59
420.04	233.90
420.42	235.16
420.79	236.95
421.16	238.47
421.54	240.32
421.91	242.06
422.28	243.68
422.66	245.60
423.03	247.63
423.40	249.48
423.77	251.43
424.15	253.34
424.52	255.44
424.89	257.70
425.26	259.78
425.64	261.90
426.01	264.19
426.38	266.47
426.75	269.04
427.13	271.46
427.50	274.15
427.87	276.74
428.24	279.48
428.61	281.92
428.99	284.92
429.36	287.97
429.73	291.10
430.10	294.24
430.47	297.37
430.85	300.44
431.22	303.92
431.59	307.80
431.96	311.29
432.33	315.06
432.70	318.79
433.08	323.12
433.45	327.19
433.82	331.32
434.19	335.91
434.56	340.31
434.93	344.55
435.30	348.77
435.68	353.55
436.05	358.12
436.42	362.59
436.79	366.65
437.16	371.11
437.53	375.77
437.90	380.43
438.27	385.06
438.64	389.75
439.01	394.25
439.38	398.04
439.75	401.98
440.13	406.44
440.50	410.42
440.87	413.66
441.24	417.22
441.61	420.91
441.98	423.74
442.35	426.95
442.72	430.42
443.09	433.76
443.46	435.49
443.83	436.77
444.20	437.97
444.57	439.61
444.94	440.32
445.31	441.12
445.68	442.21
446.05	442.44
446.42	441.92
446.79	441.32
447.16	440.51
447.53	440.05
447.90	438.09
448.27	436.25
448.64	433.86
449.01	432.00
449.37	428.95
449.74	425.80
450.11	422.42
450.48	418.23
450.85	413.96
451.22	410.53
451.59	407.23
451.96	403.97
452.33	399.66
452.70	395.74
453.07	391.11
453.43	386.10
453.80	381.69
454.17	377.50
454.54	373.38
454.91	369.08
455.28	364.76
455.65	360.85
456.02	357.40
456.38	354.05
456.75	349.90
457.12	346.42
457.49	343.10
457.86	339.52
458.23	336.88
458.59	333.74
458.96	330.69
459.33	327.80
459.70	324.97
460.07	322.80
460.43	320.27
460.80	317.98
461.17	315.95
461.54	313.76
461.91	311.65
462.27	309.63
462.64	307.83
463.01	305.88
463.38	304.08
463.74	301.73
464.11	299.99
464.48	298.60
464.85	296.91
465.21	295.74
465.58	294.49
465.95	292.93
466.32	291.70
466.68	290.38
467.05	289.28
467.42	288.18
467.78	286.90
468.15	285.70
468.52	284.87
468.88	283.69
469.25	282.60
469.62	281.81
469.98	280.83
470.35	279.95
470.72	279.15
471.08	278.18
471.45	277.59
471.82	276.99
472.18	276.18
472.55	275.71
472.92	274.94
473.28	274.38
473.65	273.74
474.02	273.26
474.38	272.97
474.75	272.61
475.11	272.27
475.48	272.08
475.85	271.85
476.21	271.54
476.58	271.43
476.94	271.46
477.31	271.37
477.67	271.34
478.04	271.44
478.41	271.60
478.77	272.07
479.14	272.11
479.50	272.24
479.87	272.58
480.23	272.84
480.60	273.13
480.96	273.42
481.33	274.02
481.69	274.46
482.06	274.86
482.42	275.30
482.79	275.71
483.15	276.31
483.52	277.18
483.88	277.93
484.25	278.72
484.61	279.48
484.98	280.42
485.34	281.51
485.71	282.69
486.07	283.80
486.44	284.74
486.80	286.01
487.17	287.39
487.53	288.79
487.90	290.44
488.26	292.29
488.62	294.18
488.99	295.96
489.35	297.93
489.72	299.98
490.08	302.21
490.44	304.56
490.81	307.00
491.17	309.34
491.54	311.93
491.90	314.75
492.26	317.68
492.63	320.64
492.99	323.74
493.36	327.06
493.72	330.66
494.08	334.27
494.45	338.24
494.81	342.30
495.17	346.57
495.54	350.96
495.90	355.45
496.26	360.13
496.63	365.05
496.99	370.21
497.35	375.68
497.72	381.25
498.08	386.90
498.44	392.84
498.80	399.22
499.17	405.79
499.53	412.44
499.89	419.62
500.26	426.80
500.62	434.21
500.98	441.80
501.34	449.63
501.71	457.98
502.07	466.39
502.43	475.12
502.79	483.88
503.16	493.04
503.52	502.56
503.88	512.24
504.24	522.21
504.60	532.59
504.97	543.19
505.33	554.01
505.69	565.80
506.05	577.48
506.41	589.35
506.78	601.23
507.14	613.62
507.50	626.01
507.86	639.17
508.22	652.40
508.59	665.69
508.95	679.44
509.31	693.35
509.67	707.61
510.03	722.23
510.39	737.41
510.75	752.66
511.12	768.12
511.48	783.95
511.84	800.07
512.20	816.05
512.56	832.41
512.92	849.15
513.28	865.53
513.64	882.37
514.00	899.43
514.37	916.92
514.73	934.58
515.09	952.37
515.45	969.92
515.81	988.06
516.17	1006.13
516.53	1024.52
516.89	1043.00
517.25	1061.31
517.61	1079.66
517.97	1098.01
518.33	1116.49
518.69	1135.03
519.05	1153.85
519.41	1172.81
519.77	1192.00
520.13	1210.89
520.49	1229.46
520.85	1248.62
521.21	1267.89
521.57	1287.23
521.93	1305.90
522.29	1325.16
522.65	1344.50
523.01	1363.67
523.37	1382.06
523.73	1401.27
524.09	1420.13
524.45	1439.09
524.81	1458.01
525.17	1477.33
525.53	1496.36
525.89	1515.35
526.25	1534.18
526.61	1552.03
526.97	1570.23
527.33	1588.32
527.68	1606.76
528.04	1624.73
528.40	1641.80
528.76	1659.11
529.12	1676.72
529.48	1694.81
529.84	1712.02
530.20	1728.89
530.56	1746.19
530.91	1764.03
531.27	1781.03
531.63	1797.52
531.99	1814.38
532.35	1830.59
532.71	1845.95
533.07	1862.09
533.42	1877.57
533.78	1893.05
534.14	1908.70
534.50	1922.83
534.86	1937.69
535.21	1951.60
535.57	1966.43
535.93	1980.52
536.29	1994.20
536.65	2007.95
537.00	2020.68
537.36	2033.17
537.72	2045.65
538.08	2057.70
538.44	2069.56
538.79	2081.71
539.15	2093.75
539.51	2105.02
539.87	2116.90
540.22	2128.22
540.58	2139.89
540.94	2150.92
541.29	2160.67
541.65	2170.01
542.01	2180.21
542.37	2189.52
542.72	2199.14
543.08	2207.92
543.44	2217.70
543.79	2226.00
544.15	2233.25
544.51	2241.65
544.87	2250.20
545.22	2257.69
545.58	2264.38
545.94	2270.44
546.29	2275.85
546.65	2281.03
547.01	2286.13
547.36	2291.37
547.72	2296.13
548.07	2299.47
548.43	2302.79
548.79	2306.39
549.14	2310.25
549.50	2313.78
549.86	2316.43
550.21	2318.84
550.57	2321.77
550.92	2323.30
551.28	2325.08
551.64	2327.36
551.99	2329.01
552.35	2330.06
552.70	2331.04
553.06	2332.33
553.41	2333.71
553.77	2334.50
554.13	2335.25
554.48	2335.97
554.84	2336.16
555.19	2336.27
555.55	2336.07
555.90	2335.51
556.26	2335.12
556.61	2334.13
556.97	2332.57
557.32	2331.79
557.68	2330.14
558.03	2327.80
558.39	2326.07
558.74	2325.48
559.10	2324.04
559.45	2322.03
559.81	2320.26
560.16	2318.04
560.52	2316.14
560.87	2313.60
561.23	2310.80
561.58	2308.71
561.94	2305.51
562.29	2302.05
562.64	2299.52
563.00	2296.44
563.35	2294.31
563.71	2292.31
564.06	2289.84
564.42	2287.63
564.77	2285.16
565.12	2282.97
565.48	2280.68
565.83	2278.02
566.19	2274.83
566.54	2270.75
566.89	2267.15
567.25	2263.47
567.60	2260.12
567.96	2256.47
568.31	2252.78
568.66	2249.01
569.02	2244.40
569.37	2239.80
569.72	2235.90
570.08	2230.95
570.43	2226.13
570.78	2220.87
571.14	2214.95
571.49	2209.44
571.84	2204.50
572.20	2198.24
572.55	2192.50
572.90	2186.29
573.26	2179.59
573.61	2173.22
573.96	2167.39
574.31	2160.59
574.67	2153.34
575.02	2146.15
575.37	2138.74
575.72	2131.17
576.08	2125.07
576.43	2117.94
576.78	2111.34
577.13	2104.66
577.49	2098.17
577.84	2091.71
578.19	2085.27
578.54	2079.40
578.90	2073.45
579.25	2066.27
579.60	2059.13
579.95	2051.59
580.30	2045.12
580.66	2039.42
581.01	2032.25
581.36	2024.54
581.71	2017.36
582.06	2010.58
582.42	2003.93
582.77	1996.59
583.12	1989.68
583.47	1982.46
583.82	1976.21
584.17	1969.32
584.53	1962.50
584.88	1955.40
585.23	1948.27
585.58	1941.14
585.93	1933.63
586.28	1926.86
586.63	1919.56
586.98	1913.26
587.34	1907.36
587.69	1899.96
588.04	1892.88
588.39	1886.17
588.74	1879.35
589.09	1873.29
589.44	1866.30
589.79	1859.89
590.14	1853.98
590.49	1847.62
590.84	1841.09
591.19	1834.75
591.54	1828.13
591.89	1820.14
592.25	1813.39
592.60	1805.96
592.95	1798.41
593.30	1790.82
593.65	1782.76
594.00	1775.86
594.35	1769.91
594.70	1762.45
595.05	1756.11
595.40	1749.07
595.75	1741.89
596.10	1735.48
596.45	1728.75
596.80	1722.78
597.15	1715.99
597.50	1708.94
597.85	1702.62
598.19	1695.57
598.54	1688.56
598.89	1682.49
599.24	1677.12
599.59	1670.59
599.94	1665.33
600.29	1659.69
600.64	1653.73
600.99	1647.36
601.34	1641.29
601.69	1633.71
602.04	1627.04
602.39	1620.18
602.74	1613.81
603.08	1608.23
603.43	1602.79
603.78	1596.49
604.13	1590.36
604.48	1584.32
604.83	1579.18
605.18	1573.63
605.53	1567.77
605.87	1561.69
606.22	1555.56
606.57	1549.48
606.92	1543.15
607.27	1536.27
607.62	1529.92
607.96	1524.30
608.31	1519.14
608.66	1512.89
609.01	1506.58
609.36	1500.74
609.70	1494.28
610.05	1487.61
610.40	1480.88
610.75	1473.72
611.10	1467.44
611.44	1459.62
611.79	1452.17
612.14	1444.54
612.49	1436.67
612.83	1429.49
613.18	1421.94
613.53	1414.25
613.88	1406.19
614.22	1399.34
614.57	1392.14
614.92	1384.98
615.27	1377.35
615.61	1369.64
615.96	1362.50
616.31	1356.09
616.65	1349.30
617.00	1342.64
617.35	1335.86
617.70	1328.70
618.04	1321.40
618.39	1313.49
618.74	1306.91
619.08	1299.91
619.43	1292.81
619.78	1285.88
620.12	1279.03
620.47	1272.33
620.82	1265.43
621.16	1258.25
621.51	1250.97
621.85	1244.20
622.20	1236.82
622.55	1229.84
622.89	1222.79
623.24	1215.79
623.59	1207.99
623.93	1200.71
624.28	1193.70
624.62	1186.98
624.97	1180.20
625.32	1173.65
625.66	1167.46
626.01	1160.93
626.35	1154.81
626.70	1148.41
627.04	1142.39
627.39	1135.97
627.73	1129.64
628.08	1123.25
628.43	1116.76
628.77	1110.38
629.12	1103.83
629.46	1098.34
629.81	1092.11
630.15	1085.94
630.50	1079.81
630.84	1073.72
631.19	1067.65
631.53	1061.73
631.88	1054.98
632.22	1048.39
632.57	1042.47
632.91	1036.37
633.26	1030.21
633.60	1024.11
633.95	1018.29
634.29	1011.98
634.64	1006.25
634.98	1000.08
635.32	994.34
635.67	989.12
636.01	983.60
636.36	977.70
636.70	971.70
637.05	966.06
637.39	960.58
637.73	955.16
638.08	950.33
638.42	944.98
638.77	939.54
639.11	934.46
639.45	929.25
639.80	923.46
640.14	917.60
640.49	912.19
640.83	906.68
641.17	901.18
641.52	895.88
641.86	890.22
642.20	884.89
642.55	879.12
642.89	873.43
643.23	867.69
643.58	862.84
643.92	857.05
644.26	851.61
644.61	846.07
644.95	840.42
645.29	834.75
645.64	829.11
645.98	823.65
646.32	818.46
646.66	812.90
647.01	807.80
647.35	802.85
647.69	797.36
648.04	792.20
648.38	786.84
648.72	781.57
649.06	776.25
649.41	771.19
649.75	766.16
650.09	761.40
650.43	756.41
650.78	750.92
651.12	745.91
651.46	740.90
651.80	736.16
652.14	731.33
652.49	726.33
652.83	721.38
653.17	716.00
653.51	710.98
653.85	706.38
654.20	701.45
654.54	696.43
654.88	691.70
655.22	686.80
655.56	681.83
655.90	676.95
656.25	672.02
656.59	667.24
656.93	662.64
657.27	658.08
657.61	653.20
657.95	648.81
658.29	644.41
658.64	639.94
658.98	635.26
659.32	630.54
659.66	626.15
660.00	621.80
660.34	617.53
660.68	613.06
661.02	608.49
661.36	604.36
661.70	600.20
662.05	596.11
662.39	592.27
662.73	588.53
663.07	584.88
663.41	581.14
663.75	577.20
664.09	573.42
664.43	569.14
664.77	565.56
665.11	561.52
665.45	557.94
665.79	554.24
666.13	550.67
666.47	547.08
666.81	543.50
667.15	539.98
667.49	536.83
667.83	533.59
668.17	530.42
668.51	527.23
668.85	524.17
669.19	521.17
669.53	517.79
669.87	514.46
670.21	511.14
670.55	508.06
670.89	505.26
671.23	502.45
671.57	499.65
671.91	496.59
672.25	493.80
672.58	490.83
672.92	487.86
673.26	485.01
673.60	482.33
673.94	479.55
674.28	476.71
674.62	474.02
674.96	471.16
675.30	468.47
675.64	465.62
675.97	462.90
676.31	460.23
676.65	457.76
676.99	455.46
677.33	452.90
677.67	450.37
678.01	447.61
678.34	444.96
678.68	442.51
679.02	440.15
679.36	437.58
679.70	435.11
680.04	432.80
680.37	430.35
680.71	427.97
681.05	425.77
681.39	423.64
681.73	421.38
682.06	419.25
682.40	417.07
682.74	414.90
683.08	412.77
683.42	410.47
683.75	408.27
684.09	405.82
684.43	403.69
684.77	401.47
685.10	399.31
685.44	397.01
685.78	394.84
686.12	392.86
686.45	391.02
686.79	389.09
687.13	387.16
687.46	385.22
687.80	383.31
688.14	381.26
688.48	379.32
688.81	377.29
689.15	375.32
689.49	373.32
689.82	371.49
690.16	369.44
690.50	367.54
690.83	365.62
691.17	363.81
691.51	361.88
691.84	360.15
692.18	358.50
692.52	356.88
692.85	355.25
693.19	353.65
693.52	351.98
693.86	350.17
694.20	348.57
694.53	347.02
694.87	345.35
695.21	343.72
695.54	342.06
695.88	340.36
696.21	338.70
696.55	337.33
696.88	335.73
697.22	334.25
697.56	332.90
697.89	331.51
698.23	330.07
698.56	328.70
698.90	327.35
699.23	325.86
699.57	324.42
699.90	323.05
700.24	321.57
700.58	320.17
700.91	318.94
701.25	317.78
701.58	316.57
701.92	315.42
702.25	314.16
702.59	312.91
702.92	311.74
703.26	310.64
703.59	309.36
703.93	308.43
704.26	307.40
704.60	306.23
704.93	305.09
705.26	303.96
705.60	302.99
705.93	301.80
706.27	300.84
706.60	299.95
706.94	298.98
707.27	297.87
707.61	296.81
707.94	295.69
708.27	294.45
708.61	293.32
708.94	292.24
709.28	291.25
709.61	290.26
709.94	289.40
710.28	288.39
710.61	287.61
710.95	286.49
711.28	285.65
711.61	284.74
711.95	283.96
712.28	283.06
712.61	282.11
712.95	281.50
713.28	280.71
713.61	279.81
713.95	279.02
714.28	278.29
714.61	277.56
714.95	276.98
715.28	276.17
715.61	275.39
715.95	274.68
716.28	273.85
716.61	273.13
716.95	272.33
717.28	271.66
717.61	270.85
717.94	270.11
718.28	269.26
718.61	268.64
718.94	267.81
719.27	267.26
719.61	266.63
719.94	265.97
720.27	265.23
720.60	264.56
720.94	263.91
721.27	263.26
721.60	262.70
721.93	262.01
722.27	261.56
722.60	261.02
722.93	260.42
723.26	259.95
723.59	259.38
723.93	258.83
724.26	258.33
724.59	257.78
724.92	257.30
725.25	256.90
725.59	256.35
725.92	256.05
726.25	255.48
726.58	255.05
726.91	254.44
727.24	254.03
727.57	253.68
727.91	253.08
728.24	252.73
728.57	252.26
728.90	251.90
729.23	251.42
729.56	251.20
729.89	250.84
730.22	250.43
730.55	250.01
730.89	249.69
731.22	249.22
731.55	248.87
731.88	248.48
732.21	247.98
732.54	247.52
732.87	246.95
733.20	246.60
733.53	246.19
733.86	245.90
734.19	245.46
734.52	245.00
734.85	244.97
735.18	244.62
735.51	244.38
735.84	244.06
736.17	243.77
736.50	243.17
736.83	243.16
737.16	242.84
737.49	242.58
737.82	242.17
738.15	241.81
738.48	241.47
738.81	241.12
739.14	240.78
739.47	240.55
739.80	240.31
740.13	239.97
740.46	239.55
740.79	239.19
741.12	238.90
741.45	238.61
741.78	238.11
742.11	237.73
742.44	237.36
742.77	237.04
743.10	236.68
743.43	236.44
743.75	235.83
744.08	236.02
744.41	235.68
744.74	235.49
745.07	235.28
745.40	235.09
745.73	234.99
746.06	234.78
746.39	234.49
746.71	234.20
747.04	233.92
747.37	233.66
747.70	233.53
748.03	233.37
748.36	233.19
748.68	232.96
749.01	232.73
749.34	232.47
749.67	232.25
750.00	232.08
750.33	232.06
750.65	231.82
750.98	231.11
751.31	230.89
751.64	230.59
751.97	230.51
752.29	230.21
752.62	229.82
752.95	229.51
753.28	229.30
753.60	229.09
753.93	229.04
754.26	228.95
754.59	228.58
754.91	228.32
755.24	228.04
755.57	227.85
755.90	227.67
756.22	227.37
756.55	227.17
756.88	226.86
757.20	226.45
757.53	226.21
757.86	226.01
758.19	225.89
758.51	225.76
758.84	225.47
759.17	225.26
759.49	225.09
759.82	225.19
760.15	225.05
760.47	224.88
760.80	224.59
761.13	224.40
761.45	224.22
761.78	224.00
762.11	223.88
762.43	223.70
762.76	223.45
763.08	223.46
763.41	223.31
763.74	223.16
764.06	223.01
764.39	222.84
764.71	222.70
765.04	222.54
765.37	222.31
765.69	222.15
766.02	222.03
766.34	221.93
766.67	221.62
767.00	221.54
767.32	221.52
767.65	221.59
767.97	221.45
768.30	221.35
768.62	221.32
768.95	221.16
769.27	221.03
769.60	221.08
769.92	220.85
770.25	220.62
770.57	220.54
770.90	220.45
771.22	220.32
771.55	220.16
771.87	220.08
772.20	220.07
772.52	220.23
772.85	220.57
773.17	220.47
773.50	220.36
773.82	220.26
774.15	220.04
774.47	219.75
774.80	219.66
775.12	219.60
775.45	219.43
775.77	219.43
776.09	219.34
776.42	219.20
776.74	219.18
777.07	219.10
777.39	219.07
777.72	218.95
778.04	218.95
778.36	219.01
778.69	218.89
779.01	218.80
779.33	218.46
779.66	217.96
779.98	217.82
780.31	217.84
780.63	217.84
780.95	217.93
781.28	217.85
781.60	217.75
781.92	217.66
782.25	217.61
782.57	217.48
782.89	217.38
783.22	217.32
783.54	217.30
783.86	217.27
784.19	217.14
784.51	217.16
784.83	216.99
785.16	216.85
785.48	216.84
785.80	216.74
786.12	216.76
786.45	216.79
786.77	216.83
787.09	216.65
787.42	216.49
787.74	216.43
788.06	216.37
788.38	216.32
788.71	216.30
789.03	216.30
789.35	216.27
789.67	216.23
789.99	216.13
790.32	216.05
790.64	216.13
790.96	216.38
791.28	216.24
791.61	216.23
791.93	216.21
792.25	216.06
792.57	216.28
792.89	216.12
793.21	216.00
793.54	215.88
793.86	215.85
794.18	215.86
794.50	215.69
794.82	215.70
795.14	215.75
795.47	215.69
795.79	215.60
796.11	215.52
796.43	215.50
796.75	215.52
797.07	215.50
797.39	215.40
797.71	215.16
798.04	215.13
798.36	215.08
798.68	215.02
799.00	215.11
799.32	214.86
799.64	214.83
799.96	214.80
800.28	214.82
800.60	214.79
800.92	214.74
801.24	214.72
801.56	214.72
801.89	214.62
802.21	214.63
802.53	214.53
802.85	214.57
803.17	214.67
803.49	214.58
803.81	214.53
804.13	214.46
804.45	214.33
804.77	214.35
805.09	214.39
805.41	214.41
805.73	214.30
806.05	214.20
806.37	214.21
806.69	214.14
807.01	214.11
807.33	214.05
807.65	213.90
807.97	214.03
808.28	213.90
808.60	213.89
808.92	213.82
809.24	214.04
809.56	214.10
809.88	213.95
810.20	213.97
810.52	213.98
810.84	213.92
811.16	213.98
811.48	213.94
811.80	214.04
812.12	213.97
812.43	214.05
812.75	214.09
813.07	214.03
813.39	214.12
813.71	214.08
814.03	214.07
814.35	214.08
814.67	214.01
814.98	213.99
815.30	213.97
815.62	213.91
815.94	213.65
816.26	213.50
816.58	213.39
816.89	213.39
817.21	213.26
817.53	213.25
817.85	213.20
818.17	213.20
818.48	213.02
818.80	213.12
819.12	213.05
819.44	212.96
819.76	212.96
820.07	212.87
820.39	212.85
820.71	212.90
821.03	212.95
821.34	212.82
821.66	212.89
821.98	212.88
822.30	212.85
822.61	213.01
822.93	212.95
823.25	212.95
823.57	212.91
823.88	212.99
824.20	213.02
824.52	213.10
824.83	213.00
825.15	212.94
825.47	212.82
825.79	212.80
826.10	212.82
826.42	212.73
826.74	212.86
827.05	212.82
827.37	212.80
827.69	212.68
828.00	212.75
828.32	212.73
828.64	212.69
828.95	212.85
829.27	212.83
829.58	212.89
829.90	212.96
830.22	213.02
830.53	212.95
830.85	212.86
831.17	212.70
831.48	212.79
831.80	212.84
832.11	212.81
832.43	212.78
832.75	212.75
833.06	212.96
833.38	212.80
833.69	212.77
834.01	212.83
834.32	212.88
834.64	212.78
834.96	212.74
835.27	212.70
835.59	212.65
835.90	212.55
836.22	212.55
836.53	212.51
836.85	212.46
837.16	212.81
837.48	212.81
837.79	212.95
838.11	212.91
838.42	212.91
838.74	212.96
839.05	212.92
839.37	212.84
839.68	212.71
840.00	212.66
840.31	212.69
840.63	212.59
840.94	212.53
841.26	212.43
841.57	212.44
841.88	212.50
842.20	212.35
842.51	212.29
842.83	212.25
843.14	212.49
843.46	212.47
843.77	212.28
844.08	212.27
844.40	212.20
844.71	212.12
845.03	212.04
845.34	212.05
845.65	212.05
845.97	212.11
846.28	212.12
846.60	212.17
846.91	212.19
847.22	212.17
847.54	212.35
847.85	212.43
848.16	212.37
848.48	212.31
848.79	212.52
849.10	212.60
849.42	212.62
849.73	212.31
850.04	212.27
850.36	212.15
850.67	212.22
850.98	212.20
851.30	212.27
851.61	212.28
851.92	212.23
852.23	212.40
852.55	212.40
852.86	212.38
853.17	212.40
853.49	212.46
853.80	212.53
854.11	212.50
854.42	212.67
854.74	212.66
855.05	212.64
855.36	212.48
855.67	212.53
855.99	212.58
856.30	212.96
856.61	212.94
856.92	212.94
857.23	212.83
857.55	212.81
857.86	212.77
858.17	212.83
858.48	212.75
858.79	212.62
859.11	212.71
859.42	212.66
859.73	212.58
860.04	212.56
860.35	212.43
860.66	212.30
860.98	212.16
861.29	212.14
861.60	212.15
861.91	212.15
862.22	212.04
862.53	211.89
862.84	211.51
863.16	211.68
863.47	211.60
863.78	211.68
864.09	211.62
864.40	211.59
864.71	211.56
865.02	211.64
865.33	211.58
865.64	211.50
865.95	211.52
866.27	211.73
866.58	211.68
866.89	211.74
867.20	211.64
867.51	211.59
867.82	211.63
868.13	211.75
868.44	211.72
868.75	211.72
869.06	211.79
869.37	211.83
869.68	211.59
869.99	211.67
870.30	211.71
870.61	211.78
870.92	211.78
871.23	211.75
871.54	211.82
871.85	211.91
872.16	211.93
872.47	211.90
872.78	211.73
873.09	211.75
873.40	211.75
873.71	211.82
874.02	211.85
874.33	211.82
874.64	211.68
874.95	211.77
875.26	211.78
875.56	211.75
875.87	211.77
876.18	211.84
876.49	212.10
876.80	212.02
877.11	211.94
877.42	211.92
877.73	211.92
878.04	211.88
878.35	211.88
878.66	211.87
878.96	211.82
879.27	211.81
879.58	211.75
879.89	211.73
880.20	211.84
880.51	211.82
880.82	211.81
881.12	211.89
881.43	211.77
881.74	211.69
882.05	211.63
882.36	211.62
882.67	211.65
882.97	211.32
883.28	211.34
883.59	211.31
883.90	211.40
884.21	211.50
884.51	211.44
884.82	211.35
885.13	211.35
885.44	211.37
885.74	211.41
886.05	211.49
886.36	211.55
886.67	211.41
886.98	211.61
887.28	211.64
887.59	211.59
887.90	211.63
888.20	211.60
888.51	211.71
888.82	211.60
889.13	211.58
889.43	211.82
889.74	211.82
890.05	211.82
890.35	211.76
890.66	211.71
890.97	211.68
891.28	211.63
891.58	211.63
891.89	211.65
892.20	211.52
892.50	211.43
892.81	211.36
893.12	211.38
893.42	211.19
893.73	211.22
894.04	211.21
894.34	211.19
894.65	211.19
894.95	211.14
895.26	211.13
895.57	211.26
895.87	210.97
896.18	211.01
896.48	211.09
896.79	211.07
897.10	211.08
897.40	211.09
897.71	211.16
898.01	211.15
898.32	211.14
898.63	211.26
898.93	211.31
899.24	211.38
899.54	211.32
899.85	211.32
900.15	211.25
900.46	211.23
900.76	211.33
901.07	211.35
901.38	211.37
901.68	211.51
901.99	211.40
902.29	211.42
902.60	211.40
902.90	211.35
903.21	211.35
903.51	211.37
903.82	211.45
904.12	211.40
904.43	211.36
904.73	211.38
905.03	211.38
905.34	211.68
905.64	211.59
905.95	211.59
906.25	211.57
906.56	211.58
906.86	211.59
907.17	211.53
907.47	211.57
907.77	211.58
908.08	211.50
908.38	211.57
908.69	211.62
908.99	211.64
909.30	211.62
909.60	211.63
909.90	211.58
910.21	211.46
910.51	211.47
910.81	211.50
911.12	211.57
911.42	211.50
911.73	211.12
912.03	211.16
912.33	211.29
912.64	211.30
912.94	211.30
913.24	211.22
913.55	211.21
913.85	211.19
914.15	211.24
914.46	211.25
914.76	211.16
915.06	211.13
915.37	211.04
915.67	211.08
915.97	211.14
916.27	211.09
916.58	211.08
916.88	211.06
917.18	211.03
917.49	211.20
917.79	211.19
918.09	211.32
918.39	211.41
918.70	211.40
919.00	211.45
919.30	211.56
919.60	211.58
919.91	211.60
920.21	211.62
920.51	211.49
920.81	211.44
921.12	211.46
921.42	211.47
921.72	211.52
922.02	211.54
922.32	211.56
922.63	211.65
922.93	211.85
923.23	211.85
923.53	211.86
923.83	211.67
924.13	211.74
924.44	211.75
924.74	211.80
925.04	211.86
925.34	211.84
925.64	211.74
925.94	211.75
926.24	211.93
926.55	211.97
926.85	212.03
927.15	212.05
927.45	212.12
927.75	212.05
928.05	212.06
928.35	212.01
928.65	212.06
928.95	212.00
929.26	211.82
929.56	211.95
929.86	211.95
930.16	211.88
930.46	211.90
930.76	211.88
931.06	211.65
931.36	211.56
931.66	211.59
931.96	211.64
932.26	211.66
932.56	211.52
932.86	211.42
933.16	211.49
933.46	211.48
933.76	211.39
934.06	211.55
934.36	211.65
934.66	211.68
934.96	211.61
935.26	211.70
935.56	211.81
935.86	211.74
936.16	211.67
936.46	211.73
936.76	211.65
937.06	211.61
937.36	211.71
937.66	211.69
937.96	211.68
938.26	211.58
938.56	211.55
938.86	211.51
939.16	211.57
939.46	211.55
939.76	211.58
940.06	211.61
940.35	211.56
940.65	211.40
940.95	211.44
941.25	211.32
941.55	211.25
941.85	211.26
942.15	211.29
942.45	211.36
942.75	211.28
943.04	211.29
943.34	211.32
943.64	211.28
943.94	211.22
944.24	211.32
944.54	211.35
944.84	211.36
945.13	211.34
945.43	211.36
945.73	211.31
946.03	211.28
946.33	211.24
946.62	211.16
946.92	211.19
947.22	211.17
947.52	211.25
947.82	211.32
948.11	211.26
948.41	211.21
948.71	211.21
949.01	211.30
949.31	211.25
949.60	211.20
949.90	211.26
950.20	211.22
950.50	211.10
950.79	211.07
951.09	211.07
951.39	211.02
951.69	210.95
951.98	211.02
952.28	211.03
952.58	210.99
952.87	211.00
953.17	211.03
953.47	210.99
953.76	210.95
954.06	210.84
954.36	210.81
954.66	210.71
954.95	210.73
955.25	210.68
955.55	210.71
955.84	210.66
956.14	210.68
956.44	210.75
956.73	210.68
957.03	210.79
957.32	210.86
957.62	210.88
957.92	210.98
958.21	210.96
958.51	211.36
958.81	211.42
959.10	211.54
959.40	211.57
959.69	211.57
959.99	211.60
960.29	211.64
960.58	211.64
960.88	211.82
961.17	211.84
961.47	211.92
961.76	211.88
962.06	212.00
962.36	211.97
962.65	212.05
962.95	212.12
963.24	212.01
963.54	211.97
963.83	211.99
964.13	211.98
964.42	211.81
964.72	211.50
965.01	211.56
965.31	211.49
965.60	211.48
965.90	211.72
966.19	211.69
966.49	211.78
966.78	211.73
967.08	211.73
967.37	211.75
967.67	211.64
967.96	211.74
968.26	211.74
968.55	211.76
968.85	211.69
969.14	211.65
969.43	211.69
969.73	211.68
970.02	211.72
970.32	211.72
970.61	211.80
970.91	211.75
971.20	211.64
971.49	211.57
971.79	211.55
972.08	211.32
972.38	211.38
972.67	211.35
972.96	211.38
973.26	211.29
973.55	211.36
973.85	211.38
974.14	211.31
974.43	211.24
974.73	211.19
975.02	211.17
975.31	211.23
975.61	211.24
975.90	211.26
976.19	211.13
976.49	211.05
976.78	211.07
977.07	211.05
977.37	211.11
977.66	211.14
977.95	211.09
978.24	211.04
978.54	211.10
978.83	210.97
979.12	210.93
979.42	210.91
979.71	210.85
980.00	210.83
980.29	210.90
980.59	210.84
980.88	210.93
981.17	210.99
981.46	211.01
981.76	210.98
982.05	211.04
982.34	211.08
982.63	211.23
982.93	211.24
983.22	211.32
983.51	211.32
983.80	211.39
984.09	211.48
984.39	211.48
984.68	211.31
984.97	211.39
985.26	211.37
985.55	211.44
985.85	211.44
986.14	211.45
986.43	211.47
986.72	211.55
987.01	211.39
987.30	211.33
987.59	211.26
987.89	211.31
988.18	211.25
988.47	211.24
988.76	211.10
989.05	211.01
989.34	210.95
989.63	211.06
989.92	210.96
990.22	210.88
990.51	210.92
990.80	211.00
991.09	211.00
991.38	211.05
991.67	211.00
991.96	210.91
992.25	210.99
992.54	210.99
992.83	210.93
993.12	210.95
993.41	210.97
993.70	211.11
993.99	211.20
994.28	211.19
994.58	211.19
994.87	211.14
995.16	211.14
995.45	211.13
995.74	211.03
996.03	211.06
996.32	211.12
996.61	211.15
996.90	211.07
997.19	211.02
997.48	211.05
997.77	210.98
998.06	211.00
998.34	210.90
998.63	210.82
998.92	210.86
999.21	210.88
999.50	210.87
999.79	210.76
1000.08	210.66
1000.37	210.69
1000.66	210.73
1000.95	210.89
1001.24	210.97
1001.53	210.95
1001.82	210.90
1002.11	210.93
1002.40	210.95
1002.68	211.03
1002.97	211.34
1003.26	211.34
1003.55	211.28
1003.84	211.33
1004.13	211.44
1004.42	211.42
1004.71	211.43
1004.99	211.33
1005.28	211.43
1005.57	211.41
1005.86	211.40
1006.15	211.43
1006.44	211.35
1006.72	211.37
1007.01	211.22
1007.30	211.24
1007.59	211.21
1007.88	211.21
1008.17	211.14
1008.45	211.07
1008.74	210.94
1009.03	210.75
1009.32	210.77
1009.60	210.74
1009.89	210.71
1010.18	210.61
1010.47	210.65
1010.76	210.66
1011.04	210.71
1011.33	210.71
1011.62	210.80
1011.91	210.78
1012.19	210.72
1012.48	210.77
1012.77	210.75
1013.05	210.93
1013.34	210.88
1013.63	210.92
1013.92	210.86
1014.20	210.87
1014.49	210.90
1014.78	210.90
1015.06	210.86
1015.35	210.87
1015.64	210.90
1015.92	210.96
1016.21	210.95
1016.50	210.95
1016.78	210.93
1017.07	210.94
1017.36	210.86
1017.64	210.78
1017.93	210.80
1018.22	210.79
1018.50	210.74
1018.79	210.76
1019.08	210.60
1019.36	210.68
1019.65	210.63
1019.93	210.80
1020.22	210.76
1020.51	210.92
1020.79	210.85
1021.08	210.05
1021.36	210.00
1021.65	211.60
1021.94	210.05
1022.22	212.00
1022.51	210.05
1022.79	212.65
1023.08	209.60
1023.36	214.70
1023.65	208.80
>>>>>End Processed Spectral Data<<<<<
