SpectraSuite Data File
++++++++++++++++++++++++++++++++++++
Date: Mon Feb 25 17:19:04 EST 2013
User: group
Dark Spectrum Present: No
Reference Spectrum Present: No
Number of Sampled Component Spectra: 1
Spectrometers: USB2E7196
Integration Time (usec): 104000 (USB2E7196)
Spectra Averaged: 20 (USB2E7196)
Boxcar Smoothing: 10 (USB2E7196)
Correct for Electrical Dark: No (USB2E7196)
Strobe/Lamp Enabled: No (USB2E7196)
Correct for Detector Non-linearity: No (USB2E7196)
Correct for Stray Light: No (USB2E7196)
Number of Pixels in Processed Spectrum: 2048
>>>>>Begin Processed Spectral Data<<<<<
339.09	0.00
339.48	198.25
339.86	200.55
340.24	200.45
340.63	203.20
341.01	209.60
341.39	206.00
341.78	209.00
342.16	210.75
342.54	209.50
342.93	198.65
343.31	208.71
343.69	209.32
344.07	209.81
344.46	210.35
344.84	210.77
345.22	210.91
345.60	211.19
345.99	211.34
346.37	211.40
346.75	211.49
347.13	211.57
347.52	211.66
347.90	211.85
348.28	211.96
348.66	212.11
349.05	212.14
349.43	212.20
349.81	212.29
350.19	212.40
350.57	212.38
350.96	212.50
351.34	212.63
351.72	212.79
352.10	212.88
352.48	212.95
352.87	213.03
353.25	213.08
353.63	213.15
354.01	213.26
354.39	213.36
354.77	213.45
355.15	213.64
355.54	213.68
355.92	213.63
356.30	213.73
356.68	214.08
357.06	214.15
357.44	214.13
357.82	214.16
358.20	214.23
358.58	214.29
358.97	214.37
359.35	214.50
359.73	214.58
360.11	214.69
360.49	214.76
360.87	214.83
361.25	214.95
361.63	215.06
362.01	215.09
362.39	215.11
362.77	215.21
363.15	215.20
363.53	215.26
363.91	215.32
364.29	215.33
364.67	214.98
365.05	215.04
365.43	215.16
365.81	215.19
366.19	215.35
366.57	215.55
366.95	215.58
367.33	215.54
367.71	215.47
368.09	215.48
368.47	215.49
368.85	215.47
369.23	215.45
369.61	215.35
369.99	215.43
370.37	215.53
370.75	215.62
371.13	215.55
371.51	215.45
371.89	215.42
372.27	215.37
372.65	215.35
373.03	215.32
373.41	215.22
373.78	215.26
374.16	215.09
374.54	214.96
374.92	214.84
375.30	214.73
375.68	214.68
376.06	214.65
376.44	214.55
376.82	214.52
377.19	214.48
377.57	214.50
377.95	214.32
378.33	214.26
378.71	214.00
379.09	213.97
379.47	213.98
379.84	213.91
380.22	213.89
380.60	213.74
380.98	213.63
381.36	213.62
381.73	213.50
382.11	213.50
382.49	213.41
382.87	213.38
383.25	213.38
383.62	213.67
384.00	213.60
384.38	213.60
384.76	213.62
385.13	213.70
385.51	213.70
385.89	213.64
386.27	213.50
386.64	213.61
387.02	213.57
387.40	213.52
387.78	213.49
388.15	213.47
388.53	213.43
388.91	213.44
389.29	213.30
389.66	213.33
390.04	213.22
390.42	213.30
390.79	213.29
391.17	213.25
391.55	212.92
391.92	212.91
392.30	212.90
392.68	212.78
393.05	212.85
393.43	212.82
393.81	212.83
394.18	212.83
394.56	212.80
394.94	212.88
395.31	212.78
395.69	212.92
396.06	213.01
396.44	213.13
396.82	213.15
397.19	213.41
397.57	213.39
397.95	213.49
398.32	213.45
398.70	213.51
399.07	213.60
399.45	213.59
399.82	213.65
400.20	213.66
400.58	213.78
400.95	213.63
401.33	213.69
401.70	213.98
402.08	214.07
402.45	214.12
402.83	214.23
403.20	214.39
403.58	214.38
403.95	214.47
404.33	214.52
404.71	214.61
405.08	214.94
405.46	215.13
405.83	215.34
406.21	215.48
406.58	215.69
406.96	215.87
407.33	216.08
407.70	216.35
408.08	216.83
408.45	217.15
408.83	217.54
409.20	217.78
409.58	217.94
409.95	218.39
410.33	218.79
410.70	219.05
411.08	219.57
411.45	220.08
411.82	220.51
412.20	221.16
412.57	221.99
412.95	222.23
413.32	222.89
413.69	223.53
414.07	224.29
414.44	225.10
414.82	225.88
415.19	226.89
415.56	227.86
415.94	228.74
416.31	229.84
416.68	230.96
417.06	232.30
417.43	233.55
417.81	234.98
418.18	236.49
418.55	238.12
418.93	239.78
419.30	241.48
419.67	243.38
420.04	245.25
420.42	247.06
420.79	249.51
421.16	251.73
421.54	254.25
421.91	256.69
422.28	259.15
422.66	261.82
423.03	264.60
423.40	267.35
423.77	270.28
424.15	273.23
424.52	276.25
424.89	279.66
425.26	282.86
425.64	285.88
426.01	289.21
426.38	292.68
426.75	296.27
427.13	299.96
427.50	303.88
427.87	307.94
428.24	311.97
428.61	315.83
428.99	320.29
429.36	324.76
429.73	329.23
430.10	333.85
430.47	338.64
430.85	343.23
431.22	348.28
431.59	353.65
431.96	358.67
432.33	364.41
432.70	369.80
433.08	376.32
433.45	382.35
433.82	388.32
434.19	394.98
434.56	401.63
434.93	407.93
435.30	414.13
435.68	420.95
436.05	427.70
436.42	434.35
436.79	440.45
437.16	447.05
437.53	454.09
437.90	461.01
438.27	467.75
438.64	474.89
439.01	481.35
439.38	487.11
439.75	492.82
440.13	499.21
440.50	505.15
440.87	510.10
441.24	515.19
441.61	520.83
441.98	525.03
442.35	529.59
442.72	534.45
443.09	539.15
443.46	541.88
443.83	543.84
444.20	545.52
444.57	547.75
444.94	548.76
445.31	549.95
445.68	551.22
446.05	551.59
446.42	550.69
446.79	549.83
447.16	548.89
447.53	548.10
447.90	545.23
448.27	542.75
448.64	539.02
449.01	536.23
449.37	531.56
449.74	526.86
450.11	521.67
450.48	515.71
450.85	509.68
451.22	504.46
451.59	499.49
451.96	494.69
452.33	488.53
452.70	482.91
453.07	476.00
453.43	468.80
453.80	462.21
454.17	456.09
454.54	450.06
454.91	443.66
455.28	437.35
455.65	431.74
456.02	426.23
456.38	421.26
456.75	415.29
457.12	410.15
457.49	405.23
457.86	400.31
458.23	396.32
458.59	391.78
458.96	387.34
459.33	383.30
459.70	379.28
460.07	375.96
460.43	372.27
460.80	368.93
461.17	366.08
461.54	362.97
461.91	359.97
462.27	357.01
462.64	354.38
463.01	351.69
463.38	348.99
463.74	345.75
464.11	343.23
464.48	341.23
464.85	338.92
465.21	337.28
465.58	335.43
465.95	333.14
466.32	331.26
466.68	329.42
467.05	327.60
467.42	325.74
467.78	323.83
468.15	322.03
468.52	320.77
468.88	318.92
469.25	317.36
469.62	316.15
469.98	314.82
470.35	313.60
470.72	312.54
471.08	311.21
471.45	310.41
471.82	309.58
472.18	308.46
472.55	307.83
472.92	306.89
473.28	306.06
473.65	305.36
474.02	304.68
474.38	304.22
474.75	303.87
475.11	303.40
475.48	303.17
475.85	302.99
476.21	302.71
476.58	302.75
476.94	302.79
477.31	302.81
477.67	302.90
478.04	303.10
478.41	303.32
478.77	303.96
479.14	304.07
479.50	304.52
479.87	305.03
480.23	305.62
480.60	306.14
480.96	306.73
481.33	307.56
481.69	308.46
482.06	309.25
482.42	310.11
482.79	311.18
483.15	312.35
483.52	313.77
483.88	315.09
484.25	316.30
484.61	317.77
484.98	319.17
485.34	320.90
485.71	322.82
486.07	324.70
486.44	326.43
486.80	328.68
487.17	330.91
487.53	333.45
487.90	336.08
488.26	339.04
488.62	342.16
488.99	345.17
489.35	348.34
489.72	351.64
490.08	355.19
490.44	359.00
490.81	362.86
491.17	366.74
491.54	371.15
491.90	375.75
492.26	380.49
492.63	385.57
492.99	390.81
493.36	396.25
493.72	402.29
494.08	408.37
494.45	414.81
494.81	421.59
495.17	428.48
495.54	435.78
495.90	443.20
496.26	450.91
496.63	459.17
496.99	467.85
497.35	476.97
497.72	486.23
498.08	495.50
498.44	505.50
498.80	516.26
499.17	527.10
499.53	538.53
499.89	550.35
500.26	562.33
500.62	574.56
500.98	587.58
501.34	600.82
501.71	614.68
502.07	628.79
502.43	643.29
502.79	658.22
503.16	673.79
503.52	689.85
503.88	706.26
504.24	723.05
504.60	740.22
504.97	758.04
505.33	776.30
505.69	796.01
506.05	815.53
506.41	835.13
506.78	855.20
507.14	875.64
507.50	896.66
507.86	918.27
508.22	940.50
508.59	962.69
508.95	985.60
509.31	1008.91
509.67	1032.80
510.03	1057.09
510.39	1082.38
510.75	1107.75
511.12	1133.44
511.48	1159.47
511.84	1185.99
512.20	1212.38
512.56	1239.72
512.92	1267.55
513.28	1295.01
513.64	1323.17
514.00	1351.45
514.37	1379.75
514.73	1408.79
515.09	1437.79
515.45	1467.06
515.81	1496.33
516.17	1525.84
516.53	1555.45
516.89	1585.15
517.25	1615.13
517.61	1644.83
517.97	1674.14
518.33	1703.58
518.69	1733.44
519.05	1763.58
519.41	1794.13
519.77	1824.90
520.13	1854.37
520.49	1883.87
520.85	1913.91
521.21	1944.11
521.57	1974.85
521.93	2004.43
522.29	2034.88
522.65	2065.39
523.01	2095.54
523.37	2124.90
523.73	2154.71
524.09	2184.28
524.45	2214.21
524.81	2243.90
525.17	2274.39
525.53	2304.18
525.89	2334.04
526.25	2363.07
526.61	2391.33
526.97	2419.46
527.33	2447.53
527.68	2476.33
528.04	2503.84
528.40	2530.35
528.76	2557.16
529.12	2584.10
529.48	2612.50
529.84	2639.08
530.20	2665.28
530.56	2691.52
530.91	2719.06
531.27	2745.46
531.63	2771.02
531.99	2796.47
532.35	2820.98
532.71	2844.89
533.07	2869.56
533.42	2892.53
533.78	2916.36
534.14	2939.80
534.50	2961.56
534.86	2984.37
535.21	3005.15
535.57	3027.71
535.93	3049.03
536.29	3069.52
536.65	3089.64
537.00	3108.51
537.36	3126.98
537.72	3145.06
538.08	3162.99
538.44	3180.16
538.79	3197.95
539.15	3215.63
539.51	3232.65
539.87	3250.43
540.22	3266.74
540.58	3283.40
540.94	3299.89
541.29	3313.99
541.65	3327.95
542.01	3342.31
542.37	3355.61
542.72	3369.73
543.08	3382.12
543.44	3396.03
543.79	3407.79
544.15	3419.04
544.51	3431.07
544.87	3443.04
545.22	3454.04
545.58	3463.65
545.94	3472.28
546.29	3479.75
546.65	3487.36
547.01	3494.43
547.36	3500.50
547.72	3506.77
548.07	3511.49
548.43	3516.10
548.79	3521.04
549.14	3525.77
549.50	3530.77
549.86	3534.00
550.21	3536.95
550.57	3540.75
550.92	3542.33
551.28	3544.46
551.64	3546.43
551.99	3548.38
552.35	3549.10
552.70	3550.39
553.06	3551.85
553.41	3553.11
553.77	3554.25
554.13	3554.40
554.48	3554.82
554.84	3555.30
555.19	3554.46
555.55	3553.35
555.90	3551.73
556.26	3550.53
556.61	3548.35
556.97	3545.25
557.32	3543.60
557.68	3540.21
558.03	3536.72
558.39	3534.02
558.74	3532.41
559.10	3530.00
559.45	3526.21
559.81	3523.10
560.16	3518.58
560.52	3515.07
560.87	3510.50
561.23	3505.21
561.58	3501.28
561.94	3495.35
562.29	3489.07
562.64	3484.47
563.00	3479.77
563.35	3475.99
563.71	3472.40
564.06	3468.30
564.42	3464.32
564.77	3460.16
565.12	3456.77
565.48	3451.69
565.83	3446.82
566.19	3441.97
566.54	3435.30
566.89	3428.96
567.25	3423.34
567.60	3417.68
567.96	3411.44
568.31	3405.86
568.66	3399.17
569.02	3391.33
569.37	3383.94
569.72	3377.32
570.08	3369.66
570.43	3361.65
570.78	3352.81
571.14	3343.26
571.49	3334.14
571.84	3325.93
572.20	3315.68
572.55	3306.65
572.90	3296.83
573.26	3286.40
573.61	3275.78
573.96	3266.08
574.31	3255.32
574.67	3243.75
575.02	3232.32
575.37	3220.73
575.72	3208.65
576.08	3198.40
576.43	3187.12
576.78	3176.36
577.13	3165.79
577.49	3155.05
577.84	3144.04
578.19	3134.05
578.54	3124.08
578.90	3114.68
579.25	3103.10
579.60	3091.72
579.95	3079.43
580.30	3068.98
580.66	3059.15
581.01	3047.48
581.36	3035.44
581.71	3024.35
582.06	3013.60
582.42	3002.70
582.77	2990.70
583.12	2979.29
583.47	2968.07
583.82	2957.60
584.17	2946.90
584.53	2935.95
584.88	2924.65
585.23	2913.26
585.58	2901.51
585.93	2889.62
586.28	2877.92
586.63	2866.53
586.98	2855.98
587.34	2846.26
587.69	2834.82
588.04	2823.28
588.39	2812.30
588.74	2801.25
589.09	2790.63
589.44	2778.94
589.79	2768.35
590.14	2758.20
590.49	2747.33
590.84	2736.64
591.19	2727.18
591.54	2716.39
591.89	2703.50
592.25	2692.20
592.60	2680.69
592.95	2668.75
593.30	2656.24
593.65	2643.90
594.00	2632.24
594.35	2622.24
594.70	2610.45
595.05	2599.74
595.40	2588.51
595.75	2576.79
596.10	2566.40
596.45	2555.74
596.80	2545.75
597.15	2535.47
597.50	2524.87
597.85	2514.73
598.19	2503.65
598.54	2492.15
598.89	2481.63
599.24	2473.09
599.59	2463.17
599.94	2454.54
600.29	2445.15
600.64	2436.06
600.99	2425.94
601.34	2416.85
601.69	2405.56
602.04	2394.96
602.39	2384.77
602.74	2374.88
603.08	2366.20
603.43	2357.41
603.78	2347.61
604.13	2338.48
604.48	2328.89
604.83	2320.36
605.18	2312.24
605.53	2302.75
605.87	2292.95
606.22	2284.06
606.57	2274.14
606.92	2264.19
607.27	2253.62
607.62	2243.81
607.96	2234.58
608.31	2226.10
608.66	2215.73
609.01	2205.59
609.36	2195.63
609.70	2185.04
610.05	2174.52
610.40	2164.09
610.75	2153.04
611.10	2143.18
611.44	2131.14
611.79	2119.65
612.14	2107.50
612.49	2095.00
612.83	2084.18
613.18	2072.54
613.53	2060.74
613.88	2048.57
614.22	2037.61
614.57	2025.97
614.92	2014.46
615.27	2002.77
615.61	1991.10
615.96	1980.22
616.31	1969.90
616.65	1959.92
617.00	1949.72
617.35	1939.12
617.70	1927.81
618.04	1916.09
618.39	1903.89
618.74	1893.21
619.08	1882.05
619.43	1871.32
619.78	1860.75
620.12	1850.24
620.47	1839.95
620.82	1828.70
621.16	1817.64
621.51	1806.63
621.85	1796.45
622.20	1785.63
622.55	1774.67
622.89	1763.70
623.24	1752.80
623.59	1741.37
623.93	1730.32
624.28	1719.42
624.62	1708.99
624.97	1698.56
625.32	1688.88
625.66	1679.41
626.01	1669.55
626.35	1659.80
626.70	1649.90
627.04	1640.54
627.39	1630.74
627.73	1620.99
628.08	1611.92
628.43	1601.99
628.77	1592.11
629.12	1581.60
629.46	1572.62
629.81	1563.54
630.15	1554.13
630.50	1544.62
630.84	1534.84
631.19	1525.25
631.53	1516.11
631.88	1505.86
632.22	1496.12
632.57	1486.83
632.91	1477.13
633.26	1467.69
633.60	1458.28
633.95	1449.28
634.29	1439.53
634.64	1430.48
634.98	1420.98
635.32	1411.89
635.67	1404.21
636.01	1395.42
636.36	1386.96
636.70	1377.98
637.05	1368.84
637.39	1360.23
637.73	1351.98
638.08	1344.49
638.42	1336.49
638.77	1328.17
639.11	1320.23
639.45	1312.04
639.80	1303.10
640.14	1294.33
640.49	1285.62
640.83	1277.20
641.17	1268.71
641.52	1260.16
641.86	1251.02
642.20	1242.63
642.55	1233.56
642.89	1224.33
643.23	1215.76
643.58	1207.46
643.92	1198.58
644.26	1190.28
644.61	1181.68
644.95	1173.01
645.29	1164.40
645.64	1155.54
645.98	1147.02
646.32	1138.90
646.66	1130.51
647.01	1122.35
647.35	1114.62
647.69	1106.08
648.04	1098.23
648.38	1089.80
648.72	1081.57
649.06	1073.74
649.41	1065.66
649.75	1057.73
650.09	1049.94
650.43	1042.07
650.78	1033.86
651.12	1025.98
651.46	1017.95
651.80	1010.52
652.14	1002.86
652.49	994.98
652.83	987.30
653.17	979.03
653.51	970.95
653.85	963.44
654.20	956.08
654.54	948.38
654.88	941.02
655.22	933.07
655.56	925.46
655.90	918.20
656.25	910.64
656.59	903.25
656.93	896.13
657.27	889.12
657.61	881.65
657.95	874.70
658.29	867.81
658.64	861.17
658.98	853.91
659.32	846.58
659.66	839.75
660.00	832.70
660.34	825.98
660.68	819.12
661.02	812.14
661.36	805.42
661.70	799.03
662.05	792.96
662.39	787.12
662.73	781.16
663.07	775.24
663.41	769.37
663.75	763.28
664.09	757.22
664.43	750.75
664.77	745.19
665.11	739.34
665.45	733.51
665.79	727.89
666.13	722.30
666.47	716.87
666.81	711.28
667.15	705.92
667.49	700.94
667.83	695.90
668.17	690.94
668.51	686.03
668.85	680.95
669.19	676.02
669.53	670.91
669.87	665.90
670.21	660.84
670.55	655.67
670.89	651.40
671.23	646.86
671.57	642.40
671.91	637.50
672.25	632.86
672.58	628.40
672.92	623.66
673.26	619.31
673.60	615.00
673.94	610.69
674.28	606.40
674.62	602.00
674.96	597.84
675.30	593.65
675.64	589.25
675.97	585.20
676.31	581.25
676.65	577.32
676.99	573.67
677.33	569.81
677.67	566.27
678.01	562.12
678.34	558.27
678.68	554.57
679.02	550.78
679.36	547.08
679.70	543.41
680.04	539.80
680.37	535.93
680.71	532.41
681.05	529.06
681.39	525.73
681.73	522.50
682.06	519.14
682.40	515.82
682.74	512.68
683.08	509.31
683.42	505.82
683.75	502.55
684.09	499.14
684.43	495.82
684.77	492.31
685.10	489.08
685.44	485.68
685.78	482.37
686.12	479.59
686.45	476.50
686.79	473.43
687.13	470.65
687.46	468.01
687.80	465.23
688.14	462.03
688.48	459.17
688.81	456.08
689.15	453.14
689.49	450.15
689.82	447.21
690.16	444.09
690.50	441.11
690.83	438.31
691.17	435.46
691.51	432.65
691.84	430.08
692.18	427.40
692.52	425.06
692.85	422.80
693.19	420.23
693.52	417.74
693.86	415.13
694.20	412.60
694.53	410.08
694.87	407.39
695.21	404.98
695.54	402.38
695.88	399.84
696.21	397.41
696.55	395.22
696.88	392.95
697.22	390.79
697.56	388.68
697.89	386.27
698.23	384.07
698.56	382.00
698.90	379.92
699.23	377.80
699.57	375.63
699.90	373.46
700.24	371.36
700.58	369.36
700.91	367.43
701.25	365.63
701.58	363.65
701.92	361.87
702.25	360.05
702.59	358.18
702.92	356.52
703.26	354.76
703.59	352.96
703.93	351.46
704.26	349.74
704.60	348.05
704.93	346.46
705.26	344.79
705.60	343.18
705.93	341.47
706.27	339.98
706.60	338.54
706.94	337.20
707.27	335.56
707.61	334.01
707.94	332.46
708.27	330.65
708.61	329.12
708.94	327.57
709.28	326.10
709.61	324.71
709.94	323.40
710.28	322.01
710.61	320.75
710.95	319.14
711.28	317.98
711.61	316.65
711.95	315.46
712.28	314.10
712.61	312.79
712.95	311.72
713.28	310.63
713.61	309.31
713.95	307.90
714.28	306.75
714.61	305.59
714.95	304.44
715.28	303.31
715.61	302.19
715.95	301.15
716.28	300.01
716.61	298.83
716.95	297.58
717.28	296.62
717.61	295.58
717.94	294.58
718.28	293.41
718.61	292.44
718.94	291.41
719.27	290.45
719.61	289.55
719.94	288.57
720.27	287.48
720.60	286.54
720.94	285.65
721.27	284.87
721.60	284.09
721.93	283.30
722.27	282.66
722.60	281.93
722.93	281.10
723.26	280.41
723.59	279.70
723.93	279.04
724.26	278.21
724.59	277.36
724.92	276.61
725.25	275.98
725.59	275.33
725.92	274.71
726.25	274.10
726.58	273.47
726.91	272.74
727.24	272.10
727.57	271.44
727.91	270.71
728.24	270.03
728.57	269.31
728.90	268.82
729.23	268.05
729.56	267.50
729.89	266.90
730.22	266.22
730.55	265.50
730.89	264.85
731.22	264.27
731.55	263.70
731.88	263.15
732.21	262.47
732.54	261.79
732.87	261.11
733.20	260.49
733.53	259.88
733.86	259.46
734.19	258.81
734.52	258.35
734.85	258.15
735.18	257.65
735.51	257.28
735.84	256.76
736.17	256.32
736.50	255.67
736.83	255.54
737.16	255.10
737.49	254.70
737.82	254.15
738.15	253.68
738.48	253.22
738.81	252.69
739.14	252.19
739.47	251.71
739.80	251.21
740.13	250.73
740.46	250.20
740.79	249.55
741.12	249.22
741.45	248.70
741.78	248.07
742.11	247.72
742.44	247.28
742.77	246.84
743.10	246.44
743.43	246.02
743.75	245.21
744.08	245.20
744.41	244.85
744.74	244.52
745.07	244.03
745.40	243.70
745.73	243.47
746.06	243.13
746.39	242.80
746.71	242.52
747.04	242.23
747.37	241.84
747.70	241.60
748.03	241.17
748.36	240.91
748.68	240.54
749.01	240.11
749.34	239.70
749.67	239.37
750.00	239.00
750.33	238.93
750.65	238.68
750.98	237.95
751.31	237.64
751.64	237.40
751.97	237.33
752.29	236.90
752.62	236.47
752.95	236.11
753.28	235.81
753.60	235.48
753.93	235.28
754.26	235.08
754.59	234.72
754.91	234.48
755.24	234.15
755.57	233.81
755.90	233.50
756.22	233.21
756.55	232.93
756.88	232.59
757.20	232.09
757.53	231.74
757.86	231.47
758.19	231.26
758.51	230.95
758.84	230.60
759.17	230.46
759.49	230.29
759.82	230.20
760.15	230.04
760.47	229.79
760.80	229.34
761.13	229.15
761.45	228.95
761.78	228.71
762.11	228.54
762.43	228.32
762.76	228.12
763.08	227.92
763.41	227.69
763.74	227.60
764.06	227.49
764.39	227.30
764.71	227.10
765.04	226.89
765.37	226.70
765.69	226.50
766.02	226.30
766.34	226.03
766.67	225.80
767.00	225.68
767.32	225.65
767.65	225.79
767.97	225.60
768.30	225.47
768.62	225.37
768.95	225.23
769.27	225.10
769.60	225.09
769.92	224.95
770.25	224.79
770.57	224.60
770.90	224.33
771.22	224.15
771.55	223.99
771.87	223.79
772.20	223.66
772.52	223.77
772.85	224.05
773.17	224.02
773.50	223.89
773.82	223.67
774.15	223.39
774.47	223.08
774.80	222.91
775.12	222.76
775.45	222.57
775.77	222.38
776.09	222.34
776.42	222.12
776.74	222.08
777.07	221.91
777.39	221.84
777.72	221.79
778.04	221.77
778.36	221.65
778.69	221.65
779.01	221.59
779.33	221.23
779.66	220.79
779.98	220.58
780.31	220.49
780.63	220.53
780.95	220.55
781.28	220.41
781.60	220.32
781.92	220.22
782.25	220.17
782.57	220.13
782.89	219.97
783.22	219.95
783.54	219.85
783.86	219.79
784.19	219.67
784.51	219.64
784.83	219.45
785.16	219.45
785.48	219.32
785.80	219.24
786.12	219.23
786.45	219.10
786.77	219.05
787.09	218.92
787.42	218.77
787.74	218.70
788.06	218.70
788.38	218.57
788.71	218.55
789.03	218.55
789.35	218.46
789.67	218.34
789.99	218.23
790.32	218.13
790.64	218.15
790.96	218.34
791.28	218.16
791.61	218.11
791.93	218.10
792.25	218.02
792.57	218.23
792.89	218.10
793.21	218.14
793.54	218.14
793.86	218.07
794.18	218.02
794.50	217.89
794.82	217.82
795.14	217.86
795.47	217.87
795.79	217.75
796.11	217.66
796.43	217.62
796.75	217.54
797.07	217.44
797.39	217.40
797.71	217.13
798.04	217.12
798.36	217.07
798.68	217.01
799.00	216.95
799.32	216.63
799.64	216.63
799.96	216.50
800.28	216.47
800.60	216.44
800.92	216.42
801.24	216.36
801.56	216.30
801.89	216.25
802.21	216.10
802.53	216.01
802.85	216.07
803.17	216.24
803.49	216.18
803.81	216.15
804.13	216.05
804.45	215.87
804.77	215.79
805.09	215.83
805.41	215.72
805.73	215.70
806.05	215.68
806.37	215.55
806.69	215.54
807.01	215.51
807.33	215.47
807.65	215.26
807.97	215.36
808.28	215.36
808.60	215.25
808.92	215.22
809.24	215.44
809.56	215.38
809.88	215.18
810.20	215.13
810.52	215.21
810.84	215.20
811.16	215.22
811.48	215.25
811.80	215.32
812.12	215.25
812.43	215.27
812.75	215.22
813.07	215.21
813.39	215.19
813.71	215.12
814.03	215.03
814.35	215.07
814.67	214.90
814.98	214.83
815.30	214.82
815.62	214.76
815.94	214.48
816.26	214.45
816.58	214.34
816.89	214.40
817.21	214.29
817.53	214.25
817.85	214.26
818.17	214.19
818.48	214.07
818.80	214.22
819.12	214.16
819.44	214.13
819.76	214.06
820.07	214.03
820.39	213.96
820.71	214.03
821.03	214.03
821.34	213.98
821.66	213.91
821.98	213.90
822.30	213.90
822.61	214.11
822.93	214.06
823.25	214.10
823.57	214.05
823.88	214.09
824.20	214.08
824.52	214.22
824.83	214.17
825.15	214.14
825.47	213.97
825.79	213.97
826.10	213.92
826.42	213.92
826.74	213.97
827.05	213.99
827.37	213.99
827.69	213.96
828.00	214.02
828.32	214.04
828.64	214.06
828.95	214.22
829.27	214.04
829.58	214.02
829.90	214.05
830.22	213.99
830.53	213.82
830.85	213.74
831.17	213.53
831.48	213.55
831.80	213.47
832.11	213.41
832.43	213.40
832.75	213.37
833.06	213.60
833.38	213.44
833.69	213.36
834.01	213.34
834.32	213.34
834.64	213.26
834.96	213.29
835.27	213.27
835.59	213.17
835.90	213.09
836.22	213.06
836.53	212.92
836.85	212.90
837.16	213.25
837.48	213.24
837.79	213.36
838.11	213.43
838.42	213.44
838.74	213.51
839.05	213.37
839.37	213.32
839.68	213.04
840.00	212.99
840.31	213.01
840.63	212.96
840.94	212.86
841.26	212.88
841.57	212.83
841.88	212.87
842.20	212.80
842.51	212.81
842.83	212.78
843.14	213.16
843.46	213.23
843.77	213.09
844.08	213.09
844.40	212.95
844.71	212.84
845.03	212.81
845.34	212.77
845.65	212.82
845.97	212.86
846.28	212.90
846.60	213.00
846.91	212.97
847.22	212.90
847.54	212.96
847.85	212.92
848.16	212.92
848.48	212.76
848.79	212.79
849.10	212.83
849.42	212.82
849.73	212.39
850.04	212.32
850.36	212.19
850.67	212.24
850.98	212.21
851.30	212.18
851.61	212.21
851.92	212.27
852.23	212.36
852.55	212.34
852.86	212.34
853.17	212.28
853.49	212.42
853.80	212.59
854.11	212.65
854.42	212.70
854.74	212.61
855.05	212.68
855.36	212.58
855.67	212.47
855.99	212.50
856.30	212.99
856.61	212.95
856.92	212.95
857.23	212.93
857.55	212.96
857.86	213.04
858.17	213.07
858.48	212.98
858.79	212.90
859.11	213.00
859.42	212.97
859.73	212.99
860.04	212.91
860.35	212.74
860.66	212.62
860.98	212.61
861.29	212.72
861.60	212.67
861.91	212.78
862.22	212.79
862.53	212.67
862.84	212.26
863.16	212.40
863.47	212.34
863.78	212.27
864.09	212.23
864.40	212.24
864.71	212.25
865.02	212.27
865.33	212.23
865.64	212.13
865.95	212.10
866.27	212.34
866.58	212.30
866.89	212.38
867.20	212.44
867.51	212.40
867.82	212.43
868.13	212.51
868.44	212.50
868.75	212.55
869.06	212.60
869.37	212.59
869.68	212.40
869.99	212.47
870.30	212.48
870.61	212.62
870.92	212.52
871.23	212.51
871.54	212.56
871.85	212.67
872.16	212.71
872.47	212.70
872.78	212.43
873.09	212.53
873.40	212.47
873.71	212.41
874.02	212.44
874.33	212.33
874.64	212.27
874.95	212.29
875.26	212.25
875.56	212.23
875.87	212.22
876.18	212.29
876.49	212.55
876.80	212.57
877.11	212.48
877.42	212.53
877.73	212.48
878.04	212.41
878.35	212.43
878.66	212.39
878.96	212.36
879.27	212.40
879.58	212.32
879.89	212.24
880.20	212.34
880.51	212.29
880.82	212.28
881.12	212.28
881.43	212.14
881.74	212.10
882.05	212.16
882.36	212.25
882.67	212.24
882.97	211.96
883.28	211.97
883.59	211.93
883.90	211.96
884.21	212.02
884.51	212.02
884.82	211.90
885.13	211.90
885.44	211.98
885.74	211.99
886.05	211.99
886.36	212.03
886.67	211.92
886.98	212.05
887.28	212.12
887.59	212.08
887.90	212.14
888.20	212.15
888.51	212.23
888.82	212.23
889.13	212.29
889.43	212.51
889.74	212.47
890.05	212.51
890.35	212.45
890.66	212.40
890.97	212.34
891.28	212.35
891.58	212.32
891.89	212.32
892.20	212.31
892.50	212.24
892.81	212.24
893.12	212.25
893.42	212.10
893.73	212.13
894.04	212.15
894.34	212.13
894.65	212.15
894.95	212.04
895.26	212.01
895.57	212.12
895.87	211.87
896.18	211.94
896.48	211.91
896.79	211.95
897.10	211.96
897.40	212.01
897.71	212.08
898.01	212.06
898.32	212.05
898.63	212.07
898.93	212.14
899.24	212.11
899.54	212.05
899.85	212.05
900.15	212.00
900.46	212.03
900.76	212.11
901.07	212.12
901.38	212.14
901.68	212.18
901.99	212.00
902.29	212.02
902.60	212.01
902.90	212.00
903.21	211.98
903.51	211.97
903.82	212.08
904.12	212.08
904.43	212.15
904.73	212.11
905.03	212.06
905.34	212.37
905.64	212.37
905.95	212.40
906.25	212.40
906.56	212.40
906.86	212.41
907.17	212.31
907.47	212.31
907.77	212.27
908.08	212.13
908.38	212.18
908.69	212.16
908.99	212.20
909.30	212.23
909.60	212.23
909.90	212.28
910.21	212.19
910.51	212.04
910.81	212.00
911.12	212.01
911.42	212.06
911.73	211.73
912.03	211.73
912.33	211.80
912.64	211.80
912.94	211.72
913.24	211.65
913.55	211.71
913.85	211.73
914.15	211.81
914.46	211.93
914.76	211.90
915.06	211.89
915.37	211.76
915.67	211.70
915.97	211.67
916.27	211.54
916.58	211.49
916.88	211.53
917.18	211.51
917.49	211.81
917.79	211.79
918.09	211.79
918.39	211.88
918.70	211.93
919.00	211.93
919.30	212.12
919.60	212.10
919.91	212.04
920.21	212.00
920.51	211.93
920.81	211.90
921.12	212.00
921.42	212.02
921.72	212.08
922.02	212.08
922.32	212.18
922.63	212.18
922.93	212.37
923.23	212.40
923.53	212.36
923.83	212.11
924.13	212.10
924.44	212.16
924.74	212.22
925.04	212.27
925.34	212.30
925.64	212.19
925.94	212.19
926.24	212.40
926.55	212.40
926.85	212.44
927.15	212.43
927.45	212.46
927.75	212.40
928.05	212.41
928.35	212.43
928.65	212.50
928.95	212.57
929.26	212.43
929.56	212.59
929.86	212.66
930.16	212.59
930.46	212.56
930.76	212.49
931.06	212.39
931.36	212.30
931.66	212.32
931.96	212.34
932.26	212.38
932.56	212.15
932.86	212.15
933.16	212.13
933.46	212.13
933.76	211.94
934.06	212.11
934.36	212.20
934.66	212.19
934.96	212.15
935.26	212.13
935.56	212.20
935.86	212.07
936.16	212.04
936.46	211.98
936.76	211.94
937.06	211.95
937.36	211.96
937.66	211.97
937.96	211.90
938.26	211.82
938.56	211.82
938.86	211.88
939.16	211.94
939.46	212.00
939.76	211.99
940.06	212.00
940.35	211.85
940.65	211.66
940.95	211.68
941.25	211.56
941.55	211.54
941.85	211.39
942.15	211.47
942.45	211.52
942.75	211.61
943.04	211.61
943.34	211.60
943.64	211.56
943.94	211.47
944.24	211.45
944.54	211.49
944.84	211.47
945.13	211.40
945.43	211.31
945.73	211.23
946.03	211.15
946.33	211.17
946.62	211.11
946.92	211.15
947.22	211.16
947.52	211.12
947.82	211.14
948.11	211.11
948.41	210.99
948.71	210.95
949.01	210.92
949.31	210.92
949.60	210.89
949.90	211.05
950.20	211.01
950.50	211.06
950.79	211.05
951.09	211.03
951.39	211.07
951.69	211.05
951.98	211.17
952.28	211.23
952.58	211.19
952.87	211.25
953.17	211.31
953.47	211.24
953.76	211.30
954.06	211.20
954.36	211.28
954.66	211.25
954.95	211.29
955.25	211.33
955.55	211.38
955.84	211.34
956.14	211.26
956.44	211.27
956.73	211.19
957.03	211.19
957.32	211.19
957.62	211.18
957.92	211.22
958.21	211.13
958.51	211.45
958.81	211.48
959.10	211.48
959.40	211.54
959.69	211.53
959.99	211.51
960.29	211.59
960.58	211.48
960.88	211.62
961.17	211.63
961.47	211.71
961.76	211.68
962.06	211.79
962.36	211.65
962.65	211.71
962.95	211.78
963.24	211.71
963.54	211.69
963.83	211.69
964.13	211.72
964.42	211.56
964.72	211.32
965.01	211.37
965.31	211.34
965.60	211.30
965.90	211.59
966.19	211.55
966.49	211.58
966.78	211.60
967.08	211.64
967.37	211.63
967.67	211.44
967.96	211.51
968.26	211.46
968.55	211.56
968.85	211.56
969.14	211.55
969.43	211.57
969.73	211.62
970.02	211.60
970.32	211.50
970.61	211.57
970.91	211.44
971.20	211.34
971.49	211.30
971.79	211.28
972.08	211.04
972.38	211.13
972.67	211.10
972.96	211.18
973.26	211.09
973.55	211.20
973.85	211.27
974.14	211.20
974.43	211.17
974.73	211.08
975.02	210.98
975.31	211.01
975.61	211.05
975.90	211.04
976.19	211.00
976.49	211.09
976.78	211.11
977.07	211.20
977.37	211.26
977.66	211.29
977.95	211.28
978.24	211.30
978.54	211.34
978.83	211.24
979.12	211.20
979.42	211.17
979.71	211.09
980.00	211.06
980.29	211.06
980.59	211.05
980.88	211.23
981.17	211.30
981.46	211.24
981.76	211.26
982.05	211.33
982.34	211.33
982.63	211.31
982.93	211.26
983.22	211.31
983.51	211.31
983.80	211.40
984.09	211.38
984.39	211.34
984.68	211.23
984.97	211.33
985.26	211.24
985.55	211.25
985.85	211.19
986.14	211.24
986.43	211.26
986.72	211.23
987.01	211.15
987.30	211.09
987.59	211.08
987.89	211.07
988.18	210.94
988.47	210.99
988.76	210.95
989.05	211.00
989.34	210.93
989.63	211.02
989.92	210.92
990.22	210.96
990.51	210.99
990.80	211.00
991.09	211.10
991.38	211.20
991.67	211.22
991.96	211.18
992.25	211.20
992.54	211.22
992.83	211.24
993.12	211.15
993.41	211.33
993.70	211.50
993.99	211.58
994.28	211.68
994.58	211.69
994.87	211.69
995.16	211.66
995.45	211.65
995.74	211.62
996.03	211.72
996.32	211.70
996.61	211.75
996.90	211.80
997.19	211.76
997.48	211.83
997.77	211.82
998.06	211.89
998.34	211.83
998.63	211.85
998.92	211.91
999.21	211.99
999.50	211.95
999.79	211.84
1000.08	211.80
1000.37	211.77
1000.66	211.77
1000.95	211.84
1001.24	211.94
1001.53	211.96
1001.82	211.93
1002.11	211.85
1002.40	211.88
1002.68	211.92
1002.97	212.15
1003.26	212.15
1003.55	212.04
1003.84	212.02
1004.13	212.12
1004.42	212.10
1004.71	212.02
1004.99	211.91
1005.28	212.05
1005.57	211.98
1005.86	211.93
1006.15	211.91
1006.44	211.88
1006.72	211.92
1007.01	211.85
1007.30	211.83
1007.59	211.89
1007.88	211.84
1008.17	211.91
1008.45	211.83
1008.74	211.65
1009.03	211.49
1009.32	211.49
1009.60	211.44
1009.89	211.40
1010.18	211.27
1010.47	211.30
1010.76	211.29
1011.04	211.37
1011.33	211.28
1011.62	211.33
1011.91	211.38
1012.19	211.44
1012.48	211.49
1012.77	211.47
1013.05	211.64
1013.34	211.65
1013.63	211.55
1013.92	211.55
1014.20	211.46
1014.49	211.53
1014.78	211.63
1015.06	211.47
1015.35	211.39
1015.64	211.53
1015.92	211.60
1016.21	211.63
1016.50	211.63
1016.78	211.73
1017.07	211.69
1017.36	211.60
1017.64	211.56
1017.93	211.54
1018.22	211.40
1018.50	211.33
1018.79	211.29
1019.08	211.19
1019.36	211.11
1019.65	211.05
1019.93	211.20
1020.22	211.26
1020.51	211.38
1020.79	211.37
1021.08	209.85
1021.36	210.80
1021.65	210.60
1021.94	212.00
1022.22	210.40
1022.51	209.90
1022.79	213.80
1023.08	211.60
1023.36	214.75
1023.65	211.60
>>>>>End Processed Spectral Data<<<<<
