SpectraSuite Data File
++++++++++++++++++++++++++++++++++++
Date: Mon Feb 25 17:16:04 EST 2013
User: group
Dark Spectrum Present: No
Reference Spectrum Present: No
Number of Sampled Component Spectra: 1
Spectrometers: USB2E7196
Integration Time (usec): 104000 (USB2E7196)
Spectra Averaged: 20 (USB2E7196)
Boxcar Smoothing: 10 (USB2E7196)
Correct for Electrical Dark: No (USB2E7196)
Strobe/Lamp Enabled: No (USB2E7196)
Correct for Detector Non-linearity: No (USB2E7196)
Correct for Stray Light: No (USB2E7196)
Number of Pixels in Processed Spectrum: 2048
>>>>>Begin Processed Spectral Data<<<<<
339.09	0.00
339.48	198.60
339.86	200.50
340.24	201.10
340.63	202.80
341.01	209.65
341.39	206.05
341.78	208.10
342.16	209.95
342.54	209.05
342.93	198.46
343.31	208.41
343.69	208.90
344.07	209.33
344.46	209.74
344.84	210.15
345.22	210.20
345.60	210.38
345.99	210.50
346.37	210.63
346.75	210.70
347.13	210.75
347.52	210.83
347.90	210.94
348.28	210.96
348.66	211.02
349.05	210.91
349.43	211.10
349.81	211.10
350.19	211.20
350.57	211.19
350.96	211.33
351.34	211.45
351.72	211.62
352.10	211.75
352.48	211.85
352.87	211.84
353.25	211.93
353.63	212.04
354.01	212.18
354.39	212.21
354.77	212.35
355.15	212.55
355.54	212.60
355.92	212.55
356.30	212.58
356.68	212.90
357.06	213.01
357.44	212.89
357.82	213.03
358.20	213.07
358.58	213.18
358.97	213.29
359.35	213.45
359.73	213.57
360.11	213.67
360.49	213.77
360.87	213.90
361.25	213.95
361.63	214.15
362.01	214.25
362.39	214.22
362.77	214.26
363.15	214.19
363.53	214.21
363.91	214.33
364.29	214.33
364.67	213.98
365.05	214.05
365.43	214.21
365.81	214.28
366.19	214.49
366.57	214.65
366.95	214.68
367.33	214.63
367.71	214.60
368.09	214.61
368.47	214.66
368.85	214.63
369.23	214.71
369.61	214.55
369.99	214.57
370.37	214.61
370.75	214.76
371.13	214.67
371.51	214.55
371.89	214.54
372.27	214.53
372.65	214.58
373.03	214.56
373.41	214.48
373.78	214.40
374.16	214.18
374.54	214.00
374.92	213.90
375.30	213.83
375.68	213.63
376.06	213.65
376.44	213.50
376.82	213.42
377.19	213.39
377.57	213.35
377.95	213.13
378.33	213.10
378.71	212.85
379.09	212.91
379.47	213.03
379.84	212.95
380.22	212.89
380.60	212.76
380.98	212.67
381.36	212.64
381.73	212.47
382.11	212.49
382.49	212.54
382.87	212.41
383.25	212.35
383.62	212.74
384.00	212.60
384.38	212.58
384.76	212.66
385.13	212.73
385.51	212.68
385.89	212.66
386.27	212.69
386.64	212.66
387.02	212.54
387.40	212.43
387.78	212.43
388.15	212.39
388.53	212.39
388.91	212.33
389.29	212.27
389.66	212.37
390.04	212.22
390.42	212.12
390.79	212.13
391.17	212.18
391.55	211.88
391.92	211.86
392.30	211.92
392.68	211.82
393.05	211.77
393.43	211.73
393.81	211.81
394.18	211.74
394.56	211.76
394.94	211.95
395.31	211.93
395.69	212.04
396.06	212.10
396.44	212.17
396.82	212.18
397.19	212.33
397.57	212.30
397.95	212.41
398.32	212.36
398.70	212.38
399.07	212.42
399.45	212.40
399.82	212.42
400.20	212.45
400.58	212.45
400.95	212.30
401.33	212.48
401.70	212.68
402.08	212.69
402.45	212.83
402.83	212.87
403.20	213.00
403.58	213.05
403.95	213.15
404.33	213.28
404.71	213.41
405.08	213.69
405.46	213.82
405.83	214.00
406.21	214.19
406.58	214.32
406.96	214.46
407.33	214.66
407.70	214.86
408.08	215.30
408.45	215.56
408.83	215.80
409.20	215.98
409.58	216.03
409.95	216.38
410.33	216.55
410.70	216.76
411.08	217.05
411.45	217.38
411.82	217.64
412.20	218.04
412.57	218.62
412.95	218.79
413.32	219.36
413.69	219.82
414.07	220.35
414.44	220.97
414.82	221.59
415.19	222.33
415.56	223.01
415.94	223.55
416.31	224.45
416.68	225.31
417.06	226.26
417.43	227.29
417.81	228.32
418.18	229.43
418.55	230.54
418.93	231.84
419.30	233.05
419.67	234.39
420.04	235.69
420.42	237.00
420.79	238.84
421.16	240.36
421.54	242.15
421.91	243.87
422.28	245.64
422.66	247.51
423.03	249.57
423.40	251.55
423.77	253.55
424.15	255.59
424.52	257.78
424.89	260.28
425.26	262.54
425.64	264.81
426.01	267.17
426.38	269.74
426.75	272.37
427.13	274.97
427.50	277.80
427.87	280.70
428.24	283.58
428.61	286.21
428.99	289.37
429.36	292.56
429.73	295.85
430.10	299.20
430.47	302.59
430.85	305.75
431.22	309.29
431.59	313.38
431.96	317.16
432.33	321.20
432.70	325.15
433.08	329.79
433.45	334.04
433.82	338.31
434.19	343.16
434.56	347.79
434.93	352.27
435.30	356.73
435.68	361.69
436.05	366.53
436.42	371.33
436.79	375.72
437.16	380.40
437.53	385.45
437.90	390.30
438.27	395.16
438.64	400.21
439.01	405.04
439.38	408.93
439.75	412.88
440.13	417.40
440.50	421.64
440.87	425.15
441.24	428.82
441.61	432.86
441.98	435.72
442.35	439.04
442.72	442.56
443.09	446.05
443.46	448.05
443.83	449.42
444.20	450.49
444.57	452.15
444.94	452.95
445.31	453.72
445.68	454.87
446.05	455.03
446.42	454.51
446.79	453.87
447.16	453.23
447.53	452.63
447.90	450.72
448.27	448.71
448.64	446.00
449.01	443.98
449.37	440.68
449.74	437.40
450.11	433.82
450.48	429.56
450.85	425.11
451.22	421.36
451.59	417.89
451.96	414.57
452.33	410.10
452.70	406.06
453.07	401.20
453.43	395.93
453.80	391.33
454.17	386.81
454.54	382.50
454.91	377.96
455.28	373.48
455.65	369.38
456.02	365.75
456.38	362.20
456.75	357.92
457.12	354.30
457.49	350.70
457.86	346.89
458.23	343.93
458.59	340.66
458.96	337.39
459.33	334.36
459.70	331.42
460.07	329.09
460.43	326.45
460.80	323.99
461.17	321.81
461.54	319.55
461.91	317.35
462.27	315.13
462.64	313.23
463.01	311.27
463.38	309.38
463.74	306.85
464.11	305.00
464.48	303.53
464.85	301.75
465.21	300.57
465.58	299.28
465.95	297.60
466.32	296.28
466.68	294.92
467.05	293.61
467.42	292.32
467.78	290.93
468.15	289.58
468.52	288.65
468.88	287.31
469.25	286.20
469.62	285.45
469.98	284.54
470.35	283.66
470.72	282.84
471.08	281.91
471.45	281.23
471.82	280.71
472.18	279.90
472.55	279.41
472.92	278.66
473.28	278.10
473.65	277.53
474.02	277.07
474.38	276.71
474.75	276.42
475.11	276.06
475.48	275.82
475.85	275.64
476.21	275.45
476.58	275.46
476.94	275.41
477.31	275.39
477.67	275.32
478.04	275.35
478.41	275.44
478.77	275.83
479.14	275.95
479.50	276.20
479.87	276.44
480.23	276.80
480.60	277.08
480.96	277.45
481.33	278.13
481.69	278.58
482.06	279.11
482.42	279.68
482.79	280.31
483.15	281.10
483.52	282.03
483.88	282.76
484.25	283.60
484.61	284.50
484.98	285.39
485.34	286.59
485.71	287.81
486.07	289.13
486.44	290.14
486.80	291.51
487.17	292.84
487.53	294.58
487.90	296.27
488.26	298.32
488.62	300.41
488.99	302.34
489.35	304.50
489.72	306.78
490.08	309.10
490.44	311.55
490.81	314.16
491.17	316.82
491.54	319.79
491.90	322.86
492.26	326.03
492.63	329.36
492.99	332.76
493.36	336.41
493.72	340.25
494.08	344.27
494.45	348.53
494.81	352.98
495.17	357.37
495.54	362.30
495.90	367.06
496.26	372.06
496.63	377.44
496.99	382.95
497.35	388.78
497.72	394.93
498.08	401.24
498.44	407.76
498.80	414.70
499.17	421.78
499.53	429.14
499.89	436.77
500.26	444.70
500.62	452.85
500.98	461.29
501.34	470.03
501.71	479.00
502.07	488.29
502.43	497.68
502.79	507.47
503.16	517.49
503.52	527.92
503.88	538.55
504.24	549.62
504.60	560.85
504.97	572.59
505.33	584.46
505.69	596.99
506.05	609.76
506.41	622.58
506.78	635.63
507.14	648.89
507.50	662.62
507.86	676.51
508.22	690.87
508.59	705.45
508.95	720.48
509.31	735.81
509.67	751.41
510.03	767.39
510.39	783.81
510.75	800.27
511.12	817.18
511.48	834.26
511.84	851.75
512.20	869.31
512.56	887.26
512.92	905.47
513.28	923.79
513.64	942.37
514.00	961.15
514.37	980.17
514.73	999.79
515.09	1019.26
515.45	1038.77
515.81	1058.53
516.17	1078.20
516.53	1098.10
516.89	1118.02
517.25	1137.93
517.61	1158.15
517.97	1178.34
518.33	1198.62
518.69	1218.97
519.05	1239.76
519.41	1260.20
519.77	1281.38
520.13	1301.79
520.49	1321.94
520.85	1342.70
521.21	1363.32
521.57	1384.10
521.93	1404.37
522.29	1425.26
522.65	1446.13
523.01	1466.79
523.37	1486.80
523.73	1507.45
524.09	1527.69
524.45	1548.48
524.81	1569.29
525.17	1589.91
525.53	1610.19
525.89	1630.65
526.25	1650.59
526.61	1670.00
526.97	1689.67
527.33	1708.84
527.68	1728.70
528.04	1747.90
528.40	1766.20
528.76	1784.96
529.12	1804.29
529.48	1823.81
529.84	1842.17
530.20	1860.59
530.56	1879.36
530.91	1898.59
531.27	1917.14
531.63	1935.40
531.99	1953.21
532.35	1970.16
532.71	1987.33
533.07	2004.99
533.42	2021.80
533.78	2038.81
534.14	2055.53
534.50	2070.87
534.86	2087.15
535.21	2101.85
535.57	2118.01
535.93	2133.36
536.29	2148.03
536.65	2162.37
537.00	2176.00
537.36	2189.35
537.72	2202.46
538.08	2215.38
538.44	2227.99
538.79	2241.02
539.15	2253.25
539.51	2265.39
539.87	2278.77
540.22	2290.80
540.58	2303.08
540.94	2314.92
541.29	2325.37
541.65	2335.60
542.01	2346.40
542.37	2355.95
542.72	2366.40
543.08	2375.53
543.44	2385.62
543.79	2394.50
544.15	2402.79
544.51	2411.67
544.87	2420.51
545.22	2428.23
545.58	2435.51
545.94	2441.95
546.29	2447.47
546.65	2453.28
547.01	2458.76
547.36	2463.58
547.72	2468.61
548.07	2472.40
548.43	2475.88
548.79	2479.70
549.14	2483.18
549.50	2486.97
549.86	2490.02
550.21	2492.54
550.57	2495.42
550.92	2496.52
551.28	2498.38
551.64	2500.11
551.99	2502.24
552.35	2503.36
552.70	2504.41
553.06	2505.70
553.41	2506.68
553.77	2507.65
554.13	2508.61
554.48	2509.49
554.84	2509.95
555.19	2509.54
555.55	2508.70
555.90	2507.66
556.26	2506.78
556.61	2505.74
556.97	2503.81
557.32	2502.94
557.68	2501.13
558.03	2498.69
558.39	2497.49
558.74	2496.44
559.10	2494.47
559.45	2491.95
559.81	2489.94
560.16	2487.53
560.52	2485.42
560.87	2483.02
561.23	2479.70
561.58	2477.20
561.94	2473.49
562.29	2469.57
562.64	2466.59
563.00	2463.85
563.35	2461.20
563.71	2459.07
564.06	2456.33
564.42	2454.07
564.77	2451.34
565.12	2448.85
565.48	2446.44
565.83	2443.25
566.19	2440.10
566.54	2436.23
566.89	2432.10
567.25	2428.45
567.60	2424.99
567.96	2420.47
568.31	2416.58
568.66	2412.28
569.02	2407.00
569.37	2401.88
569.72	2397.36
570.08	2392.20
570.43	2386.49
570.78	2381.43
571.14	2374.92
571.49	2368.95
571.84	2363.45
572.20	2356.51
572.55	2350.34
572.90	2343.51
573.26	2336.50
573.61	2329.36
573.96	2322.70
574.31	2315.05
574.67	2307.20
575.02	2299.01
575.37	2291.24
575.72	2282.96
576.08	2276.34
576.43	2268.44
576.78	2261.17
577.13	2253.53
577.49	2246.25
577.84	2239.01
578.19	2231.47
578.54	2225.08
578.90	2218.71
579.25	2210.67
579.60	2202.90
579.95	2194.60
580.30	2187.23
580.66	2180.74
581.01	2172.97
581.36	2165.16
581.71	2158.00
582.06	2150.58
582.42	2143.59
582.77	2135.80
583.12	2128.05
583.47	2120.29
583.82	2113.55
584.17	2106.14
584.53	2099.06
584.88	2091.29
585.23	2083.58
585.58	2075.68
585.93	2067.47
586.28	2059.82
586.63	2052.28
586.98	2045.26
587.34	2038.64
587.69	2031.02
588.04	2023.11
588.39	2015.77
588.74	2008.00
589.09	2000.85
589.44	1993.23
589.79	1986.43
590.14	1979.49
590.49	1972.43
590.84	1964.77
591.19	1958.11
591.54	1950.76
591.89	1942.40
592.25	1934.84
592.60	1927.16
592.95	1919.60
593.30	1911.23
593.65	1902.54
594.00	1894.61
594.35	1888.11
594.70	1879.97
595.05	1872.79
595.40	1865.21
595.75	1857.19
596.10	1850.21
596.45	1843.29
596.80	1836.50
597.15	1829.05
597.50	1821.72
597.85	1814.75
598.19	1807.66
598.54	1799.84
598.89	1793.05
599.24	1786.94
599.59	1780.39
599.94	1774.55
600.29	1768.10
600.64	1761.90
600.99	1755.18
601.34	1749.15
601.69	1741.02
602.04	1734.11
602.39	1727.15
602.74	1720.50
603.08	1714.66
603.43	1708.75
603.78	1701.65
604.13	1694.81
604.48	1688.21
604.83	1682.63
605.18	1676.99
605.53	1670.73
605.87	1663.95
606.22	1657.77
606.57	1650.99
606.92	1644.27
607.27	1637.06
607.62	1630.16
607.96	1624.09
608.31	1618.47
608.66	1611.20
609.01	1604.23
609.36	1597.58
609.70	1590.21
610.05	1582.87
610.40	1575.64
610.75	1567.96
611.10	1561.37
611.44	1553.46
611.79	1545.66
612.14	1537.16
612.49	1528.30
612.83	1520.53
613.18	1512.51
613.53	1504.17
613.88	1495.70
614.22	1487.98
614.57	1479.56
614.92	1471.55
615.27	1463.11
615.61	1454.78
615.96	1447.31
616.31	1440.44
616.65	1433.25
617.00	1426.36
617.35	1418.93
617.70	1410.80
618.04	1402.56
618.39	1393.91
618.74	1386.60
619.08	1378.89
619.43	1371.25
619.78	1364.39
620.12	1356.89
620.47	1350.08
620.82	1342.16
621.16	1334.69
621.51	1326.85
621.85	1319.93
622.20	1312.37
622.55	1304.90
622.89	1297.30
623.24	1289.45
623.59	1281.32
623.93	1273.60
624.28	1265.89
624.62	1258.58
624.97	1251.55
625.32	1245.03
625.66	1238.26
626.01	1231.43
626.35	1224.58
626.70	1217.68
627.04	1210.77
627.39	1204.01
627.73	1196.79
628.08	1190.79
628.43	1183.74
628.77	1176.94
629.12	1169.66
629.46	1163.57
629.81	1156.96
630.15	1150.51
630.50	1143.94
630.84	1137.11
631.19	1130.46
631.53	1124.14
631.88	1117.17
632.22	1110.18
632.57	1103.33
632.91	1096.64
633.26	1089.64
633.60	1083.15
633.95	1077.18
634.29	1070.40
634.64	1064.02
634.98	1057.55
635.32	1051.12
635.67	1045.32
636.01	1039.13
636.36	1032.90
636.70	1026.65
637.05	1020.55
637.39	1014.47
637.73	1008.92
638.08	1003.75
638.42	998.01
638.77	991.98
639.11	986.28
639.45	980.70
639.80	974.56
640.14	968.36
640.49	962.67
640.83	956.63
641.17	950.34
641.52	944.70
641.86	938.46
642.20	932.61
642.55	926.28
642.89	920.18
643.23	914.18
643.58	908.94
643.92	902.65
644.26	896.90
644.61	890.92
644.95	884.78
645.29	878.70
645.64	872.71
645.98	867.07
646.32	861.47
646.66	855.56
647.01	850.04
647.35	844.96
647.69	839.05
648.04	833.46
648.38	828.07
648.72	822.21
649.06	816.62
649.41	811.01
649.75	805.60
650.09	800.32
650.43	794.98
650.78	789.06
651.12	783.59
651.46	778.06
651.80	772.97
652.14	767.64
652.49	762.24
652.83	756.83
653.17	750.99
653.51	745.22
653.85	740.09
654.20	734.83
654.54	729.31
654.88	724.19
655.22	719.07
655.56	713.59
655.90	708.50
656.25	703.40
656.59	698.50
656.93	693.62
657.27	688.68
657.61	683.49
657.95	678.70
658.29	674.07
658.64	669.55
658.98	664.47
659.32	659.54
659.66	654.84
660.00	650.23
660.34	645.58
660.68	641.11
661.02	636.48
661.36	632.02
661.70	627.65
662.05	623.45
662.39	619.32
662.73	615.17
663.07	611.17
663.41	607.16
663.75	602.90
664.09	598.67
664.43	594.35
664.77	590.34
665.11	586.47
665.45	582.44
665.79	578.38
666.13	574.43
666.47	570.69
666.81	566.89
667.15	562.93
667.49	559.51
667.83	555.95
668.17	552.38
668.51	548.91
668.85	545.54
669.19	542.22
669.53	538.50
669.87	535.08
670.21	531.55
670.55	528.06
670.89	524.99
671.23	521.83
671.57	518.71
671.91	515.53
672.25	512.14
672.58	508.93
672.92	505.64
673.26	502.65
673.60	499.73
673.94	496.75
674.28	493.94
674.62	491.08
674.96	488.34
675.30	485.52
675.64	482.60
675.97	479.59
676.31	476.77
676.65	474.15
676.99	471.56
677.33	468.84
677.67	466.04
678.01	463.17
678.34	460.54
678.68	457.98
679.02	455.29
679.36	452.74
679.70	450.15
680.04	447.60
680.37	445.02
680.71	442.39
681.05	439.96
681.39	437.50
681.73	434.96
682.06	432.57
682.40	430.26
682.74	428.09
683.08	425.89
683.42	423.40
683.75	421.02
684.09	418.66
684.43	416.39
684.77	414.26
685.10	411.91
685.44	409.54
685.78	407.29
686.12	405.25
686.45	403.06
686.79	400.95
687.13	398.87
687.46	396.83
687.80	394.89
688.14	392.63
688.48	390.64
688.81	388.52
689.15	386.37
689.49	384.15
689.82	381.97
690.16	379.65
690.50	377.57
690.83	375.62
691.17	373.46
691.51	371.43
691.84	369.49
692.18	367.80
692.52	366.00
692.85	364.34
693.19	362.66
693.52	360.87
693.86	359.07
694.20	357.36
694.53	355.62
694.87	353.70
695.21	352.05
695.54	350.24
695.88	348.45
696.21	346.73
696.55	345.20
696.88	343.56
697.22	342.05
697.56	340.57
697.89	339.07
698.23	337.67
698.56	336.21
698.90	334.78
699.23	333.22
699.57	331.74
699.90	330.04
700.24	328.51
700.58	327.05
700.91	325.73
701.25	324.60
701.58	323.30
701.92	322.09
702.25	320.72
702.59	319.37
702.92	318.08
703.26	316.77
703.59	315.40
703.93	314.49
704.26	313.32
704.60	312.11
704.93	310.81
705.26	309.45
705.60	308.33
705.93	307.00
706.27	305.91
706.60	304.89
706.94	304.03
707.27	302.80
707.61	301.78
707.94	300.64
708.27	299.25
708.61	298.12
708.94	297.03
709.28	295.98
709.61	294.98
709.94	294.06
710.28	293.10
710.61	292.17
710.95	290.86
711.28	290.09
711.61	289.15
711.95	288.21
712.28	287.37
712.61	286.44
712.95	285.80
713.28	285.04
713.61	284.15
713.95	283.13
714.28	282.41
714.61	281.58
714.95	280.78
715.28	280.06
715.61	279.19
715.95	278.35
716.28	277.60
716.61	276.90
716.95	276.11
717.28	275.38
717.61	274.63
717.94	273.96
718.28	272.98
718.61	272.30
718.94	271.63
719.27	271.01
719.61	270.36
719.94	269.54
720.27	268.74
720.60	267.94
720.94	267.21
721.27	266.56
721.60	265.94
721.93	265.33
722.27	264.78
722.60	264.25
722.93	263.68
723.26	263.14
723.59	262.57
723.93	262.09
724.26	261.60
724.59	261.08
724.92	260.55
725.25	260.13
725.59	259.54
725.92	259.05
726.25	258.50
726.58	257.94
726.91	257.54
727.24	257.06
727.57	256.58
727.91	256.01
728.24	255.53
728.57	255.01
728.90	254.56
729.23	253.92
729.56	253.58
729.89	253.09
730.22	252.57
730.55	252.01
730.89	251.54
731.22	251.04
731.55	250.54
731.88	250.13
732.21	249.64
732.54	249.23
732.87	248.78
733.20	248.30
733.53	247.92
733.86	247.48
734.19	247.03
734.52	246.74
734.85	246.77
735.18	246.39
735.51	246.16
735.84	245.83
736.17	245.62
736.50	245.08
736.83	245.19
737.16	244.79
737.49	244.53
737.82	244.10
738.15	243.79
738.48	243.47
738.81	243.09
739.14	242.64
739.47	242.23
739.80	241.89
740.13	241.60
740.46	241.23
740.79	240.87
741.12	240.53
741.45	240.09
741.78	239.53
742.11	239.29
742.44	238.87
742.77	238.57
743.10	238.21
743.43	237.86
743.75	237.09
744.08	237.25
744.41	236.89
744.74	236.64
745.07	236.29
745.40	236.09
745.73	235.91
746.06	235.79
746.39	235.50
746.71	235.25
747.04	234.99
747.37	234.68
747.70	234.46
748.03	234.23
748.36	234.03
748.68	233.75
749.01	233.34
749.34	233.01
749.67	232.78
750.00	232.57
750.33	232.69
750.65	232.50
750.98	231.88
751.31	231.70
751.64	231.41
751.97	231.41
752.29	231.14
752.62	230.73
752.95	230.42
753.28	230.25
753.60	230.04
753.93	229.85
754.26	229.67
754.59	229.40
754.91	229.14
755.24	228.91
755.57	228.67
755.90	228.53
756.22	228.34
756.55	228.13
756.88	227.89
757.20	227.38
757.53	227.05
757.86	226.77
758.19	226.59
758.51	226.46
758.84	226.07
759.17	225.88
759.49	225.77
759.82	225.75
760.15	225.52
760.47	225.35
760.80	225.07
761.13	224.93
761.45	224.76
761.78	224.62
762.11	224.47
762.43	224.38
762.76	224.17
763.08	224.13
763.41	223.92
763.74	223.80
764.06	223.67
764.39	223.60
764.71	223.49
765.04	223.26
765.37	223.08
765.69	222.93
766.02	222.75
766.34	222.60
766.67	222.31
767.00	222.28
767.32	222.36
767.65	222.49
767.97	222.41
768.30	222.28
768.62	222.22
768.95	222.03
769.27	221.93
769.60	221.84
769.92	221.64
770.25	221.50
770.57	221.34
770.90	221.28
771.22	221.12
771.55	221.04
771.87	221.00
772.20	220.86
772.52	221.01
772.85	221.35
773.17	221.23
773.50	221.10
773.82	220.91
774.15	220.58
774.47	220.28
774.80	220.17
775.12	220.02
775.45	219.92
775.77	219.93
776.09	219.80
776.42	219.76
776.74	219.82
777.07	219.76
777.39	219.69
777.72	219.50
778.04	219.50
778.36	219.35
778.69	219.25
779.01	219.28
779.33	218.92
779.66	218.44
779.98	218.27
780.31	218.28
780.63	218.41
780.95	218.45
781.28	218.32
781.60	218.14
781.92	218.10
782.25	217.99
782.57	217.90
782.89	217.81
783.22	217.72
783.54	217.53
783.86	217.43
784.19	217.35
784.51	217.41
784.83	217.22
785.16	217.21
785.48	217.20
785.80	217.09
786.12	217.06
786.45	216.97
786.77	216.98
787.09	216.89
787.42	216.68
787.74	216.67
788.06	216.67
788.38	216.61
788.71	216.57
789.03	216.50
789.35	216.54
789.67	216.44
789.99	216.40
790.32	216.23
790.64	216.23
790.96	216.40
791.28	216.25
791.61	216.29
791.93	216.27
792.25	216.12
792.57	216.30
792.89	216.19
793.21	216.18
793.54	216.06
793.86	215.98
794.18	215.96
794.50	215.75
794.82	215.71
795.14	215.74
795.47	215.74
795.79	215.75
796.11	215.60
796.43	215.47
796.75	215.41
797.07	215.45
797.39	215.43
797.71	215.17
798.04	215.15
798.36	215.10
798.68	214.97
799.00	215.02
799.32	214.84
799.64	214.91
799.96	214.87
800.28	214.98
800.60	214.97
800.92	215.00
801.24	214.95
801.56	215.02
801.89	214.95
802.21	214.88
802.53	214.74
802.85	214.75
803.17	214.97
803.49	214.90
803.81	214.84
804.13	214.79
804.45	214.75
804.77	214.80
805.09	214.74
805.41	214.70
805.73	214.62
806.05	214.48
806.37	214.43
806.69	214.42
807.01	214.36
807.33	214.36
807.65	214.19
807.97	214.39
808.28	214.21
808.60	214.19
808.92	214.16
809.24	214.37
809.56	214.31
809.88	214.09
810.20	214.12
810.52	214.21
810.84	214.14
811.16	214.08
811.48	213.95
811.80	214.06
812.12	214.00
812.43	214.03
812.75	214.03
813.07	213.95
813.39	213.97
813.71	213.86
814.03	213.77
814.35	213.75
814.67	213.54
814.98	213.54
815.30	213.48
815.62	213.38
815.94	213.18
816.26	213.20
816.58	213.21
816.89	213.14
817.21	213.05
817.53	212.99
817.85	212.99
818.17	213.00
818.48	212.85
818.80	212.96
819.12	212.88
819.44	212.86
819.76	212.84
820.07	212.77
820.39	212.86
820.71	212.90
821.03	212.89
821.34	212.83
821.66	212.93
821.98	212.99
822.30	213.01
822.61	213.17
822.93	213.10
823.25	213.11
823.57	213.07
823.88	213.17
824.20	213.21
824.52	213.25
824.83	213.30
825.15	213.28
825.47	213.28
825.79	213.31
826.10	213.25
826.42	213.25
826.74	213.25
827.05	213.18
827.37	213.16
827.69	213.16
828.00	213.20
828.32	213.08
828.64	212.96
828.95	213.08
829.27	212.98
829.58	212.97
829.90	212.98
830.22	213.05
830.53	212.91
830.85	212.85
831.17	212.73
831.48	212.62
831.80	212.52
832.11	212.45
832.43	212.35
832.75	212.37
833.06	212.58
833.38	212.49
833.69	212.42
834.01	212.43
834.32	212.43
834.64	212.32
834.96	212.42
835.27	212.46
835.59	212.37
835.90	212.27
836.22	212.24
836.53	212.20
836.85	212.10
837.16	212.43
837.48	212.42
837.79	212.56
838.11	212.60
838.42	212.66
838.74	212.70
839.05	212.71
839.37	212.69
839.68	212.44
840.00	212.39
840.31	212.42
840.63	212.41
840.94	212.35
841.26	212.39
841.57	212.35
841.88	212.38
842.20	212.37
842.51	212.34
842.83	212.39
843.14	212.65
843.46	212.73
843.77	212.54
844.08	212.60
844.40	212.46
844.71	212.44
845.03	212.42
845.34	212.40
845.65	212.39
845.97	212.31
846.28	212.43
846.60	212.46
846.91	212.40
847.22	212.38
847.54	212.50
847.85	212.46
848.16	212.42
848.48	212.31
848.79	212.39
849.10	212.44
849.42	212.39
849.73	212.00
850.04	211.99
850.36	211.83
850.67	211.80
850.98	211.79
851.30	211.84
851.61	211.81
851.92	211.78
852.23	211.85
852.55	211.93
852.86	211.82
853.17	211.85
853.49	211.98
853.80	212.03
854.11	211.99
854.42	212.06
854.74	212.02
855.05	212.03
855.36	211.80
855.67	211.77
855.99	211.70
856.30	212.16
856.61	212.05
856.92	212.10
857.23	212.07
857.55	212.05
857.86	211.95
858.17	212.00
858.48	211.94
858.79	211.85
859.11	211.84
859.42	211.83
859.73	211.80
860.04	211.78
860.35	211.68
860.66	211.60
860.98	211.55
861.29	211.55
861.60	211.53
861.91	211.67
862.22	211.62
862.53	211.66
862.84	211.28
863.16	211.40
863.47	211.29
863.78	211.31
864.09	211.34
864.40	211.40
864.71	211.37
865.02	211.42
865.33	211.48
865.64	211.39
865.95	211.43
866.27	211.62
866.58	211.55
866.89	211.55
867.20	211.53
867.51	211.42
867.82	211.42
868.13	211.50
868.44	211.39
868.75	211.48
869.06	211.47
869.37	211.52
869.68	211.42
869.99	211.55
870.30	211.58
870.61	211.64
870.92	211.63
871.23	211.62
871.54	211.70
871.85	211.70
872.16	211.80
872.47	211.72
872.78	211.52
873.09	211.55
873.40	211.60
873.71	211.68
874.02	211.82
874.33	211.85
874.64	211.85
874.95	212.01
875.26	211.98
875.56	212.08
875.87	211.98
876.18	211.96
876.49	212.22
876.80	212.18
877.11	212.09
877.42	212.10
877.73	212.16
878.04	212.12
878.35	212.15
878.66	212.18
878.96	212.22
879.27	212.23
879.58	212.26
879.89	212.15
880.20	212.21
880.51	212.22
880.82	212.14
881.12	212.12
881.43	211.97
881.74	211.89
882.05	211.81
882.36	211.90
882.67	211.90
882.97	211.63
883.28	211.61
883.59	211.60
883.90	211.60
884.21	211.56
884.51	211.48
884.82	211.42
885.13	211.37
885.44	211.31
885.74	211.36
886.05	211.32
886.36	211.34
886.67	211.25
886.98	211.35
887.28	211.39
887.59	211.40
887.90	211.38
888.20	211.38
888.51	211.42
888.82	211.38
889.13	211.53
889.43	211.81
889.74	211.79
890.05	211.89
890.35	211.89
890.66	211.90
890.97	211.88
891.28	211.83
891.58	211.84
891.89	211.86
892.20	211.75
892.50	211.70
892.81	211.77
893.12	211.74
893.42	211.56
893.73	211.53
894.04	211.48
894.34	211.57
894.65	211.55
894.95	211.50
895.26	211.47
895.57	211.53
895.87	211.14
896.18	211.22
896.48	211.15
896.79	211.13
897.10	211.24
897.40	211.34
897.71	211.42
898.01	211.38
898.32	211.49
898.63	211.58
898.93	211.63
899.24	211.55
899.54	211.51
899.85	211.54
900.15	211.59
900.46	211.66
900.76	211.60
901.07	211.64
901.38	211.68
901.68	211.77
901.99	211.60
902.29	211.68
902.60	211.62
902.90	211.64
903.21	211.62
903.51	211.45
903.82	211.50
904.12	211.45
904.43	211.49
904.73	211.42
905.03	211.37
905.34	211.70
905.64	211.74
905.95	211.73
906.25	211.76
906.56	211.76
906.86	211.71
907.17	211.75
907.47	211.83
907.77	211.82
908.08	211.68
908.38	211.76
908.69	211.74
908.99	211.80
909.30	211.78
909.60	211.77
909.90	211.89
910.21	211.77
910.51	211.76
910.81	211.80
911.12	211.81
911.42	211.87
911.73	211.49
912.03	211.44
912.33	211.51
912.64	211.47
912.94	211.45
913.24	211.48
913.55	211.46
913.85	211.36
914.15	211.39
914.46	211.55
914.76	211.47
915.06	211.51
915.37	211.46
915.67	211.45
915.97	211.44
916.27	211.31
916.58	211.28
916.88	211.29
917.18	211.22
917.49	211.44
917.79	211.40
918.09	211.50
918.39	211.62
918.70	211.63
919.00	211.62
919.30	211.83
919.60	211.79
919.91	211.76
920.21	211.81
920.51	211.73
920.81	211.69
921.12	211.71
921.42	211.64
921.72	211.66
922.02	211.65
922.32	211.75
922.63	211.77
922.93	211.98
923.23	211.95
923.53	211.96
923.83	211.70
924.13	211.67
924.44	211.66
924.74	211.72
925.04	211.79
925.34	211.78
925.64	211.55
925.94	211.55
926.24	211.74
926.55	211.69
926.85	211.74
927.15	211.68
927.45	211.71
927.75	211.74
928.05	211.68
928.35	211.70
928.65	211.71
928.95	211.77
929.26	211.60
929.56	211.65
929.86	211.66
930.16	211.65
930.46	211.66
930.76	211.62
931.06	211.47
931.36	211.30
931.66	211.39
931.96	211.48
932.26	211.48
932.56	211.33
932.86	211.31
933.16	211.19
933.46	211.21
933.76	211.14
934.06	211.24
934.36	211.40
934.66	211.33
934.96	211.30
935.26	211.34
935.56	211.39
935.86	211.30
936.16	211.30
936.46	211.29
936.76	211.26
937.06	211.26
937.36	211.28
937.66	211.34
937.96	211.23
938.26	211.08
938.56	211.01
938.86	211.04
939.16	211.16
939.46	211.29
939.76	211.26
940.06	211.24
940.35	211.14
940.65	210.98
940.95	211.03
941.25	210.93
941.55	210.85
941.85	210.85
942.15	210.92
942.45	211.03
942.75	211.02
943.04	211.03
943.34	211.10
943.64	211.12
943.94	211.01
944.24	211.12
944.54	211.18
944.84	211.18
945.13	211.12
945.43	211.06
945.73	211.06
946.03	211.03
946.33	211.02
946.62	210.99
946.92	210.97
947.22	210.96
947.52	211.01
947.82	211.04
948.11	211.04
948.41	210.97
948.71	210.87
949.01	210.84
949.31	210.83
949.60	210.71
949.90	210.66
950.20	210.74
950.50	210.64
950.79	210.65
951.09	210.76
951.39	210.75
951.69	210.73
951.98	210.73
952.28	210.76
952.58	210.74
952.87	210.72
953.17	210.73
953.47	210.69
953.76	210.67
954.06	210.61
954.36	210.55
954.66	210.55
954.95	210.59
955.25	210.67
955.55	210.69
955.84	210.73
956.14	210.79
956.44	210.75
956.73	210.74
957.03	210.71
957.32	210.73
957.62	210.70
957.92	210.73
958.21	210.75
958.51	211.15
958.81	211.24
959.10	211.30
959.40	211.40
959.69	211.39
959.99	211.42
960.29	211.43
960.58	211.42
960.88	211.55
961.17	211.49
961.47	211.50
961.76	211.50
962.06	211.54
962.36	211.51
962.65	211.55
962.95	211.62
963.24	211.67
963.54	211.64
963.83	211.69
964.13	211.68
964.42	211.58
964.72	211.26
965.01	211.27
965.31	211.19
965.60	211.13
965.90	211.42
966.19	211.32
966.49	211.35
966.78	211.32
967.08	211.28
967.37	211.42
967.67	211.39
967.96	211.41
968.26	211.39
968.55	211.42
968.85	211.40
969.14	211.38
969.43	211.32
969.73	211.38
970.02	211.38
970.32	211.40
970.61	211.45
970.91	211.35
971.20	211.25
971.49	211.27
971.79	211.30
972.08	211.06
972.38	211.19
972.67	211.10
972.96	211.19
973.26	211.19
973.55	211.20
973.85	211.23
974.14	211.25
974.43	211.27
974.73	211.25
975.02	211.23
975.31	211.22
975.61	211.25
975.90	211.18
976.19	211.12
976.49	211.15
976.78	211.12
977.07	211.21
977.37	211.27
977.66	211.35
977.95	211.39
978.24	211.44
978.54	211.48
978.83	211.53
979.12	211.44
979.42	211.37
979.71	211.36
980.00	211.29
980.29	211.26
980.59	211.27
980.88	211.33
981.17	211.32
981.46	211.32
981.76	211.27
982.05	211.36
982.34	211.38
982.63	211.35
982.93	211.39
983.22	211.46
983.51	211.49
983.80	211.49
984.09	211.46
984.39	211.46
984.68	211.37
984.97	211.43
985.26	211.51
985.55	211.54
985.85	211.48
986.14	211.48
986.43	211.64
986.72	211.52
987.01	211.43
987.30	211.44
987.59	211.47
987.89	211.60
988.18	211.53
988.47	211.54
988.76	211.57
989.05	211.53
989.34	211.40
989.63	211.41
989.92	211.39
990.22	211.39
990.51	211.34
990.80	211.31
991.09	211.28
991.38	211.31
991.67	211.34
991.96	211.22
992.25	211.33
992.54	211.15
992.83	211.17
993.12	211.15
993.41	211.20
993.70	211.28
993.99	211.22
994.28	211.25
994.58	211.34
994.87	211.21
995.16	211.16
995.45	211.11
995.74	211.00
996.03	211.02
996.32	211.00
996.61	211.08
996.90	211.10
997.19	211.08
997.48	211.05
997.77	211.00
998.06	211.02
998.34	210.93
998.63	210.97
998.92	211.05
999.21	211.10
999.50	211.10
999.79	210.94
1000.08	210.86
1000.37	210.89
1000.66	210.72
1000.95	210.87
1001.24	210.93
1001.53	211.01
1001.82	211.03
1002.11	210.93
1002.40	210.97
1002.68	211.05
1002.97	211.25
1003.26	211.24
1003.55	211.20
1003.84	211.18
1004.13	211.38
1004.42	211.35
1004.71	211.35
1004.99	211.23
1005.28	211.34
1005.57	211.31
1005.86	211.30
1006.15	211.34
1006.44	211.20
1006.72	211.28
1007.01	211.19
1007.30	211.21
1007.59	211.18
1007.88	211.20
1008.17	211.28
1008.45	211.19
1008.74	211.00
1009.03	210.88
1009.32	210.88
1009.60	210.84
1009.89	210.82
1010.18	210.61
1010.47	210.59
1010.76	210.57
1011.04	210.65
1011.33	210.92
1011.62	210.94
1011.91	211.02
1012.19	211.07
1012.48	211.13
1012.77	211.16
1013.05	211.30
1013.34	211.29
1013.63	211.27
1013.92	211.37
1014.20	211.27
1014.49	211.35
1014.78	211.49
1015.06	211.36
1015.35	211.33
1015.64	211.46
1015.92	211.57
1016.21	211.66
1016.50	211.72
1016.78	211.77
1017.07	211.75
1017.36	211.40
1017.64	211.39
1017.93	211.38
1018.22	211.40
1018.50	211.42
1018.79	211.40
1019.08	211.30
1019.36	211.34
1019.65	211.29
1019.93	211.29
1020.22	211.47
1020.51	211.58
1020.79	211.51
1021.08	212.00
1021.36	211.25
1021.65	211.20
1021.94	211.45
1022.22	211.80
1022.51	209.60
1022.79	212.30
1023.08	212.75
1023.36	215.00
1023.65	210.95
>>>>>End Processed Spectral Data<<<<<
