SpectraSuite Data File
++++++++++++++++++++++++++++++++++++
Date: Mon Feb 25 16:58:17 EST 2013
User: group
Dark Spectrum Present: No
Reference Spectrum Present: No
Number of Sampled Component Spectra: 1
Spectrometers: USB2E7196
Integration Time (usec): 104000 (USB2E7196)
Spectra Averaged: 20 (USB2E7196)
Boxcar Smoothing: 10 (USB2E7196)
Correct for Electrical Dark: No (USB2E7196)
Strobe/Lamp Enabled: No (USB2E7196)
Correct for Detector Non-linearity: No (USB2E7196)
Correct for Stray Light: No (USB2E7196)
Number of Pixels in Processed Spectrum: 2048
>>>>>Begin Processed Spectral Data<<<<<
339.09	0.00
339.48	199.20
339.86	199.75
340.24	201.70
340.63	202.10
341.01	210.45
341.39	206.00
341.78	207.45
342.16	211.15
342.54	209.20
342.93	198.72
343.31	208.67
343.69	209.25
344.07	209.73
344.46	210.15
344.84	210.63
345.22	210.68
345.60	210.90
345.99	211.12
346.37	211.12
346.75	211.21
347.13	211.26
347.52	211.33
347.90	211.52
348.28	211.50
348.66	211.66
349.05	211.57
349.43	211.55
349.81	211.54
350.19	211.48
350.57	211.50
350.96	211.59
351.34	211.72
351.72	211.75
352.10	211.85
352.48	211.93
352.87	211.93
353.25	211.94
353.63	212.06
354.01	212.09
354.39	212.12
354.77	212.15
355.15	212.34
355.54	212.35
355.92	212.28
356.30	212.34
356.68	212.59
357.06	212.63
357.44	212.67
357.82	212.72
358.20	212.82
358.58	212.80
358.97	212.83
359.35	212.97
359.73	213.10
360.11	213.07
360.49	213.05
360.87	213.06
361.25	213.16
361.63	213.25
362.01	213.25
362.39	213.28
362.77	213.37
363.15	213.28
363.53	213.33
363.91	213.33
364.29	213.37
364.67	213.02
365.05	213.03
365.43	213.10
365.81	213.14
366.19	213.32
366.57	213.50
366.95	213.49
367.33	213.42
367.71	213.40
368.09	213.50
368.47	213.55
368.85	213.51
369.23	213.58
369.61	213.45
369.99	213.59
370.37	213.65
370.75	213.70
371.13	213.69
371.51	213.62
371.89	213.65
372.27	213.64
372.65	213.66
373.03	213.71
373.41	213.64
373.78	213.55
374.16	213.31
374.54	213.18
374.92	213.10
375.30	213.06
375.68	212.93
376.06	212.89
376.44	212.86
376.82	212.85
377.19	212.77
377.57	212.74
377.95	212.55
378.33	212.45
378.71	212.24
379.09	212.21
379.47	212.20
379.84	212.14
380.22	212.10
380.60	212.04
380.98	211.91
381.36	211.88
381.73	211.82
382.11	211.87
382.49	211.83
382.87	211.74
383.25	211.67
383.62	211.95
384.00	211.94
384.38	211.85
384.76	211.93
385.13	212.02
385.51	211.95
385.89	211.92
386.27	211.97
386.64	212.00
387.02	211.93
387.40	211.87
387.78	211.82
388.15	211.80
388.53	211.70
388.91	211.68
389.29	211.60
389.66	211.64
390.04	211.55
390.42	211.62
390.79	211.68
391.17	211.72
391.55	211.38
391.92	211.35
392.30	211.40
392.68	211.32
393.05	211.26
393.43	211.30
393.81	211.29
394.18	211.14
394.56	211.12
394.94	211.24
395.31	211.22
395.69	211.34
396.06	211.37
396.44	211.51
396.82	211.47
397.19	211.71
397.57	211.66
397.95	211.75
398.32	211.69
398.70	211.77
399.07	211.89
399.45	211.96
399.82	211.97
400.20	211.99
400.58	212.01
400.95	211.91
401.33	212.13
401.70	212.49
402.08	212.66
402.45	212.83
402.83	212.98
403.20	213.11
403.58	213.14
403.95	213.33
404.33	213.53
404.71	213.84
405.08	214.21
405.46	214.46
405.83	214.73
406.21	214.93
406.58	215.18
406.96	215.50
407.33	215.78
407.70	216.16
408.08	216.82
408.45	217.28
408.83	217.83
409.20	218.15
409.58	218.43
409.95	218.99
410.33	219.60
410.70	220.14
411.08	220.84
411.45	221.64
411.82	222.35
412.20	223.26
412.57	224.31
412.95	224.92
413.32	226.07
413.69	227.12
414.07	228.30
414.44	229.63
414.82	230.89
415.19	232.50
415.56	234.02
415.94	235.53
416.31	237.45
416.68	239.32
417.06	241.48
417.43	243.61
417.81	245.92
418.18	248.29
418.55	250.86
418.93	253.66
419.30	256.51
419.67	259.59
420.04	262.63
420.42	265.81
420.79	269.66
421.16	273.42
421.54	277.42
421.91	281.49
422.28	285.69
422.66	290.28
423.03	294.83
423.40	299.49
423.77	304.54
424.15	309.56
424.52	314.85
424.89	320.62
425.26	326.16
425.64	331.66
426.01	337.50
426.38	343.70
426.75	349.86
427.13	356.34
427.50	363.05
427.87	370.22
428.24	377.45
428.61	384.22
428.99	391.80
429.36	399.98
429.73	408.05
430.10	416.03
430.47	424.11
430.85	432.62
431.22	441.79
431.59	451.39
431.96	460.60
432.33	470.89
432.70	480.84
433.08	492.56
433.45	503.50
433.82	514.59
434.19	526.95
434.56	539.15
434.93	550.83
435.30	562.54
435.68	575.70
436.05	588.62
436.42	601.71
436.79	613.55
437.16	626.30
437.53	639.84
437.90	653.37
438.27	666.86
438.64	680.76
439.01	693.48
439.38	705.05
439.75	716.42
440.13	729.57
440.50	741.72
440.87	751.89
441.24	762.45
441.61	774.17
441.98	782.99
442.35	793.14
442.72	803.38
443.09	813.32
443.46	819.61
443.83	824.13
444.20	828.14
444.57	833.71
444.94	837.13
445.31	840.58
445.68	843.75
446.05	845.74
446.42	845.49
446.79	845.13
447.16	844.40
447.53	844.20
447.90	840.00
448.27	836.29
448.64	830.45
449.01	826.52
449.37	818.50
449.74	810.90
450.11	801.71
450.48	791.37
450.85	780.95
451.22	772.02
451.59	763.55
451.96	755.48
452.33	744.34
452.70	733.97
453.07	721.68
453.43	709.29
453.80	697.22
454.17	685.79
454.54	674.92
454.91	663.19
455.28	651.76
455.65	641.12
456.02	630.28
456.38	621.00
456.75	609.50
457.12	600.06
457.49	590.53
457.86	581.18
458.23	573.39
458.59	564.70
458.96	555.91
459.33	548.13
459.70	540.26
460.07	534.05
460.43	526.90
460.80	520.20
461.17	514.24
461.54	507.95
461.91	502.03
462.27	496.06
462.64	491.19
463.01	485.46
463.38	480.10
463.74	474.58
464.11	469.93
464.48	465.73
464.85	461.17
465.21	457.86
465.58	454.16
465.95	449.73
466.32	446.10
466.68	442.30
467.05	438.60
467.42	434.87
467.78	430.96
468.15	427.41
468.52	424.58
468.88	421.04
469.25	417.91
469.62	415.28
469.98	412.44
470.35	409.68
470.72	407.17
471.08	404.33
471.45	402.05
471.82	399.66
472.18	397.12
472.55	395.17
472.92	392.82
473.28	390.97
473.65	389.06
474.02	387.13
474.38	385.63
474.75	384.33
475.11	382.98
475.48	381.98
475.85	380.94
476.21	379.97
476.58	379.15
476.94	378.65
477.31	377.79
477.67	377.11
478.04	376.57
478.41	376.25
478.77	376.26
479.14	375.87
479.50	375.66
479.87	375.68
480.23	375.69
480.60	375.65
480.96	375.51
481.33	375.84
481.69	376.18
482.06	376.46
482.42	376.58
482.79	376.86
483.15	377.35
483.52	378.15
483.88	378.79
484.25	379.35
484.61	379.92
484.98	380.72
485.34	381.66
485.71	382.70
486.07	383.85
486.44	384.69
486.80	386.01
487.17	387.46
487.53	389.06
487.90	390.87
488.26	392.68
488.62	394.75
488.99	396.72
489.35	398.78
489.72	400.98
490.08	403.40
490.44	405.74
490.81	408.14
491.17	410.54
491.54	413.29
491.90	416.10
492.26	419.17
492.63	422.31
492.99	425.61
493.36	428.88
493.72	432.35
494.08	435.95
494.45	439.72
494.81	443.51
495.17	447.24
495.54	451.11
495.90	455.20
496.26	459.21
496.63	463.37
496.99	467.63
497.35	472.07
497.72	476.52
498.08	481.23
498.44	485.88
498.80	490.82
499.17	495.65
499.53	500.73
499.89	505.65
500.26	510.54
500.62	515.45
500.98	520.62
501.34	525.62
501.71	530.80
502.07	535.90
502.43	541.00
502.79	546.14
503.16	551.36
503.52	556.35
503.88	561.47
504.24	566.67
504.60	571.84
504.97	577.05
505.33	582.08
505.69	587.34
506.05	592.63
506.41	597.69
506.78	602.60
507.14	607.32
507.50	612.25
507.86	617.26
508.22	622.08
508.59	626.70
508.95	631.46
509.31	636.10
509.67	640.71
510.03	645.27
510.39	649.98
510.75	654.62
511.12	659.35
511.48	663.81
511.84	668.39
512.20	672.63
512.56	676.85
512.92	681.27
513.28	685.30
513.64	689.43
514.00	693.34
514.37	697.30
514.73	701.43
515.09	705.26
515.45	708.71
515.81	712.33
516.17	715.88
516.53	719.27
516.89	722.54
517.25	725.59
517.61	728.89
517.97	731.70
518.33	734.41
518.69	737.12
519.05	740.02
519.41	742.63
519.77	745.72
520.13	748.31
520.49	750.72
520.85	753.10
521.21	755.36
521.57	757.64
521.93	759.65
522.29	761.95
522.65	764.05
523.01	766.49
523.37	768.36
523.73	770.59
524.09	772.66
524.45	774.67
524.81	776.77
525.17	778.69
525.53	780.89
525.89	782.86
526.25	784.97
526.61	786.52
526.97	788.25
527.33	789.83
527.68	791.75
528.04	793.49
528.40	795.12
528.76	796.84
529.12	798.82
529.48	801.10
529.84	802.60
530.20	804.28
530.56	806.02
530.91	808.17
531.27	810.02
531.63	812.03
531.99	813.73
532.35	815.52
532.71	817.42
533.07	819.35
533.42	821.69
533.78	823.55
534.14	825.58
534.50	827.38
534.86	829.47
535.21	831.21
535.57	833.24
535.93	835.24
536.29	837.28
536.65	839.19
537.00	840.85
537.36	842.79
537.72	844.76
538.08	846.60
538.44	848.40
538.79	850.41
539.15	852.15
539.51	854.52
539.87	856.91
540.22	859.15
540.58	861.61
540.94	863.67
541.29	865.75
541.65	867.79
542.01	869.94
542.37	871.87
542.72	874.01
543.08	875.93
543.44	878.44
543.79	880.21
544.15	882.24
544.51	884.51
544.87	886.82
545.22	889.08
545.58	891.17
545.94	893.17
546.29	894.94
546.65	896.78
547.01	898.47
547.36	900.20
547.72	901.85
548.07	903.27
548.43	904.61
548.79	906.07
549.14	907.77
549.50	909.44
549.86	911.00
550.21	912.73
550.57	914.90
550.92	916.22
551.28	918.17
551.64	919.72
551.99	921.62
552.35	923.25
552.70	924.80
553.06	926.43
553.41	928.32
553.77	930.24
554.13	932.26
554.48	934.24
554.84	936.27
555.19	938.02
555.55	940.05
555.90	941.70
556.26	943.60
556.61	945.20
556.97	946.77
557.32	948.38
557.68	949.67
558.03	950.75
558.39	952.20
558.74	953.76
559.10	955.34
559.45	956.63
559.81	958.20
560.16	959.55
560.52	960.97
560.87	962.26
561.23	963.50
561.58	965.01
561.94	965.98
562.29	966.67
562.64	967.83
563.00	968.68
563.35	969.80
563.71	971.24
564.06	972.49
564.42	973.82
564.77	975.36
565.12	977.00
565.48	978.60
565.83	979.74
566.19	981.00
566.54	981.88
566.89	982.62
567.25	983.54
567.60	984.86
567.96	986.19
568.31	987.44
568.66	988.15
569.02	988.64
569.37	989.10
569.72	989.94
570.08	990.51
570.43	990.94
570.78	991.47
571.14	991.38
571.49	991.56
571.84	991.83
572.20	991.52
572.55	991.49
572.90	990.95
573.26	990.74
573.61	989.91
573.96	989.77
574.31	989.29
574.67	988.67
575.02	987.46
575.37	986.34
575.72	984.80
576.08	983.91
576.43	982.51
576.78	981.55
577.13	980.64
577.49	979.79
577.84	978.80
578.19	977.84
578.54	977.05
578.90	976.33
579.25	975.25
579.60	973.97
579.95	972.27
580.30	971.14
580.66	969.97
581.01	968.62
581.36	966.89
581.71	965.42
582.06	963.96
582.42	962.60
582.77	960.76
583.12	959.11
583.47	957.73
583.82	956.50
584.17	955.07
584.53	953.28
584.88	951.28
585.23	949.58
585.58	947.62
585.93	945.63
586.28	943.52
586.63	941.44
586.98	939.66
587.34	938.10
587.69	936.05
588.04	934.10
588.39	932.55
588.74	930.50
589.09	928.50
589.44	926.13
589.79	924.26
590.14	922.59
590.49	920.81
590.84	918.37
591.19	916.51
591.54	914.36
591.89	911.84
592.25	909.77
592.60	907.14
592.95	904.71
593.30	902.03
593.65	899.62
594.00	897.03
594.35	895.39
594.70	892.72
595.05	890.40
595.40	887.82
595.75	884.86
596.10	882.56
596.45	880.30
596.80	878.25
597.15	875.87
597.50	873.23
597.85	870.86
598.19	868.34
598.54	865.57
598.89	863.16
599.24	861.19
599.59	858.66
599.94	856.19
600.29	853.66
600.64	851.28
600.99	848.63
601.34	846.20
601.69	842.63
602.04	839.81
602.39	837.11
602.74	834.51
603.08	832.45
603.43	830.19
603.78	827.56
604.13	824.83
604.48	822.17
604.83	819.93
605.18	817.51
605.53	814.98
605.87	812.43
606.22	809.68
606.57	806.67
606.92	803.75
607.27	801.32
607.62	798.73
607.96	796.24
608.31	793.61
608.66	790.88
609.01	788.18
609.36	785.40
609.70	782.45
610.05	779.56
610.40	776.49
610.75	773.27
611.10	770.56
611.44	767.30
611.79	764.06
612.14	760.69
612.49	757.24
612.83	754.15
613.18	750.83
613.53	747.69
613.88	744.36
614.22	741.33
614.57	738.07
614.92	734.77
615.27	731.47
615.61	728.31
615.96	725.38
616.31	722.45
616.65	719.83
617.00	716.81
617.35	713.91
617.70	710.62
618.04	707.36
618.39	703.65
618.74	700.73
619.08	697.67
619.43	694.54
619.78	691.59
620.12	688.75
620.47	685.84
620.82	682.53
621.16	679.45
621.51	676.43
621.85	673.45
622.20	670.51
622.55	667.42
622.89	664.31
623.24	661.01
623.59	657.71
623.93	654.58
624.28	651.70
624.62	648.85
624.97	645.93
625.32	642.97
625.66	640.46
626.01	637.60
626.35	634.81
626.70	631.90
627.04	629.17
627.39	626.28
627.73	623.48
628.08	621.21
628.43	618.50
628.77	615.72
629.12	612.80
629.46	610.19
629.81	607.51
630.15	604.94
630.50	602.29
630.84	599.77
631.19	596.94
631.53	594.19
631.88	591.10
632.22	588.31
632.57	585.98
632.91	583.14
633.26	580.40
633.60	577.76
633.95	575.22
634.29	572.53
634.64	569.98
634.98	567.21
635.32	564.45
635.67	562.16
636.01	559.57
636.36	557.13
636.70	554.67
637.05	552.16
637.39	549.74
637.73	547.55
638.08	545.43
638.42	543.25
638.77	541.11
639.11	538.91
639.45	536.70
639.80	534.03
640.14	531.63
640.49	529.29
640.83	526.97
641.17	524.71
641.52	522.34
641.86	519.80
642.20	517.63
642.55	515.12
642.89	512.70
643.23	510.38
643.58	508.35
643.92	505.89
644.26	503.64
644.61	501.37
644.95	498.84
645.29	496.27
645.64	493.88
645.98	491.38
646.32	489.22
646.66	486.77
647.01	484.68
647.35	482.67
647.69	480.40
648.04	478.24
648.38	476.12
648.72	473.86
649.06	471.73
649.41	469.45
649.75	467.30
650.09	465.25
650.43	463.08
650.78	460.50
651.12	458.33
651.46	456.24
651.80	454.10
652.14	452.12
652.49	450.13
652.83	448.10
653.17	445.97
653.51	443.80
653.85	442.02
654.20	440.02
654.54	437.89
654.88	435.91
655.22	433.77
655.56	431.63
655.90	429.66
656.25	427.65
656.59	425.68
656.93	423.82
657.27	421.84
657.61	419.80
657.95	418.08
658.29	416.24
658.64	414.45
658.98	412.47
659.32	410.31
659.66	408.31
660.00	406.25
660.34	404.30
660.68	402.33
661.02	400.37
661.36	398.59
661.70	396.75
662.05	394.97
662.39	393.25
662.73	391.62
663.07	390.12
663.41	388.50
663.75	386.85
664.09	385.18
664.43	383.36
664.77	381.95
665.11	380.25
665.45	378.65
665.79	377.12
666.13	375.61
666.47	374.26
666.81	372.73
667.15	371.17
667.49	369.78
667.83	368.53
668.17	367.00
668.51	365.55
668.85	364.20
669.19	362.95
669.53	361.55
669.87	360.06
670.21	358.53
670.55	357.01
670.89	355.87
671.23	354.60
671.57	353.42
671.91	352.05
672.25	350.88
672.58	349.70
672.92	348.22
673.26	346.92
673.60	345.57
673.94	344.35
674.28	343.23
674.62	342.16
674.96	340.89
675.30	339.78
675.64	338.59
675.97	337.30
676.31	336.14
676.65	335.03
676.99	334.09
677.33	332.94
677.67	331.90
678.01	330.62
678.34	329.40
678.68	328.27
679.02	327.06
679.36	325.91
679.70	324.80
680.04	323.73
680.37	322.68
680.71	321.68
681.05	320.62
681.39	319.60
681.73	318.52
682.06	317.56
682.40	316.68
682.74	315.75
683.08	314.98
683.42	313.83
683.75	312.88
684.09	311.75
684.43	310.75
684.77	309.75
685.10	308.75
685.44	307.70
685.78	306.77
686.12	305.97
686.45	305.00
686.79	303.98
687.13	303.21
687.46	302.37
687.80	301.51
688.14	300.67
688.48	299.84
688.81	298.99
689.15	298.07
689.49	297.18
689.82	296.24
690.16	295.23
690.50	294.40
690.83	293.49
691.17	292.61
691.51	291.73
691.84	290.85
692.18	290.05
692.52	289.40
692.85	288.67
693.19	287.94
693.52	287.14
693.86	286.30
694.20	285.47
694.53	284.65
694.87	283.78
695.21	282.96
695.54	282.14
695.88	281.30
696.21	280.34
696.55	279.44
696.88	278.65
697.22	277.85
697.56	277.22
697.89	276.46
698.23	275.81
698.56	275.15
698.90	274.65
699.23	273.89
699.57	273.19
699.90	272.41
700.24	271.62
700.58	271.01
700.91	270.49
701.25	270.04
701.58	269.43
701.92	268.92
702.25	268.33
702.59	267.64
702.92	267.01
703.26	266.53
703.59	265.99
703.93	265.75
704.26	265.20
704.60	264.59
704.93	263.96
705.26	263.30
705.60	262.86
705.93	262.17
706.27	261.77
706.60	261.24
706.94	260.89
707.27	260.34
707.61	259.79
707.94	259.23
708.27	258.48
708.61	257.89
708.94	257.40
709.28	256.93
709.61	256.51
709.94	256.10
710.28	255.59
710.61	255.16
710.95	254.35
711.28	254.15
711.61	253.65
711.95	253.29
712.28	252.91
712.61	252.38
712.95	252.23
713.28	251.91
713.61	251.41
713.95	250.82
714.28	250.43
714.61	249.95
714.95	249.51
715.28	249.08
715.61	248.65
715.95	248.22
716.28	247.73
716.61	247.39
716.95	246.89
717.28	246.55
717.61	246.22
717.94	245.89
718.28	245.25
718.61	244.90
718.94	244.50
719.27	244.12
719.61	243.82
719.94	243.35
720.27	242.86
720.60	242.60
720.94	242.37
721.27	242.13
721.60	241.90
721.93	241.60
722.27	241.41
722.60	241.20
722.93	240.88
723.26	240.73
723.59	240.36
723.93	240.15
724.26	239.89
724.59	239.55
724.92	239.34
725.25	239.21
725.59	238.95
725.92	238.82
726.25	238.55
726.58	238.31
726.91	238.01
727.24	237.86
727.57	237.62
727.91	237.27
728.24	236.96
728.57	236.72
728.90	236.55
729.23	236.27
729.56	236.16
729.89	235.97
730.22	235.63
730.55	235.39
730.89	235.16
731.22	234.94
731.55	234.69
731.88	234.45
732.21	234.10
732.54	233.85
732.87	233.55
733.20	233.36
733.53	233.12
733.86	232.93
734.19	232.62
734.52	232.49
734.85	232.55
735.18	232.35
735.51	232.25
735.84	232.08
736.17	231.93
736.50	231.53
736.83	231.73
737.16	231.62
737.49	231.49
737.82	231.21
738.15	231.03
738.48	230.85
738.81	230.59
739.14	230.42
739.47	230.23
739.80	230.03
740.13	229.93
740.46	229.71
740.79	229.49
741.12	229.23
741.45	228.93
741.78	228.50
742.11	228.44
742.44	228.20
742.77	228.04
743.10	227.85
743.43	227.62
743.75	227.10
744.08	227.38
744.41	227.15
744.74	227.05
745.07	226.85
745.40	226.76
745.73	226.75
746.06	226.59
746.39	226.48
746.71	226.28
747.04	226.03
747.37	225.83
747.70	225.72
748.03	225.62
748.36	225.54
748.68	225.45
749.01	225.19
749.34	225.04
749.67	224.85
750.00	224.70
750.33	224.80
750.65	224.69
750.98	224.01
751.31	223.85
751.64	223.65
751.97	223.72
752.29	223.55
752.62	223.27
752.95	223.18
753.28	223.02
753.60	222.88
753.93	222.95
754.26	222.91
754.59	222.69
754.91	222.53
755.24	222.31
755.57	222.13
755.90	221.97
756.22	221.83
756.55	221.74
756.88	221.51
757.20	221.23
757.53	220.98
757.86	220.91
758.19	220.86
758.51	220.80
758.84	220.53
759.17	220.35
759.49	220.25
759.82	220.30
760.15	220.19
760.47	220.06
760.80	219.75
761.13	219.62
761.45	219.50
761.78	219.47
762.11	219.46
762.43	219.44
762.76	219.38
763.08	219.25
763.41	219.06
763.74	219.09
764.06	219.01
764.39	218.93
764.71	218.83
765.04	218.69
765.37	218.59
765.69	218.42
766.02	218.41
766.34	218.35
766.67	218.09
767.00	218.03
767.32	218.23
767.65	218.38
767.97	218.27
768.30	218.22
768.62	218.13
768.95	218.03
769.27	217.90
769.60	217.89
769.92	217.78
770.25	217.73
770.57	217.59
770.90	217.52
771.22	217.43
771.55	217.40
771.87	217.41
772.20	217.29
772.52	217.54
772.85	217.93
773.17	217.83
773.50	217.74
773.82	217.70
774.15	217.40
774.47	217.14
774.80	217.07
775.12	217.01
775.45	216.93
775.77	216.89
776.09	216.83
776.42	216.67
776.74	216.74
777.07	216.65
777.39	216.56
777.72	216.51
778.04	216.48
778.36	216.36
778.69	216.34
779.01	216.38
779.33	216.04
779.66	215.53
779.98	215.57
780.31	215.52
780.63	215.58
780.95	215.65
781.28	215.54
781.60	215.49
781.92	215.53
782.25	215.56
782.57	215.45
782.89	215.38
783.22	215.44
783.54	215.37
783.86	215.39
784.19	215.39
784.51	215.43
784.83	215.37
785.16	215.41
785.48	215.37
785.80	215.37
786.12	215.39
786.45	215.40
786.77	215.35
787.09	215.33
787.42	215.17
787.74	215.12
788.06	215.10
788.38	215.08
788.71	215.01
789.03	214.93
789.35	215.00
789.67	214.90
789.99	214.93
790.32	214.87
790.64	214.86
790.96	215.05
791.28	214.93
791.61	214.90
791.93	214.85
792.25	214.80
792.57	214.95
792.89	214.91
793.21	214.85
793.54	214.80
793.86	214.77
794.18	214.78
794.50	214.75
794.82	214.77
795.14	214.76
795.47	214.73
795.79	214.71
796.11	214.55
796.43	214.60
796.75	214.50
797.07	214.50
797.39	214.44
797.71	214.15
798.04	214.18
798.36	214.15
798.68	214.14
799.00	214.09
799.32	213.90
799.64	213.90
799.96	213.86
800.28	213.90
800.60	213.84
800.92	213.87
801.24	213.80
801.56	213.79
801.89	213.75
802.21	213.76
802.53	213.71
802.85	213.77
803.17	213.96
803.49	213.88
803.81	213.76
804.13	213.75
804.45	213.76
804.77	213.75
805.09	213.76
805.41	213.69
805.73	213.69
806.05	213.53
806.37	213.45
806.69	213.42
807.01	213.35
807.33	213.38
807.65	213.17
807.97	213.30
808.28	213.19
808.60	213.21
808.92	213.17
809.24	213.33
809.56	213.29
809.88	213.05
810.20	213.05
810.52	213.18
810.84	213.12
811.16	213.08
811.48	212.96
811.80	213.05
812.12	212.99
812.43	213.01
812.75	213.04
813.07	213.01
813.39	213.01
813.71	212.96
814.03	212.89
814.35	212.94
814.67	212.74
814.98	212.77
815.30	212.70
815.62	212.64
815.94	212.39
816.26	212.37
816.58	212.38
816.89	212.41
817.21	212.35
817.53	212.36
817.85	212.43
818.17	212.39
818.48	212.30
818.80	212.44
819.12	212.34
819.44	212.30
819.76	212.26
820.07	212.30
820.39	212.30
820.71	212.33
821.03	212.31
821.34	212.28
821.66	212.37
821.98	212.35
822.30	212.34
822.61	212.59
822.93	212.57
823.25	212.51
823.57	212.51
823.88	212.58
824.20	212.59
824.52	212.62
824.83	212.66
825.15	212.59
825.47	212.50
825.79	212.60
826.10	212.65
826.42	212.61
826.74	212.60
827.05	212.61
827.37	212.65
827.69	212.63
828.00	212.72
828.32	212.61
828.64	212.67
828.95	212.83
829.27	212.73
829.58	212.74
829.90	212.86
830.22	212.83
830.53	212.73
830.85	212.69
831.17	212.54
831.48	212.52
831.80	212.55
832.11	212.50
832.43	212.41
832.75	212.36
833.06	212.68
833.38	212.62
833.69	212.63
834.01	212.66
834.32	212.67
834.64	212.57
834.96	212.62
835.27	212.63
835.59	212.53
835.90	212.42
836.22	212.45
836.53	212.32
836.85	212.33
837.16	212.64
837.48	212.70
837.79	212.86
838.11	212.89
838.42	212.91
838.74	212.97
839.05	213.02
839.37	212.92
839.68	212.64
840.00	212.56
840.31	212.54
840.63	212.48
840.94	212.42
841.26	212.43
841.57	212.45
841.88	212.42
842.20	212.35
842.51	212.33
842.83	212.26
843.14	212.58
843.46	212.55
843.77	212.30
844.08	212.22
844.40	212.08
844.71	212.12
845.03	212.09
845.34	212.03
845.65	211.92
845.97	212.03
846.28	212.03
846.60	212.09
846.91	212.04
847.22	211.94
847.54	211.99
847.85	211.97
848.16	211.92
848.48	211.86
848.79	212.03
849.10	212.05
849.42	212.09
849.73	211.77
850.04	211.73
850.36	211.67
850.67	211.75
850.98	211.80
851.30	211.78
851.61	211.69
851.92	211.66
852.23	211.77
852.55	211.77
852.86	211.77
853.17	211.76
853.49	211.83
853.80	211.94
854.11	211.93
854.42	211.94
854.74	211.87
855.05	211.84
855.36	211.65
855.67	211.64
855.99	211.59
856.30	212.01
856.61	211.94
856.92	211.90
857.23	211.91
857.55	211.81
857.86	211.71
858.17	211.82
858.48	211.78
858.79	211.74
859.11	211.76
859.42	211.73
859.73	211.70
860.04	211.70
860.35	211.58
860.66	211.55
860.98	211.56
861.29	211.68
861.60	211.68
861.91	211.78
862.22	211.74
862.53	211.66
862.84	211.22
863.16	211.40
863.47	211.31
863.78	211.29
864.09	211.30
864.40	211.35
864.71	211.40
865.02	211.50
865.33	211.43
865.64	211.41
865.95	211.42
866.27	211.62
866.58	211.53
866.89	211.67
867.20	211.63
867.51	211.59
867.82	211.52
868.13	211.67
868.44	211.59
868.75	211.65
869.06	211.72
869.37	211.76
869.68	211.61
869.99	211.71
870.30	211.76
870.61	211.86
870.92	211.83
871.23	211.75
871.54	211.77
871.85	211.85
872.16	211.86
872.47	211.85
872.78	211.63
873.09	211.70
873.40	211.63
873.71	211.69
874.02	211.65
874.33	211.59
874.64	211.43
874.95	211.46
875.26	211.39
875.56	211.43
875.87	211.42
876.18	211.45
876.49	211.75
876.80	211.64
877.11	211.55
877.42	211.53
877.73	211.54
878.04	211.48
878.35	211.45
878.66	211.41
878.96	211.35
879.27	211.38
879.58	211.40
879.89	211.34
880.20	211.42
880.51	211.49
880.82	211.49
881.12	211.60
881.43	211.50
881.74	211.50
882.05	211.39
882.36	211.51
882.67	211.60
882.97	211.21
883.28	211.20
883.59	211.20
883.90	211.20
884.21	211.25
884.51	211.22
884.82	211.18
885.13	211.22
885.44	211.31
885.74	211.31
886.05	211.27
886.36	211.28
886.67	211.21
886.98	211.35
887.28	211.39
887.59	211.31
887.90	211.34
888.20	211.30
888.51	211.47
888.82	211.30
889.13	211.20
889.43	211.50
889.74	211.49
890.05	211.45
890.35	211.46
890.66	211.38
890.97	211.37
891.28	211.41
891.58	211.36
891.89	211.25
892.20	211.21
892.50	211.16
892.81	211.12
893.12	211.05
893.42	210.84
893.73	210.91
894.04	210.95
894.34	211.00
894.65	211.00
894.95	210.91
895.26	210.92
895.57	211.09
895.87	210.81
896.18	210.85
896.48	210.87
896.79	210.82
897.10	210.95
897.40	211.00
897.71	210.99
898.01	211.03
898.32	211.15
898.63	211.15
898.93	211.20
899.24	211.29
899.54	211.29
899.85	211.38
900.15	211.28
900.46	211.24
900.76	211.22
901.07	211.20
901.38	211.18
901.68	211.27
901.99	211.13
902.29	211.12
902.60	211.09
902.90	211.08
903.21	211.08
903.51	211.01
903.82	211.05
904.12	211.07
904.43	211.08
904.73	211.10
905.03	211.12
905.34	211.38
905.64	211.31
905.95	211.41
906.25	211.45
906.56	211.48
906.86	211.51
907.17	211.58
907.47	211.61
907.77	211.55
908.08	211.50
908.38	211.46
908.69	211.48
908.99	211.58
909.30	211.62
909.60	211.70
909.90	211.75
910.21	211.65
910.51	211.58
910.81	211.58
911.12	211.58
911.42	211.59
911.73	211.27
912.03	211.28
912.33	211.22
912.64	211.16
912.94	211.12
913.24	211.06
913.55	210.95
913.85	210.97
914.15	211.09
914.46	211.11
914.76	211.14
915.06	211.15
915.37	211.07
915.67	211.05
915.97	210.99
916.27	210.86
916.58	210.95
916.88	211.00
917.18	210.96
917.49	211.15
917.79	211.09
918.09	211.20
918.39	211.31
918.70	211.35
919.00	211.33
919.30	211.56
919.60	211.54
919.91	211.53
920.21	211.57
920.51	211.46
920.81	211.49
921.12	211.50
921.42	211.47
921.72	211.45
922.02	211.43
922.32	211.46
922.63	211.54
922.93	211.65
923.23	211.65
923.53	211.70
923.83	211.43
924.13	211.49
924.44	211.40
924.74	211.45
925.04	211.51
925.34	211.52
925.64	211.32
925.94	211.30
926.24	211.49
926.55	211.31
926.85	211.36
927.15	211.28
927.45	211.26
927.75	211.21
928.05	211.23
928.35	211.23
928.65	211.38
928.95	211.38
929.26	211.29
929.56	211.30
929.86	211.24
930.16	211.28
930.46	211.27
930.76	211.30
931.06	211.12
931.36	211.00
931.66	211.05
931.96	211.05
932.26	211.06
932.56	210.99
932.86	211.13
933.16	211.18
933.46	211.14
933.76	211.07
934.06	211.19
934.36	211.28
934.66	211.30
934.96	211.17
935.26	211.21
935.56	211.17
935.86	211.08
936.16	211.10
936.46	211.13
936.76	211.12
937.06	211.07
937.36	211.14
937.66	211.17
937.96	211.10
938.26	211.09
938.56	211.15
938.86	211.08
939.16	211.11
939.46	211.05
939.76	211.15
940.06	211.17
940.35	211.05
940.65	210.95
940.95	210.96
941.25	210.91
941.55	210.84
941.85	210.86
942.15	210.94
942.45	211.01
942.75	210.90
943.04	210.93
943.34	211.01
943.64	210.99
943.94	210.92
944.24	210.98
944.54	211.05
944.84	211.01
945.13	211.00
945.43	210.95
945.73	211.02
946.03	210.97
946.33	210.96
946.62	210.93
946.92	210.89
947.22	210.91
947.52	210.95
947.82	211.00
948.11	210.96
948.41	210.91
948.71	210.85
949.01	210.89
949.31	210.84
949.60	210.85
949.90	210.93
950.20	210.96
950.50	210.92
950.79	210.86
951.09	210.95
951.39	210.92
951.69	210.87
951.98	210.92
952.28	210.95
952.58	210.95
952.87	211.03
953.17	211.12
953.47	211.11
953.76	211.05
954.06	211.00
954.36	210.88
954.66	210.89
954.95	210.98
955.25	211.03
955.55	211.06
955.84	211.00
956.14	210.97
956.44	210.92
956.73	210.89
957.03	210.93
957.32	210.89
957.62	210.98
957.92	211.03
958.21	211.00
958.51	211.37
958.81	211.39
959.10	211.38
959.40	211.45
959.69	211.50
959.99	211.52
960.29	211.49
960.58	211.54
960.88	211.67
961.17	211.50
961.47	211.53
961.76	211.45
962.06	211.52
962.36	211.50
962.65	211.58
962.95	211.55
963.24	211.49
963.54	211.53
963.83	211.51
964.13	211.54
964.42	211.40
964.72	211.08
965.01	211.14
965.31	211.14
965.60	211.03
965.90	211.18
966.19	211.11
966.49	211.20
966.78	211.19
967.08	211.15
967.37	211.18
967.67	211.16
967.96	211.30
968.26	211.27
968.55	211.31
968.85	211.38
969.14	211.41
969.43	211.43
969.73	211.36
970.02	211.31
970.32	211.25
970.61	211.30
970.91	211.26
971.20	211.21
971.49	211.14
971.79	211.16
972.08	210.99
972.38	211.05
972.67	210.99
972.96	211.01
973.26	210.94
973.55	211.12
973.85	211.09
974.14	211.06
974.43	211.10
974.73	211.09
975.02	210.94
975.31	210.97
975.61	210.96
975.90	210.86
976.19	210.85
976.49	210.89
976.78	210.91
977.07	210.91
977.37	210.91
977.66	211.04
977.95	211.01
978.24	211.03
978.54	211.10
978.83	211.10
979.12	211.15
979.42	211.15
979.71	211.05
980.00	211.08
980.29	211.03
980.59	210.93
980.88	211.01
981.17	211.01
981.46	210.95
981.76	210.94
982.05	211.07
982.34	211.09
982.63	211.08
982.93	211.07
983.22	211.17
983.51	211.20
983.80	211.16
984.09	211.20
984.39	211.14
984.68	211.10
984.97	211.14
985.26	211.06
985.55	211.12
985.85	211.06
986.14	211.10
986.43	211.16
986.72	211.14
987.01	210.92
987.30	210.95
987.59	210.97
987.89	211.00
988.18	210.99
988.47	210.98
988.76	210.98
989.05	210.97
989.34	210.84
989.63	210.90
989.92	210.88
990.22	210.86
990.51	210.80
990.80	210.79
991.09	210.83
991.38	210.82
991.67	210.76
991.96	210.72
992.25	210.70
992.54	210.70
992.83	210.75
993.12	210.77
993.41	210.81
993.70	210.91
993.99	210.92
994.28	210.84
994.58	210.90
994.87	210.86
995.16	210.85
995.45	210.89
995.74	210.76
996.03	210.80
996.32	210.84
996.61	211.01
996.90	210.95
997.19	210.93
997.48	211.03
997.77	210.97
998.06	211.01
998.34	210.97
998.63	210.93
998.92	210.88
999.21	210.99
999.50	210.98
999.79	210.88
1000.08	210.91
1000.37	210.96
1000.66	210.88
1000.95	210.97
1001.24	211.01
1001.53	211.07
1001.82	211.15
1002.11	211.11
1002.40	211.13
1002.68	211.15
1002.97	211.43
1003.26	211.37
1003.55	211.31
1003.84	211.36
1004.13	211.50
1004.42	211.49
1004.71	211.44
1004.99	211.45
1005.28	211.56
1005.57	211.56
1005.86	211.58
1006.15	211.50
1006.44	211.45
1006.72	211.49
1007.01	211.40
1007.30	211.39
1007.59	211.35
1007.88	211.24
1008.17	211.29
1008.45	211.23
1008.74	211.11
1009.03	210.97
1009.32	210.96
1009.60	210.90
1009.89	210.90
1010.18	210.78
1010.47	210.78
1010.76	210.85
1011.04	210.85
1011.33	210.83
1011.62	210.83
1011.91	210.82
1012.19	210.86
1012.48	210.95
1012.77	210.96
1013.05	211.14
1013.34	211.17
1013.63	211.15
1013.92	211.27
1014.20	211.18
1014.49	211.17
1014.78	211.24
1015.06	211.13
1015.35	211.06
1015.64	211.18
1015.92	211.21
1016.21	211.19
1016.50	211.17
1016.78	211.20
1017.07	211.23
1017.36	211.17
1017.64	211.16
1017.93	211.19
1018.22	211.20
1018.50	211.17
1018.79	211.17
1019.08	211.06
1019.36	211.10
1019.65	211.07
1019.93	211.10
1020.22	211.18
1020.51	211.37
1020.79	211.29
1021.08	210.85
1021.36	210.80
1021.65	210.95
1021.94	211.90
1022.22	211.85
1022.51	210.75
1022.79	212.65
1023.08	211.30
1023.36	214.75
1023.65	210.40
>>>>>End Processed Spectral Data<<<<<
