SpectraSuite Data File
++++++++++++++++++++++++++++++++++++
Date: Mon Feb 25 17:07:57 EST 2013
User: group
Dark Spectrum Present: No
Reference Spectrum Present: No
Number of Sampled Component Spectra: 1
Spectrometers: USB2E7196
Integration Time (usec): 104000 (USB2E7196)
Spectra Averaged: 20 (USB2E7196)
Boxcar Smoothing: 10 (USB2E7196)
Correct for Electrical Dark: No (USB2E7196)
Strobe/Lamp Enabled: No (USB2E7196)
Correct for Detector Non-linearity: No (USB2E7196)
Correct for Stray Light: No (USB2E7196)
Number of Pixels in Processed Spectrum: 2048
>>>>>Begin Processed Spectral Data<<<<<
339.09	0.00
339.48	198.50
339.86	200.70
340.24	201.50
340.63	204.25
341.01	210.45
341.39	204.95
341.78	206.75
342.16	209.40
342.54	209.95
342.93	198.55
343.31	208.49
343.69	209.02
344.07	209.49
344.46	210.01
344.84	210.30
345.22	210.32
345.60	210.62
345.99	210.77
346.37	210.81
346.75	210.79
347.13	210.92
347.52	210.88
347.90	210.99
348.28	210.86
348.66	210.95
349.05	210.82
349.43	210.92
349.81	210.90
350.19	210.93
350.57	210.95
350.96	210.95
351.34	211.10
351.72	211.19
352.10	211.19
352.48	211.17
352.87	211.23
353.25	211.18
353.63	211.16
354.01	211.19
354.39	211.32
354.77	211.42
355.15	211.54
355.54	211.55
355.92	211.41
356.30	211.56
356.68	211.81
357.06	211.85
357.44	211.75
357.82	211.86
358.20	211.91
358.58	211.93
358.97	212.03
359.35	212.12
359.73	212.22
360.11	212.31
360.49	212.34
360.87	212.37
361.25	212.51
361.63	212.70
362.01	212.82
362.39	212.85
362.77	212.91
363.15	212.93
363.53	213.02
363.91	213.13
364.29	213.08
364.67	212.77
365.05	212.81
365.43	212.96
365.81	213.02
366.19	213.20
366.57	213.33
366.95	213.29
367.33	213.24
367.71	213.19
368.09	213.19
368.47	213.25
368.85	213.23
369.23	213.32
369.61	213.15
369.99	213.26
370.37	213.24
370.75	213.33
371.13	213.19
371.51	213.06
371.89	213.09
372.27	213.13
372.65	213.13
373.03	213.05
373.41	212.99
373.78	212.92
374.16	212.70
374.54	212.61
374.92	212.59
375.30	212.53
375.68	212.52
376.06	212.56
376.44	212.44
376.82	212.38
377.19	212.28
377.57	212.24
377.95	212.06
378.33	211.97
378.71	211.74
379.09	211.78
379.47	211.81
379.84	211.74
380.22	211.70
380.60	211.60
380.98	211.54
381.36	211.51
381.73	211.39
382.11	211.38
382.49	211.33
382.87	211.21
383.25	211.17
383.62	211.48
384.00	211.33
384.38	211.34
384.76	211.37
385.13	211.45
385.51	211.44
385.89	211.35
386.27	211.33
386.64	211.39
387.02	211.30
387.40	211.29
387.78	211.21
388.15	211.14
388.53	211.08
388.91	211.12
389.29	211.00
389.66	211.06
390.04	210.98
390.42	210.98
390.79	210.97
391.17	210.93
391.55	210.45
391.92	210.38
392.30	210.38
392.68	210.30
393.05	210.22
393.43	210.22
393.81	210.18
394.18	210.05
394.56	210.01
394.94	210.05
395.31	210.00
395.69	210.14
396.06	210.15
396.44	210.17
396.82	210.04
397.19	210.25
397.57	210.18
397.95	210.28
398.32	210.19
398.70	210.22
399.07	210.33
399.45	210.37
399.82	210.46
400.20	210.40
400.58	210.40
400.95	210.29
401.33	210.36
401.70	210.65
402.08	210.75
402.45	210.81
402.83	210.91
403.20	211.00
403.58	211.02
403.95	211.15
404.33	211.25
404.71	211.38
405.08	211.63
405.46	211.74
405.83	211.83
406.21	211.89
406.58	212.02
406.96	212.08
407.33	212.30
407.70	212.43
408.08	212.82
408.45	213.06
408.83	213.31
409.20	213.46
409.58	213.45
409.95	213.75
410.33	214.00
410.70	214.15
411.08	214.35
411.45	214.60
411.82	214.80
412.20	215.17
412.57	215.63
412.95	215.63
413.32	216.07
413.69	216.48
414.07	216.98
414.44	217.39
414.82	217.79
415.19	218.25
415.56	218.87
415.94	219.32
416.31	220.01
416.68	220.68
417.06	221.37
417.43	222.22
417.81	223.00
418.18	223.79
418.55	224.69
418.93	225.73
419.30	226.65
419.67	227.70
420.04	228.74
420.42	229.86
420.79	231.45
421.16	232.74
421.54	234.21
421.91	235.55
422.28	237.05
422.66	238.68
423.03	240.45
423.40	241.97
423.77	243.65
424.15	245.25
424.52	247.04
424.89	249.01
425.26	250.83
425.64	252.58
426.01	254.55
426.38	256.67
426.75	258.85
427.13	261.01
427.50	263.31
427.87	265.66
428.24	267.96
428.61	270.06
428.99	272.69
429.36	275.24
429.73	277.99
430.10	280.70
430.47	283.43
430.85	286.20
431.22	289.19
431.59	292.56
431.96	295.67
432.33	299.03
432.70	302.37
433.08	306.27
433.45	310.03
433.82	313.84
434.19	317.89
434.56	321.79
434.93	325.66
435.30	329.41
435.68	333.79
436.05	338.05
436.42	342.18
436.79	346.00
437.16	350.04
437.53	354.36
437.90	358.69
438.27	363.00
438.64	367.29
439.01	371.48
439.38	374.96
439.75	378.40
440.13	382.43
440.50	386.17
440.87	389.31
441.24	392.45
441.61	395.96
441.98	398.56
442.35	401.67
442.72	404.84
443.09	408.09
443.46	409.94
443.83	411.27
444.20	412.43
444.57	413.97
444.94	414.90
445.31	415.88
445.68	417.05
446.05	417.47
446.42	417.34
446.79	417.11
447.16	416.74
447.53	416.70
447.90	415.35
448.27	414.03
448.64	412.02
449.01	410.61
449.37	407.86
449.74	405.27
450.11	402.30
450.48	398.83
450.85	395.20
451.22	392.12
451.59	389.28
451.96	386.55
452.33	382.90
452.70	379.53
453.07	375.33
453.43	370.86
453.80	366.92
454.17	362.99
454.54	359.24
454.91	355.28
455.28	351.39
455.65	347.76
456.02	344.62
456.38	341.52
456.75	337.79
457.12	334.63
457.49	331.63
457.86	328.40
458.23	325.89
458.59	323.09
458.96	320.22
459.33	317.60
459.70	315.05
460.07	312.99
460.43	310.66
460.80	308.52
461.17	306.76
461.54	304.77
461.91	302.92
462.27	301.00
462.64	299.38
463.01	297.58
463.38	295.97
463.74	293.75
464.11	292.18
464.48	290.84
464.85	289.40
465.21	288.30
465.58	287.13
465.95	285.59
466.32	284.33
466.68	283.11
467.05	281.93
467.42	280.71
467.78	279.43
468.15	278.34
468.52	277.50
468.88	276.20
469.25	275.13
469.62	274.32
469.98	273.44
470.35	272.54
470.72	271.69
471.08	270.69
471.45	269.99
471.82	269.31
472.18	268.51
472.55	267.89
472.92	267.13
473.28	266.47
473.65	265.90
474.02	265.35
474.38	265.00
474.75	264.57
475.11	264.15
475.48	263.73
475.85	263.21
476.21	262.85
476.58	262.47
476.94	262.22
477.31	261.90
477.67	261.50
478.04	261.41
478.41	261.32
478.77	261.55
479.14	261.42
479.50	261.23
479.87	261.18
480.23	261.12
480.60	261.07
480.96	261.09
481.33	261.23
481.69	261.22
482.06	261.18
482.42	261.21
482.79	261.33
483.15	261.51
483.52	261.93
483.88	262.12
484.25	262.41
484.61	262.53
484.98	262.77
485.34	263.19
485.71	263.53
486.07	263.90
486.44	263.94
486.80	264.28
487.17	264.66
487.53	265.26
487.90	265.81
488.26	266.47
488.62	267.08
488.99	267.56
489.35	268.15
489.72	268.80
490.08	269.44
490.44	270.07
490.81	270.87
491.17	271.50
491.54	272.39
491.90	273.34
492.26	274.37
492.63	275.34
492.99	276.27
493.36	277.30
493.72	278.45
494.08	279.58
494.45	280.77
494.81	282.06
495.17	283.12
495.54	284.52
495.90	285.76
496.26	287.15
496.63	288.60
496.99	290.12
497.35	291.60
497.72	293.30
498.08	294.94
498.44	296.49
498.80	298.33
499.17	300.00
499.53	301.75
499.89	303.55
500.26	305.41
500.62	307.24
500.98	309.17
501.34	310.96
501.71	312.99
502.07	314.98
502.43	317.08
502.79	319.13
503.16	321.14
503.52	323.36
503.88	325.37
504.24	327.54
504.60	329.78
504.97	332.08
505.33	334.23
505.69	336.67
506.05	339.11
506.41	341.44
506.78	343.77
507.14	346.02
507.50	348.48
507.86	350.95
508.22	353.55
508.59	356.02
508.95	358.67
509.31	361.42
509.67	364.12
510.03	366.78
510.39	369.54
510.75	372.31
511.12	375.01
511.48	378.00
511.84	380.95
512.20	383.77
512.56	386.75
512.92	389.79
513.28	392.80
513.64	395.76
514.00	398.75
514.37	401.91
514.73	405.24
515.09	408.40
515.45	411.46
515.81	414.69
516.17	418.00
516.53	421.20
516.89	424.13
517.25	427.32
517.61	430.76
517.97	434.00
518.33	437.34
518.69	440.72
519.05	444.18
519.41	447.63
519.77	451.40
520.13	454.84
520.49	458.30
520.85	461.85
521.21	465.63
521.57	469.35
521.93	472.83
522.29	476.41
522.65	480.04
523.01	483.72
523.37	487.34
523.73	490.90
524.09	494.68
524.45	498.63
524.81	502.61
525.17	506.40
525.53	510.38
525.89	514.36
526.25	518.33
526.61	522.11
526.97	525.83
527.33	529.82
527.68	534.29
528.04	538.42
528.40	542.25
528.76	546.05
529.12	550.23
529.48	554.55
529.84	558.65
530.20	562.92
530.56	567.18
530.91	571.60
531.27	575.94
531.63	580.30
531.99	584.48
532.35	588.56
532.71	592.70
533.07	597.15
533.42	601.66
533.78	605.93
534.14	610.13
534.50	614.39
534.86	618.50
535.21	622.06
535.57	626.20
535.93	630.46
536.29	634.79
536.65	638.84
537.00	642.78
537.36	646.67
537.72	650.40
538.08	654.44
538.44	658.09
538.79	662.28
539.15	666.03
539.51	669.87
539.87	673.92
540.22	677.81
540.58	681.70
540.94	685.31
541.29	688.93
541.65	692.45
542.01	696.08
542.37	699.67
542.72	703.52
543.08	707.04
543.44	710.64
543.79	713.83
544.15	717.09
544.51	720.69
544.87	724.34
545.22	727.85
545.58	730.89
545.94	734.10
546.29	736.87
546.65	739.87
547.01	742.97
547.36	745.84
547.72	748.94
548.07	751.59
548.43	754.14
548.79	756.68
549.14	759.40
549.50	762.18
549.86	764.40
550.21	766.76
550.57	769.20
550.92	771.31
551.28	773.79
551.64	776.08
551.99	778.20
552.35	780.30
552.70	782.32
553.06	784.55
553.41	786.51
553.77	788.85
554.13	790.74
554.48	792.66
554.84	794.72
555.19	796.24
555.55	798.08
555.90	799.55
556.26	801.12
556.61	802.79
556.97	804.02
557.32	805.57
557.68	806.81
558.03	808.17
558.39	809.54
558.74	810.86
559.10	812.18
559.45	813.37
559.81	814.61
560.16	815.68
560.52	816.81
560.87	818.16
561.23	818.87
561.58	820.38
561.94	821.15
562.29	821.83
562.64	822.77
563.00	823.53
563.35	824.70
563.71	825.78
564.06	826.60
564.42	827.74
564.77	828.87
565.12	830.04
565.48	831.16
565.83	832.15
566.19	832.89
566.54	833.31
566.89	833.81
567.25	834.43
567.60	835.19
567.96	836.04
568.31	836.61
568.66	837.17
569.02	837.02
569.37	837.20
569.72	837.46
570.08	837.47
570.43	837.54
570.78	837.30
571.14	837.06
571.49	836.77
571.84	836.41
572.20	835.92
572.55	835.46
572.90	834.45
573.26	833.74
573.61	832.96
573.96	832.29
574.31	831.50
574.67	830.67
575.02	829.62
575.37	828.21
575.72	826.77
576.08	825.63
576.43	824.67
576.78	823.80
577.13	822.84
577.49	821.99
577.84	820.82
578.19	819.98
578.54	819.21
578.90	818.37
579.25	817.37
579.60	815.93
579.95	814.69
580.30	813.93
580.66	812.86
581.01	811.73
581.36	810.63
581.71	809.49
582.06	808.35
582.42	807.23
582.77	806.05
583.12	805.11
583.47	804.18
583.82	802.98
584.17	801.72
584.53	800.66
584.88	799.32
585.23	798.38
585.58	797.08
585.93	795.76
586.28	794.61
586.63	793.28
586.98	792.33
587.34	791.19
587.69	789.69
588.04	788.41
588.39	787.26
588.74	785.83
589.09	784.75
589.44	783.10
589.79	781.87
590.14	780.67
590.49	779.30
590.84	777.70
591.19	776.64
591.54	775.32
591.89	773.51
592.25	772.20
592.60	770.43
592.95	768.75
593.30	767.13
593.65	765.16
594.00	763.49
594.35	762.88
594.70	761.22
595.05	759.80
595.40	758.13
595.75	756.26
596.10	754.99
596.45	753.39
596.80	752.15
597.15	750.71
597.50	749.10
597.85	747.64
598.19	746.04
598.54	744.15
598.89	742.62
599.24	741.30
599.59	739.77
599.94	738.43
600.29	736.96
600.64	735.41
600.99	733.96
601.34	732.72
601.69	730.36
602.04	728.71
602.39	726.96
602.74	725.56
603.08	724.35
603.43	723.20
603.78	721.58
604.13	720.15
604.48	718.49
604.83	717.17
605.18	715.85
605.53	714.25
605.87	712.89
606.22	711.58
606.57	710.06
606.92	708.64
607.27	707.02
607.62	705.45
607.96	704.06
608.31	702.90
608.66	701.18
609.01	699.32
609.36	697.62
609.70	695.92
610.05	694.11
610.40	692.16
610.75	689.82
611.10	688.19
611.44	685.84
611.79	683.76
612.14	681.55
612.49	679.04
612.83	677.26
613.18	675.06
613.53	672.74
613.88	670.45
614.22	668.19
614.57	666.00
614.92	663.88
615.27	661.46
615.61	659.01
615.96	656.86
616.31	654.76
616.65	652.95
617.00	650.90
617.35	648.69
617.70	646.50
618.04	644.17
618.39	641.53
618.74	639.53
619.08	637.29
619.43	635.02
619.78	633.02
620.12	630.57
620.47	628.43
620.82	625.97
621.16	623.58
621.51	621.30
621.85	618.87
622.20	616.49
622.55	614.22
622.89	611.81
623.24	609.49
623.59	607.12
623.93	604.67
624.28	602.44
624.62	600.50
624.97	598.49
625.32	596.45
625.66	594.52
626.01	592.30
626.35	590.19
626.70	588.20
627.04	586.31
627.39	584.24
627.73	582.13
628.08	580.18
628.43	577.84
628.77	575.58
629.12	573.39
629.46	571.48
629.81	569.35
630.15	567.27
630.50	565.04
630.84	562.81
631.19	560.49
631.53	558.26
631.88	555.74
632.22	553.36
632.57	551.32
632.91	549.09
633.26	547.06
633.60	545.02
633.95	542.86
634.29	540.53
634.64	538.44
634.98	536.17
635.32	534.25
635.67	532.64
636.01	530.60
636.36	528.69
636.70	526.67
637.05	524.73
637.39	522.72
637.73	520.78
638.08	519.21
638.42	517.51
638.77	515.66
639.11	513.62
639.45	511.64
639.80	509.48
640.14	507.40
640.49	505.25
640.83	503.16
641.17	501.18
641.52	499.14
641.86	497.05
642.20	495.25
642.55	492.95
642.89	490.67
643.23	488.74
643.58	486.97
643.92	484.88
644.26	482.87
644.61	480.99
644.95	479.00
645.29	476.84
645.64	474.76
645.98	472.65
646.32	470.86
646.66	468.79
647.01	466.90
647.35	465.00
647.69	462.90
648.04	460.93
648.38	458.94
648.72	457.04
649.06	455.14
649.41	453.00
649.75	451.03
650.09	449.20
650.43	447.28
650.78	445.06
651.12	443.03
651.46	441.08
651.80	439.11
652.14	437.21
652.49	435.34
652.83	433.40
653.17	431.37
653.51	429.40
653.85	427.60
654.20	425.72
654.54	423.73
654.88	421.98
655.22	420.20
655.56	418.24
655.90	416.19
656.25	414.20
656.59	412.39
656.93	410.68
657.27	408.95
657.61	406.87
657.95	405.20
658.29	403.40
658.64	401.73
658.98	399.88
659.32	398.00
659.66	396.25
660.00	394.39
660.34	392.70
660.68	390.91
661.02	389.20
661.36	387.55
661.70	385.91
662.05	384.18
662.39	382.69
662.73	381.27
663.07	379.94
663.41	378.55
663.75	376.96
664.09	375.49
664.43	373.86
664.77	372.42
665.11	370.82
665.45	369.44
665.79	367.91
666.13	366.40
666.47	364.99
666.81	363.55
667.15	362.11
667.49	360.90
667.83	359.65
668.17	358.22
668.51	356.80
668.85	355.57
669.19	354.48
669.53	352.95
669.87	351.53
670.21	350.10
670.55	348.73
670.89	347.71
671.23	346.50
671.57	345.28
671.91	344.15
672.25	342.91
672.58	341.69
672.92	340.39
673.26	339.29
673.60	338.07
673.94	336.71
674.28	335.60
674.62	334.42
674.96	333.19
675.30	332.16
675.64	331.17
675.97	329.96
676.31	328.76
676.65	327.75
676.99	326.84
677.33	325.73
677.67	324.70
678.01	323.45
678.34	322.41
678.68	321.32
679.02	320.25
679.36	319.23
679.70	318.16
680.04	317.24
680.37	316.27
680.71	315.33
681.05	314.45
681.39	313.48
681.73	312.43
682.06	311.41
682.40	310.49
682.74	309.49
683.08	308.81
683.42	307.73
683.75	306.78
684.09	305.68
684.43	304.75
684.77	303.78
685.10	302.89
685.44	301.82
685.78	300.89
686.12	300.05
686.45	299.14
686.79	298.24
687.13	297.35
687.46	296.50
687.80	295.71
688.14	294.80
688.48	294.00
688.81	293.13
689.15	292.48
689.49	291.55
689.82	290.72
690.16	289.59
690.50	288.84
690.83	287.99
691.17	287.15
691.51	286.42
691.84	285.68
692.18	284.89
692.52	284.13
692.85	283.49
693.19	282.79
693.52	282.08
693.86	281.29
694.20	280.62
694.53	279.85
694.87	279.06
695.21	278.31
695.54	277.56
695.88	276.89
696.21	275.93
696.55	275.25
696.88	274.52
697.22	273.85
697.56	273.29
697.89	272.60
698.23	271.93
698.56	271.23
698.90	270.63
699.23	269.95
699.57	269.34
699.90	268.57
700.24	267.94
700.58	267.28
700.91	266.81
701.25	266.47
701.58	265.95
701.92	265.43
702.25	264.90
702.59	264.29
702.92	263.65
703.26	263.25
703.59	262.71
703.93	262.47
704.26	262.05
704.60	261.49
704.93	260.83
705.26	260.28
705.60	259.76
705.93	259.19
706.27	258.82
706.60	258.45
706.94	258.14
707.27	257.44
707.61	257.03
707.94	256.45
708.27	255.61
708.61	255.00
708.94	254.45
709.28	254.01
709.61	253.47
709.94	253.08
710.28	252.57
710.61	252.17
710.95	251.37
711.28	251.09
711.61	250.62
711.95	250.46
712.28	250.02
712.61	249.64
712.95	249.41
713.28	249.06
713.61	248.49
713.95	247.97
714.28	247.70
714.61	247.16
714.95	246.73
715.28	246.32
715.61	245.97
715.95	245.66
716.28	245.22
716.61	244.97
716.95	244.53
717.28	244.18
717.61	243.82
717.94	243.56
718.28	243.06
718.61	242.78
718.94	242.35
719.27	242.06
719.61	241.69
719.94	241.24
720.27	240.72
720.60	240.47
720.94	240.13
721.27	239.78
721.60	239.61
721.93	239.38
722.27	239.35
722.60	239.09
722.93	238.74
723.26	238.52
723.59	238.17
723.93	237.94
724.26	237.72
724.59	237.39
724.92	237.08
725.25	236.80
725.59	236.48
725.92	236.23
726.25	235.97
726.58	235.76
726.91	235.52
727.24	235.36
727.57	235.11
727.91	234.87
728.24	234.68
728.57	234.42
728.90	234.21
729.23	233.89
729.56	233.80
729.89	233.62
730.22	233.34
730.55	233.18
730.89	232.99
731.22	232.79
731.55	232.60
731.88	232.36
732.21	232.11
732.54	231.80
732.87	231.61
733.20	231.39
733.53	231.19
733.86	231.04
734.19	230.82
734.52	230.68
734.85	230.76
735.18	230.52
735.51	230.43
735.84	230.27
736.17	230.10
736.50	229.72
736.83	229.90
737.16	229.72
737.49	229.50
737.82	229.27
738.15	229.09
738.48	228.84
738.81	228.66
739.14	228.55
739.47	228.47
739.80	228.26
740.13	228.19
740.46	227.90
740.79	227.60
741.12	227.45
741.45	227.20
741.78	226.79
742.11	226.76
742.44	226.50
742.77	226.33
743.10	226.07
743.43	225.94
743.75	225.37
744.08	225.72
744.41	225.62
744.74	225.48
745.07	225.21
745.40	225.12
745.73	225.20
746.06	224.96
746.39	224.90
746.71	224.73
747.04	224.52
747.37	224.45
747.70	224.37
748.03	224.22
748.36	224.14
748.68	224.01
749.01	223.75
749.34	223.67
749.67	223.55
750.00	223.44
750.33	223.55
750.65	223.53
750.98	222.92
751.31	222.71
751.64	222.62
751.97	222.71
752.29	222.63
752.62	222.32
752.95	222.14
753.28	221.94
753.60	221.79
753.93	221.72
754.26	221.64
754.59	221.48
754.91	221.31
755.24	221.22
755.57	221.07
755.90	221.04
756.22	220.89
756.55	220.76
756.88	220.60
757.20	220.26
757.53	220.03
757.86	219.92
758.19	219.92
758.51	219.80
758.84	219.54
759.17	219.38
759.49	219.27
759.82	219.45
760.15	219.36
760.47	219.24
760.80	219.10
761.13	219.07
761.45	218.91
761.78	218.83
762.11	218.76
762.43	218.65
762.76	218.50
763.08	218.43
763.41	218.38
763.74	218.32
764.06	218.24
764.39	218.19
764.71	218.11
765.04	217.95
765.37	217.85
765.69	217.79
766.02	217.69
766.34	217.61
766.67	217.41
767.00	217.40
767.32	217.58
767.65	217.69
767.97	217.53
768.30	217.60
768.62	217.56
768.95	217.34
769.27	217.28
769.60	217.24
769.92	217.15
770.25	217.00
770.57	216.93
770.90	216.90
771.22	216.77
771.55	216.77
771.87	216.75
772.20	216.67
772.52	216.89
772.85	217.28
773.17	217.27
773.50	217.18
773.82	217.01
774.15	216.78
774.47	216.49
774.80	216.43
775.12	216.21
775.45	216.12
775.77	216.18
776.09	216.18
776.42	216.17
776.74	216.19
777.07	216.12
777.39	216.02
777.72	215.91
778.04	215.91
778.36	215.80
778.69	215.77
779.01	215.79
779.33	215.46
779.66	215.07
779.98	214.99
780.31	215.02
780.63	215.15
780.95	215.22
781.28	215.15
781.60	215.09
781.92	215.19
782.25	215.15
782.57	215.11
782.89	215.10
783.22	215.01
783.54	214.88
783.86	214.95
784.19	214.86
784.51	214.92
784.83	214.85
785.16	214.78
785.48	214.71
785.80	214.65
786.12	214.68
786.45	214.59
786.77	214.60
787.09	214.48
787.42	214.32
787.74	214.28
788.06	214.26
788.38	214.22
788.71	214.13
789.03	214.13
789.35	214.11
789.67	214.02
789.99	214.05
790.32	214.00
790.64	213.95
790.96	214.28
791.28	214.15
791.61	214.20
791.93	214.21
792.25	214.19
792.57	214.46
792.89	214.32
793.21	214.32
793.54	214.15
793.86	214.12
794.18	214.07
794.50	213.94
794.82	213.99
795.14	214.02
795.47	214.09
795.79	214.09
796.11	214.02
796.43	213.97
796.75	213.89
797.07	213.90
797.39	213.80
797.71	213.49
798.04	213.59
798.36	213.52
798.68	213.48
799.00	213.52
799.32	213.30
799.64	213.33
799.96	213.34
800.28	213.47
800.60	213.46
800.92	213.49
801.24	213.47
801.56	213.49
801.89	213.49
802.21	213.47
802.53	213.35
802.85	213.38
803.17	213.56
803.49	213.50
803.81	213.45
804.13	213.44
804.45	213.44
804.77	213.34
805.09	213.29
805.41	213.25
805.73	213.10
806.05	213.00
806.37	213.03
806.69	212.97
807.01	212.90
807.33	212.86
807.65	212.76
807.97	212.93
808.28	212.85
808.60	212.75
808.92	212.65
809.24	212.86
809.56	212.80
809.88	212.59
810.20	212.57
810.52	212.65
810.84	212.62
811.16	212.57
811.48	212.57
811.80	212.65
812.12	212.65
812.43	212.73
812.75	212.68
813.07	212.55
813.39	212.51
813.71	212.52
814.03	212.48
814.35	212.48
814.67	212.32
814.98	212.32
815.30	212.31
815.62	212.27
815.94	212.07
816.26	212.01
816.58	211.94
816.89	211.95
817.21	211.88
817.53	211.88
817.85	211.89
818.17	211.82
818.48	211.75
818.80	211.75
819.12	211.75
819.44	211.72
819.76	211.72
820.07	211.70
820.39	211.67
820.71	211.80
821.03	211.87
821.34	211.83
821.66	211.88
821.98	211.94
822.30	211.97
822.61	212.13
822.93	212.19
823.25	212.21
823.57	212.18
823.88	212.21
824.20	212.24
824.52	212.31
824.83	212.26
825.15	212.16
825.47	212.17
825.79	212.16
826.10	212.20
826.42	212.21
826.74	212.31
827.05	212.29
827.37	212.27
827.69	212.14
828.00	212.21
828.32	212.15
828.64	212.05
828.95	212.18
829.27	212.10
829.58	212.11
829.90	212.18
830.22	212.19
830.53	212.08
830.85	211.99
831.17	211.89
831.48	211.95
831.80	212.03
832.11	212.00
832.43	211.93
832.75	211.85
833.06	212.05
833.38	211.86
833.69	211.79
834.01	211.76
834.32	211.79
834.64	211.68
834.96	211.65
835.27	211.67
835.59	211.55
835.90	211.48
836.22	211.43
836.53	211.40
836.85	211.45
837.16	211.84
837.48	211.79
837.79	211.86
838.11	211.90
838.42	211.94
838.74	211.99
839.05	211.99
839.37	211.95
839.68	211.80
840.00	211.83
840.31	211.86
840.63	211.79
840.94	211.70
841.26	211.64
841.57	211.61
841.88	211.73
842.20	211.61
842.51	211.57
842.83	211.61
843.14	211.86
843.46	211.80
843.77	211.52
844.08	211.64
844.40	211.56
844.71	211.54
845.03	211.51
845.34	211.48
845.65	211.45
845.97	211.52
846.28	211.47
846.60	211.50
846.91	211.48
847.22	211.48
847.54	211.56
847.85	211.70
848.16	211.74
848.48	211.55
848.79	211.80
849.10	211.84
849.42	211.76
849.73	211.44
850.04	211.41
850.36	211.30
850.67	211.28
850.98	211.34
851.30	211.36
851.61	211.35
851.92	211.35
852.23	211.56
852.55	211.57
852.86	211.57
853.17	211.62
853.49	211.70
853.80	211.77
854.11	211.82
854.42	211.81
854.74	211.74
855.05	211.80
855.36	211.58
855.67	211.66
855.99	211.72
856.30	212.20
856.61	212.18
856.92	212.17
857.23	212.17
857.55	212.07
857.86	211.95
858.17	211.96
858.48	211.89
858.79	211.79
859.11	211.78
859.42	211.85
859.73	211.83
860.04	211.83
860.35	211.70
860.66	211.64
860.98	211.58
861.29	211.67
861.60	211.67
861.91	211.82
862.22	211.71
862.53	211.65
862.84	211.29
863.16	211.39
863.47	211.38
863.78	211.39
864.09	211.46
864.40	211.57
864.71	211.55
865.02	211.62
865.33	211.59
865.64	211.52
865.95	211.41
866.27	211.65
866.58	211.61
866.89	211.69
867.20	211.63
867.51	211.60
867.82	211.56
868.13	211.64
868.44	211.51
868.75	211.52
869.06	211.59
869.37	211.59
869.68	211.47
869.99	211.55
870.30	211.60
870.61	211.59
870.92	211.51
871.23	211.45
871.54	211.47
871.85	211.50
872.16	211.59
872.47	211.56
872.78	211.32
873.09	211.36
873.40	211.37
873.71	211.48
874.02	211.50
874.33	211.48
874.64	211.40
874.95	211.51
875.26	211.46
875.56	211.42
875.87	211.36
876.18	211.35
876.49	211.68
876.80	211.61
877.11	211.57
877.42	211.62
877.73	211.68
878.04	211.63
878.35	211.63
878.66	211.63
878.96	211.60
879.27	211.53
879.58	211.53
879.89	211.49
880.20	211.48
880.51	211.46
880.82	211.42
881.12	211.44
881.43	211.35
881.74	211.32
882.05	211.28
882.36	211.27
882.67	211.33
882.97	210.97
883.28	210.97
883.59	210.90
883.90	210.87
884.21	210.92
884.51	210.88
884.82	210.86
885.13	210.88
885.44	210.97
885.74	210.99
886.05	211.00
886.36	211.00
886.67	210.87
886.98	211.10
887.28	211.15
887.59	211.14
887.90	211.16
888.20	211.19
888.51	211.25
888.82	211.21
889.13	211.23
889.43	211.49
889.74	211.47
890.05	211.50
890.35	211.57
890.66	211.52
890.97	211.49
891.28	211.44
891.58	211.38
891.89	211.38
892.20	211.36
892.50	211.32
892.81	211.35
893.12	211.35
893.42	211.12
893.73	211.15
894.04	211.17
894.34	211.18
894.65	211.14
894.95	211.11
895.26	211.21
895.57	211.34
895.87	211.00
896.18	211.10
896.48	211.15
896.79	211.07
897.10	211.05
897.40	211.12
897.71	211.18
898.01	211.11
898.32	211.14
898.63	211.14
898.93	211.13
899.24	211.11
899.54	211.19
899.85	211.19
900.15	211.16
900.46	211.17
900.76	211.17
901.07	211.17
901.38	211.18
901.68	211.17
901.99	211.03
902.29	211.16
902.60	211.04
902.90	211.03
903.21	211.09
903.51	211.17
903.82	211.23
904.12	211.21
904.43	211.30
904.73	211.30
905.03	211.30
905.34	211.66
905.64	211.65
905.95	211.63
906.25	211.65
906.56	211.66
906.86	211.67
907.17	211.70
907.47	211.76
907.77	211.70
908.08	211.65
908.38	211.75
908.69	211.72
908.99	211.87
909.30	211.88
909.60	211.85
909.90	211.81
910.21	211.75
910.51	211.70
910.81	211.70
911.12	211.70
911.42	211.73
911.73	211.36
912.03	211.36
912.33	211.44
912.64	211.42
912.94	211.37
913.24	211.27
913.55	211.25
913.85	211.24
914.15	211.35
914.46	211.37
914.76	211.23
915.06	211.19
915.37	211.12
915.67	211.11
915.97	211.09
916.27	211.05
916.58	211.05
916.88	211.09
917.18	211.11
917.49	211.31
917.79	211.30
918.09	211.31
918.39	211.41
918.70	211.41
919.00	211.49
919.30	211.70
919.60	211.73
919.91	211.70
920.21	211.70
920.51	211.63
920.81	211.65
921.12	211.75
921.42	211.70
921.72	211.66
922.02	211.62
922.32	211.72
922.63	211.68
922.93	211.79
923.23	211.85
923.53	211.76
923.83	211.49
924.13	211.52
924.44	211.55
924.74	211.60
925.04	211.59
925.34	211.55
925.64	211.39
925.94	211.35
926.24	211.53
926.55	211.42
926.85	211.42
927.15	211.40
927.45	211.37
927.75	211.42
928.05	211.47
928.35	211.50
928.65	211.45
928.95	211.45
929.26	211.34
929.56	211.36
929.86	211.38
930.16	211.42
930.46	211.35
930.76	211.30
931.06	211.12
931.36	211.10
931.66	211.16
931.96	211.18
932.26	211.20
932.56	210.98
932.86	211.10
933.16	211.14
933.46	211.08
933.76	211.01
934.06	211.13
934.36	211.19
934.66	211.16
934.96	211.16
935.26	211.14
935.56	211.20
935.86	211.02
936.16	210.95
936.46	210.91
936.76	210.96
937.06	211.00
937.36	210.99
937.66	210.96
937.96	210.90
938.26	210.87
938.56	210.83
938.86	210.88
939.16	210.94
939.46	210.92
939.76	210.95
940.06	210.92
940.35	210.79
940.65	210.62
940.95	210.66
941.25	210.61
941.55	210.60
941.85	210.53
942.15	210.63
942.45	210.78
942.75	210.78
943.04	210.79
943.34	210.82
943.64	210.83
943.94	210.75
944.24	210.71
944.54	210.70
944.84	210.69
945.13	210.68
945.43	210.59
945.73	210.56
946.03	210.57
946.33	210.53
946.62	210.48
946.92	210.43
947.22	210.47
947.52	210.50
947.82	210.59
948.11	210.60
948.41	210.52
948.71	210.44
949.01	210.44
949.31	210.38
949.60	210.35
949.90	210.37
950.20	210.35
950.50	210.37
950.79	210.33
951.09	210.42
951.39	210.37
951.69	210.38
951.98	210.45
952.28	210.47
952.58	210.55
952.87	210.49
953.17	210.62
953.47	210.54
953.76	210.51
954.06	210.40
954.36	210.31
954.66	210.31
954.95	210.36
955.25	210.44
955.55	210.55
955.84	210.41
956.14	210.37
956.44	210.40
956.73	210.40
957.03	210.45
957.32	210.45
957.62	210.43
957.92	210.44
958.21	210.35
958.51	210.71
958.81	210.72
959.10	210.82
959.40	210.81
959.69	210.87
959.99	210.94
960.29	210.92
960.58	210.90
960.88	211.01
961.17	210.99
961.47	210.92
961.76	210.84
962.06	211.02
962.36	211.08
962.65	211.16
962.95	211.19
963.24	211.18
963.54	211.13
963.83	211.19
964.13	211.18
964.42	211.20
964.72	210.91
965.01	210.92
965.31	210.95
965.60	210.93
965.90	211.12
966.19	211.03
966.49	211.13
966.78	211.21
967.08	211.29
967.37	211.25
967.67	211.31
967.96	211.27
968.26	211.23
968.55	211.25
968.85	211.25
969.14	211.32
969.43	211.33
969.73	211.35
970.02	211.36
970.32	211.41
970.61	211.32
970.91	211.24
971.20	211.17
971.49	211.12
971.79	211.19
972.08	210.99
972.38	211.00
972.67	210.99
972.96	211.07
973.26	210.95
973.55	211.11
973.85	211.05
974.14	211.14
974.43	211.20
974.73	211.25
975.02	211.18
975.31	211.04
975.61	211.00
975.90	211.00
976.19	210.95
976.49	211.02
976.78	211.10
977.07	211.14
977.37	211.16
977.66	211.20
977.95	211.16
978.24	211.18
978.54	211.30
978.83	211.28
979.12	211.17
979.42	211.22
979.71	211.16
980.00	211.18
980.29	211.15
980.59	211.05
980.88	211.07
981.17	211.08
981.46	211.11
981.76	211.10
982.05	211.19
982.34	211.20
982.63	211.14
982.93	211.04
983.22	211.08
983.51	211.13
983.80	211.14
984.09	211.16
984.39	211.14
984.68	211.05
984.97	211.08
985.26	211.04
985.55	211.10
985.85	211.04
986.14	211.09
986.43	211.11
986.72	211.10
987.01	210.99
987.30	211.04
987.59	211.09
987.89	211.05
988.18	210.95
988.47	210.94
988.76	210.85
989.05	210.91
989.34	210.90
989.63	210.97
989.92	210.93
990.22	210.83
990.51	210.81
990.80	210.84
991.09	210.83
991.38	210.89
991.67	210.84
991.96	210.73
992.25	210.69
992.54	210.69
992.83	210.70
993.12	210.71
993.41	210.73
993.70	210.77
993.99	210.93
994.28	210.94
994.58	211.04
994.87	211.09
995.16	211.10
995.45	211.02
995.74	210.91
996.03	210.95
996.32	211.00
996.61	211.05
996.90	211.02
997.19	211.05
997.48	211.04
997.77	210.96
998.06	211.05
998.34	211.05
998.63	211.00
998.92	211.02
999.21	211.07
999.50	211.01
999.79	210.94
1000.08	210.87
1000.37	210.93
1000.66	210.88
1000.95	210.97
1001.24	210.96
1001.53	211.06
1001.82	211.09
1002.11	211.09
1002.40	211.21
1002.68	211.29
1002.97	211.56
1003.26	211.51
1003.55	211.56
1003.84	211.63
1004.13	211.77
1004.42	211.79
1004.71	211.82
1004.99	211.74
1005.28	211.84
1005.57	211.85
1005.86	211.82
1006.15	211.84
1006.44	211.82
1006.72	211.83
1007.01	211.74
1007.30	211.79
1007.59	211.77
1007.88	211.71
1008.17	211.66
1008.45	211.58
1008.74	211.47
1009.03	211.32
1009.32	211.29
1009.60	211.21
1009.89	211.16
1010.18	211.04
1010.47	210.94
1010.76	210.99
1011.04	211.01
1011.33	210.97
1011.62	210.94
1011.91	210.91
1012.19	210.87
1012.48	210.82
1012.77	210.81
1013.05	210.98
1013.34	211.00
1013.63	210.94
1013.92	211.01
1014.20	211.06
1014.49	211.09
1014.78	211.09
1015.06	210.93
1015.35	210.88
1015.64	210.96
1015.92	211.04
1016.21	211.02
1016.50	211.08
1016.78	211.05
1017.07	211.09
1017.36	211.14
1017.64	211.13
1017.93	211.18
1018.22	211.17
1018.50	211.15
1018.79	211.10
1019.08	210.93
1019.36	210.89
1019.65	210.82
1019.93	210.83
1020.22	210.83
1020.51	210.98
1020.79	210.97
1021.08	210.10
1021.36	209.65
1021.65	210.35
1021.94	210.65
1022.22	210.95
1022.51	209.80
1022.79	211.50
1023.08	210.90
1023.36	215.45
1023.65	210.65
>>>>>End Processed Spectral Data<<<<<
