SpectraSuite Data File
++++++++++++++++++++++++++++++++++++
Date: Mon Feb 25 17:19:32 EST 2013
User: group
Dark Spectrum Present: No
Reference Spectrum Present: No
Number of Sampled Component Spectra: 1
Spectrometers: USB2E7196
Integration Time (usec): 104000 (USB2E7196)
Spectra Averaged: 20 (USB2E7196)
Boxcar Smoothing: 10 (USB2E7196)
Correct for Electrical Dark: No (USB2E7196)
Strobe/Lamp Enabled: No (USB2E7196)
Correct for Detector Non-linearity: No (USB2E7196)
Correct for Stray Light: No (USB2E7196)
Number of Pixels in Processed Spectrum: 2048
>>>>>Begin Processed Spectral Data<<<<<
339.09	0.00
339.48	198.25
339.86	198.80
340.24	201.30
340.63	202.35
341.01	209.20
341.39	205.15
341.78	207.55
342.16	209.85
342.54	208.55
342.93	198.29
343.31	208.33
343.69	208.91
344.07	209.49
344.46	210.00
344.84	210.45
345.22	210.44
345.60	210.78
345.99	210.95
346.37	211.05
346.75	211.21
347.13	211.27
347.52	211.40
347.90	211.59
348.28	211.62
348.66	211.76
349.05	211.68
349.43	211.73
349.81	211.85
350.19	211.96
350.57	212.09
350.96	212.19
351.34	212.33
351.72	212.44
352.10	212.54
352.48	212.56
352.87	212.63
353.25	212.83
353.63	212.88
354.01	212.96
354.39	213.04
354.77	213.08
355.15	213.25
355.54	213.28
355.92	213.22
356.30	213.30
356.68	213.60
357.06	213.65
357.44	213.70
357.82	213.78
358.20	213.82
358.58	213.89
358.97	213.94
359.35	214.03
359.73	214.12
360.11	214.19
360.49	214.28
360.87	214.34
361.25	214.42
361.63	214.50
362.01	214.58
362.39	214.58
362.77	214.66
363.15	214.65
363.53	214.72
363.91	214.77
364.29	214.83
364.67	214.55
365.05	214.61
365.43	214.66
365.81	214.64
366.19	214.75
366.57	214.86
366.95	214.84
367.33	214.77
367.71	214.85
368.09	214.88
368.47	214.91
368.85	214.84
369.23	214.91
369.61	214.82
369.99	214.93
370.37	215.05
370.75	215.22
371.13	215.19
371.51	215.08
371.89	215.07
372.27	215.06
372.65	215.03
373.03	214.97
373.41	214.96
373.78	214.90
374.16	214.69
374.54	214.58
374.92	214.56
375.30	214.50
375.68	214.37
376.06	214.34
376.44	214.27
376.82	214.24
377.19	214.15
377.57	214.17
377.95	213.96
378.33	213.84
378.71	213.58
379.09	213.55
379.47	213.52
379.84	213.46
380.22	213.38
380.60	213.31
380.98	213.33
381.36	213.19
381.73	213.04
382.11	213.14
382.49	213.04
382.87	212.91
383.25	212.88
383.62	213.23
384.00	213.15
384.38	213.12
384.76	213.20
385.13	213.27
385.51	213.18
385.89	213.13
386.27	213.10
386.64	213.13
387.02	213.08
387.40	213.08
387.78	213.09
388.15	213.07
388.53	213.04
388.91	213.03
389.29	213.06
389.66	213.14
390.04	213.07
390.42	213.18
390.79	213.21
391.17	213.24
391.55	212.84
391.92	212.81
392.30	212.90
392.68	212.86
393.05	212.94
393.43	212.97
393.81	213.05
394.18	213.01
394.56	213.04
394.94	213.11
395.31	213.09
395.69	213.24
396.06	213.33
396.44	213.39
396.82	213.40
397.19	213.53
397.57	213.53
397.95	213.57
398.32	213.47
398.70	213.54
399.07	213.65
399.45	213.70
399.82	213.75
400.20	213.71
400.58	213.72
400.95	213.55
401.33	213.73
401.70	214.02
402.08	214.09
402.45	214.11
402.83	214.28
403.20	214.42
403.58	214.51
403.95	214.61
404.33	214.71
404.71	214.82
405.08	215.20
405.46	215.50
405.83	215.67
406.21	215.87
406.58	216.08
406.96	216.31
407.33	216.51
407.70	216.81
408.08	217.37
408.45	217.73
408.83	218.10
409.20	218.34
409.58	218.39
409.95	218.88
410.33	219.33
410.70	219.67
411.08	220.18
411.45	220.59
411.82	221.08
412.20	221.68
412.57	222.49
412.95	222.79
413.32	223.44
413.69	224.20
414.07	225.02
414.44	225.89
414.82	226.74
415.19	227.79
415.56	228.79
415.94	229.59
416.31	230.77
416.68	232.12
417.06	233.51
417.43	234.98
417.81	236.46
418.18	238.01
418.55	239.65
418.93	241.38
419.30	243.15
419.67	245.03
420.04	247.04
420.42	248.98
420.79	251.62
421.16	254.02
421.54	256.55
421.91	259.07
422.28	261.65
422.66	264.48
423.03	267.39
423.40	270.30
423.77	273.37
424.15	276.51
424.52	279.59
424.89	283.10
425.26	286.61
425.64	289.76
426.01	293.42
426.38	297.17
426.75	300.96
427.13	304.88
427.50	309.00
427.87	313.21
428.24	317.46
428.61	321.32
428.99	325.85
429.36	330.64
429.73	335.37
430.10	340.29
430.47	345.04
430.85	349.99
431.22	355.16
431.59	361.11
431.96	366.35
432.33	372.30
432.70	378.01
433.08	384.55
433.45	391.00
433.82	397.14
434.19	404.07
434.56	411.01
434.93	417.57
435.30	424.19
435.68	431.41
436.05	438.50
436.42	445.59
436.79	451.86
437.16	458.90
437.53	466.22
437.90	473.41
438.27	480.78
438.64	488.13
439.01	495.05
439.38	500.91
439.75	506.96
440.13	513.77
440.50	520.14
440.87	525.40
441.24	530.69
441.61	536.68
441.98	541.05
442.35	546.09
442.72	551.22
443.09	556.16
443.46	559.14
443.83	561.17
444.20	562.81
444.57	565.45
444.94	566.49
445.31	567.70
445.68	569.11
446.05	569.39
446.42	568.56
446.79	567.56
447.16	566.38
447.53	565.56
447.90	562.59
448.27	559.71
448.64	555.79
449.01	552.96
449.37	548.00
449.74	543.25
450.11	537.76
450.48	531.63
450.85	525.22
451.22	519.67
451.59	514.60
451.96	509.70
452.33	503.23
452.70	497.23
453.07	490.18
453.43	482.70
453.80	475.77
454.17	469.09
454.54	462.91
454.91	456.31
455.28	449.89
455.65	443.82
456.02	438.16
456.38	432.97
456.75	426.63
457.12	421.36
457.49	416.08
457.86	410.74
458.23	406.35
458.59	401.60
458.96	396.82
459.33	392.48
459.70	388.17
460.07	384.64
460.43	380.80
460.80	377.18
461.17	373.94
461.54	370.60
461.91	367.57
462.27	364.35
462.64	361.66
463.01	358.60
463.38	355.85
463.74	352.62
464.11	350.08
464.48	347.87
464.85	345.46
465.21	343.71
465.58	341.66
465.95	339.25
466.32	337.35
466.68	335.45
467.05	333.58
467.42	331.76
467.78	329.73
468.15	327.87
468.52	326.53
468.88	324.74
469.25	323.22
469.62	321.95
469.98	320.67
470.35	319.39
470.72	318.22
471.08	316.90
471.45	315.87
471.82	314.93
472.18	313.75
472.55	313.00
472.92	312.05
473.28	311.32
473.65	310.60
474.02	309.92
474.38	309.39
474.75	308.94
475.11	308.41
475.48	308.18
475.85	308.08
476.21	307.87
476.58	307.90
476.94	307.89
477.31	307.93
477.67	307.89
478.04	308.06
478.41	308.34
478.77	308.94
479.14	309.15
479.50	309.55
479.87	310.24
480.23	310.79
480.60	311.25
480.96	311.85
481.33	312.81
481.69	313.69
482.06	314.62
482.42	315.60
482.79	316.65
483.15	317.84
483.52	319.31
483.88	320.58
484.25	321.96
484.61	323.54
484.98	325.15
485.34	327.08
485.71	329.06
486.07	331.05
486.44	332.95
486.80	335.31
487.17	337.76
487.53	340.35
487.90	343.15
488.26	346.39
488.62	349.65
488.99	352.80
489.35	356.20
489.72	359.95
490.08	363.72
490.44	367.63
490.81	371.93
491.17	376.02
491.54	380.75
491.90	385.51
492.26	390.66
492.63	396.03
492.99	401.58
493.36	407.39
493.72	413.71
494.08	420.09
494.45	426.87
494.81	434.03
495.17	441.30
495.54	448.98
495.90	456.72
496.26	464.99
496.63	473.78
496.99	482.84
497.35	492.15
497.72	501.92
498.08	512.24
498.44	522.68
498.80	533.88
499.17	545.25
499.53	557.09
499.89	569.34
500.26	581.96
500.62	594.95
500.98	608.71
501.34	622.77
501.71	637.26
502.07	652.28
502.43	667.50
502.79	683.31
503.16	699.64
503.52	716.55
503.88	733.82
504.24	751.49
504.60	769.60
504.97	788.51
505.33	807.77
505.69	828.10
506.05	848.95
506.41	869.75
506.78	891.02
507.14	912.94
507.50	935.44
507.86	958.01
508.22	981.51
508.59	1004.96
508.95	1029.11
509.31	1053.97
509.67	1079.12
510.03	1105.00
510.39	1131.63
510.75	1158.52
511.12	1185.54
511.48	1213.05
511.84	1241.00
512.20	1269.19
512.56	1297.97
512.92	1326.98
513.28	1356.03
513.64	1385.21
514.00	1414.71
514.37	1444.62
514.73	1475.10
515.09	1505.33
515.45	1536.18
515.81	1566.86
516.17	1597.76
516.53	1628.89
516.89	1660.31
517.25	1691.49
517.61	1722.81
517.97	1753.96
518.33	1785.00
518.69	1816.64
519.05	1848.34
519.41	1880.24
519.77	1912.30
520.13	1943.59
520.49	1974.95
520.85	2006.49
521.21	2038.42
521.57	2070.94
521.93	2102.34
522.29	2134.18
522.65	2166.55
523.01	2198.30
523.37	2229.35
523.73	2261.21
524.09	2292.60
524.45	2323.86
524.81	2355.05
525.17	2386.37
525.53	2417.21
525.89	2448.11
526.25	2478.48
526.61	2507.95
526.97	2537.43
527.33	2566.90
527.68	2596.68
528.04	2625.39
528.40	2653.25
528.76	2681.03
529.12	2709.24
529.48	2738.38
529.84	2766.37
530.20	2793.62
530.56	2820.76
530.91	2848.93
531.27	2876.09
531.63	2902.53
531.99	2928.79
532.35	2954.56
532.71	2979.58
533.07	3005.60
533.42	3029.97
533.78	3054.92
534.14	3079.34
534.50	3101.96
534.86	3125.84
535.21	3147.55
535.57	3171.60
535.93	3194.10
536.29	3215.76
536.65	3237.04
537.00	3256.89
537.36	3276.05
537.72	3294.73
538.08	3313.87
538.44	3332.30
538.79	3350.81
539.15	3369.28
539.51	3387.05
539.87	3405.47
540.22	3422.69
540.58	3440.24
540.94	3457.23
541.29	3472.08
541.65	3486.75
542.01	3502.28
542.37	3515.90
542.72	3530.74
543.08	3542.90
543.44	3557.09
543.79	3569.28
544.15	3580.57
544.51	3593.07
544.87	3605.89
545.22	3617.14
545.58	3627.22
545.94	3635.81
546.29	3643.52
546.65	3650.65
547.01	3657.80
547.36	3664.55
547.72	3671.43
548.07	3675.94
548.43	3680.72
548.79	3685.40
549.14	3689.85
549.50	3694.41
549.86	3697.73
550.21	3700.66
550.57	3704.67
550.92	3706.18
551.28	3708.11
551.64	3710.23
551.99	3711.94
552.35	3712.33
552.70	3713.85
553.06	3714.87
553.41	3716.20
553.77	3716.86
554.13	3717.61
554.48	3718.33
554.84	3718.39
555.19	3717.44
555.55	3715.85
555.90	3714.16
556.26	3712.65
556.61	3710.95
556.97	3707.70
557.32	3706.01
557.68	3702.87
558.03	3699.07
558.39	3695.88
558.74	3694.53
559.10	3692.02
559.45	3688.50
559.81	3685.73
560.16	3680.85
560.52	3677.20
560.87	3672.73
561.23	3667.92
561.58	3663.78
561.94	3657.92
562.29	3651.46
562.64	3646.01
563.00	3641.40
563.35	3637.45
563.71	3633.76
564.06	3629.07
564.42	3625.18
564.77	3620.67
565.12	3616.25
565.48	3611.73
565.83	3607.02
566.19	3601.93
566.54	3595.14
566.89	3588.44
567.25	3582.04
567.60	3576.04
567.96	3569.50
568.31	3563.38
568.66	3556.58
569.02	3548.87
569.37	3540.95
569.72	3534.45
570.08	3526.95
570.43	3518.69
570.78	3509.70
571.14	3500.08
571.49	3490.79
571.84	3482.13
572.20	3471.55
572.55	3462.38
572.90	3451.81
573.26	3440.98
573.61	3429.59
573.96	3418.82
574.31	3407.28
574.67	3395.18
575.02	3383.38
575.37	3371.45
575.72	3358.73
576.08	3347.60
576.43	3335.27
576.78	3323.97
577.13	3312.56
577.49	3300.99
577.84	3289.53
578.19	3278.58
578.54	3268.47
578.90	3258.35
579.25	3246.42
579.60	3234.46
579.95	3221.57
580.30	3210.36
580.66	3199.50
581.01	3187.39
581.36	3175.32
581.71	3163.88
582.06	3152.13
582.42	3140.77
582.77	3128.42
583.12	3116.62
583.47	3105.41
583.82	3094.36
584.17	3082.89
584.53	3070.85
584.88	3058.92
585.23	3046.74
585.58	3034.60
585.93	3021.47
586.28	3009.34
586.63	2996.80
586.98	2985.56
587.34	2974.94
587.69	2962.83
588.04	2950.94
588.39	2939.56
588.74	2927.86
589.09	2916.54
589.44	2904.79
589.79	2893.63
590.14	2882.90
590.49	2871.54
590.84	2859.48
591.19	2849.05
591.54	2837.51
591.89	2824.41
592.25	2812.48
592.60	2800.50
592.95	2787.81
593.30	2775.07
593.65	2762.31
594.00	2750.55
594.35	2740.09
594.70	2728.09
595.05	2716.89
595.40	2705.16
595.75	2692.41
596.10	2681.32
596.45	2670.50
596.80	2660.19
597.15	2649.29
597.50	2637.26
597.85	2626.55
598.19	2615.11
598.54	2603.66
598.89	2593.12
599.24	2584.19
599.59	2573.92
599.94	2564.68
600.29	2554.93
600.64	2545.22
600.99	2534.38
601.34	2524.74
601.69	2512.93
602.04	2501.93
602.39	2491.25
602.74	2481.01
603.08	2472.47
603.43	2463.39
603.78	2452.89
604.13	2442.62
604.48	2432.66
604.83	2424.53
605.18	2415.73
605.53	2405.91
605.87	2395.37
606.22	2385.70
606.57	2374.99
606.92	2364.88
607.27	2353.73
607.62	2343.58
607.96	2333.81
608.31	2324.83
608.66	2313.79
609.01	2303.14
609.36	2292.84
609.70	2281.90
610.05	2270.78
610.40	2259.48
610.75	2247.58
611.10	2237.34
611.44	2224.80
611.79	2212.29
612.14	2199.24
612.49	2186.20
612.83	2174.92
613.18	2162.75
613.53	2150.52
613.88	2137.95
614.22	2126.38
614.57	2114.56
614.92	2102.30
615.27	2089.78
615.61	2077.39
615.96	2066.15
616.31	2055.49
616.65	2045.00
617.00	2034.15
617.35	2022.86
617.70	2011.03
618.04	1999.14
618.39	1986.15
618.74	1975.09
619.08	1963.85
619.43	1952.92
619.78	1942.25
620.12	1931.10
620.47	1920.44
620.82	1908.79
621.16	1897.41
621.51	1885.70
621.85	1874.70
622.20	1863.23
622.55	1851.85
622.89	1840.66
623.24	1829.24
623.59	1817.15
623.93	1805.51
624.28	1794.27
624.62	1783.33
624.97	1772.54
625.32	1762.10
625.66	1752.19
626.01	1741.84
626.35	1731.75
626.70	1720.99
627.04	1710.98
627.39	1700.57
627.73	1690.22
628.08	1680.57
628.43	1670.49
628.77	1660.13
629.12	1649.54
629.46	1640.58
629.81	1631.14
630.15	1621.12
630.50	1611.10
630.84	1600.99
631.19	1590.93
631.53	1581.19
631.88	1570.77
632.22	1560.47
632.57	1550.64
632.91	1540.55
633.26	1530.70
633.60	1520.91
633.95	1511.83
634.29	1501.60
634.64	1492.06
634.98	1482.13
635.32	1472.47
635.67	1463.70
636.01	1454.80
636.36	1445.64
636.70	1436.24
637.05	1426.85
637.39	1418.02
637.73	1409.61
638.08	1401.76
638.42	1393.43
638.77	1384.48
639.11	1375.96
639.45	1367.37
639.80	1357.94
640.14	1348.68
640.49	1339.70
640.83	1330.83
641.17	1321.85
641.52	1312.98
641.86	1303.65
642.20	1295.04
642.55	1285.72
642.89	1276.21
643.23	1266.90
643.58	1258.45
643.92	1249.01
644.26	1240.32
644.61	1231.25
644.95	1222.08
645.29	1212.91
645.64	1203.31
645.98	1194.59
646.32	1186.06
646.66	1177.24
647.01	1168.91
647.35	1160.78
647.69	1151.85
648.04	1143.50
648.38	1134.70
648.72	1126.10
649.06	1117.75
649.41	1109.07
649.75	1100.64
650.09	1092.55
650.43	1084.37
650.78	1075.56
651.12	1066.97
651.46	1058.47
651.80	1050.47
652.14	1042.22
652.49	1034.05
652.83	1026.10
653.17	1017.40
653.51	1009.17
653.85	1001.48
654.20	993.69
654.54	985.37
654.88	977.92
655.22	969.86
655.56	962.00
655.90	954.13
656.25	946.14
656.59	938.54
656.93	931.01
657.27	923.59
657.61	915.76
657.95	908.57
658.29	901.59
658.64	894.68
658.98	887.20
659.32	879.69
659.66	872.49
660.00	865.15
660.34	858.06
660.68	850.71
661.02	843.20
661.36	836.29
661.70	829.62
662.05	823.00
662.39	816.56
662.73	810.25
663.07	804.23
663.41	798.06
663.75	791.69
664.09	785.39
664.43	778.60
664.77	772.49
665.11	766.25
665.45	760.18
665.79	754.05
666.13	748.17
666.47	742.41
666.81	736.49
667.15	730.75
667.49	725.55
667.83	720.21
668.17	714.88
668.51	709.52
668.85	704.38
669.19	699.02
669.53	693.49
669.87	687.93
670.21	682.56
670.55	677.28
670.89	672.58
671.23	667.92
671.57	663.40
671.91	658.60
672.25	653.81
672.58	648.98
672.92	644.16
673.26	639.57
673.60	635.20
673.94	630.74
674.28	626.40
674.62	621.97
674.96	617.66
675.30	613.46
675.64	609.09
675.97	604.65
676.31	600.54
676.65	596.62
676.99	592.82
677.33	588.57
677.67	584.60
678.01	580.24
678.34	576.14
678.68	572.04
679.02	567.99
679.36	564.07
679.70	560.28
680.04	556.38
680.37	552.56
680.71	548.60
681.05	544.89
681.39	541.08
681.73	537.46
682.06	533.91
682.40	530.44
682.74	527.03
683.08	523.65
683.42	519.95
683.75	516.37
684.09	512.66
684.43	509.36
684.77	505.69
685.10	502.32
685.44	498.70
685.78	495.40
686.12	492.40
686.45	489.06
686.79	485.83
687.13	482.93
687.46	479.84
687.80	476.92
688.14	473.72
688.48	470.81
688.81	467.54
689.15	464.56
689.49	461.44
689.82	458.30
690.16	454.92
690.50	451.74
690.83	448.70
691.17	445.76
691.51	442.66
691.84	440.03
692.18	437.35
692.52	434.83
692.85	432.35
693.19	429.74
693.52	427.10
693.86	424.38
694.20	421.74
694.53	419.28
694.87	416.55
695.21	414.00
695.54	411.41
695.88	408.80
696.21	406.13
696.55	403.78
696.88	401.36
697.22	399.10
697.56	397.19
697.89	394.88
698.23	392.62
698.56	390.45
698.90	388.49
699.23	386.18
699.57	383.90
699.90	381.60
700.24	379.33
700.58	377.19
700.91	375.17
701.25	373.29
701.58	371.25
701.92	369.26
702.25	367.32
702.59	365.28
702.92	363.50
703.26	361.65
703.59	359.77
703.93	358.28
704.26	356.46
704.60	354.44
704.93	352.67
705.26	351.00
705.60	349.38
705.93	347.53
706.27	346.03
706.60	344.48
706.94	343.03
707.27	341.37
707.61	339.82
707.94	338.21
708.27	336.27
708.61	334.55
708.94	332.97
709.28	331.39
709.61	330.01
709.94	328.66
710.28	327.22
710.61	325.85
710.95	324.13
711.28	323.07
711.61	321.82
711.95	320.59
712.28	319.25
712.61	317.94
712.95	316.78
713.28	315.59
713.61	314.25
713.95	312.86
714.28	311.61
714.61	310.34
714.95	309.21
715.28	308.13
715.61	306.93
715.95	305.84
716.28	304.65
716.61	303.45
716.95	302.19
717.28	301.10
717.61	300.00
717.94	299.03
718.28	297.68
718.61	296.52
718.94	295.35
719.27	294.28
719.61	293.29
719.94	292.29
720.27	291.09
720.60	290.21
720.94	289.30
721.27	288.42
721.60	287.57
721.93	286.65
722.27	285.90
722.60	285.13
722.93	284.31
723.26	283.61
723.59	282.83
723.93	282.03
724.26	281.28
724.59	280.45
724.92	279.65
725.25	279.05
725.59	278.40
725.92	277.77
726.25	277.08
726.58	276.37
726.91	275.53
727.24	274.90
727.57	274.08
727.91	273.35
728.24	272.69
728.57	272.00
728.90	271.36
729.23	270.57
729.56	270.05
729.89	269.38
730.22	268.72
730.55	268.06
730.89	267.45
731.22	266.77
731.55	266.14
731.88	265.54
732.21	264.84
732.54	264.16
732.87	263.50
733.20	262.82
733.53	262.18
733.86	261.66
734.19	261.01
734.52	260.57
734.85	260.22
735.18	259.61
735.51	259.20
735.84	258.72
736.17	258.28
736.50	257.62
736.83	257.47
737.16	256.98
737.49	256.54
737.82	255.96
738.15	255.48
738.48	254.98
738.81	254.52
739.14	253.94
739.47	253.50
739.80	253.02
740.13	252.61
740.46	252.12
740.79	251.60
741.12	251.20
741.45	250.70
741.78	250.09
742.11	249.75
742.44	249.21
742.77	248.80
743.10	248.28
743.43	247.80
743.75	246.97
744.08	246.95
744.41	246.50
744.74	246.14
745.07	245.67
745.40	245.36
745.73	245.03
746.06	244.73
746.39	244.26
746.71	243.81
747.04	243.36
747.37	242.95
747.70	242.67
748.03	242.25
748.36	241.97
748.68	241.55
749.01	241.07
749.34	240.74
749.67	240.38
750.00	240.03
750.33	239.99
750.65	239.67
750.98	238.88
751.31	238.51
751.64	238.17
751.97	238.00
752.29	237.67
752.62	237.18
752.95	236.86
753.28	236.51
753.60	236.28
753.93	236.12
754.26	235.85
754.59	235.34
754.91	235.07
755.24	234.73
755.57	234.45
755.90	234.26
756.22	233.91
756.55	233.60
756.88	233.30
757.20	232.77
757.53	232.49
757.86	232.20
758.19	232.05
758.51	231.78
758.84	231.43
759.17	231.13
759.49	230.96
759.82	230.83
760.15	230.70
760.47	230.52
760.80	230.13
761.13	229.95
761.45	229.81
761.78	229.59
762.11	229.41
762.43	229.18
762.76	228.88
763.08	228.69
763.41	228.50
763.74	228.34
764.06	228.14
764.39	227.92
764.71	227.72
765.04	227.47
765.37	227.31
765.69	227.11
766.02	226.97
766.34	226.71
766.67	226.41
767.00	226.23
767.32	226.15
767.65	226.19
767.97	225.93
768.30	225.74
768.62	225.57
768.95	225.36
769.27	225.20
769.60	225.07
769.92	224.86
770.25	224.65
770.57	224.43
770.90	224.25
771.22	224.06
771.55	223.95
771.87	223.78
772.20	223.56
772.52	223.70
772.85	223.89
773.17	223.74
773.50	223.64
773.82	223.48
774.15	223.19
774.47	222.87
774.80	222.72
775.12	222.58
775.45	222.45
775.77	222.29
776.09	222.23
776.42	222.12
776.74	222.14
777.07	222.03
777.39	221.95
777.72	221.84
778.04	221.82
778.36	221.67
778.69	221.57
779.01	221.53
779.33	221.08
779.66	220.60
779.98	220.52
780.31	220.41
780.63	220.44
780.95	220.42
781.28	220.40
781.60	220.30
781.92	220.22
782.25	220.11
782.57	220.07
782.89	219.88
783.22	219.81
783.54	219.63
783.86	219.60
784.19	219.48
784.51	219.54
784.83	219.38
785.16	219.28
785.48	219.21
785.80	219.16
786.12	219.17
786.45	219.10
786.77	219.03
787.09	218.94
787.42	218.74
787.74	218.70
788.06	218.56
788.38	218.55
788.71	218.45
789.03	218.40
789.35	218.35
789.67	218.31
789.99	218.25
790.32	218.20
790.64	218.15
790.96	218.36
791.28	218.11
791.61	218.00
791.93	218.02
792.25	217.92
792.57	218.05
792.89	217.90
793.21	217.91
793.54	217.80
793.86	217.77
794.18	217.78
794.50	217.62
794.82	217.60
795.14	217.54
795.47	217.59
795.79	217.50
796.11	217.35
796.43	217.26
796.75	217.23
797.07	217.11
797.39	217.08
797.71	216.73
798.04	216.77
798.36	216.79
798.68	216.77
799.00	216.83
799.32	216.61
799.64	216.69
799.96	216.59
800.28	216.60
800.60	216.46
800.92	216.37
801.24	216.32
801.56	216.29
801.89	216.23
802.21	216.19
802.53	216.14
802.85	216.20
803.17	216.34
803.49	216.20
803.81	216.21
804.13	216.09
804.45	216.17
804.77	216.17
805.09	216.08
805.41	215.95
805.73	215.85
806.05	215.78
806.37	215.64
806.69	215.59
807.01	215.52
807.33	215.53
807.65	215.45
807.97	215.60
808.28	215.52
808.60	215.46
808.92	215.37
809.24	215.51
809.56	215.38
809.88	215.25
810.20	215.29
810.52	215.31
810.84	215.21
811.16	215.08
811.48	215.00
811.80	215.15
812.12	215.16
812.43	215.17
812.75	215.17
813.07	215.10
813.39	215.09
813.71	215.10
814.03	215.06
814.35	215.00
814.67	214.78
814.98	214.75
815.30	214.73
815.62	214.65
815.94	214.42
816.26	214.45
816.58	214.35
816.89	214.35
817.21	214.21
817.53	214.25
817.85	214.24
818.17	214.17
818.48	213.99
818.80	213.97
819.12	213.88
819.44	213.71
819.76	213.65
820.07	213.61
820.39	213.54
820.71	213.50
821.03	213.50
821.34	213.47
821.66	213.47
821.98	213.47
822.30	213.45
822.61	213.64
822.93	213.60
823.25	213.55
823.57	213.50
823.88	213.55
824.20	213.46
824.52	213.54
824.83	213.57
825.15	213.52
825.47	213.46
825.79	213.46
826.10	213.45
826.42	213.52
826.74	213.60
827.05	213.60
827.37	213.63
827.69	213.53
828.00	213.57
828.32	213.53
828.64	213.50
828.95	213.73
829.27	213.64
829.58	213.66
829.90	213.73
830.22	213.75
830.53	213.64
830.85	213.66
831.17	213.55
831.48	213.50
831.80	213.55
832.11	213.57
832.43	213.48
832.75	213.58
833.06	213.82
833.38	213.70
833.69	213.68
834.01	213.62
834.32	213.64
834.64	213.59
834.96	213.63
835.27	213.59
835.59	213.39
835.90	213.29
836.22	213.22
836.53	213.20
836.85	213.15
837.16	213.48
837.48	213.52
837.79	213.58
838.11	213.67
838.42	213.62
838.74	213.68
839.05	213.65
839.37	213.60
839.68	213.24
840.00	213.19
840.31	213.27
840.63	213.22
840.94	213.17
841.26	213.12
841.57	213.09
841.88	213.20
842.20	213.15
842.51	213.13
842.83	213.11
843.14	213.37
843.46	213.33
843.77	213.13
844.08	213.12
844.40	213.01
844.71	212.85
845.03	212.88
845.34	212.77
845.65	212.83
845.97	212.79
846.28	212.85
846.60	212.91
846.91	212.76
847.22	212.83
847.54	212.94
847.85	213.01
848.16	213.03
848.48	212.90
848.79	213.10
849.10	213.10
849.42	213.14
849.73	212.86
850.04	212.84
850.36	212.70
850.67	212.73
850.98	212.73
851.30	212.81
851.61	212.80
851.92	212.76
852.23	212.86
852.55	212.90
852.86	212.95
853.17	212.94
853.49	213.03
853.80	213.12
854.11	213.10
854.42	213.10
854.74	213.02
855.05	213.05
855.36	212.79
855.67	212.83
855.99	212.81
856.30	213.20
856.61	213.18
856.92	213.22
857.23	213.21
857.55	213.22
857.86	213.14
858.17	213.20
858.48	213.12
858.79	212.98
859.11	213.01
859.42	212.93
859.73	212.87
860.04	212.86
860.35	212.67
860.66	212.57
860.98	212.53
861.29	212.63
861.60	212.64
861.91	212.74
862.22	212.70
862.53	212.66
862.84	212.17
863.16	212.30
863.47	212.34
863.78	212.28
864.09	212.30
864.40	212.38
864.71	212.31
865.02	212.39
865.33	212.36
865.64	212.28
865.95	212.26
866.27	212.46
866.58	212.51
866.89	212.59
867.20	212.61
867.51	212.56
867.82	212.46
868.13	212.59
868.44	212.51
868.75	212.55
869.06	212.56
869.37	212.57
869.68	212.43
869.99	212.42
870.30	212.43
870.61	212.45
870.92	212.30
871.23	212.29
871.54	212.40
871.85	212.48
872.16	212.55
872.47	212.64
872.78	212.44
873.09	212.40
873.40	212.39
873.71	212.43
874.02	212.38
874.33	212.36
874.64	212.20
874.95	212.34
875.26	212.25
875.56	212.18
875.87	212.18
876.18	212.17
876.49	212.41
876.80	212.46
877.11	212.31
877.42	212.39
877.73	212.40
878.04	212.32
878.35	212.35
878.66	212.27
878.96	212.11
879.27	212.14
879.58	212.10
879.89	212.03
880.20	212.12
880.51	212.19
880.82	212.14
881.12	212.19
881.43	212.07
881.74	212.02
882.05	212.05
882.36	212.11
882.67	212.20
882.97	211.87
883.28	211.81
883.59	211.83
883.90	211.84
884.21	211.84
884.51	211.83
884.82	211.75
885.13	211.85
885.44	211.94
885.74	211.91
886.05	211.96
886.36	212.03
886.67	211.84
886.98	212.03
887.28	212.10
887.59	212.04
887.90	212.05
888.20	212.09
888.51	212.16
888.82	212.11
889.13	212.08
889.43	212.35
889.74	212.32
890.05	212.36
890.35	212.34
890.66	212.32
890.97	212.28
891.28	212.24
891.58	212.26
891.89	212.26
892.20	212.20
892.50	212.08
892.81	212.03
893.12	212.07
893.42	211.87
893.73	211.96
894.04	212.00
894.34	212.06
894.65	212.00
894.95	211.97
895.26	211.95
895.57	212.13
895.87	211.83
896.18	211.89
896.48	211.90
896.79	211.90
897.10	211.96
897.40	211.92
897.71	212.00
898.01	211.93
898.32	211.95
898.63	212.01
898.93	212.06
899.24	212.09
899.54	212.07
899.85	212.12
900.15	212.06
900.46	211.99
900.76	211.96
901.07	212.04
901.38	212.02
901.68	212.14
901.99	211.92
902.29	211.96
902.60	211.94
902.90	211.93
903.21	211.95
903.51	211.86
903.82	211.90
904.12	211.84
904.43	211.80
904.73	211.79
905.03	211.80
905.34	212.13
905.64	212.07
905.95	212.04
906.25	211.99
906.56	211.97
906.86	211.96
907.17	211.95
907.47	211.86
907.77	211.84
908.08	211.72
908.38	211.71
908.69	211.74
908.99	211.73
909.30	211.76
909.60	211.69
909.90	211.76
910.21	211.75
910.51	211.67
910.81	211.69
911.12	211.68
911.42	211.75
911.73	211.32
912.03	211.32
912.33	211.45
912.64	211.42
912.94	211.31
913.24	211.39
913.55	211.36
913.85	211.36
914.15	211.40
914.46	211.41
914.76	211.39
915.06	211.35
915.37	211.36
915.67	211.25
915.97	211.30
916.27	211.23
916.58	211.26
916.88	211.34
917.18	211.30
917.49	211.55
917.79	211.46
918.09	211.64
918.39	211.78
918.70	211.75
919.00	211.78
919.30	212.00
919.60	211.91
919.91	211.88
920.21	211.99
920.51	211.93
920.81	211.93
921.12	212.01
921.42	211.96
921.72	211.99
922.02	212.15
922.32	212.16
922.63	212.17
922.93	212.33
923.23	212.36
923.53	212.38
923.83	212.16
924.13	212.25
924.44	212.19
924.74	212.26
925.04	212.31
925.34	212.25
925.64	212.11
925.94	212.15
926.24	212.39
926.55	212.30
926.85	212.39
927.15	212.41
927.45	212.34
927.75	212.41
928.05	212.45
928.35	212.33
928.65	212.45
928.95	212.53
929.26	212.39
929.56	212.42
929.86	212.44
930.16	212.45
930.46	212.40
930.76	212.41
931.06	212.23
931.36	212.13
931.66	212.29
931.96	212.34
932.26	212.40
932.56	212.19
932.86	212.24
933.16	212.25
933.46	212.21
933.76	212.22
934.06	212.32
934.36	212.38
934.66	212.42
934.96	212.35
935.26	212.28
935.56	212.36
935.86	212.28
936.16	212.24
936.46	212.13
936.76	212.15
937.06	212.12
937.36	212.16
937.66	212.22
937.96	212.20
938.26	212.10
938.56	212.04
938.86	212.07
939.16	212.09
939.46	212.09
939.76	212.08
940.06	212.11
940.35	212.01
940.65	211.82
940.95	211.83
941.25	211.76
941.55	211.76
941.85	211.74
942.15	211.80
942.45	211.88
942.75	211.92
943.04	211.92
943.34	211.98
943.64	211.89
943.94	211.87
944.24	211.72
944.54	211.73
944.84	211.67
945.13	211.62
945.43	211.53
945.73	211.45
946.03	211.42
946.33	211.39
946.62	211.33
946.92	211.31
947.22	211.35
947.52	211.33
947.82	211.31
948.11	211.20
948.41	211.13
948.71	211.03
949.01	211.03
949.31	211.01
949.60	210.99
949.90	211.10
950.20	211.02
950.50	211.06
950.79	211.00
951.09	211.14
951.39	211.13
951.69	211.15
951.98	211.30
952.28	211.30
952.58	211.31
952.87	211.31
953.17	211.32
953.47	211.22
953.76	211.27
954.06	211.22
954.36	211.20
954.66	211.23
954.95	211.34
955.25	211.35
955.55	211.35
955.84	211.23
956.14	211.20
956.44	211.31
956.73	211.30
957.03	211.38
957.32	211.31
957.62	211.30
957.92	211.36
958.21	211.24
958.51	211.63
958.81	211.60
959.10	211.62
959.40	211.74
959.69	211.78
959.99	211.79
960.29	211.77
960.58	211.71
960.88	211.77
961.17	211.68
961.47	211.69
961.76	211.68
962.06	211.79
962.36	211.77
962.65	211.70
962.95	211.73
963.24	211.70
963.54	211.76
963.83	211.78
964.13	211.69
964.42	211.57
964.72	211.31
965.01	211.38
965.31	211.42
965.60	211.36
965.90	211.59
966.19	211.55
966.49	211.60
966.78	211.66
967.08	211.64
967.37	211.70
967.67	211.63
967.96	211.63
968.26	211.56
968.55	211.59
968.85	211.59
969.14	211.54
969.43	211.50
969.73	211.46
970.02	211.45
970.32	211.45
970.61	211.53
970.91	211.42
971.20	211.33
971.49	211.26
971.79	211.28
972.08	211.03
972.38	210.97
972.67	210.99
972.96	211.04
973.26	210.88
973.55	211.00
973.85	211.03
974.14	210.96
974.43	211.01
974.73	210.93
975.02	210.84
975.31	210.90
975.61	210.95
975.90	210.85
976.19	210.82
976.49	210.93
976.78	210.94
977.07	210.90
977.37	210.90
977.66	210.96
977.95	210.86
978.24	210.88
978.54	211.05
978.83	210.98
979.12	210.92
979.42	210.95
979.71	210.87
980.00	210.82
980.29	210.92
980.59	210.86
980.88	210.98
981.17	211.03
981.46	210.98
981.76	211.01
982.05	211.18
982.34	211.28
982.63	211.29
982.93	211.31
983.22	211.48
983.51	211.50
983.80	211.52
984.09	211.63
984.39	211.61
984.68	211.57
984.97	211.66
985.26	211.64
985.55	211.76
985.85	211.72
986.14	211.85
986.43	211.90
986.72	211.89
987.01	211.77
987.30	211.73
987.59	211.77
987.89	211.75
988.18	211.59
988.47	211.56
988.76	211.49
989.05	211.43
989.34	211.31
989.63	211.45
989.92	211.37
990.22	211.29
990.51	211.32
990.80	211.28
991.09	211.31
991.38	211.45
991.67	211.44
991.96	211.44
992.25	211.39
992.54	211.27
992.83	211.30
993.12	211.35
993.41	211.47
993.70	211.57
993.99	211.65
994.28	211.69
994.58	211.68
994.87	211.65
995.16	211.65
995.45	211.64
995.74	211.48
996.03	211.62
996.32	211.66
996.61	211.70
996.90	211.68
997.19	211.65
997.48	211.60
997.77	211.54
998.06	211.51
998.34	211.45
998.63	211.46
998.92	211.47
999.21	211.50
999.50	211.48
999.79	211.37
1000.08	211.34
1000.37	211.41
1000.66	211.36
1000.95	211.45
1001.24	211.48
1001.53	211.55
1001.82	211.55
1002.11	211.49
1002.40	211.57
1002.68	211.58
1002.97	211.80
1003.26	211.67
1003.55	211.64
1003.84	211.61
1004.13	211.66
1004.42	211.68
1004.71	211.76
1004.99	211.77
1005.28	211.88
1005.57	211.92
1005.86	211.87
1006.15	211.78
1006.44	211.70
1006.72	211.79
1007.01	211.72
1007.30	211.72
1007.59	211.66
1007.88	211.65
1008.17	211.63
1008.45	211.55
1008.74	211.41
1009.03	211.26
1009.32	211.35
1009.60	211.32
1009.89	211.26
1010.18	211.13
1010.47	211.04
1010.76	210.92
1011.04	210.86
1011.33	210.82
1011.62	210.80
1011.91	210.83
1012.19	210.89
1012.48	210.85
1012.77	210.80
1013.05	210.90
1013.34	210.89
1013.63	210.83
1013.92	210.85
1014.20	210.83
1014.49	210.79
1014.78	210.92
1015.06	210.74
1015.35	210.64
1015.64	210.72
1015.92	210.81
1016.21	210.88
1016.50	210.96
1016.78	211.03
1017.07	211.03
1017.36	210.88
1017.64	210.80
1017.93	210.78
1018.22	210.75
1018.50	210.79
1018.79	210.80
1019.08	210.68
1019.36	210.66
1019.65	210.67
1019.93	210.76
1020.22	210.78
1020.51	210.97
1020.79	210.85
1021.08	210.85
1021.36	210.55
1021.65	211.35
1021.94	210.75
1022.22	210.15
1022.51	210.00
1022.79	212.70
1023.08	211.50
1023.36	215.15
1023.65	209.50
>>>>>End Processed Spectral Data<<<<<
