SpectraSuite Data File
++++++++++++++++++++++++++++++++++++
Date: Mon Feb 25 16:57:11 EST 2013
User: group
Dark Spectrum Present: No
Reference Spectrum Present: No
Number of Sampled Component Spectra: 1
Spectrometers: USB2E7196
Integration Time (usec): 104000 (USB2E7196)
Spectra Averaged: 20 (USB2E7196)
Boxcar Smoothing: 10 (USB2E7196)
Correct for Electrical Dark: No (USB2E7196)
Strobe/Lamp Enabled: No (USB2E7196)
Correct for Detector Non-linearity: No (USB2E7196)
Correct for Stray Light: No (USB2E7196)
Number of Pixels in Processed Spectrum: 2048
>>>>>Begin Processed Spectral Data<<<<<
339.09	0.00
339.48	199.35
339.86	199.55
340.24	200.90
340.63	204.00
341.01	209.50
341.39	207.00
341.78	207.95
342.16	210.55
342.54	209.50
342.93	198.53
343.31	208.57
343.69	209.11
344.07	209.72
344.46	210.20
344.84	210.57
345.22	210.66
345.60	210.93
345.99	211.16
346.37	211.21
346.75	211.29
347.13	211.42
347.52	211.49
347.90	211.70
348.28	211.75
348.66	211.89
349.05	211.74
349.43	211.85
349.81	211.93
350.19	211.97
350.57	212.02
350.96	212.12
351.34	212.17
351.72	212.27
352.10	212.30
352.48	212.35
352.87	212.36
353.25	212.42
353.63	212.42
354.01	212.40
354.39	212.42
354.77	212.51
355.15	212.64
355.54	212.75
355.92	212.68
356.30	212.76
356.68	213.03
357.06	213.19
357.44	213.16
357.82	213.17
358.20	213.26
358.58	213.41
358.97	213.45
359.35	213.59
359.73	213.64
360.11	213.57
360.49	213.66
360.87	213.75
361.25	213.82
361.63	213.96
362.01	214.03
362.39	214.10
362.77	214.11
363.15	214.05
363.53	214.04
363.91	214.05
364.29	214.01
364.67	213.71
365.05	213.75
365.43	213.82
365.81	213.85
366.19	213.90
366.57	213.96
366.95	214.00
367.33	213.90
367.71	213.94
368.09	214.07
368.47	213.99
368.85	213.91
369.23	213.94
369.61	213.81
369.99	213.85
370.37	213.89
370.75	214.04
371.13	214.01
371.51	213.85
371.89	213.87
372.27	213.83
372.65	213.80
373.03	213.77
373.41	213.67
373.78	213.73
374.16	213.60
374.54	213.45
374.92	213.30
375.30	213.29
375.68	213.21
376.06	213.18
376.44	213.17
376.82	213.15
377.19	213.13
377.57	213.02
377.95	212.90
378.33	212.81
378.71	212.61
379.09	212.56
379.47	212.63
379.84	212.58
380.22	212.53
380.60	212.47
380.98	212.45
381.36	212.40
381.73	212.20
382.11	212.19
382.49	212.21
382.87	212.08
383.25	212.06
383.62	212.39
384.00	212.30
384.38	212.27
384.76	212.32
385.13	212.34
385.51	212.32
385.89	212.25
386.27	212.24
386.64	212.18
387.02	212.23
387.40	212.17
387.78	212.09
388.15	212.13
388.53	212.09
388.91	212.01
389.29	211.95
389.66	212.02
390.04	211.97
390.42	211.98
390.79	212.00
391.17	211.98
391.55	211.59
391.92	211.57
392.30	211.62
392.68	211.49
393.05	211.44
393.43	211.50
393.81	211.57
394.18	211.45
394.56	211.54
394.94	211.56
395.31	211.55
395.69	211.68
396.06	211.70
396.44	211.77
396.82	211.79
397.19	212.00
397.57	212.00
397.95	212.15
398.32	212.10
398.70	212.19
399.07	212.33
399.45	212.34
399.82	212.41
400.20	212.46
400.58	212.65
400.95	212.64
401.33	212.82
401.70	213.14
402.08	213.30
402.45	213.39
402.83	213.63
403.20	213.78
403.58	213.94
403.95	214.16
404.33	214.35
404.71	214.54
405.08	214.99
405.46	215.19
405.83	215.41
406.21	215.63
406.58	216.04
406.96	216.38
407.33	216.81
407.70	217.29
408.08	217.99
408.45	218.49
408.83	219.14
409.20	219.56
409.58	219.95
409.95	220.70
410.33	221.43
410.70	222.04
411.08	222.90
411.45	223.70
411.82	224.55
412.20	225.63
412.57	226.88
412.95	227.67
413.32	229.02
413.69	230.37
414.07	231.78
414.44	233.27
414.82	234.80
415.19	236.62
415.56	238.38
415.94	240.16
416.31	242.27
416.68	244.41
417.06	246.93
417.43	249.37
417.81	252.05
418.18	254.86
418.55	257.96
418.93	261.10
419.30	264.49
419.67	268.04
420.04	271.59
420.42	275.41
420.79	279.84
421.16	284.14
421.54	288.74
421.91	293.53
422.28	298.53
422.66	303.87
423.03	309.08
423.40	314.55
423.77	320.37
424.15	326.35
424.52	332.48
424.89	339.21
425.26	345.76
425.64	351.94
426.01	358.82
426.38	366.04
426.75	373.34
427.13	380.80
427.50	388.74
427.87	397.19
428.24	405.50
428.61	413.51
428.99	422.28
429.36	431.85
429.73	441.24
430.10	450.52
430.47	460.00
430.85	469.99
431.22	480.65
431.59	491.99
431.96	502.73
432.33	514.87
432.70	526.62
433.08	540.33
433.45	553.31
433.82	566.21
434.19	580.51
434.56	594.69
434.93	608.56
435.30	622.35
435.68	637.56
436.05	652.70
436.42	667.93
436.79	682.06
437.16	697.04
437.53	712.97
437.90	728.84
438.27	744.72
438.64	760.99
439.01	776.16
439.38	789.85
439.75	803.19
440.13	818.20
440.50	832.54
440.87	844.27
441.24	856.78
441.61	870.45
441.98	880.98
442.35	893.20
442.72	905.10
443.09	916.62
443.46	924.12
443.83	929.47
444.20	934.14
444.57	940.75
444.94	944.37
445.31	948.31
445.68	952.04
446.05	954.19
446.42	953.90
446.79	953.29
447.16	952.45
447.53	952.36
447.90	947.85
448.27	943.18
448.64	936.45
449.01	931.78
449.37	922.55
449.74	913.57
450.11	902.42
450.48	890.44
450.85	878.23
451.22	867.75
451.59	857.89
451.96	848.38
452.33	835.11
452.70	823.47
453.07	809.08
453.43	794.45
453.80	780.46
454.17	766.97
454.54	754.10
454.91	740.12
455.28	726.65
455.65	713.99
456.02	701.22
456.38	690.40
456.75	676.88
457.12	665.65
457.49	654.54
457.86	643.72
458.23	634.43
458.59	624.31
458.96	613.97
459.33	604.89
459.70	595.74
460.07	588.55
460.43	580.17
460.80	572.34
461.17	565.42
461.54	558.22
461.91	551.48
462.27	544.74
462.64	538.96
463.01	532.26
463.38	525.96
463.74	519.85
464.11	514.37
464.48	509.44
464.85	504.18
465.21	500.11
465.58	495.92
465.95	490.69
466.32	486.36
466.68	482.08
467.05	477.71
467.42	473.50
467.78	469.02
468.15	464.77
468.52	461.61
468.88	457.58
469.25	453.73
469.62	450.55
469.98	447.18
470.35	444.12
470.72	441.30
471.08	438.16
471.45	435.45
471.82	432.70
472.18	429.80
472.55	427.74
472.92	425.22
473.28	422.93
473.65	420.87
474.02	418.66
474.38	416.98
474.75	415.47
475.11	413.91
475.48	412.65
475.85	411.42
476.21	410.25
476.58	409.26
476.94	408.64
477.31	407.85
477.67	406.97
478.04	406.38
478.41	405.90
478.77	405.83
479.14	405.31
479.50	405.11
479.87	405.15
480.23	405.04
480.60	404.96
480.96	404.96
481.33	405.52
481.69	406.05
482.06	406.26
482.42	406.44
482.79	406.91
483.15	407.56
483.52	408.59
483.88	409.40
484.25	410.41
484.61	411.41
484.98	412.48
485.34	414.05
485.71	415.64
486.07	417.20
486.44	418.59
486.80	420.50
487.17	422.54
487.53	424.71
487.90	427.01
488.26	429.54
488.62	432.30
488.99	434.77
489.35	437.37
489.72	440.40
490.08	443.62
490.44	446.59
490.81	449.87
491.17	453.03
491.54	456.62
491.90	460.14
492.26	463.93
492.63	467.82
492.99	471.58
493.36	475.69
493.72	480.02
494.08	484.64
494.45	489.30
494.81	494.16
495.17	499.01
495.54	504.14
495.90	509.23
496.26	514.37
496.63	519.92
496.99	525.40
497.35	531.14
497.72	537.03
498.08	543.16
498.44	549.26
498.80	555.80
499.17	562.14
499.53	568.63
499.89	575.34
500.26	581.95
500.62	588.70
500.98	595.51
501.34	602.39
501.71	609.50
502.07	616.54
502.43	623.54
502.79	630.50
503.16	637.69
503.52	644.89
503.88	652.17
504.24	659.25
504.60	666.70
504.97	673.95
505.33	681.15
505.69	688.93
506.05	696.50
506.41	703.69
506.78	710.89
507.14	718.05
507.50	725.22
507.86	732.67
508.22	740.14
508.59	747.24
508.95	754.53
509.31	761.62
509.67	768.85
510.03	775.94
510.39	783.39
510.75	790.53
511.12	797.60
511.48	804.51
511.84	811.69
512.20	818.54
512.56	825.49
512.92	832.57
513.28	839.00
513.64	845.47
514.00	852.08
514.37	858.55
514.73	865.31
515.09	871.86
515.45	877.95
515.81	883.81
516.17	889.87
516.53	895.82
516.89	901.34
517.25	906.95
517.61	912.39
517.97	917.51
518.33	922.45
518.69	927.50
519.05	932.49
519.41	937.32
519.77	942.39
520.13	947.08
520.49	951.23
520.85	955.77
521.21	960.20
521.57	964.58
521.93	968.55
522.29	972.67
522.65	976.72
523.01	980.92
523.37	984.79
523.73	988.72
524.09	992.18
524.45	995.95
524.81	999.67
525.17	1003.62
525.53	1007.36
525.89	1011.11
526.25	1014.82
526.61	1018.03
526.97	1021.09
527.33	1024.38
527.68	1027.82
528.04	1031.28
528.40	1034.20
528.76	1037.13
529.12	1040.17
529.48	1043.77
529.84	1046.77
530.20	1049.45
530.56	1052.19
530.91	1055.46
531.27	1058.40
531.63	1061.53
531.99	1064.37
532.35	1067.03
532.71	1069.61
533.07	1072.62
533.42	1075.37
533.78	1078.03
534.14	1081.03
534.50	1083.60
534.86	1086.09
535.21	1088.00
535.57	1090.68
535.93	1093.08
536.29	1095.68
536.65	1098.27
537.00	1100.40
537.36	1102.39
537.72	1104.64
538.08	1106.75
538.44	1108.78
538.79	1111.20
539.15	1113.38
539.51	1115.67
539.87	1117.89
540.22	1120.11
540.58	1122.40
540.94	1124.46
541.29	1126.48
541.65	1127.88
542.01	1130.07
542.37	1131.88
542.72	1133.99
543.08	1135.48
543.44	1137.53
543.79	1138.93
544.15	1140.42
544.51	1142.21
544.87	1144.29
545.22	1146.00
545.58	1147.66
545.94	1148.98
546.29	1149.82
546.65	1150.71
547.01	1151.84
547.36	1153.09
547.72	1154.28
548.07	1155.05
548.43	1155.66
548.79	1156.05
549.14	1157.16
549.50	1157.87
549.86	1158.56
550.21	1159.56
550.57	1160.85
550.92	1161.36
551.28	1162.33
551.64	1163.11
551.99	1163.92
552.35	1164.36
552.70	1164.87
553.06	1165.93
553.41	1166.69
553.77	1167.70
554.13	1168.95
554.48	1169.96
554.84	1170.91
555.19	1171.33
555.55	1172.11
555.90	1173.03
556.26	1173.67
556.61	1174.20
556.97	1174.58
557.32	1175.27
557.68	1175.45
558.03	1175.45
558.39	1175.63
558.74	1176.00
559.10	1176.27
559.45	1176.54
559.81	1177.01
560.16	1177.40
560.52	1177.20
560.87	1177.44
561.23	1177.14
561.58	1177.46
561.94	1177.38
562.29	1176.70
562.64	1176.92
563.00	1176.77
563.35	1176.94
563.71	1177.70
564.06	1177.83
564.42	1178.36
564.77	1178.71
565.12	1179.16
565.48	1179.69
565.83	1180.06
566.19	1180.76
566.54	1180.67
566.89	1180.79
567.25	1181.03
567.60	1181.18
567.96	1181.52
568.31	1181.83
568.66	1182.16
569.02	1181.44
569.37	1180.67
569.72	1180.77
570.08	1180.37
570.43	1179.71
570.78	1179.05
571.14	1177.85
571.49	1176.97
571.84	1176.03
572.20	1174.77
572.55	1173.66
572.90	1172.01
573.26	1170.64
573.61	1168.73
573.96	1167.33
574.31	1165.35
574.67	1163.32
575.02	1160.95
575.37	1158.70
575.72	1156.01
576.08	1153.95
576.43	1151.73
576.78	1149.79
577.13	1147.60
577.49	1145.54
577.84	1143.57
578.19	1141.43
578.54	1139.65
578.90	1137.94
579.25	1135.65
579.60	1133.04
579.95	1130.48
580.30	1128.50
580.66	1126.23
581.01	1123.84
581.36	1120.92
581.71	1118.24
582.06	1115.82
582.42	1113.69
582.77	1110.81
583.12	1108.32
583.47	1105.43
583.82	1102.66
584.17	1099.84
584.53	1097.11
584.88	1094.20
585.23	1091.25
585.58	1088.24
585.93	1085.06
586.28	1082.14
586.63	1079.32
586.98	1076.60
587.34	1073.97
587.69	1070.74
588.04	1067.80
588.39	1065.00
588.74	1062.09
589.09	1059.55
589.44	1056.07
589.79	1053.01
590.14	1050.48
590.49	1047.71
590.84	1044.80
591.19	1042.21
591.54	1039.51
591.89	1036.04
592.25	1032.76
592.60	1029.52
592.95	1026.03
593.30	1022.36
593.65	1018.53
594.00	1014.77
594.35	1012.34
594.70	1008.76
595.05	1005.44
595.40	1002.00
595.75	998.00
596.10	994.97
596.45	991.32
596.80	988.29
597.15	985.06
597.50	981.22
597.85	977.66
598.19	974.21
598.54	970.66
598.89	967.04
599.24	964.24
599.59	960.89
599.94	957.68
600.29	954.29
600.64	951.18
600.99	947.76
601.34	944.68
601.69	940.35
602.04	936.70
602.39	933.05
602.74	929.67
603.08	926.54
603.43	923.47
603.78	920.10
604.13	916.65
604.48	913.36
604.83	910.54
605.18	907.64
605.53	904.26
605.87	900.78
606.22	897.76
606.57	893.89
606.92	890.38
607.27	886.59
607.62	883.31
607.96	879.96
608.31	876.95
608.66	873.38
609.01	869.79
609.36	866.23
609.70	862.61
610.05	858.89
610.40	855.29
610.75	851.21
611.10	847.82
611.44	843.60
611.79	839.51
612.14	835.49
612.49	831.13
612.83	827.38
613.18	823.43
613.53	819.29
613.88	815.37
614.22	811.66
614.57	807.80
614.92	803.95
615.27	800.02
615.61	795.90
615.96	792.16
616.31	788.65
616.65	785.40
617.00	781.70
617.35	777.89
617.70	774.09
618.04	770.18
618.39	765.97
618.74	762.59
619.08	758.95
619.43	755.19
619.78	751.65
620.12	748.07
620.47	744.52
620.82	740.76
621.16	736.99
621.51	733.20
621.85	729.82
622.20	726.08
622.55	722.41
622.89	718.80
623.24	715.06
623.59	711.03
623.93	707.19
624.28	703.84
624.62	700.77
624.97	697.33
625.32	693.87
625.66	690.63
626.01	687.16
626.35	683.60
626.70	680.09
627.04	676.77
627.39	673.31
627.73	670.13
628.08	667.19
628.43	663.91
628.77	660.63
629.12	656.97
629.46	653.95
629.81	650.63
630.15	647.52
630.50	644.29
630.84	641.15
631.19	637.96
631.53	634.85
631.88	631.24
632.22	627.89
632.57	624.99
632.91	621.81
633.26	618.72
633.60	615.71
633.95	612.79
634.29	609.62
634.64	606.66
634.98	603.36
635.32	600.21
635.67	597.57
636.01	594.65
636.36	591.96
636.70	589.18
637.05	586.48
637.39	583.65
637.73	580.89
638.08	578.54
638.42	575.95
638.77	573.18
639.11	570.50
639.45	567.97
639.80	565.05
640.14	562.28
640.49	559.60
640.83	556.85
641.17	554.19
641.52	551.54
641.86	548.77
642.20	546.32
642.55	543.51
642.89	540.60
643.23	537.94
643.58	535.55
643.92	532.63
644.26	530.07
644.61	527.48
644.95	525.02
645.29	522.20
645.64	519.58
645.98	516.95
646.32	514.67
646.66	511.89
647.01	509.47
647.35	507.18
647.69	504.54
648.04	502.20
648.38	499.75
648.72	497.23
649.06	494.63
649.41	492.17
649.75	489.65
650.09	487.36
650.43	484.91
650.78	482.27
651.12	479.90
651.46	477.55
651.80	475.24
652.14	472.73
652.49	470.49
652.83	468.02
653.17	465.59
653.51	463.08
653.85	461.03
654.20	458.80
654.54	456.37
654.88	454.16
655.22	451.86
655.56	449.33
655.90	447.04
656.25	444.86
656.59	442.55
656.93	440.50
657.27	438.51
657.61	436.30
657.95	434.27
658.29	432.26
658.64	430.29
658.98	428.08
659.32	425.90
659.66	423.75
660.00	421.69
660.34	419.62
660.68	417.50
661.02	415.24
661.36	413.24
661.70	411.37
662.05	409.44
662.39	407.59
662.73	405.99
663.07	404.38
663.41	402.62
663.75	400.69
664.09	398.83
664.43	396.77
664.77	394.97
665.11	393.06
665.45	391.25
665.79	389.43
666.13	387.70
666.47	386.14
666.81	384.40
667.15	382.69
667.49	381.17
667.83	379.61
668.17	378.08
668.51	376.53
668.85	374.89
669.19	373.58
669.53	371.87
669.87	370.17
670.21	368.56
670.55	367.08
670.89	365.86
671.23	364.51
671.57	363.23
671.91	361.83
672.25	360.48
672.58	359.21
672.92	357.72
673.26	356.44
673.60	355.05
673.94	353.68
674.28	352.34
674.62	351.03
674.96	349.78
675.30	348.54
675.64	347.18
675.97	345.89
676.31	344.49
676.65	343.38
676.99	342.40
677.33	341.16
677.67	339.94
678.01	338.54
678.34	337.25
678.68	336.07
679.02	334.86
679.36	333.67
679.70	332.33
680.04	331.20
680.37	329.99
680.71	328.81
681.05	327.78
681.39	326.67
681.73	325.55
682.06	324.49
682.40	323.43
682.74	322.47
683.08	321.53
683.42	320.43
683.75	319.32
684.09	318.09
684.43	316.97
684.77	315.78
685.10	314.77
685.44	313.70
685.78	312.59
686.12	311.64
686.45	310.54
686.79	309.47
687.13	308.58
687.46	307.61
687.80	306.80
688.14	305.83
688.48	304.98
688.81	304.06
689.15	303.10
689.49	302.12
689.82	301.16
690.16	300.08
690.50	299.13
690.83	298.21
691.17	297.21
691.51	296.26
691.84	295.49
692.18	294.69
692.52	293.77
692.85	293.04
693.19	292.35
693.52	291.56
693.86	290.76
694.20	289.85
694.53	288.99
694.87	288.09
695.21	287.22
695.54	286.31
695.88	285.34
696.21	284.47
696.55	283.72
696.88	282.96
697.22	282.23
697.56	281.62
697.89	280.89
698.23	280.23
698.56	279.53
698.90	278.85
699.23	278.01
699.57	277.37
699.90	276.51
700.24	275.61
700.58	274.97
700.91	274.31
701.25	273.90
701.58	273.31
701.92	272.68
702.25	272.02
702.59	271.38
702.92	270.90
703.26	270.23
703.59	269.61
703.93	269.19
704.26	268.57
704.60	267.91
704.93	267.28
705.26	266.62
705.60	266.15
705.93	265.45
706.27	265.01
706.60	264.46
706.94	264.04
707.27	263.50
707.61	262.95
707.94	262.35
708.27	261.49
708.61	260.86
708.94	260.29
709.28	259.85
709.61	259.38
709.94	258.85
710.28	258.35
710.61	257.88
710.95	257.10
711.28	256.84
711.61	256.31
711.95	255.92
712.28	255.41
712.61	254.91
712.95	254.67
713.28	254.25
713.61	253.76
713.95	253.26
714.28	252.87
714.61	252.34
714.95	251.97
715.28	251.49
715.61	251.03
715.95	250.72
716.28	250.19
716.61	249.90
716.95	249.40
717.28	249.05
717.61	248.60
717.94	248.22
718.28	247.58
718.61	247.23
718.94	246.87
719.27	246.58
719.61	246.23
719.94	245.72
720.27	245.19
720.60	244.91
720.94	244.56
721.27	244.25
721.60	243.95
721.93	243.62
722.27	243.49
722.60	243.28
722.93	242.83
723.26	242.64
723.59	242.18
723.93	241.97
724.26	241.66
724.59	241.35
724.92	241.05
725.25	240.87
725.59	240.54
725.92	240.24
726.25	239.95
726.58	239.65
726.91	239.45
727.24	239.30
727.57	238.96
727.91	238.59
728.24	238.31
728.57	238.11
728.90	237.88
729.23	237.52
729.56	237.42
729.89	237.15
730.22	236.80
730.55	236.54
730.89	236.28
731.22	236.00
731.55	235.74
731.88	235.55
732.21	235.24
732.54	235.02
732.87	234.74
733.20	234.52
733.53	234.23
733.86	234.00
734.19	233.67
734.52	233.48
734.85	233.54
735.18	233.24
735.51	233.07
735.84	232.87
736.17	232.65
736.50	232.20
736.83	232.50
737.16	232.24
737.49	232.05
737.82	231.75
738.15	231.56
738.48	231.42
738.81	231.18
739.14	231.05
739.47	230.82
739.80	230.65
740.13	230.45
740.46	230.23
740.79	230.01
741.12	229.85
741.45	229.63
741.78	229.27
742.11	229.16
742.44	228.86
742.77	228.80
743.10	228.59
743.43	228.46
743.75	227.86
744.08	228.20
744.41	227.94
744.74	227.85
745.07	227.67
745.40	227.55
745.73	227.54
746.06	227.30
746.39	227.17
746.71	226.92
747.04	226.74
747.37	226.60
747.70	226.47
748.03	226.32
748.36	226.21
748.68	226.01
749.01	225.78
749.34	225.70
749.67	225.49
750.00	225.39
750.33	225.40
750.65	225.27
750.98	224.69
751.31	224.65
751.64	224.45
751.97	224.54
752.29	224.36
752.62	224.03
752.95	223.91
753.28	223.68
753.60	223.57
753.93	223.50
754.26	223.40
754.59	223.17
754.91	223.03
755.24	222.93
755.57	222.76
755.90	222.65
756.22	222.44
756.55	222.25
756.88	222.09
757.20	221.79
757.53	221.51
757.86	221.44
758.19	221.34
758.51	221.26
758.84	220.93
759.17	220.80
759.49	220.78
759.82	220.88
760.15	220.88
760.47	220.74
760.80	220.60
761.13	220.57
761.45	220.46
761.78	220.34
762.11	220.17
762.43	220.10
762.76	219.96
763.08	219.87
763.41	219.81
763.74	219.78
764.06	219.70
764.39	219.73
764.71	219.60
765.04	219.49
765.37	219.36
765.69	219.26
766.02	219.10
766.34	218.94
766.67	218.67
767.00	218.53
767.32	218.67
767.65	218.76
767.97	218.67
768.30	218.67
768.62	218.57
768.95	218.48
769.27	218.40
769.60	218.42
769.92	218.33
770.25	218.18
770.57	218.02
770.90	217.90
771.22	217.75
771.55	217.68
771.87	217.58
772.20	217.49
772.52	217.75
772.85	218.14
773.17	218.08
773.50	217.99
773.82	217.99
774.15	217.73
774.47	217.45
774.80	217.34
775.12	217.21
775.45	217.15
775.77	217.11
776.09	217.12
776.42	217.09
776.74	217.19
777.07	217.06
777.39	217.00
777.72	216.95
778.04	216.96
778.36	216.97
778.69	217.01
779.01	217.01
779.33	216.64
779.66	216.21
779.98	216.11
780.31	216.11
780.63	216.24
780.95	216.26
781.28	216.24
781.60	216.17
781.92	216.13
782.25	216.09
782.57	216.02
782.89	215.89
783.22	215.73
783.54	215.59
783.86	215.66
784.19	215.61
784.51	215.69
784.83	215.57
785.16	215.44
785.48	215.34
785.80	215.29
786.12	215.28
786.45	215.24
786.77	215.28
787.09	215.19
787.42	215.00
787.74	214.95
788.06	214.91
788.38	214.85
788.71	214.80
789.03	214.80
789.35	214.91
789.67	214.92
789.99	214.89
790.32	214.83
790.64	214.82
790.96	215.13
791.28	215.08
791.61	215.05
791.93	215.00
792.25	214.97
792.57	215.17
792.89	215.04
793.21	215.04
793.54	214.97
793.86	214.90
794.18	214.86
794.50	214.78
794.82	214.72
795.14	214.83
795.47	214.83
795.79	214.86
796.11	214.67
796.43	214.59
796.75	214.64
797.07	214.56
797.39	214.56
797.71	214.25
798.04	214.12
798.36	214.17
798.68	214.14
799.00	214.04
799.32	213.87
799.64	213.98
799.96	213.93
800.28	214.01
800.60	213.98
800.92	214.03
801.24	214.04
801.56	214.11
801.89	213.99
802.21	213.98
802.53	213.91
802.85	213.99
803.17	214.16
803.49	214.06
803.81	214.10
804.13	214.02
804.45	213.97
804.77	214.05
805.09	214.05
805.41	214.08
805.73	214.10
806.05	214.04
806.37	213.98
806.69	213.97
807.01	213.81
807.33	213.85
807.65	213.63
807.97	213.76
808.28	213.65
808.60	213.66
808.92	213.63
809.24	213.80
809.56	213.74
809.88	213.57
810.20	213.54
810.52	213.55
810.84	213.50
811.16	213.44
811.48	213.37
811.80	213.40
812.12	213.31
812.43	213.39
812.75	213.35
813.07	213.35
813.39	213.32
813.71	213.26
814.03	213.26
814.35	213.31
814.67	213.15
814.98	213.12
815.30	213.06
815.62	213.01
815.94	212.70
816.26	212.70
816.58	212.61
816.89	212.65
817.21	212.59
817.53	212.69
817.85	212.64
818.17	212.65
818.48	212.49
818.80	212.57
819.12	212.46
819.44	212.40
819.76	212.29
820.07	212.33
820.39	212.40
820.71	212.34
821.03	212.32
821.34	212.28
821.66	212.32
821.98	212.40
822.30	212.39
822.61	212.62
822.93	212.56
823.25	212.54
823.57	212.51
823.88	212.58
824.20	212.47
824.52	212.57
824.83	212.51
825.15	212.52
825.47	212.42
825.79	212.43
826.10	212.43
826.42	212.40
826.74	212.41
827.05	212.40
827.37	212.42
827.69	212.37
828.00	212.32
828.32	212.30
828.64	212.16
828.95	212.31
829.27	212.19
829.58	212.18
829.90	212.22
830.22	212.30
830.53	212.18
830.85	212.15
831.17	212.04
831.48	212.05
831.80	212.08
832.11	212.16
832.43	212.08
832.75	212.04
833.06	212.27
833.38	212.11
833.69	212.09
834.01	212.14
834.32	212.13
834.64	212.12
834.96	212.10
835.27	212.10
835.59	212.00
835.90	212.01
836.22	211.98
836.53	211.96
836.85	211.84
837.16	212.21
837.48	212.21
837.79	212.36
838.11	212.39
838.42	212.37
838.74	212.36
839.05	212.46
839.37	212.48
839.68	212.20
840.00	212.20
840.31	212.20
840.63	212.16
840.94	212.12
841.26	212.09
841.57	212.14
841.88	212.26
842.20	212.25
842.51	212.09
842.83	212.17
843.14	212.48
843.46	212.58
843.77	212.37
844.08	212.38
844.40	212.28
844.71	212.22
845.03	212.18
845.34	212.12
845.65	212.11
845.97	212.15
846.28	212.22
846.60	212.33
846.91	212.35
847.22	212.31
847.54	212.40
847.85	212.44
848.16	212.37
848.48	212.30
848.79	212.36
849.10	212.46
849.42	212.44
849.73	212.12
850.04	212.06
850.36	211.96
850.67	212.10
850.98	212.07
851.30	212.14
851.61	212.14
851.92	212.21
852.23	212.22
852.55	212.22
852.86	212.29
853.17	212.25
853.49	212.27
853.80	212.42
854.11	212.47
854.42	212.53
854.74	212.56
855.05	212.53
855.36	212.36
855.67	212.40
855.99	212.36
856.30	212.75
856.61	212.72
856.92	212.73
857.23	212.61
857.55	212.54
857.86	212.43
858.17	212.47
858.48	212.37
858.79	212.31
859.11	212.34
859.42	212.26
859.73	212.22
860.04	212.21
860.35	212.06
860.66	211.91
860.98	211.92
861.29	211.88
861.60	211.88
861.91	211.97
862.22	211.88
862.53	211.84
862.84	211.44
863.16	211.50
863.47	211.40
863.78	211.39
864.09	211.43
864.40	211.49
864.71	211.52
865.02	211.60
865.33	211.55
865.64	211.49
865.95	211.42
866.27	211.62
866.58	211.56
866.89	211.57
867.20	211.55
867.51	211.44
867.82	211.39
868.13	211.50
868.44	211.39
868.75	211.43
869.06	211.43
869.37	211.44
869.68	211.41
869.99	211.52
870.30	211.50
870.61	211.56
870.92	211.51
871.23	211.45
871.54	211.46
871.85	211.56
872.16	211.61
872.47	211.60
872.78	211.44
873.09	211.43
873.40	211.42
873.71	211.50
874.02	211.51
874.33	211.51
874.64	211.38
874.95	211.40
875.26	211.32
875.56	211.30
875.87	211.30
876.18	211.27
876.49	211.55
876.80	211.59
877.11	211.55
877.42	211.62
877.73	211.63
878.04	211.55
878.35	211.58
878.66	211.58
878.96	211.69
879.27	211.70
879.58	211.77
879.89	211.81
880.20	211.80
880.51	211.81
880.82	211.88
881.12	211.95
881.43	211.98
881.74	211.96
882.05	211.96
882.36	212.04
882.67	212.03
882.97	211.70
883.28	211.63
883.59	211.65
883.90	211.63
884.21	211.70
884.51	211.75
884.82	211.66
885.13	211.69
885.44	211.71
885.74	211.70
886.05	211.69
886.36	211.69
886.67	211.67
886.98	211.84
887.28	211.87
887.59	211.84
887.90	211.91
888.20	211.88
888.51	212.00
888.82	211.89
889.13	211.94
889.43	212.23
889.74	212.24
890.05	212.24
890.35	212.25
890.66	212.21
890.97	212.14
891.28	212.10
891.58	212.07
891.89	212.00
892.20	211.90
892.50	211.83
892.81	211.76
893.12	211.77
893.42	211.60
893.73	211.62
894.04	211.61
894.34	211.62
894.65	211.70
894.95	211.63
895.26	211.67
895.57	211.81
895.87	211.48
896.18	211.52
896.48	211.54
896.79	211.46
897.10	211.50
897.40	211.50
897.71	211.52
898.01	211.46
898.32	211.49
898.63	211.57
898.93	211.61
899.24	211.63
899.54	211.58
899.85	211.58
900.15	211.54
900.46	211.57
900.76	211.56
901.07	211.52
901.38	211.54
901.68	211.56
901.99	211.35
902.29	211.38
902.60	211.39
902.90	211.22
903.21	211.27
903.51	211.21
903.82	211.30
904.12	211.26
904.43	211.28
904.73	211.28
905.03	211.20
905.34	211.50
905.64	211.47
905.95	211.41
906.25	211.44
906.56	211.39
906.86	211.36
907.17	211.32
907.47	211.40
907.77	211.33
908.08	211.24
908.38	211.25
908.69	211.25
908.99	211.33
909.30	211.47
909.60	211.43
909.90	211.44
910.21	211.38
910.51	211.30
910.81	211.32
911.12	211.29
911.42	211.32
911.73	211.07
912.03	211.15
912.33	211.22
912.64	211.21
912.94	211.13
913.24	211.07
913.55	211.04
913.85	210.94
914.15	210.92
914.46	211.05
914.76	211.06
915.06	211.03
915.37	210.95
915.67	210.91
915.97	210.96
916.27	210.86
916.58	210.84
916.88	210.89
917.18	210.90
917.49	211.13
917.79	211.18
918.09	211.10
918.39	211.14
918.70	211.26
919.00	211.16
919.30	211.36
919.60	211.34
919.91	211.24
920.21	211.28
920.51	211.33
920.81	211.21
921.12	211.28
921.42	211.26
921.72	211.25
922.02	211.25
922.32	211.27
922.63	211.30
922.93	211.49
923.23	211.50
923.53	211.42
923.83	211.17
924.13	211.12
924.44	211.15
924.74	211.13
925.04	211.07
925.34	211.15
925.64	211.08
925.94	211.04
926.24	211.26
926.55	211.21
926.85	211.23
927.15	211.24
927.45	211.17
927.75	211.19
928.05	211.22
928.35	211.15
928.65	211.15
928.95	211.20
929.26	211.01
929.56	211.08
929.86	211.18
930.16	211.20
930.46	211.21
930.76	211.21
931.06	211.14
931.36	211.09
931.66	211.15
931.96	211.11
932.26	211.21
932.56	211.14
932.86	211.13
933.16	211.13
933.46	211.15
933.76	211.14
934.06	211.23
934.36	211.37
934.66	211.37
934.96	211.36
935.26	211.40
935.56	211.49
935.86	211.42
936.16	211.32
936.46	211.35
936.76	211.32
937.06	211.25
937.36	211.27
937.66	211.27
937.96	211.20
938.26	211.18
938.56	211.10
938.86	211.06
939.16	211.18
939.46	211.28
939.76	211.29
940.06	211.28
940.35	211.20
940.65	210.95
940.95	211.02
941.25	210.90
941.55	210.79
941.85	210.73
942.15	210.76
942.45	210.89
942.75	210.86
943.04	210.83
943.34	210.95
943.64	210.93
943.94	210.95
944.24	211.01
944.54	211.03
944.84	211.08
945.13	211.09
945.43	211.06
945.73	210.97
946.03	210.93
946.33	210.89
946.62	210.89
946.92	210.86
947.22	210.87
947.52	211.00
947.82	211.05
948.11	211.02
948.41	210.96
948.71	210.87
949.01	210.92
949.31	210.99
949.60	210.90
949.90	210.94
950.20	210.90
950.50	210.79
950.79	210.69
951.09	210.72
951.39	210.74
951.69	210.70
951.98	210.76
952.28	210.78
952.58	210.82
952.87	210.82
953.17	210.95
953.47	210.91
953.76	210.85
954.06	210.80
954.36	210.76
954.66	210.75
954.95	210.78
955.25	210.74
955.55	210.76
955.84	210.75
956.14	210.77
956.44	210.83
956.73	210.90
957.03	210.94
957.32	210.89
957.62	210.90
957.92	210.99
958.21	210.96
958.51	211.33
958.81	211.37
959.10	211.41
959.40	211.43
959.69	211.48
959.99	211.55
960.29	211.61
960.58	211.62
960.88	211.78
961.17	211.81
961.47	211.88
961.76	211.82
962.06	211.83
962.36	211.81
962.65	211.74
962.95	211.78
963.24	211.79
963.54	211.83
963.83	211.80
964.13	211.76
964.42	211.66
964.72	211.42
965.01	211.37
965.31	211.38
965.60	211.30
965.90	211.50
966.19	211.37
966.49	211.37
966.78	211.40
967.08	211.37
967.37	211.37
967.67	211.27
967.96	211.34
968.26	211.40
968.55	211.39
968.85	211.40
969.14	211.38
969.43	211.38
969.73	211.38
970.02	211.37
970.32	211.30
970.61	211.37
970.91	211.23
971.20	211.16
971.49	211.08
971.79	211.09
972.08	210.92
972.38	210.93
972.67	210.95
972.96	210.96
973.26	210.80
973.55	210.91
973.85	210.92
974.14	210.80
974.43	210.85
974.73	210.78
975.02	210.81
975.31	210.81
975.61	210.80
975.90	210.73
976.19	210.67
976.49	210.80
976.78	210.80
977.07	210.82
977.37	210.83
977.66	210.84
977.95	210.82
978.24	210.82
978.54	211.02
978.83	210.98
979.12	211.02
979.42	211.05
979.71	211.00
980.00	210.93
980.29	210.98
980.59	210.82
980.88	210.93
981.17	210.90
981.46	210.88
981.76	210.88
982.05	211.00
982.34	211.00
982.63	210.94
982.93	210.89
983.22	210.99
983.51	211.07
983.80	211.14
984.09	211.21
984.39	211.15
984.68	210.95
984.97	210.96
985.26	210.90
985.55	210.90
985.85	210.76
986.14	210.88
986.43	210.89
986.72	210.93
987.01	210.78
987.30	210.76
987.59	210.72
987.89	210.77
988.18	210.66
988.47	210.65
988.76	210.67
989.05	210.73
989.34	210.64
989.63	210.75
989.92	210.71
990.22	210.69
990.51	210.70
990.80	210.77
991.09	210.83
991.38	210.89
991.67	210.94
991.96	210.97
992.25	210.98
992.54	210.95
992.83	211.00
993.12	211.05
993.41	211.15
993.70	211.35
993.99	211.37
994.28	211.49
994.58	211.53
994.87	211.50
995.16	211.47
995.45	211.45
995.74	211.30
996.03	211.40
996.32	211.49
996.61	211.56
996.90	211.53
997.19	211.52
997.48	211.50
997.77	211.47
998.06	211.50
998.34	211.48
998.63	211.52
998.92	211.41
999.21	211.49
999.50	211.39
999.79	211.16
1000.08	211.19
1000.37	211.12
1000.66	211.13
1000.95	211.12
1001.24	211.16
1001.53	211.21
1001.82	211.18
1002.11	211.03
1002.40	211.00
1002.68	211.01
1002.97	211.28
1003.26	211.28
1003.55	211.21
1003.84	211.21
1004.13	211.31
1004.42	211.32
1004.71	211.33
1004.99	211.42
1005.28	211.44
1005.57	211.58
1005.86	211.59
1006.15	211.55
1006.44	211.44
1006.72	211.44
1007.01	211.38
1007.30	211.35
1007.59	211.29
1007.88	211.24
1008.17	211.28
1008.45	211.23
1008.74	211.13
1009.03	210.95
1009.32	210.88
1009.60	210.86
1009.89	210.86
1010.18	210.65
1010.47	210.59
1010.76	210.54
1011.04	210.52
1011.33	210.49
1011.62	210.45
1011.91	210.50
1012.19	210.41
1012.48	210.46
1012.77	210.49
1013.05	210.66
1013.34	210.61
1013.63	210.57
1013.92	210.70
1014.20	210.67
1014.49	210.62
1014.78	210.60
1015.06	210.48
1015.35	210.53
1015.64	210.57
1015.92	210.54
1016.21	210.59
1016.50	210.58
1016.78	210.65
1017.07	210.64
1017.36	210.53
1017.64	210.41
1017.93	210.44
1018.22	210.41
1018.50	210.39
1018.79	210.34
1019.08	210.18
1019.36	210.21
1019.65	210.20
1019.93	210.20
1020.22	210.31
1020.51	210.45
1020.79	210.44
1021.08	208.95
1021.36	209.25
1021.65	210.35
1021.94	210.25
1022.22	210.55
1022.51	209.10
1022.79	211.85
1023.08	211.90
1023.36	213.80
1023.65	209.80
>>>>>End Processed Spectral Data<<<<<
