SpectraSuite Data File
++++++++++++++++++++++++++++++++++++
Date: Mon Feb 25 16:57:46 EST 2013
User: group
Dark Spectrum Present: No
Reference Spectrum Present: No
Number of Sampled Component Spectra: 1
Spectrometers: USB2E7196
Integration Time (usec): 104000 (USB2E7196)
Spectra Averaged: 20 (USB2E7196)
Boxcar Smoothing: 10 (USB2E7196)
Correct for Electrical Dark: No (USB2E7196)
Strobe/Lamp Enabled: No (USB2E7196)
Correct for Detector Non-linearity: No (USB2E7196)
Correct for Stray Light: No (USB2E7196)
Number of Pixels in Processed Spectrum: 2048
>>>>>Begin Processed Spectral Data<<<<<
339.09	0.00
339.48	198.45
339.86	200.25
340.24	201.45
340.63	203.50
341.01	208.85
341.39	205.90
341.78	207.10
342.16	209.85
342.54	209.20
342.93	198.40
343.31	208.36
343.69	208.91
344.07	209.36
344.46	209.84
344.84	210.20
345.22	210.35
345.60	210.62
345.99	210.82
346.37	210.85
346.75	210.98
347.13	211.00
347.52	211.01
347.90	211.25
348.28	211.28
348.66	211.36
349.05	211.29
349.43	211.30
349.81	211.38
350.19	211.44
350.57	211.53
350.96	211.67
351.34	211.90
351.72	211.99
352.10	212.14
352.48	212.22
352.87	212.27
353.25	212.23
353.63	212.24
354.01	212.36
354.39	212.47
354.77	212.42
355.15	212.60
355.54	212.65
355.92	212.58
356.30	212.70
356.68	212.93
357.06	213.01
357.44	213.01
357.82	213.10
358.20	213.22
358.58	213.20
358.97	213.21
359.35	213.25
359.73	213.41
360.11	213.44
360.49	213.49
360.87	213.48
361.25	213.65
361.63	213.81
362.01	213.88
362.39	213.97
362.77	214.12
363.15	214.18
363.53	214.24
363.91	214.25
364.29	214.26
364.67	213.97
365.05	213.98
365.43	214.04
365.81	214.11
366.19	214.25
366.57	214.39
366.95	214.40
367.33	214.36
367.71	214.39
368.09	214.39
368.47	214.38
368.85	214.44
369.23	214.49
369.61	214.37
369.99	214.35
370.37	214.27
370.75	214.37
371.13	214.27
371.51	214.28
371.89	214.28
372.27	214.20
372.65	214.20
373.03	214.16
373.41	214.17
373.78	214.11
374.16	213.81
374.54	213.69
374.92	213.60
375.30	213.59
375.68	213.39
376.06	213.37
376.44	213.26
376.82	213.27
377.19	213.15
377.57	213.09
377.95	212.96
378.33	212.93
378.71	212.73
379.09	212.72
379.47	212.62
379.84	212.52
380.22	212.44
380.60	212.34
380.98	212.25
381.36	212.14
381.73	212.09
382.11	212.18
382.49	212.29
382.87	212.20
383.25	212.12
383.62	212.52
384.00	212.42
384.38	212.46
384.76	212.45
385.13	212.62
385.51	212.59
385.89	212.61
386.27	212.54
386.64	212.48
387.02	212.46
387.40	212.43
387.78	212.42
388.15	212.50
388.53	212.45
388.91	212.50
389.29	212.50
389.66	212.51
390.04	212.43
390.42	212.37
390.79	212.39
391.17	212.35
391.55	211.95
391.92	211.91
392.30	211.86
392.68	211.78
393.05	211.73
393.43	211.72
393.81	211.70
394.18	211.71
394.56	211.78
394.94	211.80
395.31	211.74
395.69	211.88
396.06	211.90
396.44	211.99
396.82	211.99
397.19	212.27
397.57	212.29
397.95	212.35
398.32	212.26
398.70	212.31
399.07	212.41
399.45	212.41
399.82	212.51
400.20	212.55
400.58	212.63
400.95	212.50
401.33	212.70
401.70	213.00
402.08	213.07
402.45	213.19
402.83	213.30
403.20	213.51
403.58	213.60
403.95	213.85
404.33	214.05
404.71	214.23
405.08	214.56
405.46	214.71
405.83	215.01
406.21	215.33
406.58	215.63
406.96	216.00
407.33	216.38
407.70	216.79
408.08	217.46
408.45	217.96
408.83	218.55
409.20	218.98
409.58	219.36
409.95	220.03
410.33	220.71
410.70	221.38
411.08	222.11
411.45	222.92
411.82	223.56
412.20	224.57
412.57	225.74
412.95	226.39
413.32	227.57
413.69	228.68
414.07	229.93
414.44	231.31
414.82	232.75
415.19	234.37
415.56	236.04
415.94	237.69
416.31	239.70
416.68	241.64
417.06	243.96
417.43	246.07
417.81	248.58
418.18	251.18
418.55	253.94
418.93	256.82
419.30	259.83
419.67	263.15
420.04	266.41
420.42	269.83
420.79	274.05
421.16	278.15
421.54	282.49
421.91	286.85
422.28	291.48
422.66	296.23
423.03	301.08
423.40	306.04
423.77	311.35
424.15	316.74
424.52	322.40
424.89	328.54
425.26	334.59
425.64	340.40
426.01	346.75
426.38	353.36
426.75	360.13
427.13	367.08
427.50	374.46
427.87	382.11
428.24	389.91
428.61	397.17
428.99	405.18
429.36	413.94
429.73	422.56
430.10	431.05
430.47	440.01
430.85	449.02
431.22	458.77
431.59	469.19
431.96	479.15
432.33	490.21
432.70	500.97
433.08	513.50
433.45	525.23
433.82	536.92
434.19	550.12
434.56	563.14
434.93	575.70
435.30	588.26
435.68	602.32
436.05	616.15
436.42	630.10
436.79	642.90
437.16	656.61
437.53	671.36
437.90	685.93
438.27	700.39
438.64	715.56
439.01	729.42
439.38	741.92
439.75	754.24
440.13	768.08
440.50	781.16
440.87	792.22
441.24	803.66
441.61	816.33
441.98	825.96
442.35	837.00
442.72	848.00
443.09	858.60
443.46	865.56
443.83	870.53
444.20	874.84
444.57	880.71
444.94	884.23
445.31	887.76
445.68	891.14
446.05	893.12
446.42	892.73
446.79	892.27
447.16	891.60
447.53	891.31
447.90	887.29
448.27	883.09
448.64	876.68
449.01	872.55
449.37	863.91
449.74	855.60
450.11	845.60
450.48	834.74
450.85	823.52
451.22	813.66
451.59	804.50
451.96	795.85
452.33	783.93
452.70	772.95
453.07	759.57
453.43	746.34
453.80	733.44
454.17	720.98
454.54	709.28
454.91	696.47
455.28	684.08
455.65	672.46
456.02	660.97
456.38	651.25
456.75	638.83
457.12	628.70
457.49	618.55
457.86	608.65
458.23	600.09
458.59	590.78
458.96	581.50
459.33	573.02
459.70	564.62
460.07	558.04
460.43	550.43
460.80	543.29
461.17	536.81
461.54	530.20
461.91	524.10
462.27	517.79
462.64	512.48
463.01	506.51
463.38	500.70
463.74	494.75
464.11	489.59
464.48	484.97
464.85	480.07
465.21	476.46
465.58	472.41
465.95	467.48
466.32	463.53
466.68	459.56
467.05	455.54
467.42	451.55
467.78	447.37
468.15	443.45
468.52	440.56
468.88	436.86
469.25	433.35
469.62	430.46
469.98	427.37
470.35	424.48
470.72	421.72
471.08	418.74
471.45	416.29
471.82	413.85
472.18	411.11
472.55	409.04
472.92	406.65
473.28	404.59
473.65	402.69
474.02	400.67
474.38	398.99
474.75	397.58
475.11	396.08
475.48	394.91
475.85	393.90
476.21	392.85
476.58	391.98
476.94	391.38
477.31	390.59
477.67	389.90
478.04	389.27
478.41	388.88
478.77	388.91
479.14	388.53
479.50	388.29
479.87	388.42
480.23	388.55
480.60	388.34
480.96	388.31
481.33	388.78
481.69	389.28
482.06	389.50
482.42	389.86
482.79	390.30
483.15	390.83
483.52	391.69
483.88	392.41
484.25	393.05
484.61	393.84
484.98	394.71
485.34	395.77
485.71	397.07
486.07	398.46
486.44	399.57
486.80	401.06
487.17	402.65
487.53	404.52
487.90	406.40
488.26	408.72
488.62	410.92
488.99	413.17
489.35	415.34
489.72	418.03
490.08	420.66
490.44	423.22
490.81	426.05
491.17	428.88
491.54	431.95
491.90	435.18
492.26	438.48
492.63	442.06
492.99	445.54
493.36	449.18
493.72	452.84
494.08	456.68
494.45	460.87
494.81	465.17
495.17	469.23
495.54	473.73
495.90	478.05
496.26	482.62
496.63	487.23
496.99	492.05
497.35	496.86
497.72	502.01
498.08	507.15
498.44	512.50
498.80	517.93
499.17	523.38
499.53	529.03
499.89	534.79
500.26	540.36
500.62	546.06
500.98	552.00
501.34	557.83
501.71	563.84
502.07	569.63
502.43	575.54
502.79	581.46
503.16	587.41
503.52	593.56
503.88	599.59
504.24	605.43
504.60	611.38
504.97	617.58
505.33	623.50
505.69	630.03
506.05	636.16
506.41	642.08
506.78	647.99
507.14	653.72
507.50	659.54
507.86	665.48
508.22	671.55
508.59	677.22
508.95	683.16
509.31	688.99
509.67	694.88
510.03	700.50
510.39	706.55
510.75	712.11
511.12	717.61
511.48	723.15
511.84	728.71
512.20	734.13
512.56	739.39
512.92	744.90
513.28	750.05
513.64	755.05
514.00	760.06
514.37	765.13
514.73	770.15
515.09	775.09
515.45	779.65
515.81	784.12
516.17	788.53
516.53	792.70
516.89	797.02
517.25	801.09
517.61	805.13
517.97	809.00
518.33	812.77
518.69	816.47
519.05	820.26
519.41	823.91
519.77	827.76
520.13	831.24
520.49	834.34
520.85	837.53
521.21	840.78
521.57	844.06
521.93	846.87
522.29	849.97
522.65	852.82
523.01	855.83
523.37	858.43
523.73	861.51
524.09	864.20
524.45	866.82
524.81	869.56
525.17	872.36
525.53	875.05
525.89	877.78
526.25	880.37
526.61	882.53
526.97	884.82
527.33	887.17
527.68	889.70
528.04	892.24
528.40	894.19
528.76	896.50
529.12	899.01
529.48	901.65
529.84	903.79
530.20	906.18
530.56	908.49
530.91	911.01
531.27	913.37
531.63	915.71
531.99	918.01
532.35	920.03
532.71	922.25
533.07	924.64
533.42	927.10
533.78	929.48
534.14	932.08
534.50	934.26
534.86	936.48
535.21	938.45
535.57	940.78
535.93	943.03
536.29	945.32
536.65	947.25
537.00	949.03
537.36	951.08
537.72	953.00
538.08	955.13
538.44	957.28
538.79	959.29
539.15	961.57
539.51	963.64
539.87	965.84
540.22	967.91
540.58	970.30
540.94	972.44
541.29	974.45
541.65	976.13
542.01	978.21
542.37	980.11
542.72	982.01
543.08	983.53
543.44	986.03
543.79	987.78
544.15	989.59
544.51	991.96
544.87	994.18
545.22	996.26
545.58	998.04
545.94	999.51
546.29	1001.03
546.65	1002.57
547.01	1004.00
547.36	1005.60
547.72	1007.18
548.07	1008.16
548.43	1009.03
548.79	1010.16
549.14	1011.70
549.50	1013.18
549.86	1014.55
550.21	1015.97
550.57	1017.88
550.92	1018.70
551.28	1020.02
551.64	1021.42
551.99	1022.53
552.35	1023.86
552.70	1025.01
553.06	1026.45
553.41	1028.22
553.77	1029.75
554.13	1031.20
554.48	1032.83
554.84	1034.53
555.19	1035.92
555.55	1037.49
555.90	1039.00
556.26	1040.15
556.61	1041.03
556.97	1042.02
557.32	1043.21
557.68	1044.18
558.03	1045.07
558.39	1046.05
558.74	1047.06
559.10	1048.11
559.45	1049.05
559.81	1050.02
560.16	1050.64
560.52	1051.55
560.87	1052.20
561.23	1052.65
561.58	1053.75
561.94	1054.27
562.29	1054.28
562.64	1055.13
563.00	1055.61
563.35	1056.53
563.71	1057.72
564.06	1058.82
564.42	1060.01
564.77	1061.15
565.12	1062.36
565.48	1063.15
565.83	1064.19
566.19	1065.35
566.54	1065.71
566.89	1066.41
567.25	1067.21
567.60	1068.29
567.96	1069.06
568.31	1069.80
568.66	1070.72
569.02	1070.75
569.37	1071.07
569.72	1071.93
570.08	1071.99
570.43	1071.98
570.78	1071.84
571.14	1071.54
571.49	1071.26
571.84	1070.90
572.20	1070.35
572.55	1069.90
572.90	1069.00
573.26	1068.01
573.61	1066.90
573.96	1066.27
574.31	1065.30
574.67	1063.87
575.02	1062.13
575.37	1060.48
575.72	1058.72
576.08	1057.17
576.43	1055.59
576.78	1054.07
577.13	1052.47
577.49	1050.98
577.84	1049.53
578.19	1048.20
578.54	1047.02
578.90	1046.01
579.25	1044.22
579.60	1042.15
579.95	1039.94
580.30	1038.45
580.66	1036.96
581.01	1035.02
581.36	1032.93
581.71	1030.83
582.06	1029.04
582.42	1027.49
582.77	1025.30
583.12	1023.26
583.47	1021.20
583.82	1019.23
584.17	1017.10
584.53	1015.12
584.88	1012.70
585.23	1010.35
585.58	1007.83
585.93	1005.20
586.28	1002.58
586.63	1000.36
586.98	998.27
587.34	996.40
587.69	993.85
588.04	991.61
588.39	989.36
588.74	986.95
589.09	984.96
589.44	982.21
589.79	979.76
590.14	977.69
590.49	975.43
590.84	972.83
591.19	970.74
591.54	968.40
591.89	965.32
592.25	963.07
592.60	960.30
592.95	957.42
593.30	954.36
593.65	951.04
594.00	948.02
594.35	945.95
594.70	942.87
595.05	940.29
595.40	937.10
595.75	933.89
596.10	931.38
596.45	928.21
596.80	925.59
597.15	922.86
597.50	919.70
597.85	916.79
598.19	913.87
598.54	910.65
598.89	907.54
599.24	905.23
599.59	902.02
599.94	899.44
600.29	896.56
600.64	893.85
600.99	891.03
601.34	888.43
601.69	884.35
602.04	881.10
602.39	878.04
602.74	875.20
603.08	872.52
603.43	869.64
603.78	866.71
604.13	863.59
604.48	860.64
604.83	858.13
605.18	855.38
605.53	852.46
605.87	849.46
606.22	846.75
606.57	843.32
606.92	840.28
607.27	837.11
607.62	834.25
607.96	831.35
608.31	828.80
608.66	825.49
609.01	822.68
609.36	819.93
609.70	816.63
610.05	813.30
610.40	810.24
610.75	806.69
611.10	803.80
611.44	800.38
611.79	796.87
612.14	793.33
612.49	789.68
612.83	786.22
613.18	782.78
613.53	779.14
613.88	775.73
614.22	772.35
614.57	768.85
614.92	765.42
615.27	761.92
615.61	758.24
615.96	755.11
616.31	751.83
616.65	748.51
617.00	745.18
617.35	741.97
617.70	738.26
618.04	734.87
618.39	730.94
618.74	727.73
619.08	724.30
619.43	720.79
619.78	717.60
620.12	714.52
620.47	711.46
620.82	708.01
621.16	704.39
621.51	701.07
621.85	697.80
622.20	694.33
622.55	690.82
622.89	687.21
623.24	683.65
623.59	680.15
623.93	676.83
624.28	673.87
624.62	670.88
624.97	667.90
625.32	664.62
625.66	661.69
626.01	658.51
626.35	655.41
626.70	652.20
627.04	649.13
627.39	645.94
627.73	642.71
628.08	640.05
628.43	637.22
628.77	634.25
629.12	631.41
629.46	628.71
629.81	625.91
630.15	623.32
630.50	620.34
630.84	617.31
631.19	614.50
631.53	611.47
631.88	608.20
632.22	605.20
632.57	602.59
632.91	599.65
633.26	596.85
633.60	594.07
633.95	591.49
634.29	588.63
634.64	586.11
634.98	583.20
635.32	580.39
635.67	577.92
636.01	575.16
636.36	572.23
636.70	569.69
637.05	566.98
637.39	564.50
637.73	562.16
638.08	560.08
638.42	557.41
638.77	554.97
639.11	552.64
639.45	550.10
639.80	547.50
640.14	545.01
640.49	542.52
640.83	540.01
641.17	537.41
641.52	534.94
641.86	532.24
642.20	529.89
642.55	527.26
642.89	524.64
643.23	522.28
643.58	520.05
643.92	517.38
644.26	515.17
644.61	512.71
644.95	510.10
645.29	507.40
645.64	505.12
645.98	502.75
646.32	500.36
646.66	497.84
647.01	495.47
647.35	493.30
647.69	490.86
648.04	488.65
648.38	486.43
648.72	484.20
649.06	481.71
649.41	479.35
649.75	477.05
650.09	474.83
650.43	472.49
650.78	470.14
651.12	467.87
651.46	465.50
651.80	463.21
652.14	461.22
652.49	459.06
652.83	456.69
653.17	454.19
653.51	451.90
653.85	450.06
654.20	448.02
654.54	445.76
654.88	443.61
655.22	441.36
655.56	439.11
655.90	436.80
656.25	434.88
656.59	432.81
656.93	430.75
657.27	428.79
657.61	426.67
657.95	424.72
658.29	422.59
658.64	420.76
658.98	418.74
659.32	416.57
659.66	414.64
660.00	412.67
660.34	410.82
660.68	408.83
661.02	406.67
661.36	404.71
661.70	402.90
662.05	401.17
662.39	399.50
662.73	397.93
663.07	396.45
663.41	394.66
663.75	392.79
664.09	391.09
664.43	389.32
664.77	387.72
665.11	385.87
665.45	384.33
665.79	382.58
666.13	380.97
666.47	379.40
666.81	377.73
667.15	376.09
667.49	374.55
667.83	373.11
668.17	371.69
668.51	370.22
668.85	368.76
669.19	367.41
669.53	365.73
669.87	364.11
670.21	362.57
670.55	361.23
670.89	360.21
671.23	358.88
671.57	357.50
671.91	356.11
672.25	354.79
672.58	353.56
672.92	352.24
673.26	351.02
673.60	349.68
673.94	348.43
674.28	347.25
674.62	346.09
674.96	344.88
675.30	343.72
675.64	342.43
675.97	341.16
676.31	339.87
676.65	338.75
676.99	337.77
677.33	336.58
677.67	335.35
678.01	333.94
678.34	332.78
678.68	331.77
679.02	330.61
679.36	329.46
679.70	328.35
680.04	327.13
680.37	325.97
680.71	324.91
681.05	323.92
681.39	322.85
681.73	321.68
682.06	320.72
682.40	319.67
682.74	318.70
683.08	317.78
683.42	316.72
683.75	315.80
684.09	314.64
684.43	313.62
684.77	312.61
685.10	311.67
685.44	310.62
685.78	309.54
686.12	308.55
686.45	307.62
686.79	306.49
687.13	305.76
687.46	304.82
687.80	304.04
688.14	303.10
688.48	302.23
688.81	301.34
689.15	300.47
689.49	299.61
689.82	298.72
690.16	297.64
690.50	296.70
690.83	295.80
691.17	294.81
691.51	293.90
691.84	293.01
692.18	292.15
692.52	291.38
692.85	290.55
693.19	289.90
693.52	289.18
693.86	288.40
694.20	287.54
694.53	286.72
694.87	285.78
695.21	284.92
695.54	284.13
695.88	283.33
696.21	282.40
696.55	281.56
696.88	280.78
697.22	280.04
697.56	279.31
697.89	278.52
698.23	277.94
698.56	277.26
698.90	276.64
699.23	275.90
699.57	275.18
699.90	274.47
700.24	273.71
700.58	272.97
700.91	272.47
701.25	272.05
701.58	271.52
701.92	270.93
702.25	270.21
702.59	269.54
702.92	268.89
703.26	268.27
703.59	267.69
703.93	267.39
704.26	266.90
704.60	266.43
704.93	265.92
705.26	265.34
705.60	264.89
705.93	264.24
706.27	263.85
706.60	263.38
706.94	262.95
707.27	262.34
707.61	261.84
707.94	261.16
708.27	260.38
708.61	259.70
708.94	259.08
709.28	258.68
709.61	258.20
709.94	257.79
710.28	257.33
710.61	256.83
710.95	255.96
711.28	255.63
711.61	255.08
711.95	254.66
712.28	254.07
712.61	253.59
712.95	253.32
713.28	252.98
713.61	252.44
713.95	251.89
714.28	251.55
714.61	251.20
714.95	250.88
715.28	250.44
715.61	250.12
715.95	249.83
716.28	249.44
716.61	249.03
716.95	248.63
717.28	248.25
717.61	247.90
717.94	247.55
718.28	246.99
718.61	246.63
718.94	246.21
719.27	245.89
719.61	245.45
719.94	245.00
720.27	244.42
720.60	244.09
720.94	243.69
721.27	243.37
721.60	242.97
721.93	242.58
722.27	242.35
722.60	242.05
722.93	241.66
723.26	241.42
723.59	241.10
723.93	240.85
724.26	240.55
724.59	240.22
724.92	240.06
725.25	239.90
725.59	239.60
725.92	239.37
726.25	239.15
726.58	238.96
726.91	238.70
727.24	238.55
727.57	238.26
727.91	237.98
728.24	237.74
728.57	237.55
728.90	237.32
729.23	236.98
729.56	236.91
729.89	236.61
730.22	236.29
730.55	236.04
730.89	235.77
731.22	235.53
731.55	235.33
731.88	235.03
732.21	234.73
732.54	234.44
732.87	234.24
733.20	233.99
733.53	233.77
733.86	233.57
734.19	233.26
734.52	233.20
734.85	233.23
735.18	232.89
735.51	232.74
735.84	232.61
736.17	232.56
736.50	232.09
736.83	232.36
737.16	232.20
737.49	232.05
737.82	231.77
738.15	231.60
738.48	231.36
738.81	231.15
739.14	230.86
739.47	230.65
739.80	230.43
740.13	230.27
740.46	229.93
740.79	229.62
741.12	229.44
741.45	229.11
741.78	228.72
742.11	228.67
742.44	228.41
742.77	228.22
743.10	227.89
743.43	227.72
743.75	227.18
744.08	227.39
744.41	227.15
744.74	226.94
745.07	226.76
745.40	226.68
745.73	226.67
746.06	226.51
746.39	226.45
746.71	226.22
747.04	226.06
747.37	225.98
747.70	225.92
748.03	225.73
748.36	225.62
748.68	225.52
749.01	225.29
749.34	225.09
749.67	224.92
750.00	224.91
750.33	225.07
750.65	224.90
750.98	224.40
751.31	224.27
751.64	224.17
751.97	224.19
752.29	224.10
752.62	223.83
752.95	223.66
753.28	223.43
753.60	223.31
753.93	223.23
754.26	223.10
754.59	222.85
754.91	222.72
755.24	222.68
755.57	222.54
755.90	222.42
756.22	222.27
756.55	222.12
756.88	221.86
757.20	221.52
757.53	221.27
757.86	221.08
758.19	220.93
758.51	220.81
758.84	220.50
759.17	220.28
759.49	220.14
759.82	220.30
760.15	220.23
760.47	220.10
760.80	219.89
761.13	219.87
761.45	219.83
761.78	219.75
762.11	219.56
762.43	219.44
762.76	219.27
763.08	219.27
763.41	219.23
763.74	219.16
764.06	219.10
764.39	219.11
764.71	219.01
765.04	218.97
765.37	218.90
765.69	218.84
766.02	218.75
766.34	218.65
766.67	218.31
767.00	218.34
767.32	218.44
767.65	218.63
767.97	218.51
768.30	218.47
768.62	218.49
768.95	218.41
769.27	218.33
769.60	218.36
769.92	218.25
770.25	218.05
770.57	217.92
770.90	217.88
771.22	217.77
771.55	217.78
771.87	217.68
772.20	217.58
772.52	217.92
772.85	218.25
773.17	218.22
773.50	218.27
773.82	218.16
774.15	217.97
774.47	217.68
774.80	217.54
775.12	217.45
775.45	217.27
775.77	217.22
776.09	217.25
776.42	217.24
776.74	217.26
777.07	217.25
777.39	217.30
777.72	217.17
778.04	217.19
778.36	217.11
778.69	217.14
779.01	217.10
779.33	216.70
779.66	216.25
779.98	216.15
780.31	216.16
780.63	216.23
780.95	216.27
781.28	216.20
781.60	216.18
781.92	216.19
782.25	216.17
782.57	216.18
782.89	216.05
783.22	215.96
783.54	215.84
783.86	215.81
784.19	215.69
784.51	215.79
784.83	215.72
785.16	215.65
785.48	215.66
785.80	215.66
786.12	215.63
786.45	215.60
786.77	215.60
787.09	215.53
787.42	215.38
787.74	215.32
788.06	215.26
788.38	215.23
788.71	215.10
789.03	215.11
789.35	215.05
789.67	215.03
789.99	215.01
790.32	215.00
790.64	214.97
790.96	215.27
791.28	215.06
791.61	214.88
791.93	214.83
792.25	214.72
792.57	214.88
792.89	214.77
793.21	214.79
793.54	214.72
793.86	214.61
794.18	214.54
794.50	214.46
794.82	214.42
795.14	214.40
795.47	214.46
795.79	214.36
796.11	214.27
796.43	214.16
796.75	214.12
797.07	214.07
797.39	214.04
797.71	213.74
798.04	213.74
798.36	213.88
798.68	213.93
799.00	213.93
799.32	213.77
799.64	213.80
799.96	213.72
800.28	213.75
800.60	213.70
800.92	213.80
801.24	213.76
801.56	213.80
801.89	213.80
802.21	213.77
802.53	213.73
802.85	213.88
803.17	214.09
803.49	214.10
803.81	214.07
804.13	214.01
804.45	213.95
804.77	214.01
805.09	213.98
805.41	213.90
805.73	213.82
806.05	213.69
806.37	213.70
806.69	213.67
807.01	213.69
807.33	213.73
807.65	213.53
807.97	213.74
808.28	213.74
808.60	213.71
808.92	213.65
809.24	213.87
809.56	213.79
809.88	213.66
810.20	213.56
810.52	213.60
810.84	213.57
811.16	213.50
811.48	213.46
811.80	213.55
812.12	213.52
812.43	213.58
812.75	213.60
813.07	213.53
813.39	213.56
813.71	213.45
814.03	213.35
814.35	213.40
814.67	213.20
814.98	213.14
815.30	213.10
815.62	213.04
815.94	212.75
816.26	212.72
816.58	212.65
816.89	212.68
817.21	212.60
817.53	212.67
817.85	212.79
818.17	212.77
818.48	212.62
818.80	212.67
819.12	212.67
819.44	212.68
819.76	212.60
820.07	212.60
820.39	212.58
820.71	212.64
821.03	212.54
821.34	212.54
821.66	212.54
821.98	212.58
822.30	212.62
822.61	212.86
822.93	212.83
823.25	212.78
823.57	212.77
823.88	212.84
824.20	212.75
824.52	212.77
824.83	212.76
825.15	212.73
825.47	212.76
825.79	212.74
826.10	212.65
826.42	212.63
826.74	212.62
827.05	212.66
827.37	212.66
827.69	212.70
828.00	212.66
828.32	212.68
828.64	212.64
828.95	212.78
829.27	212.64
829.58	212.62
829.90	212.67
830.22	212.61
830.53	212.55
830.85	212.53
831.17	212.42
831.48	212.42
831.80	212.49
832.11	212.38
832.43	212.27
832.75	212.28
833.06	212.55
833.38	212.49
833.69	212.49
834.01	212.48
834.32	212.44
834.64	212.38
834.96	212.38
835.27	212.25
835.59	212.19
835.90	212.14
836.22	212.09
836.53	212.03
836.85	212.02
837.16	212.28
837.48	212.29
837.79	212.35
838.11	212.31
838.42	212.25
838.74	212.30
839.05	212.28
839.37	212.28
839.68	212.00
840.00	211.95
840.31	211.93
840.63	211.86
840.94	211.85
841.26	211.84
841.57	211.80
841.88	211.87
842.20	211.75
842.51	211.69
842.83	211.67
843.14	212.03
843.46	212.01
843.77	211.85
844.08	211.81
844.40	211.67
844.71	211.64
845.03	211.63
845.34	211.62
845.65	211.64
845.97	211.62
846.28	211.66
846.60	211.66
846.91	211.57
847.22	211.57
847.54	211.61
847.85	211.63
848.16	211.65
848.48	211.61
848.79	211.77
849.10	211.84
849.42	211.91
849.73	211.54
850.04	211.56
850.36	211.39
850.67	211.49
850.98	211.53
851.30	211.52
851.61	211.49
851.92	211.44
852.23	211.50
852.55	211.51
852.86	211.57
853.17	211.60
853.49	211.73
853.80	211.81
854.11	211.92
854.42	211.94
854.74	211.85
855.05	211.85
855.36	211.62
855.67	211.68
855.99	211.62
856.30	212.01
856.61	212.01
856.92	211.95
857.23	211.89
857.55	211.86
857.86	211.87
858.17	211.96
858.48	211.90
858.79	211.91
859.11	211.98
859.42	211.87
859.73	211.84
860.04	211.78
860.35	211.66
860.66	211.47
860.98	211.45
861.29	211.54
861.60	211.58
861.91	211.66
862.22	211.52
862.53	211.56
862.84	211.19
863.16	211.25
863.47	211.28
863.78	211.34
864.09	211.35
864.40	211.34
864.71	211.28
865.02	211.37
865.33	211.30
865.64	211.19
865.95	211.22
866.27	211.39
866.58	211.36
866.89	211.43
867.20	211.43
867.51	211.34
867.82	211.22
868.13	211.23
868.44	211.21
868.75	211.31
869.06	211.26
869.37	211.21
869.68	211.12
869.99	211.21
870.30	211.18
870.61	211.26
870.92	211.25
871.23	211.24
871.54	211.24
871.85	211.36
872.16	211.43
872.47	211.42
872.78	211.25
873.09	211.30
873.40	211.35
873.71	211.38
874.02	211.52
874.33	211.49
874.64	211.47
874.95	211.50
875.26	211.46
875.56	211.50
875.87	211.50
876.18	211.51
876.49	211.83
876.80	211.81
877.11	211.69
877.42	211.71
877.73	211.66
878.04	211.64
878.35	211.62
878.66	211.59
878.96	211.56
879.27	211.54
879.58	211.51
879.89	211.41
880.20	211.49
880.51	211.45
880.82	211.55
881.12	211.53
881.43	211.39
881.74	211.35
882.05	211.35
882.36	211.43
882.67	211.43
882.97	211.05
883.28	210.99
883.59	211.00
883.90	211.03
884.21	211.05
884.51	210.98
884.82	210.88
885.13	210.91
885.44	210.91
885.74	210.93
886.05	210.88
886.36	210.92
886.67	210.85
886.98	211.00
887.28	211.06
887.59	211.07
887.90	211.15
888.20	211.12
888.51	211.18
888.82	211.14
889.13	211.14
889.43	211.41
889.74	211.41
890.05	211.47
890.35	211.39
890.66	211.37
890.97	211.39
891.28	211.39
891.58	211.34
891.89	211.39
892.20	211.40
892.50	211.43
892.81	211.40
893.12	211.44
893.42	211.24
893.73	211.17
894.04	211.20
894.34	211.29
894.65	211.29
894.95	211.27
895.26	211.26
895.57	211.41
895.87	211.07
896.18	211.16
896.48	211.14
896.79	211.16
897.10	211.22
897.40	211.23
897.71	211.29
898.01	211.26
898.32	211.26
898.63	211.23
898.93	211.22
899.24	211.15
899.54	211.03
899.85	211.07
900.15	211.07
900.46	211.12
900.76	211.10
901.07	211.06
901.38	211.01
901.68	211.05
901.99	210.92
902.29	210.97
902.60	210.95
902.90	210.94
903.21	210.90
903.51	210.89
903.82	211.05
904.12	211.01
904.43	211.14
904.73	211.20
905.03	211.18
905.34	211.56
905.64	211.63
905.95	211.71
906.25	211.64
906.56	211.64
906.86	211.58
907.17	211.53
907.47	211.50
907.77	211.48
908.08	211.39
908.38	211.37
908.69	211.40
908.99	211.45
909.30	211.49
909.60	211.56
909.90	211.59
910.21	211.47
910.51	211.43
910.81	211.39
911.12	211.38
911.42	211.45
911.73	211.08
912.03	211.14
912.33	211.17
912.64	211.20
912.94	211.23
913.24	211.19
913.55	211.19
913.85	211.25
914.15	211.31
914.46	211.40
914.76	211.37
915.06	211.42
915.37	211.39
915.67	211.37
915.97	211.42
916.27	211.32
916.58	211.33
916.88	211.38
917.18	211.35
917.49	211.64
917.79	211.59
918.09	211.64
918.39	211.74
918.70	211.80
919.00	211.84
919.30	211.93
919.60	211.93
919.91	211.87
920.21	211.91
920.51	211.86
920.81	211.81
921.12	211.86
921.42	211.80
921.72	211.73
922.02	211.70
922.32	211.76
922.63	211.79
922.93	211.95
923.23	211.94
923.53	211.84
923.83	211.52
924.13	211.59
924.44	211.61
924.74	211.61
925.04	211.67
925.34	211.63
925.64	211.58
925.94	211.65
926.24	211.90
926.55	211.82
926.85	211.85
927.15	211.89
927.45	211.92
927.75	211.92
928.05	212.01
928.35	212.03
928.65	212.08
928.95	212.11
929.26	211.91
929.56	211.93
929.86	212.04
930.16	212.03
930.46	211.99
930.76	211.94
931.06	211.79
931.36	211.66
931.66	211.80
931.96	211.75
932.26	211.71
932.56	211.48
932.86	211.57
933.16	211.59
933.46	211.52
933.76	211.42
934.06	211.48
934.36	211.59
934.66	211.54
934.96	211.40
935.26	211.47
935.56	211.58
935.86	211.54
936.16	211.52
936.46	211.46
936.76	211.50
937.06	211.44
937.36	211.49
937.66	211.50
937.96	211.41
938.26	211.41
938.56	211.39
938.86	211.44
939.16	211.44
939.46	211.46
939.76	211.44
940.06	211.43
940.35	211.34
940.65	211.16
940.95	211.25
941.25	211.15
941.55	211.08
941.85	211.06
942.15	211.13
942.45	211.14
942.75	211.19
943.04	211.11
943.34	211.25
943.64	211.19
943.94	211.14
944.24	211.15
944.54	211.16
944.84	211.15
945.13	211.16
945.43	211.14
945.73	211.11
946.03	211.13
946.33	211.12
946.62	211.12
946.92	211.07
947.22	211.05
947.52	211.04
947.82	211.14
948.11	211.08
948.41	210.95
948.71	210.95
949.01	211.00
949.31	211.02
949.60	210.96
949.90	211.05
950.20	211.10
950.50	211.02
950.79	210.94
951.09	211.05
951.39	210.94
951.69	210.95
951.98	211.01
952.28	211.02
952.58	211.07
952.87	211.04
953.17	211.15
953.47	211.07
953.76	211.18
954.06	211.01
954.36	210.96
954.66	210.98
954.95	211.08
955.25	211.05
955.55	211.05
955.84	211.01
956.14	211.00
956.44	210.97
956.73	210.96
957.03	211.02
957.32	210.93
957.62	210.95
957.92	210.98
958.21	210.98
958.51	211.37
958.81	211.45
959.10	211.55
959.40	211.59
959.69	211.65
959.99	211.65
960.29	211.74
960.58	211.68
960.88	211.78
961.17	211.71
961.47	211.78
961.76	211.76
962.06	211.76
962.36	211.73
962.65	211.81
962.95	211.86
963.24	211.83
963.54	211.78
963.83	211.80
964.13	211.80
964.42	211.65
964.72	211.36
965.01	211.29
965.31	211.24
965.60	211.13
965.90	211.32
966.19	211.28
966.49	211.29
966.78	211.33
967.08	211.35
967.37	211.33
967.67	211.21
967.96	211.26
968.26	211.27
968.55	211.34
968.85	211.32
969.14	211.23
969.43	211.25
969.73	211.25
970.02	211.31
970.32	211.25
970.61	211.29
970.91	211.23
971.20	211.20
971.49	211.15
971.79	211.20
972.08	210.94
972.38	210.88
972.67	210.85
972.96	210.87
973.26	210.79
973.55	210.91
973.85	210.86
974.14	210.85
974.43	210.88
974.73	210.81
975.02	210.75
975.31	210.80
975.61	210.74
975.90	210.72
976.19	210.65
976.49	210.69
976.78	210.69
977.07	210.59
977.37	210.66
977.66	210.69
977.95	210.64
978.24	210.71
978.54	210.84
978.83	210.82
979.12	210.83
979.42	210.85
979.71	210.70
980.00	210.78
980.29	210.79
980.59	210.67
980.88	210.79
981.17	210.80
981.46	210.80
981.76	210.80
982.05	210.96
982.34	211.00
982.63	211.00
982.93	211.06
983.22	211.17
983.51	211.10
983.80	211.16
984.09	211.22
984.39	211.16
984.68	211.11
984.97	211.18
985.26	211.17
985.55	211.19
985.85	211.15
986.14	211.24
986.43	211.29
986.72	211.26
987.01	211.17
987.30	211.16
987.59	211.13
987.89	211.17
988.18	211.03
988.47	210.97
988.76	210.89
989.05	210.91
989.34	210.91
989.63	211.05
989.92	210.93
990.22	210.88
990.51	210.89
990.80	210.85
991.09	210.89
991.38	210.96
991.67	211.01
991.96	211.00
992.25	210.95
992.54	210.87
992.83	210.90
993.12	210.86
993.41	210.89
993.70	211.02
993.99	211.08
994.28	211.22
994.58	211.35
994.87	211.32
995.16	211.23
995.45	211.19
995.74	211.07
996.03	211.18
996.32	211.25
996.61	211.28
996.90	211.28
997.19	211.25
997.48	211.18
997.77	211.10
998.06	211.15
998.34	211.09
998.63	211.13
998.92	211.14
999.21	211.11
999.50	211.15
999.79	211.00
1000.08	210.98
1000.37	210.93
1000.66	210.77
1000.95	210.88
1001.24	210.96
1001.53	210.95
1001.82	210.90
1002.11	210.83
1002.40	210.85
1002.68	211.01
1002.97	211.23
1003.26	211.19
1003.55	211.15
1003.84	211.09
1004.13	211.28
1004.42	211.30
1004.71	211.31
1004.99	211.31
1005.28	211.49
1005.57	211.40
1005.86	211.40
1006.15	211.41
1006.44	211.30
1006.72	211.41
1007.01	211.43
1007.30	211.37
1007.59	211.30
1007.88	211.33
1008.17	211.33
1008.45	211.25
1008.74	211.08
1009.03	210.95
1009.32	210.92
1009.60	210.92
1009.89	210.91
1010.18	210.71
1010.47	210.67
1010.76	210.69
1011.04	210.64
1011.33	210.83
1011.62	210.88
1011.91	210.90
1012.19	210.93
1012.48	210.93
1012.77	210.89
1013.05	210.98
1013.34	210.99
1013.63	211.08
1013.92	211.13
1014.20	211.13
1014.49	211.13
1014.78	211.21
1015.06	211.09
1015.35	211.12
1015.64	211.17
1015.92	211.25
1016.21	211.26
1016.50	211.26
1016.78	211.26
1017.07	211.35
1017.36	211.03
1017.64	211.03
1017.93	211.00
1018.22	210.97
1018.50	211.03
1018.79	211.04
1019.08	210.86
1019.36	210.89
1019.65	210.85
1019.93	210.90
1020.22	210.91
1020.51	211.18
1020.79	211.03
1021.08	211.55
1021.36	210.95
1021.65	210.90
1021.94	210.25
1022.22	211.15
1022.51	210.35
1022.79	212.30
1023.08	210.50
1023.36	216.50
1023.65	208.95
>>>>>End Processed Spectral Data<<<<<
