SpectraSuite Data File
++++++++++++++++++++++++++++++++++++
Date: Mon Feb 25 17:07:31 EST 2013
User: group
Dark Spectrum Present: No
Reference Spectrum Present: No
Number of Sampled Component Spectra: 1
Spectrometers: USB2E7196
Integration Time (usec): 104000 (USB2E7196)
Spectra Averaged: 20 (USB2E7196)
Boxcar Smoothing: 10 (USB2E7196)
Correct for Electrical Dark: No (USB2E7196)
Strobe/Lamp Enabled: No (USB2E7196)
Correct for Detector Non-linearity: No (USB2E7196)
Correct for Stray Light: No (USB2E7196)
Number of Pixels in Processed Spectrum: 2048
>>>>>Begin Processed Spectral Data<<<<<
339.09	0.00
339.48	199.20
339.86	200.70
340.24	202.15
340.63	203.00
341.01	210.00
341.39	207.45
341.78	207.10
342.16	210.55
342.54	207.90
342.93	198.41
343.31	208.42
343.69	208.90
344.07	209.30
344.46	209.71
344.84	210.02
345.22	210.02
345.60	210.16
345.99	210.26
346.37	210.32
346.75	210.41
347.13	210.44
347.52	210.43
347.90	210.53
348.28	210.55
348.66	210.64
349.05	210.50
349.43	210.50
349.81	210.48
350.19	210.39
350.57	210.46
350.96	210.54
351.34	210.62
351.72	210.73
352.10	210.83
352.48	210.89
352.87	210.93
353.25	210.99
353.63	211.03
354.01	211.13
354.39	211.18
354.77	211.32
355.15	211.52
355.54	211.63
355.92	211.56
356.30	211.60
356.68	211.82
357.06	211.89
357.44	211.90
357.82	211.93
358.20	212.13
358.58	212.25
358.97	212.35
359.35	212.43
359.73	212.57
360.11	212.63
360.49	212.69
360.87	212.80
361.25	212.95
361.63	213.04
362.01	213.14
362.39	213.12
362.77	213.16
363.15	213.19
363.53	213.22
363.91	213.32
364.29	213.39
364.67	213.13
365.05	213.28
365.43	213.42
365.81	213.51
366.19	213.60
366.57	213.72
366.95	213.72
367.33	213.64
367.71	213.65
368.09	213.75
368.47	213.83
368.85	213.84
369.23	213.92
369.61	213.91
369.99	213.99
370.37	214.07
370.75	214.17
371.13	214.07
371.51	214.00
371.89	214.07
372.27	214.03
372.65	214.07
373.03	213.97
373.41	213.90
373.78	213.88
374.16	213.77
374.54	213.67
374.92	213.55
375.30	213.68
375.68	213.49
376.06	213.38
376.44	213.20
376.82	213.12
377.19	213.00
377.57	212.85
377.95	212.65
378.33	212.51
378.71	212.30
379.09	212.29
379.47	212.35
379.84	212.27
380.22	212.20
380.60	212.09
380.98	212.06
381.36	211.95
381.73	211.85
382.11	211.80
382.49	211.70
382.87	211.64
383.25	211.48
383.62	211.87
384.00	211.75
384.38	211.71
384.76	211.78
385.13	211.88
385.51	211.81
385.89	211.79
386.27	211.77
386.64	211.72
387.02	211.65
387.40	211.53
387.78	211.42
388.15	211.42
388.53	211.35
388.91	211.21
389.29	211.16
389.66	211.13
390.04	211.03
390.42	210.98
390.79	210.97
391.17	210.88
391.55	210.48
391.92	210.46
392.30	210.41
392.68	210.28
393.05	210.23
393.43	210.22
393.81	210.18
394.18	210.11
394.56	210.14
394.94	210.14
395.31	210.10
395.69	210.24
396.06	210.27
396.44	210.33
396.82	210.31
397.19	210.47
397.57	210.43
397.95	210.49
398.32	210.46
398.70	210.55
399.07	210.66
399.45	210.64
399.82	210.70
400.20	210.68
400.58	210.75
400.95	210.58
401.33	210.71
401.70	210.94
402.08	210.99
402.45	210.97
402.83	211.04
403.20	211.03
403.58	210.98
403.95	211.09
404.33	211.18
404.71	211.30
405.08	211.48
405.46	211.58
405.83	211.65
406.21	211.69
406.58	211.73
406.96	211.80
407.33	211.96
407.70	211.99
408.08	212.48
408.45	212.60
408.83	212.83
409.20	212.95
409.58	212.94
409.95	213.27
410.33	213.54
410.70	213.72
411.08	214.02
411.45	214.31
411.82	214.52
412.20	214.88
412.57	215.36
412.95	215.41
413.32	215.81
413.69	216.22
414.07	216.64
414.44	217.07
414.82	217.52
415.19	218.08
415.56	218.69
415.94	219.00
416.31	219.74
416.68	220.38
417.06	221.17
417.43	222.04
417.81	222.74
418.18	223.60
418.55	224.54
418.93	225.54
419.30	226.55
419.67	227.59
420.04	228.65
420.42	229.78
420.79	231.48
421.16	232.89
421.54	234.45
421.91	235.91
422.28	237.50
422.66	239.14
423.03	240.92
423.40	242.65
423.77	244.45
424.15	246.10
424.52	247.98
424.89	250.03
425.26	251.96
425.64	253.89
426.01	255.91
426.38	258.02
426.75	260.24
427.13	262.54
427.50	264.94
427.87	267.33
428.24	269.71
428.61	271.85
428.99	274.50
429.36	277.15
429.73	280.00
430.10	282.75
430.47	285.65
430.85	288.37
431.22	291.49
431.59	295.02
431.96	298.24
432.33	301.75
432.70	305.16
433.08	309.05
433.45	312.78
433.82	316.57
434.19	320.79
434.56	324.98
434.93	328.83
435.30	332.65
435.68	336.98
436.05	341.27
436.42	345.58
436.79	349.49
437.16	353.75
437.53	358.10
437.90	362.44
438.27	366.78
438.64	371.37
439.01	375.62
439.38	379.19
439.75	382.97
440.13	387.19
440.50	391.08
440.87	394.41
441.24	397.83
441.61	401.50
441.98	404.24
442.35	407.37
442.72	410.63
443.09	413.95
443.46	415.96
443.83	417.45
444.20	418.56
444.57	420.23
444.94	421.08
445.31	422.17
445.68	423.46
446.05	423.89
446.42	423.63
446.79	423.22
447.16	422.90
447.53	422.65
447.90	421.01
448.27	419.59
448.64	417.55
449.01	416.08
449.37	413.27
449.74	410.59
450.11	407.72
450.48	404.22
450.85	400.49
451.22	397.32
451.59	394.33
451.96	391.59
452.33	387.83
452.70	384.38
453.07	380.11
453.43	375.51
453.80	371.50
454.17	367.60
454.54	363.91
454.91	359.81
455.28	355.82
455.65	352.25
456.02	348.96
456.38	345.74
456.75	341.91
457.12	338.78
457.49	335.62
457.86	332.10
458.23	329.50
458.59	326.61
458.96	323.73
459.33	321.04
459.70	318.38
460.07	316.20
460.43	313.81
460.80	311.66
461.17	309.83
461.54	307.73
461.91	305.78
462.27	303.80
462.64	302.14
463.01	300.32
463.38	298.69
463.74	296.49
464.11	294.90
464.48	293.43
464.85	291.92
465.21	290.90
465.58	289.76
465.95	288.15
466.32	286.85
466.68	285.59
467.05	284.37
467.42	283.14
467.78	281.83
468.15	280.59
468.52	279.52
468.88	278.16
469.25	277.08
469.62	276.25
469.98	275.31
470.35	274.44
470.72	273.58
471.08	272.54
471.45	271.79
471.82	271.07
472.18	270.15
472.55	269.48
472.92	268.53
473.28	267.89
473.65	267.23
474.02	266.69
474.38	266.23
474.75	265.78
475.11	265.30
475.48	264.99
475.85	264.56
476.21	264.31
476.58	264.12
476.94	263.87
477.31	263.54
477.67	263.29
478.04	263.03
478.41	262.78
478.77	262.97
479.14	262.75
479.50	262.58
479.87	262.61
480.23	262.53
480.60	262.50
480.96	262.31
481.33	262.51
481.69	262.52
482.06	262.52
482.42	262.60
482.79	262.69
483.15	262.73
483.52	263.08
483.88	263.25
484.25	263.42
484.61	263.59
484.98	263.74
485.34	264.11
485.71	264.50
486.07	264.91
486.44	264.89
486.80	265.28
487.17	265.73
487.53	266.28
487.90	266.86
488.26	267.54
488.62	268.22
488.99	268.70
489.35	269.38
489.72	270.12
490.08	270.76
490.44	271.45
490.81	272.34
491.17	273.05
491.54	273.86
491.90	274.76
492.26	275.75
492.63	276.75
492.99	277.61
493.36	278.61
493.72	279.72
494.08	280.84
494.45	282.04
494.81	283.31
495.17	284.39
495.54	285.66
495.90	286.84
496.26	288.08
496.63	289.49
496.99	290.85
497.35	292.26
497.72	293.81
498.08	295.27
498.44	296.71
498.80	298.32
499.17	299.92
499.53	301.51
499.89	303.17
500.26	304.78
500.62	306.48
500.98	308.31
501.34	310.02
501.71	312.10
502.07	313.89
502.43	315.60
502.79	317.55
503.16	319.32
503.52	321.23
503.88	323.24
504.24	325.19
504.60	327.23
504.97	329.30
505.33	331.25
505.69	333.56
506.05	335.75
506.41	337.89
506.78	340.04
507.14	342.14
507.50	344.42
507.86	346.71
508.22	349.09
508.59	351.27
508.95	353.64
509.31	355.89
509.67	358.26
510.03	360.72
510.39	363.10
510.75	365.58
511.12	368.11
511.48	370.46
511.84	372.86
512.20	375.38
512.56	377.84
512.92	380.46
513.28	382.97
513.64	385.41
514.00	388.01
514.37	390.67
514.73	393.37
515.09	396.01
515.45	398.71
515.81	401.23
516.17	403.90
516.53	406.56
516.89	409.23
517.25	412.01
517.61	414.77
517.97	417.47
518.33	420.38
518.69	423.32
519.05	426.36
519.41	429.43
519.77	432.52
520.13	435.52
520.49	438.45
520.85	441.47
521.21	444.68
521.57	447.71
521.93	450.62
522.29	453.71
522.65	456.76
523.01	459.88
523.37	462.96
523.73	466.26
524.09	469.55
524.45	472.80
524.81	476.07
525.17	479.42
525.53	482.87
525.89	486.26
526.25	489.57
526.61	492.85
526.97	496.20
527.33	499.60
527.68	503.44
528.04	506.99
528.40	510.36
528.76	514.00
529.12	517.53
529.48	521.38
529.84	525.05
530.20	528.68
530.56	532.47
530.91	536.44
531.27	540.13
531.63	543.94
531.99	547.71
532.35	551.46
532.71	555.23
533.07	559.14
533.42	563.22
533.78	567.02
534.14	571.07
534.50	574.64
534.86	578.33
535.21	581.75
535.57	585.50
535.93	589.25
536.29	593.04
536.65	596.84
537.00	600.36
537.36	603.89
537.72	607.45
538.08	611.15
538.44	614.71
538.79	618.37
539.15	621.76
539.51	625.34
539.87	629.12
540.22	632.69
540.58	636.40
540.94	639.69
541.29	643.16
541.65	646.44
542.01	650.16
542.37	653.62
542.72	657.00
543.08	660.59
543.44	664.24
543.79	667.22
544.15	670.69
544.51	674.40
544.87	678.05
545.22	681.55
545.58	684.79
545.94	687.88
546.29	690.88
546.65	693.89
547.01	696.79
547.36	699.61
547.72	702.54
548.07	705.28
548.43	708.14
548.79	710.87
549.14	713.50
549.50	716.25
549.86	718.68
550.21	721.03
550.57	723.40
550.92	725.56
551.28	728.00
551.64	730.14
551.99	732.10
552.35	733.99
552.70	735.90
553.06	737.80
553.41	739.94
553.77	742.16
554.13	744.11
554.48	746.22
554.84	748.24
555.19	750.04
555.55	752.00
555.90	753.63
556.26	755.20
556.61	756.75
556.97	757.87
557.32	759.54
557.68	761.06
558.03	762.56
558.39	763.84
558.74	765.47
559.10	766.98
559.45	768.56
559.81	769.99
560.16	771.36
560.52	772.75
560.87	774.01
561.23	774.91
561.58	776.38
561.94	777.52
562.29	778.41
562.64	779.55
563.00	780.31
563.35	781.53
563.71	782.73
564.06	783.91
564.42	785.20
564.77	786.36
565.12	787.60
565.48	788.95
565.83	790.04
566.19	790.82
566.54	791.45
566.89	791.91
567.25	792.84
567.60	793.70
567.96	794.51
568.31	795.39
568.66	795.98
569.02	796.37
569.37	796.51
569.72	796.84
570.08	796.95
570.43	797.18
570.78	797.05
571.14	797.05
571.49	796.89
571.84	796.92
572.20	796.40
572.55	796.12
572.90	795.22
573.26	794.79
573.61	794.28
573.96	793.75
574.31	793.08
574.67	792.18
575.02	791.19
575.37	790.32
575.72	789.09
576.08	788.57
576.43	787.56
576.78	786.79
577.13	786.08
577.49	785.45
577.84	784.69
578.19	783.97
578.54	783.21
578.90	782.64
579.25	781.67
579.60	780.70
579.95	779.58
580.30	779.00
580.66	778.21
581.01	777.22
581.36	776.24
581.71	775.31
582.06	774.60
582.42	773.73
582.77	772.44
583.12	771.44
583.47	770.41
583.82	769.70
584.17	768.75
584.53	767.86
584.88	766.70
585.23	765.46
585.58	764.41
585.93	763.29
586.28	762.30
586.63	761.37
586.98	760.67
587.34	759.98
587.69	758.83
588.04	757.72
588.39	756.77
588.74	755.57
589.09	754.71
589.44	753.34
589.79	752.37
590.14	751.45
590.49	750.41
590.84	749.16
591.19	748.05
591.54	746.86
591.89	745.24
592.25	744.21
592.60	742.77
592.95	741.18
593.30	739.66
593.65	737.95
594.00	736.35
594.35	735.64
594.70	733.81
595.05	732.19
595.40	730.68
595.75	729.12
596.10	727.94
596.45	726.45
596.80	725.22
597.15	723.75
597.50	722.14
597.85	720.85
598.19	719.20
598.54	717.64
598.89	716.29
599.24	715.27
599.59	713.70
599.94	712.65
600.29	711.39
600.64	710.05
600.99	708.65
601.34	707.39
601.69	705.14
602.04	703.74
602.39	702.36
602.74	701.08
603.08	699.87
603.43	698.72
603.78	697.36
604.13	695.76
604.48	694.51
604.83	693.53
605.18	692.24
605.53	690.95
605.87	689.57
606.22	688.40
606.57	686.87
606.92	685.48
607.27	683.85
607.62	682.40
607.96	681.12
608.31	680.00
608.66	678.36
609.01	676.71
609.36	675.24
609.70	673.56
610.05	671.80
610.40	670.07
610.75	668.16
611.10	666.74
611.44	664.96
611.79	662.93
612.14	660.81
612.49	658.54
612.83	656.63
613.18	654.56
613.53	652.37
613.88	650.19
614.22	648.17
614.57	646.21
614.92	644.18
615.27	641.99
615.61	639.68
615.96	637.77
616.31	635.93
616.65	634.30
617.00	632.51
617.35	630.49
617.70	628.42
618.04	626.00
618.39	623.45
618.74	621.35
619.08	619.30
619.43	617.29
619.78	615.44
620.12	613.39
620.47	611.25
620.82	608.97
621.16	606.60
621.51	604.44
621.85	602.22
622.20	600.03
622.55	597.76
622.89	595.52
623.24	593.46
623.59	591.22
623.93	588.86
624.28	586.57
624.62	584.79
624.97	582.85
625.32	580.80
625.66	578.86
626.01	576.89
626.35	574.78
626.70	572.65
627.04	570.74
627.39	568.64
627.73	566.87
628.08	564.91
628.43	563.11
628.77	560.93
629.12	558.90
629.46	557.07
629.81	555.23
630.15	553.23
630.50	550.98
630.84	548.88
631.19	546.81
631.53	544.79
631.88	542.21
632.22	539.85
632.57	538.24
632.91	536.20
633.26	534.13
633.60	532.23
633.95	530.32
634.29	528.11
634.64	526.33
634.98	524.14
635.32	522.25
635.67	520.37
636.01	518.53
636.36	516.69
636.70	514.80
637.05	512.95
637.39	511.08
637.73	509.35
638.08	507.79
638.42	506.08
638.77	504.36
639.11	502.70
639.45	500.95
639.80	498.70
640.14	496.64
640.49	494.80
640.83	492.73
641.17	490.82
641.52	488.89
641.86	486.79
642.20	485.00
642.55	482.90
642.89	480.94
643.23	479.05
643.58	477.27
643.92	475.11
644.26	473.07
644.61	471.26
644.95	469.31
645.29	467.15
645.64	465.18
645.98	463.18
646.32	461.37
646.66	459.28
647.01	457.46
647.35	455.83
647.69	453.94
648.04	452.17
648.38	450.28
648.72	448.43
649.06	446.59
649.41	444.68
649.75	442.88
650.09	441.06
650.43	439.18
650.78	437.18
651.12	435.31
651.46	433.48
651.80	431.58
652.14	429.73
652.49	428.04
652.83	426.15
653.17	424.24
653.51	422.30
653.85	420.66
654.20	418.92
654.54	417.00
654.88	415.19
655.22	413.53
655.56	411.62
655.90	409.83
656.25	408.06
656.59	406.24
656.93	404.57
657.27	402.95
657.61	401.12
657.95	399.49
658.29	397.85
658.64	396.22
658.98	394.52
659.32	392.74
659.66	391.03
660.00	389.30
660.34	387.58
660.68	385.99
661.02	384.32
661.36	382.73
661.70	381.15
662.05	379.57
662.39	378.14
662.73	376.79
663.07	375.55
663.41	374.06
663.75	372.56
664.09	370.99
664.43	369.33
664.77	368.00
665.11	366.44
665.45	365.00
665.79	363.61
666.13	362.21
666.47	360.84
666.81	359.48
667.15	357.98
667.49	356.69
667.83	355.52
668.17	354.17
668.51	352.92
668.85	351.75
669.19	350.64
669.53	349.08
669.87	347.70
670.21	346.22
670.55	344.95
670.89	343.94
671.23	342.83
671.57	341.76
671.91	340.56
672.25	339.44
672.58	338.41
672.92	337.20
673.26	336.06
673.60	335.02
673.94	333.90
674.28	332.90
674.62	331.96
674.96	330.69
675.30	329.63
675.64	328.52
675.97	327.32
676.31	326.23
676.65	325.32
676.99	324.52
677.33	323.45
677.67	322.46
678.01	321.21
678.34	320.21
678.68	319.26
679.02	318.19
679.36	317.17
679.70	316.14
680.04	315.16
680.37	314.24
680.71	313.15
681.05	312.27
681.39	311.32
681.73	310.24
682.06	309.27
682.40	308.36
682.74	307.48
683.08	306.67
683.42	305.64
683.75	304.78
684.09	303.71
684.43	302.83
684.77	301.86
685.10	300.91
685.44	299.88
685.78	298.94
686.12	298.09
686.45	297.16
686.79	296.21
687.13	295.49
687.46	294.58
687.80	293.78
688.14	292.84
688.48	292.00
688.81	291.20
689.15	290.51
689.49	289.60
689.82	288.70
690.16	287.73
690.50	286.81
690.83	285.96
691.17	285.09
691.51	284.28
691.84	283.63
692.18	282.97
692.52	282.25
692.85	281.53
693.19	280.88
693.52	280.14
693.86	279.36
694.20	278.54
694.53	277.90
694.87	277.28
695.21	276.54
695.54	275.86
695.88	275.10
696.21	274.30
696.55	273.74
696.88	273.10
697.22	272.39
697.56	271.86
697.89	271.08
698.23	270.53
698.56	269.87
698.90	269.20
699.23	268.53
699.57	267.95
699.90	267.30
700.24	266.61
700.58	266.06
700.91	265.53
701.25	265.19
701.58	264.67
701.92	264.01
702.25	263.48
702.59	262.95
702.92	262.43
703.26	261.83
703.59	261.21
703.93	260.95
704.26	260.62
704.60	260.08
704.93	259.58
705.26	258.95
705.60	258.49
705.93	257.85
706.27	257.50
706.60	257.09
706.94	256.78
707.27	256.26
707.61	255.79
707.94	255.24
708.27	254.55
708.61	253.84
708.94	253.40
709.28	252.85
709.61	252.31
709.94	251.98
710.28	251.56
710.61	251.25
710.95	250.48
711.28	250.12
711.61	249.73
711.95	249.40
712.28	249.00
712.61	248.59
712.95	248.49
713.28	248.15
713.61	247.76
713.95	247.24
714.28	246.92
714.61	246.52
714.95	246.22
715.28	245.75
715.61	245.49
715.95	245.16
716.28	244.81
716.61	244.57
716.95	244.15
717.28	243.84
717.61	243.40
717.94	243.15
718.28	242.55
718.61	242.27
718.94	241.88
719.27	241.49
719.61	241.20
719.94	240.75
720.27	240.27
720.60	239.94
720.94	239.65
721.27	239.39
721.60	239.18
721.93	238.83
722.27	238.71
722.60	238.46
722.93	238.18
723.26	238.03
723.59	237.69
723.93	237.45
724.26	237.22
724.59	237.08
724.92	236.83
725.25	236.80
725.59	236.49
725.92	236.30
726.25	236.09
726.58	235.80
726.91	235.55
727.24	235.37
727.57	235.10
727.91	234.80
728.24	234.55
728.57	234.32
728.90	234.16
729.23	233.86
729.56	233.91
729.89	233.66
730.22	233.36
730.55	233.17
730.89	232.96
731.22	232.77
731.55	232.48
731.88	232.25
732.21	231.93
732.54	231.74
732.87	231.57
733.20	231.47
733.53	231.33
733.86	231.18
734.19	230.85
734.52	230.75
734.85	230.76
735.18	230.52
735.51	230.45
735.84	230.29
736.17	230.16
736.50	229.71
736.83	229.94
737.16	229.75
737.49	229.51
737.82	229.32
738.15	229.15
738.48	228.96
738.81	228.81
739.14	228.62
739.47	228.36
739.80	228.15
740.13	227.96
740.46	227.75
740.79	227.52
741.12	227.35
741.45	227.05
741.78	226.74
742.11	226.70
742.44	226.47
742.77	226.36
743.10	226.08
743.43	225.90
743.75	225.40
744.08	225.69
744.41	225.56
744.74	225.36
745.07	225.07
745.40	224.96
745.73	224.97
746.06	224.81
746.39	224.72
746.71	224.59
747.04	224.40
747.37	224.27
747.70	224.18
748.03	224.10
748.36	224.09
748.68	223.97
749.01	223.69
749.34	223.52
749.67	223.38
750.00	223.37
750.33	223.47
750.65	223.29
750.98	222.77
751.31	222.62
751.64	222.61
751.97	222.81
752.29	222.62
752.62	222.29
752.95	222.18
753.28	221.96
753.60	221.83
753.93	221.85
754.26	221.71
754.59	221.45
754.91	221.37
755.24	221.16
755.57	221.01
755.90	220.95
756.22	220.76
756.55	220.62
756.88	220.40
757.20	220.09
757.53	219.92
757.86	219.84
758.19	219.82
758.51	219.65
758.84	219.30
759.17	219.20
759.49	219.19
759.82	219.28
760.15	219.28
760.47	219.15
760.80	218.85
761.13	218.84
761.45	218.78
761.78	218.67
762.11	218.59
762.43	218.50
762.76	218.42
763.08	218.46
763.41	218.41
763.74	218.36
764.06	218.30
764.39	218.25
764.71	218.12
765.04	217.94
765.37	217.85
765.69	217.80
766.02	217.74
766.34	217.65
766.67	217.40
767.00	217.40
767.32	217.56
767.65	217.77
767.97	217.59
768.30	217.61
768.62	217.58
768.95	217.51
769.27	217.42
769.60	217.31
769.92	217.11
770.25	216.95
770.57	216.80
770.90	216.69
771.22	216.59
771.55	216.51
771.87	216.52
772.20	216.43
772.52	216.63
772.85	217.01
773.17	216.93
773.50	216.89
773.82	216.78
774.15	216.52
774.47	216.19
774.80	216.19
775.12	216.03
775.45	215.95
775.77	215.89
776.09	215.83
776.42	215.80
776.74	215.92
777.07	215.84
777.39	215.78
777.72	215.70
778.04	215.72
778.36	215.68
778.69	215.56
779.01	215.55
779.33	215.25
779.66	214.81
779.98	214.72
780.31	214.69
780.63	214.82
780.95	214.85
781.28	214.89
781.60	214.81
781.92	214.86
782.25	214.77
782.57	214.82
782.89	214.80
783.22	214.75
783.54	214.62
783.86	214.68
784.19	214.74
784.51	214.82
784.83	214.73
785.16	214.72
785.48	214.72
785.80	214.66
786.12	214.62
786.45	214.56
786.77	214.58
787.09	214.51
787.42	214.36
787.74	214.31
788.06	214.29
788.38	214.28
788.71	214.18
789.03	214.20
789.35	214.11
789.67	214.06
789.99	214.05
790.32	213.94
790.64	213.94
790.96	214.19
791.28	214.05
791.61	214.04
791.93	213.97
792.25	213.93
792.57	214.16
792.89	214.13
793.21	214.14
793.54	214.08
793.86	214.04
794.18	213.98
794.50	213.94
794.82	213.93
795.14	213.85
795.47	213.96
795.79	213.95
796.11	213.94
796.43	213.88
796.75	213.93
797.07	213.97
797.39	213.97
797.71	213.70
798.04	213.66
798.36	213.66
798.68	213.65
799.00	213.70
799.32	213.53
799.64	213.61
799.96	213.60
800.28	213.64
800.60	213.62
800.92	213.63
801.24	213.60
801.56	213.52
801.89	213.47
802.21	213.47
802.53	213.39
802.85	213.46
803.17	213.64
803.49	213.55
803.81	213.60
804.13	213.50
804.45	213.50
804.77	213.54
805.09	213.50
805.41	213.45
805.73	213.41
806.05	213.25
806.37	213.15
806.69	213.10
807.01	213.03
807.33	213.03
807.65	212.91
807.97	213.09
808.28	213.08
808.60	213.11
808.92	212.98
809.24	213.24
809.56	213.13
809.88	213.00
810.20	212.95
810.52	212.94
810.84	212.84
811.16	212.77
811.48	212.74
811.80	212.80
812.12	212.81
812.43	212.83
812.75	212.86
813.07	212.81
813.39	212.85
813.71	212.82
814.03	212.82
814.35	212.78
814.67	212.59
814.98	212.58
815.30	212.60
815.62	212.57
815.94	212.32
816.26	212.34
816.58	212.24
816.89	212.29
817.21	212.13
817.53	212.19
817.85	212.22
818.17	212.20
818.48	212.12
818.80	212.20
819.12	212.11
819.44	212.10
819.76	212.06
820.07	212.06
820.39	211.98
820.71	212.00
821.03	211.99
821.34	211.96
821.66	212.00
821.98	212.07
822.30	212.04
822.61	212.24
822.93	212.15
823.25	212.20
823.57	212.12
823.88	212.21
824.20	212.12
824.52	212.15
824.83	212.18
825.15	212.12
825.47	212.09
825.79	212.12
826.10	212.03
826.42	212.01
826.74	212.02
827.05	212.07
827.37	211.98
827.69	212.06
828.00	212.00
828.32	211.96
828.64	211.84
828.95	212.02
829.27	211.86
829.58	211.89
829.90	211.89
830.22	211.96
830.53	211.89
830.85	211.97
831.17	211.82
831.48	211.74
831.80	211.77
832.11	211.73
832.43	211.68
832.75	211.75
833.06	211.94
833.38	211.73
833.69	211.73
834.01	211.79
834.32	211.72
834.64	211.69
834.96	211.71
835.27	211.71
835.59	211.60
835.90	211.48
836.22	211.49
836.53	211.44
836.85	211.40
837.16	211.80
837.48	211.76
837.79	211.92
838.11	211.99
838.42	212.03
838.74	212.07
839.05	211.99
839.37	211.99
839.68	211.76
840.00	211.84
840.31	211.83
840.63	211.78
840.94	211.75
841.26	211.72
841.57	211.68
841.88	211.69
842.20	211.65
842.51	211.68
842.83	211.72
843.14	212.06
843.46	212.03
843.77	211.82
844.08	211.81
844.40	211.74
844.71	211.67
845.03	211.60
845.34	211.62
845.65	211.76
845.97	211.70
846.28	211.75
846.60	211.81
846.91	211.80
847.22	211.81
847.54	211.84
847.85	211.95
848.16	212.00
848.48	211.90
848.79	212.00
849.10	212.04
849.42	212.04
849.73	211.66
850.04	211.67
850.36	211.49
850.67	211.51
850.98	211.48
851.30	211.53
851.61	211.48
851.92	211.34
852.23	211.35
852.55	211.39
852.86	211.36
853.17	211.37
853.49	211.48
853.80	211.53
854.11	211.64
854.42	211.65
854.74	211.55
855.05	211.56
855.36	211.31
855.67	211.29
855.99	211.23
856.30	211.70
856.61	211.70
856.92	211.75
857.23	211.76
857.55	211.79
857.86	211.71
858.17	211.83
858.48	211.84
858.79	211.72
859.11	211.82
859.42	211.79
859.73	211.70
860.04	211.63
860.35	211.59
860.66	211.46
860.98	211.47
861.29	211.52
861.60	211.61
861.91	211.76
862.22	211.76
862.53	211.72
862.84	211.21
863.16	211.28
863.47	211.23
863.78	211.17
864.09	211.14
864.40	211.17
864.71	211.21
865.02	211.30
865.33	211.30
865.64	211.21
865.95	211.23
866.27	211.49
866.58	211.46
866.89	211.47
867.20	211.49
867.51	211.40
867.82	211.40
868.13	211.48
868.44	211.41
868.75	211.39
869.06	211.45
869.37	211.53
869.68	211.41
869.99	211.47
870.30	211.49
870.61	211.51
870.92	211.47
871.23	211.34
871.54	211.31
871.85	211.44
872.16	211.47
872.47	211.47
872.78	211.22
873.09	211.20
873.40	211.20
873.71	211.20
874.02	211.23
874.33	211.15
874.64	211.06
874.95	211.12
875.26	211.10
875.56	211.12
875.87	211.11
876.18	211.14
876.49	211.46
876.80	211.50
877.11	211.47
877.42	211.54
877.73	211.62
878.04	211.62
878.35	211.60
878.66	211.62
878.96	211.68
879.27	211.71
879.58	211.75
879.89	211.68
880.20	211.83
880.51	211.85
880.82	211.88
881.12	211.87
881.43	211.76
881.74	211.79
882.05	211.69
882.36	211.74
882.67	211.77
882.97	211.43
883.28	211.39
883.59	211.36
883.90	211.37
884.21	211.40
884.51	211.37
884.82	211.30
885.13	211.21
885.44	211.19
885.74	211.15
886.05	211.14
886.36	211.17
886.67	211.05
886.98	211.23
887.28	211.29
887.59	211.35
887.90	211.44
888.20	211.45
888.51	211.59
888.82	211.53
889.13	211.52
889.43	211.77
889.74	211.73
890.05	211.71
890.35	211.65
890.66	211.59
890.97	211.59
891.28	211.61
891.58	211.68
891.89	211.64
892.20	211.59
892.50	211.57
892.81	211.49
893.12	211.49
893.42	211.27
893.73	211.25
894.04	211.28
894.34	211.31
894.65	211.26
894.95	211.22
895.26	211.22
895.57	211.40
895.87	211.09
896.18	211.23
896.48	211.24
896.79	211.24
897.10	211.32
897.40	211.35
897.71	211.34
898.01	211.29
898.32	211.30
898.63	211.35
898.93	211.40
899.24	211.49
899.54	211.39
899.85	211.37
900.15	211.42
900.46	211.32
900.76	211.31
901.07	211.31
901.38	211.25
901.68	211.24
901.99	211.02
902.29	210.99
902.60	210.84
902.90	210.87
903.21	210.97
903.51	210.83
903.82	210.90
904.12	210.86
904.43	210.90
904.73	210.98
905.03	210.97
905.34	211.33
905.64	211.28
905.95	211.31
906.25	211.31
906.56	211.26
906.86	211.32
907.17	211.30
907.47	211.30
907.77	211.26
908.08	211.25
908.38	211.38
908.69	211.45
908.99	211.58
909.30	211.58
909.60	211.47
909.90	211.55
910.21	211.45
910.51	211.38
910.81	211.32
911.12	211.26
911.42	211.26
911.73	210.86
912.03	210.83
912.33	210.88
912.64	210.85
912.94	210.81
913.24	210.68
913.55	210.67
913.85	210.65
914.15	210.64
914.46	210.65
914.76	210.49
915.06	210.43
915.37	210.34
915.67	210.32
915.97	210.28
916.27	210.18
916.58	210.15
916.88	210.20
917.18	210.19
917.49	210.39
917.79	210.38
918.09	210.40
918.39	210.58
918.70	210.63
919.00	210.61
919.30	210.74
919.60	210.74
919.91	210.69
920.21	210.66
920.51	210.71
920.81	210.70
921.12	210.77
921.42	210.80
921.72	210.85
922.02	210.84
922.32	210.98
922.63	210.99
922.93	211.22
923.23	211.28
923.53	211.31
923.83	211.06
924.13	211.08
924.44	211.09
924.74	211.04
925.04	211.06
925.34	211.09
925.64	211.00
925.94	211.06
926.24	211.31
926.55	211.29
926.85	211.26
927.15	211.23
927.45	211.27
927.75	211.25
928.05	211.22
928.35	211.15
928.65	211.17
928.95	211.23
929.26	211.02
929.56	211.09
929.86	211.11
930.16	211.16
930.46	211.18
930.76	211.19
931.06	211.10
931.36	211.01
931.66	211.09
931.96	211.12
932.26	211.10
932.56	210.89
932.86	210.99
933.16	211.05
933.46	211.03
933.76	210.99
934.06	211.12
934.36	211.26
934.66	211.34
934.96	211.34
935.26	211.30
935.56	211.45
935.86	211.33
936.16	211.35
936.46	211.30
936.76	211.26
937.06	211.20
937.36	211.22
937.66	211.25
937.96	211.18
938.26	211.18
938.56	211.23
938.86	211.28
939.16	211.35
939.46	211.34
939.76	211.38
940.06	211.30
940.35	211.16
940.65	210.97
940.95	210.95
941.25	210.85
941.55	210.82
941.85	210.79
942.15	210.86
942.45	210.84
942.75	210.82
943.04	210.85
943.34	210.99
943.64	210.93
943.94	210.90
944.24	210.97
944.54	210.97
944.84	210.90
945.13	210.86
945.43	210.77
945.73	210.78
946.03	210.83
946.33	210.90
946.62	210.87
946.92	210.86
947.22	210.94
947.52	210.99
947.82	211.00
948.11	210.89
948.41	210.81
948.71	210.83
949.01	210.94
949.31	210.88
949.60	210.79
949.90	210.89
950.20	210.88
950.50	210.81
950.79	210.77
951.09	210.83
951.39	210.82
951.69	210.82
951.98	210.90
952.28	210.90
952.58	210.88
952.87	210.94
953.17	211.03
953.47	210.96
953.76	210.99
954.06	211.02
954.36	211.01
954.66	210.98
954.95	211.00
955.25	210.96
955.55	211.00
955.84	210.99
956.14	210.98
956.44	211.05
956.73	211.01
957.03	210.99
957.32	211.00
957.62	211.02
957.92	211.10
958.21	211.01
958.51	211.37
958.81	211.40
959.10	211.38
959.40	211.44
959.69	211.51
959.99	211.50
960.29	211.44
960.58	211.47
960.88	211.68
961.17	211.65
961.47	211.68
961.76	211.65
962.06	211.77
962.36	211.78
962.65	211.75
962.95	211.81
963.24	211.79
963.54	211.77
963.83	211.80
964.13	211.79
964.42	211.77
964.72	211.53
965.01	211.52
965.31	211.55
965.60	211.40
965.90	211.59
966.19	211.58
966.49	211.60
966.78	211.63
967.08	211.54
967.37	211.58
967.67	211.51
967.96	211.61
968.26	211.54
968.55	211.53
968.85	211.55
969.14	211.55
969.43	211.56
969.73	211.59
970.02	211.50
970.32	211.48
970.61	211.43
970.91	211.28
971.20	211.35
971.49	211.30
971.79	211.30
972.08	211.04
972.38	211.01
972.67	211.02
972.96	210.96
973.26	210.86
973.55	210.98
973.85	210.97
974.14	210.94
974.43	210.97
974.73	210.93
975.02	210.90
975.31	210.88
975.61	210.87
975.90	210.77
976.19	210.75
976.49	210.74
976.78	210.78
977.07	210.79
977.37	210.73
977.66	210.81
977.95	210.78
978.24	210.85
978.54	210.91
978.83	210.90
979.12	210.93
979.42	211.02
979.71	210.90
980.00	210.89
980.29	210.89
980.59	210.82
980.88	210.94
981.17	210.91
981.46	210.89
981.76	210.90
982.05	211.04
982.34	211.10
982.63	211.12
982.93	211.15
983.22	211.23
983.51	211.26
983.80	211.25
984.09	211.30
984.39	211.24
984.68	211.23
984.97	211.23
985.26	211.19
985.55	211.17
985.85	211.15
986.14	211.15
986.43	211.21
986.72	211.20
987.01	211.05
987.30	211.03
987.59	211.04
987.89	211.00
988.18	210.84
988.47	210.81
988.76	210.80
989.05	210.81
989.34	210.71
989.63	210.78
989.92	210.71
990.22	210.67
990.51	210.67
990.80	210.61
991.09	210.76
991.38	210.82
991.67	210.81
991.96	210.74
992.25	210.85
992.54	210.76
992.83	210.74
993.12	210.73
993.41	210.86
993.70	211.01
993.99	211.15
994.28	211.28
994.58	211.30
994.87	211.27
995.16	211.27
995.45	211.33
995.74	211.17
996.03	211.25
996.32	211.35
996.61	211.44
996.90	211.46
997.19	211.41
997.48	211.40
997.77	211.31
998.06	211.42
998.34	211.35
998.63	211.29
998.92	211.30
999.21	211.37
999.50	211.32
999.79	211.21
1000.08	211.14
1000.37	211.19
1000.66	211.16
1000.95	211.16
1001.24	211.11
1001.53	211.16
1001.82	211.18
1002.11	211.15
1002.40	211.22
1002.68	211.26
1002.97	211.47
1003.26	211.34
1003.55	211.29
1003.84	211.28
1004.13	211.32
1004.42	211.30
1004.71	211.37
1004.99	211.36
1005.28	211.44
1005.57	211.44
1005.86	211.37
1006.15	211.42
1006.44	211.30
1006.72	211.38
1007.01	211.26
1007.30	211.27
1007.59	211.16
1007.88	211.11
1008.17	211.08
1008.45	210.97
1008.74	210.79
1009.03	210.64
1009.32	210.67
1009.60	210.64
1009.89	210.69
1010.18	210.57
1010.47	210.58
1010.76	210.59
1011.04	210.53
1011.33	210.51
1011.62	210.46
1011.91	210.51
1012.19	210.54
1012.48	210.49
1012.77	210.43
1013.05	210.75
1013.34	210.76
1013.63	210.75
1013.92	210.82
1014.20	210.78
1014.49	210.77
1014.78	210.88
1015.06	210.77
1015.35	210.69
1015.64	210.75
1015.92	210.76
1016.21	210.76
1016.50	210.72
1016.78	210.64
1017.07	210.71
1017.36	210.67
1017.64	210.65
1017.93	210.62
1018.22	210.54
1018.50	210.58
1018.79	210.65
1019.08	210.42
1019.36	210.33
1019.65	210.34
1019.93	210.39
1020.22	210.45
1020.51	210.61
1020.79	210.56
1021.08	210.45
1021.36	209.80
1021.65	212.25
1021.94	210.15
1022.22	209.45
1022.51	210.10
1022.79	212.00
1023.08	210.75
1023.36	214.15
1023.65	210.20
>>>>>End Processed Spectral Data<<<<<
