SpectraSuite Data File
++++++++++++++++++++++++++++++++++++
Date: Mon Feb 25 17:17:19 EST 2013
User: group
Dark Spectrum Present: No
Reference Spectrum Present: No
Number of Sampled Component Spectra: 1
Spectrometers: USB2E7196
Integration Time (usec): 104000 (USB2E7196)
Spectra Averaged: 20 (USB2E7196)
Boxcar Smoothing: 10 (USB2E7196)
Correct for Electrical Dark: No (USB2E7196)
Strobe/Lamp Enabled: No (USB2E7196)
Correct for Detector Non-linearity: No (USB2E7196)
Correct for Stray Light: No (USB2E7196)
Number of Pixels in Processed Spectrum: 2048
>>>>>Begin Processed Spectral Data<<<<<
339.09	0.00
339.48	198.10
339.86	199.10
340.24	200.75
340.63	203.30
341.01	210.40
341.39	205.00
341.78	206.95
342.16	208.90
342.54	207.75
342.93	198.01
343.31	207.99
343.69	208.58
344.07	209.09
344.46	209.59
344.84	209.98
345.22	209.99
345.60	210.30
345.99	210.56
346.37	210.69
346.75	210.84
347.13	211.01
347.52	211.09
347.90	211.26
348.28	211.28
348.66	211.48
349.05	211.44
349.43	211.50
349.81	211.60
350.19	211.65
350.57	211.76
350.96	211.94
351.34	212.15
351.72	212.22
352.10	212.37
352.48	212.40
352.87	212.41
353.25	212.50
353.63	212.53
354.01	212.62
354.39	212.71
354.77	212.81
355.15	212.95
355.54	213.02
355.92	213.00
356.30	213.17
356.68	213.45
357.06	213.44
357.44	213.45
357.82	213.50
358.20	213.59
358.58	213.63
358.97	213.63
359.35	213.71
359.73	213.86
360.11	213.88
360.49	213.96
360.87	214.10
361.25	214.24
361.63	214.46
362.01	214.48
362.39	214.47
362.77	214.52
363.15	214.50
363.53	214.55
363.91	214.59
364.29	214.56
364.67	214.19
365.05	214.28
365.43	214.34
365.81	214.44
366.19	214.64
366.57	214.79
366.95	214.85
367.33	214.74
367.71	214.74
368.09	214.84
368.47	214.91
368.85	214.86
369.23	214.87
369.61	214.74
369.99	214.83
370.37	214.92
370.75	215.14
371.13	215.12
371.51	214.96
371.89	214.95
372.27	214.98
372.65	215.01
373.03	214.93
373.41	214.92
373.78	214.83
374.16	214.57
374.54	214.43
374.92	214.36
375.30	214.34
375.68	214.24
376.06	214.21
376.44	214.04
376.82	214.05
377.19	214.00
377.57	213.92
377.95	213.78
378.33	213.64
378.71	213.33
379.09	213.30
379.47	213.37
379.84	213.33
380.22	213.19
380.60	213.07
380.98	213.10
381.36	213.04
381.73	213.00
382.11	213.04
382.49	213.03
382.87	212.91
383.25	212.84
383.62	213.21
384.00	213.09
384.38	213.10
384.76	213.12
385.13	213.12
385.51	213.10
385.89	212.94
386.27	212.95
386.64	213.07
387.02	213.07
387.40	213.05
387.78	212.98
388.15	212.97
388.53	212.97
388.91	212.91
389.29	212.83
389.66	212.78
390.04	212.78
390.42	212.78
390.79	212.82
391.17	212.89
391.55	212.43
391.92	212.40
392.30	212.40
392.68	212.35
393.05	212.40
393.43	212.38
393.81	212.46
394.18	212.40
394.56	212.28
394.94	212.31
395.31	212.24
395.69	212.35
396.06	212.42
396.44	212.43
396.82	212.42
397.19	212.66
397.57	212.72
397.95	212.65
398.32	212.58
398.70	212.60
399.07	212.64
399.45	212.64
399.82	212.75
400.20	212.73
400.58	212.66
400.95	212.53
401.33	212.63
401.70	212.89
402.08	213.04
402.45	213.10
402.83	213.23
403.20	213.37
403.58	213.44
403.95	213.59
404.33	213.72
404.71	213.83
405.08	214.17
405.46	214.26
405.83	214.49
406.21	214.63
406.58	214.81
406.96	214.96
407.33	215.25
407.70	215.43
408.08	215.96
408.45	216.26
408.83	216.61
409.20	216.85
409.58	216.91
409.95	217.12
410.33	217.42
410.70	217.62
411.08	217.96
411.45	218.33
411.82	218.66
412.20	219.21
412.57	219.90
412.95	219.93
413.32	220.54
413.69	221.09
414.07	221.73
414.44	222.36
414.82	223.07
415.19	223.82
415.56	224.64
415.94	225.32
416.31	226.27
416.68	227.10
417.06	228.20
417.43	229.34
417.81	230.61
418.18	231.99
418.55	233.31
418.93	234.65
419.30	236.10
419.67	237.65
420.04	239.15
420.42	240.67
420.79	242.81
421.16	244.66
421.54	246.67
421.91	248.70
422.28	250.81
422.66	253.01
423.03	255.37
423.40	257.58
423.77	259.84
424.15	262.28
424.52	264.84
424.89	267.62
425.26	270.20
425.64	272.62
426.01	275.32
426.38	278.23
426.75	281.27
427.13	284.27
427.50	287.39
427.87	290.74
428.24	294.08
428.61	297.15
428.99	300.70
429.36	304.44
429.73	308.21
430.10	311.96
430.47	315.68
430.85	319.43
431.22	323.60
431.59	328.21
431.96	332.25
432.33	336.93
432.70	341.40
433.08	346.63
433.45	351.65
433.82	356.54
434.19	361.88
434.56	367.19
434.93	372.16
435.30	377.29
435.68	382.82
436.05	388.30
436.42	393.71
436.79	398.64
437.16	404.02
437.53	409.78
437.90	415.27
438.27	420.87
438.64	426.68
439.01	431.95
439.38	436.56
439.75	441.25
440.13	446.46
440.50	451.41
440.87	455.29
441.24	459.39
441.61	463.96
441.98	467.40
442.35	471.14
442.72	475.16
443.09	478.97
443.46	481.11
443.83	482.60
444.20	483.93
444.57	485.78
444.94	486.51
445.31	487.30
445.68	488.57
446.05	488.79
446.42	488.10
446.79	487.52
447.16	486.70
447.53	486.10
447.90	483.82
448.27	481.45
448.64	478.54
449.01	476.41
449.37	472.50
449.74	468.72
450.11	464.57
450.48	459.66
450.85	454.78
451.22	450.75
451.59	446.77
451.96	442.90
452.33	437.92
452.70	433.40
453.07	427.74
453.43	421.76
453.80	416.44
454.17	411.34
454.54	406.28
454.91	401.10
455.28	396.03
455.65	391.41
456.02	387.18
456.38	383.05
456.75	378.08
457.12	374.06
457.49	369.95
457.86	365.67
458.23	362.47
458.59	358.63
458.96	354.83
459.33	351.38
459.70	348.07
460.07	345.42
460.43	342.36
460.80	339.63
461.17	337.22
461.54	334.59
461.91	332.11
462.27	329.64
462.64	327.41
463.01	325.02
463.38	322.73
463.74	320.01
464.11	318.16
464.48	316.38
464.85	314.41
465.21	313.11
465.58	311.75
465.95	309.77
466.32	308.35
466.68	306.83
467.05	305.44
467.42	303.85
467.78	302.34
468.15	300.94
468.52	299.89
468.88	298.41
469.25	297.17
469.62	296.15
469.98	295.12
470.35	294.19
470.72	293.33
471.08	292.37
471.45	291.65
471.82	290.90
472.18	289.99
472.55	289.42
472.92	288.61
473.28	287.97
473.65	287.48
474.02	286.92
474.38	286.51
474.75	286.29
475.11	286.04
475.48	285.74
475.85	285.55
476.21	285.35
476.58	285.29
476.94	285.36
477.31	285.32
477.67	285.34
478.04	285.41
478.41	285.63
478.77	286.10
479.14	286.25
479.50	286.51
479.87	286.96
480.23	287.35
480.60	287.78
480.96	288.29
481.33	289.00
481.69	289.66
482.06	290.35
482.42	290.98
482.79	291.67
483.15	292.53
483.52	293.59
483.88	294.57
484.25	295.67
484.61	296.78
484.98	297.91
485.34	299.38
485.71	300.92
486.07	302.49
486.44	303.80
486.80	305.54
487.17	307.26
487.53	309.27
487.90	311.41
488.26	313.72
488.62	316.16
488.99	318.52
489.35	320.94
489.72	323.60
490.08	326.39
490.44	329.25
490.81	332.35
491.17	335.44
491.54	338.96
491.90	342.50
492.26	346.32
492.63	350.41
492.99	354.46
493.36	358.63
493.72	363.20
494.08	367.97
494.45	372.96
494.81	378.41
495.17	383.71
495.54	389.30
495.90	395.13
496.26	401.37
496.63	407.81
496.99	414.59
497.35	421.65
497.72	428.98
498.08	436.69
498.44	444.59
498.80	453.05
499.17	461.53
499.53	470.45
499.89	479.71
500.26	489.05
500.62	498.65
500.98	508.91
501.34	519.27
501.71	530.25
502.07	541.55
502.43	552.90
502.79	564.49
503.16	576.64
503.52	589.22
503.88	601.77
504.24	614.92
504.60	628.39
504.97	642.28
505.33	656.51
505.69	671.65
506.05	686.78
506.41	702.01
506.78	717.75
507.14	733.70
507.50	750.15
507.86	767.23
508.22	784.75
508.59	802.19
508.95	820.24
509.31	838.38
509.67	857.04
510.03	876.26
510.39	896.32
510.75	916.34
511.12	936.57
511.48	957.24
511.84	978.05
512.20	999.12
512.56	1020.69
512.92	1042.59
513.28	1064.56
513.64	1086.96
514.00	1109.24
514.37	1131.85
514.73	1155.13
515.09	1178.25
515.45	1201.36
515.81	1224.66
516.17	1248.27
516.53	1271.86
516.89	1295.82
517.25	1319.61
517.61	1343.48
517.97	1367.16
518.33	1390.93
518.69	1415.00
519.05	1439.30
519.41	1463.83
519.77	1488.74
520.13	1512.87
520.49	1536.66
520.85	1560.65
521.21	1585.04
521.57	1610.13
521.93	1634.01
522.29	1658.75
522.65	1683.60
523.01	1707.56
523.37	1731.32
523.73	1755.62
524.09	1779.54
524.45	1803.85
524.81	1828.00
525.17	1852.26
525.53	1876.08
525.89	1900.10
526.25	1923.58
526.61	1946.34
526.97	1969.14
527.33	1991.88
527.68	2014.89
528.04	2037.39
528.40	2059.14
528.76	2080.93
529.12	2103.12
529.48	2126.36
529.84	2147.89
530.20	2168.87
530.56	2190.85
530.91	2213.28
531.27	2234.95
531.63	2256.19
531.99	2276.81
532.35	2296.89
532.71	2316.46
533.07	2337.15
533.42	2356.51
533.78	2376.07
534.14	2395.32
534.50	2413.34
534.86	2431.71
535.21	2449.26
535.57	2468.10
535.93	2486.10
536.29	2503.34
536.65	2519.88
537.00	2535.30
537.36	2550.91
537.72	2566.38
538.08	2581.67
538.44	2596.32
538.79	2610.91
539.15	2625.65
539.51	2639.67
539.87	2654.64
540.22	2668.32
540.58	2682.41
540.94	2695.86
541.29	2708.00
541.65	2719.83
542.01	2732.21
542.37	2743.68
542.72	2755.44
543.08	2765.74
543.44	2777.20
543.79	2786.84
544.15	2796.00
544.51	2806.00
544.87	2815.81
545.22	2824.52
545.58	2832.45
545.94	2839.59
546.29	2846.17
546.65	2852.35
547.01	2858.52
547.36	2863.79
547.72	2869.74
548.07	2873.47
548.43	2877.83
548.79	2881.77
549.14	2885.91
549.50	2889.71
549.86	2892.83
550.21	2895.57
550.57	2898.74
550.92	2899.94
551.28	2902.01
551.64	2904.29
551.99	2906.39
552.35	2907.43
552.70	2909.01
553.06	2910.30
553.41	2911.16
553.77	2912.01
554.13	2912.84
554.48	2913.64
554.84	2914.21
555.19	2913.52
555.55	2912.91
555.90	2911.09
556.26	2910.23
556.61	2908.86
556.97	2906.96
557.32	2905.47
557.68	2902.81
558.03	2900.05
558.39	2897.76
558.74	2896.57
559.10	2894.63
559.45	2891.67
559.81	2889.57
560.16	2885.98
560.52	2883.32
560.87	2880.57
561.23	2876.70
561.58	2873.25
561.94	2868.66
562.29	2863.27
562.64	2859.49
563.00	2855.79
563.35	2853.47
563.71	2850.61
564.06	2847.20
564.42	2844.12
564.77	2840.69
565.12	2837.99
565.48	2834.36
565.83	2831.08
566.19	2827.09
566.54	2821.60
566.89	2816.49
567.25	2811.45
567.60	2807.24
567.96	2802.06
568.31	2797.11
568.66	2791.68
569.02	2785.52
569.37	2779.39
569.72	2774.34
570.08	2768.36
570.43	2761.90
570.78	2754.56
571.14	2747.14
571.49	2739.96
571.84	2733.50
572.20	2725.45
572.55	2718.19
572.90	2710.14
573.26	2701.88
573.61	2693.22
573.96	2685.55
574.31	2676.95
574.67	2667.53
575.02	2658.09
575.37	2648.61
575.72	2638.54
576.08	2630.62
576.43	2621.13
576.78	2612.52
577.13	2604.22
577.49	2595.54
577.84	2586.64
578.19	2578.60
578.54	2570.45
578.90	2562.70
579.25	2553.12
579.60	2543.73
579.95	2533.81
580.30	2525.11
580.66	2517.03
581.01	2507.91
581.36	2498.01
581.71	2488.95
582.06	2480.29
582.42	2471.50
582.77	2462.01
583.12	2453.09
583.47	2444.33
583.82	2436.47
584.17	2427.63
584.53	2418.52
584.88	2409.17
585.23	2400.27
585.58	2391.16
585.93	2381.54
586.28	2372.34
586.63	2363.30
586.98	2355.16
587.34	2347.08
587.69	2338.23
588.04	2328.66
588.39	2320.27
588.74	2311.62
589.09	2303.73
589.44	2294.57
589.79	2286.20
590.14	2278.34
590.49	2269.84
590.84	2260.53
591.19	2252.74
591.54	2244.25
591.89	2234.36
592.25	2225.50
592.60	2215.92
592.95	2206.47
593.30	2196.52
593.65	2186.50
594.00	2177.06
594.35	2169.28
594.70	2160.04
595.05	2151.34
595.40	2142.58
595.75	2132.57
596.10	2124.23
596.45	2115.35
596.80	2107.68
597.15	2099.39
597.50	2090.42
597.85	2082.32
598.19	2073.48
598.54	2064.49
598.89	2056.33
599.24	2049.23
599.59	2041.45
599.94	2034.83
600.29	2027.18
600.64	2019.99
600.99	2011.84
601.34	2004.26
601.69	1994.82
602.04	1986.33
602.39	1978.19
602.74	1970.24
603.08	1963.80
603.43	1956.92
603.78	1948.97
604.13	1940.99
604.48	1933.39
604.83	1927.13
605.18	1920.70
605.53	1913.22
605.87	1905.08
606.22	1897.38
606.57	1889.43
606.92	1881.35
607.27	1872.61
607.62	1864.33
607.96	1857.19
608.31	1850.60
608.66	1842.69
609.01	1834.80
609.36	1827.05
609.70	1818.25
610.05	1809.65
610.40	1801.10
610.75	1792.03
611.10	1784.17
611.44	1774.65
611.79	1765.20
612.14	1755.20
612.49	1744.71
612.83	1735.96
613.18	1726.60
613.53	1717.62
613.88	1707.72
614.22	1699.03
614.57	1689.90
614.92	1680.80
615.27	1670.92
615.61	1661.00
615.96	1651.88
616.31	1643.25
616.65	1635.11
617.00	1626.98
617.35	1618.41
617.70	1609.03
618.04	1599.36
618.39	1589.29
618.74	1580.58
619.08	1571.63
619.43	1562.67
619.78	1554.58
620.12	1545.87
620.47	1537.51
620.82	1528.00
621.16	1519.13
621.51	1510.00
621.85	1501.29
622.20	1492.42
622.55	1483.42
622.89	1474.59
623.24	1465.92
623.59	1456.76
623.93	1447.55
624.28	1438.76
624.62	1430.13
624.97	1421.72
625.32	1413.96
625.66	1406.32
626.01	1398.41
626.35	1390.46
626.70	1382.71
627.04	1374.47
627.39	1366.20
627.73	1357.97
628.08	1350.33
628.43	1342.37
628.77	1334.29
629.12	1326.22
629.46	1318.78
629.81	1311.53
630.15	1303.88
630.50	1296.13
630.84	1288.07
631.19	1280.08
631.53	1272.32
631.88	1264.28
632.22	1256.24
632.57	1248.43
632.91	1240.42
633.26	1232.73
633.60	1225.17
633.95	1217.74
634.29	1210.06
634.64	1202.81
634.98	1195.08
635.32	1187.84
635.67	1181.18
636.01	1174.00
636.36	1166.51
636.70	1159.50
637.05	1152.38
637.39	1145.60
637.73	1138.73
638.08	1132.75
638.42	1126.39
638.77	1119.92
639.11	1113.13
639.45	1106.41
639.80	1099.24
640.14	1092.03
640.49	1084.82
640.83	1077.90
641.17	1070.71
641.52	1063.83
641.86	1056.65
642.20	1050.03
642.55	1042.90
642.89	1035.45
643.23	1028.40
643.58	1022.21
643.92	1014.85
644.26	1007.92
644.61	1000.96
644.95	993.92
645.29	986.70
645.64	979.51
645.98	972.42
646.32	966.04
646.66	959.34
647.01	953.06
647.35	946.74
647.69	940.10
648.04	933.58
648.38	926.72
648.72	920.11
649.06	913.48
649.41	907.04
649.75	900.55
650.09	894.26
650.43	887.96
650.78	880.92
651.12	874.38
651.46	867.83
651.80	861.60
652.14	855.46
652.49	849.13
652.83	842.88
653.17	836.27
653.51	829.63
653.85	823.62
654.20	817.36
654.54	811.08
654.88	805.07
655.22	798.91
655.56	792.93
655.90	786.74
656.25	780.87
656.59	774.80
656.93	768.92
657.27	763.24
657.61	757.28
657.95	751.80
658.29	746.36
658.64	741.01
658.98	735.25
659.32	729.55
659.66	724.14
660.00	718.53
660.34	713.11
660.68	707.65
661.02	702.00
661.36	696.68
661.70	691.65
662.05	686.62
662.39	681.77
662.73	677.13
663.07	672.41
663.41	667.58
663.75	662.78
664.09	657.95
664.43	653.02
664.77	648.33
665.11	643.47
665.45	638.86
665.79	634.33
666.13	629.99
666.47	625.50
666.81	621.04
667.15	616.70
667.49	612.75
667.83	608.65
668.17	604.64
668.51	600.53
668.85	596.36
669.19	592.53
669.53	588.25
669.87	584.09
670.21	580.18
670.55	576.29
670.89	572.71
671.23	569.25
671.57	565.54
671.91	561.88
672.25	558.25
672.58	554.60
672.92	550.70
673.26	547.10
673.60	543.59
673.94	540.16
674.28	536.80
674.62	533.43
674.96	530.13
675.30	526.81
675.64	523.44
675.97	520.22
676.31	516.85
676.65	513.77
676.99	510.77
677.33	507.56
677.67	504.30
678.01	500.97
678.34	497.75
678.68	494.80
679.02	491.60
679.36	488.76
679.70	485.71
680.04	482.81
680.37	479.72
680.71	476.79
681.05	473.88
681.39	470.99
681.73	468.12
682.06	465.45
682.40	462.74
682.74	460.07
683.08	457.36
683.42	454.61
683.75	451.86
684.09	449.03
684.43	446.34
684.77	443.64
685.10	440.96
685.44	438.12
685.78	435.34
686.12	432.95
686.45	430.27
686.79	427.84
687.13	425.56
687.46	423.19
687.80	420.83
688.14	418.22
688.48	415.91
688.81	413.35
689.15	410.89
689.49	408.43
689.82	406.14
690.16	403.68
690.50	401.26
690.83	399.02
691.17	396.67
691.51	394.35
691.84	392.39
692.18	390.26
692.52	388.41
692.85	386.58
693.19	384.65
693.52	382.60
693.86	380.46
694.20	378.39
694.53	376.44
694.87	374.35
695.21	372.41
695.54	370.24
695.88	368.24
696.21	366.25
696.55	364.39
696.88	362.58
697.22	360.72
697.56	359.04
697.89	357.17
698.23	355.43
698.56	353.73
698.90	352.00
699.23	350.24
699.57	348.38
699.90	346.58
700.24	344.77
700.58	343.08
700.91	341.54
701.25	340.18
701.58	338.60
701.92	337.11
702.25	335.57
702.59	334.08
702.92	332.80
703.26	331.29
703.59	329.82
703.93	328.55
704.26	327.14
704.60	325.78
704.93	324.35
705.26	322.88
705.60	321.64
705.93	320.15
706.27	318.92
706.60	317.79
706.94	316.59
707.27	315.25
707.61	314.05
707.94	312.81
708.27	311.27
708.61	309.96
708.94	308.83
709.28	307.59
709.61	306.48
709.94	305.30
710.28	304.20
710.61	303.11
710.95	301.62
711.28	300.66
711.61	299.47
711.95	298.50
712.28	297.56
712.61	296.42
712.95	295.52
713.28	294.56
713.61	293.47
713.95	292.48
714.28	291.56
714.61	290.53
714.95	289.59
715.28	288.59
715.61	287.58
715.95	286.64
716.28	285.79
716.61	284.95
716.95	284.08
717.28	283.22
717.61	282.41
717.94	281.68
718.28	280.75
718.61	279.98
718.94	279.13
719.27	278.24
719.61	277.49
719.94	276.72
720.27	275.84
720.60	275.07
720.94	274.35
721.27	273.58
721.60	272.95
721.93	272.16
722.27	271.60
722.60	271.13
722.93	270.45
723.26	269.87
723.59	269.16
723.93	268.50
724.26	267.84
724.59	267.20
724.92	266.69
725.25	266.18
725.59	265.58
725.92	265.16
726.25	264.56
726.58	264.05
726.91	263.43
727.24	262.96
727.57	262.44
727.91	261.76
728.24	261.37
728.57	260.82
728.90	260.40
729.23	259.78
729.56	259.35
729.89	258.78
730.22	258.15
730.55	257.63
730.89	257.05
731.22	256.55
731.55	256.02
731.88	255.50
732.21	254.91
732.54	254.39
732.87	253.80
733.20	253.40
733.53	252.91
733.86	252.50
734.19	252.01
734.52	251.61
734.85	251.44
735.18	250.90
735.51	250.55
735.84	250.08
736.17	249.70
736.50	249.06
736.83	249.10
737.16	248.70
737.49	248.34
737.82	247.99
738.15	247.58
738.48	247.14
738.81	246.62
739.14	246.26
739.47	245.78
739.80	245.36
740.13	244.98
740.46	244.60
740.79	244.05
741.12	243.60
741.45	243.11
741.78	242.62
742.11	242.28
742.44	241.82
742.77	241.55
743.10	241.14
743.43	240.80
743.75	240.04
744.08	240.20
744.41	239.85
744.74	239.45
745.07	239.13
745.40	238.88
745.73	238.71
746.06	238.33
746.39	238.13
746.71	237.78
747.04	237.50
747.37	237.15
747.70	236.92
748.03	236.64
748.36	236.50
748.68	236.13
749.01	235.82
749.34	235.60
749.67	235.29
750.00	235.10
750.33	235.08
750.65	234.88
750.98	234.17
751.31	233.96
751.64	233.74
751.97	233.76
752.29	233.53
752.62	233.19
752.95	232.94
753.28	232.66
753.60	232.37
753.93	232.18
754.26	231.90
754.59	231.66
754.91	231.43
755.24	231.11
755.57	230.84
755.90	230.56
756.22	230.30
756.55	230.07
756.88	229.80
757.20	229.29
757.53	228.88
757.86	228.68
758.19	228.44
758.51	228.20
758.84	227.76
759.17	227.53
759.49	227.33
759.82	227.32
760.15	227.17
760.47	227.01
760.80	226.72
761.13	226.67
761.45	226.46
761.78	226.24
762.11	225.99
762.43	225.79
762.76	225.62
763.08	225.50
763.41	225.32
763.74	225.21
764.06	225.10
764.39	225.06
764.71	224.84
765.04	224.60
765.37	224.41
765.69	224.23
766.02	224.05
766.34	223.86
766.67	223.61
767.00	223.49
767.32	223.55
767.65	223.61
767.97	223.49
768.30	223.33
768.62	223.30
768.95	223.17
769.27	223.10
769.60	223.04
769.92	222.84
770.25	222.65
770.57	222.41
770.90	222.29
771.22	222.14
771.55	221.91
771.87	221.82
772.20	221.71
772.52	221.87
772.85	222.27
773.17	222.13
773.50	222.01
773.82	221.80
774.15	221.54
774.47	221.24
774.80	221.05
775.12	220.97
775.45	220.76
775.77	220.70
776.09	220.62
776.42	220.49
776.74	220.50
777.07	220.40
777.39	220.36
777.72	220.30
778.04	220.17
778.36	220.16
778.69	220.06
779.01	220.01
779.33	219.73
779.66	219.17
779.98	219.06
780.31	219.01
780.63	219.12
780.95	219.12
781.28	219.00
781.60	218.97
781.92	218.92
782.25	218.89
782.57	218.80
782.89	218.71
783.22	218.65
783.54	218.46
783.86	218.47
784.19	218.36
784.51	218.34
784.83	218.31
785.16	218.32
785.48	218.31
785.80	218.26
786.12	218.15
786.45	218.14
786.77	218.20
787.09	218.10
787.42	217.92
787.74	217.84
788.06	217.83
788.38	217.74
788.71	217.61
789.03	217.53
789.35	217.50
789.67	217.39
789.99	217.36
790.32	217.30
790.64	217.22
790.96	217.45
791.28	217.34
791.61	217.23
791.93	217.21
792.25	217.13
792.57	217.30
792.89	217.18
793.21	217.14
793.54	217.05
793.86	216.92
794.18	216.95
794.50	216.83
794.82	216.75
795.14	216.69
795.47	216.75
795.79	216.80
796.11	216.70
796.43	216.60
796.75	216.50
797.07	216.46
797.39	216.37
797.71	216.07
798.04	216.03
798.36	216.08
798.68	215.94
799.00	215.96
799.32	215.71
799.64	215.77
799.96	215.75
800.28	215.70
800.60	215.70
800.92	215.63
801.24	215.57
801.56	215.69
801.89	215.64
802.21	215.57
802.53	215.47
802.85	215.50
803.17	215.65
803.49	215.59
803.81	215.56
804.13	215.53
804.45	215.45
804.77	215.45
805.09	215.34
805.41	215.29
805.73	215.19
806.05	215.13
806.37	215.03
806.69	214.88
807.01	214.86
807.33	214.84
807.65	214.68
807.97	214.81
808.28	214.71
808.60	214.68
808.92	214.62
809.24	214.73
809.56	214.67
809.88	214.55
810.20	214.57
810.52	214.58
810.84	214.54
811.16	214.49
811.48	214.40
811.80	214.54
812.12	214.50
812.43	214.50
812.75	214.49
813.07	214.44
813.39	214.45
813.71	214.34
814.03	214.25
814.35	214.33
814.67	214.11
814.98	213.99
815.30	213.96
815.62	213.88
815.94	213.63
816.26	213.61
816.58	213.51
816.89	213.46
817.21	213.41
817.53	213.43
817.85	213.45
818.17	213.42
818.48	213.23
818.80	213.34
819.12	213.33
819.44	213.27
819.76	213.24
820.07	213.27
820.39	213.30
820.71	213.35
821.03	213.24
821.34	213.23
821.66	213.33
821.98	213.35
822.30	213.32
822.61	213.46
822.93	213.42
823.25	213.40
823.57	213.36
823.88	213.40
824.20	213.36
824.52	213.35
824.83	213.36
825.15	213.33
825.47	213.28
825.79	213.25
826.10	213.23
826.42	213.25
826.74	213.25
827.05	213.24
827.37	213.26
827.69	213.30
828.00	213.34
828.32	213.30
828.64	213.24
828.95	213.39
829.27	213.30
829.58	213.28
829.90	213.30
830.22	213.31
830.53	213.21
830.85	213.17
831.17	213.08
831.48	213.02
831.80	213.05
832.11	213.03
832.43	213.02
832.75	213.06
833.06	213.24
833.38	213.05
833.69	213.03
834.01	213.07
834.32	213.00
834.64	212.96
834.96	212.88
835.27	212.88
835.59	212.85
835.90	212.85
836.22	212.87
836.53	212.90
836.85	212.91
837.16	213.23
837.48	213.27
837.79	213.43
838.11	213.38
838.42	213.44
838.74	213.47
839.05	213.37
839.37	213.33
839.68	213.09
840.00	213.09
840.31	213.10
840.63	213.03
840.94	213.06
841.26	213.04
841.57	213.02
841.88	213.09
842.20	212.98
842.51	212.96
842.83	212.95
843.14	213.23
843.46	213.21
843.77	213.05
844.08	213.00
844.40	212.85
844.71	212.87
845.03	212.71
845.34	212.68
845.65	212.68
845.97	212.73
846.28	212.72
846.60	212.75
846.91	212.69
847.22	212.64
847.54	212.63
847.85	212.58
848.16	212.67
848.48	212.53
848.79	212.66
849.10	212.64
849.42	212.64
849.73	212.24
850.04	212.23
850.36	212.08
850.67	212.09
850.98	212.10
851.30	212.17
851.61	212.14
851.92	212.10
852.23	212.24
852.55	212.14
852.86	212.22
853.17	212.30
853.49	212.41
853.80	212.48
854.11	212.50
854.42	212.61
854.74	212.47
855.05	212.50
855.36	212.31
855.67	212.32
855.99	212.32
856.30	212.74
856.61	212.75
856.92	212.77
857.23	212.76
857.55	212.73
857.86	212.63
858.17	212.74
858.48	212.67
858.79	212.60
859.11	212.67
859.42	212.65
859.73	212.56
860.04	212.47
860.35	212.40
860.66	212.30
860.98	212.27
861.29	212.40
861.60	212.38
861.91	212.48
862.22	212.42
862.53	212.33
862.84	211.92
863.16	211.94
863.47	211.83
863.78	211.85
864.09	211.88
864.40	211.92
864.71	211.91
865.02	212.03
865.33	211.96
865.64	211.84
865.95	211.78
866.27	212.04
866.58	212.12
866.89	212.19
867.20	212.15
867.51	212.14
867.82	212.12
868.13	212.20
868.44	212.11
868.75	212.15
869.06	212.15
869.37	212.25
869.68	212.14
869.99	212.21
870.30	212.16
870.61	212.21
870.92	212.18
871.23	212.09
871.54	212.08
871.85	212.16
872.16	212.28
872.47	212.25
872.78	212.04
873.09	211.99
873.40	211.89
873.71	211.97
874.02	211.95
874.33	211.92
874.64	211.89
874.95	211.99
875.26	211.98
875.56	212.05
875.87	212.05
876.18	212.09
876.49	212.42
876.80	212.47
877.11	212.34
877.42	212.35
877.73	212.38
878.04	212.35
878.35	212.31
878.66	212.30
878.96	212.25
879.27	212.17
879.58	212.20
879.89	212.21
880.20	212.30
880.51	212.28
880.82	212.28
881.12	212.30
881.43	212.22
881.74	212.19
882.05	212.15
882.36	212.17
882.67	212.21
882.97	211.84
883.28	211.78
883.59	211.85
883.90	211.92
884.21	212.01
884.51	212.01
884.82	211.97
885.13	211.97
885.44	212.00
885.74	212.07
886.05	211.94
886.36	211.95
886.67	211.77
886.98	211.90
887.28	211.86
887.59	211.85
887.90	211.88
888.20	211.85
888.51	211.90
888.82	211.80
889.13	211.85
889.43	212.20
889.74	212.22
890.05	212.19
890.35	212.18
890.66	212.10
890.97	212.09
891.28	212.10
891.58	212.10
891.89	212.12
892.20	212.09
892.50	212.15
892.81	212.12
893.12	212.21
893.42	212.11
893.73	212.13
894.04	212.19
894.34	212.14
894.65	212.17
894.95	212.15
895.26	212.21
895.57	212.37
895.87	212.02
896.18	212.09
896.48	212.14
896.79	212.09
897.10	212.13
897.40	212.11
897.71	212.15
898.01	212.19
898.32	212.23
898.63	212.24
898.93	212.28
899.24	212.32
899.54	212.28
899.85	212.24
900.15	212.27
900.46	212.22
900.76	212.29
901.07	212.27
901.38	212.29
901.68	212.25
901.99	212.01
902.29	212.04
902.60	211.97
902.90	211.87
903.21	211.90
903.51	211.85
903.82	211.92
904.12	211.89
904.43	211.89
904.73	211.86
905.03	211.83
905.34	212.14
905.64	212.07
905.95	212.10
906.25	212.09
906.56	212.10
906.86	212.11
907.17	212.08
907.47	212.13
907.77	212.07
908.08	211.99
908.38	212.07
908.69	212.05
908.99	212.10
909.30	212.13
909.60	212.11
909.90	212.19
910.21	212.02
910.51	212.00
910.81	211.98
911.12	211.95
911.42	211.97
911.73	211.61
912.03	211.70
912.33	211.75
912.64	211.78
912.94	211.70
913.24	211.55
913.55	211.63
913.85	211.62
914.15	211.68
914.46	211.81
914.76	211.80
915.06	211.80
915.37	211.74
915.67	211.75
915.97	211.72
916.27	211.55
916.58	211.58
916.88	211.52
917.18	211.49
917.49	211.70
917.79	211.65
918.09	211.72
918.39	211.74
918.70	211.68
919.00	211.66
919.30	211.87
919.60	211.90
919.91	211.71
920.21	211.64
920.51	211.58
920.81	211.50
921.12	211.47
921.42	211.50
921.72	211.58
922.02	211.64
922.32	211.74
922.63	211.83
922.93	212.04
923.23	212.06
923.53	212.06
923.83	211.88
924.13	211.96
924.44	211.93
924.74	212.01
925.04	212.06
925.34	212.02
925.64	211.84
925.94	211.87
926.24	212.17
926.55	212.21
926.85	212.28
927.15	212.30
927.45	212.29
927.75	212.30
928.05	212.25
928.35	212.17
928.65	212.24
928.95	212.23
929.26	212.07
929.56	212.12
929.86	212.22
930.16	212.18
930.46	212.10
930.76	212.13
931.06	211.97
931.36	211.95
931.66	212.04
931.96	212.06
932.26	212.06
932.56	211.88
932.86	211.86
933.16	211.82
933.46	211.74
933.76	211.71
934.06	211.76
934.36	211.88
934.66	211.95
934.96	211.82
935.26	211.82
935.56	211.82
935.86	211.76
936.16	211.64
936.46	211.69
936.76	211.73
937.06	211.64
937.36	211.63
937.66	211.62
937.96	211.63
938.26	211.53
938.56	211.56
938.86	211.57
939.16	211.58
939.46	211.61
939.76	211.70
940.06	211.69
940.35	211.57
940.65	211.41
940.95	211.38
941.25	211.35
941.55	211.35
941.85	211.43
942.15	211.45
942.45	211.53
942.75	211.48
943.04	211.49
943.34	211.61
943.64	211.64
943.94	211.58
944.24	211.56
944.54	211.60
944.84	211.58
945.13	211.50
945.43	211.52
945.73	211.51
946.03	211.46
946.33	211.45
946.62	211.40
946.92	211.41
947.22	211.41
947.52	211.35
947.82	211.43
948.11	211.40
948.41	211.34
948.71	211.22
949.01	211.25
949.31	211.23
949.60	211.18
949.90	211.23
950.20	211.17
950.50	211.15
950.79	211.15
951.09	211.20
951.39	211.25
951.69	211.23
951.98	211.28
952.28	211.26
952.58	211.30
952.87	211.30
953.17	211.33
953.47	211.29
953.76	211.36
954.06	211.22
954.36	211.15
954.66	211.25
954.95	211.38
955.25	211.36
955.55	211.36
955.84	211.26
956.14	211.25
956.44	211.31
956.73	211.24
957.03	211.27
957.32	211.18
957.62	211.07
957.92	211.10
958.21	211.03
958.51	211.52
958.81	211.60
959.10	211.65
959.40	211.73
959.69	211.85
959.99	211.87
960.29	211.85
960.58	211.85
960.88	211.91
961.17	211.82
961.47	211.86
961.76	211.80
962.06	211.99
962.36	211.94
962.65	211.92
962.95	211.92
963.24	211.87
963.54	211.85
963.83	211.90
964.13	211.88
964.42	211.78
964.72	211.38
965.01	211.33
965.31	211.27
965.60	211.11
965.90	211.24
966.19	211.11
966.49	211.19
966.78	211.15
967.08	211.15
967.37	211.19
967.67	211.10
967.96	211.15
968.26	211.08
968.55	211.18
968.85	211.15
969.14	211.18
969.43	211.19
969.73	211.24
970.02	211.31
970.32	211.22
970.61	211.25
970.91	211.17
971.20	211.12
971.49	211.13
971.79	211.20
972.08	210.96
972.38	211.02
972.67	210.94
972.96	211.02
973.26	210.92
973.55	210.93
973.85	210.94
974.14	210.91
974.43	210.90
974.73	210.84
975.02	210.87
975.31	210.81
975.61	210.83
975.90	210.83
976.19	210.81
976.49	210.92
976.78	210.93
977.07	211.02
977.37	211.09
977.66	211.11
977.95	211.14
978.24	211.16
978.54	211.25
978.83	211.23
979.12	211.19
979.42	211.13
979.71	211.14
980.00	211.12
980.29	211.16
980.59	211.07
980.88	211.10
981.17	211.09
981.46	211.15
981.76	211.13
982.05	211.24
982.34	211.16
982.63	211.16
982.93	211.17
983.22	211.15
983.51	211.13
983.80	211.17
984.09	211.13
984.39	211.13
984.68	211.01
984.97	211.10
985.26	211.06
985.55	211.09
985.85	211.04
986.14	211.20
986.43	211.25
986.72	211.27
987.01	211.15
987.30	211.10
987.59	211.08
987.89	211.09
988.18	210.91
988.47	210.94
988.76	210.89
989.05	210.88
989.34	210.84
989.63	210.92
989.92	210.86
990.22	210.81
990.51	210.86
990.80	210.90
991.09	210.87
991.38	210.95
991.67	210.95
991.96	210.95
992.25	210.82
992.54	210.75
992.83	210.76
993.12	210.80
993.41	210.83
993.70	210.99
993.99	211.06
994.28	211.11
994.58	211.17
994.87	211.08
995.16	211.05
995.45	211.08
995.74	210.92
996.03	210.95
996.32	211.05
996.61	211.07
996.90	211.09
997.19	211.10
997.48	211.08
997.77	211.01
998.06	211.07
998.34	211.11
998.63	211.12
998.92	211.07
999.21	211.06
999.50	211.08
999.79	210.95
1000.08	210.87
1000.37	210.93
1000.66	210.84
1000.95	211.00
1001.24	211.04
1001.53	211.06
1001.82	211.04
1002.11	211.02
1002.40	211.07
1002.68	211.15
1002.97	211.36
1003.26	211.30
1003.55	211.30
1003.84	211.32
1004.13	211.39
1004.42	211.33
1004.71	211.31
1004.99	211.32
1005.28	211.42
1005.57	211.40
1005.86	211.35
1006.15	211.35
1006.44	211.30
1006.72	211.33
1007.01	211.24
1007.30	211.24
1007.59	211.23
1007.88	211.24
1008.17	211.26
1008.45	211.10
1008.74	210.87
1009.03	210.70
1009.32	210.71
1009.60	210.65
1009.89	210.63
1010.18	210.43
1010.47	210.47
1010.76	210.51
1011.04	210.53
1011.33	210.46
1011.62	210.49
1011.91	210.55
1012.19	210.54
1012.48	210.54
1012.77	210.56
1013.05	210.78
1013.34	210.81
1013.63	210.76
1013.92	210.81
1014.20	210.75
1014.49	210.80
1014.78	210.81
1015.06	210.76
1015.35	210.80
1015.64	210.84
1015.92	210.91
1016.21	210.96
1016.50	210.93
1016.78	210.87
1017.07	210.94
1017.36	210.91
1017.64	210.92
1017.93	210.90
1018.22	210.94
1018.50	210.88
1018.79	210.88
1019.08	210.69
1019.36	210.71
1019.65	210.71
1019.93	210.77
1020.22	210.79
1020.51	211.00
1020.79	211.03
1021.08	211.20
1021.36	209.55
1021.65	211.05
1021.94	210.85
1022.22	212.00
1022.51	210.80
1022.79	211.80
1023.08	210.60
1023.36	215.40
1023.65	209.90
>>>>>End Processed Spectral Data<<<<<
