SpectraSuite Data File
++++++++++++++++++++++++++++++++++++
Date: Mon Feb 25 17:07:18 EST 2013
User: group
Dark Spectrum Present: No
Reference Spectrum Present: No
Number of Sampled Component Spectra: 1
Spectrometers: USB2E7196
Integration Time (usec): 104000 (USB2E7196)
Spectra Averaged: 20 (USB2E7196)
Boxcar Smoothing: 10 (USB2E7196)
Correct for Electrical Dark: No (USB2E7196)
Strobe/Lamp Enabled: No (USB2E7196)
Correct for Detector Non-linearity: No (USB2E7196)
Correct for Stray Light: No (USB2E7196)
Number of Pixels in Processed Spectrum: 2048
>>>>>Begin Processed Spectral Data<<<<<
339.09	0.00
339.48	197.65
339.86	199.65
340.24	199.75
340.63	201.85
341.01	208.35
341.39	205.80
341.78	207.35
342.16	208.05
342.54	208.75
342.93	197.95
343.31	207.92
343.69	208.51
344.07	208.99
344.46	209.55
344.84	209.95
345.22	210.04
345.60	210.25
345.99	210.39
346.37	210.52
346.75	210.60
347.13	210.64
347.52	210.73
347.90	210.89
348.28	210.92
348.66	211.03
349.05	210.94
349.43	210.95
349.81	211.02
350.19	211.05
350.57	211.10
350.96	211.14
351.34	211.25
351.72	211.30
352.10	211.39
352.48	211.42
352.87	211.51
353.25	211.57
353.63	211.64
354.01	211.70
354.39	211.84
354.77	211.96
355.15	212.12
355.54	212.11
355.92	212.12
356.30	212.15
356.68	212.42
357.06	212.50
357.44	212.54
357.82	212.48
358.20	212.61
358.58	212.69
358.97	212.82
359.35	212.94
359.73	213.09
360.11	213.13
360.49	213.18
360.87	213.20
361.25	213.30
361.63	213.49
362.01	213.60
362.39	213.58
362.77	213.62
363.15	213.60
363.53	213.63
363.91	213.61
364.29	213.62
364.67	213.23
365.05	213.31
365.43	213.39
365.81	213.52
366.19	213.60
366.57	213.71
366.95	213.66
367.33	213.60
367.71	213.55
368.09	213.62
368.47	213.60
368.85	213.57
369.23	213.60
369.61	213.44
369.99	213.41
370.37	213.45
370.75	213.52
371.13	213.43
371.51	213.37
371.89	213.41
372.27	213.41
372.65	213.47
373.03	213.39
373.41	213.29
373.78	213.22
374.16	213.05
374.54	212.90
374.92	212.84
375.30	212.76
375.68	212.64
376.06	212.55
376.44	212.41
376.82	212.44
377.19	212.38
377.57	212.30
377.95	212.15
378.33	212.05
378.71	211.83
379.09	211.88
379.47	211.88
379.84	211.77
380.22	211.65
380.60	211.53
380.98	211.43
381.36	211.36
381.73	211.19
382.11	211.15
382.49	211.12
382.87	210.98
383.25	210.97
383.62	211.36
384.00	211.23
384.38	211.23
384.76	211.21
385.13	211.35
385.51	211.28
385.89	211.23
386.27	211.20
386.64	211.17
387.02	210.97
387.40	210.85
387.78	210.81
388.15	210.82
388.53	210.77
388.91	210.77
389.29	210.73
389.66	210.79
390.04	210.73
390.42	210.73
390.79	210.79
391.17	210.76
391.55	210.32
391.92	210.32
392.30	210.34
392.68	210.25
393.05	210.07
393.43	210.10
393.81	210.10
394.18	209.96
394.56	209.92
394.94	210.10
395.31	210.15
395.69	210.24
396.06	210.26
396.44	210.28
396.82	210.23
397.19	210.41
397.57	210.36
397.95	210.49
398.32	210.36
398.70	210.36
399.07	210.48
399.45	210.49
399.82	210.59
400.20	210.58
400.58	210.60
400.95	210.54
401.33	210.61
401.70	211.00
402.08	211.10
402.45	211.16
402.83	211.22
403.20	211.31
403.58	211.25
403.95	211.35
404.33	211.49
404.71	211.62
405.08	211.87
405.46	211.99
405.83	212.00
406.21	212.13
406.58	212.22
406.96	212.26
407.33	212.46
407.70	212.53
408.08	212.94
408.45	213.14
408.83	213.43
409.20	213.60
409.58	213.48
409.95	213.77
410.33	214.01
410.70	214.17
411.08	214.44
411.45	214.76
411.82	215.04
412.20	215.44
412.57	215.93
412.95	216.00
413.32	216.36
413.69	216.74
414.07	217.21
414.44	217.73
414.82	218.18
415.19	218.71
415.56	219.31
415.94	219.73
416.31	220.42
416.68	221.03
417.06	221.80
417.43	222.68
417.81	223.46
418.18	224.38
418.55	225.31
418.93	226.28
419.30	227.28
419.67	228.40
420.04	229.46
420.42	230.57
420.79	232.18
421.16	233.59
421.54	235.21
421.91	236.61
422.28	238.16
422.66	239.84
423.03	241.67
423.40	243.33
423.77	245.13
424.15	246.89
424.52	248.75
424.89	250.83
425.26	252.80
425.64	254.67
426.01	256.75
426.38	258.89
426.75	261.18
427.13	263.57
427.50	265.95
427.87	268.48
428.24	270.92
428.61	273.07
428.99	275.85
429.36	278.51
429.73	281.39
430.10	284.25
430.47	287.07
430.85	289.89
431.22	293.04
431.59	296.60
431.96	299.91
432.33	303.48
432.70	306.98
433.08	310.91
433.45	314.89
433.82	318.80
434.19	323.09
434.56	327.30
434.93	331.07
435.30	335.05
435.68	339.45
436.05	343.86
436.42	348.12
436.79	352.13
437.16	356.48
437.53	361.08
437.90	365.46
438.27	370.07
438.64	374.69
439.01	379.10
439.38	382.84
439.75	386.56
440.13	390.90
440.50	394.82
440.87	398.19
441.24	401.51
441.61	405.28
441.98	408.11
442.35	411.35
442.72	414.91
443.09	418.17
443.46	420.21
443.83	421.50
444.20	422.91
444.57	424.68
444.94	425.57
445.31	426.55
445.68	428.00
446.05	428.50
446.42	428.34
446.79	428.07
447.16	427.57
447.53	427.35
447.90	425.88
448.27	424.38
448.64	422.25
449.01	420.83
449.37	417.91
449.74	415.20
450.11	412.17
450.48	408.50
450.85	404.77
451.22	401.57
451.59	398.82
451.96	395.93
452.33	391.99
452.70	388.52
453.07	384.18
453.43	379.33
453.80	375.20
454.17	371.11
454.54	367.22
454.91	363.18
455.28	359.13
455.65	355.27
456.02	352.09
456.38	348.94
456.75	344.96
457.12	341.74
457.49	338.49
457.86	334.98
458.23	332.33
458.59	329.38
458.96	326.40
459.33	323.59
459.70	320.91
460.07	318.66
460.43	316.17
460.80	314.03
461.17	312.26
461.54	310.08
461.91	308.03
462.27	305.95
462.64	304.18
463.01	302.29
463.38	300.62
463.74	298.30
464.11	296.66
464.48	295.19
464.85	293.56
465.21	292.42
465.58	291.18
465.95	289.54
466.32	288.29
466.68	287.03
467.05	285.77
467.42	284.44
467.78	283.15
468.15	281.89
468.52	280.89
468.88	279.48
469.25	278.29
469.62	277.46
469.98	276.44
470.35	275.64
470.72	274.83
471.08	273.80
471.45	273.00
471.82	272.21
472.18	271.41
472.55	270.84
472.92	270.00
473.28	269.27
473.65	268.65
474.02	267.99
474.38	267.47
474.75	267.10
475.11	266.57
475.48	266.21
475.85	265.81
476.21	265.36
476.58	265.18
476.94	264.94
477.31	264.65
477.67	264.42
478.04	264.09
478.41	263.84
478.77	264.03
479.14	263.82
479.50	263.72
479.87	263.63
480.23	263.50
480.60	263.36
480.96	263.35
481.33	263.52
481.69	263.55
482.06	263.57
482.42	263.56
482.79	263.79
483.15	263.83
483.52	264.09
483.88	264.29
484.25	264.30
484.61	264.48
484.98	264.57
485.34	264.97
485.71	265.33
486.07	265.69
486.44	265.69
486.80	266.04
487.17	266.40
487.53	266.89
487.90	267.46
488.26	268.25
488.62	268.90
488.99	269.31
489.35	269.98
489.72	270.60
490.08	271.27
490.44	271.82
490.81	272.64
491.17	273.37
491.54	274.20
491.90	275.09
492.26	276.03
492.63	277.00
492.99	277.86
493.36	278.87
493.72	280.00
494.08	281.08
494.45	282.23
494.81	283.51
495.17	284.66
495.54	285.85
495.90	286.97
496.26	288.27
496.63	289.68
496.99	290.94
497.35	292.37
497.72	293.84
498.08	295.34
498.44	296.80
498.80	298.40
499.17	299.97
499.53	301.56
499.89	303.26
500.26	304.87
500.62	306.55
500.98	308.29
501.34	309.90
501.71	311.74
502.07	313.45
502.43	315.07
502.79	316.79
503.16	318.65
503.52	320.46
503.88	322.18
504.24	324.08
504.60	326.10
504.97	328.08
505.33	329.99
505.69	332.20
506.05	334.24
506.41	336.27
506.78	338.22
507.14	340.19
507.50	342.22
507.86	344.36
508.22	346.49
508.59	348.53
508.95	350.77
509.31	353.06
509.67	355.33
510.03	357.57
510.39	359.90
510.75	362.06
511.12	364.34
511.48	366.61
511.84	368.83
512.20	371.07
512.56	373.40
512.92	375.79
513.28	377.99
513.64	380.38
514.00	382.60
514.37	385.01
514.73	387.52
515.09	389.99
515.45	392.41
515.81	394.87
516.17	397.38
516.53	399.75
516.89	401.97
517.25	404.51
517.61	407.06
517.97	409.52
518.33	412.10
518.69	414.69
519.05	417.36
519.41	420.05
519.77	422.90
520.13	425.49
520.49	428.03
520.85	430.62
521.21	433.46
521.57	436.32
521.93	438.97
522.29	441.88
522.65	444.59
523.01	447.41
523.37	450.06
523.73	453.00
524.09	456.01
524.45	459.06
524.81	462.04
525.17	465.17
525.53	468.20
525.89	471.40
526.25	474.59
526.61	477.67
526.97	480.82
527.33	483.94
527.68	487.48
528.04	490.83
528.40	494.07
528.76	497.42
529.12	500.80
529.48	504.42
529.84	507.65
530.20	511.16
530.56	514.89
530.91	518.73
531.27	522.30
531.63	525.89
531.99	529.45
532.35	532.89
532.71	536.34
533.07	540.15
533.42	544.07
533.78	547.55
534.14	551.21
534.50	554.69
534.86	558.39
535.21	561.62
535.57	565.42
535.93	569.04
536.29	572.64
536.65	576.24
537.00	579.55
537.36	583.18
537.72	586.60
538.08	589.94
538.44	593.28
538.79	596.62
539.15	599.95
539.51	603.46
539.87	607.17
540.22	610.81
540.58	614.28
540.94	617.48
541.29	620.97
541.65	624.23
542.01	627.77
542.37	631.08
542.72	634.39
543.08	637.55
543.44	641.05
543.79	643.94
544.15	647.13
544.51	650.72
544.87	654.07
545.22	657.40
545.58	660.59
545.94	663.66
546.29	666.71
546.65	669.63
547.01	672.36
547.36	675.23
547.72	677.99
548.07	680.72
548.43	683.33
548.79	686.00
549.14	688.70
549.50	691.27
549.86	693.59
550.21	696.24
550.57	698.70
550.92	700.89
551.28	703.45
551.64	705.71
551.99	707.90
552.35	709.96
552.70	712.04
553.06	714.15
553.41	716.27
553.77	718.47
554.13	720.51
554.48	722.76
554.84	724.73
555.19	726.65
555.55	728.62
555.90	730.38
556.26	732.10
556.61	733.73
556.97	735.24
557.32	737.02
557.68	738.52
558.03	739.89
558.39	741.42
558.74	743.09
559.10	744.55
559.45	745.81
559.81	747.32
560.16	748.67
560.52	750.09
560.87	751.57
561.23	752.50
561.58	754.20
561.94	755.30
562.29	756.43
562.64	757.57
563.00	758.55
563.35	759.70
563.71	760.92
564.06	762.32
564.42	763.49
564.77	764.53
565.12	765.75
565.48	767.23
565.83	768.38
566.19	769.28
566.54	770.12
566.89	771.06
567.25	771.99
567.60	772.95
567.96	773.78
568.31	774.53
568.66	775.38
569.02	775.60
569.37	775.99
569.72	776.36
570.08	776.49
570.43	776.82
570.78	776.92
571.14	776.85
571.49	776.58
571.84	776.51
572.20	776.34
572.55	776.14
572.90	775.50
573.26	774.94
573.61	774.61
573.96	774.37
574.31	773.71
574.67	773.00
575.02	772.20
575.37	771.30
575.72	770.23
576.08	769.48
576.43	768.54
576.78	767.78
577.13	767.04
577.49	766.44
577.84	765.67
578.19	765.21
578.54	764.70
578.90	764.30
579.25	763.53
579.60	762.71
579.95	761.70
580.30	760.96
580.66	760.53
581.01	759.51
581.36	758.58
581.71	757.77
582.06	756.96
582.42	756.18
582.77	755.01
583.12	754.29
583.47	753.71
583.82	752.95
584.17	752.30
584.53	751.64
584.88	750.78
585.23	749.92
585.58	748.89
585.93	747.76
586.28	746.85
586.63	745.96
586.98	745.03
587.34	744.43
587.69	743.46
588.04	742.20
588.39	741.21
588.74	739.98
589.09	739.16
589.44	738.01
589.79	736.88
590.14	736.09
590.49	734.94
590.84	733.57
591.19	732.81
591.54	731.50
591.89	729.95
592.25	728.87
592.60	727.41
592.95	725.89
593.30	724.41
593.65	722.75
594.00	721.26
594.35	720.99
594.70	719.40
595.05	718.06
595.40	716.69
595.75	715.08
596.10	713.92
596.45	712.59
596.80	711.32
597.15	710.16
597.50	708.70
597.85	707.44
598.19	706.09
598.54	704.65
598.89	703.33
599.24	702.35
599.59	700.98
599.94	699.90
600.29	698.77
600.64	697.49
600.99	696.11
601.34	695.01
601.69	692.52
602.04	691.03
602.39	689.57
602.74	688.46
603.08	687.50
603.43	686.40
603.78	685.09
604.13	683.81
604.48	682.55
604.83	681.66
605.18	680.62
605.53	679.26
605.87	677.70
606.22	676.45
606.57	675.01
606.92	673.51
607.27	672.00
607.62	670.64
607.96	669.66
608.31	668.55
608.66	666.95
609.01	665.68
609.36	664.30
609.70	662.80
610.05	661.06
610.40	659.46
610.75	657.70
611.10	656.12
611.44	654.19
611.79	652.22
612.14	650.26
612.49	647.95
612.83	646.14
613.18	644.25
613.53	642.27
613.88	640.23
614.22	638.19
614.57	636.19
614.92	634.18
615.27	632.04
615.61	629.99
615.96	628.05
616.31	626.16
616.65	624.32
617.00	622.42
617.35	620.50
617.70	618.33
618.04	616.25
618.39	614.00
618.74	612.20
619.08	610.11
619.43	607.93
619.78	606.17
620.12	604.24
620.47	602.20
620.82	600.10
621.16	597.90
621.51	596.09
621.85	594.10
622.20	592.02
622.55	589.80
622.89	587.53
623.24	585.58
623.59	583.31
623.93	581.22
624.28	579.28
624.62	577.46
624.97	575.59
625.32	573.45
625.66	571.51
626.01	569.43
626.35	567.57
626.70	565.64
627.04	563.78
627.39	561.73
627.73	559.87
628.08	558.02
628.43	556.05
628.77	554.01
629.12	551.95
629.46	550.10
629.81	548.24
630.15	546.38
630.50	544.26
630.84	542.39
631.19	540.39
631.53	538.46
631.88	536.03
632.22	533.83
632.57	532.04
632.91	530.04
633.26	528.03
633.60	525.92
633.95	524.12
634.29	522.11
634.64	520.27
634.98	518.29
635.32	516.36
635.67	514.65
636.01	512.72
636.36	510.93
636.70	509.02
637.05	507.11
637.39	505.29
637.73	503.59
638.08	502.00
638.42	500.24
638.77	498.45
639.11	496.77
639.45	495.04
639.80	492.96
640.14	491.04
640.49	489.16
640.83	487.35
641.17	485.33
641.52	483.30
641.86	481.40
642.20	479.58
642.55	477.46
642.89	475.41
643.23	473.57
643.58	471.85
643.92	469.89
644.26	467.99
644.61	466.18
644.95	464.24
645.29	462.21
645.64	460.24
645.98	458.27
646.32	456.53
646.66	454.63
647.01	452.83
647.35	451.04
647.69	449.20
648.04	447.49
648.38	445.80
648.72	444.06
649.06	442.18
649.41	440.36
649.75	438.73
650.09	437.04
650.43	435.30
650.78	433.28
651.12	431.48
651.46	429.73
651.80	427.96
652.14	426.14
652.49	424.48
652.83	422.74
653.17	420.83
653.51	418.90
653.85	417.28
654.20	415.67
654.54	413.92
654.88	412.11
655.22	410.32
655.56	408.46
655.90	406.65
656.25	404.87
656.59	403.13
656.93	401.36
657.27	399.77
657.61	397.88
657.95	396.32
658.29	394.72
658.64	393.12
658.98	391.40
659.32	389.73
659.66	387.87
660.00	386.29
660.34	384.73
660.68	383.11
661.02	381.43
661.36	379.79
661.70	378.21
662.05	376.78
662.39	375.34
662.73	374.03
663.07	372.75
663.41	371.33
663.75	369.76
664.09	368.31
664.43	366.72
664.77	365.34
665.11	363.79
665.45	362.41
665.79	361.05
666.13	359.63
666.47	358.23
666.81	356.91
667.15	355.39
667.49	354.18
667.83	353.07
668.17	351.74
668.51	350.49
668.85	349.30
669.19	348.08
669.53	346.80
669.87	345.43
670.21	344.09
670.55	342.85
670.89	341.92
671.23	340.82
671.57	339.67
671.91	338.50
672.25	337.32
672.58	336.20
672.92	334.95
673.26	333.92
673.60	332.90
673.94	331.88
674.28	330.89
674.62	329.87
674.96	328.66
675.30	327.64
675.64	326.52
675.97	325.40
676.31	324.39
676.65	323.35
676.99	322.43
677.33	321.36
677.67	320.46
678.01	319.22
678.34	318.27
678.68	317.25
679.02	316.19
679.36	315.26
679.70	314.21
680.04	313.28
680.37	312.27
680.71	311.29
681.05	310.31
681.39	309.49
681.73	308.54
682.06	307.74
682.40	306.90
682.74	306.04
683.08	305.32
683.42	304.24
683.75	303.43
684.09	302.40
684.43	301.47
684.77	300.41
685.10	299.58
685.44	298.65
685.78	297.77
686.12	296.98
686.45	296.16
686.79	295.26
687.13	294.49
687.46	293.59
687.80	292.85
688.14	292.05
688.48	291.17
688.81	290.21
689.15	289.40
689.49	288.42
689.82	287.65
690.16	286.72
690.50	285.99
690.83	285.07
691.17	284.28
691.51	283.56
691.84	282.94
692.18	282.16
692.52	281.40
692.85	280.78
693.19	280.18
693.52	279.41
693.86	278.72
694.20	277.99
694.53	277.36
694.87	276.58
695.21	275.75
695.54	275.02
695.88	274.31
696.21	273.47
696.55	272.94
696.88	272.21
697.22	271.38
697.56	270.82
697.89	270.14
698.23	269.59
698.56	269.02
698.90	268.36
699.23	267.88
699.57	267.26
699.90	266.60
700.24	265.89
700.58	265.36
700.91	264.83
701.25	264.51
701.58	264.01
701.92	263.48
702.25	262.96
702.59	262.45
702.92	262.04
703.26	261.59
703.59	261.02
703.93	260.82
704.26	260.44
704.60	259.89
704.93	259.45
705.26	258.85
705.60	258.35
705.93	257.80
706.27	257.24
706.60	256.84
706.94	256.48
707.27	255.97
707.61	255.49
707.94	255.01
708.27	254.27
708.61	253.68
708.94	253.29
709.28	252.84
709.61	252.34
709.94	251.81
710.28	251.34
710.61	251.01
710.95	250.25
711.28	250.03
711.61	249.71
711.95	249.39
712.28	249.02
712.61	248.58
712.95	248.41
713.28	248.25
713.61	247.74
713.95	247.18
714.28	246.86
714.61	246.43
714.95	245.95
715.28	245.57
715.61	245.20
715.95	244.83
716.28	244.47
716.61	244.15
716.95	243.79
717.28	243.45
717.61	243.06
717.94	242.77
718.28	242.25
718.61	241.82
718.94	241.39
719.27	241.09
719.61	240.84
719.94	240.35
720.27	239.79
720.60	239.54
720.94	239.25
721.27	238.97
721.60	238.77
721.93	238.50
722.27	238.35
722.60	238.16
722.93	237.89
723.26	237.65
723.59	237.37
723.93	237.09
724.26	236.84
724.59	236.49
724.92	236.28
725.25	236.14
725.59	235.90
725.92	235.77
726.25	235.49
726.58	235.17
726.91	234.90
727.24	234.65
727.57	234.34
727.91	234.02
728.24	233.85
728.57	233.50
728.90	233.38
729.23	233.02
729.56	232.97
729.89	232.75
730.22	232.51
730.55	232.31
730.89	232.14
731.22	231.95
731.55	231.75
731.88	231.51
732.21	231.23
732.54	230.97
732.87	230.68
733.20	230.50
733.53	230.39
733.86	230.34
734.19	230.17
734.52	230.05
734.85	230.21
735.18	229.95
735.51	229.94
735.84	229.78
736.17	229.70
736.50	229.24
736.83	229.42
737.16	229.21
737.49	229.01
737.82	228.79
738.15	228.65
738.48	228.48
738.81	228.28
739.14	228.00
739.47	227.82
739.80	227.62
740.13	227.41
740.46	227.18
740.79	226.90
741.12	226.75
741.45	226.62
741.78	226.28
742.11	226.25
742.44	225.95
742.77	225.83
743.10	225.68
743.43	225.56
743.75	225.05
744.08	225.39
744.41	225.20
744.74	225.08
745.07	224.94
745.40	224.92
745.73	225.00
746.06	224.99
746.39	224.94
746.71	224.79
747.04	224.64
747.37	224.50
747.70	224.45
748.03	224.33
748.36	224.17
748.68	223.97
749.01	223.76
749.34	223.69
749.67	223.54
750.00	223.47
750.33	223.69
750.65	223.59
750.98	223.10
751.31	223.05
751.64	222.93
751.97	222.93
752.29	222.86
752.62	222.61
752.95	222.46
753.28	222.29
753.60	222.21
753.93	222.20
754.26	222.12
754.59	221.88
754.91	221.74
755.24	221.70
755.57	221.65
755.90	221.47
756.22	221.37
756.55	221.22
756.88	220.92
757.20	220.46
757.53	220.29
757.86	220.12
758.19	219.95
758.51	219.90
758.84	219.65
759.17	219.43
759.49	219.28
759.82	219.32
760.15	219.27
760.47	219.11
760.80	218.86
761.13	218.83
761.45	218.75
761.78	218.75
762.11	218.64
762.43	218.50
762.76	218.44
763.08	218.38
763.41	218.29
763.74	218.30
764.06	218.24
764.39	218.14
764.71	218.04
765.04	217.92
765.37	217.78
765.69	217.66
766.02	217.62
766.34	217.55
766.67	217.32
767.00	217.34
767.32	217.52
767.65	217.68
767.97	217.56
768.30	217.53
768.62	217.38
768.95	217.28
769.27	217.24
769.60	217.30
769.92	217.14
770.25	217.04
770.57	216.85
770.90	216.73
771.22	216.66
771.55	216.65
771.87	216.73
772.20	216.69
772.52	216.94
772.85	217.28
773.17	217.25
773.50	217.17
773.82	217.03
774.15	216.84
774.47	216.58
774.80	216.52
775.12	216.40
775.45	216.40
775.77	216.33
776.09	216.29
776.42	216.13
776.74	216.22
777.07	216.15
777.39	216.20
777.72	216.21
778.04	216.26
778.36	216.16
778.69	216.00
779.01	215.99
779.33	215.68
779.66	215.19
779.98	215.03
780.31	215.00
780.63	215.13
780.95	215.07
781.28	215.03
781.60	214.94
781.92	214.91
782.25	214.86
782.57	214.80
782.89	214.69
783.22	214.71
783.54	214.62
783.86	214.69
784.19	214.60
784.51	214.64
784.83	214.60
785.16	214.57
785.48	214.65
785.80	214.57
786.12	214.44
786.45	214.44
786.77	214.43
787.09	214.43
787.42	214.18
787.74	214.23
788.06	214.22
788.38	214.25
788.71	214.19
789.03	214.22
789.35	214.25
789.67	214.22
789.99	214.13
790.32	214.06
790.64	213.97
790.96	214.29
791.28	214.11
791.61	213.98
791.93	213.98
792.25	213.94
792.57	214.19
792.89	214.19
793.21	214.20
793.54	214.22
793.86	214.19
794.18	214.20
794.50	214.00
794.82	213.98
795.14	213.97
795.47	214.02
795.79	213.87
796.11	213.75
796.43	213.75
796.75	213.67
797.07	213.63
797.39	213.66
797.71	213.27
798.04	213.29
798.36	213.31
798.68	213.31
799.00	213.28
799.32	213.09
799.64	213.20
799.96	213.16
800.28	213.20
800.60	213.14
800.92	213.19
801.24	213.19
801.56	213.23
801.89	213.15
802.21	213.13
802.53	213.15
802.85	213.20
803.17	213.34
803.49	213.37
803.81	213.35
804.13	213.25
804.45	213.31
804.77	213.40
805.09	213.45
805.41	213.40
805.73	213.28
806.05	213.18
806.37	213.08
806.69	213.08
807.01	212.98
807.33	213.02
807.65	212.85
807.97	213.09
808.28	213.10
808.60	213.13
808.92	213.17
809.24	213.36
809.56	213.35
809.88	213.22
810.20	213.19
810.52	213.24
810.84	213.23
811.16	213.16
811.48	213.12
811.80	213.15
812.12	213.18
812.43	213.30
812.75	213.25
813.07	213.22
813.39	213.27
813.71	213.22
814.03	213.14
814.35	213.16
814.67	212.97
814.98	212.88
815.30	212.91
815.62	212.85
815.94	212.62
816.26	212.61
816.58	212.55
816.89	212.64
817.21	212.57
817.53	212.64
817.85	212.70
818.17	212.62
818.48	212.50
818.80	212.57
819.12	212.51
819.44	212.51
819.76	212.48
820.07	212.42
820.39	212.42
820.71	212.51
821.03	212.55
821.34	212.56
821.66	212.61
821.98	212.55
822.30	212.50
822.61	212.73
822.93	212.76
823.25	212.73
823.57	212.65
823.88	212.80
824.20	212.72
824.52	212.73
824.83	212.73
825.15	212.75
825.47	212.66
825.79	212.69
826.10	212.68
826.42	212.69
826.74	212.75
827.05	212.79
827.37	212.76
827.69	212.75
828.00	212.62
828.32	212.60
828.64	212.64
828.95	212.80
829.27	212.69
829.58	212.61
829.90	212.72
830.22	212.74
830.53	212.52
830.85	212.51
831.17	212.39
831.48	212.41
831.80	212.42
832.11	212.35
832.43	212.29
832.75	212.29
833.06	212.47
833.38	212.31
833.69	212.27
834.01	212.33
834.32	212.33
834.64	212.39
834.96	212.39
835.27	212.37
835.59	212.28
835.90	212.20
836.22	212.25
836.53	212.17
836.85	212.11
837.16	212.45
837.48	212.42
837.79	212.53
838.11	212.49
838.42	212.38
838.74	212.42
839.05	212.41
839.37	212.32
839.68	212.07
840.00	211.98
840.31	211.96
840.63	211.87
840.94	211.85
841.26	211.78
841.57	211.77
841.88	211.76
842.20	211.67
842.51	211.63
842.83	211.54
843.14	211.84
843.46	211.80
843.77	211.66
844.08	211.67
844.40	211.59
844.71	211.55
845.03	211.52
845.34	211.53
845.65	211.43
845.97	211.44
846.28	211.51
846.60	211.65
846.91	211.64
847.22	211.64
847.54	211.62
847.85	211.66
848.16	211.63
848.48	211.50
848.79	211.62
849.10	211.64
849.42	211.67
849.73	211.34
850.04	211.31
850.36	211.18
850.67	211.20
850.98	211.16
851.30	211.22
851.61	211.25
851.92	211.22
852.23	211.36
852.55	211.39
852.86	211.35
853.17	211.29
853.49	211.37
853.80	211.40
854.11	211.44
854.42	211.48
854.74	211.40
855.05	211.47
855.36	211.28
855.67	211.28
855.99	211.23
856.30	211.64
856.61	211.70
856.92	211.67
857.23	211.71
857.55	211.75
857.86	211.73
858.17	211.75
858.48	211.68
858.79	211.62
859.11	211.67
859.42	211.60
859.73	211.65
860.04	211.62
860.35	211.52
860.66	211.44
860.98	211.35
861.29	211.42
861.60	211.32
861.91	211.40
862.22	211.37
862.53	211.31
862.84	210.91
863.16	210.96
863.47	210.94
863.78	210.90
864.09	210.89
864.40	210.90
864.71	210.95
865.02	211.01
865.33	210.97
865.64	210.90
865.95	210.93
866.27	211.08
866.58	211.06
866.89	211.13
867.20	211.09
867.51	211.12
867.82	211.06
868.13	211.23
868.44	211.21
868.75	211.26
869.06	211.32
869.37	211.34
869.68	211.25
869.99	211.30
870.30	211.33
870.61	211.33
870.92	211.32
871.23	211.26
871.54	211.33
871.85	211.40
872.16	211.39
872.47	211.40
872.78	211.16
873.09	211.19
873.40	211.12
873.71	211.22
874.02	211.27
874.33	211.32
874.64	211.21
874.95	211.28
875.26	211.23
875.56	211.19
875.87	211.15
876.18	211.11
876.49	211.43
876.80	211.34
877.11	211.26
877.42	211.29
877.73	211.33
878.04	211.21
878.35	211.17
878.66	211.22
878.96	211.19
879.27	211.28
879.58	211.27
879.89	211.22
880.20	211.26
880.51	211.25
880.82	211.21
881.12	211.18
881.43	211.01
881.74	211.01
882.05	210.95
882.36	211.07
882.67	211.13
882.97	210.80
883.28	210.84
883.59	210.84
883.90	210.89
884.21	210.91
884.51	210.90
884.82	210.84
885.13	210.82
885.44	210.79
885.74	210.71
886.05	210.63
886.36	210.63
886.67	210.51
886.98	210.69
887.28	210.73
887.59	210.80
887.90	210.92
888.20	210.87
888.51	210.99
888.82	210.86
889.13	210.86
889.43	211.05
889.74	211.05
890.05	211.03
890.35	210.94
890.66	210.91
890.97	210.92
891.28	210.93
891.58	210.93
891.89	211.00
892.20	210.96
892.50	210.97
892.81	210.97
893.12	211.00
893.42	210.80
893.73	210.82
894.04	210.78
894.34	210.79
894.65	210.75
894.95	210.73
895.26	210.71
895.57	210.85
895.87	210.54
896.18	210.57
896.48	210.63
896.79	210.63
897.10	210.61
897.40	210.64
897.71	210.73
898.01	210.70
898.32	210.71
898.63	210.74
898.93	210.82
899.24	210.87
899.54	210.82
899.85	210.79
900.15	210.79
900.46	210.84
900.76	210.88
901.07	210.93
901.38	210.92
901.68	211.01
901.99	210.89
902.29	210.92
902.60	210.92
902.90	210.85
903.21	210.85
903.51	210.82
903.82	210.85
904.12	210.84
904.43	210.86
904.73	210.84
905.03	210.88
905.34	211.16
905.64	211.15
905.95	211.15
906.25	211.19
906.56	211.19
906.86	211.17
907.17	211.13
907.47	211.17
907.77	211.14
908.08	211.08
908.38	211.13
908.69	211.11
908.99	211.20
909.30	211.28
909.60	211.31
909.90	211.35
910.21	211.31
910.51	211.26
910.81	211.27
911.12	211.30
911.42	211.31
911.73	210.95
912.03	211.04
912.33	211.10
912.64	211.08
912.94	211.02
913.24	210.98
913.55	210.97
913.85	210.95
914.15	211.06
914.46	211.15
914.76	211.09
915.06	211.17
915.37	211.13
915.67	211.18
915.97	211.17
916.27	211.15
916.58	211.09
916.88	211.03
917.18	211.08
917.49	211.30
917.79	211.29
918.09	211.36
918.39	211.40
918.70	211.44
919.00	211.42
919.30	211.64
919.60	211.62
919.91	211.60
920.21	211.62
920.51	211.53
920.81	211.46
921.12	211.52
921.42	211.50
921.72	211.47
922.02	211.47
922.32	211.56
922.63	211.50
922.93	211.77
923.23	211.86
923.53	211.81
923.83	211.60
924.13	211.67
924.44	211.67
924.74	211.74
925.04	211.78
925.34	211.84
925.64	211.71
925.94	211.69
926.24	211.85
926.55	211.75
926.85	211.76
927.15	211.77
927.45	211.77
927.75	211.74
928.05	211.80
928.35	211.82
928.65	211.84
928.95	211.95
929.26	211.81
929.56	211.90
929.86	211.95
930.16	211.88
930.46	211.85
930.76	211.89
931.06	211.72
931.36	211.63
931.66	211.60
931.96	211.56
932.26	211.58
932.56	211.44
932.86	211.50
933.16	211.49
933.46	211.47
933.76	211.47
934.06	211.61
934.36	211.63
934.66	211.55
934.96	211.56
935.26	211.50
935.56	211.45
935.86	211.36
936.16	211.29
936.46	211.34
936.76	211.24
937.06	211.20
937.36	211.20
937.66	211.25
937.96	211.19
938.26	211.22
938.56	211.19
938.86	211.21
939.16	211.30
939.46	211.37
939.76	211.41
940.06	211.32
940.35	211.22
940.65	211.05
940.95	211.02
941.25	210.84
941.55	210.78
941.85	210.83
942.15	210.83
942.45	210.89
942.75	210.85
943.04	210.86
943.34	210.85
943.64	210.83
943.94	210.81
944.24	210.82
944.54	210.69
944.84	210.72
945.13	210.62
945.43	210.55
945.73	210.48
946.03	210.42
946.33	210.46
946.62	210.39
946.92	210.41
947.22	210.49
947.52	210.54
947.82	210.65
948.11	210.62
948.41	210.57
948.71	210.55
949.01	210.50
949.31	210.51
949.60	210.48
949.90	210.49
950.20	210.48
950.50	210.52
950.79	210.60
951.09	210.62
951.39	210.69
951.69	210.70
951.98	210.81
952.28	210.86
952.58	210.87
952.87	210.89
953.17	210.98
953.47	210.90
953.76	210.98
954.06	210.88
954.36	210.78
954.66	210.76
954.95	210.81
955.25	210.93
955.55	210.98
955.84	210.95
956.14	210.92
956.44	210.95
956.73	210.88
957.03	210.89
957.32	210.88
957.62	210.82
957.92	210.87
958.21	210.80
958.51	211.15
958.81	211.12
959.10	211.06
959.40	211.05
959.69	211.07
959.99	211.09
960.29	211.12
960.58	211.15
960.88	211.31
961.17	211.28
961.47	211.27
961.76	211.27
962.06	211.33
962.36	211.40
962.65	211.39
962.95	211.44
963.24	211.45
963.54	211.47
963.83	211.56
964.13	211.54
964.42	211.50
964.72	211.24
965.01	211.29
965.31	211.40
965.60	211.33
965.90	211.53
966.19	211.39
966.49	211.39
966.78	211.39
967.08	211.39
967.37	211.42
967.67	211.37
967.96	211.38
968.26	211.40
968.55	211.43
968.85	211.40
969.14	211.36
969.43	211.35
969.73	211.33
970.02	211.26
970.32	211.21
970.61	211.17
970.91	211.05
971.20	210.99
971.49	210.98
971.79	211.04
972.08	210.88
972.38	210.98
972.67	210.94
972.96	211.00
973.26	210.92
973.55	210.95
973.85	210.95
974.14	210.92
974.43	210.95
974.73	210.91
975.02	210.90
975.31	210.95
975.61	210.94
975.90	210.89
976.19	210.90
976.49	210.95
976.78	210.99
977.07	211.05
977.37	211.08
977.66	211.08
977.95	211.07
978.24	211.08
978.54	211.12
978.83	211.19
979.12	211.13
979.42	211.08
979.71	210.99
980.00	210.99
980.29	211.07
980.59	210.98
980.88	211.02
981.17	211.01
981.46	211.02
981.76	210.94
982.05	211.08
982.34	211.05
982.63	211.10
982.93	211.15
983.22	211.14
983.51	211.14
983.80	211.17
984.09	211.24
984.39	211.19
984.68	211.17
984.97	211.18
985.26	211.13
985.55	211.20
985.85	211.21
986.14	211.22
986.43	211.23
986.72	211.23
987.01	211.11
987.30	211.13
987.59	211.10
987.89	211.15
988.18	210.99
988.47	211.01
988.76	210.90
989.05	210.85
989.34	210.93
989.63	211.02
989.92	210.95
990.22	210.85
990.51	210.89
990.80	210.84
991.09	210.89
991.38	210.91
991.67	210.84
991.96	210.81
992.25	210.80
992.54	210.72
992.83	210.75
993.12	210.85
993.41	210.86
993.70	211.04
993.99	211.13
994.28	211.24
994.58	211.28
994.87	211.28
995.16	211.22
995.45	211.10
995.74	210.95
996.03	211.03
996.32	211.04
996.61	211.14
996.90	211.13
997.19	211.06
997.48	211.07
997.77	211.14
998.06	211.11
998.34	211.11
998.63	211.18
998.92	211.15
999.21	211.19
999.50	211.17
999.79	211.02
1000.08	211.06
1000.37	211.05
1000.66	211.01
1000.95	211.11
1001.24	211.18
1001.53	211.25
1001.82	211.23
1002.11	211.15
1002.40	211.27
1002.68	211.29
1002.97	211.53
1003.26	211.50
1003.55	211.42
1003.84	211.33
1004.13	211.45
1004.42	211.45
1004.71	211.36
1004.99	211.30
1005.28	211.34
1005.57	211.35
1005.86	211.33
1006.15	211.26
1006.44	211.19
1006.72	211.30
1007.01	211.21
1007.30	211.18
1007.59	211.17
1007.88	211.20
1008.17	211.16
1008.45	210.99
1008.74	210.85
1009.03	210.65
1009.32	210.69
1009.60	210.80
1009.89	210.80
1010.18	210.64
1010.47	210.65
1010.76	210.61
1011.04	210.66
1011.33	210.61
1011.62	210.60
1011.91	210.63
1012.19	210.55
1012.48	210.58
1012.77	210.52
1013.05	210.66
1013.34	210.65
1013.63	210.62
1013.92	210.64
1014.20	210.69
1014.49	210.73
1014.78	210.74
1015.06	210.61
1015.35	210.59
1015.64	210.59
1015.92	210.69
1016.21	210.77
1016.50	210.74
1016.78	210.73
1017.07	210.76
1017.36	210.71
1017.64	210.72
1017.93	210.67
1018.22	210.68
1018.50	210.66
1018.79	210.65
1019.08	210.51
1019.36	210.52
1019.65	210.50
1019.93	210.63
1020.22	210.68
1020.51	210.89
1020.79	210.85
1021.08	209.85
1021.36	210.20
1021.65	210.90
1021.94	210.75
1022.22	210.35
1022.51	210.55
1022.79	213.00
1023.08	211.50
1023.36	215.30
1023.65	209.70
>>>>>End Processed Spectral Data<<<<<
