SpectraSuite Data File
++++++++++++++++++++++++++++++++++++
Date: Mon Feb 25 17:16:28 EST 2013
User: group
Dark Spectrum Present: No
Reference Spectrum Present: No
Number of Sampled Component Spectra: 1
Spectrometers: USB2E7196
Integration Time (usec): 104000 (USB2E7196)
Spectra Averaged: 20 (USB2E7196)
Boxcar Smoothing: 10 (USB2E7196)
Correct for Electrical Dark: No (USB2E7196)
Strobe/Lamp Enabled: No (USB2E7196)
Correct for Detector Non-linearity: No (USB2E7196)
Correct for Stray Light: No (USB2E7196)
Number of Pixels in Processed Spectrum: 2048
>>>>>Begin Processed Spectral Data<<<<<
339.09	0.00
339.48	199.70
339.86	201.05
340.24	202.65
340.63	203.90
341.01	210.75
341.39	204.95
341.78	208.20
342.16	209.45
342.54	210.70
342.93	198.91
343.31	208.96
343.69	209.48
344.07	209.97
344.46	210.39
344.84	210.76
345.22	210.75
345.60	211.06
345.99	211.17
346.37	211.27
346.75	211.31
347.13	211.41
347.52	211.47
347.90	211.60
348.28	211.75
348.66	211.87
349.05	211.75
349.43	211.85
349.81	211.96
350.19	212.08
350.57	212.16
350.96	212.20
351.34	212.29
351.72	212.36
352.10	212.37
352.48	212.37
352.87	212.36
353.25	212.44
353.63	212.46
354.01	212.55
354.39	212.66
354.77	212.65
355.15	212.82
355.54	212.84
355.92	212.79
356.30	212.76
356.68	212.95
357.06	213.04
357.44	212.98
357.82	212.92
358.20	212.96
358.58	212.97
358.97	213.02
359.35	213.13
359.73	213.24
360.11	213.31
360.49	213.39
360.87	213.45
361.25	213.51
361.63	213.71
362.01	213.75
362.39	213.74
362.77	213.89
363.15	213.83
363.53	213.79
363.91	213.85
364.29	213.82
364.67	213.57
365.05	213.56
365.43	213.57
365.81	213.67
366.19	213.84
366.57	214.02
366.95	214.00
367.33	213.95
367.71	213.90
368.09	214.00
368.47	214.01
368.85	214.02
369.23	214.06
369.61	213.86
369.99	213.98
370.37	213.98
370.75	214.06
371.13	214.04
371.51	214.01
371.89	213.96
372.27	213.98
372.65	213.98
373.03	213.96
373.41	213.95
373.78	213.89
374.16	213.58
374.54	213.40
374.92	213.29
375.30	213.21
375.68	213.15
376.06	213.07
376.44	213.00
376.82	212.97
377.19	212.88
377.57	212.87
377.95	212.71
378.33	212.66
378.71	212.40
379.09	212.35
379.47	212.36
379.84	212.30
380.22	212.22
380.60	212.11
380.98	212.07
381.36	212.07
381.73	212.00
382.11	212.00
382.49	211.98
382.87	211.95
383.25	211.91
383.62	212.24
384.00	212.17
384.38	212.09
384.76	212.12
385.13	212.28
385.51	212.22
385.89	212.14
386.27	212.13
386.64	212.17
387.02	212.17
387.40	212.04
387.78	212.04
388.15	212.02
388.53	211.98
388.91	211.88
389.29	211.77
389.66	211.81
390.04	211.77
390.42	211.83
390.79	211.79
391.17	211.79
391.55	211.43
391.92	211.41
392.30	211.47
392.68	211.43
393.05	211.43
393.43	211.44
393.81	211.49
394.18	211.44
394.56	211.42
394.94	211.40
395.31	211.46
395.69	211.54
396.06	211.60
396.44	211.66
396.82	211.69
397.19	211.90
397.57	211.84
397.95	211.98
398.32	211.91
398.70	211.96
399.07	211.96
399.45	211.96
399.82	212.00
400.20	211.98
400.58	211.94
400.95	211.79
401.33	211.92
401.70	212.12
402.08	212.21
402.45	212.23
402.83	212.39
403.20	212.43
403.58	212.47
403.95	212.64
404.33	212.74
404.71	212.96
405.08	213.17
405.46	213.36
405.83	213.49
406.21	213.62
406.58	213.79
406.96	213.98
407.33	214.19
407.70	214.37
408.08	214.84
408.45	215.18
408.83	215.45
409.20	215.66
409.58	215.72
409.95	215.95
410.33	216.36
410.70	216.58
411.08	216.99
411.45	217.31
411.82	217.53
412.20	218.06
412.57	218.66
412.95	218.82
413.32	219.31
413.69	219.77
414.07	220.35
414.44	220.97
414.82	221.56
415.19	222.24
415.56	223.00
415.94	223.60
416.31	224.44
416.68	225.25
417.06	226.22
417.43	227.35
417.81	228.41
418.18	229.43
418.55	230.63
418.93	231.93
419.30	233.25
419.67	234.68
420.04	236.02
420.42	237.33
420.79	239.28
421.16	241.03
421.54	243.05
421.91	244.84
422.28	246.80
422.66	248.87
423.03	251.14
423.40	253.20
423.77	255.35
424.15	257.57
424.52	260.03
424.89	262.51
425.26	264.82
425.64	267.21
426.01	269.78
426.38	272.49
426.75	275.28
427.13	278.01
427.50	280.98
427.87	284.00
428.24	287.08
428.61	289.88
428.99	293.12
429.36	296.38
429.73	299.85
430.10	303.22
430.47	306.68
430.85	309.99
431.22	313.78
431.59	318.01
431.96	321.85
432.33	326.02
432.70	330.19
433.08	335.04
433.45	339.58
433.82	344.06
434.19	349.00
434.56	353.85
434.93	358.55
435.30	363.19
435.68	368.31
436.05	373.42
436.42	378.48
436.79	383.20
437.16	388.32
437.53	393.57
437.90	398.68
438.27	403.80
438.64	409.07
439.01	414.00
439.38	418.20
439.75	422.39
440.13	427.18
440.50	431.70
440.87	435.37
441.24	439.35
441.61	443.63
441.98	446.58
442.35	450.12
442.72	453.87
443.09	457.62
443.46	459.69
443.83	461.01
444.20	462.16
444.57	463.77
444.94	464.39
445.31	465.32
445.68	466.45
446.05	466.62
446.42	466.08
446.79	465.42
447.16	464.60
447.53	464.10
447.90	462.10
448.27	459.95
448.64	457.11
449.01	454.89
449.37	451.34
449.74	448.04
450.11	444.08
450.48	439.56
450.85	434.83
451.22	431.01
451.59	427.37
451.96	423.77
452.33	419.04
452.70	414.84
453.07	409.62
453.43	404.14
453.80	399.32
454.17	394.70
454.54	390.15
454.91	385.42
455.28	380.65
455.65	376.38
456.02	372.53
456.38	368.84
456.75	364.34
457.12	360.51
457.49	356.77
457.86	352.96
458.23	349.95
458.59	346.58
458.96	343.20
459.33	340.17
459.70	337.14
460.07	334.72
460.43	331.85
460.80	329.24
461.17	327.10
461.54	324.71
461.91	322.34
462.27	320.03
462.64	318.03
463.01	315.90
463.38	313.84
463.74	311.27
464.11	309.49
464.48	307.91
464.85	306.20
465.21	304.94
465.58	303.63
465.95	301.83
466.32	300.38
466.68	298.88
467.05	297.43
467.42	296.08
467.78	294.70
468.15	293.46
468.52	292.60
468.88	291.22
469.25	290.03
469.62	289.17
469.98	288.33
470.35	287.45
470.72	286.62
471.08	285.65
471.45	285.03
471.82	284.28
472.18	283.43
472.55	283.05
472.92	282.30
473.28	281.59
473.65	281.01
474.02	280.63
474.38	280.37
474.75	280.13
475.11	279.83
475.48	279.55
475.85	279.40
476.21	279.20
476.58	279.17
476.94	279.23
477.31	279.22
477.67	279.03
478.04	279.09
478.41	279.23
478.77	279.68
479.14	279.77
479.50	280.05
479.87	280.37
480.23	280.60
480.60	280.90
480.96	281.36
481.33	282.07
481.69	282.54
482.06	283.05
482.42	283.60
482.79	284.26
483.15	285.05
483.52	285.92
483.88	286.68
484.25	287.57
484.61	288.57
484.98	289.58
485.34	290.92
485.71	292.19
486.07	293.60
486.44	294.76
486.80	296.24
487.17	297.79
487.53	299.55
487.90	301.37
488.26	303.42
488.62	305.54
488.99	307.58
489.35	309.80
489.72	312.18
490.08	314.68
490.44	317.16
490.81	319.99
491.17	322.72
491.54	325.86
491.90	329.10
492.26	332.45
492.63	335.98
492.99	339.66
493.36	343.55
493.72	347.61
494.08	351.80
494.45	356.36
494.81	361.13
495.17	365.85
495.54	370.94
495.90	376.25
496.26	381.69
496.63	387.42
496.99	393.41
497.35	399.66
497.72	406.12
498.08	413.10
498.44	419.99
498.80	427.50
499.17	435.10
499.53	442.83
499.89	450.92
500.26	459.36
500.62	467.94
500.98	477.02
501.34	486.40
501.71	496.08
502.07	505.78
502.43	515.73
502.79	526.18
503.16	537.14
503.52	548.14
503.88	559.48
504.24	571.31
504.60	583.34
504.97	595.80
505.33	608.39
505.69	621.66
506.05	635.21
506.41	648.78
506.78	662.71
507.14	677.10
507.50	691.80
507.86	706.82
508.22	722.09
508.59	737.63
508.95	753.42
509.31	769.69
509.67	786.43
510.03	803.56
510.39	821.10
510.75	838.56
511.12	856.53
511.48	874.72
511.84	893.27
512.20	911.95
512.56	931.00
512.92	950.49
513.28	970.03
513.64	989.86
514.00	1009.74
514.37	1030.03
514.73	1050.72
515.09	1071.23
515.45	1091.73
515.81	1112.65
516.17	1133.49
516.53	1154.66
516.89	1175.95
517.25	1197.38
517.61	1218.93
517.97	1240.19
518.33	1261.77
518.69	1283.31
519.05	1305.26
519.41	1327.18
519.77	1349.54
520.13	1371.07
520.49	1392.85
520.85	1414.62
521.21	1436.56
521.57	1458.80
521.93	1480.36
522.29	1502.60
522.65	1525.10
523.01	1547.28
523.37	1568.90
523.73	1591.00
524.09	1612.77
524.45	1634.53
524.81	1656.21
525.17	1678.09
525.53	1700.03
525.89	1721.60
526.25	1743.01
526.61	1763.61
526.97	1784.28
527.33	1804.67
527.68	1825.74
528.04	1845.84
528.40	1865.40
528.76	1885.08
529.12	1905.37
529.48	1925.99
529.84	1945.46
530.20	1964.33
530.56	1983.75
530.91	2003.84
531.27	2023.19
531.63	2042.03
531.99	2060.82
532.35	2079.00
532.71	2096.95
533.07	2115.12
533.42	2132.85
533.78	2150.71
534.14	2168.15
534.50	2183.92
534.86	2200.75
535.21	2216.85
535.57	2233.67
535.93	2249.55
536.29	2265.09
536.65	2280.54
537.00	2294.74
537.36	2308.89
537.72	2322.98
538.08	2336.66
538.44	2350.01
538.79	2363.61
539.15	2377.28
539.51	2390.32
539.87	2404.14
540.22	2416.89
540.58	2429.82
540.94	2442.12
541.29	2453.14
541.65	2463.75
542.01	2475.61
542.37	2485.74
542.72	2496.37
543.08	2505.88
543.44	2516.82
543.79	2525.79
544.15	2533.91
544.51	2543.31
544.87	2552.58
545.22	2561.14
545.58	2568.72
545.94	2575.30
546.29	2581.19
546.65	2586.72
547.01	2592.25
547.36	2597.10
547.72	2602.07
548.07	2605.95
548.43	2609.86
548.79	2613.39
549.14	2617.55
549.50	2621.33
549.86	2624.48
550.21	2627.07
550.57	2630.57
550.92	2631.95
551.28	2634.19
551.64	2636.42
551.99	2638.16
552.35	2639.07
552.70	2640.22
553.06	2641.66
553.41	2643.01
553.77	2643.82
554.13	2644.38
554.48	2645.31
554.84	2645.86
555.19	2645.28
555.55	2644.63
555.90	2643.18
556.26	2642.71
556.61	2641.55
556.97	2639.33
557.32	2638.11
557.68	2635.78
558.03	2633.51
558.39	2631.61
558.74	2630.62
559.10	2629.03
559.45	2626.76
559.81	2624.63
560.16	2621.38
560.52	2618.80
560.87	2616.07
561.23	2612.92
561.58	2610.54
561.94	2606.54
562.29	2602.25
562.64	2599.21
563.00	2596.23
563.35	2593.83
563.71	2591.14
564.06	2588.20
564.42	2585.76
564.77	2583.09
565.12	2580.67
565.48	2577.16
565.83	2573.99
566.19	2570.52
566.54	2565.60
566.89	2561.08
567.25	2557.03
567.60	2553.28
567.96	2548.86
568.31	2544.52
568.66	2539.79
569.02	2534.05
569.37	2528.75
569.72	2523.84
570.08	2518.40
570.43	2512.39
570.78	2506.35
571.14	2499.30
571.49	2492.67
571.84	2487.00
572.20	2479.59
572.55	2473.17
572.90	2465.86
573.26	2458.25
573.61	2450.38
573.96	2443.33
574.31	2435.35
574.67	2427.02
575.02	2418.52
575.37	2410.51
575.72	2401.50
576.08	2394.15
576.43	2386.08
576.78	2378.10
577.13	2370.33
577.49	2362.23
577.84	2354.43
578.19	2346.79
578.54	2340.15
578.90	2333.37
579.25	2324.99
579.60	2316.83
579.95	2307.99
580.30	2300.51
580.66	2293.19
581.01	2285.03
581.36	2276.31
581.71	2268.05
582.06	2260.27
582.42	2252.50
582.77	2243.79
583.12	2236.05
583.47	2228.18
583.82	2221.06
584.17	2213.29
584.53	2205.79
584.88	2198.19
585.23	2190.08
585.58	2182.00
585.93	2173.37
586.28	2165.18
586.63	2156.91
586.98	2149.20
587.34	2142.11
587.69	2134.15
588.04	2126.18
588.39	2118.72
588.74	2110.80
589.09	2103.57
589.44	2095.23
589.79	2087.87
590.14	2080.76
590.49	2072.90
590.84	2064.73
591.19	2057.49
591.54	2049.86
591.89	2040.63
592.25	2032.24
592.60	2023.84
592.95	2015.18
593.30	2006.41
593.65	1997.48
594.00	1989.23
594.35	1982.45
594.70	1974.02
595.05	1966.01
595.40	1957.94
595.75	1949.04
596.10	1941.57
596.45	1933.95
596.80	1926.92
597.15	1919.43
597.50	1911.40
597.85	1904.02
598.19	1896.27
598.54	1888.21
598.89	1880.63
599.24	1874.47
599.59	1867.26
599.94	1860.90
600.29	1854.26
600.64	1847.68
600.99	1840.18
601.34	1833.23
601.69	1824.85
602.04	1816.99
602.39	1809.78
602.74	1802.70
603.08	1796.63
603.43	1790.51
603.78	1783.38
604.13	1776.23
604.48	1769.15
604.83	1763.32
605.18	1757.67
605.53	1750.80
605.87	1743.40
606.22	1737.10
606.57	1729.79
606.92	1722.78
607.27	1715.08
607.62	1707.90
607.96	1701.09
608.31	1695.23
608.66	1687.76
609.01	1680.41
609.36	1673.37
609.70	1665.58
610.05	1657.93
610.40	1650.26
610.75	1642.05
611.10	1635.27
611.44	1626.56
611.79	1618.32
612.14	1609.25
612.49	1599.97
612.83	1591.88
613.18	1583.32
613.53	1574.47
613.88	1565.72
614.22	1557.74
614.57	1549.51
614.92	1541.17
615.27	1532.49
615.61	1523.51
615.96	1515.71
616.31	1508.12
616.65	1500.86
617.00	1493.40
617.35	1485.35
617.70	1476.86
618.04	1468.29
618.39	1459.05
618.74	1451.60
619.08	1443.38
619.43	1435.33
619.78	1427.43
620.12	1419.50
620.47	1412.11
620.82	1403.85
621.16	1395.52
621.51	1387.18
621.85	1379.37
622.20	1370.82
622.55	1363.05
622.89	1355.26
623.24	1347.23
623.59	1338.60
623.93	1330.33
624.28	1322.38
624.62	1314.96
624.97	1307.49
625.32	1300.15
625.66	1293.06
626.01	1285.60
626.35	1278.60
626.70	1271.20
627.04	1264.23
627.39	1257.33
627.73	1250.06
628.08	1243.30
628.43	1236.06
628.77	1228.69
629.12	1221.15
629.46	1214.95
629.81	1207.89
630.15	1200.80
630.50	1193.64
630.84	1186.76
631.19	1179.58
631.53	1172.50
631.88	1164.89
632.22	1157.54
632.57	1150.85
632.91	1143.58
633.26	1136.67
633.60	1129.71
633.95	1123.21
634.29	1115.97
634.64	1109.06
634.98	1101.93
635.32	1095.24
635.67	1089.35
636.01	1083.21
636.36	1076.60
636.70	1069.91
637.05	1063.25
637.39	1056.87
637.73	1050.90
638.08	1045.27
638.42	1039.55
638.77	1033.56
639.11	1027.49
639.45	1021.49
639.80	1014.84
640.14	1008.40
640.49	1002.20
640.83	995.85
641.17	989.59
641.52	983.53
641.86	976.88
642.20	970.72
642.55	964.12
642.89	957.59
643.23	950.98
643.58	945.29
643.92	938.92
644.26	932.92
644.61	926.88
644.95	920.28
645.29	913.89
645.64	907.39
645.98	901.14
646.32	895.21
646.66	888.92
647.01	883.08
647.35	877.32
647.69	870.81
648.04	865.12
648.38	859.10
648.72	853.10
649.06	847.34
649.41	841.55
649.75	835.80
650.09	829.95
650.43	824.23
650.78	817.94
651.12	812.11
651.46	806.31
651.80	800.86
652.14	795.46
652.49	789.80
652.83	784.12
653.17	778.07
653.51	772.36
653.85	767.15
654.20	761.70
654.54	756.10
654.88	750.69
655.22	744.99
655.56	739.33
655.90	733.89
656.25	728.55
656.59	723.19
656.93	718.00
657.27	712.97
657.61	707.54
657.95	702.61
658.29	697.71
658.64	692.84
658.98	687.43
659.32	682.04
659.66	677.06
660.00	671.88
660.34	666.98
660.68	661.97
661.02	656.84
661.36	652.02
661.70	647.37
662.05	643.02
662.39	638.72
662.73	634.61
663.07	630.31
663.41	625.69
663.75	621.37
664.09	616.87
664.43	612.37
664.77	608.18
665.11	603.86
665.45	599.47
665.79	595.34
666.13	591.26
666.47	587.37
666.81	583.29
667.15	579.34
667.49	575.77
667.83	572.17
668.17	568.37
668.51	564.74
668.85	561.17
669.19	557.78
669.53	553.89
669.87	550.02
670.21	546.30
670.55	542.94
670.89	539.71
671.23	536.58
671.57	533.15
671.91	529.85
672.25	526.47
672.58	523.19
672.92	519.72
673.26	516.50
673.60	513.40
673.94	510.32
674.28	507.27
674.62	504.30
674.96	501.15
675.30	498.40
675.64	495.31
675.97	492.29
676.31	489.13
676.65	486.33
676.99	483.70
677.33	480.78
677.67	477.93
678.01	474.88
678.34	471.96
678.68	469.35
679.02	466.48
679.36	463.97
679.70	461.27
680.04	458.55
680.37	455.74
680.71	453.06
681.05	450.51
681.39	448.02
681.73	445.41
682.06	443.07
682.40	440.60
682.74	438.09
683.08	435.65
683.42	433.15
683.75	430.78
684.09	428.15
684.43	425.74
684.77	423.18
685.10	420.75
685.44	418.35
685.78	415.84
686.12	413.77
686.45	411.35
686.79	409.10
687.13	407.14
687.46	405.11
687.80	402.95
688.14	400.49
688.48	398.43
688.81	396.10
689.15	393.86
689.49	391.60
689.82	389.53
690.16	387.14
690.50	384.95
690.83	382.79
691.17	380.59
691.51	378.67
691.84	376.86
692.18	374.99
692.52	373.07
692.85	371.43
693.19	369.58
693.52	367.79
693.86	365.90
694.20	364.00
694.53	362.19
694.87	360.20
695.21	358.47
695.54	356.48
695.88	354.60
696.21	352.69
696.55	351.03
696.88	349.34
697.22	347.82
697.56	346.35
697.89	344.71
698.23	343.26
698.56	341.58
698.90	340.05
699.23	338.33
699.57	336.84
699.90	335.23
700.24	333.70
700.58	332.16
700.91	330.80
701.25	329.63
701.58	328.22
701.92	326.97
702.25	325.64
702.59	324.33
702.92	322.98
703.26	321.75
703.59	320.29
703.93	319.26
704.26	317.96
704.60	316.71
704.93	315.50
705.26	314.21
705.60	313.03
705.93	311.70
706.27	310.68
706.60	309.52
706.94	308.49
707.27	307.20
707.61	306.02
707.94	304.76
708.27	303.24
708.61	302.06
708.94	300.96
709.28	299.95
709.61	298.86
709.94	297.93
710.28	296.93
710.61	296.01
710.95	294.64
711.28	293.91
711.61	292.80
711.95	291.81
712.28	290.87
712.61	289.83
712.95	289.17
713.28	288.36
713.61	287.36
713.95	286.34
714.28	285.53
714.61	284.66
714.95	283.87
715.28	282.97
715.61	282.06
715.95	281.18
716.28	280.30
716.61	279.49
716.95	278.69
717.28	277.87
717.61	277.11
717.94	276.39
718.28	275.36
718.61	274.65
718.94	273.89
719.27	273.09
719.61	272.47
719.94	271.59
720.27	270.73
720.60	270.05
720.94	269.35
721.27	268.68
721.60	268.07
721.93	267.36
722.27	266.87
722.60	266.34
722.93	265.74
723.26	265.14
723.59	264.57
723.93	263.95
724.26	263.30
724.59	262.76
724.92	262.26
725.25	261.83
725.59	261.24
725.92	260.77
726.25	260.28
726.58	259.71
726.91	259.17
727.24	258.69
727.57	258.14
727.91	257.49
728.24	256.92
728.57	256.40
728.90	255.97
729.23	255.41
729.56	255.12
729.89	254.53
730.22	254.00
730.55	253.48
730.89	253.01
731.22	252.51
731.55	251.98
731.88	251.50
732.21	250.95
732.54	250.40
732.87	249.88
733.20	249.48
733.53	249.11
733.86	248.72
734.19	248.24
734.52	247.94
734.85	247.93
735.18	247.63
735.51	247.36
735.84	247.05
736.17	246.73
736.50	246.18
736.83	246.31
737.16	245.94
737.49	245.60
737.82	245.21
738.15	245.00
738.48	244.54
738.81	244.16
739.14	243.71
739.47	243.41
739.80	243.06
740.13	242.69
740.46	242.27
740.79	241.87
741.12	241.55
741.45	241.13
741.78	240.57
742.11	240.19
742.44	239.80
742.77	239.47
743.10	239.11
743.43	238.70
743.75	238.08
744.08	238.19
744.41	237.78
744.74	237.49
745.07	237.06
745.40	236.90
745.73	236.72
746.06	236.50
746.39	236.25
746.71	235.89
747.04	235.58
747.37	235.31
747.70	235.09
748.03	234.86
748.36	234.61
748.68	234.33
749.01	234.04
749.34	233.79
749.67	233.44
750.00	233.32
750.33	233.32
750.65	233.04
750.98	232.43
751.31	232.24
751.64	232.04
751.97	231.97
752.29	231.71
752.62	231.39
752.95	231.16
753.28	230.90
753.60	230.78
753.93	230.63
754.26	230.40
754.59	230.13
754.91	229.86
755.24	229.70
755.57	229.43
755.90	229.18
756.22	228.85
756.55	228.66
756.88	228.35
757.20	227.94
757.53	227.64
757.86	227.38
758.19	227.19
758.51	226.95
758.84	226.61
759.17	226.30
759.49	226.11
759.82	226.14
760.15	225.95
760.47	225.73
760.80	225.48
761.13	225.42
761.45	225.22
761.78	225.04
762.11	224.82
762.43	224.69
762.76	224.58
763.08	224.51
763.41	224.37
763.74	224.18
764.06	224.00
764.39	223.89
764.71	223.73
765.04	223.62
765.37	223.42
765.69	223.24
766.02	223.15
766.34	222.98
766.67	222.62
767.00	222.64
767.32	222.68
767.65	222.73
767.97	222.50
768.30	222.38
768.62	222.28
768.95	222.19
769.27	222.08
769.60	222.02
769.92	221.88
770.25	221.69
770.57	221.52
770.90	221.46
771.22	221.33
771.55	221.31
771.87	221.22
772.20	221.20
772.52	221.42
772.85	221.81
773.17	221.71
773.50	221.70
773.82	221.51
774.15	221.26
774.47	221.00
774.80	220.98
775.12	220.84
775.45	220.78
775.77	220.65
776.09	220.65
776.42	220.58
776.74	220.58
777.07	220.49
777.39	220.46
777.72	220.34
778.04	220.24
778.36	220.11
778.69	220.02
779.01	219.88
779.33	219.57
779.66	219.06
779.98	219.04
780.31	218.95
780.63	218.95
780.95	218.93
781.28	218.81
781.60	218.64
781.92	218.59
782.25	218.43
782.57	218.36
782.89	218.18
783.22	218.06
783.54	217.99
783.86	217.96
784.19	217.91
784.51	217.99
784.83	217.96
785.16	217.93
785.48	217.88
785.80	217.84
786.12	217.75
786.45	217.67
786.77	217.57
787.09	217.52
787.42	217.37
787.74	217.31
788.06	217.30
788.38	217.26
788.71	217.20
789.03	217.21
789.35	217.20
789.67	217.09
789.99	217.09
790.32	216.99
790.64	216.99
790.96	217.17
791.28	216.98
791.61	216.88
791.93	216.81
792.25	216.74
792.57	216.95
792.89	216.84
793.21	216.86
793.54	216.82
793.86	216.74
794.18	216.79
794.50	216.67
794.82	216.60
795.14	216.64
795.47	216.72
795.79	216.59
796.11	216.57
796.43	216.55
796.75	216.49
797.07	216.44
797.39	216.35
797.71	216.08
798.04	216.02
798.36	216.00
798.68	215.95
799.00	215.99
799.32	215.77
799.64	215.76
799.96	215.61
800.28	215.64
800.60	215.51
800.92	215.43
801.24	215.45
801.56	215.45
801.89	215.36
802.21	215.25
802.53	215.23
802.85	215.14
803.17	215.25
803.49	215.15
803.81	215.02
804.13	214.89
804.45	214.79
804.77	214.86
805.09	214.85
805.41	214.73
805.73	214.57
806.05	214.44
806.37	214.37
806.69	214.40
807.01	214.34
807.33	214.36
807.65	214.20
807.97	214.27
808.28	214.22
808.60	214.11
808.92	214.04
809.24	214.23
809.56	214.23
809.88	214.14
810.20	214.07
810.52	214.18
810.84	214.19
811.16	214.19
811.48	214.16
811.80	214.29
812.12	214.25
812.43	214.27
812.75	214.30
813.07	214.34
813.39	214.32
813.71	214.26
814.03	214.22
814.35	214.25
814.67	214.13
814.98	214.07
815.30	214.09
815.62	214.06
815.94	213.81
816.26	213.75
816.58	213.67
816.89	213.82
817.21	213.71
817.53	213.76
817.85	213.76
818.17	213.67
818.48	213.52
818.80	213.66
819.12	213.63
819.44	213.61
819.76	213.52
820.07	213.50
820.39	213.52
820.71	213.60
821.03	213.59
821.34	213.55
821.66	213.60
821.98	213.62
822.30	213.59
822.61	213.77
822.93	213.75
823.25	213.68
823.57	213.55
823.88	213.67
824.20	213.58
824.52	213.60
824.83	213.53
825.15	213.50
825.47	213.52
825.79	213.53
826.10	213.41
826.42	213.41
826.74	213.46
827.05	213.34
827.37	213.25
827.69	213.25
828.00	213.23
828.32	213.25
828.64	213.20
828.95	213.37
829.27	213.29
829.58	213.26
829.90	213.36
830.22	213.37
830.53	213.24
830.85	213.24
831.17	213.17
831.48	213.21
831.80	213.19
832.11	213.02
832.43	212.96
832.75	213.00
833.06	213.19
833.38	213.02
833.69	213.01
834.01	213.07
834.32	212.96
834.64	212.96
834.96	212.92
835.27	212.90
835.59	212.75
835.90	212.64
836.22	212.61
836.53	212.49
836.85	212.42
837.16	212.74
837.48	212.70
837.79	212.77
838.11	212.73
838.42	212.71
838.74	212.76
839.05	212.73
839.37	212.72
839.68	212.50
840.00	212.52
840.31	212.55
840.63	212.47
840.94	212.47
841.26	212.40
841.57	212.40
841.88	212.41
842.20	212.39
842.51	212.34
842.83	212.37
843.14	212.74
843.46	212.76
843.77	212.56
844.08	212.61
844.40	212.51
844.71	212.48
845.03	212.42
845.34	212.38
845.65	212.40
845.97	212.40
846.28	212.39
846.60	212.36
846.91	212.36
847.22	212.35
847.54	212.47
847.85	212.47
848.16	212.41
848.48	212.37
848.79	212.55
849.10	212.61
849.42	212.62
849.73	212.24
850.04	212.23
850.36	212.11
850.67	212.20
850.98	212.26
851.30	212.31
851.61	212.36
851.92	212.43
852.23	212.57
852.55	212.56
852.86	212.58
853.17	212.64
853.49	212.67
853.80	212.77
854.11	212.74
854.42	212.78
854.74	212.73
855.05	212.75
855.36	212.53
855.67	212.50
855.99	212.46
856.30	212.86
856.61	212.82
856.92	212.78
857.23	212.65
857.55	212.52
857.86	212.48
858.17	212.46
858.48	212.38
858.79	212.31
859.11	212.36
859.42	212.43
859.73	212.43
860.04	212.48
860.35	212.33
860.66	212.22
860.98	212.18
861.29	212.22
861.60	212.22
861.91	212.31
862.22	212.24
862.53	212.20
862.84	211.76
863.16	211.86
863.47	211.80
863.78	211.78
864.09	211.82
864.40	211.83
864.71	211.87
865.02	211.92
865.33	211.87
865.64	211.78
865.95	211.70
866.27	211.86
866.58	211.79
866.89	211.93
867.20	211.94
867.51	211.95
867.82	211.99
868.13	212.06
868.44	211.96
868.75	212.10
869.06	212.10
869.37	212.13
869.68	211.96
869.99	212.05
870.30	212.09
870.61	212.13
870.92	212.08
871.23	211.99
871.54	212.04
871.85	212.07
872.16	212.07
872.47	212.06
872.78	211.81
873.09	211.84
873.40	211.73
873.71	211.75
874.02	211.73
874.33	211.63
874.64	211.52
874.95	211.61
875.26	211.56
875.56	211.59
875.87	211.58
876.18	211.65
876.49	211.95
876.80	211.99
877.11	211.84
877.42	211.89
877.73	211.91
878.04	211.80
878.35	211.76
878.66	211.79
878.96	211.78
879.27	211.76
879.58	211.67
879.89	211.64
880.20	211.74
880.51	211.74
880.82	211.74
881.12	211.82
881.43	211.67
881.74	211.55
882.05	211.51
882.36	211.54
882.67	211.55
882.97	211.19
883.28	211.15
883.59	211.24
883.90	211.30
884.21	211.34
884.51	211.32
884.82	211.25
885.13	211.23
885.44	211.19
885.74	211.21
886.05	211.21
886.36	211.22
886.67	211.10
886.98	211.25
887.28	211.25
887.59	211.21
887.90	211.28
888.20	211.29
888.51	211.29
888.82	211.25
889.13	211.25
889.43	211.60
889.74	211.53
890.05	211.51
890.35	211.43
890.66	211.41
890.97	211.41
891.28	211.37
891.58	211.45
891.89	211.47
892.20	211.44
892.50	211.45
892.81	211.42
893.12	211.45
893.42	211.27
893.73	211.29
894.04	211.29
894.34	211.23
894.65	211.24
894.95	211.18
895.26	211.20
895.57	211.37
895.87	210.99
896.18	211.08
896.48	211.13
896.79	211.13
897.10	211.17
897.40	211.20
897.71	211.33
898.01	211.20
898.32	211.29
898.63	211.33
898.93	211.38
899.24	211.43
899.54	211.42
899.85	211.45
900.15	211.50
900.46	211.46
900.76	211.60
901.07	211.63
901.38	211.72
901.68	211.75
901.99	211.59
902.29	211.59
902.60	211.56
902.90	211.48
903.21	211.45
903.51	211.49
903.82	211.56
904.12	211.47
904.43	211.52
904.73	211.46
905.03	211.49
905.34	211.89
905.64	211.81
905.95	211.76
906.25	211.72
906.56	211.68
906.86	211.73
907.17	211.73
907.47	211.76
907.77	211.69
908.08	211.62
908.38	211.62
908.69	211.62
908.99	211.60
909.30	211.65
909.60	211.69
909.90	211.70
910.21	211.50
910.51	211.53
910.81	211.51
911.12	211.45
911.42	211.49
911.73	211.02
912.03	211.09
912.33	211.15
912.64	211.14
912.94	211.17
913.24	211.13
913.55	211.08
913.85	211.09
914.15	211.13
914.46	211.20
914.76	211.23
915.06	211.25
915.37	211.28
915.67	211.25
915.97	211.21
916.27	211.10
916.58	211.24
916.88	211.27
917.18	211.30
917.49	211.53
917.79	211.51
918.09	211.62
918.39	211.73
918.70	211.77
919.00	211.81
919.30	211.93
919.60	211.93
919.91	211.87
920.21	211.86
920.51	211.85
920.81	211.79
921.12	211.87
921.42	211.89
921.72	211.94
922.02	211.98
922.32	212.03
922.63	212.05
922.93	212.23
923.23	212.25
923.53	212.19
923.83	212.00
924.13	211.96
924.44	212.03
924.74	212.08
925.04	212.14
925.34	212.16
925.64	212.01
925.94	211.95
926.24	212.15
926.55	212.13
926.85	212.14
927.15	212.18
927.45	212.08
927.75	212.07
928.05	212.05
928.35	212.00
928.65	212.10
928.95	212.07
929.26	211.88
929.56	211.90
929.86	211.99
930.16	211.99
930.46	212.02
930.76	211.98
931.06	211.83
931.36	211.75
931.66	211.79
931.96	211.84
932.26	211.93
932.56	211.83
932.86	211.84
933.16	211.87
933.46	211.82
933.76	211.78
934.06	211.89
934.36	211.98
934.66	211.99
934.96	211.92
935.26	211.92
935.56	212.00
935.86	211.94
936.16	211.86
936.46	211.88
936.76	211.88
937.06	211.79
937.36	211.81
937.66	211.83
937.96	211.79
938.26	211.69
938.56	211.55
938.86	211.52
939.16	211.59
939.46	211.60
939.76	211.64
940.06	211.66
940.35	211.52
940.65	211.38
940.95	211.42
941.25	211.28
941.55	211.26
941.85	211.13
942.15	211.19
942.45	211.31
942.75	211.29
943.04	211.23
943.34	211.35
943.64	211.30
943.94	211.22
944.24	211.18
944.54	211.24
944.84	211.29
945.13	211.19
945.43	211.13
945.73	211.10
946.03	211.04
946.33	210.99
946.62	211.00
946.92	210.99
947.22	210.96
947.52	211.04
947.82	211.07
948.11	211.07
948.41	211.02
948.71	210.90
949.01	210.84
949.31	210.80
949.60	210.70
949.90	210.73
950.20	210.70
950.50	210.71
950.79	210.61
951.09	210.69
951.39	210.67
951.69	210.70
951.98	210.83
952.28	210.88
952.58	210.88
952.87	210.89
953.17	210.93
953.47	210.94
953.76	210.90
954.06	210.87
954.36	210.87
954.66	210.82
954.95	210.96
955.25	211.00
955.55	211.02
955.84	211.00
956.14	211.05
956.44	211.13
956.73	211.06
957.03	211.13
957.32	211.07
957.62	211.11
957.92	211.11
958.21	211.07
958.51	211.46
958.81	211.56
959.10	211.59
959.40	211.63
959.69	211.67
959.99	211.76
960.29	211.80
960.58	211.80
960.88	212.03
961.17	211.93
961.47	212.00
961.76	212.04
962.06	212.10
962.36	212.04
962.65	212.06
962.95	212.09
963.24	212.13
963.54	212.25
963.83	212.30
964.13	212.27
964.42	212.11
964.72	211.83
965.01	211.79
965.31	211.72
965.60	211.70
965.90	211.87
966.19	211.78
966.49	211.77
966.78	211.77
967.08	211.64
967.37	211.63
967.67	211.60
967.96	211.60
968.26	211.58
968.55	211.74
968.85	211.70
969.14	211.74
969.43	211.73
969.73	211.60
970.02	211.57
970.32	211.57
970.61	211.60
970.91	211.44
971.20	211.41
971.49	211.45
971.79	211.34
972.08	211.15
972.38	211.20
972.67	211.26
972.96	211.30
973.26	211.20
973.55	211.34
973.85	211.26
974.14	211.25
974.43	211.26
974.73	211.05
975.02	210.98
975.31	210.97
975.61	210.94
975.90	210.95
976.19	210.92
976.49	210.96
976.78	211.04
977.07	211.14
977.37	211.09
977.66	211.10
977.95	211.08
978.24	211.12
978.54	211.12
978.83	211.12
979.12	211.08
979.42	211.10
979.71	210.96
980.00	210.97
980.29	211.03
980.59	210.99
980.88	211.18
981.17	211.25
981.46	211.23
981.76	211.18
982.05	211.36
982.34	211.39
982.63	211.39
982.93	211.33
983.22	211.42
983.51	211.50
983.80	211.54
984.09	211.61
984.39	211.52
984.68	211.48
984.97	211.43
985.26	211.42
985.55	211.43
985.85	211.39
986.14	211.43
986.43	211.46
986.72	211.41
987.01	211.26
987.30	211.20
987.59	211.23
987.89	211.25
988.18	211.07
988.47	211.03
988.76	210.98
989.05	210.98
989.34	210.89
989.63	210.95
989.92	210.96
990.22	210.93
990.51	211.01
990.80	211.05
991.09	211.10
991.38	211.12
991.67	211.15
991.96	211.12
992.25	211.13
992.54	211.07
992.83	211.09
993.12	211.09
993.41	211.18
993.70	211.30
993.99	211.40
994.28	211.45
994.58	211.50
994.87	211.49
995.16	211.47
995.45	211.40
995.74	211.22
996.03	211.26
996.32	211.32
996.61	211.33
996.90	211.36
997.19	211.34
997.48	211.41
997.77	211.33
998.06	211.44
998.34	211.44
998.63	211.35
998.92	211.39
999.21	211.47
999.50	211.42
999.79	211.31
1000.08	211.31
1000.37	211.34
1000.66	211.30
1000.95	211.36
1001.24	211.41
1001.53	211.49
1001.82	211.59
1002.11	211.52
1002.40	211.55
1002.68	211.65
1002.97	211.85
1003.26	211.84
1003.55	211.73
1003.84	211.78
1004.13	211.85
1004.42	211.90
1004.71	211.98
1004.99	211.95
1005.28	211.98
1005.57	211.99
1005.86	211.99
1006.15	211.98
1006.44	211.93
1006.72	211.99
1007.01	211.93
1007.30	211.88
1007.59	211.81
1007.88	211.76
1008.17	211.74
1008.45	211.68
1008.74	211.52
1009.03	211.36
1009.32	211.35
1009.60	211.32
1009.89	211.26
1010.18	211.12
1010.47	211.02
1010.76	211.04
1011.04	211.00
1011.33	210.93
1011.62	210.98
1011.91	211.06
1012.19	211.08
1012.48	211.12
1012.77	211.12
1013.05	211.25
1013.34	211.27
1013.63	211.34
1013.92	211.36
1014.20	211.34
1014.49	211.39
1014.78	211.38
1015.06	211.25
1015.35	211.23
1015.64	211.33
1015.92	211.40
1016.21	211.40
1016.50	211.35
1016.78	211.37
1017.07	211.38
1017.36	211.35
1017.64	211.22
1017.93	211.19
1018.22	211.06
1018.50	211.00
1018.79	210.95
1019.08	210.80
1019.36	210.81
1019.65	210.71
1019.93	210.85
1020.22	210.89
1020.51	210.93
1020.79	210.91
1021.08	209.40
1021.36	210.40
1021.65	210.90
1021.94	210.70
1022.22	211.05
1022.51	209.90
1022.79	213.50
1023.08	210.85
1023.36	213.85
1023.65	209.80
>>>>>End Processed Spectral Data<<<<<
