SpectraSuite Data File
++++++++++++++++++++++++++++++++++++
Date: Mon Feb 25 16:57:44 EST 2013
User: group
Dark Spectrum Present: No
Reference Spectrum Present: No
Number of Sampled Component Spectra: 1
Spectrometers: USB2E7196
Integration Time (usec): 104000 (USB2E7196)
Spectra Averaged: 20 (USB2E7196)
Boxcar Smoothing: 10 (USB2E7196)
Correct for Electrical Dark: No (USB2E7196)
Strobe/Lamp Enabled: No (USB2E7196)
Correct for Detector Non-linearity: No (USB2E7196)
Correct for Stray Light: No (USB2E7196)
Number of Pixels in Processed Spectrum: 2048
>>>>>Begin Processed Spectral Data<<<<<
339.09	0.00
339.48	200.40
339.86	199.70
340.24	202.15
340.63	203.45
341.01	209.15
341.39	205.85
341.78	207.50
342.16	210.00
342.54	209.05
342.93	198.85
343.31	208.88
343.69	209.34
344.07	209.87
344.46	210.31
344.84	210.71
345.22	210.80
345.60	211.05
345.99	211.26
346.37	211.31
346.75	211.42
347.13	211.46
347.52	211.57
347.90	211.68
348.28	211.73
348.66	211.78
349.05	211.64
349.43	211.70
349.81	211.76
350.19	211.80
350.57	211.84
350.96	211.88
351.34	211.95
351.72	212.06
352.10	212.13
352.48	212.15
352.87	212.08
353.25	212.11
353.63	212.15
354.01	212.20
354.39	212.30
354.77	212.33
355.15	212.40
355.54	212.34
355.92	212.19
356.30	212.20
356.68	212.40
357.06	212.51
357.44	212.46
357.82	212.49
358.20	212.55
358.58	212.56
358.97	212.60
359.35	212.68
359.73	212.80
360.11	212.84
360.49	212.87
360.87	212.96
361.25	213.02
361.63	213.19
362.01	213.17
362.39	213.18
362.77	213.30
363.15	213.32
363.53	213.36
363.91	213.49
364.29	213.51
364.67	213.30
365.05	213.34
365.43	213.35
365.81	213.40
366.19	213.50
366.57	213.61
366.95	213.69
367.33	213.61
367.71	213.56
368.09	213.53
368.47	213.50
368.85	213.48
369.23	213.57
369.61	213.35
369.99	213.40
370.37	213.47
370.75	213.55
371.13	213.43
371.51	213.36
371.89	213.40
372.27	213.48
372.65	213.44
373.03	213.35
373.41	213.33
373.78	213.27
374.16	213.08
374.54	212.96
374.92	212.90
375.30	212.86
375.68	212.81
376.06	212.89
376.44	212.90
376.82	212.93
377.19	212.87
377.57	212.88
377.95	212.79
378.33	212.68
378.71	212.43
379.09	212.57
379.47	212.55
379.84	212.44
380.22	212.31
380.60	212.20
380.98	212.25
381.36	212.20
381.73	212.09
382.11	212.16
382.49	212.12
382.87	211.99
383.25	212.02
383.62	212.33
384.00	212.17
384.38	212.07
384.76	212.08
385.13	212.18
385.51	212.16
385.89	212.15
386.27	212.10
386.64	212.18
387.02	212.06
387.40	212.09
387.78	212.10
388.15	212.17
388.53	212.18
388.91	212.12
389.29	212.03
389.66	212.12
390.04	212.01
390.42	212.10
390.79	212.07
391.17	212.08
391.55	211.73
391.92	211.81
392.30	211.82
392.68	211.76
393.05	211.68
393.43	211.69
393.81	211.68
394.18	211.61
394.56	211.59
394.94	211.65
395.31	211.65
395.69	211.69
396.06	211.75
396.44	211.80
396.82	211.80
397.19	212.09
397.57	212.04
397.95	212.10
398.32	212.04
398.70	212.14
399.07	212.28
399.45	212.28
399.82	212.24
400.20	212.30
400.58	212.35
400.95	212.31
401.33	212.47
401.70	212.77
402.08	212.91
402.45	213.07
402.83	213.25
403.20	213.38
403.58	213.50
403.95	213.63
404.33	213.81
404.71	213.99
405.08	214.33
405.46	214.67
405.83	215.04
406.21	215.25
406.58	215.63
406.96	215.88
407.33	216.29
407.70	216.74
408.08	217.49
408.45	218.00
408.83	218.60
409.20	219.04
409.58	219.41
409.95	220.08
410.33	220.76
410.70	221.38
411.08	222.04
411.45	222.90
411.82	223.73
412.20	224.75
412.57	225.95
412.95	226.69
413.32	227.75
413.69	228.84
414.07	230.15
414.44	231.49
414.82	232.94
415.19	234.62
415.56	236.32
415.94	237.92
416.31	239.95
416.68	241.96
417.06	244.33
417.43	246.58
417.81	249.05
418.18	251.61
418.55	254.40
418.93	257.43
419.30	260.46
419.67	263.65
420.04	266.93
420.42	270.35
420.79	274.58
421.16	278.80
421.54	283.12
421.91	287.52
422.28	292.05
422.66	296.95
423.03	301.74
423.40	306.72
423.77	312.15
424.15	317.55
424.52	323.20
424.89	329.40
425.26	335.42
425.64	341.24
426.01	347.60
426.38	354.19
426.75	360.99
427.13	367.93
427.50	375.21
427.87	383.05
428.24	390.60
428.61	397.85
428.99	405.94
429.36	414.69
429.73	423.40
430.10	432.15
430.47	441.04
430.85	450.20
431.22	459.94
431.59	470.38
431.96	480.35
432.33	491.54
432.70	502.27
433.08	514.89
433.45	526.83
433.82	538.71
434.19	552.02
434.56	565.05
434.93	577.80
435.30	590.58
435.68	604.55
436.05	618.77
436.42	632.88
436.79	645.89
437.16	659.80
437.53	674.49
437.90	689.05
438.27	703.47
438.64	718.64
439.01	732.74
439.38	745.29
439.75	757.63
440.13	771.45
440.50	784.66
440.87	795.70
441.24	807.16
441.61	819.75
441.98	829.38
442.35	840.40
442.72	851.44
443.09	862.07
443.46	868.92
443.83	873.89
444.20	878.20
444.57	884.06
444.94	887.39
445.31	890.97
445.68	894.55
446.05	896.66
446.42	896.30
446.79	895.71
447.16	894.92
447.53	894.78
447.90	890.64
448.27	886.32
448.64	879.87
449.01	875.41
449.37	866.78
449.74	858.41
450.11	848.43
450.48	837.24
450.85	825.94
451.22	816.34
451.59	806.95
451.96	798.03
452.33	785.86
452.70	775.11
453.07	761.82
453.43	748.23
453.80	735.22
454.17	722.87
454.54	711.06
454.91	698.45
455.28	685.77
455.65	674.05
456.02	662.50
456.38	652.60
456.75	640.21
457.12	630.12
457.49	620.01
457.86	610.06
458.23	601.53
458.59	592.11
458.96	582.57
459.33	574.22
459.70	566.00
460.07	559.29
460.43	551.51
460.80	544.35
461.17	537.98
461.54	531.40
461.91	525.07
462.27	518.71
462.64	513.08
463.01	506.97
463.38	501.29
463.74	495.47
464.11	490.41
464.48	486.03
464.85	481.02
465.21	477.23
465.58	473.24
465.95	468.46
466.32	464.53
466.68	460.61
467.05	456.65
467.42	452.55
467.78	448.45
468.15	444.55
468.52	441.63
468.88	437.74
469.25	434.13
469.62	431.18
469.98	428.08
470.35	425.26
470.72	422.65
471.08	419.64
471.45	417.09
471.82	414.53
472.18	411.66
472.55	409.72
472.92	407.35
473.28	405.19
473.65	403.21
474.02	401.20
474.38	399.57
474.75	398.10
475.11	396.64
475.48	395.44
475.85	394.36
476.21	393.11
476.58	392.27
476.94	391.75
477.31	390.96
477.67	390.22
478.04	389.64
478.41	389.23
478.77	389.13
479.14	388.66
479.50	388.49
479.87	388.60
480.23	388.68
480.60	388.63
480.96	388.60
481.33	389.24
481.69	389.72
482.06	389.99
482.42	390.31
482.79	390.63
483.15	391.30
483.52	392.26
483.88	393.07
484.25	393.86
484.61	394.62
484.98	395.58
485.34	396.93
485.71	398.34
486.07	399.85
486.44	401.05
486.80	402.66
487.17	404.38
487.53	406.34
487.90	408.28
488.26	410.47
488.62	412.78
488.99	414.75
489.35	416.99
489.72	419.55
490.08	422.27
490.44	424.90
490.81	427.72
491.17	430.40
491.54	433.58
491.90	436.67
492.26	439.93
492.63	443.35
492.99	446.78
493.36	450.39
493.72	454.15
494.08	458.00
494.45	462.17
494.81	466.37
495.17	470.48
495.54	474.95
495.90	479.45
496.26	483.98
496.63	488.80
496.99	493.68
497.35	498.67
497.72	503.84
498.08	509.11
498.44	514.30
498.80	519.82
499.17	525.38
499.53	531.08
499.89	536.86
500.26	542.68
500.62	548.41
500.98	554.22
501.34	560.20
501.71	566.25
502.07	572.26
502.43	578.30
502.79	584.30
503.16	590.24
503.52	596.24
503.88	602.44
504.24	608.44
504.60	614.58
504.97	620.86
505.33	626.85
505.69	633.42
506.05	639.71
506.41	645.75
506.78	651.59
507.14	657.59
507.50	663.58
507.86	669.47
508.22	675.39
508.59	681.24
508.95	687.04
509.31	692.98
509.67	698.72
510.03	704.56
510.39	710.50
510.75	716.23
511.12	721.88
511.48	727.42
511.84	733.03
512.20	738.31
512.56	743.68
512.92	749.05
513.28	754.08
513.64	759.14
514.00	764.20
514.37	769.21
514.73	774.33
515.09	779.22
515.45	783.98
515.81	788.62
516.17	793.26
516.53	797.63
516.89	801.72
517.25	805.95
517.61	809.99
517.97	813.79
518.33	817.54
518.69	821.41
519.05	825.15
519.41	829.00
519.77	832.92
520.13	836.31
520.49	839.66
520.85	843.00
521.21	846.56
521.57	850.07
521.93	853.03
522.29	856.14
522.65	859.18
523.01	862.10
523.37	864.79
523.73	867.73
524.09	870.58
524.45	873.57
524.81	876.42
525.17	879.28
525.53	882.35
525.89	885.07
526.25	887.56
526.61	889.85
526.97	892.01
527.33	894.34
527.68	897.05
528.04	899.42
528.40	901.49
528.76	903.50
529.12	905.75
529.48	908.48
529.84	910.68
530.20	912.91
530.56	915.13
530.91	917.80
531.27	920.12
531.63	922.38
531.99	924.62
532.35	926.66
532.71	928.66
533.07	930.80
533.42	933.31
533.78	935.85
534.14	938.30
534.50	940.34
534.86	942.80
535.21	944.53
535.57	947.05
535.93	949.45
536.29	951.95
536.65	954.20
537.00	955.91
537.36	957.81
537.72	959.87
538.08	962.00
538.44	963.95
538.79	966.15
539.15	968.21
539.51	970.49
539.87	973.15
540.22	975.32
540.58	978.06
540.94	980.26
541.29	982.15
541.65	983.82
542.01	986.05
542.37	988.07
542.72	990.12
543.08	991.86
543.44	994.04
543.79	995.49
544.15	997.20
544.51	999.51
544.87	1001.82
545.22	1003.67
545.58	1005.57
545.94	1007.17
546.29	1008.65
546.65	1010.17
547.01	1011.54
547.36	1012.68
547.72	1014.16
548.07	1015.06
548.43	1016.18
548.79	1017.29
549.14	1018.91
549.50	1020.22
549.86	1021.09
550.21	1022.52
550.57	1024.18
550.92	1025.02
551.28	1026.53
551.64	1027.86
551.99	1029.10
552.35	1030.16
552.70	1031.40
553.06	1032.71
553.41	1033.96
553.77	1035.45
554.13	1037.06
554.48	1038.71
554.84	1040.40
555.19	1041.94
555.55	1043.37
555.90	1044.41
556.26	1045.81
556.61	1046.77
556.97	1047.91
557.32	1049.28
557.68	1050.15
558.03	1050.85
558.39	1051.93
558.74	1052.80
559.10	1053.89
559.45	1054.85
559.81	1056.00
560.16	1056.86
560.52	1057.90
560.87	1059.00
561.23	1059.33
561.58	1060.20
561.94	1060.43
562.29	1060.58
562.64	1061.03
563.00	1061.52
563.35	1062.40
563.71	1063.41
564.06	1064.43
564.42	1065.50
564.77	1066.45
565.12	1067.43
565.48	1068.35
565.83	1069.38
566.19	1070.51
566.54	1071.04
566.89	1071.49
567.25	1072.41
567.60	1073.31
567.96	1074.06
568.31	1074.88
568.66	1075.64
569.02	1075.65
569.37	1075.77
569.72	1076.13
570.08	1076.34
570.43	1076.53
570.78	1076.46
571.14	1076.13
571.49	1075.75
571.84	1075.43
572.20	1074.78
572.55	1074.32
572.90	1073.59
573.26	1072.70
573.61	1071.89
573.96	1070.93
574.31	1069.84
574.67	1068.32
575.02	1066.84
575.37	1064.97
575.72	1063.03
576.08	1061.80
576.43	1060.49
576.78	1059.31
577.13	1058.14
577.49	1056.70
577.84	1054.98
578.19	1053.74
578.54	1052.43
578.90	1051.10
579.25	1049.22
579.60	1047.38
579.95	1045.33
580.30	1043.66
580.66	1041.98
581.01	1039.72
581.36	1037.44
581.71	1035.41
582.06	1033.53
582.42	1031.58
582.77	1029.51
583.12	1027.56
583.47	1025.30
583.82	1023.10
584.17	1021.01
584.53	1018.71
584.88	1016.25
585.23	1014.15
585.58	1011.62
585.93	1009.00
586.28	1006.77
586.63	1004.53
586.98	1002.54
587.34	1000.63
587.69	997.92
588.04	995.30
588.39	993.12
588.74	990.75
589.09	988.49
589.44	985.70
589.79	983.29
590.14	981.07
590.49	978.60
590.84	976.01
591.19	973.86
591.54	971.21
591.89	968.21
592.25	965.87
592.60	962.87
592.95	959.88
593.30	956.92
593.65	953.58
594.00	950.43
594.35	948.51
594.70	945.30
595.05	942.80
595.40	940.03
595.75	936.87
596.10	934.26
596.45	931.44
596.80	928.96
597.15	926.35
597.50	923.21
597.85	920.40
598.19	917.59
598.54	914.39
598.89	911.35
599.24	908.79
599.59	905.79
599.94	903.02
600.29	900.26
600.64	897.50
600.99	894.63
601.34	892.09
601.69	887.95
602.04	884.72
602.39	881.59
602.74	878.65
603.08	876.05
603.43	873.51
603.78	870.35
604.13	867.29
604.48	864.23
604.83	861.76
605.18	859.12
605.53	855.96
605.87	852.90
606.22	850.13
606.57	847.00
606.92	843.90
607.27	840.73
607.62	837.77
607.96	834.73
608.31	832.16
608.66	828.83
609.01	825.65
609.36	822.75
609.70	819.59
610.05	816.33
610.40	812.99
610.75	809.26
611.10	806.30
611.44	802.40
611.79	798.63
612.14	795.01
612.49	791.16
612.83	787.80
613.18	784.15
613.53	780.50
613.88	776.84
614.22	773.29
614.57	769.86
614.92	766.36
615.27	762.88
615.61	759.18
615.96	755.89
616.31	752.65
616.65	749.64
617.00	746.22
617.35	742.83
617.70	739.35
618.04	735.83
618.39	731.98
618.74	728.96
619.08	725.80
619.43	722.34
619.78	719.15
620.12	716.10
620.47	713.05
620.82	709.69
621.16	706.17
621.51	703.03
621.85	699.71
622.20	696.30
622.55	692.91
622.89	689.35
623.24	685.90
623.59	682.48
623.93	678.90
624.28	675.68
624.62	672.70
624.97	669.47
625.32	666.29
625.66	663.43
626.01	660.27
626.35	657.20
626.70	654.11
627.04	651.04
627.39	647.81
627.73	644.76
628.08	642.04
628.43	639.10
628.77	636.01
629.12	632.94
629.46	630.03
629.81	627.20
630.15	624.43
630.50	621.59
630.84	618.51
631.19	615.64
631.53	612.67
631.88	609.39
632.22	606.37
632.57	603.79
632.91	600.94
633.26	598.12
633.60	595.23
633.95	592.60
634.29	589.86
634.64	587.06
634.98	584.16
635.32	581.40
635.67	578.94
636.01	576.29
636.36	573.62
636.70	571.05
637.05	568.30
637.39	565.93
637.73	563.49
638.08	561.39
638.42	558.96
638.77	556.66
639.11	554.30
639.45	551.90
639.80	549.11
640.14	546.41
640.49	543.77
640.83	541.18
641.17	538.53
641.52	535.92
641.86	533.46
642.20	531.17
642.55	528.40
642.89	525.87
643.23	523.33
643.58	521.02
643.92	518.40
644.26	516.03
644.61	513.52
644.95	510.96
645.29	508.35
645.64	505.88
645.98	503.34
646.32	501.09
646.66	498.62
647.01	496.42
647.35	494.24
647.69	491.85
648.04	489.71
648.38	487.38
648.72	485.01
649.06	482.53
649.41	479.97
649.75	477.75
650.09	475.45
650.43	473.05
650.78	470.60
651.12	468.35
651.46	465.99
651.80	463.70
652.14	461.67
652.49	459.52
652.83	457.32
653.17	455.08
653.51	452.70
653.85	450.76
654.20	448.63
654.54	446.45
654.88	444.27
655.22	441.99
655.56	439.69
655.90	437.51
656.25	435.41
656.59	433.46
656.93	431.43
657.27	429.45
657.61	427.33
657.95	425.48
658.29	423.52
658.64	421.66
658.98	419.65
659.32	417.30
659.66	415.23
660.00	413.16
660.34	411.11
660.68	409.10
661.02	407.01
661.36	405.03
661.70	403.19
662.05	401.49
662.39	399.88
662.73	398.40
663.07	396.95
663.41	395.32
663.75	393.45
664.09	391.63
664.43	389.75
664.77	388.16
665.11	386.35
665.45	384.70
665.79	383.11
666.13	381.47
666.47	379.93
666.81	378.30
667.15	376.75
667.49	375.33
667.83	373.95
668.17	372.43
668.51	370.89
668.85	369.41
669.19	368.06
669.53	366.44
669.87	364.74
670.21	363.10
670.55	361.65
670.89	360.60
671.23	359.42
671.57	358.21
671.91	356.92
672.25	355.60
672.58	354.24
672.92	352.90
673.26	351.67
673.60	350.52
673.94	349.25
674.28	347.89
674.62	346.65
674.96	345.39
675.30	344.15
675.64	343.00
675.97	341.78
676.31	340.56
676.65	339.37
676.99	338.45
677.33	337.26
677.67	336.11
678.01	334.78
678.34	333.56
678.68	332.37
679.02	331.10
679.36	329.96
679.70	328.89
680.04	327.75
680.37	326.58
680.71	325.43
681.05	324.40
681.39	323.34
681.73	322.23
682.06	321.30
682.40	320.28
682.74	319.23
683.08	318.29
683.42	317.08
683.75	316.17
684.09	314.99
684.43	313.96
684.77	312.86
685.10	311.85
685.44	310.87
685.78	309.84
686.12	309.04
686.45	308.04
686.79	307.00
687.13	306.09
687.46	305.16
687.80	304.27
688.14	303.28
688.48	302.45
688.81	301.62
689.15	300.68
689.49	299.73
689.82	298.88
690.16	297.87
690.50	297.01
690.83	295.97
691.17	295.13
691.51	294.19
691.84	293.35
692.18	292.44
692.52	291.53
692.85	290.77
693.19	290.08
693.52	289.28
693.86	288.43
694.20	287.63
694.53	286.88
694.87	286.04
695.21	285.26
695.54	284.49
695.88	283.56
696.21	282.66
696.55	281.96
696.88	281.18
697.22	280.43
697.56	279.74
697.89	279.05
698.23	278.33
698.56	277.62
698.90	277.02
699.23	276.34
699.57	275.67
699.90	274.93
700.24	274.04
700.58	273.34
700.91	272.73
701.25	272.26
701.58	271.63
701.92	270.99
702.25	270.32
702.59	269.59
702.92	268.97
703.26	268.33
703.59	267.70
703.93	267.36
704.26	266.82
704.60	266.19
704.93	265.61
705.26	264.88
705.60	264.42
705.93	263.81
706.27	263.39
706.60	262.91
706.94	262.50
707.27	261.94
707.61	261.42
707.94	260.85
708.27	260.11
708.61	259.50
708.94	259.00
709.28	258.45
709.61	257.94
709.94	257.54
710.28	257.09
710.61	256.70
710.95	255.94
711.28	255.67
711.61	255.27
711.95	254.88
712.28	254.47
712.61	253.90
712.95	253.58
713.28	253.16
713.61	252.73
713.95	252.14
714.28	251.71
714.61	251.39
714.95	250.96
715.28	250.48
715.61	250.10
715.95	249.73
716.28	249.37
716.61	249.05
716.95	248.54
717.28	248.14
717.61	247.70
717.94	247.27
718.28	246.64
718.61	246.31
718.94	245.85
719.27	245.51
719.61	245.25
719.94	244.83
720.27	244.31
720.60	243.91
720.94	243.67
721.27	243.33
721.60	243.03
721.93	242.70
722.27	242.58
722.60	242.33
722.93	241.99
723.26	241.74
723.59	241.40
723.93	241.21
724.26	240.99
724.59	240.67
724.92	240.51
725.25	240.27
725.59	239.88
725.92	239.67
726.25	239.42
726.58	239.18
726.91	238.90
727.24	238.77
727.57	238.45
727.91	238.13
728.24	237.91
728.57	237.59
728.90	237.37
729.23	236.90
729.56	236.75
729.89	236.44
730.22	236.07
730.55	235.83
730.89	235.52
731.22	235.22
731.55	234.91
731.88	234.63
732.21	234.31
732.54	234.08
732.87	233.82
733.20	233.64
733.53	233.37
733.86	233.12
734.19	232.85
734.52	232.68
734.85	232.70
735.18	232.42
735.51	232.31
735.84	232.17
736.17	232.10
736.50	231.80
736.83	232.05
737.16	231.91
737.49	231.75
737.82	231.57
738.15	231.44
738.48	231.24
738.81	230.98
739.14	230.74
739.47	230.54
739.80	230.34
740.13	230.14
740.46	229.91
740.79	229.69
741.12	229.49
741.45	229.30
741.78	228.92
742.11	228.86
742.44	228.58
742.77	228.48
743.10	228.23
743.43	227.97
743.75	227.36
744.08	227.66
744.41	227.42
744.74	227.21
745.07	226.94
745.40	226.86
745.73	226.80
746.06	226.74
746.39	226.67
746.71	226.46
747.04	226.27
747.37	226.03
747.70	225.94
748.03	225.80
748.36	225.66
748.68	225.55
749.01	225.35
749.34	225.14
749.67	225.00
750.00	224.96
750.33	225.08
750.65	225.07
750.98	224.48
751.31	224.35
751.64	224.24
751.97	224.34
752.29	224.18
752.62	223.94
752.95	223.73
753.28	223.54
753.60	223.45
753.93	223.41
754.26	223.34
754.59	223.12
754.91	222.90
755.24	222.82
755.57	222.68
755.90	222.48
756.22	222.42
756.55	222.14
756.88	221.93
757.20	221.54
757.53	221.28
757.86	221.19
758.19	221.10
758.51	220.94
758.84	220.63
759.17	220.55
759.49	220.50
759.82	220.57
760.15	220.47
760.47	220.36
760.80	220.12
761.13	220.08
761.45	220.03
761.78	219.93
762.11	219.79
762.43	219.66
762.76	219.57
763.08	219.55
763.41	219.52
763.74	219.43
764.06	219.32
764.39	219.28
764.71	219.18
765.04	219.07
765.37	219.01
765.69	218.95
766.02	218.80
766.34	218.70
766.67	218.45
767.00	218.51
767.32	218.64
767.65	218.79
767.97	218.70
768.30	218.65
768.62	218.67
768.95	218.55
769.27	218.45
769.60	218.46
769.92	218.30
770.25	218.14
770.57	217.96
770.90	217.94
771.22	217.81
771.55	217.74
771.87	217.70
772.20	217.59
772.52	217.74
772.85	218.05
773.17	217.95
773.50	217.90
773.82	217.72
774.15	217.48
774.47	217.21
774.80	217.16
775.12	217.03
775.45	216.89
775.77	216.86
776.09	216.80
776.42	216.75
776.74	216.82
777.07	216.68
777.39	216.75
777.72	216.66
778.04	216.67
778.36	216.56
778.69	216.56
779.01	216.64
779.33	216.35
779.66	215.98
779.98	215.89
780.31	215.83
780.63	215.98
780.95	215.95
781.28	215.84
781.60	215.71
781.92	215.74
782.25	215.67
782.57	215.62
782.89	215.57
783.22	215.49
783.54	215.30
783.86	215.40
784.19	215.28
784.51	215.32
784.83	215.21
785.16	215.17
785.48	215.11
785.80	215.01
786.12	215.00
786.45	214.97
786.77	215.00
787.09	215.02
787.42	214.76
787.74	214.80
788.06	214.86
788.38	214.94
788.71	214.75
789.03	214.81
789.35	214.88
789.67	214.85
789.99	214.90
790.32	214.91
790.64	214.88
790.96	215.18
791.28	215.03
791.61	215.04
791.93	215.04
792.25	214.94
792.57	215.18
792.89	215.12
793.21	215.08
793.54	215.02
793.86	214.94
794.18	214.92
794.50	214.83
794.82	214.78
795.14	214.73
795.47	214.86
795.79	214.76
796.11	214.59
796.43	214.50
796.75	214.39
797.07	214.33
797.39	214.33
797.71	214.02
798.04	214.00
798.36	214.02
798.68	213.98
799.00	214.02
799.32	213.78
799.64	213.84
799.96	213.89
800.28	213.99
800.60	213.93
800.92	213.98
801.24	213.92
801.56	213.92
801.89	213.85
802.21	213.81
802.53	213.73
802.85	213.80
803.17	213.94
803.49	213.97
803.81	214.02
804.13	213.97
804.45	213.93
804.77	213.95
805.09	213.86
805.41	213.86
805.73	213.80
806.05	213.75
806.37	213.69
806.69	213.57
807.01	213.49
807.33	213.52
807.65	213.38
807.97	213.57
808.28	213.54
808.60	213.49
808.92	213.43
809.24	213.73
809.56	213.67
809.88	213.54
810.20	213.53
810.52	213.54
810.84	213.48
811.16	213.42
811.48	213.45
811.80	213.60
812.12	213.51
812.43	213.56
812.75	213.48
813.07	213.45
813.39	213.47
813.71	213.41
814.03	213.41
814.35	213.36
814.67	213.20
814.98	213.20
815.30	213.25
815.62	213.19
815.94	212.85
816.26	212.90
816.58	212.81
816.89	212.76
817.21	212.63
817.53	212.68
817.85	212.68
818.17	212.60
818.48	212.43
818.80	212.50
819.12	212.37
819.44	212.33
819.76	212.24
820.07	212.20
820.39	212.13
820.71	212.16
821.03	212.10
821.34	212.07
821.66	212.08
821.98	212.13
822.30	212.18
822.61	212.40
822.93	212.32
823.25	212.27
823.57	212.23
823.88	212.28
824.20	212.19
824.52	212.24
824.83	212.22
825.15	212.10
825.47	212.04
825.79	212.12
826.10	212.10
826.42	212.12
826.74	212.16
827.05	212.19
827.37	212.12
827.69	212.15
828.00	212.14
828.32	212.12
828.64	211.96
828.95	212.04
829.27	211.94
829.58	211.96
829.90	212.08
830.22	212.14
830.53	212.06
830.85	212.02
831.17	211.92
831.48	211.94
831.80	212.00
832.11	211.99
832.43	211.94
832.75	211.93
833.06	212.09
833.38	212.03
833.69	212.02
834.01	212.12
834.32	212.16
834.64	212.06
834.96	212.02
835.27	212.06
835.59	211.97
835.90	211.89
836.22	211.84
836.53	211.78
836.85	211.71
837.16	212.03
837.48	212.07
837.79	212.24
838.11	212.19
838.42	212.25
838.74	212.31
839.05	212.30
839.37	212.25
839.68	212.05
840.00	211.99
840.31	212.02
840.63	211.92
840.94	211.80
841.26	211.81
841.57	211.87
841.88	211.88
842.20	211.83
842.51	211.80
842.83	211.81
843.14	212.15
843.46	212.15
843.77	211.97
844.08	211.91
844.40	211.72
844.71	211.76
845.03	211.67
845.34	211.61
845.65	211.60
845.97	211.62
846.28	211.63
846.60	211.67
846.91	211.59
847.22	211.59
847.54	211.74
847.85	211.78
848.16	211.74
848.48	211.69
848.79	211.83
849.10	211.90
849.42	211.88
849.73	211.58
850.04	211.52
850.36	211.35
850.67	211.50
850.98	211.58
851.30	211.54
851.61	211.55
851.92	211.57
852.23	211.61
852.55	211.63
852.86	211.62
853.17	211.66
853.49	211.75
853.80	211.81
854.11	211.81
854.42	211.89
854.74	211.88
855.05	211.91
855.36	211.71
855.67	211.73
855.99	211.81
856.30	212.17
856.61	212.22
856.92	212.27
857.23	212.17
857.55	212.08
857.86	212.06
858.17	212.13
858.48	212.07
858.79	212.03
859.11	212.08
859.42	212.05
859.73	212.03
860.04	212.01
860.35	211.95
860.66	211.82
860.98	211.72
861.29	211.75
861.60	211.69
861.91	211.77
862.22	211.72
862.53	211.64
862.84	211.21
863.16	211.27
863.47	211.26
863.78	211.31
864.09	211.35
864.40	211.35
864.71	211.34
865.02	211.43
865.33	211.42
865.64	211.38
865.95	211.39
866.27	211.56
866.58	211.50
866.89	211.49
867.20	211.55
867.51	211.55
867.82	211.47
868.13	211.55
868.44	211.44
868.75	211.54
869.06	211.52
869.37	211.60
869.68	211.48
869.99	211.53
870.30	211.48
870.61	211.52
870.92	211.56
871.23	211.51
871.54	211.56
871.85	211.62
872.16	211.61
872.47	211.60
872.78	211.41
873.09	211.51
873.40	211.47
873.71	211.49
874.02	211.55
874.33	211.52
874.64	211.46
874.95	211.52
875.26	211.42
875.56	211.42
875.87	211.34
876.18	211.31
876.49	211.57
876.80	211.57
877.11	211.53
877.42	211.53
877.73	211.56
878.04	211.51
878.35	211.55
878.66	211.57
878.96	211.60
879.27	211.60
879.58	211.56
879.89	211.54
880.20	211.62
880.51	211.59
880.82	211.60
881.12	211.62
881.43	211.55
881.74	211.49
882.05	211.45
882.36	211.49
882.67	211.53
882.97	211.26
883.28	211.23
883.59	211.21
883.90	211.20
884.21	211.26
884.51	211.20
884.82	211.09
885.13	211.11
885.44	211.09
885.74	211.12
886.05	211.07
886.36	211.10
886.67	210.95
886.98	211.12
887.28	211.17
887.59	211.15
887.90	211.19
888.20	211.19
888.51	211.23
888.82	211.16
889.13	211.19
889.43	211.38
889.74	211.39
890.05	211.45
890.35	211.45
890.66	211.38
890.97	211.39
891.28	211.35
891.58	211.35
891.89	211.40
892.20	211.30
892.50	211.23
892.81	211.23
893.12	211.25
893.42	211.12
893.73	211.14
894.04	211.18
894.34	211.20
894.65	211.21
894.95	211.20
895.26	211.23
895.57	211.34
895.87	211.12
896.18	211.20
896.48	211.20
896.79	211.16
897.10	211.17
897.40	211.17
897.71	211.29
898.01	211.27
898.32	211.26
898.63	211.31
898.93	211.36
899.24	211.40
899.54	211.34
899.85	211.28
900.15	211.32
900.46	211.36
900.76	211.42
901.07	211.39
901.38	211.37
901.68	211.38
901.99	211.21
902.29	211.09
902.60	211.03
902.90	211.01
903.21	211.00
903.51	211.00
903.82	211.01
904.12	210.98
904.43	211.01
904.73	211.01
905.03	210.98
905.34	211.38
905.64	211.29
905.95	211.30
906.25	211.31
906.56	211.27
906.86	211.22
907.17	211.18
907.47	211.24
907.77	211.22
908.08	211.21
908.38	211.29
908.69	211.42
908.99	211.45
909.30	211.47
909.60	211.51
909.90	211.49
910.21	211.43
910.51	211.39
910.81	211.32
911.12	211.36
911.42	211.36
911.73	210.98
912.03	211.11
912.33	211.22
912.64	211.25
912.94	211.19
913.24	211.15
913.55	211.06
913.85	211.06
914.15	211.19
914.46	211.24
914.76	211.24
915.06	211.15
915.37	211.15
915.67	211.11
915.97	211.06
916.27	211.04
916.58	211.10
916.88	211.11
917.18	211.11
917.49	211.30
917.79	211.28
918.09	211.30
918.39	211.34
918.70	211.28
919.00	211.21
919.30	211.36
919.60	211.32
919.91	211.34
920.21	211.31
920.51	211.22
920.81	211.16
921.12	211.20
921.42	211.23
921.72	211.32
922.02	211.27
922.32	211.36
922.63	211.36
922.93	211.52
923.23	211.53
923.53	211.45
923.83	211.20
924.13	211.26
924.44	211.24
924.74	211.30
925.04	211.42
925.34	211.40
925.64	211.28
925.94	211.28
926.24	211.47
926.55	211.40
926.85	211.45
927.15	211.43
927.45	211.38
927.75	211.40
928.05	211.30
928.35	211.33
928.65	211.40
928.95	211.41
929.26	211.18
929.56	211.23
929.86	211.35
930.16	211.33
930.46	211.35
930.76	211.37
931.06	211.19
931.36	211.07
931.66	211.14
931.96	211.21
932.26	211.19
932.56	211.02
932.86	211.11
933.16	211.08
933.46	211.09
933.76	211.05
934.06	211.12
934.36	211.29
934.66	211.24
934.96	211.10
935.26	211.17
935.56	211.30
935.86	211.20
936.16	211.14
936.46	211.16
936.76	211.06
937.06	211.03
937.36	211.03
937.66	210.99
937.96	210.98
938.26	210.94
938.56	210.94
938.86	210.99
939.16	211.04
939.46	211.05
939.76	211.14
940.06	211.15
940.35	211.09
940.65	210.91
940.95	210.94
941.25	210.93
941.55	210.92
941.85	210.83
942.15	210.96
942.45	211.10
942.75	211.12
943.04	211.23
943.34	211.27
943.64	211.25
943.94	211.26
944.24	211.24
944.54	211.22
944.84	211.26
945.13	211.25
945.43	211.22
945.73	211.20
946.03	211.11
946.33	211.10
946.62	211.04
946.92	210.98
947.22	211.02
947.52	211.10
947.82	211.08
948.11	211.03
948.41	210.90
948.71	210.73
949.01	210.81
949.31	210.73
949.60	210.75
949.90	210.87
950.20	210.85
950.50	210.81
950.79	210.78
951.09	210.76
951.39	210.80
951.69	210.78
951.98	210.87
952.28	210.91
952.58	210.93
952.87	210.94
953.17	211.00
953.47	211.01
953.76	211.01
954.06	211.05
954.36	211.06
954.66	211.09
954.95	211.22
955.25	211.20
955.55	211.23
955.84	211.23
956.14	211.16
956.44	211.25
956.73	211.25
957.03	211.28
957.32	211.35
957.62	211.25
957.92	211.29
958.21	211.27
958.51	211.72
958.81	211.75
959.10	211.82
959.40	211.89
959.69	211.93
959.99	211.89
960.29	211.85
960.58	211.80
960.88	211.93
961.17	211.89
961.47	211.88
961.76	211.84
962.06	211.85
962.36	211.91
962.65	211.90
962.95	211.94
963.24	211.95
963.54	211.90
963.83	211.98
964.13	212.01
964.42	211.91
964.72	211.51
965.01	211.51
965.31	211.48
965.60	211.39
965.90	211.59
966.19	211.62
966.49	211.66
966.78	211.73
967.08	211.67
967.37	211.66
967.67	211.60
967.96	211.68
968.26	211.62
968.55	211.60
968.85	211.63
969.14	211.58
969.43	211.55
969.73	211.52
970.02	211.51
970.32	211.44
970.61	211.49
970.91	211.40
971.20	211.34
971.49	211.32
971.79	211.30
972.08	211.07
972.38	211.05
972.67	210.96
972.96	211.03
973.26	210.95
973.55	211.10
973.85	211.11
974.14	211.09
974.43	211.12
974.73	211.09
975.02	211.05
975.31	211.13
975.61	211.13
975.90	211.15
976.19	211.15
976.49	211.20
976.78	211.22
977.07	211.27
977.37	211.27
977.66	211.34
977.95	211.32
978.24	211.30
978.54	211.40
978.83	211.39
979.12	211.33
979.42	211.33
979.71	211.27
980.00	211.27
980.29	211.32
980.59	211.28
980.88	211.43
981.17	211.43
981.46	211.31
981.76	211.25
982.05	211.32
982.34	211.35
982.63	211.34
982.93	211.35
983.22	211.42
983.51	211.50
983.80	211.62
984.09	211.75
984.39	211.66
984.68	211.54
984.97	211.56
985.26	211.49
985.55	211.55
985.85	211.46
986.14	211.43
986.43	211.39
986.72	211.43
987.01	211.19
987.30	211.18
987.59	211.28
987.89	211.32
988.18	211.19
988.47	211.14
988.76	211.14
989.05	211.07
989.34	210.95
989.63	210.96
989.92	210.84
990.22	210.73
990.51	210.80
990.80	210.79
991.09	210.75
991.38	210.86
991.67	210.83
991.96	210.72
992.25	210.74
992.54	210.72
992.83	210.68
993.12	210.65
993.41	210.64
993.70	210.71
993.99	210.76
994.28	210.85
994.58	210.85
994.87	210.85
995.16	210.85
995.45	210.87
995.74	210.74
996.03	210.72
996.32	210.81
996.61	210.90
996.90	210.92
997.19	210.95
997.48	210.91
997.77	210.85
998.06	210.91
998.34	210.86
998.63	210.86
998.92	210.87
999.21	210.97
999.50	211.00
999.79	210.93
1000.08	210.97
1000.37	210.96
1000.66	210.89
1000.95	210.88
1001.24	210.89
1001.53	210.90
1001.82	210.93
1002.11	210.92
1002.40	210.92
1002.68	210.96
1002.97	211.15
1003.26	211.16
1003.55	211.09
1003.84	211.11
1004.13	211.21
1004.42	211.20
1004.71	211.16
1004.99	211.16
1005.28	211.30
1005.57	211.27
1005.86	211.20
1006.15	211.07
1006.44	211.01
1006.72	211.06
1007.01	210.96
1007.30	210.94
1007.59	211.01
1007.88	210.96
1008.17	210.98
1008.45	210.85
1008.74	210.72
1009.03	210.59
1009.32	210.60
1009.60	210.61
1009.89	210.58
1010.18	210.51
1010.47	210.51
1010.76	210.55
1011.04	210.43
1011.33	210.36
1011.62	210.41
1011.91	210.47
1012.19	210.54
1012.48	210.56
1012.77	210.62
1013.05	210.85
1013.34	210.87
1013.63	210.77
1013.92	210.86
1014.20	210.81
1014.49	210.89
1014.78	210.94
1015.06	210.86
1015.35	210.80
1015.64	210.87
1015.92	210.89
1016.21	210.77
1016.50	210.73
1016.78	210.79
1017.07	210.94
1017.36	210.88
1017.64	210.82
1017.93	210.83
1018.22	210.80
1018.50	210.82
1018.79	210.75
1019.08	210.58
1019.36	210.66
1019.65	210.64
1019.93	210.68
1020.22	210.68
1020.51	210.82
1020.79	210.79
1021.08	210.45
1021.36	211.00
1021.65	210.05
1021.94	211.05
1022.22	211.60
1022.51	209.95
1022.79	212.30
1023.08	210.40
1023.36	214.20
1023.65	210.90
>>>>>End Processed Spectral Data<<<<<
