SpectraSuite Data File
++++++++++++++++++++++++++++++++++++
Date: Mon Feb 25 16:58:08 EST 2013
User: group
Dark Spectrum Present: No
Reference Spectrum Present: No
Number of Sampled Component Spectra: 1
Spectrometers: USB2E7196
Integration Time (usec): 104000 (USB2E7196)
Spectra Averaged: 20 (USB2E7196)
Boxcar Smoothing: 10 (USB2E7196)
Correct for Electrical Dark: No (USB2E7196)
Strobe/Lamp Enabled: No (USB2E7196)
Correct for Detector Non-linearity: No (USB2E7196)
Correct for Stray Light: No (USB2E7196)
Number of Pixels in Processed Spectrum: 2048
>>>>>Begin Processed Spectral Data<<<<<
339.09	0.00
339.48	197.00
339.86	199.75
340.24	201.10
340.63	201.60
341.01	208.90
341.39	204.45
341.78	208.60
342.16	208.30
342.54	208.65
342.93	197.78
343.31	207.75
343.69	208.36
344.07	208.80
344.46	209.33
344.84	209.74
345.22	209.82
345.60	210.16
345.99	210.24
346.37	210.34
346.75	210.43
347.13	210.48
347.52	210.51
347.90	210.65
348.28	210.60
348.66	210.71
349.05	210.70
349.43	210.81
349.81	210.87
350.19	210.89
350.57	210.88
350.96	211.08
351.34	211.19
351.72	211.27
352.10	211.42
352.48	211.41
352.87	211.44
353.25	211.49
353.63	211.58
354.01	211.64
354.39	211.79
354.77	211.93
355.15	212.14
355.54	212.26
355.92	212.27
356.30	212.48
356.68	212.79
357.06	212.89
357.44	212.92
357.82	212.96
358.20	213.09
358.58	213.15
358.97	213.20
359.35	213.33
359.73	213.46
360.11	213.55
360.49	213.68
360.87	213.84
361.25	213.94
361.63	214.03
362.01	214.17
362.39	214.13
362.77	214.13
363.15	214.21
363.53	214.30
363.91	214.38
364.29	214.39
364.67	214.10
365.05	214.19
365.43	214.26
365.81	214.34
366.19	214.46
366.57	214.64
366.95	214.73
367.33	214.67
367.71	214.63
368.09	214.66
368.47	214.64
368.85	214.53
369.23	214.62
369.61	214.48
369.99	214.56
370.37	214.68
370.75	214.88
371.13	214.73
371.51	214.56
371.89	214.54
372.27	214.54
372.65	214.54
373.03	214.48
373.41	214.41
373.78	214.42
374.16	214.17
374.54	214.03
374.92	213.92
375.30	213.89
375.68	213.82
376.06	213.83
376.44	213.75
376.82	213.74
377.19	213.65
377.57	213.58
377.95	213.39
378.33	213.22
378.71	212.96
379.09	212.96
379.47	213.01
379.84	212.94
380.22	212.83
380.60	212.71
380.98	212.54
381.36	212.50
381.73	212.38
382.11	212.50
382.49	212.48
382.87	212.39
383.25	212.36
383.62	212.65
384.00	212.51
384.38	212.45
384.76	212.50
385.13	212.55
385.51	212.58
385.89	212.45
386.27	212.46
386.64	212.47
387.02	212.41
387.40	212.36
387.78	212.42
388.15	212.37
388.53	212.37
388.91	212.40
389.29	212.32
389.66	212.35
390.04	212.18
390.42	212.19
390.79	212.22
391.17	212.19
391.55	211.90
391.92	211.83
392.30	211.82
392.68	211.72
393.05	211.74
393.43	211.69
393.81	211.76
394.18	211.75
394.56	211.74
394.94	211.85
395.31	211.75
395.69	211.73
396.06	211.83
396.44	211.89
396.82	211.90
397.19	212.18
397.57	212.13
397.95	212.22
398.32	212.18
398.70	212.10
399.07	212.21
399.45	212.20
399.82	212.31
400.20	212.30
400.58	212.36
400.95	212.29
401.33	212.44
401.70	212.72
402.08	212.78
402.45	212.93
402.83	213.03
403.20	213.23
403.58	213.35
403.95	213.54
404.33	213.62
404.71	213.83
405.08	214.11
405.46	214.33
405.83	214.61
406.21	214.84
406.58	215.23
406.96	215.49
407.33	215.89
407.70	216.24
408.08	216.92
408.45	217.47
408.83	217.96
409.20	218.45
409.58	218.76
409.95	219.43
410.33	219.99
410.70	220.60
411.08	221.39
411.45	222.09
411.82	222.75
412.20	223.67
412.57	224.74
412.95	225.43
413.32	226.54
413.69	227.64
414.07	228.83
414.44	230.14
414.82	231.59
415.19	233.16
415.56	234.76
415.94	236.23
416.31	238.18
416.68	240.03
417.06	242.16
417.43	244.30
417.81	246.56
418.18	249.05
418.55	251.67
418.93	254.40
419.30	257.37
419.67	260.50
420.04	263.79
420.42	267.08
420.79	271.05
421.16	274.92
421.54	278.98
421.91	283.24
422.28	287.62
422.66	292.10
423.03	296.70
423.40	301.49
423.77	306.68
424.15	311.70
424.52	317.21
424.89	323.09
425.26	328.82
425.64	334.40
426.01	340.41
426.38	346.69
426.75	353.09
427.13	359.73
427.50	366.73
427.87	374.00
428.24	381.35
428.61	388.42
428.99	396.11
429.36	404.46
429.73	412.65
430.10	420.87
430.47	429.49
430.85	438.20
431.22	447.60
431.59	457.55
431.96	467.19
432.33	477.68
432.70	487.89
433.08	499.76
433.45	511.11
433.82	522.46
434.19	535.20
434.56	547.46
434.93	559.48
435.30	571.52
435.68	584.82
436.05	598.06
436.42	611.15
436.79	623.37
437.16	636.62
437.53	650.48
437.90	664.27
438.27	677.85
438.64	692.14
439.01	705.25
439.38	717.06
439.75	728.59
440.13	741.72
440.50	754.36
440.87	764.93
441.24	775.75
441.61	787.55
441.98	796.59
442.35	807.31
442.72	817.76
443.09	827.86
443.46	834.56
443.83	839.34
444.20	843.39
444.57	849.06
444.94	852.21
445.31	855.63
445.68	858.93
446.05	860.92
446.42	860.66
446.79	860.05
447.16	859.39
447.53	859.09
447.90	854.96
448.27	850.83
448.64	844.74
449.01	840.75
449.37	832.59
449.74	824.67
450.11	815.10
450.48	804.57
450.85	793.91
451.22	784.71
451.59	775.79
451.96	767.67
452.33	756.26
452.70	745.85
453.07	733.23
453.43	720.34
453.80	708.03
454.17	696.05
454.54	685.00
454.91	672.92
455.28	661.13
455.65	650.30
456.02	639.27
456.38	630.05
456.75	618.12
457.12	608.48
457.49	598.99
457.86	589.40
458.23	581.45
458.59	572.57
458.96	563.40
459.33	555.62
459.70	547.52
460.07	541.14
460.43	534.03
460.80	527.20
461.17	521.28
461.54	515.01
461.91	509.01
462.27	502.90
462.64	497.73
463.01	492.05
463.38	486.59
463.74	480.99
464.11	475.94
464.48	471.66
464.85	467.05
465.21	463.37
465.58	459.48
465.95	454.73
466.32	450.91
466.68	447.07
467.05	443.24
467.42	439.51
467.78	435.55
468.15	431.62
468.52	428.83
468.88	425.06
469.25	421.75
469.62	419.14
469.98	416.27
470.35	413.65
470.72	410.96
471.08	408.11
471.45	405.77
471.82	403.33
472.18	400.70
472.55	398.71
472.92	396.36
473.28	394.55
473.65	392.82
474.02	390.96
474.38	389.54
474.75	388.17
475.11	386.63
475.48	385.53
475.85	384.51
476.21	383.49
476.58	382.65
476.94	382.09
477.31	381.42
477.67	380.70
478.04	380.14
478.41	379.97
478.77	379.98
479.14	379.54
479.50	379.37
479.87	379.49
480.23	379.55
480.60	379.43
480.96	379.38
481.33	379.70
481.69	379.92
482.06	380.11
482.42	380.24
482.79	380.70
483.15	381.21
483.52	382.05
483.88	382.81
484.25	383.61
484.61	384.31
484.98	384.96
485.34	386.08
485.71	387.25
486.07	388.37
486.44	389.38
486.80	390.85
487.17	392.47
487.53	394.19
487.90	396.00
488.26	398.10
488.62	400.25
488.99	402.25
489.35	404.41
489.72	406.76
490.08	409.24
490.44	411.76
490.81	414.41
491.17	416.82
491.54	419.44
491.90	422.34
492.26	425.47
492.63	428.72
492.99	432.00
493.36	435.32
493.72	438.88
494.08	442.44
494.45	446.20
494.81	450.03
495.17	453.89
495.54	458.02
495.90	462.09
496.26	466.12
496.63	470.33
496.99	474.81
497.35	479.27
497.72	483.97
498.08	488.63
498.44	493.42
498.80	498.66
499.17	503.79
499.53	508.90
499.89	514.15
500.26	519.13
500.62	524.13
500.98	529.57
501.34	534.90
501.71	540.27
502.07	545.72
502.43	551.07
502.79	556.39
503.16	561.73
503.52	567.29
503.88	572.86
504.24	578.35
504.60	583.75
504.97	589.52
505.33	595.06
505.69	600.84
506.05	606.45
506.41	611.93
506.78	617.27
507.14	622.47
507.50	627.67
507.86	633.06
508.22	638.49
508.59	643.40
508.95	648.55
509.31	653.74
509.67	658.72
510.03	663.62
510.39	668.63
510.75	673.69
511.12	678.44
511.48	683.19
511.84	687.91
512.20	692.41
512.56	696.84
512.92	701.35
513.28	705.71
513.64	710.05
514.00	714.15
514.37	718.35
514.73	722.55
515.09	726.75
515.45	730.69
515.81	734.36
516.17	738.19
516.53	741.90
516.89	745.44
517.25	748.83
517.61	752.28
517.97	755.41
518.33	758.43
518.69	761.48
519.05	764.47
519.41	767.43
519.77	770.88
520.13	773.58
520.49	776.20
520.85	778.93
521.21	781.72
521.57	784.45
521.93	786.55
522.29	789.34
522.65	791.57
523.01	793.98
523.37	796.12
523.73	798.31
524.09	800.29
524.45	802.29
524.81	804.53
525.17	806.79
525.53	809.07
525.89	811.12
526.25	813.27
526.61	815.26
526.97	817.12
527.33	818.72
527.68	821.04
528.04	822.91
528.40	824.50
528.76	826.16
529.12	828.07
529.48	830.61
529.84	832.14
530.20	834.10
530.56	836.09
530.91	838.38
531.27	840.68
531.63	842.69
531.99	844.86
532.35	846.84
532.71	848.90
533.07	851.14
533.42	853.53
533.78	855.56
534.14	857.77
534.50	859.84
534.86	862.15
535.21	863.68
535.57	865.99
535.93	868.15
536.29	870.21
536.65	872.14
537.00	873.85
537.36	875.90
537.72	877.65
538.08	879.55
538.44	881.50
538.79	883.35
539.15	885.68
539.51	887.80
539.87	890.05
540.22	892.10
540.58	894.37
540.94	896.18
541.29	898.34
541.65	900.17
542.01	902.42
542.37	904.46
542.72	906.61
543.08	908.45
543.44	910.86
543.79	912.49
544.15	914.58
544.51	917.07
544.87	919.35
545.22	921.52
545.58	923.62
545.94	925.47
546.29	927.19
546.65	928.74
547.01	930.50
547.36	932.05
547.72	933.93
548.07	935.45
548.43	936.94
548.79	938.26
549.14	939.82
549.50	941.39
549.86	942.80
550.21	944.53
550.57	946.40
550.92	947.78
551.28	949.74
551.64	951.16
551.99	952.55
552.35	954.05
552.70	955.59
553.06	957.14
553.41	958.96
553.77	960.80
554.13	962.47
554.48	964.38
554.84	966.50
555.19	968.15
555.55	970.00
555.90	971.62
556.26	973.28
556.61	974.80
556.97	976.20
557.32	977.65
557.68	978.91
558.03	980.11
558.39	981.19
558.74	982.60
559.10	984.03
559.45	985.50
559.81	986.97
560.16	987.97
560.52	989.29
560.87	990.53
561.23	991.43
561.58	992.95
561.94	993.68
562.29	994.19
562.64	995.15
563.00	995.88
563.35	997.16
563.71	998.55
564.06	999.66
564.42	1000.89
564.77	1002.13
565.12	1003.51
565.48	1004.85
565.83	1005.79
566.19	1007.00
566.54	1007.84
566.89	1008.49
567.25	1009.41
567.60	1010.78
567.96	1011.96
568.31	1012.85
568.66	1013.75
569.02	1014.14
569.37	1014.55
569.72	1015.28
570.08	1015.83
570.43	1016.29
570.78	1016.40
571.14	1016.34
571.49	1016.47
571.84	1016.60
572.20	1016.20
572.55	1015.95
572.90	1015.25
573.26	1014.99
573.61	1014.31
573.96	1013.91
574.31	1012.92
574.67	1011.80
575.02	1010.62
575.37	1009.14
575.72	1007.53
576.08	1006.47
576.43	1005.23
576.78	1004.20
577.13	1003.06
577.49	1001.79
577.84	1000.54
578.19	999.51
578.54	998.74
578.90	997.99
579.25	996.55
579.60	995.15
579.95	993.43
580.30	992.22
580.66	991.03
581.01	989.18
581.36	987.35
581.71	985.93
582.06	984.35
582.42	982.67
582.77	980.79
583.12	979.23
583.47	977.37
583.82	975.68
584.17	973.87
584.53	972.08
584.88	970.08
585.23	967.98
585.58	965.76
585.93	963.35
586.28	961.06
586.63	959.01
586.98	957.21
587.34	955.59
587.69	953.39
588.04	951.05
588.39	949.24
588.74	947.18
589.09	945.06
589.44	942.78
589.79	940.87
590.14	939.15
590.49	937.10
590.84	934.97
591.19	932.92
591.54	930.59
591.89	927.69
592.25	925.60
592.60	923.11
592.95	920.55
593.30	917.80
593.65	915.00
594.00	912.24
594.35	910.68
594.70	907.92
595.05	905.42
595.40	902.96
595.75	900.07
596.10	897.55
596.45	895.08
596.80	892.89
597.15	890.58
597.50	887.62
597.85	885.13
598.19	882.53
598.54	879.73
598.89	877.34
599.24	875.38
599.59	872.48
599.94	870.01
600.29	867.59
600.64	864.94
600.99	862.19
601.34	859.75
601.69	855.99
602.04	853.12
602.39	850.27
602.74	847.44
603.08	845.08
603.43	842.65
603.78	839.84
604.13	836.75
604.48	833.83
604.83	831.68
605.18	829.14
605.53	826.35
605.87	823.58
606.22	820.93
606.57	818.00
606.92	815.22
607.27	812.23
607.62	809.34
607.96	806.90
608.31	804.43
608.66	801.69
609.01	798.89
609.36	796.14
609.70	793.12
610.05	790.17
610.40	787.07
610.75	783.84
611.10	781.28
611.44	777.95
611.79	774.52
612.14	771.10
612.49	767.56
612.83	764.44
613.18	761.20
613.53	757.83
613.88	754.31
614.22	750.95
614.57	747.76
614.92	744.53
615.27	741.09
615.61	737.69
615.96	734.42
616.31	731.29
616.65	728.36
617.00	725.32
617.35	722.22
617.70	718.98
618.04	715.63
618.39	711.70
618.74	708.74
619.08	705.70
619.43	702.46
619.78	699.48
620.12	696.39
620.47	693.54
620.82	690.16
621.16	686.99
621.51	684.08
621.85	681.04
622.20	677.85
622.55	674.81
622.89	671.61
623.24	668.34
623.59	665.02
623.93	661.90
624.28	659.06
624.62	656.28
624.97	653.38
625.32	650.41
625.66	647.68
626.01	644.78
626.35	641.78
626.70	638.85
627.04	636.06
627.39	633.10
627.73	630.13
628.08	627.40
628.43	624.60
628.77	621.71
629.12	618.69
629.46	616.15
629.81	613.22
630.15	610.33
630.50	607.61
630.84	604.80
631.19	601.92
631.53	599.06
631.88	596.03
632.22	593.24
632.57	590.73
632.91	588.12
633.26	585.27
633.60	582.68
633.95	580.10
634.29	577.24
634.64	574.75
634.98	571.96
635.32	569.51
635.67	567.25
636.01	564.65
636.36	562.28
636.70	559.74
637.05	557.36
637.39	555.07
637.73	552.75
638.08	550.56
638.42	548.27
638.77	545.92
639.11	543.60
639.45	541.16
639.80	538.61
640.14	536.16
640.49	533.93
640.83	531.42
641.17	529.05
641.52	526.58
641.86	523.97
642.20	521.56
642.55	518.95
642.89	516.31
643.23	513.81
643.58	511.68
643.92	509.11
644.26	506.77
644.61	504.57
644.95	502.14
645.29	499.76
645.64	497.37
645.98	494.96
646.32	492.69
646.66	490.31
647.01	488.06
647.35	485.93
647.69	483.63
648.04	481.57
648.38	479.26
648.72	477.02
649.06	474.77
649.41	472.71
649.75	470.58
650.09	468.47
650.43	466.35
650.78	463.95
651.12	461.84
651.46	459.65
651.80	457.42
652.14	455.37
652.49	453.30
652.83	451.20
653.17	449.14
653.51	446.88
653.85	444.98
654.20	442.91
654.54	440.65
654.88	438.49
655.22	436.36
655.56	434.22
655.90	432.20
656.25	430.13
656.59	428.04
656.93	425.95
657.27	424.09
657.61	421.95
657.95	420.00
658.29	418.03
658.64	416.10
658.98	414.09
659.32	411.90
659.66	409.89
660.00	407.87
660.34	405.76
660.68	403.84
661.02	401.79
661.36	399.97
661.70	398.24
662.05	396.53
662.39	394.90
662.73	393.36
663.07	391.97
663.41	390.41
663.75	388.66
664.09	387.06
664.43	385.24
664.77	383.70
665.11	382.08
665.45	380.52
665.79	378.85
666.13	377.41
666.47	376.07
666.81	374.53
667.15	372.88
667.49	371.54
667.83	370.27
668.17	368.78
668.51	367.28
668.85	365.95
669.19	364.61
669.53	362.96
669.87	361.38
670.21	359.75
670.55	358.28
670.89	357.09
671.23	355.91
671.57	354.65
671.91	353.37
672.25	352.08
672.58	350.82
672.92	349.53
673.26	348.15
673.60	346.81
673.94	345.54
674.28	344.44
674.62	343.20
674.96	342.00
675.30	340.88
675.64	339.74
675.97	338.51
676.31	337.25
676.65	336.19
676.99	335.34
677.33	334.25
677.67	333.15
678.01	331.84
678.34	330.52
678.68	329.50
679.02	328.31
679.36	327.14
679.70	325.97
680.04	324.90
680.37	323.85
680.71	322.68
681.05	321.66
681.39	320.60
681.73	319.62
682.06	318.46
682.40	317.46
682.74	316.42
683.08	315.45
683.42	314.50
683.75	313.55
684.09	312.31
684.43	311.28
684.77	310.25
685.10	309.26
685.44	308.36
685.78	307.17
686.12	306.31
686.45	305.35
686.79	304.49
687.13	303.68
687.46	302.76
687.80	302.06
688.14	301.12
688.48	300.20
688.81	299.21
689.15	298.42
689.49	297.51
689.82	296.75
690.16	295.62
690.50	294.62
690.83	293.66
691.17	292.66
691.51	291.81
691.84	291.01
692.18	290.24
692.52	289.41
692.85	288.83
693.19	288.21
693.52	287.38
693.86	286.44
694.20	285.61
694.53	284.90
694.87	283.98
695.21	283.20
695.54	282.38
695.88	281.64
696.21	280.73
696.55	279.95
696.88	279.04
697.22	278.49
697.56	277.97
697.89	277.23
698.23	276.66
698.56	275.85
698.90	275.23
699.23	274.55
699.57	273.89
699.90	273.07
700.24	272.14
700.58	271.55
700.91	271.03
701.25	270.61
701.58	269.97
701.92	269.48
702.25	268.89
702.59	268.26
702.92	267.58
703.26	267.01
703.59	266.45
703.93	266.19
704.26	265.58
704.60	264.92
704.93	264.39
705.26	263.81
705.60	263.33
705.93	262.65
706.27	262.15
706.60	261.73
706.94	261.42
707.27	260.89
707.61	260.31
707.94	259.73
708.27	258.97
708.61	258.42
708.94	257.83
709.28	257.29
709.61	256.83
709.94	256.45
710.28	255.96
710.61	255.58
710.95	254.77
711.28	254.57
711.61	254.02
711.95	253.59
712.28	253.16
712.61	252.77
712.95	252.54
713.28	252.31
713.61	251.73
713.95	251.16
714.28	250.80
714.61	250.45
714.95	250.05
715.28	249.52
715.61	249.11
715.95	248.79
716.28	248.39
716.61	247.97
716.95	247.55
717.28	247.25
717.61	246.86
717.94	246.47
718.28	245.91
718.61	245.65
718.94	245.25
719.27	244.87
719.61	244.48
719.94	244.10
720.27	243.46
720.60	243.14
720.94	242.78
721.27	242.47
721.60	242.10
721.93	241.78
722.27	241.65
722.60	241.37
722.93	240.96
723.26	240.69
723.59	240.39
723.93	240.11
724.26	239.81
724.59	239.45
724.92	239.28
725.25	239.04
725.59	238.71
725.92	238.52
726.25	238.19
726.58	237.96
726.91	237.68
727.24	237.56
727.57	237.31
727.91	237.06
728.24	236.85
728.57	236.68
728.90	236.46
729.23	236.05
729.56	235.87
729.89	235.65
730.22	235.39
730.55	235.18
730.89	234.88
731.22	234.63
731.55	234.48
731.88	234.18
732.21	233.91
732.54	233.68
732.87	233.33
733.20	233.11
733.53	232.96
733.86	232.78
734.19	232.45
734.52	232.36
734.85	232.45
735.18	232.20
735.51	232.07
735.84	231.82
736.17	231.74
736.50	231.46
736.83	231.63
737.16	231.44
737.49	231.26
737.82	231.11
738.15	230.90
738.48	230.64
738.81	230.44
739.14	230.12
739.47	229.95
739.80	229.82
740.13	229.70
740.46	229.37
740.79	229.06
741.12	228.90
741.45	228.61
741.78	228.17
742.11	228.12
742.44	227.79
742.77	227.72
743.10	227.50
743.43	227.32
743.75	226.83
744.08	227.11
744.41	226.88
744.74	226.66
745.07	226.44
745.40	226.35
745.73	226.36
746.06	226.34
746.39	226.25
746.71	226.06
747.04	225.97
747.37	225.79
747.70	225.70
748.03	225.55
748.36	225.47
748.68	225.32
749.01	225.03
749.34	225.03
749.67	224.87
750.00	224.81
750.33	224.87
750.65	224.74
750.98	224.19
751.31	224.14
751.64	224.04
751.97	224.13
752.29	223.90
752.62	223.56
752.95	223.27
753.28	223.07
753.60	222.90
753.93	222.76
754.26	222.68
754.59	222.51
754.91	222.38
755.24	222.25
755.57	222.12
755.90	222.01
756.22	221.78
756.55	221.61
756.88	221.47
757.20	221.10
757.53	220.87
757.86	220.68
758.19	220.53
758.51	220.42
758.84	220.18
759.17	220.06
759.49	219.99
759.82	220.11
760.15	220.07
760.47	220.00
760.80	219.85
761.13	219.82
761.45	219.70
761.78	219.63
762.11	219.54
762.43	219.44
762.76	219.31
763.08	219.23
763.41	219.17
763.74	219.08
764.06	219.08
764.39	218.99
764.71	218.95
765.04	218.89
765.37	218.72
765.69	218.59
766.02	218.54
766.34	218.53
766.67	218.36
767.00	218.29
767.32	218.35
767.65	218.47
767.97	218.34
768.30	218.29
768.62	218.25
768.95	218.12
769.27	218.03
769.60	218.11
769.92	218.02
770.25	217.94
770.57	217.86
770.90	217.75
771.22	217.60
771.55	217.59
771.87	217.53
772.20	217.53
772.52	217.79
772.85	218.19
773.17	218.09
773.50	218.02
773.82	217.95
774.15	217.81
774.47	217.59
774.80	217.49
775.12	217.45
775.45	217.36
775.77	217.35
776.09	217.34
776.42	217.23
776.74	217.33
777.07	217.21
777.39	217.18
777.72	217.08
778.04	217.16
778.36	217.05
778.69	216.99
779.01	216.95
779.33	216.60
779.66	216.09
779.98	215.94
780.31	215.87
780.63	215.97
780.95	215.94
781.28	215.84
781.60	215.79
781.92	215.71
782.25	215.63
782.57	215.49
782.89	215.38
783.22	215.23
783.54	215.05
783.86	215.07
784.19	214.96
784.51	215.12
784.83	215.04
785.16	214.96
785.48	214.91
785.80	214.82
786.12	214.84
786.45	214.82
786.77	214.88
787.09	214.80
787.42	214.61
787.74	214.60
788.06	214.53
788.38	214.49
788.71	214.43
789.03	214.44
789.35	214.50
789.67	214.48
789.99	214.55
790.32	214.51
790.64	214.50
790.96	214.82
791.28	214.63
791.61	214.63
791.93	214.70
792.25	214.70
792.57	214.99
792.89	214.84
793.21	214.80
793.54	214.74
793.86	214.65
794.18	214.62
794.50	214.53
794.82	214.60
795.14	214.65
795.47	214.63
795.79	214.58
796.11	214.55
796.43	214.54
796.75	214.49
797.07	214.48
797.39	214.48
797.71	214.15
798.04	214.05
798.36	214.00
798.68	213.99
799.00	213.97
799.32	213.76
799.64	213.84
799.96	213.88
800.28	213.97
800.60	213.99
800.92	213.97
801.24	213.91
801.56	213.89
801.89	213.86
802.21	213.94
802.53	213.86
802.85	213.93
803.17	214.05
803.49	213.98
803.81	213.99
804.13	213.88
804.45	213.86
804.77	213.99
805.09	214.04
805.41	213.88
805.73	213.77
806.05	213.66
806.37	213.65
806.69	213.59
807.01	213.56
807.33	213.60
807.65	213.46
807.97	213.63
808.28	213.60
808.60	213.58
808.92	213.51
809.24	213.77
809.56	213.60
809.88	213.45
810.20	213.41
810.52	213.40
810.84	213.43
811.16	213.34
811.48	213.27
811.80	213.31
812.12	213.45
812.43	213.52
812.75	213.60
813.07	213.47
813.39	213.45
813.71	213.34
814.03	213.28
814.35	213.36
814.67	213.21
814.98	213.14
815.30	213.08
815.62	212.97
815.94	212.66
816.26	212.70
816.58	212.63
816.89	212.60
817.21	212.51
817.53	212.53
817.85	212.58
818.17	212.58
818.48	212.38
818.80	212.37
819.12	212.30
819.44	212.16
819.76	212.22
820.07	212.26
820.39	212.21
820.71	212.20
821.03	212.09
821.34	212.05
821.66	212.09
821.98	212.13
822.30	212.13
822.61	212.41
822.93	212.36
823.25	212.32
823.57	212.32
823.88	212.40
824.20	212.36
824.52	212.40
824.83	212.30
825.15	212.35
825.47	212.30
825.79	212.33
826.10	212.25
826.42	212.22
826.74	212.22
827.05	212.22
827.37	212.25
827.69	212.27
828.00	212.23
828.32	212.23
828.64	212.13
828.95	212.34
829.27	212.16
829.58	212.17
829.90	212.28
830.22	212.34
830.53	212.24
830.85	212.17
831.17	212.08
831.48	212.12
831.80	212.12
832.11	212.10
832.43	212.01
832.75	212.06
833.06	212.20
833.38	212.07
833.69	212.14
834.01	212.16
834.32	212.22
834.64	212.17
834.96	212.17
835.27	212.20
835.59	212.09
835.90	212.02
836.22	212.04
836.53	211.94
836.85	211.95
837.16	212.26
837.48	212.27
837.79	212.35
838.11	212.31
838.42	212.28
838.74	212.27
839.05	212.33
839.37	212.35
839.68	212.13
840.00	212.16
840.31	212.15
840.63	212.13
840.94	212.06
841.26	212.08
841.57	212.10
841.88	212.19
842.20	212.16
842.51	212.08
842.83	212.07
843.14	212.39
843.46	212.35
843.77	212.13
844.08	212.15
844.40	212.06
844.71	212.07
845.03	212.10
845.34	212.05
845.65	212.00
845.97	212.00
846.28	212.07
846.60	212.08
846.91	211.95
847.22	211.97
847.54	212.06
847.85	212.11
848.16	212.00
848.48	211.88
848.79	212.00
849.10	212.12
849.42	212.09
849.73	211.74
850.04	211.74
850.36	211.62
850.67	211.68
850.98	211.71
851.30	211.74
851.61	211.71
851.92	211.73
852.23	211.84
852.55	211.77
852.86	211.72
853.17	211.75
853.49	211.89
853.80	211.87
854.11	211.92
854.42	211.99
854.74	212.02
855.05	212.01
855.36	211.85
855.67	211.83
855.99	211.85
856.30	212.28
856.61	212.27
856.92	212.32
857.23	212.30
857.55	212.25
857.86	212.21
858.17	212.27
858.48	212.28
858.79	212.18
859.11	212.26
859.42	212.24
859.73	212.20
860.04	212.10
860.35	212.09
860.66	211.92
860.98	211.92
861.29	211.96
861.60	211.96
861.91	212.03
862.22	211.99
862.53	211.96
862.84	211.57
863.16	211.62
863.47	211.59
863.78	211.51
864.09	211.57
864.40	211.56
864.71	211.51
865.02	211.49
865.33	211.46
865.64	211.41
865.95	211.44
866.27	211.69
866.58	211.72
866.89	211.71
867.20	211.67
867.51	211.58
867.82	211.50
868.13	211.62
868.44	211.55
868.75	211.62
869.06	211.66
869.37	211.73
869.68	211.66
869.99	211.71
870.30	211.83
870.61	211.91
870.92	211.95
871.23	211.95
871.54	212.00
871.85	212.02
872.16	212.07
872.47	212.03
872.78	211.82
873.09	211.89
873.40	211.85
873.71	211.96
874.02	211.98
874.33	211.95
874.64	211.86
874.95	211.86
875.26	211.83
875.56	211.76
875.87	211.68
876.18	211.67
876.49	212.07
876.80	211.99
877.11	211.85
877.42	211.82
877.73	211.82
878.04	211.77
878.35	211.86
878.66	211.81
878.96	211.86
879.27	211.84
879.58	211.76
879.89	211.74
880.20	211.78
880.51	211.74
880.82	211.73
881.12	211.76
881.43	211.70
881.74	211.60
882.05	211.64
882.36	211.67
882.67	211.71
882.97	211.27
883.28	211.18
883.59	211.15
883.90	211.22
884.21	211.25
884.51	211.24
884.82	211.09
885.13	211.15
885.44	211.12
885.74	211.09
886.05	211.08
886.36	211.16
886.67	211.06
886.98	211.22
887.28	211.29
887.59	211.23
887.90	211.28
888.20	211.27
888.51	211.35
888.82	211.27
889.13	211.21
889.43	211.43
889.74	211.43
890.05	211.44
890.35	211.35
890.66	211.28
890.97	211.24
891.28	211.29
891.58	211.32
891.89	211.30
892.20	211.20
892.50	211.13
892.81	211.02
893.12	211.04
893.42	210.84
893.73	210.78
894.04	210.85
894.34	210.85
894.65	210.81
894.95	210.75
895.26	210.79
895.57	210.96
895.87	210.70
896.18	210.81
896.48	210.89
896.79	210.86
897.10	210.87
897.40	210.90
897.71	210.83
898.01	210.72
898.32	210.72
898.63	210.74
898.93	210.80
899.24	210.84
899.54	210.84
899.85	210.91
900.15	210.97
900.46	210.93
900.76	210.94
901.07	211.00
901.38	210.99
901.68	211.09
901.99	210.92
902.29	210.98
902.60	210.90
902.90	210.83
903.21	210.85
903.51	210.80
903.82	210.83
904.12	210.89
904.43	210.94
904.73	210.98
905.03	211.10
905.34	211.45
905.64	211.43
905.95	211.39
906.25	211.35
906.56	211.34
906.86	211.35
907.17	211.35
907.47	211.37
907.77	211.30
908.08	211.18
908.38	211.17
908.69	211.14
908.99	211.19
909.30	211.25
909.60	211.22
909.90	211.30
910.21	211.25
910.51	211.24
910.81	211.29
911.12	211.30
911.42	211.33
911.73	210.92
912.03	210.96
912.33	211.09
912.64	211.10
912.94	211.07
913.24	211.06
913.55	211.04
913.85	210.95
914.15	211.09
914.46	211.12
914.76	211.13
915.06	211.11
915.37	211.13
915.67	211.09
915.97	211.22
916.27	211.16
916.58	211.20
916.88	211.24
917.18	211.14
917.49	211.42
917.79	211.35
918.09	211.48
918.39	211.62
918.70	211.60
919.00	211.62
919.30	211.81
919.60	211.77
919.91	211.70
920.21	211.78
920.51	211.72
920.81	211.66
921.12	211.78
921.42	211.82
921.72	211.81
922.02	211.86
922.32	211.87
922.63	211.87
922.93	211.99
923.23	211.99
923.53	212.01
923.83	211.73
924.13	211.75
924.44	211.75
924.74	211.71
925.04	211.75
925.34	211.75
925.64	211.53
925.94	211.55
926.24	211.79
926.55	211.76
926.85	211.77
927.15	211.79
927.45	211.73
927.75	211.69
928.05	211.65
928.35	211.52
928.65	211.55
928.95	211.60
929.26	211.50
929.56	211.52
929.86	211.54
930.16	211.59
930.46	211.60
930.76	211.50
931.06	211.34
931.36	211.23
931.66	211.27
931.96	211.31
932.26	211.30
932.56	211.17
932.86	211.15
933.16	211.13
933.46	211.10
933.76	211.06
934.06	211.15
934.36	211.26
934.66	211.32
934.96	211.18
935.26	211.20
935.56	211.23
935.86	211.20
936.16	211.16
936.46	211.08
936.76	211.03
937.06	211.00
937.36	211.03
937.66	211.10
937.96	211.03
938.26	211.03
938.56	211.03
938.86	211.05
939.16	211.14
939.46	211.18
939.76	211.22
940.06	211.21
940.35	211.15
940.65	211.05
940.95	211.04
941.25	211.03
941.55	210.95
941.85	210.97
942.15	210.95
942.45	210.95
942.75	210.89
943.04	210.87
943.34	211.00
943.64	210.96
943.94	210.84
944.24	210.88
944.54	210.81
944.84	210.84
945.13	210.81
945.43	210.79
945.73	210.72
946.03	210.67
946.33	210.63
946.62	210.57
946.92	210.54
947.22	210.59
947.52	210.59
947.82	210.67
948.11	210.60
948.41	210.61
948.71	210.62
949.01	210.73
949.31	210.75
949.60	210.65
949.90	210.71
950.20	210.70
950.50	210.63
950.79	210.63
951.09	210.62
951.39	210.56
951.69	210.53
951.98	210.60
952.28	210.63
952.58	210.63
952.87	210.66
953.17	210.66
953.47	210.62
953.76	210.64
954.06	210.52
954.36	210.47
954.66	210.48
954.95	210.57
955.25	210.55
955.55	210.50
955.84	210.49
956.14	210.56
956.44	210.56
956.73	210.51
957.03	210.56
957.32	210.59
957.62	210.59
957.92	210.61
958.21	210.57
958.51	211.02
958.81	211.02
959.10	211.00
959.40	211.03
959.69	211.04
959.99	211.02
960.29	211.10
960.58	211.13
960.88	211.21
961.17	211.19
961.47	211.25
961.76	211.28
962.06	211.38
962.36	211.32
962.65	211.39
962.95	211.44
963.24	211.37
963.54	211.35
963.83	211.37
964.13	211.40
964.42	211.30
964.72	210.93
965.01	210.95
965.31	210.96
965.60	210.90
965.90	211.05
966.19	211.00
966.49	210.97
966.78	210.96
967.08	210.93
967.37	210.98
967.67	210.88
967.96	210.91
968.26	210.87
968.55	210.90
968.85	210.88
969.14	210.92
969.43	211.00
969.73	210.96
970.02	210.96
970.32	210.90
970.61	210.92
970.91	211.00
971.20	210.93
971.49	210.94
971.79	211.03
972.08	210.91
972.38	210.92
972.67	210.89
972.96	210.91
973.26	210.86
973.55	210.96
973.85	210.99
974.14	210.96
974.43	210.92
974.73	210.81
975.02	210.80
975.31	210.75
975.61	210.73
975.90	210.68
976.19	210.63
976.49	210.70
976.78	210.76
977.07	210.63
977.37	210.63
977.66	210.67
977.95	210.64
978.24	210.65
978.54	210.88
978.83	210.88
979.12	210.89
979.42	210.90
979.71	210.78
980.00	210.71
980.29	210.77
980.59	210.79
980.88	210.96
981.17	210.95
981.46	210.94
981.76	210.94
982.05	211.07
982.34	211.14
982.63	211.20
982.93	211.18
983.22	211.36
983.51	211.42
983.80	211.42
984.09	211.47
984.39	211.47
984.68	211.30
984.97	211.38
985.26	211.39
985.55	211.45
985.85	211.34
986.14	211.44
986.43	211.49
986.72	211.44
987.01	211.30
987.30	211.33
987.59	211.38
987.89	211.32
988.18	211.24
988.47	211.18
988.76	211.08
989.05	211.06
989.34	210.98
989.63	211.05
989.92	210.98
990.22	210.91
990.51	210.86
990.80	210.85
991.09	210.81
991.38	210.87
991.67	210.83
991.96	210.82
992.25	210.79
992.54	210.67
992.83	210.65
993.12	210.68
993.41	210.77
993.70	210.90
993.99	211.04
994.28	211.10
994.58	211.08
994.87	211.06
995.16	211.04
995.45	210.92
995.74	210.81
996.03	210.86
996.32	210.95
996.61	210.98
996.90	210.98
997.19	210.92
997.48	210.91
997.77	210.80
998.06	210.83
998.34	210.85
998.63	210.88
998.92	210.96
999.21	210.98
999.50	210.92
999.79	210.80
1000.08	210.72
1000.37	210.65
1000.66	210.66
1000.95	210.73
1001.24	210.72
1001.53	210.85
1001.82	210.90
1002.11	210.79
1002.40	210.81
1002.68	210.91
1002.97	211.10
1003.26	211.10
1003.55	211.05
1003.84	211.04
1004.13	211.19
1004.42	211.11
1004.71	211.06
1004.99	210.99
1005.28	211.04
1005.57	211.05
1005.86	210.97
1006.15	210.99
1006.44	210.95
1006.72	211.00
1007.01	210.99
1007.30	210.97
1007.59	210.88
1007.88	210.86
1008.17	210.89
1008.45	210.71
1008.74	210.58
1009.03	210.49
1009.32	210.54
1009.60	210.47
1009.89	210.49
1010.18	210.30
1010.47	210.32
1010.76	210.39
1011.04	210.41
1011.33	210.45
1011.62	210.49
1011.91	210.55
1012.19	210.58
1012.48	210.65
1012.77	210.66
1013.05	210.75
1013.34	210.84
1013.63	210.79
1013.92	210.82
1014.20	210.82
1014.49	210.89
1014.78	210.95
1015.06	210.81
1015.35	210.75
1015.64	210.86
1015.92	210.93
1016.21	210.96
1016.50	210.93
1016.78	210.93
1017.07	210.95
1017.36	210.85
1017.64	210.84
1017.93	210.88
1018.22	210.72
1018.50	210.67
1018.79	210.63
1019.08	210.51
1019.36	210.48
1019.65	210.45
1019.93	210.45
1020.22	210.45
1020.51	210.64
1020.79	210.50
1021.08	208.20
1021.36	210.05
1021.65	210.05
1021.94	210.60
1022.22	211.20
1022.51	209.00
1022.79	211.15
1023.08	209.60
1023.36	214.70
1023.65	208.60
>>>>>End Processed Spectral Data<<<<<
