SpectraSuite Data File
++++++++++++++++++++++++++++++++++++
Date: Mon Feb 25 17:08:25 EST 2013
User: group
Dark Spectrum Present: No
Reference Spectrum Present: No
Number of Sampled Component Spectra: 1
Spectrometers: USB2E7196
Integration Time (usec): 104000 (USB2E7196)
Spectra Averaged: 20 (USB2E7196)
Boxcar Smoothing: 10 (USB2E7196)
Correct for Electrical Dark: No (USB2E7196)
Strobe/Lamp Enabled: No (USB2E7196)
Correct for Detector Non-linearity: No (USB2E7196)
Correct for Stray Light: No (USB2E7196)
Number of Pixels in Processed Spectrum: 2048
>>>>>Begin Processed Spectral Data<<<<<
339.09	0.00
339.48	198.70
339.86	201.10
340.24	202.00
340.63	203.15
341.01	209.95
341.39	205.35
341.78	208.40
342.16	211.45
342.54	206.90
342.93	198.82
343.31	208.81
343.69	209.36
344.07	209.79
344.46	210.21
344.84	210.59
345.22	210.60
345.60	210.85
345.99	210.95
346.37	210.91
346.75	211.08
347.13	211.05
347.52	211.10
347.90	211.22
348.28	211.16
348.66	211.19
349.05	211.11
349.43	211.08
349.81	211.14
350.19	211.15
350.57	211.19
350.96	211.05
351.34	211.20
351.72	211.28
352.10	211.30
352.48	211.27
352.87	211.27
353.25	211.37
353.63	211.37
354.01	211.46
354.39	211.51
354.77	211.55
355.15	211.69
355.54	211.69
355.92	211.59
356.30	211.65
356.68	211.85
357.06	211.94
357.44	211.97
357.82	211.95
358.20	212.04
358.58	212.09
358.97	212.20
359.35	212.22
359.73	212.31
360.11	212.38
360.49	212.42
360.87	212.47
361.25	212.60
361.63	212.73
362.01	212.75
362.39	212.79
362.77	212.85
363.15	212.88
363.53	212.99
363.91	213.02
364.29	213.06
364.67	212.78
365.05	212.83
365.43	212.86
365.81	212.96
366.19	213.11
366.57	213.18
366.95	213.14
367.33	213.11
367.71	213.10
368.09	213.15
368.47	213.21
368.85	213.20
369.23	213.22
369.61	213.16
369.99	213.25
370.37	213.33
370.75	213.47
371.13	213.34
371.51	213.20
371.89	213.22
372.27	213.22
372.65	213.30
373.03	213.19
373.41	213.15
373.78	213.13
374.16	212.94
374.54	212.82
374.92	212.76
375.30	212.67
375.68	212.56
376.06	212.53
376.44	212.49
376.82	212.48
377.19	212.41
377.57	212.37
377.95	212.18
378.33	212.02
378.71	211.72
379.09	211.73
379.47	211.84
379.84	211.77
380.22	211.68
380.60	211.51
380.98	211.47
381.36	211.40
381.73	211.21
382.11	211.25
382.49	211.25
382.87	211.13
383.25	211.08
383.62	211.45
384.00	211.38
384.38	211.32
384.76	211.35
385.13	211.41
385.51	211.34
385.89	211.26
386.27	211.27
386.64	211.38
387.02	211.31
387.40	211.21
387.78	211.21
388.15	211.20
388.53	211.15
388.91	211.12
389.29	211.03
389.66	211.11
390.04	211.06
390.42	211.06
390.79	211.12
391.17	211.11
391.55	210.72
391.92	210.70
392.30	210.68
392.68	210.61
393.05	210.53
393.43	210.47
393.81	210.50
394.18	210.42
394.56	210.41
394.94	210.56
395.31	210.50
395.69	210.68
396.06	210.75
396.44	210.82
396.82	210.84
397.19	211.10
397.57	211.07
397.95	211.06
398.32	210.96
398.70	211.03
399.07	211.13
399.45	211.08
399.82	211.12
400.20	211.20
400.58	211.21
400.95	211.11
401.33	211.28
401.70	211.52
402.08	211.65
402.45	211.65
402.83	211.68
403.20	211.75
403.58	211.67
403.95	211.68
404.33	211.79
404.71	211.83
405.08	212.05
405.46	212.10
405.83	212.21
406.21	212.31
406.58	212.37
406.96	212.43
407.33	212.62
407.70	212.75
408.08	213.09
408.45	213.21
408.83	213.38
409.20	213.47
409.58	213.42
409.95	213.63
410.33	213.81
410.70	213.98
411.08	214.20
411.45	214.45
411.82	214.70
412.20	215.00
412.57	215.49
412.95	215.49
413.32	215.95
413.69	216.28
414.07	216.70
414.44	217.10
414.82	217.52
415.19	218.01
415.56	218.50
415.94	218.88
416.31	219.57
416.68	220.28
417.06	221.05
417.43	221.89
417.81	222.62
418.18	223.50
418.55	224.42
418.93	225.36
419.30	226.24
419.67	227.26
420.04	228.25
420.42	229.28
420.79	230.82
421.16	232.00
421.54	233.49
421.91	234.86
422.28	236.32
422.66	237.86
423.03	239.61
423.40	241.15
423.77	242.76
424.15	244.44
424.52	246.21
424.89	248.17
425.26	249.96
425.64	251.78
426.01	253.69
426.38	255.68
426.75	257.79
427.13	260.00
427.50	262.20
427.87	264.57
428.24	266.93
428.61	268.94
428.99	271.53
429.36	274.04
429.73	276.64
430.10	279.26
430.47	281.99
430.85	284.44
431.22	287.40
431.59	290.79
431.96	293.78
432.33	297.02
432.70	300.17
433.08	303.89
433.45	307.45
433.82	311.07
434.19	315.02
434.56	318.99
434.93	322.70
435.30	326.43
435.68	330.53
436.05	334.57
436.42	338.59
436.79	342.35
437.16	346.33
437.53	350.56
437.90	354.73
438.27	358.93
438.64	363.25
439.01	367.21
439.38	370.57
439.75	374.05
440.13	377.99
440.50	381.64
440.87	384.69
441.24	387.86
441.61	391.19
441.98	393.80
442.35	396.61
442.72	399.65
443.09	402.72
443.46	404.57
443.83	405.83
444.20	407.04
444.57	408.43
444.94	409.45
445.31	410.24
445.68	411.53
446.05	411.90
446.42	411.64
446.79	411.50
447.16	411.16
447.53	410.91
447.90	409.53
448.27	408.11
448.64	406.12
449.01	404.67
449.37	402.12
449.74	399.58
450.11	396.87
450.48	393.45
450.85	389.95
451.22	386.95
451.59	384.18
451.96	381.45
452.33	377.88
452.70	374.45
453.07	370.67
453.43	366.23
453.80	362.37
454.17	358.70
454.54	355.04
454.91	351.19
455.28	347.46
455.65	343.93
456.02	341.01
456.38	338.08
456.75	334.47
457.12	331.38
457.49	328.26
457.86	325.12
458.23	322.75
458.59	319.96
458.96	317.23
459.33	314.65
459.70	312.19
460.07	310.26
460.43	307.96
460.80	305.81
461.17	304.05
461.54	302.11
461.91	300.32
462.27	298.39
462.64	296.77
463.01	295.03
463.38	293.43
463.74	291.17
464.11	289.62
464.48	288.33
464.85	286.87
465.21	285.88
465.58	284.60
465.95	283.14
466.32	282.00
466.68	280.69
467.05	279.56
467.42	278.35
467.78	277.01
468.15	275.85
468.52	274.92
468.88	273.68
469.25	272.62
469.62	271.86
469.98	270.97
470.35	270.18
470.72	269.43
471.08	268.44
471.45	267.82
471.82	267.20
472.18	266.35
472.55	265.88
472.92	265.12
473.28	264.51
473.65	263.90
474.02	263.31
474.38	263.06
474.75	262.68
475.11	262.27
475.48	262.05
475.85	261.76
476.21	261.45
476.58	261.20
476.94	261.05
477.31	260.71
477.67	260.52
478.04	260.30
478.41	260.13
478.77	260.49
479.14	260.34
479.50	260.20
479.87	260.20
480.23	260.16
480.60	260.10
480.96	260.10
481.33	260.28
481.69	260.32
482.06	260.31
482.42	260.49
482.79	260.63
483.15	260.69
483.52	260.96
483.88	261.04
484.25	261.24
484.61	261.31
484.98	261.54
485.34	261.88
485.71	262.27
486.07	262.59
486.44	262.49
486.80	262.89
487.17	263.30
487.53	263.90
487.90	264.39
488.26	265.21
488.62	265.91
488.99	266.39
489.35	267.16
489.72	267.83
490.08	268.51
490.44	269.23
490.81	270.05
491.17	270.77
491.54	271.80
491.90	272.82
492.26	273.90
492.63	274.88
492.99	275.95
493.36	277.04
493.72	278.30
494.08	279.60
494.45	280.83
494.81	282.28
495.17	283.59
495.54	285.06
495.90	286.23
496.26	287.71
496.63	289.26
496.99	290.77
497.35	292.45
497.72	294.15
498.08	295.83
498.44	297.69
498.80	299.50
499.17	301.29
499.53	303.17
499.89	305.19
500.26	307.23
500.62	309.17
500.98	311.40
501.34	313.37
501.71	315.67
502.07	317.87
502.43	319.98
502.79	322.20
503.16	324.39
503.52	326.76
503.88	329.02
504.24	331.44
504.60	333.81
504.97	336.35
505.33	338.81
505.69	341.58
506.05	344.16
506.41	346.98
506.78	349.58
507.14	352.28
507.50	355.10
507.86	357.96
508.22	360.96
508.59	363.70
508.95	366.70
509.31	369.79
509.67	372.88
510.03	375.90
510.39	379.00
510.75	382.25
511.12	385.50
511.48	388.91
511.84	392.34
512.20	395.65
512.56	398.90
512.92	402.46
513.28	405.87
513.64	409.32
514.00	412.80
514.37	416.60
514.73	420.26
515.09	423.90
515.45	427.55
515.81	431.18
516.17	434.87
516.53	438.63
516.89	442.18
517.25	445.98
517.61	449.97
517.97	453.90
518.33	457.69
518.69	461.63
519.05	465.50
519.41	469.47
519.77	473.85
520.13	477.98
520.49	481.87
520.85	485.90
521.21	490.16
521.57	494.38
521.93	498.14
522.29	502.26
522.65	506.43
523.01	510.66
523.37	514.81
523.73	519.10
524.09	523.29
524.45	527.61
524.81	532.00
525.17	536.40
525.53	540.86
525.89	545.35
526.25	549.78
526.61	554.10
526.97	558.47
527.33	562.79
527.68	567.73
528.04	572.22
528.40	576.57
528.76	581.01
529.12	585.51
529.48	590.39
529.84	594.92
530.20	599.65
530.56	604.14
530.91	608.91
531.27	613.44
531.63	618.23
531.99	622.90
532.35	627.34
532.71	631.86
533.07	636.35
533.42	641.41
533.78	646.09
534.14	650.65
534.50	654.90
534.86	659.46
535.21	663.39
535.57	668.07
535.93	672.65
536.29	677.11
536.65	681.65
537.00	685.89
537.36	690.23
537.72	694.16
538.08	698.73
538.44	702.92
538.79	707.40
539.15	711.45
539.51	715.63
539.87	720.08
540.22	724.30
540.58	728.49
540.94	732.09
541.29	735.91
541.65	739.81
542.01	743.95
542.37	747.74
542.72	751.69
543.08	755.36
543.44	759.08
543.79	762.60
544.15	766.02
544.51	769.99
544.87	773.58
545.22	777.29
545.58	780.33
545.94	783.65
546.29	786.76
546.65	789.93
547.01	792.88
547.36	795.88
547.72	798.71
548.07	801.44
548.43	804.15
548.79	806.72
549.14	809.53
549.50	812.28
549.86	814.60
550.21	816.97
550.57	819.45
550.92	821.64
551.28	823.91
551.64	826.44
551.99	828.52
552.35	830.60
552.70	832.48
553.06	834.76
553.41	836.54
553.77	838.45
554.13	840.32
554.48	842.54
554.84	844.29
555.19	845.96
555.55	847.88
555.90	849.38
556.26	851.05
556.61	852.38
556.97	853.35
557.32	855.03
557.68	856.16
558.03	857.31
558.39	858.61
558.74	860.05
559.10	860.99
559.45	862.05
559.81	863.22
560.16	864.23
560.52	865.33
560.87	866.42
561.23	867.24
561.58	868.36
561.94	868.80
562.29	869.37
562.64	870.23
563.00	870.78
563.35	871.76
563.71	872.74
564.06	873.53
564.42	874.47
564.77	874.96
565.12	875.90
565.48	876.83
565.83	877.52
566.19	878.04
566.54	878.17
566.89	878.44
567.25	878.84
567.60	879.28
567.96	879.51
568.31	879.84
568.66	880.07
569.02	879.74
569.37	879.64
569.72	879.82
570.08	879.51
570.43	879.11
570.78	878.56
571.14	877.84
571.49	877.19
571.84	876.70
572.20	876.06
572.55	875.45
572.90	874.27
573.26	873.23
573.61	872.22
573.96	871.43
574.31	870.32
574.67	869.15
575.02	867.85
575.37	866.39
575.72	864.73
576.08	863.59
576.43	862.21
576.78	861.02
577.13	859.75
577.49	858.65
577.84	857.58
578.19	856.46
578.54	855.64
578.90	854.67
579.25	853.61
579.60	852.14
579.95	850.43
580.30	849.25
580.66	848.23
581.01	846.93
581.36	845.55
581.71	844.21
582.06	843.03
582.42	841.87
582.77	840.51
583.12	839.40
583.47	837.91
583.82	836.97
584.17	835.79
584.53	834.50
584.88	833.14
585.23	831.87
585.58	830.38
585.93	828.85
586.28	827.44
586.63	825.92
586.98	824.70
587.34	823.64
587.69	822.24
588.04	820.71
588.39	819.21
588.74	817.70
589.09	816.59
589.44	814.78
589.79	813.33
590.14	811.84
590.49	810.15
590.84	808.65
591.19	807.21
591.54	805.60
591.89	803.61
592.25	802.13
592.60	800.26
592.95	798.65
593.30	796.54
593.65	794.66
594.00	792.74
594.35	792.06
594.70	790.02
595.05	788.30
595.40	786.39
595.75	784.45
596.10	782.72
596.45	780.80
596.80	779.37
597.15	777.70
597.50	775.89
597.85	774.50
598.19	772.62
598.54	770.67
598.89	768.94
599.24	767.63
599.59	765.84
599.94	764.45
600.29	762.92
600.64	761.37
600.99	759.59
601.34	758.07
601.69	755.38
602.04	753.68
602.39	751.96
602.74	750.48
603.08	749.17
603.43	748.13
603.78	746.36
604.13	744.70
604.48	743.18
604.83	741.96
605.18	740.70
605.53	739.21
605.87	737.61
606.22	736.13
606.57	734.46
606.92	732.70
607.27	730.76
607.62	729.11
607.96	727.63
608.31	726.22
608.66	724.50
609.01	722.70
609.36	720.99
609.70	719.16
610.05	717.38
610.40	715.34
610.75	712.96
611.10	711.23
611.44	708.79
611.79	706.42
612.14	703.92
612.49	701.10
612.83	699.00
613.18	696.64
613.53	694.17
613.88	691.48
614.22	689.23
614.57	686.95
614.92	684.43
615.27	681.88
615.61	679.30
615.96	676.91
616.31	674.53
616.65	672.46
617.00	670.23
617.35	667.70
617.70	665.39
618.04	662.93
618.39	660.27
618.74	658.17
619.08	655.85
619.43	653.78
619.78	651.61
620.12	649.14
620.47	646.98
620.82	644.48
621.16	642.15
621.51	639.85
621.85	637.43
622.20	634.98
622.55	632.75
622.89	630.19
623.24	627.84
623.59	625.26
623.93	622.72
624.28	620.23
624.62	618.19
624.97	616.01
625.32	613.65
625.66	611.52
626.01	609.13
626.35	606.93
626.70	604.40
627.04	602.44
627.39	600.16
627.73	598.07
628.08	595.95
628.43	593.69
628.77	591.31
629.12	589.15
629.46	587.14
629.81	584.80
630.15	582.82
630.50	580.42
630.84	578.14
631.19	575.84
631.53	573.61
631.88	570.91
632.22	568.24
632.57	566.06
632.91	563.71
633.26	561.46
633.60	559.09
633.95	557.03
634.29	554.42
634.64	552.46
634.98	549.88
635.32	547.75
635.67	545.80
636.01	543.71
636.36	541.35
636.70	539.20
637.05	537.15
637.39	534.94
637.73	533.01
638.08	531.31
638.42	529.37
638.77	527.35
639.11	525.35
639.45	523.45
639.80	521.22
640.14	518.95
640.49	516.87
640.83	514.79
641.17	512.70
641.52	510.67
641.86	508.32
642.20	506.37
642.55	504.07
642.89	501.76
643.23	499.46
643.58	497.57
643.92	495.29
644.26	493.05
644.61	491.06
644.95	488.80
645.29	486.51
645.64	484.37
645.98	482.20
646.32	480.20
646.66	477.96
647.01	475.96
647.35	474.14
647.69	472.03
648.04	469.92
648.38	467.78
648.72	465.66
649.06	463.58
649.41	461.48
649.75	459.44
650.09	457.44
650.43	455.48
650.78	453.30
651.12	451.29
651.46	449.38
651.80	447.40
652.14	445.38
652.49	443.46
652.83	441.36
653.17	439.22
653.51	437.22
653.85	435.36
654.20	433.40
654.54	431.15
654.88	429.16
655.22	427.33
655.56	425.31
655.90	423.39
656.25	421.44
656.59	419.59
656.93	417.69
657.27	415.93
657.61	413.91
657.95	412.00
658.29	410.12
658.64	408.30
658.98	406.34
659.32	404.45
659.66	402.52
660.00	400.66
660.34	398.84
660.68	396.82
661.02	394.99
661.36	393.21
661.70	391.55
662.05	389.81
662.39	388.23
662.73	386.66
663.07	385.27
663.41	383.71
663.75	381.96
664.09	380.40
664.43	378.60
664.77	377.07
665.11	375.48
665.45	373.95
665.79	372.40
666.13	370.97
666.47	369.41
666.81	367.93
667.15	366.48
667.49	365.26
667.83	363.99
668.17	362.54
668.51	361.20
668.85	359.94
669.19	358.86
669.53	357.25
669.87	355.77
670.21	354.25
670.55	352.86
670.89	351.74
671.23	350.47
671.57	349.24
671.91	348.01
672.25	346.67
672.58	345.57
672.92	344.25
673.26	342.99
673.60	341.94
673.94	340.75
674.28	339.53
674.62	338.28
674.96	337.20
675.30	336.13
675.64	334.92
675.97	333.70
676.31	332.34
676.65	331.33
676.99	330.42
677.33	329.16
677.67	328.08
678.01	326.85
678.34	325.78
678.68	324.71
679.02	323.55
679.36	322.59
679.70	321.38
680.04	320.27
680.37	319.23
680.71	318.20
681.05	317.20
681.39	316.26
681.73	315.25
682.06	314.31
682.40	313.34
682.74	312.48
683.08	311.71
683.42	310.67
683.75	309.64
684.09	308.53
684.43	307.71
684.77	306.76
685.10	305.81
685.44	304.80
685.78	303.82
686.12	302.94
686.45	302.04
686.79	301.03
687.13	300.25
687.46	299.35
687.80	298.53
688.14	297.63
688.48	296.75
688.81	295.87
689.15	295.00
689.49	294.05
689.82	293.10
690.16	292.04
690.50	291.22
690.83	290.35
691.17	289.37
691.51	288.54
691.84	287.70
692.18	286.95
692.52	286.20
692.85	285.61
693.19	284.98
693.52	284.18
693.86	283.39
694.20	282.59
694.53	281.87
694.87	281.01
695.21	280.17
695.54	279.31
695.88	278.50
696.21	277.67
696.55	276.98
696.88	276.24
697.22	275.55
697.56	275.00
697.89	274.28
698.23	273.75
698.56	273.01
698.90	272.39
699.23	271.70
699.57	271.10
699.90	270.35
700.24	269.56
700.58	268.91
700.91	268.35
701.25	267.95
701.58	267.40
701.92	266.86
702.25	266.33
702.59	265.80
702.92	265.28
703.26	264.65
703.59	264.15
703.93	263.88
704.26	263.40
704.60	262.75
704.93	262.20
705.26	261.62
705.60	261.11
705.93	260.58
706.27	260.16
706.60	259.59
706.94	259.14
707.27	258.62
707.61	258.11
707.94	257.63
708.27	256.80
708.61	256.15
708.94	255.68
709.28	255.30
709.61	254.83
709.94	254.39
710.28	253.90
710.61	253.35
710.95	252.59
711.28	252.32
711.61	251.90
711.95	251.63
712.28	251.20
712.61	250.78
712.95	250.45
713.28	250.14
713.61	249.69
713.95	249.16
714.28	248.75
714.61	248.35
714.95	247.95
715.28	247.63
715.61	247.21
715.95	246.70
716.28	246.19
716.61	245.86
716.95	245.41
717.28	245.10
717.61	244.76
717.94	244.44
718.28	243.81
718.61	243.44
718.94	242.99
719.27	242.61
719.61	242.23
719.94	241.79
720.27	241.22
720.60	240.86
720.94	240.58
721.27	240.29
721.60	239.97
721.93	239.64
722.27	239.51
722.60	239.32
722.93	239.11
723.26	238.83
723.59	238.46
723.93	238.25
724.26	238.02
724.59	237.74
724.92	237.50
725.25	237.35
725.59	237.09
725.92	236.92
726.25	236.63
726.58	236.48
726.91	236.24
727.24	236.05
727.57	235.80
727.91	235.48
728.24	235.27
728.57	235.04
728.90	234.84
729.23	234.43
729.56	234.30
729.89	234.06
730.22	233.79
730.55	233.55
730.89	233.29
731.22	232.99
731.55	232.85
731.88	232.65
732.21	232.35
732.54	232.12
732.87	231.83
733.20	231.70
733.53	231.41
733.86	231.20
734.19	230.97
734.52	230.89
734.85	230.90
735.18	230.73
735.51	230.63
735.84	230.46
736.17	230.40
736.50	230.09
736.83	230.28
737.16	230.05
737.49	229.96
737.82	229.79
738.15	229.64
738.48	229.34
738.81	229.11
739.14	228.89
739.47	228.63
739.80	228.51
740.13	228.44
740.46	228.25
740.79	228.09
741.12	227.91
741.45	227.70
741.78	227.34
742.11	227.27
742.44	227.03
742.77	226.90
743.10	226.60
743.43	226.40
743.75	225.91
744.08	226.20
744.41	225.98
744.74	225.75
745.07	225.56
745.40	225.54
745.73	225.51
746.06	225.38
746.39	225.24
746.71	224.99
747.04	224.75
747.37	224.58
747.70	224.45
748.03	224.39
748.36	224.28
748.68	224.14
749.01	223.84
749.34	223.76
749.67	223.69
750.00	223.67
750.33	223.85
750.65	223.75
750.98	223.25
751.31	223.12
751.64	223.07
751.97	223.15
752.29	222.90
752.62	222.63
752.95	222.49
753.28	222.39
753.60	222.31
753.93	222.29
754.26	222.24
754.59	222.03
754.91	221.78
755.24	221.59
755.57	221.55
755.90	221.45
756.22	221.30
756.55	221.09
756.88	220.85
757.20	220.55
757.53	220.31
757.86	220.18
758.19	220.09
758.51	219.95
758.84	219.65
759.17	219.57
759.49	219.53
759.82	219.65
760.15	219.63
760.47	219.49
760.80	219.21
761.13	219.15
761.45	219.08
761.78	219.05
762.11	218.98
762.43	218.77
762.76	218.70
763.08	218.60
763.41	218.59
763.74	218.50
764.06	218.35
764.39	218.25
764.71	218.23
765.04	218.18
765.37	218.17
765.69	218.04
766.02	217.98
766.34	217.90
766.67	217.61
767.00	217.59
767.32	217.68
767.65	217.84
767.97	217.71
768.30	217.63
768.62	217.62
768.95	217.51
769.27	217.47
769.60	217.44
769.92	217.21
770.25	217.06
770.57	217.08
770.90	216.97
771.22	216.87
771.55	216.73
771.87	216.66
772.20	216.49
772.52	216.77
772.85	217.12
773.17	217.11
773.50	217.08
773.82	216.98
774.15	216.78
774.47	216.52
774.80	216.39
775.12	216.32
775.45	216.21
775.77	216.23
776.09	216.29
776.42	216.18
776.74	216.28
777.07	216.21
777.39	216.09
777.72	216.08
778.04	216.14
778.36	216.08
778.69	216.06
779.01	216.05
779.33	215.63
779.66	215.20
779.98	215.04
780.31	214.95
780.63	215.07
780.95	215.10
781.28	215.15
781.60	215.16
781.92	215.18
782.25	215.12
782.57	215.09
782.89	215.01
783.22	214.97
783.54	214.94
783.86	214.94
784.19	214.94
784.51	214.92
784.83	214.87
785.16	214.82
785.48	214.76
785.80	214.80
786.12	214.86
786.45	214.75
786.77	214.82
787.09	214.84
787.42	214.59
787.74	214.57
788.06	214.46
788.38	214.37
788.71	214.36
789.03	214.40
789.35	214.30
789.67	214.28
789.99	214.29
790.32	214.23
790.64	214.22
790.96	214.47
791.28	214.38
791.61	214.29
791.93	214.37
792.25	214.41
792.57	214.59
792.89	214.51
793.21	214.55
793.54	214.43
793.86	214.36
794.18	214.41
794.50	214.30
794.82	214.29
795.14	214.30
795.47	214.26
795.79	214.20
796.11	214.18
796.43	214.08
796.75	214.12
797.07	214.11
797.39	214.05
797.71	213.73
798.04	213.76
798.36	213.80
798.68	213.68
799.00	213.58
799.32	213.40
799.64	213.42
799.96	213.47
800.28	213.49
800.60	213.48
800.92	213.50
801.24	213.49
801.56	213.52
801.89	213.47
802.21	213.41
802.53	213.40
802.85	213.45
803.17	213.55
803.49	213.42
803.81	213.37
804.13	213.34
804.45	213.32
804.77	213.25
805.09	213.18
805.41	213.20
805.73	213.13
806.05	212.96
806.37	212.97
806.69	212.91
807.01	212.86
807.33	212.86
807.65	212.71
807.97	212.84
808.28	212.85
808.60	212.85
808.92	212.82
809.24	212.97
809.56	212.85
809.88	212.80
810.20	212.80
810.52	212.80
810.84	212.81
811.16	212.68
811.48	212.64
811.80	212.78
812.12	212.75
812.43	212.79
812.75	212.91
813.07	212.84
813.39	212.73
813.71	212.71
814.03	212.66
814.35	212.67
814.67	212.50
814.98	212.36
815.30	212.42
815.62	212.39
815.94	212.15
816.26	212.17
816.58	212.10
816.89	212.14
817.21	212.10
817.53	212.11
817.85	212.15
818.17	212.16
818.48	212.02
818.80	212.05
819.12	211.97
819.44	211.81
819.76	211.78
820.07	211.84
820.39	211.80
820.71	211.80
821.03	211.78
821.34	211.77
821.66	211.81
821.98	211.77
822.30	211.78
822.61	211.97
822.93	211.96
823.25	211.95
823.57	211.91
823.88	212.05
824.20	212.00
824.52	212.09
824.83	212.11
825.15	212.10
825.47	212.15
825.79	212.17
826.10	212.16
826.42	212.17
826.74	212.16
827.05	212.18
827.37	212.18
827.69	212.18
828.00	212.19
828.32	212.13
828.64	212.09
828.95	212.22
829.27	212.13
829.58	212.12
829.90	212.17
830.22	212.17
830.53	212.03
830.85	212.00
831.17	211.98
831.48	212.00
831.80	211.92
832.11	211.82
832.43	211.85
832.75	211.92
833.06	212.13
833.38	212.09
833.69	212.01
834.01	212.02
834.32	212.06
834.64	212.03
834.96	212.04
835.27	212.05
835.59	211.96
835.90	211.88
836.22	211.92
836.53	211.84
836.85	211.85
837.16	212.19
837.48	212.14
837.79	212.18
838.11	212.18
838.42	212.19
838.74	212.30
839.05	212.25
839.37	212.22
839.68	211.99
840.00	211.95
840.31	212.05
840.63	212.01
840.94	211.93
841.26	211.85
841.57	211.93
841.88	212.02
842.20	211.97
842.51	211.98
842.83	211.87
843.14	212.20
843.46	212.24
843.77	211.96
844.08	211.98
844.40	211.89
844.71	211.74
845.03	211.75
845.34	211.68
845.65	211.70
845.97	211.66
846.28	211.65
846.60	211.72
846.91	211.61
847.22	211.60
847.54	211.67
847.85	211.75
848.16	211.72
848.48	211.59
848.79	211.72
849.10	211.73
849.42	211.78
849.73	211.39
850.04	211.33
850.36	211.32
850.67	211.40
850.98	211.39
851.30	211.50
851.61	211.45
851.92	211.41
852.23	211.46
852.55	211.48
852.86	211.50
853.17	211.40
853.49	211.53
853.80	211.60
854.11	211.63
854.42	211.66
854.74	211.66
855.05	211.70
855.36	211.54
855.67	211.57
855.99	211.61
856.30	212.11
856.61	212.09
856.92	212.07
857.23	212.13
857.55	212.03
857.86	212.02
858.17	212.11
858.48	212.06
858.79	212.05
859.11	212.10
859.42	212.08
859.73	212.11
860.04	212.05
860.35	211.96
860.66	211.91
860.98	211.88
861.29	211.87
861.60	211.87
861.91	211.88
862.22	211.84
862.53	211.78
862.84	211.28
863.16	211.37
863.47	211.26
863.78	211.17
864.09	211.34
864.40	211.39
864.71	211.37
865.02	211.50
865.33	211.50
865.64	211.43
865.95	211.50
866.27	211.73
866.58	211.74
866.89	211.85
867.20	211.82
867.51	211.77
867.82	211.75
868.13	211.85
868.44	211.84
868.75	211.86
869.06	211.90
869.37	211.90
869.68	211.77
869.99	211.82
870.30	211.84
870.61	211.84
870.92	211.76
871.23	211.78
871.54	211.75
871.85	211.76
872.16	211.83
872.47	211.70
872.78	211.55
873.09	211.59
873.40	211.54
873.71	211.49
874.02	211.57
874.33	211.55
874.64	211.46
874.95	211.51
875.26	211.52
875.56	211.44
875.87	211.49
876.18	211.49
876.49	211.82
876.80	211.85
877.11	211.75
877.42	211.72
877.73	211.69
878.04	211.62
878.35	211.64
878.66	211.59
878.96	211.66
879.27	211.59
879.58	211.59
879.89	211.53
880.20	211.74
880.51	211.66
880.82	211.69
881.12	211.74
881.43	211.61
881.74	211.60
882.05	211.58
882.36	211.59
882.67	211.66
882.97	211.35
883.28	211.21
883.59	211.22
883.90	211.25
884.21	211.35
884.51	211.25
884.82	211.25
885.13	211.23
885.44	211.17
885.74	211.14
886.05	211.07
886.36	211.10
886.67	210.95
886.98	211.13
887.28	211.11
887.59	211.03
887.90	211.11
888.20	211.07
888.51	211.20
888.82	211.15
889.13	211.14
889.43	211.39
889.74	211.42
890.05	211.46
890.35	211.46
890.66	211.28
890.97	211.32
891.28	211.27
891.58	211.25
891.89	211.29
892.20	211.27
892.50	211.24
892.81	211.20
893.12	211.17
893.42	210.95
893.73	210.94
894.04	211.01
894.34	211.01
894.65	210.97
894.95	210.88
895.26	210.96
895.57	211.15
895.87	210.85
896.18	210.93
896.48	210.94
896.79	210.90
897.10	211.09
897.40	211.15
897.71	211.20
898.01	211.22
898.32	211.20
898.63	211.28
898.93	211.30
899.24	211.26
899.54	211.25
899.85	211.32
900.15	211.30
900.46	211.32
900.76	211.28
901.07	211.31
901.38	211.38
901.68	211.36
901.99	211.15
902.29	211.16
902.60	211.10
902.90	211.07
903.21	211.11
903.51	211.09
903.82	211.18
904.12	211.25
904.43	211.24
904.73	211.30
905.03	211.28
905.34	211.60
905.64	211.59
905.95	211.62
906.25	211.63
906.56	211.62
906.86	211.52
907.17	211.51
907.47	211.53
907.77	211.44
908.08	211.30
908.38	211.30
908.69	211.33
908.99	211.46
909.30	211.45
909.60	211.42
909.90	211.37
910.21	211.23
910.51	211.11
910.81	211.11
911.12	211.14
911.42	211.09
911.73	210.80
912.03	210.86
912.33	210.94
912.64	210.92
912.94	210.96
913.24	210.98
913.55	210.95
913.85	210.93
914.15	211.01
914.46	211.12
914.76	211.09
915.06	211.09
915.37	210.94
915.67	210.91
915.97	210.88
916.27	210.80
916.58	210.87
916.88	210.81
917.18	210.84
917.49	211.00
917.79	211.04
918.09	211.07
918.39	211.19
918.70	211.10
919.00	211.10
919.30	211.32
919.60	211.27
919.91	211.29
920.21	211.30
920.51	211.18
920.81	211.15
921.12	211.21
921.42	211.18
921.72	211.22
922.02	211.29
922.32	211.43
922.63	211.51
922.93	211.69
923.23	211.77
923.53	211.68
923.83	211.43
924.13	211.44
924.44	211.49
924.74	211.46
925.04	211.54
925.34	211.50
925.64	211.24
925.94	211.31
926.24	211.50
926.55	211.45
926.85	211.61
927.15	211.56
927.45	211.52
927.75	211.50
928.05	211.49
928.35	211.40
928.65	211.40
928.95	211.44
929.26	211.29
929.56	211.34
929.86	211.42
930.16	211.47
930.46	211.47
930.76	211.43
931.06	211.27
931.36	211.20
931.66	211.24
931.96	211.29
932.26	211.23
932.56	211.06
932.86	211.06
933.16	211.00
933.46	211.00
933.76	210.99
934.06	211.06
934.36	211.23
934.66	211.30
934.96	211.25
935.26	211.20
935.56	211.30
935.86	211.21
936.16	211.11
936.46	211.14
936.76	211.12
937.06	211.10
937.36	211.15
937.66	211.23
937.96	211.21
938.26	211.14
938.56	211.10
938.86	211.11
939.16	211.22
939.46	211.27
939.76	211.31
940.06	211.33
940.35	211.24
940.65	211.09
940.95	211.10
941.25	210.98
941.55	210.91
941.85	210.83
942.15	210.90
942.45	210.97
942.75	210.98
943.04	211.01
943.34	211.02
943.64	211.01
943.94	210.91
944.24	210.94
944.54	210.95
944.84	211.00
945.13	210.96
945.43	210.95
945.73	210.92
946.03	210.91
946.33	210.82
946.62	210.88
946.92	210.82
947.22	210.81
947.52	210.87
947.82	210.96
948.11	210.97
948.41	210.90
948.71	210.90
949.01	210.85
949.31	210.87
949.60	210.86
949.90	210.93
950.20	210.92
950.50	210.87
950.79	210.87
951.09	210.95
951.39	211.00
951.69	210.93
951.98	210.99
952.28	211.01
952.58	211.06
952.87	211.10
953.17	211.21
953.47	211.12
953.76	211.13
954.06	211.06
954.36	210.98
954.66	210.92
954.95	211.01
955.25	211.04
955.55	210.96
955.84	210.90
956.14	210.93
956.44	210.95
956.73	210.95
957.03	211.03
957.32	210.95
957.62	210.89
957.92	210.93
958.21	210.89
958.51	211.24
958.81	211.24
959.10	211.16
959.40	211.18
959.69	211.27
959.99	211.34
960.29	211.36
960.58	211.36
960.88	211.51
961.17	211.43
961.47	211.41
961.76	211.41
962.06	211.54
962.36	211.46
962.65	211.46
962.95	211.45
963.24	211.37
963.54	211.49
963.83	211.51
964.13	211.48
964.42	211.46
964.72	211.18
965.01	211.23
965.31	211.24
965.60	211.21
965.90	211.39
966.19	211.35
966.49	211.36
966.78	211.41
967.08	211.38
967.37	211.35
967.67	211.31
967.96	211.38
968.26	211.30
968.55	211.37
968.85	211.43
969.14	211.40
969.43	211.33
969.73	211.24
970.02	211.21
970.32	211.19
970.61	211.07
970.91	210.98
971.20	210.91
971.49	210.77
971.79	210.79
972.08	210.54
972.38	210.53
972.67	210.53
972.96	210.51
973.26	210.51
973.55	210.58
973.85	210.54
974.14	210.50
974.43	210.55
974.73	210.49
975.02	210.45
975.31	210.54
975.61	210.58
975.90	210.56
976.19	210.61
976.49	210.70
976.78	210.82
977.07	210.78
977.37	210.76
977.66	210.89
977.95	210.78
978.24	210.82
978.54	210.86
978.83	210.82
979.12	210.80
979.42	210.74
979.71	210.74
980.00	210.79
980.29	210.84
980.59	210.80
980.88	210.94
981.17	210.90
981.46	210.93
981.76	210.98
982.05	211.08
982.34	211.08
982.63	211.06
982.93	211.03
983.22	211.19
983.51	211.22
983.80	211.30
984.09	211.42
984.39	211.45
984.68	211.38
984.97	211.36
985.26	211.37
985.55	211.41
985.85	211.34
986.14	211.48
986.43	211.49
986.72	211.47
987.01	211.31
987.30	211.30
987.59	211.22
987.89	211.17
988.18	211.08
988.47	211.07
988.76	211.04
989.05	211.02
989.34	210.96
989.63	211.05
989.92	211.00
990.22	210.94
990.51	210.89
990.80	210.95
991.09	210.99
991.38	211.05
991.67	211.04
991.96	210.97
992.25	210.90
992.54	210.80
992.83	210.75
993.12	210.77
993.41	210.87
993.70	210.96
993.99	211.08
994.28	211.14
994.58	211.13
994.87	211.09
995.16	211.09
995.45	211.11
995.74	211.07
996.03	211.15
996.32	211.20
996.61	211.34
996.90	211.32
997.19	211.32
997.48	211.31
997.77	211.30
998.06	211.42
998.34	211.38
998.63	211.42
998.92	211.46
999.21	211.45
999.50	211.44
999.79	211.39
1000.08	211.33
1000.37	211.31
1000.66	211.26
1000.95	211.36
1001.24	211.37
1001.53	211.42
1001.82	211.33
1002.11	211.18
1002.40	211.21
1002.68	211.22
1002.97	211.46
1003.26	211.48
1003.55	211.47
1003.84	211.50
1004.13	211.63
1004.42	211.67
1004.71	211.60
1004.99	211.68
1005.28	211.80
1005.57	211.76
1005.86	211.68
1006.15	211.63
1006.44	211.55
1006.72	211.67
1007.01	211.63
1007.30	211.63
1007.59	211.53
1007.88	211.56
1008.17	211.64
1008.45	211.58
1008.74	211.42
1009.03	211.15
1009.32	211.11
1009.60	211.02
1009.89	210.96
1010.18	210.77
1010.47	210.81
1010.76	210.85
1011.04	210.82
1011.33	210.87
1011.62	210.89
1011.91	210.98
1012.19	211.06
1012.48	211.06
1012.77	210.99
1013.05	211.07
1013.34	211.04
1013.63	210.99
1013.92	210.95
1014.20	210.85
1014.49	210.82
1014.78	210.84
1015.06	210.78
1015.35	210.77
1015.64	210.80
1015.92	210.91
1016.21	210.89
1016.50	210.75
1016.78	210.76
1017.07	210.75
1017.36	210.62
1017.64	210.57
1017.93	210.60
1018.22	210.54
1018.50	210.56
1018.79	210.61
1019.08	210.52
1019.36	210.55
1019.65	210.60
1019.93	210.77
1020.22	210.91
1020.51	211.05
1020.79	211.02
1021.08	210.25
1021.36	210.15
1021.65	212.00
1021.94	211.30
1022.22	210.65
1022.51	210.50
1022.79	213.10
1023.08	212.25
1023.36	213.85
1023.65	209.35
>>>>>End Processed Spectral Data<<<<<
