SpectraSuite Data File
++++++++++++++++++++++++++++++++++++
Date: Mon Feb 25 16:55:40 EST 2013
User: group
Dark Spectrum Present: No
Reference Spectrum Present: No
Number of Sampled Component Spectra: 1
Spectrometers: USB2E7196
Integration Time (usec): 104000 (USB2E7196)
Spectra Averaged: 20 (USB2E7196)
Boxcar Smoothing: 10 (USB2E7196)
Correct for Electrical Dark: No (USB2E7196)
Strobe/Lamp Enabled: No (USB2E7196)
Correct for Detector Non-linearity: No (USB2E7196)
Correct for Stray Light: No (USB2E7196)
Number of Pixels in Processed Spectrum: 2048
>>>>>Begin Processed Spectral Data<<<<<
339.09	0.00
339.48	197.85
339.86	198.15
340.24	201.30
340.63	202.20
341.01	209.15
341.39	205.55
341.78	206.95
342.16	208.25
342.54	207.65
342.93	197.71
343.31	207.75
343.69	208.33
344.07	208.86
344.46	209.29
344.84	209.71
345.22	209.80
345.60	210.14
345.99	210.31
346.37	210.47
346.75	210.62
347.13	210.72
347.52	210.80
347.90	210.97
348.28	211.10
348.66	211.30
349.05	211.24
349.43	211.33
349.81	211.39
350.19	211.49
350.57	211.67
350.96	211.85
351.34	211.93
351.72	212.08
352.10	212.20
352.48	212.31
352.87	212.38
353.25	212.45
353.63	212.43
354.01	212.60
354.39	212.68
354.77	212.87
355.15	213.01
355.54	212.98
355.92	212.98
356.30	213.11
356.68	213.37
357.06	213.45
357.44	213.52
357.82	213.60
358.20	213.70
358.58	213.72
358.97	213.80
359.35	213.96
359.73	214.13
360.11	214.23
360.49	214.27
360.87	214.36
361.25	214.51
361.63	214.70
362.01	214.72
362.39	214.78
362.77	214.81
363.15	214.87
363.53	214.95
363.91	215.05
364.29	215.01
364.67	214.80
365.05	214.90
365.43	214.98
365.81	215.04
366.19	215.23
366.57	215.29
366.95	215.30
367.33	215.22
367.71	215.13
368.09	215.10
368.47	215.17
368.85	215.14
369.23	215.19
369.61	215.05
369.99	215.16
370.37	215.17
370.75	215.28
371.13	215.13
371.51	215.08
371.89	215.01
372.27	215.04
372.65	214.99
373.03	214.89
373.41	214.80
373.78	214.71
374.16	214.48
374.54	214.44
374.92	214.31
375.30	214.28
375.68	214.18
376.06	214.22
376.44	214.13
376.82	214.12
377.19	213.97
377.57	213.96
377.95	213.74
378.33	213.70
378.71	213.47
379.09	213.51
379.47	213.53
379.84	213.46
380.22	213.37
380.60	213.32
380.98	213.25
381.36	213.22
381.73	213.17
382.11	213.17
382.49	213.09
382.87	213.08
383.25	213.00
383.62	213.39
384.00	213.28
384.38	213.23
384.76	213.23
385.13	213.32
385.51	213.24
385.89	213.22
386.27	213.17
386.64	213.19
387.02	213.13
387.40	213.05
387.78	213.04
388.15	213.01
388.53	212.86
388.91	212.82
389.29	212.75
389.66	212.78
390.04	212.75
390.42	212.76
390.79	212.78
391.17	212.75
391.55	212.32
391.92	212.30
392.30	212.37
392.68	212.25
393.05	212.29
393.43	212.31
393.81	212.32
394.18	212.32
394.56	212.28
394.94	212.34
395.31	212.30
395.69	212.42
396.06	212.45
396.44	212.50
396.82	212.53
397.19	212.78
397.57	212.74
397.95	212.86
398.32	212.82
398.70	212.90
399.07	213.05
399.45	213.16
399.82	213.18
400.20	213.20
400.58	213.28
400.95	213.31
401.33	213.51
401.70	213.90
402.08	214.01
402.45	214.20
402.83	214.40
403.20	214.61
403.58	214.73
403.95	215.07
404.33	215.38
404.71	215.62
405.08	215.99
405.46	216.32
405.83	216.64
406.21	217.01
406.58	217.45
406.96	217.87
407.33	218.31
407.70	218.82
408.08	219.65
408.45	220.30
408.83	220.85
409.20	221.41
409.58	221.92
409.95	222.74
410.33	223.57
410.70	224.37
411.08	225.43
411.45	226.42
411.82	227.38
412.20	228.58
412.57	230.01
412.95	231.05
413.32	232.47
413.69	233.87
414.07	235.34
414.44	236.96
414.82	238.65
415.19	240.67
415.56	242.84
415.94	244.91
416.31	247.43
416.68	249.99
417.06	252.85
417.43	255.53
417.81	258.66
418.18	261.85
418.55	265.28
418.93	268.80
419.30	272.66
419.67	276.70
420.04	280.83
420.42	285.13
420.79	290.28
421.16	295.35
421.54	300.68
421.91	306.24
422.28	311.99
422.66	318.14
423.03	324.19
423.40	330.38
423.77	337.09
424.15	343.92
424.52	351.00
424.89	358.79
425.26	366.33
425.64	373.52
426.01	381.38
426.38	389.65
426.75	397.96
427.13	406.68
427.50	416.04
427.87	425.65
428.24	435.35
428.61	444.51
428.99	454.64
429.36	465.57
429.73	476.45
430.10	487.27
430.47	498.33
430.85	509.90
431.22	522.11
431.59	535.00
431.96	547.40
432.33	561.21
432.70	574.51
433.08	590.37
433.45	605.28
433.82	620.19
434.19	636.83
434.56	653.36
434.93	669.25
435.30	684.96
435.68	702.56
436.05	720.02
436.42	737.52
436.79	753.58
437.16	771.01
437.53	789.59
437.90	807.68
438.27	825.85
438.64	844.70
439.01	862.32
439.38	878.52
439.75	894.03
440.13	911.55
440.50	928.14
440.87	941.99
441.24	956.36
441.61	972.34
441.98	984.27
442.35	998.32
442.72	1012.13
443.09	1025.68
443.46	1034.33
443.83	1040.72
444.20	1046.20
444.57	1054.12
444.94	1058.42
445.31	1062.69
445.68	1067.01
446.05	1069.75
446.42	1069.50
446.79	1068.88
447.16	1067.93
447.53	1067.52
447.90	1062.18
448.27	1057.10
448.64	1048.84
449.01	1043.45
449.37	1032.65
449.74	1022.43
450.11	1009.45
450.48	995.54
450.85	981.10
451.22	969.02
451.59	957.36
451.96	946.44
452.33	930.93
452.70	917.30
453.07	900.60
453.43	883.86
453.80	867.63
454.17	851.92
454.54	837.02
454.91	820.83
455.28	805.35
455.65	791.00
456.02	776.13
456.38	763.95
456.75	748.29
457.12	735.48
457.49	722.71
457.86	710.57
458.23	699.95
458.59	688.39
458.96	676.58
459.33	666.07
459.70	655.60
460.07	647.36
460.43	637.70
460.80	628.68
461.17	620.70
461.54	612.23
461.91	604.29
462.27	596.33
462.64	589.50
463.01	581.88
463.38	574.43
463.74	567.19
464.11	560.80
464.48	555.34
464.85	548.99
465.21	544.28
465.58	539.30
465.95	533.34
466.32	528.38
466.68	523.34
467.05	518.32
467.42	513.24
467.78	508.09
468.15	503.19
468.52	499.65
468.88	495.03
469.25	490.83
469.62	487.38
469.98	483.64
470.35	480.17
470.72	476.83
471.08	473.35
471.45	470.34
471.82	467.15
472.18	463.70
472.55	461.39
472.92	458.56
473.28	455.85
473.65	453.43
474.02	451.00
474.38	449.15
474.75	447.57
475.11	445.77
475.48	444.34
475.85	443.10
476.21	441.75
476.58	440.65
476.94	439.90
477.31	438.99
477.67	438.18
478.04	437.50
478.41	437.14
478.77	437.08
479.14	436.69
479.50	436.70
479.87	436.84
480.23	436.99
480.60	436.97
480.96	437.16
481.33	437.80
481.69	438.35
482.06	438.63
482.42	438.86
482.79	439.55
483.15	440.56
483.52	441.86
483.88	443.08
484.25	444.24
484.61	445.44
484.98	446.79
485.34	448.54
485.71	450.44
486.07	452.46
486.44	454.09
486.80	456.30
487.17	458.67
487.53	461.30
487.90	464.03
488.26	467.00
488.62	470.18
488.99	473.29
489.35	476.46
489.72	480.21
490.08	484.11
490.44	487.87
490.81	491.78
491.17	495.55
491.54	499.79
491.90	504.22
492.26	509.03
492.63	513.74
492.99	518.65
493.36	523.81
493.72	529.19
494.08	534.80
494.45	540.66
494.81	546.64
495.17	552.75
495.54	559.20
495.90	565.70
496.26	572.27
496.63	579.02
496.99	586.20
497.35	593.44
497.72	600.82
498.08	608.42
498.44	616.10
498.80	624.44
499.17	632.81
499.53	641.17
499.89	649.73
500.26	658.29
500.62	666.75
500.98	675.60
501.34	684.52
501.71	693.58
502.07	702.59
502.43	711.86
502.79	720.98
503.16	730.41
503.52	740.02
503.88	749.54
504.24	759.12
504.60	768.63
504.97	778.43
505.33	788.11
505.69	798.67
506.05	808.98
506.41	818.87
506.78	828.46
507.14	838.35
507.50	848.24
507.86	858.43
508.22	868.65
508.59	878.43
508.95	888.53
509.31	898.56
509.67	908.81
510.03	918.77
510.39	929.32
510.75	939.32
511.12	949.37
511.48	959.26
511.84	969.30
512.20	978.87
512.56	988.77
512.92	999.03
513.28	1008.36
513.64	1017.68
514.00	1027.14
514.37	1036.73
514.73	1046.36
515.09	1055.71
515.45	1064.78
515.81	1073.83
516.17	1082.75
516.53	1091.31
516.89	1100.03
517.25	1108.36
517.61	1116.64
517.97	1124.30
518.33	1131.89
518.69	1139.51
519.05	1147.51
519.41	1155.22
519.77	1163.31
520.13	1170.52
520.49	1177.37
520.85	1184.39
521.21	1191.52
521.57	1198.55
521.93	1204.99
522.29	1211.56
522.65	1218.01
523.01	1224.25
523.37	1230.10
523.73	1236.58
524.09	1242.76
524.45	1248.64
524.81	1254.47
525.17	1260.37
525.53	1266.25
525.89	1272.22
526.25	1277.87
526.61	1282.51
526.97	1287.46
527.33	1292.45
527.68	1297.41
528.04	1302.12
528.40	1306.40
528.76	1310.93
529.12	1315.45
529.48	1320.65
529.84	1325.10
530.20	1329.36
530.56	1333.90
530.91	1338.77
531.27	1343.00
531.63	1347.10
531.99	1351.44
532.35	1355.60
532.71	1359.26
533.07	1363.32
533.42	1367.23
533.78	1371.00
534.14	1375.10
534.50	1378.18
534.86	1381.80
535.21	1385.15
535.57	1389.08
535.93	1392.57
536.29	1395.53
536.65	1398.61
537.00	1400.81
537.36	1403.25
537.72	1405.74
538.08	1408.37
538.44	1410.60
538.79	1413.02
539.15	1415.44
539.51	1417.71
539.87	1420.12
540.22	1422.57
540.58	1425.15
540.94	1427.32
541.29	1428.83
541.65	1430.08
542.01	1432.39
542.37	1433.98
542.72	1435.64
543.08	1436.85
543.44	1438.81
543.79	1439.85
544.15	1440.96
544.51	1442.99
544.87	1444.75
545.22	1446.08
545.58	1446.95
545.94	1447.75
546.29	1448.14
546.65	1448.56
547.01	1448.89
547.36	1449.28
547.72	1449.83
548.07	1449.60
548.43	1449.23
548.79	1449.10
549.14	1449.62
549.50	1449.33
549.86	1448.99
550.21	1448.72
550.57	1448.87
550.92	1448.29
551.28	1448.44
551.64	1448.20
551.99	1447.78
552.35	1447.23
552.70	1446.70
553.06	1446.62
553.41	1446.37
553.77	1446.66
554.13	1446.61
554.48	1446.73
554.84	1446.72
555.19	1446.31
555.55	1446.04
555.90	1445.58
556.26	1445.35
556.61	1444.61
556.97	1443.92
557.32	1443.70
557.68	1442.93
558.03	1441.74
558.39	1440.61
558.74	1439.69
559.10	1438.96
559.45	1437.92
559.81	1437.29
560.16	1436.25
560.52	1435.16
560.87	1434.32
561.23	1432.51
561.58	1431.36
561.94	1429.65
562.29	1427.69
562.64	1426.67
563.00	1425.31
563.35	1424.46
563.71	1423.88
564.06	1422.78
564.42	1422.28
564.77	1421.30
565.12	1420.64
565.48	1419.90
565.83	1419.15
566.19	1418.58
566.54	1417.15
566.89	1415.97
567.25	1415.17
567.60	1414.50
567.96	1413.66
568.31	1412.75
568.66	1412.09
569.02	1410.39
569.37	1408.73
569.72	1407.76
570.08	1405.93
570.43	1404.28
570.78	1402.51
571.14	1400.06
571.49	1398.34
571.84	1396.33
572.20	1393.87
572.55	1391.70
572.90	1389.11
573.26	1386.46
573.61	1383.65
573.96	1381.45
574.31	1378.70
574.67	1375.13
575.02	1371.66
575.37	1368.10
575.72	1364.45
576.08	1361.15
576.43	1357.63
576.78	1354.48
577.13	1351.03
577.49	1347.84
577.84	1344.39
578.19	1340.95
578.54	1338.38
578.90	1335.42
579.25	1331.90
579.60	1328.03
579.95	1324.06
580.30	1320.65
580.66	1317.26
581.01	1313.60
581.36	1309.36
581.71	1305.36
582.06	1301.80
582.42	1298.21
582.77	1294.11
583.12	1290.16
583.47	1286.40
583.82	1283.00
584.17	1279.26
584.53	1275.57
584.88	1271.43
585.23	1267.49
585.58	1263.57
585.93	1258.92
586.28	1254.65
586.63	1250.67
586.98	1247.00
587.34	1243.45
587.69	1239.18
588.04	1235.16
588.39	1231.22
588.74	1227.32
589.09	1223.47
589.44	1218.99
589.79	1214.90
590.14	1211.22
590.49	1207.15
590.84	1202.64
591.19	1198.94
591.54	1194.91
591.89	1190.07
592.25	1185.96
592.60	1181.49
592.95	1176.81
593.30	1172.12
593.65	1167.37
594.00	1162.43
594.35	1159.21
594.70	1154.63
595.05	1150.46
595.40	1146.05
595.75	1141.47
596.10	1137.41
596.45	1132.97
596.80	1129.11
597.15	1125.22
597.50	1120.48
597.85	1116.24
598.19	1111.95
598.54	1107.24
598.89	1102.80
599.24	1099.16
599.59	1094.80
599.94	1090.84
600.29	1086.83
600.64	1082.81
600.99	1078.48
601.34	1074.76
601.69	1069.29
602.04	1064.76
602.39	1060.14
602.74	1055.91
603.08	1051.85
603.43	1047.84
603.78	1043.59
604.13	1039.16
604.48	1034.76
604.83	1031.22
605.18	1027.43
605.53	1023.22
605.87	1018.97
606.22	1014.87
606.57	1010.14
606.92	1005.62
607.27	1001.16
607.62	996.82
607.96	992.79
608.31	988.96
608.66	984.26
609.01	979.83
609.36	975.52
609.70	971.10
610.05	966.37
610.40	961.85
610.75	956.89
611.10	952.62
611.44	947.60
611.79	942.71
612.14	937.57
612.49	932.33
612.83	927.59
613.18	922.77
613.53	917.93
613.88	913.08
614.22	908.60
614.57	903.84
614.92	899.21
615.27	894.22
615.61	889.35
615.96	884.89
616.31	880.40
616.65	876.28
617.00	871.96
617.35	867.46
617.70	862.80
618.04	857.94
618.39	852.99
618.74	848.68
619.08	844.18
619.43	839.83
619.78	835.64
620.12	831.49
620.47	827.31
620.82	822.77
621.16	818.14
621.51	813.69
621.85	809.36
622.20	804.80
622.55	800.51
622.89	795.89
623.24	791.60
623.59	787.07
623.93	782.40
624.28	778.22
624.62	774.48
624.97	770.18
625.32	766.32
625.66	762.45
626.01	758.32
626.35	754.39
626.70	750.30
627.04	746.23
627.39	742.33
627.73	738.48
628.08	734.92
628.43	731.12
628.77	727.00
629.12	722.96
629.46	719.32
629.81	715.46
630.15	711.85
630.50	707.95
630.84	704.26
631.19	700.67
631.53	696.82
631.88	692.62
632.22	688.77
632.57	685.31
632.91	681.50
633.26	677.91
633.60	674.10
633.95	670.66
634.29	667.01
634.64	663.36
634.98	659.52
635.32	655.94
635.67	652.80
636.01	649.57
636.36	646.33
636.70	642.96
637.05	639.76
637.39	636.66
637.73	633.65
638.08	630.81
638.42	627.58
638.77	624.59
639.11	621.55
639.45	618.65
639.80	615.23
640.14	611.98
640.49	608.81
640.83	605.69
641.17	602.61
641.52	599.52
641.86	596.33
642.20	593.24
642.55	589.72
642.89	586.32
643.23	583.22
643.58	580.42
643.92	577.32
644.26	574.12
644.61	571.07
644.95	567.92
645.29	564.67
645.64	561.66
645.98	558.65
646.32	555.73
646.66	552.60
647.01	549.66
647.35	546.90
647.69	543.89
648.04	541.20
648.38	538.20
648.72	535.36
649.06	532.44
649.41	529.76
649.75	527.14
650.09	524.67
650.43	521.87
650.78	518.83
651.12	516.02
651.46	513.37
651.80	510.59
652.14	507.97
652.49	505.34
652.83	502.63
653.17	499.72
653.51	496.98
653.85	494.58
654.20	492.07
654.54	489.34
654.88	486.86
655.22	484.18
655.56	481.57
655.90	478.88
656.25	476.29
656.59	473.71
656.93	471.20
657.27	468.69
657.61	466.02
657.95	463.48
658.29	461.10
658.64	458.89
658.98	456.35
659.32	453.64
659.66	451.18
660.00	448.65
660.34	446.30
660.68	443.90
661.02	441.34
661.36	438.91
661.70	436.68
662.05	434.50
662.39	432.40
662.73	430.34
663.07	428.39
663.41	426.39
663.75	424.18
664.09	422.13
664.43	419.90
664.77	417.97
665.11	415.96
665.45	413.95
665.79	411.88
666.13	409.98
666.47	408.13
666.81	406.21
667.15	404.35
667.49	402.62
667.83	400.97
668.17	399.28
668.51	397.66
668.85	396.02
669.19	394.45
669.53	392.47
669.87	390.64
670.21	388.85
670.55	387.02
670.89	385.48
671.23	383.91
671.57	382.41
671.91	380.80
672.25	379.15
672.58	377.52
672.92	375.88
673.26	374.39
673.60	372.87
673.94	371.29
674.28	369.81
674.62	368.28
674.96	366.63
675.30	365.16
675.64	363.58
675.97	362.07
676.31	360.32
676.65	359.00
676.99	357.81
677.33	356.33
677.67	354.93
678.01	353.42
678.34	351.96
678.68	350.70
679.02	349.29
679.36	348.06
679.70	346.77
680.04	345.49
680.37	344.05
680.71	342.75
681.05	341.61
681.39	340.33
681.73	339.04
682.06	337.88
682.40	336.64
682.74	335.52
683.08	334.29
683.42	333.11
683.75	331.93
684.09	330.54
684.43	329.33
684.77	328.14
685.10	326.96
685.44	325.68
685.78	324.27
686.12	323.19
686.45	321.88
686.79	320.63
687.13	319.56
687.46	318.51
687.80	317.42
688.14	316.20
688.48	315.20
688.81	314.13
689.15	313.07
689.49	311.89
689.82	310.74
690.16	309.57
690.50	308.50
690.83	307.46
691.17	306.30
691.51	305.30
691.84	304.28
692.18	303.35
692.52	302.59
692.85	301.80
693.19	300.88
693.52	300.02
693.86	299.11
694.20	298.19
694.53	297.32
694.87	296.34
695.21	295.42
695.54	294.40
695.88	293.31
696.21	292.30
696.55	291.48
696.88	290.56
697.22	289.78
697.56	289.07
697.89	288.13
698.23	287.37
698.56	286.52
698.90	285.82
699.23	284.92
699.57	283.98
699.90	283.06
700.24	282.17
700.58	281.33
700.91	280.55
701.25	279.91
701.58	279.17
701.92	278.49
702.25	277.82
702.59	277.03
702.92	276.43
703.26	275.74
703.59	274.92
703.93	274.52
704.26	273.83
704.60	273.07
704.93	272.41
705.26	271.68
705.60	271.11
705.93	270.35
706.27	269.85
706.60	269.32
706.94	268.89
707.27	268.21
707.61	267.58
707.94	266.89
708.27	266.05
708.61	265.36
708.94	264.72
709.28	264.10
709.61	263.55
709.94	262.99
710.28	262.30
710.61	261.94
710.95	261.10
711.28	260.75
711.61	260.25
711.95	259.86
712.28	259.39
712.61	258.83
712.95	258.59
713.28	258.15
713.61	257.59
713.95	257.00
714.28	256.60
714.61	256.08
714.95	255.63
715.28	255.08
715.61	254.62
715.95	254.20
716.28	253.58
716.61	253.18
716.95	252.75
717.28	252.47
717.61	251.98
717.94	251.58
718.28	250.91
718.61	250.46
718.94	249.88
719.27	249.42
719.61	249.03
719.94	248.41
720.27	247.84
720.60	247.40
720.94	246.96
721.27	246.62
721.60	246.38
721.93	246.02
722.27	245.79
722.60	245.48
722.93	245.15
723.26	244.94
723.59	244.60
723.93	244.19
724.26	243.89
724.59	243.52
724.92	243.22
725.25	243.04
725.59	242.73
725.92	242.56
726.25	242.29
726.58	242.07
726.91	241.80
727.24	241.53
727.57	241.21
727.91	240.94
728.24	240.67
728.57	240.35
728.90	240.20
729.23	239.86
729.56	239.75
729.89	239.44
730.22	239.19
730.55	238.91
730.89	238.66
731.22	238.34
731.55	238.07
731.88	237.77
732.21	237.44
732.54	237.15
732.87	236.80
733.20	236.54
733.53	236.19
733.86	235.96
734.19	235.75
734.52	235.60
734.85	235.62
735.18	235.31
735.51	235.19
735.84	234.89
736.17	234.77
736.50	234.28
736.83	234.48
737.16	234.18
737.49	233.96
737.82	233.69
738.15	233.56
738.48	233.38
738.81	233.21
739.14	232.96
739.47	232.71
739.80	232.50
740.13	232.37
740.46	232.09
740.79	231.85
741.12	231.56
741.45	231.35
741.78	230.82
742.11	230.66
742.44	230.35
742.77	230.20
743.10	229.93
743.43	229.78
743.75	229.25
744.08	229.56
744.41	229.28
744.74	229.12
745.07	228.84
745.40	228.67
745.73	228.61
746.06	228.42
746.39	228.33
746.71	228.13
747.04	227.85
747.37	227.77
747.70	227.58
748.03	227.44
748.36	227.24
748.68	227.13
749.01	226.93
749.34	226.77
749.67	226.64
750.00	226.43
750.33	226.52
750.65	226.28
750.98	225.67
751.31	225.55
751.64	225.39
751.97	225.40
752.29	225.26
752.62	224.87
752.95	224.73
753.28	224.54
753.60	224.48
753.93	224.42
754.26	224.22
754.59	223.98
754.91	223.80
755.24	223.66
755.57	223.51
755.90	223.40
756.22	223.25
756.55	223.00
756.88	222.88
757.20	222.52
757.53	222.30
757.86	222.14
758.19	222.05
758.51	221.99
758.84	221.71
759.17	221.52
759.49	221.45
759.82	221.46
760.15	221.30
760.47	221.15
760.80	220.92
761.13	220.81
761.45	220.75
761.78	220.68
762.11	220.55
762.43	220.36
762.76	220.21
763.08	220.06
763.41	220.01
763.74	219.87
764.06	219.70
764.39	219.62
764.71	219.57
765.04	219.41
765.37	219.22
765.69	219.07
766.02	218.97
766.34	218.93
766.67	218.77
767.00	218.80
767.32	218.89
767.65	219.09
767.97	219.09
768.30	219.04
768.62	219.00
768.95	218.89
769.27	218.91
769.60	218.93
769.92	218.80
770.25	218.68
770.57	218.59
770.90	218.55
771.22	218.50
771.55	218.37
771.87	218.39
772.20	218.36
772.52	218.60
772.85	218.98
773.17	218.89
773.50	218.77
773.82	218.65
774.15	218.40
774.47	218.09
774.80	217.96
775.12	217.88
775.45	217.79
775.77	217.77
776.09	217.69
776.42	217.57
776.74	217.66
777.07	217.60
777.39	217.57
777.72	217.45
778.04	217.40
778.36	217.36
778.69	217.30
779.01	217.26
779.33	216.90
779.66	216.48
779.98	216.36
780.31	216.29
780.63	216.36
780.95	216.40
781.28	216.33
781.60	216.25
781.92	216.24
782.25	216.17
782.57	216.07
782.89	216.00
783.22	216.00
783.54	215.88
783.86	215.86
784.19	215.83
784.51	215.91
784.83	215.85
785.16	215.82
785.48	215.75
785.80	215.75
786.12	215.71
786.45	215.61
786.77	215.64
787.09	215.54
787.42	215.38
787.74	215.33
788.06	215.27
788.38	215.21
788.71	215.11
789.03	215.03
789.35	215.06
789.67	214.95
789.99	214.84
790.32	214.74
790.64	214.70
790.96	214.92
791.28	214.75
791.61	214.70
791.93	214.68
792.25	214.71
792.57	214.91
792.89	214.84
793.21	214.84
793.54	214.73
793.86	214.72
794.18	214.68
794.50	214.60
794.82	214.59
795.14	214.61
795.47	214.67
795.79	214.71
796.11	214.63
796.43	214.66
796.75	214.66
797.07	214.67
797.39	214.63
797.71	214.38
798.04	214.40
798.36	214.43
798.68	214.44
799.00	214.36
799.32	214.05
799.64	214.09
799.96	214.10
800.28	214.16
800.60	214.13
800.92	214.16
801.24	214.10
801.56	214.13
801.89	214.11
802.21	214.08
802.53	213.97
802.85	214.05
803.17	214.19
803.49	214.04
803.81	214.04
804.13	214.01
804.45	213.92
804.77	213.98
805.09	213.88
805.41	213.80
805.73	213.74
806.05	213.66
806.37	213.63
806.69	213.58
807.01	213.54
807.33	213.54
807.65	213.35
807.97	213.46
808.28	213.45
808.60	213.49
808.92	213.45
809.24	213.57
809.56	213.44
809.88	213.26
810.20	213.37
810.52	213.43
810.84	213.45
811.16	213.40
811.48	213.35
811.80	213.47
812.12	213.42
812.43	213.44
812.75	213.51
813.07	213.45
813.39	213.44
813.71	213.45
814.03	213.42
814.35	213.45
814.67	213.34
814.98	213.28
815.30	213.17
815.62	213.04
815.94	212.85
816.26	212.86
816.58	212.79
816.89	212.75
817.21	212.71
817.53	212.62
817.85	212.69
818.17	212.64
818.48	212.48
818.80	212.57
819.12	212.49
819.44	212.42
819.76	212.43
820.07	212.39
820.39	212.29
820.71	212.28
821.03	212.29
821.34	212.33
821.66	212.34
821.98	212.34
822.30	212.39
822.61	212.63
822.93	212.63
823.25	212.60
823.57	212.54
823.88	212.52
824.20	212.54
824.52	212.56
824.83	212.53
825.15	212.50
825.47	212.49
825.79	212.54
826.10	212.54
826.42	212.45
826.74	212.51
827.05	212.53
827.37	212.54
827.69	212.48
828.00	212.40
828.32	212.38
828.64	212.38
828.95	212.47
829.27	212.43
829.58	212.38
829.90	212.48
830.22	212.53
830.53	212.40
830.85	212.39
831.17	212.27
831.48	212.36
831.80	212.35
832.11	212.31
832.43	212.24
832.75	212.15
833.06	212.40
833.38	212.23
833.69	212.22
834.01	212.22
834.32	212.20
834.64	212.15
834.96	212.16
835.27	212.18
835.59	212.15
835.90	211.99
836.22	212.03
836.53	211.96
836.85	211.98
837.16	212.42
837.48	212.35
837.79	212.48
838.11	212.35
838.42	212.37
838.74	212.37
839.05	212.37
839.37	212.41
839.68	212.17
840.00	212.25
840.31	212.34
840.63	212.32
840.94	212.30
841.26	212.25
841.57	212.31
841.88	212.29
842.20	212.19
842.51	212.17
842.83	212.16
843.14	212.48
843.46	212.44
843.77	212.19
844.08	212.20
844.40	212.08
844.71	212.10
845.03	212.03
845.34	211.99
845.65	212.01
845.97	211.97
846.28	211.99
846.60	211.96
846.91	211.87
847.22	211.81
847.54	211.84
847.85	211.93
848.16	211.86
848.48	211.75
848.79	211.93
849.10	211.98
849.42	211.94
849.73	211.60
850.04	211.50
850.36	211.39
850.67	211.50
850.98	211.48
851.30	211.57
851.61	211.59
851.92	211.59
852.23	211.67
852.55	211.68
852.86	211.71
853.17	211.74
853.49	211.80
853.80	211.86
854.11	211.90
854.42	211.90
854.74	211.84
855.05	211.89
855.36	211.70
855.67	211.73
855.99	211.70
856.30	212.10
856.61	212.15
856.92	212.16
857.23	212.11
857.55	212.09
857.86	212.03
858.17	212.12
858.48	212.06
858.79	211.96
859.11	211.99
859.42	211.98
859.73	211.92
860.04	211.89
860.35	211.85
860.66	211.69
860.98	211.65
861.29	211.61
861.60	211.58
861.91	211.64
862.22	211.56
862.53	211.53
862.84	211.10
863.16	211.26
863.47	211.18
863.78	211.16
864.09	211.15
864.40	211.16
864.71	211.13
865.02	211.18
865.33	211.09
865.64	211.00
865.95	210.98
866.27	211.27
866.58	211.23
866.89	211.24
867.20	211.35
867.51	211.29
867.82	211.33
868.13	211.42
868.44	211.34
868.75	211.38
869.06	211.47
869.37	211.50
869.68	211.32
869.99	211.40
870.30	211.43
870.61	211.49
870.92	211.43
871.23	211.42
871.54	211.49
871.85	211.65
872.16	211.79
872.47	211.78
872.78	211.52
873.09	211.61
873.40	211.55
873.71	211.57
874.02	211.60
874.33	211.62
874.64	211.64
874.95	211.72
875.26	211.63
875.56	211.63
875.87	211.64
876.18	211.66
876.49	212.03
876.80	212.02
877.11	212.02
877.42	212.05
877.73	212.01
878.04	211.94
878.35	211.94
878.66	211.91
878.96	211.94
879.27	211.97
879.58	211.94
879.89	211.99
880.20	212.02
880.51	212.05
880.82	212.12
881.12	212.07
881.43	211.95
881.74	211.93
882.05	211.90
882.36	211.95
882.67	211.87
882.97	211.47
883.28	211.39
883.59	211.33
883.90	211.35
884.21	211.42
884.51	211.46
884.82	211.44
885.13	211.38
885.44	211.35
885.74	211.31
886.05	211.28
886.36	211.27
886.67	211.14
886.98	211.27
887.28	211.22
887.59	211.23
887.90	211.32
888.20	211.34
888.51	211.46
888.82	211.41
889.13	211.50
889.43	211.77
889.74	211.78
890.05	211.80
890.35	211.77
890.66	211.73
890.97	211.65
891.28	211.54
891.58	211.66
891.89	211.65
892.20	211.62
892.50	211.55
892.81	211.59
893.12	211.59
893.42	211.44
893.73	211.46
894.04	211.40
894.34	211.44
894.65	211.51
894.95	211.37
895.26	211.39
895.57	211.52
895.87	211.22
896.18	211.33
896.48	211.31
896.79	211.30
897.10	211.30
897.40	211.34
897.71	211.42
898.01	211.35
898.32	211.46
898.63	211.45
898.93	211.52
899.24	211.49
899.54	211.55
899.85	211.57
900.15	211.62
900.46	211.64
900.76	211.64
901.07	211.58
901.38	211.59
901.68	211.64
901.99	211.45
902.29	211.50
902.60	211.53
902.90	211.52
903.21	211.54
903.51	211.59
903.82	211.62
904.12	211.65
904.43	211.65
904.73	211.60
905.03	211.67
905.34	212.03
905.64	212.01
905.95	211.95
906.25	211.94
906.56	211.89
906.86	211.89
907.17	211.89
907.47	211.92
907.77	211.96
908.08	211.89
908.38	211.91
908.69	211.93
908.99	211.92
909.30	211.99
909.60	212.02
909.90	212.01
910.21	211.96
910.51	211.83
910.81	211.85
911.12	211.81
911.42	211.90
911.73	211.55
912.03	211.55
912.33	211.64
912.64	211.61
912.94	211.49
913.24	211.45
913.55	211.38
913.85	211.35
914.15	211.39
914.46	211.37
914.76	211.36
915.06	211.30
915.37	211.20
915.67	211.13
915.97	211.02
916.27	210.89
916.58	210.90
916.88	210.91
917.18	210.91
917.49	211.12
917.79	211.02
918.09	211.10
918.39	211.17
918.70	211.22
919.00	211.22
919.30	211.44
919.60	211.42
919.91	211.42
920.21	211.45
920.51	211.32
920.81	211.37
921.12	211.36
921.42	211.40
921.72	211.39
922.02	211.45
922.32	211.55
922.63	211.57
922.93	211.71
923.23	211.76
923.53	211.71
923.83	211.45
924.13	211.49
924.44	211.38
924.74	211.44
925.04	211.44
925.34	211.41
925.64	211.25
925.94	211.24
926.24	211.41
926.55	211.39
926.85	211.50
927.15	211.43
927.45	211.46
927.75	211.40
928.05	211.45
928.35	211.40
928.65	211.40
928.95	211.45
929.26	211.36
929.56	211.35
929.86	211.30
930.16	211.29
930.46	211.27
930.76	211.33
931.06	211.23
931.36	211.18
931.66	211.27
931.96	211.33
932.26	211.34
932.56	211.16
932.86	211.17
933.16	211.16
933.46	211.20
933.76	211.16
934.06	211.30
934.36	211.48
934.66	211.44
934.96	211.40
935.26	211.41
935.56	211.45
935.86	211.48
936.16	211.51
936.46	211.51
936.76	211.44
937.06	211.31
937.36	211.30
937.66	211.35
937.96	211.35
938.26	211.29
938.56	211.29
938.86	211.36
939.16	211.43
939.46	211.43
939.76	211.40
940.06	211.40
940.35	211.34
940.65	211.10
940.95	211.15
941.25	211.11
941.55	211.08
941.85	211.08
942.15	211.15
942.45	211.25
942.75	211.31
943.04	211.38
943.34	211.50
943.64	211.49
943.94	211.39
944.24	211.34
944.54	211.40
944.84	211.43
945.13	211.30
945.43	211.22
945.73	211.20
946.03	211.22
946.33	211.21
946.62	211.20
946.92	211.20
947.22	211.21
947.52	211.25
947.82	211.29
948.11	211.23
948.41	211.10
948.71	211.05
949.01	211.07
949.31	211.00
949.60	210.93
949.90	210.96
950.20	211.00
950.50	211.03
950.79	210.97
951.09	211.00
951.39	211.07
951.69	211.11
951.98	211.18
952.28	211.14
952.58	211.10
952.87	211.03
953.17	211.14
953.47	211.07
953.76	211.13
954.06	211.08
954.36	211.02
954.66	211.02
954.95	211.12
955.25	211.11
955.55	211.22
955.84	211.24
956.14	211.26
956.44	211.28
956.73	211.24
957.03	211.26
957.32	211.35
957.62	211.29
957.92	211.32
958.21	211.33
958.51	211.80
958.81	211.87
959.10	211.98
959.40	212.03
959.69	212.04
959.99	212.06
960.29	212.06
960.58	212.02
960.88	212.19
961.17	212.12
961.47	212.16
961.76	212.06
962.06	212.08
962.36	212.06
962.65	212.08
962.95	212.10
963.24	212.07
963.54	212.00
963.83	212.11
964.13	212.09
964.42	211.93
964.72	211.60
965.01	211.62
965.31	211.53
965.60	211.38
965.90	211.68
966.19	211.53
966.49	211.58
966.78	211.63
967.08	211.59
967.37	211.53
967.67	211.46
967.96	211.56
968.26	211.54
968.55	211.57
968.85	211.54
969.14	211.55
969.43	211.56
969.73	211.52
970.02	211.45
970.32	211.42
970.61	211.48
970.91	211.39
971.20	211.30
971.49	211.29
971.79	211.40
972.08	211.06
972.38	211.11
972.67	211.03
972.96	211.05
973.26	210.94
973.55	211.06
973.85	211.02
974.14	210.94
974.43	210.99
974.73	210.96
975.02	210.90
975.31	210.79
975.61	210.75
975.90	210.72
976.19	210.62
976.49	210.66
976.78	210.61
977.07	210.59
977.37	210.62
977.66	210.62
977.95	210.45
978.24	210.52
978.54	210.60
978.83	210.54
979.12	210.52
979.42	210.52
979.71	210.43
980.00	210.44
980.29	210.45
980.59	210.39
980.88	210.52
981.17	210.49
981.46	210.54
981.76	210.49
982.05	210.66
982.34	210.71
982.63	210.74
982.93	210.78
983.22	210.87
983.51	210.92
983.80	211.00
984.09	211.17
984.39	211.12
984.68	211.13
984.97	211.25
985.26	211.25
985.55	211.33
985.85	211.29
986.14	211.37
986.43	211.46
986.72	211.43
987.01	211.31
987.30	211.35
987.59	211.43
987.89	211.52
988.18	211.42
988.47	211.43
988.76	211.34
989.05	211.36
989.34	211.32
989.63	211.35
989.92	211.31
990.22	211.22
990.51	211.20
990.80	211.15
991.09	211.16
991.38	211.17
991.67	211.12
991.96	211.09
992.25	211.12
992.54	210.99
992.83	211.03
993.12	210.93
993.41	211.00
993.70	211.08
993.99	211.11
994.28	211.09
994.58	211.18
994.87	211.22
995.16	211.17
995.45	211.23
995.74	211.14
996.03	211.19
996.32	211.24
996.61	211.36
996.90	211.31
997.19	211.31
997.48	211.29
997.77	211.23
998.06	211.26
998.34	211.21
998.63	211.27
998.92	211.28
999.21	211.40
999.50	211.38
999.79	211.25
1000.08	211.29
1000.37	211.32
1000.66	211.27
1000.95	211.37
1001.24	211.40
1001.53	211.38
1001.82	211.40
1002.11	211.33
1002.40	211.37
1002.68	211.45
1002.97	211.75
1003.26	211.70
1003.55	211.70
1003.84	211.74
1004.13	211.83
1004.42	211.79
1004.71	211.78
1004.99	211.74
1005.28	211.80
1005.57	211.79
1005.86	211.72
1006.15	211.62
1006.44	211.50
1006.72	211.45
1007.01	211.32
1007.30	211.34
1007.59	211.26
1007.88	211.22
1008.17	211.17
1008.45	211.15
1008.74	210.96
1009.03	210.75
1009.32	210.75
1009.60	210.74
1009.89	210.72
1010.18	210.61
1010.47	210.59
1010.76	210.54
1011.04	210.54
1011.33	210.54
1011.62	210.52
1011.91	210.60
1012.19	210.67
1012.48	210.73
1012.77	210.74
1013.05	210.89
1013.34	210.85
1013.63	210.84
1013.92	210.92
1014.20	210.96
1014.49	210.85
1014.78	210.88
1015.06	210.74
1015.35	210.73
1015.64	210.79
1015.92	210.82
1016.21	210.80
1016.50	210.78
1016.78	210.87
1017.07	210.94
1017.36	210.90
1017.64	210.91
1017.93	210.94
1018.22	210.93
1018.50	210.88
1018.79	210.90
1019.08	210.76
1019.36	210.79
1019.65	210.76
1019.93	210.81
1020.22	210.84
1020.51	211.07
1020.79	211.04
1021.08	211.30
1021.36	209.35
1021.65	210.70
1021.94	210.80
1022.22	210.95
1022.51	210.05
1022.79	212.50
1023.08	211.15
1023.36	215.10
1023.65	209.65
>>>>>End Processed Spectral Data<<<<<
