SpectraSuite Data File
++++++++++++++++++++++++++++++++++++
Date: Mon Feb 25 17:03:30 EST 2013
User: group
Dark Spectrum Present: No
Reference Spectrum Present: No
Number of Sampled Component Spectra: 1
Spectrometers: USB2E7196
Integration Time (usec): 104000 (USB2E7196)
Spectra Averaged: 20 (USB2E7196)
Boxcar Smoothing: 10 (USB2E7196)
Correct for Electrical Dark: No (USB2E7196)
Strobe/Lamp Enabled: No (USB2E7196)
Correct for Detector Non-linearity: No (USB2E7196)
Correct for Stray Light: No (USB2E7196)
Number of Pixels in Processed Spectrum: 2048
>>>>>Begin Processed Spectral Data<<<<<
339.09	0.00
339.48	199.50
339.86	200.05
340.24	201.65
340.63	204.10
341.01	209.55
341.39	206.10
341.78	207.30
342.16	208.10
342.54	210.25
342.93	198.57
343.31	208.57
343.69	209.09
344.07	209.55
344.46	210.00
344.84	210.32
345.22	210.35
345.60	210.54
345.99	210.64
346.37	210.73
346.75	210.66
347.13	210.68
347.52	210.70
347.90	210.79
348.28	210.76
348.66	210.72
349.05	210.51
349.43	210.50
349.81	210.45
350.19	210.46
350.57	210.47
350.96	210.53
351.34	210.55
351.72	210.58
352.10	210.59
352.48	210.57
352.87	210.56
353.25	210.58
353.63	210.60
354.01	210.68
354.39	210.80
354.77	210.90
355.15	211.10
355.54	211.08
355.92	211.01
356.30	211.10
356.68	211.42
357.06	211.51
357.44	211.47
357.82	211.57
358.20	211.63
358.58	211.68
358.97	211.74
359.35	211.89
359.73	212.00
360.11	212.07
360.49	212.14
360.87	212.17
361.25	212.33
361.63	212.57
362.01	212.67
362.39	212.64
362.77	212.75
363.15	212.79
363.53	212.84
363.91	212.87
364.29	212.90
364.67	212.58
365.05	212.60
365.43	212.77
365.81	212.81
366.19	212.98
366.57	213.24
366.95	213.28
367.33	213.16
367.71	213.16
368.09	213.30
368.47	213.39
368.85	213.45
369.23	213.49
369.61	213.33
369.99	213.46
370.37	213.54
370.75	213.68
371.13	213.53
371.51	213.50
371.89	213.55
372.27	213.56
372.65	213.61
373.03	213.65
373.41	213.60
373.78	213.56
374.16	213.35
374.54	213.14
374.92	213.12
375.30	213.21
375.68	213.15
376.06	213.10
376.44	212.99
376.82	212.97
377.19	212.95
377.57	212.89
377.95	212.70
378.33	212.58
378.71	212.37
379.09	212.43
379.47	212.43
379.84	212.37
380.22	212.29
380.60	212.15
380.98	212.09
381.36	212.03
381.73	211.90
382.11	211.99
382.49	211.94
382.87	211.86
383.25	211.80
383.62	212.17
384.00	212.08
384.38	212.10
384.76	212.09
385.13	212.14
385.51	212.08
385.89	212.01
386.27	211.98
386.64	212.00
387.02	211.88
387.40	211.82
387.78	211.77
388.15	211.70
388.53	211.67
388.91	211.60
389.29	211.48
389.66	211.59
390.04	211.44
390.42	211.48
390.79	211.48
391.17	211.41
391.55	210.97
391.92	210.92
392.30	210.90
392.68	210.80
393.05	210.67
393.43	210.68
393.81	210.64
394.18	210.58
394.56	210.51
394.94	210.60
395.31	210.56
395.69	210.63
396.06	210.71
396.44	210.77
396.82	210.77
397.19	211.01
397.57	210.83
397.95	210.92
398.32	210.81
398.70	210.86
399.07	210.93
399.45	210.91
399.82	210.93
400.20	210.89
400.58	210.88
400.95	210.78
401.33	210.89
401.70	211.18
402.08	211.31
402.45	211.32
402.83	211.44
403.20	211.51
403.58	211.54
403.95	211.66
404.33	211.73
404.71	211.82
405.08	212.10
405.46	212.30
405.83	212.40
406.21	212.48
406.58	212.65
406.96	212.80
407.33	213.02
407.70	213.26
408.08	213.72
408.45	214.02
408.83	214.31
409.20	214.55
409.58	214.60
409.95	214.91
410.33	215.30
410.70	215.52
411.08	215.95
411.45	216.37
411.82	216.75
412.20	217.25
412.57	217.91
412.95	218.05
413.32	218.55
413.69	219.18
414.07	219.83
414.44	220.43
414.82	221.09
415.19	221.97
415.56	222.79
415.94	223.43
416.31	224.40
416.68	225.41
417.06	226.54
417.43	227.72
417.81	228.95
418.18	230.17
418.55	231.53
418.93	233.00
419.30	234.44
419.67	236.02
420.04	237.66
420.42	239.28
420.79	241.45
421.16	243.57
421.54	245.74
421.91	247.96
422.28	250.21
422.66	252.59
423.03	255.00
423.40	257.34
423.77	259.98
424.15	262.51
424.52	265.24
424.89	268.19
425.26	271.06
425.64	273.74
426.01	276.92
426.38	280.18
426.75	283.48
427.13	286.89
427.50	290.40
427.87	294.03
428.24	297.71
428.61	301.20
428.99	305.02
429.36	309.03
429.73	313.10
430.10	317.27
430.47	321.56
430.85	325.81
431.22	330.65
431.59	335.79
431.96	340.70
432.33	346.10
432.70	351.29
433.08	357.29
433.45	363.04
433.82	368.60
434.19	374.78
434.56	381.07
434.93	387.01
435.30	393.06
435.68	399.87
436.05	406.43
436.42	412.94
436.79	419.17
437.16	425.76
437.53	432.64
437.90	439.48
438.27	446.20
438.64	453.17
439.01	459.71
439.38	465.47
439.75	471.13
440.13	477.51
440.50	483.74
440.87	488.83
441.24	494.11
441.61	500.01
441.98	504.53
442.35	509.42
442.72	514.65
443.09	519.67
443.46	522.77
443.83	525.01
444.20	527.06
444.57	529.55
444.94	531.13
445.31	532.93
445.68	534.82
446.05	535.80
446.42	535.63
446.79	535.25
447.16	534.74
447.53	534.55
447.90	532.54
448.27	530.36
448.64	527.25
449.01	525.12
449.37	521.00
449.74	517.01
450.11	512.48
450.48	507.08
450.85	501.58
451.22	496.88
451.59	492.62
451.96	488.38
452.33	482.78
452.70	477.54
453.07	471.05
453.43	464.35
453.80	458.15
454.17	452.22
454.54	446.61
454.91	440.64
455.28	434.72
455.65	429.19
456.02	424.03
456.38	419.33
456.75	413.41
457.12	408.49
457.49	403.64
457.86	398.65
458.23	394.71
458.59	390.15
458.96	385.67
459.33	381.62
459.70	377.59
460.07	374.40
460.43	370.82
460.80	367.44
461.17	364.48
461.54	361.35
461.91	358.34
462.27	355.25
462.64	352.58
463.01	349.79
463.38	346.99
463.74	343.73
464.11	341.29
464.48	339.22
464.85	336.95
465.21	335.21
465.58	333.33
465.95	331.01
466.32	329.21
466.68	327.25
467.05	325.26
467.42	323.37
467.78	321.36
468.15	319.38
468.52	318.02
468.88	316.05
469.25	314.31
469.62	312.99
469.98	311.55
470.35	310.26
470.72	308.87
471.08	307.41
471.45	306.35
471.82	305.19
472.18	303.85
472.55	302.75
472.92	301.51
473.28	300.47
473.65	299.32
474.02	298.32
474.38	297.54
474.75	296.88
475.11	296.09
475.48	295.43
475.85	294.85
476.21	294.20
476.58	293.70
476.94	293.26
477.31	292.84
477.67	292.39
478.04	292.00
478.41	291.71
478.77	291.78
479.14	291.43
479.50	291.22
479.87	291.14
480.23	291.06
480.60	290.95
480.96	290.90
481.33	291.14
481.69	291.15
482.06	291.15
482.42	291.12
482.79	291.21
483.15	291.30
483.52	291.61
483.88	291.70
484.25	291.82
484.61	292.09
484.98	292.29
485.34	292.66
485.71	293.05
486.07	293.47
486.44	293.60
486.80	294.01
487.17	294.45
487.53	295.06
487.90	295.75
488.26	296.48
488.62	297.21
488.99	297.80
489.35	298.47
489.72	299.30
490.08	300.13
490.44	300.91
490.81	301.83
491.17	302.64
491.54	303.63
491.90	304.77
492.26	305.82
492.63	306.90
492.99	307.86
493.36	309.02
493.72	310.34
494.08	311.61
494.45	312.98
494.81	314.40
495.17	315.66
495.54	317.06
495.90	318.37
496.26	319.70
496.63	321.11
496.99	322.57
497.35	323.92
497.72	325.51
498.08	326.92
498.44	328.51
498.80	330.07
499.17	331.65
499.53	333.06
499.89	334.73
500.26	336.23
500.62	337.75
500.98	339.29
501.34	340.66
501.71	342.22
502.07	343.63
502.43	344.99
502.79	346.42
503.16	347.71
503.52	349.05
503.88	350.21
504.24	351.49
504.60	352.75
504.97	354.08
505.33	355.12
505.69	356.51
506.05	357.70
506.41	358.75
506.78	359.67
507.14	360.56
507.50	361.38
507.86	362.28
508.22	363.20
508.59	363.76
508.95	364.55
509.31	365.34
509.67	366.04
510.03	366.60
510.39	367.14
510.75	367.71
511.12	368.26
511.48	368.82
511.84	369.30
512.20	369.68
512.56	370.04
512.92	370.56
513.28	370.82
513.64	370.97
514.00	371.18
514.37	371.46
514.73	371.79
515.09	371.99
515.45	372.10
515.81	372.14
516.17	372.31
516.53	372.40
516.89	372.18
517.25	372.21
517.61	372.28
517.97	372.23
518.33	372.22
518.69	372.24
519.05	372.35
519.41	372.39
519.77	372.61
520.13	372.60
520.49	372.48
520.85	372.40
521.21	372.51
521.57	372.60
521.93	372.59
522.29	372.59
522.65	372.55
523.01	372.65
523.37	372.79
523.73	373.07
524.09	373.09
524.45	373.29
524.81	373.48
525.17	373.79
525.53	374.13
525.89	374.48
526.25	374.80
526.61	375.14
526.97	375.42
527.33	375.85
527.68	376.68
528.04	377.32
528.40	377.90
528.76	378.58
529.12	379.44
529.48	380.35
529.84	381.26
530.20	382.26
530.56	383.28
530.91	384.46
531.27	385.54
531.63	386.76
531.99	388.10
532.35	389.33
532.71	390.57
533.07	391.96
533.42	393.68
533.78	395.17
534.14	396.70
534.50	398.29
534.86	399.87
535.21	401.25
535.57	402.88
535.93	404.61
536.29	406.50
536.65	408.19
537.00	409.89
537.36	411.73
537.72	413.53
538.08	415.54
538.44	417.35
538.79	419.36
539.15	421.38
539.51	423.42
539.87	425.65
540.22	427.92
540.58	430.20
540.94	432.17
541.29	434.40
541.65	436.70
542.01	439.13
542.37	441.57
542.72	444.01
543.08	446.50
543.44	449.09
543.79	451.43
544.15	454.10
544.51	456.84
544.87	459.54
545.22	462.34
545.58	465.00
545.94	467.72
546.29	470.32
546.65	473.14
547.01	475.72
547.36	478.63
547.72	481.30
548.07	484.10
548.43	486.71
548.79	489.40
549.14	492.07
549.50	494.83
549.86	497.39
550.21	500.13
550.57	502.94
550.92	505.42
551.28	508.16
551.64	510.65
551.99	513.26
552.35	515.77
552.70	518.35
553.06	520.98
553.41	523.56
553.77	526.32
554.13	528.78
554.48	531.53
554.84	534.18
555.19	536.73
555.55	539.51
555.90	542.09
556.26	544.51
556.61	546.83
556.97	549.11
557.32	551.51
557.68	553.67
558.03	555.87
558.39	558.24
558.74	560.63
559.10	563.08
559.45	565.34
559.81	567.80
560.16	570.12
560.52	572.27
560.87	574.63
561.23	576.59
561.58	579.17
561.94	581.21
562.29	583.10
562.64	585.24
563.00	586.98
563.35	589.14
563.71	591.26
564.06	593.39
564.42	595.45
564.77	597.57
565.12	599.92
565.48	602.31
565.83	604.50
566.19	606.48
566.54	608.15
566.89	609.99
567.25	611.94
567.60	613.77
567.96	615.78
568.31	617.64
568.66	619.33
569.02	620.59
569.37	622.02
569.72	623.39
570.08	624.71
570.43	626.00
570.78	627.05
571.14	628.26
571.49	629.19
571.84	630.27
572.20	631.15
572.55	631.84
572.90	632.21
573.26	632.90
573.61	633.33
573.96	634.04
574.31	634.45
574.67	634.70
575.02	635.00
575.37	635.19
575.72	635.11
576.08	635.64
576.43	635.80
576.78	636.03
577.13	636.27
577.49	636.51
577.84	636.66
578.19	637.03
578.54	637.30
578.90	637.86
579.25	638.11
579.60	638.04
579.95	637.96
580.30	638.17
580.66	638.28
581.01	638.46
581.36	638.41
581.71	638.55
582.06	638.75
582.42	638.70
582.77	638.69
583.12	638.66
583.47	638.44
583.82	638.38
584.17	638.42
584.53	638.49
584.88	638.25
585.23	638.21
585.58	637.88
585.93	637.65
586.28	637.58
586.63	637.26
586.98	637.20
587.34	637.28
587.69	637.11
588.04	636.88
588.39	636.47
588.74	636.12
589.09	635.85
589.44	635.27
589.79	634.95
590.14	634.48
590.49	633.92
590.84	633.49
591.19	633.13
591.54	632.64
591.89	631.83
592.25	631.55
592.60	630.89
592.95	630.11
593.30	629.30
593.65	628.15
594.00	627.38
594.35	627.38
594.70	626.38
595.05	625.50
595.40	624.35
595.75	623.35
596.10	622.57
596.45	621.77
596.80	621.08
597.15	620.39
597.50	619.43
597.85	619.02
598.19	618.08
598.54	617.17
598.89	616.27
599.24	615.67
599.59	614.63
599.94	613.93
600.29	613.21
600.64	612.37
600.99	611.64
601.34	610.89
601.69	609.20
602.04	608.31
602.39	607.35
602.74	606.78
603.08	606.24
603.43	605.61
603.78	604.61
604.13	603.67
604.48	602.74
604.83	602.12
605.18	601.18
605.53	600.35
605.87	599.45
606.22	598.72
606.57	597.67
606.92	596.61
607.27	595.55
607.62	594.60
607.96	593.76
608.31	592.77
608.66	591.57
609.01	590.45
609.36	589.37
609.70	588.27
610.05	586.96
610.40	585.62
610.75	584.16
611.10	583.25
611.44	581.75
611.79	580.19
612.14	578.82
612.49	577.20
612.83	575.86
613.18	574.42
613.53	572.83
613.88	571.17
614.22	569.78
614.57	568.27
614.92	566.88
615.27	565.25
615.61	563.77
615.96	562.38
616.31	561.00
616.65	559.75
617.00	558.25
617.35	556.71
617.70	555.06
618.04	553.30
618.39	551.41
618.74	550.02
619.08	548.45
619.43	546.71
619.78	545.25
620.12	543.64
620.47	542.11
620.82	540.40
621.16	538.83
621.51	537.40
621.85	535.63
622.20	533.80
622.55	532.18
622.89	530.28
623.24	528.55
623.59	526.87
623.93	525.16
624.28	523.55
624.62	522.35
624.97	520.83
625.32	519.50
625.66	517.95
626.01	516.34
626.35	514.92
626.70	513.33
627.04	511.97
627.39	510.44
627.73	508.80
628.08	507.28
628.43	505.70
628.77	503.88
629.12	502.30
629.46	500.79
629.81	499.17
630.15	497.84
630.50	496.26
630.84	494.64
631.19	492.91
631.53	491.38
631.88	489.39
632.22	487.82
632.57	486.37
632.91	484.79
633.26	483.31
633.60	481.70
633.95	480.23
634.29	478.35
634.64	476.84
634.98	475.20
635.32	473.70
635.67	472.18
636.01	470.78
636.36	469.35
636.70	467.99
637.05	466.51
637.39	464.92
637.73	463.55
638.08	462.33
638.42	460.93
638.77	459.47
639.11	458.07
639.45	456.55
639.80	454.71
640.14	453.14
640.49	451.59
640.83	449.94
641.17	448.36
641.52	446.78
641.86	444.99
642.20	443.50
642.55	441.80
642.89	440.18
643.23	438.54
643.58	437.10
643.92	435.40
644.26	433.81
644.61	432.31
644.95	430.64
645.29	428.91
645.64	427.35
645.98	425.68
646.32	424.13
646.66	422.49
647.01	421.12
647.35	419.64
647.69	417.94
648.04	416.44
648.38	414.97
648.72	413.53
649.06	412.14
649.41	410.57
649.75	409.12
650.09	407.70
650.43	406.14
650.78	404.48
651.12	402.90
651.46	401.42
651.80	400.00
652.14	398.53
652.49	397.10
652.83	395.58
653.17	394.11
653.51	392.55
653.85	391.21
654.20	389.77
654.54	388.17
654.88	386.73
655.22	385.46
655.56	383.83
655.90	382.33
656.25	380.79
656.59	379.39
656.93	378.01
657.27	376.77
657.61	375.29
657.95	373.90
658.29	372.61
658.64	371.38
658.98	369.86
659.32	368.44
659.66	366.99
660.00	365.56
660.34	364.12
660.68	362.74
661.02	361.24
661.36	359.75
661.70	358.49
662.05	357.25
662.39	355.90
662.73	354.79
663.07	353.71
663.41	352.54
663.75	351.27
664.09	350.06
664.43	348.64
664.77	347.44
665.11	346.18
665.45	345.00
665.79	343.74
666.13	342.60
666.47	341.43
666.81	340.27
667.15	339.03
667.49	337.94
667.83	336.85
668.17	335.73
668.51	334.74
668.85	333.71
669.19	332.82
669.53	331.64
669.87	330.54
670.21	329.35
670.55	328.24
670.89	327.41
671.23	326.33
671.57	325.37
671.91	324.41
672.25	323.47
672.58	322.58
672.92	321.54
673.26	320.59
673.60	319.67
673.94	318.75
674.28	317.90
674.62	317.14
674.96	316.28
675.30	315.38
675.64	314.48
675.97	313.51
676.31	312.36
676.65	311.51
676.99	310.72
677.33	309.85
677.67	309.03
678.01	307.95
678.34	307.18
678.68	306.30
679.02	305.42
679.36	304.57
679.70	303.58
680.04	302.78
680.37	301.94
680.71	301.20
681.05	300.39
681.39	299.59
681.73	298.60
682.06	297.83
682.40	297.17
682.74	296.37
683.08	295.82
683.42	295.13
683.75	294.45
684.09	293.56
684.43	292.73
684.77	291.87
685.10	291.11
685.44	290.25
685.78	289.54
686.12	288.87
686.45	288.08
686.79	287.30
687.13	286.60
687.46	285.85
687.80	285.03
688.14	284.30
688.48	283.57
688.81	282.87
689.15	282.21
689.49	281.41
689.82	280.73
690.16	279.76
690.50	279.03
690.83	278.28
691.17	277.49
691.51	276.87
691.84	276.32
692.18	275.65
692.52	274.98
692.85	274.40
693.19	273.84
693.52	273.17
693.86	272.58
694.20	271.83
694.53	271.31
694.87	270.64
695.21	269.97
695.54	269.28
695.88	268.60
696.21	267.82
696.55	267.31
696.88	266.68
697.22	266.13
697.56	265.56
697.89	264.92
698.23	264.40
698.56	263.78
698.90	263.26
699.23	262.70
699.57	262.18
699.90	261.49
700.24	260.80
700.58	260.34
700.91	259.83
701.25	259.60
701.58	259.10
701.92	258.72
702.25	258.23
702.59	257.80
702.92	257.36
703.26	256.89
703.59	256.31
703.93	256.20
704.26	255.65
704.60	255.24
704.93	254.76
705.26	254.29
705.60	253.92
705.93	253.32
706.27	252.90
706.60	252.60
706.94	252.39
707.27	252.00
707.61	251.54
707.94	251.06
708.27	250.41
708.61	249.91
708.94	249.39
709.28	249.05
709.61	248.64
709.94	248.25
710.28	247.95
710.61	247.60
710.95	246.90
711.28	246.84
711.61	246.39
711.95	246.15
712.28	245.82
712.61	245.46
712.95	245.30
713.28	245.13
713.61	244.71
713.95	244.22
714.28	243.99
714.61	243.63
714.95	243.30
715.28	242.96
715.61	242.62
715.95	242.37
716.28	242.00
716.61	241.79
716.95	241.42
717.28	241.10
717.61	240.88
717.94	240.63
718.28	240.13
718.61	239.82
718.94	239.49
719.27	239.17
719.61	238.86
719.94	238.51
720.27	238.07
720.60	237.76
720.94	237.49
721.27	237.18
721.60	237.02
721.93	236.77
722.27	236.66
722.60	236.45
722.93	236.24
723.26	236.03
723.59	235.68
723.93	235.58
724.26	235.33
724.59	235.03
724.92	234.79
725.25	234.62
725.59	234.44
725.92	234.24
726.25	234.04
726.58	233.93
726.91	233.67
727.24	233.56
727.57	233.30
727.91	232.98
728.24	232.76
728.57	232.53
728.90	232.42
729.23	232.11
729.56	232.07
729.89	231.82
730.22	231.59
730.55	231.44
730.89	231.19
731.22	230.98
731.55	230.78
731.88	230.60
732.21	230.31
732.54	230.10
732.87	229.89
733.20	229.69
733.53	229.38
733.86	229.27
734.19	228.99
734.52	228.90
734.85	229.08
735.18	228.89
735.51	228.77
735.84	228.49
736.17	228.36
736.50	228.05
736.83	228.30
737.16	228.08
737.49	227.90
737.82	227.77
738.15	227.71
738.48	227.55
738.81	227.33
739.14	227.18
739.47	226.96
739.80	226.72
740.13	226.65
740.46	226.40
740.79	226.17
741.12	226.05
741.45	225.85
741.78	225.47
742.11	225.42
742.44	225.19
742.77	225.15
743.10	224.98
743.43	224.76
743.75	224.25
744.08	224.63
744.41	224.50
744.74	224.33
745.07	224.08
745.40	223.95
745.73	224.00
746.06	223.87
746.39	223.79
746.71	223.71
747.04	223.51
747.37	223.43
747.70	223.40
748.03	223.30
748.36	223.20
748.68	223.08
749.01	222.87
749.34	222.78
749.67	222.75
750.00	222.70
750.33	222.92
750.65	222.75
750.98	222.18
751.31	221.99
751.64	221.86
751.97	221.91
752.29	221.90
752.62	221.64
752.95	221.58
753.28	221.46
753.60	221.38
753.93	221.42
754.26	221.36
754.59	221.12
754.91	220.98
755.24	220.90
755.57	220.82
755.90	220.69
756.22	220.61
756.55	220.41
756.88	220.21
757.20	219.84
757.53	219.67
757.86	219.65
758.19	219.66
758.51	219.60
758.84	219.39
759.17	219.17
759.49	219.13
759.82	219.15
760.15	219.12
760.47	218.95
760.80	218.71
761.13	218.66
761.45	218.62
761.78	218.60
762.11	218.50
762.43	218.33
762.76	218.23
763.08	218.15
763.41	218.16
763.74	218.13
764.06	218.08
764.39	218.06
764.71	217.97
765.04	217.81
765.37	217.73
765.69	217.67
766.02	217.64
766.34	217.54
766.67	217.31
767.00	217.35
767.32	217.59
767.65	217.77
767.97	217.71
768.30	217.61
768.62	217.57
768.95	217.44
769.27	217.43
769.60	217.47
769.92	217.39
770.25	217.22
770.57	217.03
770.90	216.97
771.22	216.82
771.55	216.75
771.87	216.70
772.20	216.61
772.52	216.80
772.85	217.14
773.17	217.03
773.50	216.99
773.82	216.83
774.15	216.52
774.47	216.24
774.80	216.14
775.12	216.07
775.45	215.95
775.77	215.92
776.09	215.83
776.42	215.72
776.74	215.80
777.07	215.75
777.39	215.84
777.72	215.75
778.04	215.79
778.36	215.68
778.69	215.71
779.01	215.73
779.33	215.40
779.66	214.94
779.98	214.87
780.31	214.85
780.63	214.95
780.95	214.90
781.28	214.87
781.60	214.85
781.92	214.82
782.25	214.79
782.57	214.81
782.89	214.82
783.22	214.80
783.54	214.67
783.86	214.65
784.19	214.59
784.51	214.67
784.83	214.55
785.16	214.50
785.48	214.46
785.80	214.40
786.12	214.43
786.45	214.42
786.77	214.44
787.09	214.42
787.42	214.31
787.74	214.40
788.06	214.35
788.38	214.31
788.71	214.30
789.03	214.29
789.35	214.27
789.67	214.22
789.99	214.22
790.32	214.12
790.64	214.16
790.96	214.38
791.28	214.22
791.61	214.24
791.93	214.27
792.25	214.22
792.57	214.43
792.89	214.33
793.21	214.32
793.54	214.33
793.86	214.24
794.18	214.22
794.50	214.11
794.82	214.14
795.14	214.13
795.47	214.20
795.79	214.18
796.11	214.15
796.43	214.03
796.75	213.95
797.07	213.99
797.39	213.86
797.71	213.54
798.04	213.56
798.36	213.57
798.68	213.47
799.00	213.46
799.32	213.28
799.64	213.30
799.96	213.31
800.28	213.32
800.60	213.30
800.92	213.28
801.24	213.20
801.56	213.25
801.89	213.21
802.21	213.19
802.53	213.08
802.85	213.14
803.17	213.37
803.49	213.40
803.81	213.33
804.13	213.31
804.45	213.35
804.77	213.38
805.09	213.35
805.41	213.40
805.73	213.37
806.05	213.20
806.37	213.22
806.69	213.13
807.01	213.10
807.33	213.14
807.65	213.00
807.97	213.19
808.28	213.07
808.60	213.09
808.92	213.00
809.24	213.24
809.56	213.10
809.88	212.98
810.20	212.98
810.52	213.06
810.84	212.98
811.16	212.88
811.48	212.83
811.80	212.90
812.12	212.84
812.43	212.91
812.75	212.97
813.07	212.86
813.39	212.89
813.71	212.88
814.03	212.75
814.35	212.75
814.67	212.51
814.98	212.41
815.30	212.38
815.62	212.26
815.94	212.01
816.26	212.04
816.58	211.95
816.89	211.95
817.21	211.83
817.53	211.95
817.85	211.91
818.17	211.83
818.48	211.80
818.80	211.87
819.12	211.75
819.44	211.64
819.76	211.60
820.07	211.60
820.39	211.59
820.71	211.66
821.03	211.62
821.34	211.69
821.66	211.84
821.98	211.91
822.30	211.94
822.61	212.13
822.93	212.10
823.25	212.05
823.57	211.97
823.88	212.03
824.20	211.99
824.52	212.04
824.83	212.08
825.15	211.91
825.47	211.88
825.79	211.88
826.10	211.95
826.42	211.97
826.74	211.94
827.05	211.88
827.37	211.90
827.69	211.92
828.00	211.91
828.32	211.85
828.64	211.70
828.95	211.93
829.27	211.79
829.58	211.78
829.90	211.87
830.22	211.88
830.53	211.82
830.85	211.77
831.17	211.69
831.48	211.66
831.80	211.72
832.11	211.69
832.43	211.71
832.75	211.64
833.06	211.84
833.38	211.80
833.69	211.83
834.01	211.85
834.32	211.88
834.64	211.83
834.96	211.82
835.27	211.85
835.59	211.72
835.90	211.77
836.22	211.77
836.53	211.66
836.85	211.59
837.16	211.93
837.48	211.93
837.79	212.06
838.11	212.06
838.42	212.06
838.74	212.10
839.05	212.05
839.37	212.07
839.68	211.87
840.00	211.83
840.31	211.84
840.63	211.74
840.94	211.67
841.26	211.66
841.57	211.66
841.88	211.70
842.20	211.60
842.51	211.52
842.83	211.49
843.14	211.82
843.46	211.86
843.77	211.61
844.08	211.57
844.40	211.55
844.71	211.57
845.03	211.53
845.34	211.45
845.65	211.53
845.97	211.50
846.28	211.48
846.60	211.54
846.91	211.55
847.22	211.56
847.54	211.66
847.85	211.62
848.16	211.60
848.48	211.55
848.79	211.71
849.10	211.78
849.42	211.85
849.73	211.59
850.04	211.60
850.36	211.53
850.67	211.58
850.98	211.49
851.30	211.45
851.61	211.45
851.92	211.49
852.23	211.53
852.55	211.54
852.86	211.64
853.17	211.73
853.49	211.70
853.80	211.76
854.11	211.78
854.42	211.89
854.74	211.83
855.05	211.81
855.36	211.63
855.67	211.61
855.99	211.52
856.30	211.91
856.61	211.85
856.92	211.87
857.23	211.92
857.55	211.92
857.86	211.94
858.17	212.05
858.48	211.91
858.79	211.90
859.11	211.88
859.42	211.82
859.73	211.70
860.04	211.71
860.35	211.59
860.66	211.47
860.98	211.42
861.29	211.50
861.60	211.50
861.91	211.60
862.22	211.52
862.53	211.49
862.84	211.08
863.16	211.13
863.47	211.00
863.78	210.95
864.09	210.98
864.40	211.05
864.71	210.98
865.02	211.14
865.33	211.01
865.64	211.01
865.95	211.00
866.27	211.20
866.58	211.17
866.89	211.25
867.20	211.23
867.51	211.20
867.82	211.15
868.13	211.25
868.44	211.13
868.75	211.15
869.06	211.17
869.37	211.11
869.68	210.99
869.99	211.10
870.30	211.08
870.61	211.10
870.92	210.94
871.23	210.90
871.54	210.95
871.85	211.08
872.16	211.07
872.47	211.05
872.78	210.81
873.09	210.80
873.40	210.75
873.71	210.83
874.02	210.80
874.33	210.81
874.64	210.71
874.95	210.80
875.26	210.81
875.56	210.80
875.87	210.77
876.18	210.78
876.49	211.10
876.80	211.11
877.11	211.06
877.42	211.17
877.73	211.22
878.04	211.10
878.35	211.04
878.66	211.07
878.96	211.05
879.27	211.17
879.58	211.16
879.89	211.19
880.20	211.20
880.51	211.21
880.82	211.17
881.12	211.18
881.43	211.14
881.74	211.08
882.05	211.01
882.36	211.12
882.67	211.26
882.97	210.88
883.28	210.83
883.59	210.87
883.90	210.85
884.21	210.87
884.51	210.87
884.82	210.77
885.13	210.84
885.44	210.76
885.74	210.65
886.05	210.67
886.36	210.69
886.67	210.61
886.98	210.85
887.28	210.89
887.59	210.90
887.90	210.93
888.20	210.95
888.51	211.06
888.82	210.98
889.13	210.96
889.43	211.25
889.74	211.22
890.05	211.15
890.35	211.15
890.66	211.14
890.97	211.11
891.28	211.18
891.58	211.11
891.89	211.20
892.20	211.25
892.50	211.17
892.81	211.09
893.12	211.08
893.42	210.90
893.73	210.89
894.04	210.80
894.34	210.86
894.65	210.87
894.95	210.87
895.26	210.92
895.57	211.06
895.87	210.72
896.18	210.83
896.48	210.88
896.79	210.85
897.10	210.84
897.40	210.92
897.71	210.99
898.01	210.98
898.32	211.05
898.63	210.97
898.93	211.05
899.24	211.13
899.54	211.18
899.85	211.18
900.15	211.20
900.46	211.27
900.76	211.25
901.07	211.16
901.38	211.19
901.68	211.15
901.99	210.97
902.29	211.00
902.60	210.95
902.90	210.91
903.21	210.89
903.51	210.88
903.82	210.93
904.12	210.84
904.43	210.83
904.73	210.70
905.03	210.80
905.34	211.06
905.64	211.03
905.95	210.96
906.25	210.84
906.56	210.84
906.86	210.82
907.17	210.81
907.47	210.88
907.77	210.80
908.08	210.80
908.38	210.87
908.69	210.92
908.99	211.01
909.30	211.03
909.60	211.05
909.90	211.05
910.21	210.92
910.51	210.96
910.81	210.99
911.12	211.11
911.42	211.10
911.73	210.79
912.03	210.78
912.33	210.89
912.64	210.97
912.94	210.90
913.24	210.88
913.55	210.82
913.85	210.82
914.15	210.91
914.46	210.98
914.76	210.91
915.06	210.92
915.37	210.90
915.67	210.85
915.97	210.87
916.27	210.82
916.58	210.81
916.88	210.80
917.18	210.80
917.49	210.90
917.79	210.87
918.09	210.90
918.39	211.00
918.70	210.92
919.00	210.93
919.30	211.12
919.60	211.05
919.91	211.03
920.21	211.03
920.51	211.01
920.81	210.98
921.12	210.99
921.42	210.91
921.72	210.90
922.02	210.96
922.32	211.00
922.63	211.05
922.93	211.35
923.23	211.37
923.53	211.38
923.83	211.19
924.13	211.21
924.44	211.24
924.74	211.33
925.04	211.39
925.34	211.37
925.64	211.22
925.94	211.37
926.24	211.50
926.55	211.41
926.85	211.39
927.15	211.35
927.45	211.38
927.75	211.43
928.05	211.42
928.35	211.39
928.65	211.42
928.95	211.50
929.26	211.27
929.56	211.32
929.86	211.31
930.16	211.32
930.46	211.36
930.76	211.32
931.06	211.12
931.36	211.04
931.66	211.11
931.96	211.15
932.26	211.08
932.56	211.03
932.86	211.11
933.16	211.10
933.46	211.02
933.76	210.92
934.06	211.03
934.36	211.14
934.66	211.17
934.96	211.19
935.26	211.13
935.56	211.16
935.86	211.05
936.16	210.99
936.46	211.00
936.76	210.93
937.06	210.87
937.36	210.94
937.66	211.04
937.96	211.05
938.26	211.05
938.56	211.05
938.86	211.04
939.16	211.09
939.46	211.13
939.76	211.18
940.06	211.20
940.35	211.04
940.65	210.83
940.95	210.83
941.25	210.70
941.55	210.59
941.85	210.57
942.15	210.68
942.45	210.78
942.75	210.74
943.04	210.80
943.34	210.93
943.64	210.89
943.94	210.76
944.24	210.74
944.54	210.70
944.84	210.74
945.13	210.65
945.43	210.59
945.73	210.51
946.03	210.54
946.33	210.55
946.62	210.56
946.92	210.61
947.22	210.59
947.52	210.60
947.82	210.74
948.11	210.73
948.41	210.62
948.71	210.55
949.01	210.55
949.31	210.54
949.60	210.46
949.90	210.49
950.20	210.48
950.50	210.49
950.79	210.51
951.09	210.57
951.39	210.59
951.69	210.49
951.98	210.64
952.28	210.64
952.58	210.64
952.87	210.69
953.17	210.65
953.47	210.64
953.76	210.64
954.06	210.55
954.36	210.49
954.66	210.49
954.95	210.59
955.25	210.61
955.55	210.58
955.84	210.60
956.14	210.60
956.44	210.67
956.73	210.56
957.03	210.56
957.32	210.51
957.62	210.52
957.92	210.65
958.21	210.61
958.51	211.05
958.81	211.14
959.10	211.19
959.40	211.37
959.69	211.36
959.99	211.48
960.29	211.50
960.58	211.51
960.88	211.64
961.17	211.65
961.47	211.67
961.76	211.66
962.06	211.80
962.36	211.79
962.65	211.84
962.95	211.87
963.24	211.88
963.54	211.84
963.83	211.95
964.13	211.97
964.42	211.87
964.72	211.52
965.01	211.46
965.31	211.37
965.60	211.21
965.90	211.50
966.19	211.43
966.49	211.45
966.78	211.50
967.08	211.51
967.37	211.48
967.67	211.49
967.96	211.59
968.26	211.51
968.55	211.55
968.85	211.45
969.14	211.49
969.43	211.50
969.73	211.49
970.02	211.41
970.32	211.33
970.61	211.33
970.91	211.30
971.20	211.28
971.49	211.33
971.79	211.41
972.08	211.19
972.38	211.15
972.67	211.09
972.96	211.11
973.26	211.01
973.55	211.05
973.85	211.01
974.14	210.91
974.43	210.89
974.73	210.79
975.02	210.83
975.31	210.81
975.61	210.74
975.90	210.73
976.19	210.64
976.49	210.69
976.78	210.70
977.07	210.68
977.37	210.69
977.66	210.66
977.95	210.58
978.24	210.56
978.54	210.67
978.83	210.57
979.12	210.60
979.42	210.60
979.71	210.54
980.00	210.53
980.29	210.60
980.59	210.57
980.88	210.66
981.17	210.62
981.46	210.63
981.76	210.63
982.05	210.72
982.34	210.74
982.63	210.75
982.93	210.80
983.22	210.81
983.51	210.88
983.80	210.93
984.09	211.00
984.39	210.95
984.68	210.86
984.97	210.96
985.26	210.94
985.55	210.96
985.85	210.90
986.14	210.88
986.43	210.92
986.72	210.85
987.01	210.77
987.30	210.77
987.59	210.82
987.89	210.85
988.18	210.82
988.47	210.83
988.76	210.75
989.05	210.70
989.34	210.75
989.63	210.84
989.92	210.78
990.22	210.73
990.51	210.79
990.80	210.78
991.09	210.82
991.38	210.74
991.67	210.70
991.96	210.69
992.25	210.76
992.54	210.61
992.83	210.67
993.12	210.71
993.41	210.75
993.70	210.83
993.99	210.92
994.28	210.86
994.58	210.92
994.87	210.91
995.16	210.97
995.45	210.90
995.74	210.71
996.03	210.76
996.32	210.80
996.61	210.81
996.90	210.84
997.19	210.79
997.48	210.80
997.77	210.77
998.06	210.85
998.34	210.85
998.63	210.94
998.92	210.91
999.21	210.91
999.50	210.95
999.79	210.84
1000.08	210.76
1000.37	210.84
1000.66	210.76
1000.95	210.86
1001.24	210.83
1001.53	210.88
1001.82	210.90
1002.11	210.80
1002.40	210.84
1002.68	210.90
1002.97	211.11
1003.26	211.07
1003.55	211.09
1003.84	211.16
1004.13	211.22
1004.42	211.22
1004.71	211.16
1004.99	211.12
1005.28	211.24
1005.57	211.16
1005.86	211.14
1006.15	211.16
1006.44	211.11
1006.72	211.17
1007.01	211.12
1007.30	211.08
1007.59	211.03
1007.88	210.97
1008.17	210.99
1008.45	210.86
1008.74	210.72
1009.03	210.57
1009.32	210.61
1009.60	210.55
1009.89	210.49
1010.18	210.31
1010.47	210.25
1010.76	210.30
1011.04	210.39
1011.33	210.41
1011.62	210.41
1011.91	210.44
1012.19	210.45
1012.48	210.48
1012.77	210.46
1013.05	210.58
1013.34	210.61
1013.63	210.54
1013.92	210.63
1014.20	210.62
1014.49	210.66
1014.78	210.65
1015.06	210.48
1015.35	210.49
1015.64	210.62
1015.92	210.62
1016.21	210.63
1016.50	210.65
1016.78	210.65
1017.07	210.62
1017.36	210.50
1017.64	210.50
1017.93	210.49
1018.22	210.45
1018.50	210.40
1018.79	210.39
1019.08	210.27
1019.36	210.24
1019.65	210.26
1019.93	210.29
1020.22	210.31
1020.51	210.50
1020.79	210.53
1021.08	210.10
1021.36	209.95
1021.65	209.95
1021.94	210.70
1022.22	209.85
1022.51	210.00
1022.79	211.80
1023.08	210.15
1023.36	214.20
1023.65	210.40
>>>>>End Processed Spectral Data<<<<<
