SpectraSuite Data File
++++++++++++++++++++++++++++++++++++
Date: Mon Feb 25 17:05:24 EST 2013
User: group
Dark Spectrum Present: No
Reference Spectrum Present: No
Number of Sampled Component Spectra: 1
Spectrometers: USB2E7196
Integration Time (usec): 104000 (USB2E7196)
Spectra Averaged: 20 (USB2E7196)
Boxcar Smoothing: 10 (USB2E7196)
Correct for Electrical Dark: No (USB2E7196)
Strobe/Lamp Enabled: No (USB2E7196)
Correct for Detector Non-linearity: No (USB2E7196)
Correct for Stray Light: No (USB2E7196)
Number of Pixels in Processed Spectrum: 2048
>>>>>Begin Processed Spectral Data<<<<<
339.09	0.00
339.48	198.25
339.86	199.25
340.24	202.30
340.63	202.65
341.01	209.25
341.39	206.15
341.78	206.60
342.16	209.55
342.54	209.80
342.93	198.71
343.31	208.75
343.69	209.31
344.07	209.85
344.46	210.29
344.84	210.67
345.22	210.69
345.60	210.91
345.99	211.12
346.37	211.21
346.75	211.25
347.13	211.32
347.52	211.36
347.90	211.44
348.28	211.44
348.66	211.51
349.05	211.38
349.43	211.37
349.81	211.36
350.19	211.40
350.57	211.41
350.96	211.47
351.34	211.46
351.72	211.54
352.10	211.57
352.48	211.57
352.87	211.65
353.25	211.75
353.63	211.76
354.01	211.80
354.39	211.88
354.77	211.88
355.15	211.92
355.54	211.88
355.92	211.76
356.30	211.77
356.68	212.01
357.06	212.10
357.44	212.01
357.82	212.08
358.20	212.15
358.58	212.16
358.97	212.14
359.35	212.27
359.73	212.39
360.11	212.41
360.49	212.40
360.87	212.41
361.25	212.45
361.63	212.56
362.01	212.58
362.39	212.53
362.77	212.63
363.15	212.66
363.53	212.74
363.91	212.80
364.29	212.88
364.67	212.57
365.05	212.60
365.43	212.65
365.81	212.62
366.19	212.73
366.57	212.87
366.95	212.90
367.33	212.83
367.71	212.75
368.09	212.80
368.47	212.84
368.85	212.82
369.23	212.95
369.61	212.87
369.99	212.98
370.37	213.04
370.75	213.20
371.13	213.07
371.51	212.89
371.89	212.88
372.27	212.83
372.65	212.75
373.03	212.71
373.41	212.68
373.78	212.61
374.16	212.41
374.54	212.24
374.92	212.15
375.30	212.06
375.68	211.92
376.06	211.90
376.44	211.79
376.82	211.77
377.19	211.64
377.57	211.60
377.95	211.38
378.33	211.23
378.71	210.95
379.09	210.97
379.47	211.07
379.84	211.08
380.22	211.07
380.60	210.99
380.98	210.95
381.36	210.89
381.73	210.85
382.11	210.90
382.49	210.86
382.87	210.73
383.25	210.75
383.62	211.23
384.00	211.11
384.38	211.14
384.76	211.14
385.13	211.16
385.51	211.14
385.89	211.08
386.27	211.10
386.64	211.11
387.02	211.09
387.40	211.03
387.78	210.97
388.15	210.88
388.53	210.84
388.91	210.76
389.29	210.73
389.66	210.75
390.04	210.65
390.42	210.72
390.79	210.83
391.17	210.75
391.55	210.24
391.92	210.27
392.30	210.28
392.68	210.18
393.05	210.20
393.43	210.18
393.81	210.20
394.18	210.14
394.56	210.16
394.94	210.26
395.31	210.19
395.69	210.23
396.06	210.27
396.44	210.26
396.82	210.30
397.19	210.54
397.57	210.58
397.95	210.67
398.32	210.59
398.70	210.56
399.07	210.67
399.45	210.76
399.82	210.77
400.20	210.73
400.58	210.78
400.95	210.64
401.33	210.69
401.70	210.99
402.08	211.07
402.45	211.16
402.83	211.23
403.20	211.34
403.58	211.37
403.95	211.52
404.33	211.70
404.71	211.75
405.08	211.97
405.46	211.96
405.83	212.09
406.21	212.20
406.58	212.33
406.96	212.50
407.33	212.64
407.70	212.85
408.08	213.32
408.45	213.53
408.83	213.84
409.20	214.11
409.58	214.11
409.95	214.36
410.33	214.56
410.70	214.73
411.08	215.00
411.45	215.30
411.82	215.53
412.20	215.87
412.57	216.45
412.95	216.55
413.32	217.06
413.69	217.44
414.07	217.90
414.44	218.45
414.82	218.99
415.19	219.59
415.56	220.26
415.94	220.78
416.31	221.61
416.68	222.39
417.06	223.31
417.43	224.33
417.81	225.38
418.18	226.44
418.55	227.56
418.93	228.77
419.30	230.01
419.67	231.35
420.04	232.73
420.42	234.04
420.79	235.88
421.16	237.47
421.54	239.37
421.91	241.24
422.28	242.98
422.66	244.91
423.03	247.01
423.40	248.97
423.77	251.05
424.15	253.01
424.52	255.12
424.89	257.49
425.26	259.70
425.64	261.92
426.01	264.37
426.38	266.97
426.75	269.66
427.13	272.34
427.50	275.12
427.87	278.09
428.24	281.06
428.61	283.73
428.99	286.96
429.36	290.20
429.73	293.55
430.10	297.05
430.47	300.53
430.85	303.90
431.22	307.61
431.59	311.77
431.96	315.70
432.33	320.04
432.70	324.21
433.08	329.01
433.45	333.62
433.82	338.24
434.19	343.40
434.56	348.48
434.93	353.39
435.30	358.30
435.68	363.55
436.05	368.81
436.42	374.13
436.79	379.02
437.16	384.26
437.53	389.73
437.90	395.04
438.27	400.45
438.64	406.10
439.01	411.40
439.38	415.93
439.75	420.62
440.13	425.81
440.50	430.67
440.87	434.79
441.24	438.97
441.61	443.61
441.98	446.97
442.35	450.81
442.72	454.86
443.09	458.78
443.46	461.32
443.83	463.13
444.20	464.66
444.57	466.79
444.94	467.91
445.31	469.20
445.68	470.77
446.05	471.45
446.42	471.18
446.79	470.88
447.16	470.54
447.53	470.26
447.90	468.50
448.27	466.83
448.64	464.36
449.01	462.50
449.37	459.13
449.74	455.96
450.11	452.32
450.48	447.96
450.85	443.56
451.22	439.83
451.59	436.25
451.96	432.84
452.33	428.27
452.70	424.08
453.07	418.98
453.43	413.47
453.80	408.37
454.17	403.74
454.54	399.20
454.91	394.32
455.28	389.62
455.65	385.29
456.02	381.16
456.38	377.46
456.75	372.88
457.12	369.00
457.49	365.13
457.86	361.12
458.23	358.00
458.59	354.34
458.96	350.71
459.33	347.53
459.70	344.34
460.07	341.74
460.43	338.79
460.80	336.08
461.17	333.77
461.54	331.37
461.91	328.91
462.27	326.46
462.64	324.31
463.01	321.96
463.38	319.80
463.74	317.11
464.11	314.98
464.48	313.20
464.85	311.20
465.21	309.87
465.58	308.36
465.95	306.38
466.32	304.96
466.68	303.42
467.05	301.85
467.42	300.31
467.78	298.56
468.15	297.03
468.52	295.79
468.88	294.20
469.25	292.83
469.62	291.69
469.98	290.47
470.35	289.39
470.72	288.24
471.08	286.94
471.45	286.05
471.82	285.16
472.18	284.05
472.55	283.30
472.92	282.15
473.28	281.34
473.65	280.53
474.02	279.73
474.38	279.15
474.75	278.65
475.11	278.02
475.48	277.61
475.85	277.21
476.21	276.70
476.58	276.34
476.94	275.97
477.31	275.61
477.67	275.26
478.04	274.93
478.41	274.82
478.77	274.96
479.14	274.65
479.50	274.46
479.87	274.36
480.23	274.25
480.60	274.12
480.96	274.04
481.33	274.13
481.69	274.12
482.06	273.95
482.42	273.92
482.79	273.94
483.15	274.06
483.52	274.18
483.88	274.33
484.25	274.47
484.61	274.73
484.98	274.88
485.34	275.23
485.71	275.57
486.07	275.84
486.44	275.85
486.80	276.35
487.17	276.71
487.53	277.34
487.90	277.87
488.26	278.55
488.62	279.14
488.99	279.67
489.35	280.27
489.72	281.01
490.08	281.71
490.44	282.38
490.81	283.12
491.17	283.85
491.54	284.71
491.90	285.53
492.26	286.31
492.63	287.32
492.99	288.14
493.36	289.08
493.72	290.11
494.08	291.17
494.45	292.28
494.81	293.44
495.17	294.45
495.54	295.62
495.90	296.68
496.26	297.87
496.63	299.12
496.99	300.31
497.35	301.56
497.72	302.76
498.08	304.08
498.44	305.33
498.80	306.75
499.17	308.10
499.53	309.43
499.89	310.90
500.26	312.19
500.62	313.53
500.98	314.98
501.34	316.37
501.71	317.85
502.07	319.05
502.43	320.30
502.79	321.64
503.16	322.99
503.52	324.32
503.88	325.56
504.24	326.89
504.60	328.37
504.97	329.74
505.33	330.99
505.69	332.36
506.05	333.59
506.41	334.81
506.78	335.96
507.14	337.01
507.50	338.14
507.86	339.26
508.22	340.45
508.59	341.45
508.95	342.53
509.31	343.69
509.67	344.84
510.03	345.99
510.39	346.97
510.75	348.00
511.12	348.99
511.48	350.07
511.84	350.95
512.20	351.86
512.56	352.83
512.92	353.82
513.28	354.65
513.64	355.53
514.00	356.43
514.37	357.42
514.73	358.45
515.09	359.34
515.45	360.21
515.81	361.04
516.17	361.91
516.53	362.71
516.89	363.37
517.25	364.17
517.61	365.10
517.97	365.92
518.33	366.69
518.69	367.70
519.05	368.53
519.41	369.54
519.77	370.55
520.13	371.46
520.49	372.38
520.85	373.33
521.21	374.48
521.57	375.53
521.93	376.39
522.29	377.50
522.65	378.55
523.01	379.77
523.37	380.85
523.73	382.05
524.09	383.25
524.45	384.61
524.81	385.97
525.17	387.17
525.53	388.68
525.89	390.02
526.25	391.32
526.61	392.82
526.97	394.21
527.33	395.60
527.68	397.47
528.04	399.12
528.40	400.72
528.76	402.34
529.12	404.15
529.48	406.04
529.84	407.78
530.20	409.81
530.56	411.72
530.91	413.90
531.27	415.90
531.63	418.03
531.99	420.01
532.35	422.06
532.71	424.32
533.07	426.51
533.42	429.26
533.78	431.55
534.14	433.79
534.50	436.04
534.86	438.60
535.21	440.49
535.57	442.79
535.93	445.20
536.29	447.90
536.65	450.31
537.00	452.69
537.36	455.23
537.72	457.58
538.08	460.18
538.44	462.64
538.79	465.23
539.15	467.75
539.51	470.37
539.87	473.01
540.22	475.67
540.58	478.43
540.94	480.72
541.29	483.54
541.65	486.24
542.01	489.09
542.37	491.78
542.72	494.79
543.08	497.54
543.44	500.53
543.79	502.95
544.15	505.66
544.51	508.82
544.87	511.73
545.22	514.77
545.58	517.45
545.94	520.15
546.29	522.96
546.65	525.66
547.01	528.41
547.36	531.29
547.72	534.00
548.07	536.72
548.43	539.29
548.79	541.85
549.14	544.44
549.50	547.24
549.86	549.56
550.21	552.08
550.57	554.84
550.92	557.10
551.28	559.74
551.64	562.33
551.99	564.75
552.35	567.03
552.70	569.20
553.06	571.67
553.41	574.28
553.77	576.85
554.13	579.44
554.48	582.00
554.84	584.38
555.19	586.72
555.55	589.09
555.90	591.38
556.26	593.58
556.61	595.64
556.97	597.48
557.32	599.68
557.68	601.65
558.03	603.68
558.39	605.73
558.74	607.74
559.10	609.66
559.45	611.57
559.81	613.70
560.16	615.59
560.52	617.44
560.87	619.17
561.23	620.85
561.58	622.81
561.94	624.42
562.29	625.92
562.64	627.52
563.00	629.01
563.35	630.80
563.71	632.61
564.06	634.41
564.42	636.17
564.77	638.01
565.12	639.92
565.48	641.67
565.83	643.40
566.19	645.01
566.54	646.35
566.89	647.76
567.25	649.32
567.60	651.07
567.96	652.57
568.31	654.01
568.66	654.95
569.02	655.76
569.37	656.94
569.72	658.12
570.08	659.20
570.43	660.17
570.78	660.84
571.14	661.38
571.49	662.01
571.84	662.86
572.20	663.21
572.55	663.61
572.90	663.66
573.26	663.90
573.61	664.13
573.96	664.58
574.31	664.59
574.67	664.43
575.02	664.19
575.37	664.04
575.72	663.68
576.08	663.95
576.43	663.81
576.78	663.57
577.13	663.46
577.49	663.43
577.84	663.31
578.19	663.48
578.54	663.63
578.90	663.57
579.25	663.30
579.60	662.98
579.95	662.68
580.30	662.67
580.66	662.71
581.01	662.39
581.36	662.04
581.71	661.90
582.06	661.92
582.42	661.72
582.77	661.33
583.12	661.33
583.47	661.18
583.82	661.01
584.17	660.72
584.53	660.47
584.88	660.10
585.23	659.84
585.58	659.26
585.93	658.77
586.28	658.61
586.63	658.19
586.98	657.96
587.34	657.83
587.69	657.36
588.04	656.72
588.39	656.25
588.74	655.65
589.09	655.37
589.44	654.50
589.79	653.87
590.14	653.29
590.49	652.50
590.84	651.64
591.19	651.13
591.54	650.51
591.89	649.50
592.25	648.76
592.60	647.59
592.95	646.86
593.30	645.93
593.65	644.93
594.00	643.85
594.35	643.73
594.70	642.46
595.05	641.64
595.40	640.85
595.75	639.72
596.10	638.79
596.45	637.58
596.80	636.81
597.15	636.03
597.50	635.10
597.85	634.28
598.19	633.37
598.54	632.41
598.89	631.46
599.24	630.92
599.59	629.91
599.94	629.25
600.29	628.36
600.64	627.44
600.99	626.38
601.34	625.61
601.69	623.76
602.04	622.76
602.39	621.69
602.74	620.65
603.08	620.13
603.43	619.62
603.78	618.82
604.13	617.86
604.48	616.91
604.83	616.16
605.18	615.50
605.53	614.53
605.87	613.39
606.22	612.55
606.57	611.48
606.92	610.45
607.27	609.40
607.62	608.20
607.96	607.25
608.31	606.31
608.66	605.24
609.01	604.18
609.36	603.08
609.70	601.97
610.05	600.63
610.40	599.30
610.75	597.62
611.10	596.40
611.44	594.87
611.79	593.30
612.14	591.79
612.49	590.00
612.83	588.62
613.18	587.08
613.53	585.42
613.88	583.73
614.22	582.11
614.57	580.35
614.92	578.97
615.27	577.25
615.61	575.59
615.96	573.93
616.31	572.48
616.65	571.07
617.00	569.31
617.35	567.80
617.70	566.07
618.04	564.34
618.39	562.30
618.74	560.79
619.08	559.10
619.43	557.45
619.78	555.94
620.12	554.21
620.47	552.64
620.82	550.72
621.16	548.95
621.51	547.43
621.85	545.97
622.20	543.97
622.55	542.14
622.89	540.30
623.24	538.69
623.59	536.89
623.93	535.23
624.28	533.60
624.62	532.18
624.97	530.69
625.32	529.26
625.66	527.88
626.01	526.16
626.35	524.56
626.70	522.88
627.04	521.21
627.39	519.52
627.73	518.01
628.08	516.62
628.43	514.97
628.77	513.26
629.12	511.51
629.46	510.08
629.81	508.70
630.15	507.17
630.50	505.35
630.84	503.58
631.19	501.87
631.53	500.36
631.88	498.37
632.22	496.46
632.57	494.84
632.91	493.14
633.26	491.63
633.60	489.92
633.95	488.32
634.29	486.68
634.64	485.17
634.98	483.45
635.32	481.79
635.67	480.43
636.01	478.92
636.36	477.29
636.70	475.84
637.05	474.10
637.39	472.43
637.73	471.11
638.08	469.84
638.42	468.38
638.77	466.89
639.11	465.30
639.45	463.86
639.80	462.04
640.14	460.19
640.49	458.52
640.83	456.88
641.17	455.27
641.52	453.61
641.86	451.92
642.20	450.36
642.55	448.55
642.89	446.72
643.23	444.88
643.58	443.52
643.92	441.84
644.26	440.27
644.61	438.76
644.95	436.94
645.29	435.14
645.64	433.41
645.98	431.76
646.32	430.29
646.66	428.48
647.01	426.98
647.35	425.72
647.69	424.07
648.04	422.73
648.38	421.26
648.72	419.63
649.06	418.01
649.41	416.40
649.75	415.09
650.09	413.73
650.43	412.19
650.78	410.56
651.12	408.88
651.46	407.30
651.80	405.85
652.14	404.33
652.49	402.81
652.83	401.29
653.17	399.46
653.51	397.93
653.85	396.66
654.20	395.19
654.54	393.54
654.88	392.00
655.22	390.46
655.56	388.74
655.90	387.23
656.25	385.61
656.59	384.12
656.93	382.55
657.27	381.08
657.61	379.62
657.95	378.07
658.29	376.55
658.64	375.33
658.98	373.69
659.32	372.21
659.66	370.83
660.00	369.39
660.34	367.98
660.68	366.43
661.02	364.82
661.36	363.34
661.70	361.92
662.05	360.68
662.39	359.41
662.73	358.30
663.07	357.15
663.41	355.97
663.75	354.62
664.09	353.40
664.43	351.89
664.77	350.57
665.11	349.29
665.45	348.19
665.79	346.88
666.13	345.68
666.47	344.47
666.81	343.30
667.15	341.96
667.49	340.99
667.83	339.95
668.17	338.84
668.51	337.75
668.85	336.78
669.19	335.74
669.53	334.45
669.87	333.17
670.21	331.98
670.55	330.97
670.89	330.07
671.23	329.02
671.57	328.12
671.91	327.24
672.25	326.21
672.58	325.21
672.92	324.13
673.26	323.21
673.60	322.26
673.94	321.25
674.28	320.41
674.62	319.50
674.96	318.46
675.30	317.57
675.64	316.64
675.97	315.60
676.31	314.59
676.65	313.71
676.99	313.07
677.33	312.18
677.67	311.11
678.01	310.05
678.34	309.12
678.68	308.23
679.02	307.24
679.36	306.40
679.70	305.45
680.04	304.65
680.37	303.75
680.71	302.78
681.05	301.95
681.39	301.12
681.73	300.22
682.06	299.43
682.40	298.58
682.74	297.79
683.08	297.13
683.42	296.26
683.75	295.60
684.09	294.53
684.43	293.66
684.77	292.86
685.10	292.13
685.44	291.21
685.78	290.41
686.12	289.67
686.45	288.91
686.79	288.08
687.13	287.31
687.46	286.60
687.80	286.03
688.14	285.18
688.48	284.50
688.81	283.67
689.15	282.96
689.49	282.24
689.82	281.56
690.16	280.62
690.50	279.90
690.83	279.02
691.17	278.26
691.51	277.62
691.84	277.07
692.18	276.34
692.52	275.66
692.85	275.10
693.19	274.59
693.52	273.83
693.86	273.10
694.20	272.38
694.53	271.73
694.87	271.08
695.21	270.49
695.54	269.78
695.88	269.10
696.21	268.38
696.55	267.84
696.88	267.17
697.22	266.61
697.56	266.08
697.89	265.52
698.23	265.06
698.56	264.46
698.90	263.88
699.23	263.32
699.57	262.89
699.90	262.22
700.24	261.57
700.58	261.10
700.91	260.70
701.25	260.45
701.58	260.03
701.92	259.48
702.25	258.95
702.59	258.45
702.92	258.08
703.26	257.66
703.59	257.07
703.93	256.91
704.26	256.46
704.60	256.04
704.93	255.54
705.26	255.05
705.60	254.67
705.93	254.18
706.27	253.85
706.60	253.54
706.94	253.29
707.27	252.82
707.61	252.34
707.94	251.92
708.27	251.18
708.61	250.67
708.94	250.31
709.28	249.99
709.61	249.55
709.94	249.15
710.28	248.85
710.61	248.58
710.95	247.92
711.28	247.78
711.61	247.34
711.95	247.03
712.28	246.65
712.61	246.24
712.95	246.03
713.28	245.70
713.61	245.22
713.95	244.78
714.28	244.49
714.61	244.23
714.95	243.84
715.28	243.52
715.61	243.12
715.95	242.76
716.28	242.44
716.61	242.13
716.95	241.80
717.28	241.47
717.61	241.16
717.94	240.80
718.28	240.25
718.61	239.97
718.94	239.68
719.27	239.41
719.61	239.10
719.94	238.79
720.27	238.34
720.60	238.07
720.94	237.76
721.27	237.55
721.60	237.38
721.93	237.13
722.27	237.04
722.60	236.94
722.93	236.68
723.26	236.41
723.59	236.07
723.93	235.84
724.26	235.61
724.59	235.30
724.92	235.17
725.25	235.02
725.59	234.75
725.92	234.53
726.25	234.26
726.58	234.10
726.91	233.74
727.24	233.58
727.57	233.28
727.91	233.00
728.24	232.76
728.57	232.42
728.90	232.32
729.23	231.96
729.56	231.86
729.89	231.68
730.22	231.36
730.55	231.23
730.89	231.03
731.22	230.78
731.55	230.59
731.88	230.33
732.21	230.13
732.54	229.88
732.87	229.68
733.20	229.56
733.53	229.33
733.86	229.22
734.19	228.97
734.52	228.90
734.85	228.93
735.18	228.67
735.51	228.63
735.84	228.42
736.17	228.42
736.50	227.98
736.83	228.13
737.16	228.09
737.49	227.92
737.82	227.71
738.15	227.61
738.48	227.43
738.81	227.23
739.14	227.02
739.47	226.93
739.80	226.79
740.13	226.65
740.46	226.45
740.79	226.23
741.12	226.07
741.45	225.79
741.78	225.45
742.11	225.41
742.44	225.14
742.77	225.04
743.10	224.85
743.43	224.67
743.75	224.26
744.08	224.52
744.41	224.37
744.74	224.16
745.07	223.94
745.40	223.90
745.73	223.98
746.06	223.93
746.39	223.76
746.71	223.58
747.04	223.37
747.37	223.30
747.70	223.27
748.03	223.21
748.36	223.22
748.68	223.14
749.01	222.88
749.34	222.78
749.67	222.65
750.00	222.60
750.33	222.80
750.65	222.63
750.98	222.14
751.31	222.03
751.64	222.01
751.97	222.14
752.29	221.88
752.62	221.55
752.95	221.37
753.28	221.29
753.60	221.20
753.93	221.24
754.26	221.14
754.59	220.89
754.91	220.71
755.24	220.61
755.57	220.49
755.90	220.44
756.22	220.30
756.55	220.12
756.88	219.86
757.20	219.54
757.53	219.40
757.86	219.26
758.19	219.19
758.51	219.06
758.84	218.71
759.17	218.67
759.49	218.64
759.82	218.72
760.15	218.69
760.47	218.50
760.80	218.35
761.13	218.31
761.45	218.26
761.78	218.23
762.11	218.17
762.43	218.07
762.76	218.02
763.08	218.00
763.41	217.93
763.74	217.90
764.06	217.80
764.39	217.74
764.71	217.66
765.04	217.60
765.37	217.50
765.69	217.48
766.02	217.49
766.34	217.39
766.67	217.15
767.00	217.09
767.32	217.34
767.65	217.39
767.97	217.26
768.30	217.19
768.62	217.14
768.95	217.00
769.27	216.94
769.60	216.89
769.92	216.80
770.25	216.74
770.57	216.56
770.90	216.50
771.22	216.40
771.55	216.38
771.87	216.28
772.20	216.26
772.52	216.56
772.85	216.86
773.17	216.83
773.50	216.76
773.82	216.65
774.15	216.40
774.47	216.08
774.80	215.98
775.12	215.96
775.45	215.92
775.77	215.94
776.09	215.96
776.42	215.82
776.74	215.86
777.07	215.71
777.39	215.80
777.72	215.75
778.04	215.72
778.36	215.65
778.69	215.69
779.01	215.66
779.33	215.25
779.66	214.79
779.98	214.69
780.31	214.64
780.63	214.78
780.95	214.76
781.28	214.80
781.60	214.78
781.92	214.63
782.25	214.59
782.57	214.55
782.89	214.43
783.22	214.38
783.54	214.18
783.86	214.33
784.19	214.22
784.51	214.28
784.83	214.20
785.16	214.11
785.48	214.03
785.80	213.99
786.12	214.00
786.45	213.93
786.77	213.99
787.09	214.03
787.42	213.81
787.74	213.78
788.06	213.78
788.38	213.79
788.71	213.84
789.03	213.80
789.35	213.84
789.67	213.78
789.99	213.83
790.32	213.84
790.64	213.80
790.96	214.08
791.28	213.94
791.61	213.99
791.93	214.00
792.25	213.97
792.57	214.19
792.89	214.12
793.21	214.17
793.54	214.05
793.86	213.90
794.18	213.90
794.50	213.86
794.82	213.83
795.14	213.72
795.47	213.77
795.79	213.77
796.11	213.56
796.43	213.54
796.75	213.56
797.07	213.59
797.39	213.54
797.71	213.29
798.04	213.29
798.36	213.22
798.68	213.24
799.00	213.22
799.32	213.02
799.64	213.05
799.96	213.03
800.28	213.07
800.60	213.03
800.92	213.07
801.24	212.97
801.56	213.03
801.89	213.15
802.21	213.05
802.53	212.92
802.85	213.05
803.17	213.21
803.49	213.09
803.81	213.04
804.13	213.00
804.45	212.96
804.77	212.96
805.09	212.93
805.41	212.77
805.73	212.75
806.05	212.68
806.37	212.67
806.69	212.61
807.01	212.63
807.33	212.69
807.65	212.54
807.97	212.71
808.28	212.62
808.60	212.49
808.92	212.46
809.24	212.66
809.56	212.54
809.88	212.43
810.20	212.42
810.52	212.49
810.84	212.42
811.16	212.34
811.48	212.30
811.80	212.43
812.12	212.53
812.43	212.58
812.75	212.60
813.07	212.51
813.39	212.58
813.71	212.50
814.03	212.50
814.35	212.55
814.67	212.46
814.98	212.50
815.30	212.50
815.62	212.44
815.94	212.24
816.26	212.23
816.58	212.11
816.89	212.15
817.21	212.08
817.53	212.10
817.85	212.19
818.17	212.22
818.48	212.09
818.80	212.13
819.12	212.08
819.44	212.05
819.76	212.05
820.07	212.02
820.39	211.99
820.71	212.09
821.03	212.05
821.34	211.97
821.66	211.98
821.98	212.00
822.30	212.03
822.61	212.27
822.93	212.30
823.25	212.29
823.57	212.31
823.88	212.36
824.20	212.35
824.52	212.33
824.83	212.28
825.15	212.23
825.47	212.15
825.79	212.19
826.10	212.18
826.42	212.18
826.74	212.25
827.05	212.24
827.37	212.12
827.69	212.12
828.00	212.15
828.32	212.11
828.64	212.09
828.95	212.26
829.27	212.13
829.58	212.14
829.90	212.16
830.22	212.18
830.53	212.06
830.85	212.06
831.17	211.94
831.48	211.87
831.80	211.95
832.11	211.95
832.43	211.86
832.75	211.81
833.06	212.03
833.38	211.86
833.69	211.86
834.01	211.90
834.32	211.95
834.64	211.82
834.96	211.82
835.27	211.79
835.59	211.71
835.90	211.70
836.22	211.75
836.53	211.71
836.85	211.65
837.16	212.02
837.48	211.98
837.79	212.13
838.11	212.23
838.42	212.13
838.74	212.17
839.05	212.13
839.37	212.13
839.68	211.89
840.00	211.91
840.31	212.01
840.63	211.92
840.94	211.84
841.26	211.84
841.57	211.83
841.88	211.92
842.20	211.90
842.51	211.83
842.83	211.69
843.14	212.08
843.46	212.13
843.77	211.97
844.08	211.91
844.40	211.87
844.71	211.80
845.03	211.87
845.34	211.85
845.65	211.90
845.97	211.86
846.28	211.96
846.60	212.02
846.91	211.94
847.22	211.98
847.54	212.05
847.85	212.15
848.16	212.20
848.48	212.13
848.79	212.25
849.10	212.29
849.42	212.32
849.73	211.96
850.04	211.91
850.36	211.82
850.67	211.97
850.98	212.02
851.30	212.06
851.61	212.00
851.92	211.97
852.23	212.06
852.55	212.12
852.86	212.04
853.17	212.09
853.49	212.21
853.80	212.32
854.11	212.39
854.42	212.45
854.74	212.38
855.05	212.38
855.36	212.16
855.67	212.15
855.99	212.18
856.30	212.63
856.61	212.61
856.92	212.56
857.23	212.52
857.55	212.42
857.86	212.39
858.17	212.50
858.48	212.47
858.79	212.34
859.11	212.40
859.42	212.35
859.73	212.23
860.04	212.14
860.35	212.02
860.66	211.87
860.98	211.84
861.29	211.90
861.60	211.85
861.91	211.91
862.22	211.89
862.53	211.88
862.84	211.43
863.16	211.45
863.47	211.38
863.78	211.35
864.09	211.42
864.40	211.41
864.71	211.41
865.02	211.40
865.33	211.41
865.64	211.29
865.95	211.27
866.27	211.49
866.58	211.44
866.89	211.46
867.20	211.44
867.51	211.31
867.82	211.26
868.13	211.41
868.44	211.37
868.75	211.46
869.06	211.46
869.37	211.44
869.68	211.39
869.99	211.44
870.30	211.52
870.61	211.47
870.92	211.37
871.23	211.35
871.54	211.46
871.85	211.56
872.16	211.63
872.47	211.64
872.78	211.44
873.09	211.48
873.40	211.45
873.71	211.48
874.02	211.58
874.33	211.50
874.64	211.33
874.95	211.40
875.26	211.30
875.56	211.29
875.87	211.28
876.18	211.27
876.49	211.57
876.80	211.45
877.11	211.41
877.42	211.49
877.73	211.43
878.04	211.37
878.35	211.34
878.66	211.33
878.96	211.30
879.27	211.25
879.58	211.21
879.89	211.23
880.20	211.33
880.51	211.21
880.82	211.29
881.12	211.37
881.43	211.31
881.74	211.21
882.05	211.23
882.36	211.37
882.67	211.38
882.97	211.06
883.28	211.09
883.59	211.08
883.90	211.11
884.21	211.16
884.51	211.09
884.82	211.06
885.13	211.12
885.44	211.08
885.74	211.13
886.05	211.06
886.36	211.04
886.67	210.89
886.98	211.15
887.28	211.16
887.59	211.09
887.90	211.08
888.20	211.16
888.51	211.16
888.82	211.12
889.13	211.18
889.43	211.47
889.74	211.37
890.05	211.42
890.35	211.36
890.66	211.27
890.97	211.26
891.28	211.20
891.58	211.11
891.89	211.17
892.20	211.11
892.50	211.08
892.81	211.09
893.12	211.10
893.42	210.90
893.73	210.88
894.04	210.93
894.34	210.91
894.65	210.80
894.95	210.78
895.26	210.71
895.57	210.86
895.87	210.56
896.18	210.71
896.48	210.67
896.79	210.66
897.10	210.78
897.40	210.81
897.71	210.94
898.01	210.90
898.32	211.02
898.63	210.96
898.93	211.08
899.24	211.11
899.54	211.12
899.85	211.08
900.15	211.08
900.46	211.10
900.76	211.18
901.07	211.23
901.38	211.20
901.68	211.20
901.99	210.86
902.29	210.84
902.60	210.79
902.90	210.78
903.21	210.78
903.51	210.72
903.82	210.81
904.12	210.74
904.43	210.82
904.73	210.73
905.03	210.85
905.34	211.14
905.64	211.05
905.95	211.08
906.25	211.13
906.56	211.04
906.86	210.99
907.17	210.96
907.47	211.03
907.77	211.01
908.08	211.00
908.38	211.12
908.69	211.15
908.99	211.19
909.30	211.18
909.60	211.19
909.90	211.13
910.21	210.98
910.51	210.95
910.81	210.91
911.12	210.97
911.42	210.90
911.73	210.59
912.03	210.66
912.33	210.62
912.64	210.54
912.94	210.62
913.24	210.59
913.55	210.54
913.85	210.46
914.15	210.54
914.46	210.52
914.76	210.47
915.06	210.42
915.37	210.31
915.67	210.30
915.97	210.30
916.27	210.26
916.58	210.31
916.88	210.29
917.18	210.19
917.49	210.35
917.79	210.35
918.09	210.32
918.39	210.38
918.70	210.38
919.00	210.46
919.30	210.54
919.60	210.57
919.91	210.52
920.21	210.61
920.51	210.54
920.81	210.57
921.12	210.65
921.42	210.70
921.72	210.76
922.02	210.79
922.32	210.77
922.63	210.83
922.93	210.97
923.23	211.00
923.53	211.08
923.83	210.81
924.13	210.85
924.44	210.85
924.74	210.89
925.04	211.06
925.34	211.02
925.64	211.00
925.94	210.90
926.24	211.03
926.55	210.98
926.85	211.00
927.15	211.00
927.45	211.05
927.75	211.05
928.05	211.06
928.35	211.04
928.65	211.08
928.95	211.15
929.26	210.99
929.56	211.02
929.86	211.04
930.16	211.02
930.46	211.03
930.76	211.08
931.06	210.94
931.36	210.80
931.66	210.85
931.96	210.83
932.26	210.87
932.56	210.80
932.86	210.86
933.16	210.88
933.46	210.86
933.76	210.69
934.06	210.77
934.36	210.88
934.66	210.88
934.96	210.94
935.26	210.92
935.56	211.03
935.86	210.96
936.16	210.92
936.46	210.88
936.76	210.90
937.06	210.88
937.36	210.83
937.66	210.87
937.96	210.85
938.26	210.79
938.56	210.84
938.86	210.90
939.16	210.95
939.46	211.01
939.76	210.96
940.06	211.05
940.35	210.88
940.65	210.70
940.95	210.73
941.25	210.57
941.55	210.55
941.85	210.49
942.15	210.56
942.45	210.66
942.75	210.73
943.04	210.69
943.34	210.76
943.64	210.79
943.94	210.72
944.24	210.69
944.54	210.77
944.84	210.70
945.13	210.63
945.43	210.57
945.73	210.49
946.03	210.52
946.33	210.45
946.62	210.51
946.92	210.54
947.22	210.55
947.52	210.62
947.82	210.65
948.11	210.57
948.41	210.51
948.71	210.45
949.01	210.44
949.31	210.44
949.60	210.40
949.90	210.50
950.20	210.50
950.50	210.50
950.79	210.42
951.09	210.50
951.39	210.50
951.69	210.52
951.98	210.65
952.28	210.71
952.58	210.75
952.87	210.72
953.17	210.81
953.47	210.78
953.76	210.80
954.06	210.74
954.36	210.73
954.66	210.69
954.95	210.75
955.25	210.72
955.55	210.77
955.84	210.66
956.14	210.66
956.44	210.69
956.73	210.69
957.03	210.75
957.32	210.75
957.62	210.70
957.92	210.66
958.21	210.56
958.51	210.93
958.81	210.94
959.10	210.95
959.40	210.99
959.69	211.05
959.99	211.13
960.29	211.15
960.58	211.16
960.88	211.34
961.17	211.26
961.47	211.36
961.76	211.33
962.06	211.39
962.36	211.32
962.65	211.33
962.95	211.34
963.24	211.24
963.54	211.27
963.83	211.30
964.13	211.26
964.42	211.19
964.72	210.95
965.01	210.90
965.31	210.94
965.60	210.79
965.90	210.96
966.19	210.82
966.49	210.87
966.78	210.79
967.08	210.71
967.37	210.79
967.67	210.70
967.96	210.73
968.26	210.76
968.55	210.79
968.85	210.76
969.14	210.69
969.43	210.73
969.73	210.69
970.02	210.70
970.32	210.74
970.61	210.80
970.91	210.59
971.20	210.56
971.49	210.50
971.79	210.59
972.08	210.35
972.38	210.42
972.67	210.36
972.96	210.51
973.26	210.51
973.55	210.57
973.85	210.56
974.14	210.55
974.43	210.54
974.73	210.47
975.02	210.47
975.31	210.55
975.61	210.55
975.90	210.58
976.19	210.60
976.49	210.65
976.78	210.60
977.07	210.66
977.37	210.71
977.66	210.77
977.95	210.70
978.24	210.70
978.54	210.69
978.83	210.65
979.12	210.58
979.42	210.52
979.71	210.47
980.00	210.45
980.29	210.46
980.59	210.41
980.88	210.48
981.17	210.42
981.46	210.41
981.76	210.39
982.05	210.48
982.34	210.48
982.63	210.43
982.93	210.43
983.22	210.50
983.51	210.54
983.80	210.56
984.09	210.64
984.39	210.62
984.68	210.66
984.97	210.71
985.26	210.65
985.55	210.72
985.85	210.67
986.14	210.70
986.43	210.69
986.72	210.68
987.01	210.59
987.30	210.65
987.59	210.62
987.89	210.60
988.18	210.47
988.47	210.42
988.76	210.41
989.05	210.44
989.34	210.40
989.63	210.48
989.92	210.44
990.22	210.40
990.51	210.47
990.80	210.45
991.09	210.46
991.38	210.60
991.67	210.57
991.96	210.56
992.25	210.60
992.54	210.53
992.83	210.58
993.12	210.62
993.41	210.75
993.70	210.93
993.99	211.11
994.28	211.15
994.58	211.21
994.87	211.22
995.16	211.20
995.45	211.20
995.74	211.11
996.03	211.20
996.32	211.27
996.61	211.25
996.90	211.25
997.19	211.21
997.48	211.22
997.77	211.14
998.06	211.12
998.34	211.08
998.63	211.14
998.92	211.14
999.21	211.09
999.50	211.00
999.79	210.87
1000.08	210.79
1000.37	210.80
1000.66	210.74
1000.95	210.81
1001.24	210.76
1001.53	210.78
1001.82	210.75
1002.11	210.60
1002.40	210.56
1002.68	210.68
1002.97	210.90
1003.26	210.90
1003.55	210.85
1003.84	210.93
1004.13	211.08
1004.42	211.04
1004.71	211.07
1004.99	211.01
1005.28	211.16
1005.57	211.18
1005.86	211.12
1006.15	211.06
1006.44	211.05
1006.72	211.11
1007.01	211.00
1007.30	211.06
1007.59	210.99
1007.88	210.98
1008.17	211.02
1008.45	211.00
1008.74	210.82
1009.03	210.69
1009.32	210.73
1009.60	210.70
1009.89	210.65
1010.18	210.53
1010.47	210.53
1010.76	210.57
1011.04	210.63
1011.33	210.98
1011.62	211.00
1011.91	210.99
1012.19	211.02
1012.48	210.99
1012.77	210.95
1013.05	211.12
1013.34	211.14
1013.63	211.18
1013.92	211.26
1014.20	211.27
1014.49	211.26
1014.78	211.43
1015.06	211.25
1015.35	211.28
1015.64	211.31
1015.92	211.35
1016.21	211.36
1016.50	211.42
1016.78	211.36
1017.07	211.38
1017.36	211.01
1017.64	210.91
1017.93	210.97
1018.22	210.95
1018.50	210.89
1018.79	210.92
1019.08	210.78
1019.36	210.80
1019.65	210.74
1019.93	210.79
1020.22	210.85
1020.51	210.96
1020.79	210.85
1021.08	210.35
1021.36	209.25
1021.65	210.80
1021.94	210.40
1022.22	211.35
1022.51	210.10
1022.79	212.00
1023.08	211.65
1023.36	213.40
1023.65	210.85
>>>>>End Processed Spectral Data<<<<<
