SpectraSuite Data File
++++++++++++++++++++++++++++++++++++
Date: Mon Feb 25 17:06:03 EST 2013
User: group
Dark Spectrum Present: No
Reference Spectrum Present: No
Number of Sampled Component Spectra: 1
Spectrometers: USB2E7196
Integration Time (usec): 104000 (USB2E7196)
Spectra Averaged: 20 (USB2E7196)
Boxcar Smoothing: 10 (USB2E7196)
Correct for Electrical Dark: No (USB2E7196)
Strobe/Lamp Enabled: No (USB2E7196)
Correct for Detector Non-linearity: No (USB2E7196)
Correct for Stray Light: No (USB2E7196)
Number of Pixels in Processed Spectrum: 2048
>>>>>Begin Processed Spectral Data<<<<<
339.09	0.00
339.48	197.60
339.86	199.45
340.24	200.45
340.63	201.80
341.01	208.35
341.39	204.95
341.78	206.75
342.16	208.90
342.54	207.75
342.93	197.44
343.31	207.35
343.69	207.91
344.07	208.40
344.46	208.91
344.84	209.30
345.22	209.34
345.60	209.58
345.99	209.70
346.37	209.72
346.75	209.75
347.13	209.80
347.52	209.75
347.90	209.88
348.28	209.90
348.66	210.00
349.05	209.89
349.43	209.97
349.81	209.93
350.19	209.97
350.57	210.01
350.96	210.08
351.34	210.15
351.72	210.25
352.10	210.33
352.48	210.30
352.87	210.36
353.25	210.48
353.63	210.60
354.01	210.70
354.39	210.82
354.77	211.01
355.15	211.13
355.54	211.22
355.92	211.17
356.30	211.27
356.68	211.53
357.06	211.72
357.44	211.78
357.82	212.01
358.20	212.13
358.58	212.22
358.97	212.33
359.35	212.57
359.73	212.67
360.11	212.72
360.49	212.83
360.87	212.87
361.25	212.96
361.63	213.04
362.01	213.16
362.39	213.22
362.77	213.27
363.15	213.38
363.53	213.49
363.91	213.60
364.29	213.62
364.67	213.39
365.05	213.40
365.43	213.52
365.81	213.55
366.19	213.76
366.57	213.97
366.95	213.98
367.33	213.89
367.71	213.92
368.09	214.04
368.47	214.11
368.85	214.11
369.23	214.20
369.61	214.10
369.99	214.20
370.37	214.20
370.75	214.32
371.13	214.20
371.51	214.14
371.89	214.20
372.27	214.17
372.65	214.15
373.03	214.18
373.41	214.15
373.78	214.06
374.16	213.86
374.54	213.70
374.92	213.60
375.30	213.60
375.68	213.44
376.06	213.39
376.44	213.26
376.82	213.27
377.19	213.18
377.57	213.12
377.95	212.92
378.33	212.87
378.71	212.60
379.09	212.62
379.47	212.55
379.84	212.40
380.22	212.32
380.60	212.24
380.98	212.06
381.36	211.94
381.73	211.88
382.11	211.88
382.49	211.81
382.87	211.72
383.25	211.67
383.62	212.10
384.00	211.98
384.38	211.96
384.76	211.96
385.13	212.05
385.51	212.06
385.89	212.00
386.27	211.93
386.64	211.96
387.02	211.86
387.40	211.79
387.78	211.77
388.15	211.74
388.53	211.62
388.91	211.53
389.29	211.50
389.66	211.49
390.04	211.40
390.42	211.36
390.79	211.38
391.17	211.30
391.55	210.80
391.92	210.71
392.30	210.71
392.68	210.67
393.05	210.55
393.43	210.47
393.81	210.47
394.18	210.40
394.56	210.37
394.94	210.43
395.31	210.38
395.69	210.42
396.06	210.40
396.44	210.40
396.82	210.46
397.19	210.61
397.57	210.59
397.95	210.60
398.32	210.56
398.70	210.58
399.07	210.67
399.45	210.67
399.82	210.71
400.20	210.66
400.58	210.60
400.95	210.44
401.33	210.58
401.70	210.74
402.08	210.78
402.45	210.90
402.83	211.00
403.20	211.10
403.58	211.10
403.95	211.23
404.33	211.35
404.71	211.47
405.08	211.69
405.46	211.72
405.83	211.87
406.21	211.92
406.58	212.04
406.96	212.07
407.33	212.28
407.70	212.38
408.08	212.79
408.45	212.95
408.83	213.26
409.20	213.34
409.58	213.42
409.95	213.67
410.33	213.82
410.70	213.95
411.08	214.28
411.45	214.59
411.82	214.89
412.20	215.26
412.57	215.77
412.95	215.80
413.32	216.33
413.69	216.66
414.07	217.15
414.44	217.59
414.82	218.15
415.19	218.79
415.56	219.49
415.94	220.01
416.31	220.81
416.68	221.52
417.06	222.47
417.43	223.34
417.81	224.30
418.18	225.28
418.55	226.38
418.93	227.41
419.30	228.64
419.67	229.88
420.04	231.13
420.42	232.38
420.79	234.20
421.16	235.67
421.54	237.38
421.91	239.07
422.28	240.84
422.66	242.63
423.03	244.58
423.40	246.36
423.77	248.29
424.15	250.15
424.52	252.36
424.89	254.60
425.26	256.82
425.64	258.93
426.01	261.26
426.38	263.63
426.75	266.12
427.13	268.61
427.50	271.23
427.87	274.01
428.24	276.74
428.61	279.25
428.99	282.39
429.36	285.53
429.73	288.59
430.10	291.77
430.47	295.16
430.85	298.33
431.22	301.87
431.59	305.86
431.96	309.61
432.33	313.56
432.70	317.45
433.08	321.91
433.45	326.20
433.82	330.46
434.19	335.30
434.56	340.08
434.93	344.51
435.30	348.98
435.68	353.97
436.05	358.93
436.42	363.72
436.79	368.18
437.16	373.10
437.53	378.30
437.90	383.42
438.27	388.36
438.64	393.53
439.01	398.47
439.38	402.52
439.75	406.75
440.13	411.55
440.50	416.07
440.87	419.88
441.24	423.82
441.61	428.14
441.98	431.27
442.35	434.90
442.72	438.71
443.09	442.61
443.46	444.89
443.83	446.64
444.20	448.21
444.57	450.11
444.94	451.15
445.31	452.47
445.68	453.79
446.05	454.36
446.42	454.21
446.79	453.93
447.16	453.67
447.53	453.47
447.90	451.87
448.27	450.28
448.64	447.99
449.01	446.47
449.37	443.45
449.74	440.52
450.11	437.11
450.48	433.01
450.85	428.64
451.22	425.17
451.59	421.80
451.96	418.57
452.33	414.26
452.70	410.33
453.07	405.32
453.43	400.27
453.80	395.69
454.17	391.21
454.54	386.90
454.91	382.26
455.28	377.73
455.65	373.50
456.02	369.76
456.38	366.10
456.75	361.59
457.12	357.84
457.49	354.11
457.86	350.32
458.23	347.40
458.59	344.20
458.96	340.78
459.33	337.71
459.70	334.69
460.07	332.18
460.43	329.32
460.80	326.86
461.17	324.59
461.54	322.18
461.91	319.86
462.27	317.55
462.64	315.62
463.01	313.51
463.38	311.52
463.74	308.99
464.11	307.17
464.48	305.61
464.85	303.84
465.21	302.58
465.58	301.18
465.95	299.36
466.32	297.97
466.68	296.55
467.05	295.16
467.42	293.66
467.78	292.29
468.15	291.09
468.52	290.04
468.88	288.58
469.25	287.35
469.62	286.40
469.98	285.39
470.35	284.43
470.72	283.43
471.08	282.31
471.45	281.43
471.82	280.58
472.18	279.56
472.55	278.82
472.92	277.90
473.28	277.20
473.65	276.51
474.02	275.64
474.38	275.06
474.75	274.50
475.11	274.04
475.48	273.52
475.85	272.99
476.21	272.47
476.58	272.16
476.94	271.86
477.31	271.49
477.67	271.20
478.04	270.90
478.41	270.79
478.77	270.86
479.14	270.61
479.50	270.33
479.87	270.20
480.23	270.10
480.60	270.02
480.96	269.91
481.33	270.08
481.69	270.11
482.06	270.16
482.42	270.17
482.79	270.16
483.15	270.29
483.52	270.50
483.88	270.64
484.25	270.72
484.61	270.82
484.98	270.92
485.34	271.25
485.71	271.60
486.07	271.81
486.44	271.89
486.80	272.31
487.17	272.86
487.53	273.50
487.90	274.03
488.26	274.69
488.62	275.37
488.99	275.80
489.35	276.49
489.72	277.06
490.08	277.72
490.44	278.35
490.81	279.02
491.17	279.69
491.54	280.48
491.90	281.39
492.26	282.27
492.63	283.29
492.99	284.10
493.36	285.05
493.72	286.18
494.08	287.19
494.45	288.24
494.81	289.32
495.17	290.22
495.54	291.44
495.90	292.50
496.26	293.54
496.63	294.82
496.99	296.01
497.35	297.31
497.72	298.59
498.08	299.98
498.44	301.38
498.80	302.83
499.17	304.19
499.53	305.55
499.89	306.98
500.26	308.34
500.62	309.77
500.98	311.28
501.34	312.60
501.71	314.08
502.07	315.50
502.43	316.94
502.79	318.28
503.16	319.61
503.52	321.05
503.88	322.48
504.24	323.81
504.60	325.20
504.97	326.70
505.33	328.09
505.69	329.65
506.05	331.10
506.41	332.43
506.78	333.82
507.14	335.17
507.50	336.62
507.86	337.98
508.22	339.34
508.59	340.52
508.95	342.04
509.31	343.52
509.67	344.87
510.03	346.20
510.39	347.74
510.75	349.19
511.12	350.50
511.48	351.87
511.84	353.24
512.20	354.59
512.56	355.85
512.92	357.28
513.28	358.59
513.64	359.77
514.00	361.20
514.37	362.58
514.73	364.05
515.09	365.39
515.45	366.75
515.81	368.04
516.17	369.42
516.53	370.56
516.89	371.74
517.25	373.14
517.61	374.47
517.97	375.74
518.33	376.95
518.69	378.33
519.05	379.70
519.41	381.12
519.77	382.86
520.13	384.19
520.49	385.49
520.85	386.86
521.21	388.62
521.57	390.08
521.93	391.56
522.29	393.01
522.65	394.49
523.01	396.06
523.37	397.60
523.73	399.36
524.09	400.99
524.45	402.73
524.81	404.40
525.17	406.30
525.53	408.15
525.89	410.01
526.25	412.06
526.61	413.87
526.97	415.83
527.33	417.67
527.68	420.17
528.04	422.28
528.40	424.35
528.76	426.33
529.12	428.49
529.48	430.68
529.84	432.89
530.20	435.33
530.56	437.90
530.91	440.51
531.27	443.03
531.63	445.77
531.99	448.28
532.35	450.93
532.71	453.35
533.07	456.02
533.42	459.07
533.78	461.58
534.14	464.40
534.50	466.95
534.86	469.67
535.21	471.94
535.57	474.79
535.93	477.43
536.29	480.44
536.65	483.22
537.00	486.02
537.36	488.85
537.72	491.61
538.08	494.27
538.44	496.99
538.79	499.81
539.15	502.36
539.51	505.17
539.87	508.03
540.22	511.01
540.58	513.85
540.94	516.48
541.29	519.43
541.65	522.22
542.01	525.25
542.37	528.09
542.72	531.10
543.08	534.02
543.44	537.22
543.79	539.85
544.15	543.02
544.51	546.21
544.87	549.29
545.22	552.21
545.58	555.07
545.94	557.94
546.29	560.80
546.65	563.79
547.01	566.69
547.36	569.53
547.72	572.29
548.07	575.13
548.43	577.75
548.79	580.40
549.14	582.88
549.50	585.61
549.86	588.01
550.21	590.61
550.57	593.18
550.92	595.51
551.28	598.02
551.64	600.25
551.99	602.52
552.35	604.80
552.70	607.04
553.06	609.39
553.41	611.58
553.77	613.95
554.13	616.09
554.48	618.51
554.84	620.80
555.19	623.04
555.55	625.31
555.90	627.28
556.26	629.18
556.61	631.28
556.97	632.96
557.32	635.05
557.68	636.87
558.03	638.66
558.39	640.66
558.74	642.59
559.10	644.49
559.45	646.26
559.81	648.36
560.16	650.20
560.52	652.14
560.87	653.85
561.23	655.14
561.58	657.18
561.94	658.41
562.29	659.81
562.64	661.32
563.00	662.68
563.35	664.39
563.71	666.24
564.06	667.89
564.42	669.60
564.77	671.15
565.12	672.87
565.48	674.66
565.83	676.09
566.19	677.66
566.54	678.70
566.89	679.99
567.25	681.03
567.60	682.38
567.96	683.67
568.31	685.05
568.66	686.43
569.02	687.00
569.37	688.03
569.72	689.10
570.08	689.90
570.43	690.57
570.78	691.18
571.14	691.40
571.49	691.86
571.84	692.32
572.20	692.65
572.55	692.89
572.90	692.69
573.26	692.60
573.61	692.42
573.96	692.79
574.31	692.74
574.67	692.48
575.02	692.08
575.37	691.55
575.72	690.98
576.08	690.68
576.43	690.43
576.78	690.04
577.13	689.61
577.49	689.34
577.84	689.14
578.19	688.92
578.54	689.03
578.90	688.85
579.25	688.55
579.60	688.17
579.95	687.63
580.30	687.48
580.66	687.39
581.01	686.86
581.36	686.24
581.71	685.81
582.06	685.49
582.42	685.10
582.77	684.61
583.12	684.36
583.47	684.10
583.82	683.90
584.17	683.59
584.53	683.21
584.88	682.87
585.23	682.30
585.58	681.75
585.93	681.00
586.28	680.50
586.63	680.07
586.98	679.62
587.34	679.20
587.69	678.54
588.04	677.86
588.39	677.54
588.74	676.87
589.09	676.39
589.44	675.66
589.79	675.10
590.14	674.62
590.49	673.64
590.84	672.42
591.19	671.72
591.54	670.78
591.89	669.65
592.25	668.65
592.60	667.54
592.95	666.50
593.30	665.41
593.65	664.30
594.00	663.06
594.35	662.84
594.70	661.67
595.05	660.70
595.40	659.68
595.75	658.30
596.10	657.17
596.45	656.06
596.80	655.15
597.15	654.30
597.50	653.08
597.85	652.37
598.19	651.50
598.54	650.39
598.89	649.51
599.24	648.73
599.59	647.74
599.94	647.05
600.29	646.06
600.64	645.08
600.99	643.95
601.34	643.05
601.69	641.07
602.04	639.99
602.39	638.88
602.74	637.88
603.08	637.24
603.43	636.67
603.78	635.68
604.13	634.68
604.48	633.49
604.83	632.71
605.18	631.87
605.53	630.90
605.87	629.76
606.22	628.79
606.57	627.78
606.92	626.63
607.27	625.37
607.62	624.22
607.96	623.22
608.31	622.37
608.66	621.09
609.01	619.78
609.36	618.56
609.70	617.16
610.05	615.68
610.40	614.30
610.75	612.67
611.10	611.43
611.44	609.71
611.79	608.06
612.14	606.40
612.49	604.61
612.83	602.97
613.18	601.30
613.53	599.63
613.88	597.70
614.22	595.93
614.57	594.26
614.92	592.55
615.27	590.71
615.61	588.80
615.96	587.21
616.31	585.85
616.65	584.38
617.00	582.78
617.35	581.21
617.70	579.42
618.04	577.52
618.39	575.40
618.74	573.91
619.08	572.12
619.43	570.37
619.78	568.65
620.12	567.04
620.47	565.47
620.82	563.58
621.16	561.75
621.51	560.22
621.85	558.47
622.20	556.71
622.55	554.92
622.89	553.05
623.24	551.29
623.59	549.22
623.93	547.42
624.28	545.69
624.62	544.15
624.97	542.37
625.32	540.79
625.66	539.20
626.01	537.46
626.35	535.75
626.70	533.89
627.04	532.32
627.39	530.45
627.73	528.71
628.08	527.12
628.43	525.25
628.77	523.37
629.12	521.65
629.46	520.01
629.81	518.42
630.15	516.62
630.50	514.74
630.84	512.98
631.19	511.22
631.53	509.56
631.88	507.38
632.22	505.54
632.57	503.95
632.91	502.17
633.26	500.39
633.60	498.89
633.95	497.28
634.29	495.22
634.64	493.64
634.98	491.65
635.32	489.99
635.67	488.59
636.01	486.88
636.36	484.92
636.70	483.23
637.05	481.56
637.39	480.02
637.73	478.61
638.08	477.36
638.42	475.62
638.77	473.98
639.11	472.47
639.45	470.89
639.80	469.07
640.14	467.49
640.49	465.80
640.83	463.93
641.17	462.21
641.52	460.62
641.86	458.86
642.20	457.40
642.55	455.52
642.89	453.75
643.23	451.96
643.58	450.56
643.92	448.79
644.26	447.04
644.61	445.49
644.95	443.65
645.29	441.68
645.64	439.94
645.98	438.17
646.32	436.51
646.66	434.78
647.01	433.10
647.35	431.50
647.69	429.69
648.04	428.14
648.38	426.52
648.72	424.79
649.06	423.14
649.41	421.51
649.75	419.91
650.09	418.47
650.43	416.90
650.78	415.25
651.12	413.68
651.46	412.08
651.80	410.50
652.14	408.95
652.49	407.40
652.83	405.93
653.17	404.24
653.51	402.69
653.85	401.10
654.20	399.53
654.54	397.80
654.88	396.33
655.22	394.84
655.56	393.24
655.90	391.78
656.25	390.23
656.59	388.60
656.93	387.12
657.27	385.59
657.61	383.95
657.95	382.41
658.29	380.92
658.64	379.50
658.98	377.90
659.32	376.30
659.66	374.88
660.00	373.40
660.34	371.99
660.68	370.41
661.02	368.97
661.36	367.51
661.70	366.10
662.05	364.74
662.39	363.41
662.73	362.23
663.07	361.13
663.41	359.84
663.75	358.39
664.09	357.00
664.43	355.57
664.77	354.35
665.11	353.12
665.45	351.93
665.79	350.64
666.13	349.44
666.47	348.14
666.81	346.81
667.15	345.41
667.49	344.34
667.83	343.34
668.17	342.07
668.51	340.95
668.85	339.86
669.19	338.86
669.53	337.60
669.87	336.31
670.21	334.97
670.55	333.82
670.89	333.04
671.23	332.00
671.57	330.98
671.91	329.97
672.25	328.85
672.58	327.88
672.92	326.87
673.26	325.73
673.60	324.80
673.94	323.82
674.28	322.89
674.62	321.88
674.96	320.81
675.30	320.00
675.64	319.08
675.97	317.99
676.31	317.06
676.65	316.17
676.99	315.38
677.33	314.42
677.67	313.49
678.01	312.28
678.34	311.38
678.68	310.43
679.02	309.48
679.36	308.60
679.70	307.58
680.04	306.63
680.37	305.75
680.71	304.80
681.05	304.05
681.39	303.21
681.73	302.32
682.06	301.45
682.40	300.61
682.74	299.73
683.08	299.07
683.42	298.01
683.75	297.11
684.09	296.11
684.43	295.34
684.77	294.51
685.10	293.80
685.44	292.93
685.78	292.10
686.12	291.35
686.45	290.53
686.79	289.66
687.13	288.92
687.46	288.20
687.80	287.60
688.14	286.74
688.48	286.07
688.81	285.26
689.15	284.51
689.49	283.76
689.82	283.07
690.16	282.17
690.50	281.44
690.83	280.72
691.17	279.99
691.51	279.20
691.84	278.52
692.18	277.78
692.52	277.04
692.85	276.40
693.19	275.81
693.52	275.11
693.86	274.41
694.20	273.70
694.53	273.07
694.87	272.42
695.21	271.75
695.54	271.06
695.88	270.31
696.21	269.68
696.55	269.03
696.88	268.26
697.22	267.66
697.56	267.15
697.89	266.47
698.23	265.94
698.56	265.33
698.90	264.72
699.23	264.08
699.57	263.63
699.90	263.02
700.24	262.32
700.58	261.83
700.91	261.32
701.25	261.05
701.58	260.61
701.92	260.00
702.25	259.44
702.59	258.88
702.92	258.53
703.26	258.01
703.59	257.48
703.93	257.35
704.26	256.92
704.60	256.45
704.93	255.99
705.26	255.44
705.60	255.07
705.93	254.60
706.27	254.27
706.60	253.85
706.94	253.58
707.27	253.15
707.61	252.69
707.94	252.30
708.27	251.55
708.61	251.07
708.94	250.61
709.28	250.28
709.61	249.87
709.94	249.50
710.28	249.17
710.61	248.82
710.95	248.13
711.28	247.93
711.61	247.46
711.95	247.12
712.28	246.79
712.61	246.50
712.95	246.30
713.28	246.09
713.61	245.65
713.95	245.21
714.28	244.85
714.61	244.49
714.95	244.18
715.28	243.85
715.61	243.42
715.95	243.15
716.28	242.81
716.61	242.48
716.95	242.05
717.28	241.72
717.61	241.38
717.94	241.12
718.28	240.63
718.61	240.38
718.94	240.05
719.27	239.74
719.61	239.42
719.94	239.04
720.27	238.59
720.60	238.30
720.94	238.01
721.27	237.81
721.60	237.60
721.93	237.27
722.27	237.16
722.60	236.98
722.93	236.68
723.26	236.52
723.59	236.20
723.93	236.00
724.26	235.71
724.59	235.48
724.92	235.25
725.25	235.08
725.59	234.88
725.92	234.65
726.25	234.47
726.58	234.18
726.91	233.88
727.24	233.68
727.57	233.50
727.91	233.16
728.24	232.92
728.57	232.65
728.90	232.49
729.23	232.17
729.56	232.13
729.89	231.91
730.22	231.57
730.55	231.45
730.89	231.25
731.22	231.06
731.55	230.83
731.88	230.68
732.21	230.44
732.54	230.17
732.87	230.03
733.20	229.87
733.53	229.68
733.86	229.59
734.19	229.34
734.52	229.24
734.85	229.43
735.18	229.19
735.51	229.16
735.84	229.03
736.17	228.95
736.50	228.61
736.83	228.92
737.16	228.83
737.49	228.63
737.82	228.43
738.15	228.32
738.48	228.13
738.81	227.93
739.14	227.70
739.47	227.54
739.80	227.40
740.13	227.25
740.46	227.07
740.79	226.87
741.12	226.77
741.45	226.57
741.78	226.14
742.11	226.10
742.44	225.89
742.77	225.81
743.10	225.62
743.43	225.43
743.75	224.90
744.08	225.18
744.41	225.02
744.74	224.88
745.07	224.68
745.40	224.64
745.73	224.60
746.06	224.58
746.39	224.44
746.71	224.23
747.04	224.03
747.37	223.89
747.70	223.78
748.03	223.67
748.36	223.57
748.68	223.47
749.01	223.30
749.34	223.14
749.67	223.04
750.00	223.01
750.33	223.11
750.65	223.04
750.98	222.48
751.31	222.38
751.64	222.25
751.97	222.35
752.29	222.20
752.62	221.96
752.95	221.78
753.28	221.61
753.60	221.51
753.93	221.52
754.26	221.46
754.59	221.29
754.91	221.14
755.24	221.02
755.57	220.95
755.90	220.80
756.22	220.68
756.55	220.39
756.88	220.16
757.20	219.85
757.53	219.60
757.86	219.46
758.19	219.48
758.51	219.41
758.84	219.11
759.17	219.00
759.49	218.92
759.82	219.00
760.15	219.02
760.47	218.89
760.80	218.70
761.13	218.67
761.45	218.60
761.78	218.50
762.11	218.44
762.43	218.29
762.76	218.22
763.08	218.20
763.41	218.19
763.74	218.14
764.06	218.14
764.39	218.06
764.71	218.04
765.04	217.88
765.37	217.80
765.69	217.65
766.02	217.50
766.34	217.44
766.67	217.25
767.00	217.32
767.32	217.48
767.65	217.63
767.97	217.47
768.30	217.39
768.62	217.32
768.95	217.21
769.27	217.15
769.60	217.08
769.92	216.96
770.25	216.83
770.57	216.79
770.90	216.73
771.22	216.69
771.55	216.65
771.87	216.58
772.20	216.53
772.52	216.86
772.85	217.28
773.17	217.21
773.50	217.08
773.82	216.85
774.15	216.64
774.47	216.35
774.80	216.31
775.12	216.24
775.45	216.18
775.77	216.16
776.09	216.11
776.42	216.13
776.74	216.16
777.07	216.07
777.39	215.99
777.72	215.85
778.04	215.87
778.36	215.76
778.69	215.72
779.01	215.71
779.33	215.35
779.66	214.91
779.98	214.83
780.31	214.87
780.63	214.99
780.95	214.92
781.28	214.89
781.60	214.83
781.92	214.81
782.25	214.77
782.57	214.70
782.89	214.70
783.22	214.58
783.54	214.50
783.86	214.58
784.19	214.59
784.51	214.65
784.83	214.49
785.16	214.46
785.48	214.42
785.80	214.37
786.12	214.42
786.45	214.42
786.77	214.39
787.09	214.35
787.42	214.17
787.74	214.22
788.06	214.18
788.38	214.10
788.71	214.05
789.03	214.06
789.35	214.05
789.67	213.93
789.99	213.96
790.32	213.91
790.64	213.90
790.96	214.09
791.28	213.94
791.61	213.96
791.93	213.97
792.25	214.01
792.57	214.30
792.89	214.18
793.21	214.14
793.54	214.13
793.86	214.05
794.18	214.08
794.50	213.91
794.82	213.90
795.14	213.96
795.47	213.97
795.79	213.98
796.11	213.91
796.43	213.90
796.75	213.88
797.07	213.83
797.39	213.81
797.71	213.49
798.04	213.51
798.36	213.52
798.68	213.47
799.00	213.45
799.32	213.18
799.64	213.18
799.96	213.17
800.28	213.18
800.60	213.16
800.92	213.13
801.24	213.15
801.56	213.15
801.89	213.13
802.21	213.14
802.53	213.04
802.85	213.14
803.17	213.31
803.49	213.18
803.81	213.23
804.13	213.15
804.45	213.15
804.77	213.13
805.09	213.07
805.41	213.05
805.73	212.92
806.05	212.75
806.37	212.76
806.69	212.64
807.01	212.61
807.33	212.57
807.65	212.50
807.97	212.72
808.28	212.66
808.60	212.65
808.92	212.62
809.24	212.82
809.56	212.73
809.88	212.60
810.20	212.68
810.52	212.70
810.84	212.63
811.16	212.60
811.48	212.64
811.80	212.74
812.12	212.68
812.43	212.75
812.75	212.78
813.07	212.68
813.39	212.74
813.71	212.72
814.03	212.73
814.35	212.67
814.67	212.44
814.98	212.34
815.30	212.30
815.62	212.20
815.94	211.99
816.26	211.97
816.58	211.83
816.89	211.84
817.21	211.75
817.53	211.80
817.85	211.82
818.17	211.76
818.48	211.64
818.80	211.73
819.12	211.70
819.44	211.71
819.76	211.68
820.07	211.70
820.39	211.68
820.71	211.67
821.03	211.71
821.34	211.67
821.66	211.80
821.98	211.82
822.30	211.74
822.61	211.92
822.93	211.90
823.25	211.83
823.57	211.72
823.88	211.77
824.20	211.74
824.52	211.76
824.83	211.84
825.15	211.84
825.47	211.77
825.79	211.84
826.10	211.77
826.42	211.80
826.74	211.88
827.05	211.87
827.37	211.87
827.69	211.82
828.00	211.81
828.32	211.82
828.64	211.77
828.95	212.05
829.27	211.96
829.58	211.95
829.90	212.10
830.22	212.14
830.53	212.00
830.85	212.02
831.17	211.89
831.48	211.82
831.80	211.85
832.11	211.87
832.43	211.74
832.75	211.71
833.06	211.90
833.38	211.73
833.69	211.71
834.01	211.72
834.32	211.68
834.64	211.68
834.96	211.65
835.27	211.67
835.59	211.51
835.90	211.44
836.22	211.42
836.53	211.35
836.85	211.30
837.16	211.69
837.48	211.65
837.79	211.74
838.11	211.74
838.42	211.67
838.74	211.71
839.05	211.66
839.37	211.65
839.68	211.42
840.00	211.41
840.31	211.43
840.63	211.40
840.94	211.44
841.26	211.37
841.57	211.32
841.88	211.30
842.20	211.22
842.51	211.20
842.83	211.30
843.14	211.57
843.46	211.65
843.77	211.43
844.08	211.39
844.40	211.37
844.71	211.30
845.03	211.22
845.34	211.14
845.65	211.16
845.97	211.16
846.28	211.15
846.60	211.11
846.91	211.10
847.22	211.08
847.54	211.16
847.85	211.24
848.16	211.32
848.48	211.26
848.79	211.46
849.10	211.47
849.42	211.40
849.73	211.14
850.04	211.05
850.36	210.93
850.67	211.04
850.98	211.02
851.30	211.07
851.61	211.19
851.92	211.24
852.23	211.38
852.55	211.43
852.86	211.52
853.17	211.63
853.49	211.63
853.80	211.66
854.11	211.69
854.42	211.73
854.74	211.57
855.05	211.63
855.36	211.40
855.67	211.37
855.99	211.37
856.30	211.73
856.61	211.71
856.92	211.72
857.23	211.71
857.55	211.70
857.86	211.68
858.17	211.72
858.48	211.65
858.79	211.49
859.11	211.55
859.42	211.46
859.73	211.40
860.04	211.37
860.35	211.30
860.66	211.18
860.98	211.17
861.29	211.29
861.60	211.35
861.91	211.49
862.22	211.45
862.53	211.40
862.84	211.04
863.16	211.17
863.47	211.12
863.78	211.02
864.09	211.03
864.40	211.04
864.71	210.96
865.02	211.00
865.33	210.99
865.64	210.92
865.95	211.00
866.27	211.21
866.58	211.17
866.89	211.16
867.20	211.17
867.51	211.12
867.82	211.12
868.13	211.13
868.44	211.01
868.75	211.11
869.06	211.11
869.37	211.13
869.68	211.03
869.99	211.12
870.30	211.17
870.61	211.18
870.92	211.10
871.23	211.14
871.54	211.20
871.85	211.29
872.16	211.30
872.47	211.20
872.78	211.08
873.09	211.16
873.40	211.20
873.71	211.25
874.02	211.26
874.33	211.25
874.64	211.22
874.95	211.33
875.26	211.24
875.56	211.32
875.87	211.34
876.18	211.34
876.49	211.64
876.80	211.63
877.11	211.57
877.42	211.64
877.73	211.65
878.04	211.54
878.35	211.58
878.66	211.59
878.96	211.61
879.27	211.56
879.58	211.57
879.89	211.47
880.20	211.55
880.51	211.50
880.82	211.44
881.12	211.42
881.43	211.35
881.74	211.28
882.05	211.27
882.36	211.28
882.67	211.29
882.97	210.92
883.28	210.89
883.59	210.93
883.90	211.00
884.21	211.01
884.51	211.02
884.82	210.91
885.13	210.93
885.44	210.94
885.74	210.88
886.05	210.77
886.36	210.85
886.67	210.70
886.98	210.82
887.28	210.86
887.59	210.78
887.90	210.80
888.20	210.87
888.51	210.86
888.82	210.76
889.13	210.74
889.43	211.09
889.74	211.09
890.05	211.09
890.35	210.99
890.66	210.95
890.97	210.91
891.28	210.92
891.58	210.87
891.89	210.93
892.20	210.89
892.50	210.90
892.81	210.88
893.12	210.98
893.42	210.90
893.73	210.92
894.04	211.04
894.34	211.05
894.65	211.03
894.95	210.99
895.26	211.09
895.57	211.30
895.87	210.92
896.18	211.01
896.48	211.04
896.79	211.08
897.10	211.14
897.40	211.24
897.71	211.28
898.01	211.34
898.32	211.38
898.63	211.46
898.93	211.54
899.24	211.59
899.54	211.57
899.85	211.64
900.15	211.72
900.46	211.64
900.76	211.73
901.07	211.78
901.38	211.83
901.68	211.82
901.99	211.60
902.29	211.68
902.60	211.65
902.90	211.59
903.21	211.56
903.51	211.51
903.82	211.56
904.12	211.65
904.43	211.61
904.73	211.55
905.03	211.58
905.34	211.91
905.64	211.88
905.95	211.86
906.25	211.82
906.56	211.72
906.86	211.78
907.17	211.73
907.47	211.74
907.77	211.70
908.08	211.65
908.38	211.74
908.69	211.74
908.99	211.80
909.30	211.76
909.60	211.75
909.90	211.73
910.21	211.62
910.51	211.47
910.81	211.56
911.12	211.56
911.42	211.50
911.73	211.10
912.03	211.13
912.33	211.21
912.64	211.18
912.94	211.17
913.24	211.12
913.55	211.01
913.85	210.93
914.15	210.97
914.46	210.95
914.76	210.88
915.06	210.87
915.37	210.91
915.67	210.96
915.97	210.93
916.27	210.86
916.58	210.91
916.88	210.90
917.18	210.75
917.49	211.01
917.79	211.03
918.09	211.13
918.39	211.22
918.70	211.15
919.00	211.14
919.30	211.33
919.60	211.25
919.91	211.33
920.21	211.40
920.51	211.34
920.81	211.39
921.12	211.40
921.42	211.41
921.72	211.31
922.02	211.36
922.32	211.44
922.63	211.47
922.93	211.65
923.23	211.75
923.53	211.78
923.83	211.59
924.13	211.54
924.44	211.49
924.74	211.51
925.04	211.56
925.34	211.53
925.64	211.32
925.94	211.31
926.24	211.40
926.55	211.32
926.85	211.33
927.15	211.27
927.45	211.33
927.75	211.35
928.05	211.39
928.35	211.31
928.65	211.35
928.95	211.41
929.26	211.28
929.56	211.27
929.86	211.30
930.16	211.23
930.46	211.30
930.76	211.34
931.06	211.23
931.36	211.16
931.66	211.24
931.96	211.32
932.26	211.39
932.56	211.28
932.86	211.35
933.16	211.35
933.46	211.33
933.76	211.28
934.06	211.30
934.36	211.40
934.66	211.42
934.96	211.40
935.26	211.30
935.56	211.33
935.86	211.32
936.16	211.29
936.46	211.26
936.76	211.21
937.06	211.15
937.36	211.15
937.66	211.16
937.96	211.11
938.26	211.07
938.56	211.09
938.86	211.06
939.16	211.12
939.46	211.15
939.76	211.24
940.06	211.20
940.35	211.15
940.65	210.96
940.95	210.97
941.25	210.86
941.55	210.92
941.85	210.88
942.15	210.90
942.45	210.95
942.75	210.96
943.04	210.98
943.34	211.09
943.64	211.10
943.94	211.06
944.24	211.16
944.54	211.19
944.84	211.14
945.13	211.10
945.43	211.09
945.73	211.09
946.03	210.97
946.33	210.98
946.62	210.92
946.92	210.92
947.22	210.99
947.52	210.99
947.82	211.09
948.11	211.02
948.41	210.89
948.71	210.79
949.01	210.81
949.31	210.81
949.60	210.71
949.90	210.72
950.20	210.65
950.50	210.57
950.79	210.51
951.09	210.55
951.39	210.60
951.69	210.53
951.98	210.58
952.28	210.68
952.58	210.70
952.87	210.74
953.17	210.78
953.47	210.72
953.76	210.78
954.06	210.69
954.36	210.65
954.66	210.73
954.95	210.86
955.25	210.85
955.55	210.88
955.84	210.80
956.14	210.81
956.44	210.84
956.73	210.84
957.03	210.78
957.32	210.79
957.62	210.80
957.92	210.83
958.21	210.77
958.51	211.16
958.81	211.23
959.10	211.28
959.40	211.38
959.69	211.41
959.99	211.44
960.29	211.42
960.58	211.45
960.88	211.59
961.17	211.53
961.47	211.60
961.76	211.51
962.06	211.63
962.36	211.56
962.65	211.60
962.95	211.55
963.24	211.59
963.54	211.51
963.83	211.54
964.13	211.54
964.42	211.46
964.72	211.08
965.01	211.07
965.31	211.00
965.60	210.86
965.90	211.07
966.19	210.99
966.49	211.02
966.78	210.98
967.08	210.89
967.37	210.97
967.67	210.89
967.96	210.99
968.26	210.93
968.55	211.00
968.85	211.01
969.14	211.05
969.43	211.07
969.73	211.19
970.02	211.11
970.32	211.10
970.61	211.12
970.91	211.04
971.20	210.98
971.49	210.95
971.79	211.02
972.08	210.73
972.38	210.79
972.67	210.77
972.96	210.79
973.26	210.73
973.55	210.74
973.85	210.70
974.14	210.68
974.43	210.76
974.73	210.75
975.02	210.80
975.31	210.75
975.61	210.74
975.90	210.63
976.19	210.61
976.49	210.60
976.78	210.65
977.07	210.71
977.37	210.66
977.66	210.74
977.95	210.74
978.24	210.78
978.54	210.86
978.83	210.79
979.12	210.87
979.42	210.88
979.71	210.80
980.00	210.83
980.29	210.85
980.59	210.75
980.88	210.77
981.17	210.73
981.46	210.76
981.76	210.70
982.05	210.84
982.34	210.84
982.63	210.86
982.93	210.89
983.22	210.94
983.51	210.95
983.80	211.03
984.09	210.95
984.39	210.92
984.68	210.85
984.97	210.89
985.26	210.79
985.55	210.82
985.85	210.79
986.14	210.82
986.43	210.85
986.72	210.81
987.01	210.76
987.30	210.75
987.59	210.78
987.89	210.88
988.18	210.73
988.47	210.73
988.76	210.68
989.05	210.66
989.34	210.64
989.63	210.76
989.92	210.57
990.22	210.67
990.51	210.65
990.80	210.64
991.09	210.71
991.38	210.78
991.67	210.77
991.96	210.78
992.25	210.78
992.54	210.64
992.83	210.69
993.12	210.64
993.41	210.67
993.70	210.69
993.99	210.74
994.28	210.83
994.58	210.88
994.87	210.85
995.16	210.75
995.45	210.69
995.74	210.61
996.03	210.68
996.32	210.70
996.61	210.77
996.90	210.75
997.19	210.74
997.48	210.71
997.77	210.71
998.06	210.68
998.34	210.70
998.63	210.77
998.92	210.76
999.21	210.83
999.50	210.85
999.79	210.75
1000.08	210.70
1000.37	210.72
1000.66	210.71
1000.95	210.83
1001.24	210.88
1001.53	210.98
1001.82	210.93
1002.11	210.95
1002.40	211.00
1002.68	211.14
1002.97	211.34
1003.26	211.32
1003.55	211.31
1003.84	211.24
1004.13	211.34
1004.42	211.36
1004.71	211.35
1004.99	211.31
1005.28	211.33
1005.57	211.29
1005.86	211.34
1006.15	211.34
1006.44	211.28
1006.72	211.30
1007.01	211.26
1007.30	211.33
1007.59	211.25
1007.88	211.24
1008.17	211.17
1008.45	211.09
1008.74	210.91
1009.03	210.82
1009.32	210.77
1009.60	210.78
1009.89	210.79
1010.18	210.69
1010.47	210.60
1010.76	210.63
1011.04	210.65
1011.33	210.75
1011.62	210.79
1011.91	210.78
1012.19	210.80
1012.48	210.80
1012.77	210.78
1013.05	210.89
1013.34	210.84
1013.63	210.84
1013.92	210.85
1014.20	210.82
1014.49	210.82
1014.78	210.86
1015.06	210.75
1015.35	210.78
1015.64	210.80
1015.92	210.84
1016.21	210.87
1016.50	210.88
1016.78	210.95
1017.07	210.96
1017.36	210.85
1017.64	210.77
1017.93	210.76
1018.22	210.74
1018.50	210.75
1018.79	210.77
1019.08	210.62
1019.36	210.62
1019.65	210.61
1019.93	210.74
1020.22	210.88
1020.51	211.01
1020.79	210.92
1021.08	211.05
1021.36	210.45
1021.65	211.00
1021.94	210.35
1022.22	211.05
1022.51	210.05
1022.79	212.65
1023.08	211.75
1023.36	214.05
1023.65	209.70
>>>>>End Processed Spectral Data<<<<<
