SpectraSuite Data File
++++++++++++++++++++++++++++++++++++
Date: Mon Feb 25 17:12:26 EST 2013
User: group
Dark Spectrum Present: No
Reference Spectrum Present: No
Number of Sampled Component Spectra: 1
Spectrometers: USB2E7196
Integration Time (usec): 104000 (USB2E7196)
Spectra Averaged: 20 (USB2E7196)
Boxcar Smoothing: 10 (USB2E7196)
Correct for Electrical Dark: No (USB2E7196)
Strobe/Lamp Enabled: No (USB2E7196)
Correct for Detector Non-linearity: No (USB2E7196)
Correct for Stray Light: No (USB2E7196)
Number of Pixels in Processed Spectrum: 2048
>>>>>Begin Processed Spectral Data<<<<<
339.09	0.00
339.48	199.15
339.86	199.10
340.24	202.10
340.63	202.20
341.01	209.85
341.39	205.30
341.78	207.90
342.16	208.85
342.54	209.50
342.93	198.34
343.31	208.29
343.69	208.83
344.07	209.35
344.46	209.79
344.84	210.25
345.22	210.31
345.60	210.63
345.99	210.75
346.37	210.81
346.75	210.89
347.13	210.98
347.52	211.04
347.90	211.22
348.28	211.21
348.66	211.22
349.05	211.12
349.43	211.18
349.81	211.26
350.19	211.31
350.57	211.37
350.96	211.42
351.34	211.59
351.72	211.72
352.10	211.78
352.48	211.81
352.87	211.85
353.25	211.88
353.63	211.81
354.01	211.88
354.39	212.03
354.77	212.10
355.15	212.26
355.54	212.26
355.92	212.27
356.30	212.42
356.68	212.74
357.06	212.86
357.44	212.87
357.82	212.99
358.20	213.07
358.58	213.13
358.97	213.19
359.35	213.29
359.73	213.37
360.11	213.45
360.49	213.49
360.87	213.54
361.25	213.57
361.63	213.80
362.01	213.88
362.39	213.88
362.77	213.93
363.15	213.94
363.53	214.05
363.91	214.07
364.29	214.05
364.67	213.81
365.05	213.83
365.43	213.89
365.81	213.85
366.19	214.09
366.57	214.20
366.95	214.16
367.33	214.14
367.71	214.10
368.09	214.17
368.47	214.20
368.85	214.18
369.23	214.25
369.61	214.13
369.99	214.22
370.37	214.28
370.75	214.40
371.13	214.28
371.51	214.17
371.89	214.20
372.27	214.21
372.65	214.13
373.03	214.07
373.41	213.98
373.78	213.92
374.16	213.61
374.54	213.49
374.92	213.46
375.30	213.33
375.68	213.19
376.06	213.19
376.44	213.15
376.82	213.12
377.19	213.10
377.57	213.02
377.95	212.79
378.33	212.72
378.71	212.47
379.09	212.45
379.47	212.49
379.84	212.41
380.22	212.29
380.60	212.17
380.98	212.07
381.36	211.95
381.73	211.89
382.11	211.91
382.49	211.85
382.87	211.75
383.25	211.74
383.62	212.06
384.00	211.87
384.38	211.83
384.76	211.81
385.13	211.89
385.51	211.82
385.89	211.77
386.27	211.68
386.64	211.69
387.02	211.66
387.40	211.48
387.78	211.40
388.15	211.40
388.53	211.36
388.91	211.37
389.29	211.38
389.66	211.42
390.04	211.33
390.42	211.33
390.79	211.30
391.17	211.29
391.55	210.93
391.92	210.89
392.30	210.84
392.68	210.82
393.05	210.79
393.43	210.81
393.81	210.85
394.18	210.80
394.56	210.77
394.94	210.83
395.31	210.90
395.69	210.97
396.06	211.03
396.44	211.05
396.82	211.02
397.19	211.15
397.57	211.05
397.95	211.18
398.32	211.10
398.70	211.13
399.07	211.24
399.45	211.27
399.82	211.32
400.20	211.24
400.58	211.14
400.95	211.03
401.33	211.16
401.70	211.45
402.08	211.44
402.45	211.47
402.83	211.53
403.20	211.52
403.58	211.49
403.95	211.53
404.33	211.64
404.71	211.74
405.08	212.02
405.46	212.18
405.83	212.26
406.21	212.33
406.58	212.47
406.96	212.52
407.33	212.61
407.70	212.74
408.08	213.20
408.45	213.37
408.83	213.63
409.20	213.70
409.58	213.65
409.95	213.96
410.33	214.16
410.70	214.28
411.08	214.65
411.45	214.95
411.82	215.20
412.20	215.54
412.57	215.95
412.95	215.91
413.32	216.21
413.69	216.57
414.07	217.08
414.44	217.48
414.82	217.96
415.19	218.60
415.56	219.25
415.94	219.63
416.31	220.33
416.68	220.82
417.06	221.53
417.43	222.30
417.81	223.05
418.18	223.93
418.55	224.82
418.93	225.71
419.30	226.69
419.67	227.73
420.04	228.72
420.42	229.78
420.79	231.39
421.16	232.62
421.54	234.12
421.91	235.42
422.28	236.83
422.66	238.29
423.03	239.85
423.40	241.27
423.77	242.91
424.15	244.48
424.52	246.27
424.89	248.24
425.26	249.99
425.64	251.79
426.01	253.56
426.38	255.59
426.75	257.61
427.13	259.67
427.50	261.87
427.87	264.13
428.24	266.38
428.61	268.23
428.99	270.78
429.36	273.22
429.73	275.72
430.10	278.34
430.47	280.94
430.85	283.45
431.22	286.27
431.59	289.46
431.96	292.34
432.33	295.50
432.70	298.54
433.08	302.08
433.45	305.35
433.82	308.76
434.19	312.46
434.56	316.18
434.93	319.65
435.30	323.05
435.68	326.86
436.05	330.63
436.42	334.41
436.79	337.87
437.16	341.56
437.53	345.44
437.90	349.18
438.27	353.04
438.64	356.90
439.01	360.57
439.38	363.63
439.75	366.83
440.13	370.41
440.50	373.73
440.87	376.51
441.24	379.37
441.61	382.56
441.98	384.82
442.35	387.38
442.72	390.14
443.09	393.00
443.46	394.60
443.83	395.67
444.20	396.53
444.57	397.79
444.94	398.39
445.31	399.05
445.68	400.06
446.05	400.21
446.42	399.90
446.79	399.49
447.16	398.99
447.53	398.60
447.90	397.17
448.27	395.74
448.64	393.70
449.01	392.23
449.37	389.76
449.74	387.24
450.11	384.53
450.48	381.15
450.85	377.54
451.22	374.67
451.59	371.95
451.96	369.42
452.33	365.92
452.70	362.72
453.07	358.95
453.43	354.81
453.80	351.20
454.17	347.72
454.54	344.29
454.91	340.60
455.28	337.16
455.65	333.82
456.02	331.06
456.38	328.29
456.75	324.91
457.12	321.96
457.49	319.18
457.86	316.22
458.23	314.13
458.59	311.61
458.96	309.07
459.33	306.79
459.70	304.52
460.07	302.73
460.43	300.67
460.80	298.83
461.17	297.09
461.54	295.26
461.91	293.42
462.27	291.79
462.64	290.38
463.01	288.74
463.38	287.31
463.74	285.17
464.11	283.77
464.48	282.62
464.85	281.23
465.21	280.34
465.58	279.30
465.95	277.82
466.32	276.79
466.68	275.68
467.05	274.60
467.42	273.48
467.78	272.39
468.15	271.27
468.52	270.51
468.88	269.44
469.25	268.47
469.62	267.79
469.98	267.00
470.35	266.34
470.72	265.59
471.08	264.71
471.45	264.24
471.82	263.68
472.18	262.99
472.55	262.57
472.92	261.93
473.28	261.36
473.65	260.90
474.02	260.45
474.38	260.11
474.75	259.88
475.11	259.60
475.48	259.39
475.85	259.15
476.21	258.90
476.58	258.89
476.94	258.91
477.31	258.78
477.67	258.67
478.04	258.58
478.41	258.55
478.77	258.96
479.14	258.85
479.50	258.97
479.87	259.08
480.23	259.20
480.60	259.24
480.96	259.50
481.33	259.86
481.69	260.13
482.06	260.41
482.42	260.61
482.79	260.95
483.15	261.24
483.52	261.82
483.88	262.23
484.25	262.63
484.61	263.06
484.98	263.64
485.34	264.36
485.71	265.07
486.07	265.82
486.44	266.17
486.80	266.91
487.17	267.72
487.53	268.75
487.90	269.74
488.26	271.00
488.62	272.07
488.99	273.10
489.35	274.30
489.72	275.60
490.08	276.95
490.44	278.27
490.81	279.82
491.17	281.25
491.54	282.88
491.90	284.59
492.26	286.50
492.63	288.37
492.99	290.25
493.36	292.32
493.72	294.57
494.08	296.82
494.45	299.24
494.81	301.76
495.17	304.24
495.54	306.88
495.90	309.55
496.26	312.43
496.63	315.48
496.99	318.60
497.35	321.89
497.72	325.36
498.08	328.87
498.44	332.45
498.80	336.39
499.17	340.24
499.53	344.32
499.89	348.43
500.26	352.73
500.62	357.08
500.98	361.71
501.34	366.45
501.71	371.51
502.07	376.69
502.43	381.85
502.79	387.02
503.16	392.61
503.52	398.21
503.88	403.95
504.24	409.86
504.60	416.06
504.97	422.28
505.33	428.62
505.69	435.42
506.05	442.30
506.41	449.26
506.78	456.25
507.14	463.31
507.50	470.74
507.86	478.25
508.22	486.11
508.59	493.80
508.95	501.77
509.31	509.94
509.67	518.15
510.03	526.60
510.39	535.36
510.75	544.12
511.12	552.96
511.48	562.03
511.84	571.32
512.20	580.55
512.56	590.15
512.92	599.87
513.28	609.43
513.64	619.14
514.00	629.03
514.37	639.26
514.73	649.57
515.09	659.93
515.45	670.52
515.81	680.85
516.17	691.29
516.53	702.03
516.89	712.60
517.25	723.32
517.61	734.15
517.97	745.11
518.33	756.02
518.69	767.08
519.05	778.26
519.41	789.48
519.77	801.03
520.13	812.20
520.49	823.32
520.85	834.84
521.21	846.37
521.57	857.87
521.93	869.10
522.29	880.62
522.65	892.10
523.01	903.28
523.37	914.38
523.73	926.09
524.09	937.42
524.45	948.90
524.81	960.31
525.17	972.09
525.53	983.50
525.89	994.82
526.25	1006.37
526.61	1017.37
526.97	1028.60
527.33	1039.56
527.68	1051.12
528.04	1062.08
528.40	1072.81
528.76	1083.62
529.12	1094.48
529.48	1105.87
529.84	1116.83
530.20	1127.81
530.56	1138.91
530.91	1150.51
531.27	1161.46
531.63	1172.14
531.99	1182.79
532.35	1193.16
532.71	1203.13
533.07	1213.73
533.42	1224.04
533.78	1234.36
534.14	1244.49
534.50	1253.71
534.86	1263.54
535.21	1272.39
535.57	1282.17
535.93	1291.47
536.29	1300.73
536.65	1310.00
537.00	1318.15
537.36	1326.43
537.72	1334.41
538.08	1342.58
538.44	1350.42
538.79	1358.41
539.15	1366.43
539.51	1374.35
539.87	1382.52
540.22	1390.35
540.58	1398.05
540.94	1405.53
541.29	1411.96
541.65	1418.56
542.01	1425.70
542.37	1432.20
542.72	1439.05
543.08	1445.02
543.44	1451.50
543.79	1457.02
544.15	1462.45
544.51	1468.65
544.87	1474.77
545.22	1480.26
545.58	1485.19
545.94	1489.75
546.29	1494.15
546.65	1497.94
547.01	1501.81
547.36	1505.76
547.72	1509.36
548.07	1512.50
548.43	1515.38
548.79	1518.51
549.14	1521.35
549.50	1524.15
549.86	1526.25
550.21	1528.36
550.57	1530.86
550.92	1532.67
551.28	1534.77
551.64	1536.51
551.99	1538.44
552.35	1539.60
552.70	1541.02
553.06	1542.83
553.41	1544.30
553.77	1545.35
554.13	1546.66
554.48	1547.90
554.84	1548.91
555.19	1549.55
555.55	1550.16
555.90	1550.46
556.26	1550.82
556.61	1551.25
556.97	1551.07
557.32	1551.56
557.68	1551.29
558.03	1550.86
558.39	1550.60
558.74	1550.83
559.10	1550.96
559.45	1550.43
559.81	1550.29
560.16	1549.38
560.52	1548.59
560.87	1547.89
561.23	1546.65
561.58	1546.19
561.94	1544.60
562.29	1542.70
562.64	1541.67
563.00	1540.08
563.35	1539.48
563.71	1539.06
564.06	1538.19
564.42	1537.39
564.77	1536.38
565.12	1535.62
565.48	1534.97
565.83	1533.85
566.19	1532.48
566.54	1530.35
566.89	1528.27
567.25	1526.59
567.60	1525.51
567.96	1523.56
568.31	1521.87
568.66	1520.34
569.02	1517.64
569.37	1515.23
569.72	1513.44
570.08	1510.80
570.43	1508.37
570.78	1505.35
571.14	1501.89
571.49	1498.83
571.84	1496.30
572.20	1492.69
572.55	1489.61
572.90	1485.81
573.26	1482.30
573.61	1478.66
573.96	1475.29
574.31	1471.89
574.67	1467.33
575.02	1462.65
575.37	1458.42
575.72	1453.77
576.08	1449.80
576.43	1445.76
576.78	1441.84
577.13	1437.96
577.49	1434.21
577.84	1430.27
578.19	1426.57
578.54	1423.33
578.90	1419.89
579.25	1415.59
579.60	1411.47
579.95	1406.96
580.30	1403.34
580.66	1399.40
581.01	1395.13
581.36	1390.55
581.71	1386.16
582.06	1382.62
582.42	1379.05
582.77	1374.65
583.12	1370.55
583.47	1366.50
583.82	1362.70
584.17	1358.78
584.53	1354.73
584.88	1350.80
585.23	1346.83
585.58	1342.58
585.93	1338.00
586.28	1333.83
586.63	1329.65
586.98	1325.83
587.34	1322.25
587.69	1317.89
588.04	1313.80
588.39	1309.85
588.74	1305.68
589.09	1302.18
589.44	1297.70
589.79	1293.83
590.14	1290.46
590.49	1286.55
590.84	1282.62
591.19	1278.95
591.54	1274.95
591.89	1270.31
592.25	1266.06
592.60	1261.57
592.95	1257.13
593.30	1252.43
593.65	1247.48
594.00	1242.96
594.35	1239.92
594.70	1235.44
595.05	1231.31
595.40	1227.04
595.75	1222.47
596.10	1218.65
596.45	1214.49
596.80	1210.83
597.15	1206.64
597.50	1202.17
597.85	1198.19
598.19	1193.87
598.54	1189.75
598.89	1186.16
599.24	1182.96
599.59	1178.96
599.94	1175.73
600.29	1172.12
600.64	1168.63
600.99	1164.75
601.34	1161.17
601.69	1155.96
602.04	1151.84
602.39	1148.05
602.74	1144.35
603.08	1141.14
603.43	1138.07
603.78	1134.01
604.13	1130.25
604.48	1126.48
604.83	1123.53
605.18	1120.54
605.53	1116.92
605.87	1112.94
606.22	1109.36
606.57	1105.55
606.92	1101.71
607.27	1097.56
607.62	1093.70
607.96	1090.01
608.31	1086.65
608.66	1082.63
609.01	1078.84
609.36	1074.98
609.70	1070.65
610.05	1066.31
610.40	1061.99
610.75	1057.53
611.10	1053.54
611.44	1048.79
611.79	1044.29
612.14	1039.37
612.49	1034.21
612.83	1029.83
613.18	1025.21
613.53	1020.37
613.88	1015.11
614.22	1010.69
614.57	1005.87
614.92	1001.30
615.27	996.53
615.61	991.84
615.96	987.46
616.31	983.13
616.65	979.02
617.00	974.78
617.35	970.43
617.70	965.85
618.04	960.90
618.39	955.79
618.74	951.54
619.08	947.01
619.43	942.27
619.78	937.84
620.12	933.19
620.47	928.93
620.82	924.12
621.16	919.52
621.51	914.85
621.85	910.43
622.20	905.53
622.55	900.79
622.89	896.04
623.24	891.46
623.59	886.63
623.93	882.01
624.28	877.40
624.62	873.31
624.97	868.86
625.32	864.78
625.66	860.72
626.01	856.51
626.35	852.27
626.70	848.28
627.04	844.47
627.39	840.26
627.73	836.19
628.08	832.39
628.43	828.08
628.77	823.75
629.12	819.67
629.46	816.12
629.81	812.38
630.15	808.52
630.50	804.32
630.84	800.15
631.19	795.99
631.53	791.94
631.88	787.35
632.22	783.06
632.57	779.17
632.91	775.18
633.26	771.05
633.60	767.04
633.95	763.18
634.29	758.94
634.64	755.21
634.98	750.85
635.32	746.92
635.67	743.58
636.01	739.94
636.36	736.12
636.70	732.18
637.05	728.36
637.39	724.88
637.73	721.46
638.08	718.53
638.42	715.22
638.77	711.77
639.11	708.36
639.45	704.84
639.80	700.85
640.14	697.10
640.49	693.37
640.83	689.69
641.17	686.06
641.52	682.54
641.86	678.82
642.20	675.48
642.55	671.68
642.89	667.93
643.23	664.19
643.58	660.80
643.92	657.13
644.26	653.70
644.61	649.82
644.95	646.04
645.29	642.03
645.64	638.25
645.98	634.65
646.32	631.12
646.66	627.69
647.01	624.31
647.35	620.95
647.69	617.48
648.04	614.12
648.38	610.50
648.72	606.98
649.06	603.34
649.41	599.85
649.75	596.47
650.09	593.20
650.43	589.89
650.78	586.19
651.12	582.86
651.46	579.25
651.80	575.97
652.14	572.69
652.49	569.54
652.83	566.15
653.17	562.62
653.51	559.14
653.85	555.89
654.20	552.64
654.54	549.33
654.88	546.05
655.22	542.81
655.56	539.48
655.90	536.24
656.25	533.10
656.59	529.97
656.93	526.91
657.27	523.83
657.61	520.48
657.95	517.45
658.29	514.34
658.64	511.64
658.98	508.56
659.32	505.30
659.66	502.29
660.00	499.25
660.34	496.27
660.68	493.25
661.02	490.24
661.36	487.45
661.70	484.70
662.05	481.88
662.39	479.29
662.73	476.87
663.07	474.33
663.41	471.74
663.75	469.05
664.09	466.22
664.43	463.44
664.77	461.06
665.11	458.46
665.45	456.00
665.79	453.32
666.13	450.96
666.47	448.75
666.81	446.32
667.15	443.88
667.49	441.75
667.83	439.70
668.17	437.46
668.51	435.12
668.85	432.81
669.19	430.88
669.53	428.59
669.87	426.18
670.21	423.81
670.55	421.67
670.89	419.76
671.23	417.99
671.57	416.02
671.91	413.99
672.25	412.08
672.58	410.06
672.92	408.05
673.26	406.14
673.60	404.24
673.94	402.22
674.28	400.36
674.62	398.49
674.96	396.64
675.30	394.80
675.64	393.11
675.97	391.39
676.31	389.61
676.65	387.78
676.99	386.25
677.33	384.55
677.67	382.76
678.01	380.89
678.34	379.02
678.68	377.45
679.02	375.70
679.36	373.98
679.70	372.34
680.04	370.68
680.37	368.93
680.71	367.23
681.05	365.71
681.39	364.09
681.73	362.53
682.06	361.02
682.40	359.54
682.74	357.85
683.08	356.43
683.42	354.77
683.75	353.28
684.09	351.62
684.43	350.20
684.77	348.65
685.10	347.20
685.44	345.65
685.78	343.99
686.12	342.70
686.45	341.35
686.79	339.91
687.13	338.68
687.46	337.45
687.80	336.22
688.14	334.82
688.48	333.53
688.81	332.11
689.15	330.70
689.49	329.31
689.82	328.04
690.16	326.50
690.50	325.27
690.83	323.95
691.17	322.61
691.51	321.23
691.84	320.20
692.18	318.93
692.52	317.86
692.85	316.84
693.19	315.72
693.52	314.55
693.86	313.28
694.20	312.04
694.53	310.92
694.87	309.74
695.21	308.63
695.54	307.45
695.88	306.22
696.21	305.06
696.55	303.99
696.88	302.92
697.22	301.86
697.56	300.83
697.89	299.83
698.23	298.90
698.56	297.93
698.90	296.96
699.23	295.93
699.57	294.95
699.90	293.82
700.24	292.78
700.58	291.78
700.91	290.95
701.25	290.23
701.58	289.28
701.92	288.41
702.25	287.54
702.59	286.68
702.92	285.89
703.26	285.03
703.59	284.24
703.93	283.72
704.26	283.00
704.60	282.10
704.93	281.33
705.26	280.45
705.60	279.71
705.93	278.80
706.27	278.19
706.60	277.53
706.94	276.97
707.27	276.13
707.61	275.45
707.94	274.74
708.27	273.74
708.61	272.93
708.94	272.15
709.28	271.42
709.61	270.79
709.94	270.18
710.28	269.60
710.61	268.97
710.95	267.93
711.28	267.40
711.61	266.77
711.95	266.17
712.28	265.60
712.61	264.96
712.95	264.55
713.28	263.98
713.61	263.20
713.95	262.57
714.28	262.07
714.61	261.43
714.95	260.88
715.28	260.24
715.61	259.70
715.95	259.12
716.28	258.59
716.61	258.06
716.95	257.45
717.28	256.87
717.61	256.31
717.94	255.87
718.28	255.21
718.61	254.72
718.94	254.21
719.27	253.69
719.61	253.25
719.94	252.66
720.27	252.01
720.60	251.66
720.94	251.10
721.27	250.68
721.60	250.25
721.93	249.71
722.27	249.46
722.60	249.05
722.93	248.69
723.26	248.32
723.59	247.89
723.93	247.52
724.26	247.15
724.59	246.77
724.92	246.40
725.25	246.10
725.59	245.76
725.92	245.39
726.25	245.07
726.58	244.73
726.91	244.40
727.24	244.14
727.57	243.67
727.91	243.33
728.24	242.95
728.57	242.67
728.90	242.44
729.23	242.06
729.56	241.85
729.89	241.53
730.22	241.27
730.55	240.85
730.89	240.62
731.22	240.26
731.55	239.98
731.88	239.73
732.21	239.37
732.54	238.99
732.87	238.68
733.20	238.33
733.53	238.06
733.86	237.78
734.19	237.43
734.52	237.29
734.85	237.40
735.18	237.13
735.51	236.92
735.84	236.71
736.17	236.54
736.50	236.12
736.83	236.32
737.16	235.94
737.49	235.86
737.82	235.60
738.15	235.40
738.48	235.12
738.81	234.90
739.14	234.65
739.47	234.43
739.80	234.24
740.13	234.03
740.46	233.79
740.79	233.45
741.12	233.22
741.45	232.91
741.78	232.37
742.11	232.25
742.44	231.98
742.77	231.75
743.10	231.49
743.43	231.34
743.75	230.71
744.08	231.03
744.41	230.75
744.74	230.51
745.07	230.19
745.40	230.12
745.73	230.05
746.06	229.87
746.39	229.70
746.71	229.44
747.04	229.19
747.37	228.91
747.70	228.83
748.03	228.70
748.36	228.62
748.68	228.40
749.01	228.10
749.34	227.91
749.67	227.72
750.00	227.57
750.33	227.62
750.65	227.49
750.98	226.86
751.31	226.67
751.64	226.53
751.97	226.64
752.29	226.38
752.62	226.02
752.95	225.79
753.28	225.57
753.60	225.45
753.93	225.44
754.26	225.35
754.59	225.12
754.91	224.92
755.24	224.72
755.57	224.60
755.90	224.44
756.22	224.28
756.55	224.10
756.88	223.86
757.20	223.48
757.53	223.19
757.86	223.01
758.19	222.92
758.51	222.74
758.84	222.40
759.17	222.22
759.49	222.05
759.82	222.16
760.15	222.12
760.47	221.97
760.80	221.82
761.13	221.71
761.45	221.56
761.78	221.43
762.11	221.27
762.43	221.16
762.76	221.05
763.08	220.90
763.41	220.83
763.74	220.71
764.06	220.55
764.39	220.57
764.71	220.47
765.04	220.26
765.37	220.12
765.69	220.03
766.02	219.99
766.34	219.85
766.67	219.65
767.00	219.55
767.32	219.66
767.65	219.76
767.97	219.68
768.30	219.63
768.62	219.53
768.95	219.41
769.27	219.29
769.60	219.23
769.92	219.16
770.25	218.97
770.57	218.91
770.90	218.91
771.22	218.72
771.55	218.64
771.87	218.58
772.20	218.50
772.52	218.77
772.85	219.06
773.17	218.99
773.50	218.82
773.82	218.76
774.15	218.42
774.47	218.00
774.80	217.92
775.12	217.83
775.45	217.83
775.77	217.80
776.09	217.78
776.42	217.75
776.74	217.77
777.07	217.80
777.39	217.71
777.72	217.57
778.04	217.56
778.36	217.48
778.69	217.45
779.01	217.40
779.33	216.98
779.66	216.50
779.98	216.41
780.31	216.36
780.63	216.46
780.95	216.53
781.28	216.49
781.60	216.42
781.92	216.37
782.25	216.28
782.57	216.22
782.89	216.13
783.22	216.00
783.54	215.93
783.86	215.82
784.19	215.82
784.51	215.91
784.83	215.84
785.16	215.84
785.48	215.82
785.80	215.78
786.12	215.75
786.45	215.69
786.77	215.76
787.09	215.72
787.42	215.53
787.74	215.48
788.06	215.53
788.38	215.44
788.71	215.36
789.03	215.34
789.35	215.38
789.67	215.28
789.99	215.27
790.32	215.17
790.64	215.20
790.96	215.38
791.28	215.17
791.61	215.20
791.93	215.12
792.25	215.03
792.57	215.31
792.89	215.24
793.21	215.26
793.54	215.17
793.86	215.13
794.18	215.11
794.50	214.97
794.82	214.90
795.14	214.95
795.47	214.96
795.79	214.96
796.11	214.81
796.43	214.75
796.75	214.78
797.07	214.78
797.39	214.69
797.71	214.47
798.04	214.49
798.36	214.44
798.68	214.46
799.00	214.50
799.32	214.26
799.64	214.29
799.96	214.29
800.28	214.41
800.60	214.39
800.92	214.43
801.24	214.41
801.56	214.43
801.89	214.30
802.21	214.34
802.53	214.17
802.85	214.27
803.17	214.48
803.49	214.34
803.81	214.27
804.13	214.26
804.45	214.15
804.77	214.16
805.09	214.10
805.41	213.98
805.73	213.89
806.05	213.79
806.37	213.82
806.69	213.77
807.01	213.72
807.33	213.74
807.65	213.55
807.97	213.70
808.28	213.69
808.60	213.79
808.92	213.66
809.24	213.96
809.56	213.88
809.88	213.71
810.20	213.74
810.52	213.84
810.84	213.79
811.16	213.76
811.48	213.72
811.80	213.82
812.12	213.84
812.43	213.86
812.75	213.87
813.07	213.80
813.39	213.77
813.71	213.63
814.03	213.57
814.35	213.55
814.67	213.40
814.98	213.31
815.30	213.14
815.62	213.12
815.94	212.78
816.26	212.80
816.58	212.78
816.89	212.79
817.21	212.67
817.53	212.69
817.85	212.68
818.17	212.63
818.48	212.52
818.80	212.53
819.12	212.53
819.44	212.51
819.76	212.42
820.07	212.48
820.39	212.49
820.71	212.54
821.03	212.61
821.34	212.56
821.66	212.59
821.98	212.71
822.30	212.71
822.61	212.88
822.93	212.76
823.25	212.67
823.57	212.72
823.88	212.82
824.20	212.78
824.52	212.88
824.83	212.83
825.15	212.78
825.47	212.77
825.79	212.70
826.10	212.65
826.42	212.67
826.74	212.69
827.05	212.67
827.37	212.66
827.69	212.55
828.00	212.59
828.32	212.62
828.64	212.51
828.95	212.69
829.27	212.70
829.58	212.78
829.90	212.89
830.22	212.87
830.53	212.76
830.85	212.71
831.17	212.57
831.48	212.61
831.80	212.60
832.11	212.63
832.43	212.60
832.75	212.55
833.06	212.74
833.38	212.64
833.69	212.61
834.01	212.56
834.32	212.61
834.64	212.57
834.96	212.53
835.27	212.57
835.59	212.46
835.90	212.34
836.22	212.21
836.53	212.15
836.85	212.06
837.16	212.35
837.48	212.31
837.79	212.43
838.11	212.46
838.42	212.48
838.74	212.46
839.05	212.40
839.37	212.36
839.68	212.14
840.00	212.11
840.31	212.18
840.63	212.15
840.94	212.14
841.26	212.15
841.57	212.12
841.88	212.19
842.20	212.14
842.51	212.09
842.83	212.21
843.14	212.54
843.46	212.59
843.77	212.44
844.08	212.51
844.40	212.41
844.71	212.31
845.03	212.25
845.34	212.20
845.65	212.22
845.97	212.25
846.28	212.24
846.60	212.23
846.91	212.15
847.22	212.11
847.54	212.17
847.85	212.13
848.16	212.10
848.48	211.92
848.79	212.03
849.10	212.07
849.42	212.05
849.73	211.66
850.04	211.58
850.36	211.43
850.67	211.50
850.98	211.57
851.30	211.67
851.61	211.71
851.92	211.80
852.23	211.94
852.55	212.02
852.86	212.10
853.17	212.10
853.49	212.19
853.80	212.26
854.11	212.26
854.42	212.31
854.74	212.29
855.05	212.35
855.36	212.13
855.67	212.19
855.99	212.23
856.30	212.68
856.61	212.70
856.92	212.65
857.23	212.58
857.55	212.49
857.86	212.48
858.17	212.45
858.48	212.35
858.79	212.24
859.11	212.23
859.42	212.12
859.73	212.12
860.04	212.12
860.35	212.02
860.66	211.92
860.98	211.86
861.29	211.93
861.60	211.90
861.91	211.91
862.22	211.77
862.53	211.62
862.84	211.16
863.16	211.18
863.47	211.18
863.78	211.17
864.09	211.19
864.40	211.20
864.71	211.29
865.02	211.29
865.33	211.24
865.64	211.12
865.95	211.20
866.27	211.37
866.58	211.26
866.89	211.24
867.20	211.27
867.51	211.27
867.82	211.21
868.13	211.29
868.44	211.36
868.75	211.47
869.06	211.47
869.37	211.50
869.68	211.45
869.99	211.47
870.30	211.50
870.61	211.59
870.92	211.50
871.23	211.35
871.54	211.43
871.85	211.53
872.16	211.60
872.47	211.55
872.78	211.35
873.09	211.35
873.40	211.43
873.71	211.39
874.02	211.39
874.33	211.38
874.64	211.35
874.95	211.41
875.26	211.28
875.56	211.32
875.87	211.31
876.18	211.29
876.49	211.65
876.80	211.58
877.11	211.38
877.42	211.41
877.73	211.47
878.04	211.28
878.35	211.23
878.66	211.18
878.96	211.21
879.27	211.21
879.58	211.19
879.89	211.15
880.20	211.29
880.51	211.30
880.82	211.28
881.12	211.37
881.43	211.24
881.74	211.24
882.05	211.20
882.36	211.30
882.67	211.32
882.97	210.98
883.28	210.97
883.59	211.01
883.90	210.96
884.21	211.04
884.51	211.11
884.82	211.16
885.13	211.24
885.44	211.21
885.74	211.24
886.05	211.30
886.36	211.28
886.67	211.12
886.98	211.30
887.28	211.42
887.59	211.32
887.90	211.37
888.20	211.33
888.51	211.47
888.82	211.36
889.13	211.40
889.43	211.64
889.74	211.67
890.05	211.65
890.35	211.67
890.66	211.62
890.97	211.68
891.28	211.63
891.58	211.65
891.89	211.61
892.20	211.59
892.50	211.48
892.81	211.47
893.12	211.50
893.42	211.29
893.73	211.25
894.04	211.31
894.34	211.35
894.65	211.38
894.95	211.29
895.26	211.33
895.57	211.46
895.87	211.17
896.18	211.21
896.48	211.28
896.79	211.29
897.10	211.30
897.40	211.22
897.71	211.25
898.01	211.21
898.32	211.24
898.63	211.17
898.93	211.25
899.24	211.35
899.54	211.35
899.85	211.33
900.15	211.29
900.46	211.21
900.76	211.22
901.07	211.21
901.38	211.14
901.68	211.20
901.99	211.05
902.29	211.10
902.60	211.05
902.90	211.03
903.21	210.99
903.51	210.92
903.82	211.06
904.12	211.03
904.43	211.08
904.73	211.16
905.03	211.21
905.34	211.53
905.64	211.44
905.95	211.40
906.25	211.41
906.56	211.35
906.86	211.39
907.17	211.38
907.47	211.44
907.77	211.47
908.08	211.33
908.38	211.38
908.69	211.37
908.99	211.43
909.30	211.41
909.60	211.43
909.90	211.50
910.21	211.36
910.51	211.31
910.81	211.22
911.12	211.13
911.42	211.16
911.73	210.83
912.03	210.83
912.33	210.99
912.64	210.96
912.94	210.96
913.24	210.91
913.55	210.90
913.85	210.82
914.15	210.88
914.46	211.02
914.76	210.95
915.06	210.94
915.37	210.93
915.67	210.95
915.97	210.96
916.27	210.85
916.58	210.87
916.88	210.84
917.18	210.90
917.49	211.18
917.79	211.14
918.09	211.18
918.39	211.29
918.70	211.18
919.00	211.24
919.30	211.40
919.60	211.41
919.91	211.37
920.21	211.45
920.51	211.40
920.81	211.29
921.12	211.35
921.42	211.40
921.72	211.36
922.02	211.40
922.32	211.48
922.63	211.60
922.93	211.80
923.23	211.92
923.53	211.81
923.83	211.57
924.13	211.67
924.44	211.69
924.74	211.72
925.04	211.87
925.34	211.80
925.64	211.71
925.94	211.67
926.24	211.85
926.55	211.81
926.85	211.78
927.15	211.84
927.45	211.71
927.75	211.64
928.05	211.67
928.35	211.63
928.65	211.69
928.95	211.65
929.26	211.60
929.56	211.59
929.86	211.68
930.16	211.65
930.46	211.55
930.76	211.54
931.06	211.36
931.36	211.20
931.66	211.31
931.96	211.28
932.26	211.29
932.56	211.13
932.86	211.17
933.16	211.23
933.46	211.23
933.76	211.26
934.06	211.38
934.36	211.53
934.66	211.46
934.96	211.45
935.26	211.41
935.56	211.35
935.86	211.31
936.16	211.29
936.46	211.32
936.76	211.28
937.06	211.17
937.36	211.23
937.66	211.28
937.96	211.24
938.26	211.18
938.56	211.19
938.86	211.27
939.16	211.35
939.46	211.33
939.76	211.33
940.06	211.38
940.35	211.28
940.65	211.00
940.95	211.05
941.25	210.85
941.55	210.82
941.85	210.79
942.15	210.88
942.45	210.95
942.75	210.93
943.04	211.00
943.34	211.10
943.64	211.00
943.94	210.85
944.24	210.89
944.54	210.94
944.84	210.93
945.13	210.82
945.43	210.75
945.73	210.78
946.03	210.74
946.33	210.71
946.62	210.69
946.92	210.75
947.22	210.72
947.52	210.83
947.82	210.86
948.11	210.86
948.41	210.75
948.71	210.64
949.01	210.62
949.31	210.56
949.60	210.58
949.90	210.65
950.20	210.70
950.50	210.63
950.79	210.60
951.09	210.68
951.39	210.66
951.69	210.65
951.98	210.73
952.28	210.80
952.58	210.74
952.87	210.71
953.17	210.78
953.47	210.80
953.76	210.79
954.06	210.75
954.36	210.68
954.66	210.66
954.95	210.77
955.25	210.75
955.55	210.75
955.84	210.59
956.14	210.65
956.44	210.67
956.73	210.62
957.03	210.59
957.32	210.54
957.62	210.51
957.92	210.52
958.21	210.43
958.51	210.81
958.81	210.84
959.10	210.87
959.40	210.91
959.69	210.99
959.99	211.04
960.29	211.12
960.58	211.12
960.88	211.28
961.17	211.25
961.47	211.31
961.76	211.30
962.06	211.40
962.36	211.29
962.65	211.36
962.95	211.43
963.24	211.44
963.54	211.43
963.83	211.53
964.13	211.47
964.42	211.42
964.72	211.10
965.01	211.09
965.31	211.14
965.60	211.10
965.90	211.19
966.19	211.05
966.49	211.03
966.78	211.05
967.08	211.00
967.37	210.97
967.67	210.89
967.96	211.02
968.26	211.06
968.55	211.20
968.85	211.14
969.14	211.10
969.43	211.13
969.73	211.08
970.02	211.04
970.32	211.11
970.61	211.11
970.91	211.00
971.20	211.00
971.49	210.85
971.79	210.87
972.08	210.67
972.38	210.79
972.67	210.72
972.96	210.77
973.26	210.65
973.55	210.79
973.85	210.85
974.14	210.75
974.43	210.72
974.73	210.61
975.02	210.63
975.31	210.69
975.61	210.65
975.90	210.66
976.19	210.64
976.49	210.63
976.78	210.68
977.07	210.70
977.37	210.69
977.66	210.80
977.95	210.72
978.24	210.75
978.54	210.77
978.83	210.79
979.12	210.77
979.42	210.79
979.71	210.67
980.00	210.61
980.29	210.66
980.59	210.62
980.88	210.70
981.17	210.69
981.46	210.68
981.76	210.74
982.05	210.86
982.34	210.92
982.63	210.95
982.93	210.93
983.22	211.07
983.51	211.06
983.80	211.09
984.09	211.15
984.39	211.15
984.68	211.17
984.97	211.22
985.26	211.17
985.55	211.24
985.85	211.22
986.14	211.31
986.43	211.38
986.72	211.42
987.01	211.38
987.30	211.41
987.59	211.33
987.89	211.28
988.18	211.19
988.47	211.10
988.76	211.11
989.05	211.07
989.34	210.99
989.63	211.09
989.92	211.05
990.22	211.04
990.51	211.07
990.80	211.00
991.09	211.03
991.38	211.05
991.67	211.06
991.96	211.01
992.25	211.03
992.54	210.91
992.83	210.89
993.12	210.86
993.41	210.88
993.70	211.08
993.99	211.14
994.28	211.20
994.58	211.29
994.87	211.23
995.16	211.24
995.45	211.25
995.74	211.10
996.03	211.16
996.32	211.20
996.61	211.20
996.90	211.21
997.19	211.12
997.48	211.18
997.77	211.15
998.06	211.22
998.34	211.20
998.63	211.17
998.92	211.15
999.21	211.21
999.50	211.22
999.79	211.07
1000.08	211.06
1000.37	211.07
1000.66	211.02
1000.95	211.03
1001.24	211.07
1001.53	211.07
1001.82	211.14
1002.11	211.04
1002.40	210.96
1002.68	211.05
1002.97	211.37
1003.26	211.34
1003.55	211.17
1003.84	211.13
1004.13	211.22
1004.42	211.21
1004.71	211.23
1004.99	211.23
1005.28	211.34
1005.57	211.27
1005.86	211.23
1006.15	211.21
1006.44	211.13
1006.72	211.13
1007.01	211.16
1007.30	211.14
1007.59	211.07
1007.88	211.10
1008.17	211.15
1008.45	211.16
1008.74	211.01
1009.03	210.84
1009.32	210.87
1009.60	210.94
1009.89	210.88
1010.18	210.73
1010.47	210.69
1010.76	210.68
1011.04	210.67
1011.33	210.65
1011.62	210.70
1011.91	210.71
1012.19	210.78
1012.48	210.73
1012.77	210.75
1013.05	210.87
1013.34	210.89
1013.63	210.93
1013.92	210.85
1014.20	210.77
1014.49	210.72
1014.78	210.82
1015.06	210.64
1015.35	210.65
1015.64	210.74
1015.92	210.79
1016.21	210.84
1016.50	210.77
1016.78	210.76
1017.07	210.69
1017.36	210.57
1017.64	210.57
1017.93	210.61
1018.22	210.60
1018.50	210.63
1018.79	210.61
1019.08	210.54
1019.36	210.54
1019.65	210.50
1019.93	210.61
1020.22	210.71
1020.51	210.95
1020.79	210.85
1021.08	210.95
1021.36	210.10
1021.65	210.50
1021.94	212.90
1022.22	211.05
1022.51	210.45
1022.79	211.80
1023.08	211.35
1023.36	214.75
1023.65	209.80
>>>>>End Processed Spectral Data<<<<<
