SpectraSuite Data File
++++++++++++++++++++++++++++++++++++
Date: Mon Feb 25 17:18:57 EST 2013
User: group
Dark Spectrum Present: No
Reference Spectrum Present: No
Number of Sampled Component Spectra: 1
Spectrometers: USB2E7196
Integration Time (usec): 104000 (USB2E7196)
Spectra Averaged: 20 (USB2E7196)
Boxcar Smoothing: 10 (USB2E7196)
Correct for Electrical Dark: No (USB2E7196)
Strobe/Lamp Enabled: No (USB2E7196)
Correct for Detector Non-linearity: No (USB2E7196)
Correct for Stray Light: No (USB2E7196)
Number of Pixels in Processed Spectrum: 2048
>>>>>Begin Processed Spectral Data<<<<<
339.09	0.00
339.48	197.60
339.86	200.95
340.24	202.95
340.63	202.25
341.01	210.35
341.39	206.25
341.78	207.50
342.16	209.05
342.54	209.05
342.93	198.62
343.31	208.68
343.69	209.31
344.07	209.75
344.46	210.19
344.84	210.71
345.22	210.84
345.60	211.10
345.99	211.36
346.37	211.51
346.75	211.62
347.13	211.76
347.52	211.90
347.90	212.06
348.28	212.15
348.66	212.32
349.05	212.26
349.43	212.34
349.81	212.44
350.19	212.53
350.57	212.64
350.96	212.78
351.34	212.88
351.72	212.96
352.10	213.05
352.48	213.09
352.87	213.01
353.25	213.02
353.63	213.09
354.01	213.08
354.39	213.19
354.77	213.29
355.15	213.35
355.54	213.34
355.92	213.25
356.30	213.25
356.68	213.54
357.06	213.61
357.44	213.58
357.82	213.58
358.20	213.66
358.58	213.68
358.97	213.74
359.35	213.79
359.73	213.88
360.11	213.96
360.49	214.07
360.87	214.20
361.25	214.26
361.63	214.42
362.01	214.46
362.39	214.39
362.77	214.47
363.15	214.50
363.53	214.58
363.91	214.62
364.29	214.59
364.67	214.27
365.05	214.28
365.43	214.38
365.81	214.46
366.19	214.57
366.57	214.67
366.95	214.61
367.33	214.56
367.71	214.58
368.09	214.67
368.47	214.62
368.85	214.62
369.23	214.79
369.61	214.64
369.99	214.74
370.37	214.80
370.75	214.90
371.13	214.77
371.51	214.69
371.89	214.74
372.27	214.70
372.65	214.71
373.03	214.61
373.41	214.49
373.78	214.40
374.16	214.21
374.54	214.15
374.92	214.13
375.30	214.14
375.68	214.04
376.06	214.00
376.44	213.90
376.82	213.85
377.19	213.68
377.57	213.65
377.95	213.55
378.33	213.50
378.71	213.31
379.09	213.36
379.47	213.39
379.84	213.27
380.22	213.26
380.60	213.10
380.98	213.03
381.36	212.99
381.73	212.97
382.11	212.98
382.49	212.90
382.87	212.79
383.25	212.75
383.62	213.12
384.00	212.94
384.38	212.97
384.76	212.99
385.13	213.09
385.51	213.09
385.89	212.95
386.27	212.90
386.64	212.91
387.02	212.84
387.40	212.71
387.78	212.72
388.15	212.76
388.53	212.75
388.91	212.81
389.29	212.78
389.66	212.79
390.04	212.75
390.42	212.80
390.79	212.84
391.17	212.90
391.55	212.51
391.92	212.57
392.30	212.66
392.68	212.63
393.05	212.59
393.43	212.58
393.81	212.63
394.18	212.63
394.56	212.64
394.94	212.77
395.31	212.80
395.69	212.97
396.06	213.05
396.44	213.14
396.82	213.10
397.19	213.34
397.57	213.32
397.95	213.41
398.32	213.34
398.70	213.43
399.07	213.43
399.45	213.49
399.82	213.51
400.20	213.41
400.58	213.45
400.95	213.34
401.33	213.43
401.70	213.77
402.08	213.88
402.45	213.93
402.83	214.00
403.20	214.15
403.58	214.16
403.95	214.28
404.33	214.39
404.71	214.55
405.08	214.85
405.46	215.00
405.83	215.16
406.21	215.36
406.58	215.53
406.96	215.68
407.33	215.86
407.70	216.14
408.08	216.63
408.45	216.95
408.83	217.41
409.20	217.75
409.58	217.85
409.95	218.24
410.33	218.63
410.70	218.98
411.08	219.44
411.45	219.86
411.82	220.26
412.20	220.91
412.57	221.69
412.95	221.99
413.32	222.68
413.69	223.36
414.07	224.14
414.44	224.91
414.82	225.80
415.19	226.80
415.56	227.69
415.94	228.55
416.31	229.74
416.68	230.74
417.06	231.97
417.43	233.32
417.81	234.69
418.18	236.20
418.55	237.77
418.93	239.42
419.30	241.15
419.67	242.99
420.04	244.84
420.42	246.69
420.79	249.04
421.16	251.25
421.54	253.60
421.91	255.92
422.28	258.37
422.66	260.98
423.03	263.66
423.40	266.51
423.77	269.47
424.15	272.23
424.52	275.33
424.89	278.70
425.26	281.80
425.64	284.80
426.01	288.03
426.38	291.47
426.75	295.07
427.13	298.73
427.50	302.62
427.87	306.60
428.24	310.52
428.61	314.27
428.99	318.60
429.36	323.10
429.73	327.58
430.10	332.11
430.47	336.70
430.85	341.28
431.22	346.07
431.59	351.40
431.96	356.55
432.33	362.16
432.70	367.52
433.08	373.81
433.45	379.86
433.82	385.88
434.19	392.53
434.56	398.97
434.93	405.05
435.30	411.14
435.68	417.88
436.05	424.56
436.42	431.27
436.79	437.27
437.16	443.83
437.53	450.65
437.90	457.45
438.27	464.13
438.64	471.09
439.01	477.79
439.38	483.41
439.75	488.89
440.13	495.20
440.50	501.11
440.87	505.97
441.24	511.04
441.61	516.52
441.98	520.55
442.35	525.19
442.72	530.08
443.09	534.66
443.46	537.59
443.83	539.42
444.20	540.93
444.57	543.15
444.94	544.20
445.31	545.38
445.68	546.63
446.05	547.01
446.42	546.30
446.79	545.28
447.16	544.35
447.53	543.68
447.90	540.99
448.27	538.38
448.64	534.76
449.01	532.00
449.37	527.42
449.74	522.98
450.11	517.83
450.48	511.95
450.85	506.00
451.22	500.71
451.59	495.89
451.96	491.28
452.33	485.28
452.70	479.54
453.07	472.86
453.43	465.85
453.80	459.37
454.17	453.18
454.54	447.27
454.91	440.97
455.28	434.81
455.65	429.03
456.02	423.71
456.38	418.89
456.75	412.93
457.12	407.85
457.49	402.89
457.86	397.93
458.23	393.93
458.59	389.42
458.96	384.97
459.33	381.00
459.70	376.86
460.07	373.60
460.43	370.09
460.80	366.68
461.17	363.81
461.54	360.79
461.91	357.80
462.27	354.87
462.64	352.30
463.01	349.45
463.38	346.78
463.74	343.60
464.11	341.15
464.48	339.07
464.85	336.83
465.21	335.12
465.58	333.29
465.95	330.99
466.32	329.21
466.68	327.37
467.05	325.60
467.42	323.92
467.78	322.11
468.15	320.42
468.52	319.18
468.88	317.45
469.25	315.86
469.62	314.75
469.98	313.41
470.35	312.21
470.72	311.13
471.08	309.93
471.45	309.02
471.82	308.11
472.18	307.06
472.55	306.44
472.92	305.52
473.28	304.80
473.65	304.08
474.02	303.46
474.38	303.00
474.75	302.56
475.11	302.16
475.48	301.93
475.85	301.74
476.21	301.54
476.58	301.52
476.94	301.60
477.31	301.60
477.67	301.60
478.04	301.73
478.41	302.03
478.77	302.65
479.14	302.85
479.50	303.31
479.87	303.85
480.23	304.30
480.60	304.88
480.96	305.44
481.33	306.42
481.69	307.20
482.06	307.97
482.42	308.96
482.79	309.91
483.15	311.04
483.52	312.38
483.88	313.59
484.25	315.00
484.61	316.40
484.98	317.86
485.34	319.63
485.71	321.45
486.07	323.30
486.44	325.01
486.80	327.25
487.17	329.35
487.53	331.83
487.90	334.35
488.26	337.29
488.62	340.27
488.99	343.14
489.35	346.25
489.72	349.68
490.08	353.03
490.44	356.73
490.81	360.66
491.17	364.59
491.54	368.97
491.90	373.45
492.26	378.16
492.63	383.11
492.99	388.35
493.36	393.88
493.72	399.74
494.08	405.80
494.45	412.10
494.81	418.74
495.17	425.33
495.54	432.60
495.90	439.76
496.26	447.46
496.63	455.64
496.99	463.99
497.35	472.63
497.72	481.86
498.08	491.26
498.44	500.96
498.80	511.35
499.17	522.16
499.53	533.05
499.89	544.58
500.26	556.30
500.62	568.30
500.98	581.03
501.34	594.17
501.71	607.80
502.07	621.62
502.43	635.96
502.79	650.70
503.16	666.15
503.52	681.92
503.88	698.06
504.24	714.54
504.60	731.77
504.97	749.57
505.33	767.46
505.69	786.56
506.05	805.83
506.41	825.37
506.78	844.92
507.14	865.24
507.50	886.11
507.86	907.55
508.22	929.28
508.59	951.23
508.95	973.59
509.31	996.35
509.67	1020.15
510.03	1043.99
510.39	1068.73
510.75	1093.56
511.12	1119.02
511.48	1144.44
511.84	1170.75
512.20	1196.88
512.56	1223.60
512.92	1250.85
513.28	1277.93
513.64	1305.68
514.00	1333.20
514.37	1361.37
514.73	1390.10
515.09	1418.64
515.45	1447.33
515.81	1476.25
516.17	1505.27
516.53	1534.56
516.89	1564.20
517.25	1593.59
517.61	1623.19
517.97	1652.38
518.33	1681.51
518.69	1711.00
519.05	1740.76
519.41	1770.29
519.77	1800.66
520.13	1830.12
520.49	1859.50
520.85	1889.46
521.21	1919.17
521.57	1949.72
521.93	1978.89
522.29	2009.08
522.65	2039.34
523.01	2068.95
523.37	2097.92
523.73	2127.06
524.09	2156.13
524.45	2185.56
524.81	2214.59
525.17	2244.18
525.53	2273.53
525.89	2302.78
526.25	2331.26
526.61	2359.34
526.97	2387.23
527.33	2414.48
527.68	2442.40
528.04	2469.50
528.40	2495.57
528.76	2521.77
529.12	2548.47
529.48	2576.07
529.84	2602.00
530.20	2627.37
530.56	2653.42
530.91	2680.56
531.27	2706.63
531.63	2732.30
531.99	2757.06
532.35	2781.01
532.71	2804.54
533.07	2828.87
533.42	2851.84
533.78	2875.38
534.14	2898.24
534.50	2919.62
534.86	2941.94
535.21	2962.71
535.57	2985.10
535.93	3006.40
536.29	3026.85
536.65	3046.83
537.00	3065.60
537.36	3083.66
537.72	3101.89
538.08	3119.64
538.44	3136.83
538.79	3154.54
539.15	3171.70
539.51	3188.14
539.87	3206.10
540.22	3222.65
540.58	3239.18
540.94	3255.25
541.29	3269.47
541.65	3283.35
542.01	3298.43
542.37	3311.61
542.72	3325.57
543.08	3337.42
543.44	3351.10
543.79	3363.12
544.15	3373.90
544.51	3385.73
544.87	3397.82
545.22	3408.26
545.58	3417.85
545.94	3426.21
546.29	3433.70
546.65	3440.74
547.01	3447.98
547.36	3453.92
547.72	3460.06
548.07	3464.74
548.43	3469.55
548.79	3474.25
549.14	3479.10
549.50	3483.05
549.86	3486.78
550.21	3489.70
550.57	3493.28
550.92	3494.25
551.28	3495.96
551.64	3498.36
551.99	3500.64
552.35	3501.43
552.70	3502.82
553.06	3504.03
553.41	3505.32
553.77	3506.14
554.13	3506.70
554.48	3507.39
554.84	3508.25
555.19	3507.69
555.55	3505.93
555.90	3504.13
556.26	3502.47
556.61	3500.79
556.97	3498.09
557.32	3496.06
557.68	3492.78
558.03	3489.53
558.39	3486.91
558.74	3485.06
559.10	3482.47
559.45	3478.30
559.81	3475.47
560.16	3471.30
560.52	3467.54
560.87	3463.14
561.23	3458.02
561.58	3454.02
561.94	3448.31
562.29	3442.09
562.64	3437.19
563.00	3433.50
563.35	3429.72
563.71	3426.18
564.06	3421.45
564.42	3417.62
564.77	3413.69
565.12	3409.80
565.48	3405.15
565.83	3400.45
566.19	3396.04
566.54	3389.19
566.89	3383.06
567.25	3376.98
567.60	3371.25
567.96	3365.21
568.31	3359.60
568.66	3353.37
569.02	3345.83
569.37	3338.35
569.72	3331.65
570.08	3324.22
570.43	3316.19
570.78	3307.50
571.14	3298.67
571.49	3289.91
571.84	3281.72
572.20	3271.90
572.55	3263.35
572.90	3253.66
573.26	3243.51
573.61	3232.46
573.96	3223.03
574.31	3212.30
574.67	3201.05
575.02	3189.40
575.37	3178.37
575.72	3166.23
576.08	3156.24
576.43	3145.41
576.78	3135.19
577.13	3124.66
577.49	3113.87
577.84	3102.65
578.19	3092.64
578.54	3082.61
578.90	3073.18
579.25	3061.64
579.60	3050.01
579.95	3037.99
580.30	3027.36
580.66	3017.34
581.01	3006.00
581.36	2994.18
581.71	2983.48
582.06	2972.84
582.42	2962.35
582.77	2950.36
583.12	2939.24
583.47	2928.33
583.82	2917.89
584.17	2906.74
584.53	2895.71
584.88	2884.65
585.23	2873.72
585.58	2862.53
585.93	2850.65
586.28	2839.56
586.63	2828.80
586.98	2818.49
587.34	2808.53
587.69	2797.45
588.04	2786.09
588.39	2775.69
588.74	2764.52
589.09	2754.05
589.44	2742.45
589.79	2731.92
590.14	2722.04
590.49	2711.74
590.84	2700.77
591.19	2690.90
591.54	2680.27
591.89	2667.73
592.25	2656.60
592.60	2644.90
592.95	2633.05
593.30	2620.86
593.65	2608.36
594.00	2596.77
594.35	2586.86
594.70	2575.58
595.05	2565.08
595.40	2554.15
595.75	2542.56
596.10	2532.61
596.45	2522.27
596.80	2512.78
597.15	2503.38
597.50	2492.40
597.85	2481.91
598.19	2471.17
598.54	2460.35
598.89	2450.35
599.24	2442.08
599.59	2432.19
599.94	2423.76
600.29	2414.36
600.64	2405.38
600.99	2395.19
601.34	2386.09
601.69	2374.83
602.04	2364.56
602.39	2354.29
602.74	2344.65
603.08	2336.34
603.43	2327.80
603.78	2318.18
604.13	2308.65
604.48	2298.67
604.83	2290.82
605.18	2282.83
605.53	2273.58
605.87	2264.00
606.22	2255.29
606.57	2245.18
606.92	2235.73
607.27	2225.45
607.62	2215.57
607.96	2206.40
608.31	2198.29
608.66	2187.98
609.01	2178.49
609.36	2168.64
609.70	2158.34
610.05	2148.06
610.40	2137.43
610.75	2126.34
611.10	2116.49
611.44	2104.72
611.79	2093.25
612.14	2081.17
612.49	2068.89
612.83	2057.53
613.18	2045.79
613.53	2033.93
613.88	2022.25
614.22	2011.19
614.57	1999.93
614.92	1988.93
615.27	1977.19
615.61	1965.30
615.96	1954.89
616.31	1944.64
616.65	1934.76
617.00	1924.57
617.35	1914.19
617.70	1903.08
618.04	1891.27
618.39	1879.17
618.74	1869.09
619.08	1858.38
619.43	1847.81
619.78	1837.62
620.12	1827.44
620.47	1817.37
620.82	1806.32
621.16	1795.49
621.51	1784.46
621.85	1774.22
622.20	1763.49
622.55	1753.05
622.89	1742.52
623.24	1731.30
623.59	1719.80
623.93	1708.82
624.28	1698.20
624.62	1687.57
624.97	1677.24
625.32	1667.79
625.66	1658.51
626.01	1648.35
626.35	1638.82
626.70	1629.06
627.04	1619.57
627.39	1609.82
627.73	1600.15
628.08	1591.20
628.43	1581.65
628.77	1572.20
629.12	1562.32
629.46	1553.52
629.81	1544.23
630.15	1534.94
630.50	1525.78
630.84	1516.30
631.19	1507.01
631.53	1498.03
631.88	1488.43
632.22	1478.87
632.57	1469.90
632.91	1460.10
633.26	1450.97
633.60	1441.72
633.95	1432.77
634.29	1423.27
634.64	1414.64
634.98	1405.24
635.32	1396.33
635.67	1388.10
636.01	1379.58
636.36	1370.64
636.70	1361.74
637.05	1353.23
637.39	1345.02
637.73	1336.92
638.08	1329.44
638.42	1321.51
638.77	1313.08
639.11	1304.75
639.45	1296.60
639.80	1287.92
640.14	1279.42
640.49	1270.86
640.83	1262.43
641.17	1254.14
641.52	1245.83
641.86	1236.77
642.20	1228.64
642.55	1219.59
642.89	1210.82
643.23	1202.04
643.58	1194.15
643.92	1185.38
644.26	1176.94
644.61	1168.53
644.95	1159.84
645.29	1151.37
645.64	1142.50
645.98	1134.18
646.32	1126.47
646.66	1118.23
647.01	1110.12
647.35	1102.49
647.69	1094.17
648.04	1086.23
648.38	1078.15
648.72	1070.03
649.06	1062.31
649.41	1054.22
649.75	1046.53
650.09	1038.95
650.43	1031.35
650.78	1023.03
651.12	1015.28
651.46	1007.55
651.80	999.91
652.14	992.35
652.49	984.54
652.83	976.78
653.17	968.69
653.51	960.71
653.85	953.35
654.20	945.88
654.54	938.05
654.88	930.67
655.22	923.05
655.56	915.41
655.90	908.07
656.25	900.55
656.59	893.34
656.93	886.31
657.27	879.20
657.61	871.78
657.95	865.09
658.29	858.17
658.64	851.58
658.98	844.62
659.32	837.57
659.66	830.90
660.00	824.20
660.34	817.55
660.68	810.60
661.02	803.80
661.36	797.27
661.70	791.30
662.05	785.24
662.39	779.43
662.73	773.53
663.07	767.82
663.41	762.00
663.75	756.00
664.09	750.06
664.43	743.99
664.77	738.25
665.11	732.35
665.45	726.91
665.79	721.02
666.13	715.46
666.47	710.05
666.81	704.50
667.15	699.19
667.49	694.39
667.83	689.59
668.17	684.47
668.51	679.67
668.85	674.70
669.19	669.91
669.53	664.75
669.87	659.67
670.21	654.62
670.55	649.93
670.89	645.63
671.23	641.18
671.57	636.70
671.91	632.30
672.25	627.78
672.58	623.28
672.92	618.87
673.26	614.62
673.60	610.49
673.94	606.19
674.28	601.98
674.62	597.87
674.96	593.72
675.30	589.78
675.64	585.56
675.97	581.40
676.31	577.64
676.65	573.87
676.99	570.32
677.33	566.45
677.67	562.54
678.01	558.45
678.34	554.65
678.68	550.90
679.02	547.11
679.36	543.51
679.70	539.84
680.04	536.26
680.37	532.52
680.71	528.85
681.05	525.60
681.39	522.20
681.73	518.73
682.06	515.51
682.40	512.16
682.74	508.88
683.08	505.47
683.42	501.87
683.75	498.54
684.09	495.23
684.43	492.03
684.77	488.68
685.10	485.49
685.44	482.19
685.78	478.99
686.12	476.09
686.45	473.10
686.79	470.05
687.13	467.21
687.46	464.38
687.80	461.66
688.14	458.53
688.48	455.67
688.81	452.56
689.15	449.61
689.49	446.72
689.82	443.85
690.16	440.83
690.50	438.10
690.83	435.35
691.17	432.39
691.51	429.58
691.84	427.08
692.18	424.52
692.52	422.06
692.85	419.87
693.19	417.47
693.52	414.88
693.86	412.34
694.20	409.98
694.53	407.58
694.87	405.06
695.21	402.71
695.54	400.15
695.88	397.69
696.21	395.23
696.55	393.04
696.88	390.75
697.22	388.66
697.56	386.56
697.89	384.27
698.23	382.12
698.56	380.13
698.90	378.13
699.23	375.99
699.57	373.92
699.90	371.61
700.24	369.38
700.58	367.39
700.91	365.56
701.25	363.69
701.58	361.80
701.92	359.90
702.25	358.01
702.59	356.31
702.92	354.65
703.26	352.93
703.59	351.21
703.93	349.85
704.26	348.25
704.60	346.53
704.93	344.96
705.26	343.19
705.60	341.58
705.93	339.88
706.27	338.43
706.60	336.95
706.94	335.59
707.27	334.09
707.61	332.59
707.94	330.99
708.27	329.32
708.61	327.67
708.94	326.25
709.28	324.82
709.61	323.45
709.94	322.16
710.28	320.87
710.61	319.64
710.95	317.91
711.28	316.84
711.61	315.49
711.95	314.22
712.28	313.09
712.61	311.86
712.95	310.79
713.28	309.71
713.61	308.56
713.95	307.35
714.28	306.34
714.61	305.30
714.95	304.26
715.28	303.06
715.61	301.99
715.95	300.80
716.28	299.73
716.61	298.55
716.95	297.36
717.28	296.30
717.61	295.15
717.94	294.24
718.28	292.95
718.61	292.04
718.94	291.07
719.27	290.09
719.61	289.13
719.94	288.12
720.27	286.96
720.60	285.93
720.94	285.07
721.27	284.09
721.60	283.20
721.93	282.30
722.27	281.64
722.60	280.86
722.93	280.16
723.26	279.45
723.59	278.67
723.93	278.01
724.26	277.24
724.59	276.51
724.92	275.81
725.25	275.13
725.59	274.35
725.92	273.75
726.25	273.07
726.58	272.32
726.91	271.65
727.24	271.08
727.57	270.32
727.91	269.48
728.24	268.84
728.57	268.22
728.90	267.68
729.23	266.93
729.56	266.48
729.89	265.81
730.22	265.06
730.55	264.48
730.89	263.85
731.22	263.25
731.55	262.60
731.88	262.07
732.21	261.51
732.54	260.90
732.87	260.27
733.20	259.77
733.53	259.31
733.86	258.83
734.19	258.25
734.52	257.95
734.85	257.80
735.18	257.28
735.51	256.80
735.84	256.25
736.17	255.91
736.50	255.28
736.83	255.30
737.16	254.95
737.49	254.51
737.82	254.00
738.15	253.65
738.48	253.25
738.81	252.77
739.14	252.26
739.47	251.91
739.80	251.35
740.13	250.96
740.46	250.41
740.79	249.87
741.12	249.42
741.45	248.86
741.78	248.15
742.11	247.80
742.44	247.34
742.77	247.00
743.10	246.46
743.43	246.04
743.75	245.24
744.08	245.23
744.41	244.80
744.74	244.39
745.07	243.91
745.40	243.56
745.73	243.30
746.06	242.90
746.39	242.46
746.71	242.17
747.04	241.73
747.37	241.39
747.70	241.12
748.03	240.82
748.36	240.55
748.68	240.26
749.01	239.86
749.34	239.53
749.67	239.17
750.00	238.99
750.33	238.97
750.65	238.70
750.98	237.98
751.31	237.64
751.64	237.39
751.97	237.21
752.29	236.91
752.62	236.44
752.95	236.17
753.28	235.89
753.60	235.58
753.93	235.43
754.26	235.26
754.59	234.85
754.91	234.59
755.24	234.31
755.57	234.03
755.90	233.73
756.22	233.48
756.55	233.20
756.88	232.83
757.20	232.30
757.53	231.79
757.86	231.56
758.19	231.37
758.51	231.07
758.84	230.70
759.17	230.34
759.49	230.10
759.82	229.99
760.15	229.71
760.47	229.54
760.80	229.22
761.13	228.97
761.45	228.92
761.78	228.67
762.11	228.38
762.43	228.13
762.76	227.92
763.08	227.77
763.41	227.62
763.74	227.46
764.06	227.31
764.39	227.25
764.71	226.99
765.04	226.77
765.37	226.59
765.69	226.45
766.02	226.32
766.34	226.13
766.67	225.81
767.00	225.74
767.32	225.69
767.65	225.70
767.97	225.49
768.30	225.21
768.62	224.98
768.95	224.80
769.27	224.65
769.60	224.60
769.92	224.37
770.25	224.11
770.57	223.92
770.90	223.71
771.22	223.51
771.55	223.40
771.87	223.35
772.20	223.16
772.52	223.22
772.85	223.54
773.17	223.42
773.50	223.33
773.82	223.16
774.15	222.88
774.47	222.53
774.80	222.38
775.12	222.20
775.45	222.14
775.77	222.03
776.09	221.99
776.42	221.77
776.74	221.75
777.07	221.62
777.39	221.49
777.72	221.41
778.04	221.40
778.36	221.36
778.69	221.25
779.01	221.29
779.33	220.97
779.66	220.48
779.98	220.44
780.31	220.39
780.63	220.45
780.95	220.42
781.28	220.33
781.60	220.34
781.92	220.34
782.25	220.24
782.57	220.19
782.89	220.08
783.22	220.09
783.54	219.89
783.86	219.83
784.19	219.78
784.51	219.75
784.83	219.58
785.16	219.41
785.48	219.30
785.80	219.19
786.12	219.17
786.45	219.04
786.77	218.97
787.09	218.82
787.42	218.59
787.74	218.55
788.06	218.51
788.38	218.39
788.71	218.28
789.03	218.21
789.35	218.19
789.67	218.03
789.99	217.97
790.32	217.89
790.64	217.90
790.96	218.15
791.28	218.09
791.61	218.04
791.93	218.03
792.25	218.01
792.57	218.13
792.89	218.00
793.21	218.02
793.54	217.83
793.86	217.75
794.18	217.73
794.50	217.63
794.82	217.58
795.14	217.52
795.47	217.52
795.79	217.46
796.11	217.32
796.43	217.26
796.75	217.18
797.07	217.15
797.39	217.06
797.71	216.70
798.04	216.62
798.36	216.69
798.68	216.65
799.00	216.55
799.32	216.36
799.64	216.40
799.96	216.36
800.28	216.44
800.60	216.38
800.92	216.38
801.24	216.31
801.56	216.26
801.89	216.16
802.21	216.10
802.53	216.05
802.85	216.06
803.17	216.27
803.49	216.16
803.81	216.17
804.13	216.13
804.45	216.07
804.77	215.96
805.09	215.86
805.41	215.84
805.73	215.71
806.05	215.69
806.37	215.52
806.69	215.37
807.01	215.34
807.33	215.36
807.65	215.25
807.97	215.35
808.28	215.34
808.60	215.33
808.92	215.26
809.24	215.44
809.56	215.40
809.88	215.21
810.20	215.20
810.52	215.15
810.84	215.13
811.16	215.05
811.48	215.01
811.80	215.10
812.12	215.04
812.43	215.12
812.75	215.05
813.07	215.09
813.39	215.20
813.71	215.05
814.03	214.97
814.35	215.00
814.67	214.87
814.98	214.79
815.30	214.74
815.62	214.71
815.94	214.43
816.26	214.39
816.58	214.31
816.89	214.37
817.21	214.29
817.53	214.22
817.85	214.25
818.17	214.22
818.48	214.05
818.80	214.10
819.12	214.04
819.44	213.97
819.76	213.83
820.07	213.77
820.39	213.87
820.71	213.99
821.03	213.93
821.34	213.87
821.66	213.85
821.98	213.89
822.30	213.83
822.61	214.07
822.93	214.01
823.25	214.02
823.57	213.89
823.88	213.97
824.20	213.95
824.52	213.95
824.83	213.89
825.15	213.82
825.47	213.69
825.79	213.70
826.10	213.74
826.42	213.73
826.74	213.74
827.05	213.67
827.37	213.52
827.69	213.55
828.00	213.56
828.32	213.57
828.64	213.50
828.95	213.65
829.27	213.48
829.58	213.49
829.90	213.40
830.22	213.51
830.53	213.40
830.85	213.34
831.17	213.27
831.48	213.34
831.80	213.39
832.11	213.42
832.43	213.31
832.75	213.26
833.06	213.49
833.38	213.34
833.69	213.29
834.01	213.29
834.32	213.28
834.64	213.20
834.96	213.21
835.27	213.25
835.59	213.15
835.90	213.11
836.22	213.06
836.53	213.05
836.85	213.02
837.16	213.41
837.48	213.44
837.79	213.54
838.11	213.55
838.42	213.50
838.74	213.53
839.05	213.55
839.37	213.45
839.68	213.25
840.00	213.32
840.31	213.42
840.63	213.45
840.94	213.33
841.26	213.25
841.57	213.26
841.88	213.24
842.20	213.11
842.51	213.07
842.83	213.12
843.14	213.47
843.46	213.39
843.77	213.13
844.08	213.15
844.40	213.10
844.71	213.00
845.03	212.92
845.34	212.91
845.65	212.90
845.97	212.96
846.28	212.93
846.60	212.94
846.91	212.80
847.22	212.72
847.54	212.76
847.85	212.87
848.16	212.79
848.48	212.70
848.79	212.94
849.10	213.04
849.42	213.00
849.73	212.55
850.04	212.57
850.36	212.42
850.67	212.46
850.98	212.41
851.30	212.52
851.61	212.57
851.92	212.54
852.23	212.61
852.55	212.65
852.86	212.66
853.17	212.68
853.49	212.73
853.80	212.86
854.11	212.91
854.42	212.90
854.74	212.89
855.05	212.93
855.36	212.69
855.67	212.63
855.99	212.67
856.30	213.10
856.61	213.10
856.92	213.15
857.23	213.13
857.55	213.10
857.86	213.01
858.17	213.06
858.48	213.00
858.79	212.88
859.11	212.81
859.42	212.80
859.73	212.73
860.04	212.71
860.35	212.57
860.66	212.45
860.98	212.46
861.29	212.46
861.60	212.42
861.91	212.51
862.22	212.43
862.53	212.37
862.84	211.93
863.16	212.00
863.47	211.91
863.78	211.85
864.09	211.83
864.40	211.91
864.71	211.88
865.02	211.86
865.33	211.86
865.64	211.86
865.95	211.83
866.27	212.06
866.58	212.06
866.89	212.09
867.20	212.05
867.51	211.99
867.82	212.03
868.13	212.18
868.44	212.13
868.75	212.15
869.06	212.09
869.37	212.19
869.68	212.09
869.99	212.12
870.30	212.11
870.61	212.21
870.92	212.17
871.23	212.09
871.54	212.22
871.85	212.33
872.16	212.36
872.47	212.36
872.78	212.11
873.09	212.07
873.40	212.05
873.71	212.07
874.02	212.08
874.33	211.99
874.64	211.84
874.95	211.85
875.26	211.83
875.56	211.88
875.87	211.88
876.18	211.79
876.49	212.18
876.80	212.17
877.11	212.02
877.42	212.03
877.73	212.09
878.04	211.95
878.35	211.92
878.66	211.94
878.96	211.95
879.27	212.02
879.58	212.07
879.89	212.05
880.20	212.08
880.51	212.11
880.82	212.18
881.12	212.23
881.43	212.24
881.74	212.23
882.05	212.19
882.36	212.29
882.67	212.33
882.97	211.91
883.28	211.87
883.59	211.93
883.90	211.90
884.21	212.02
884.51	212.03
884.82	211.96
885.13	211.92
885.44	211.83
885.74	211.79
886.05	211.78
886.36	211.82
886.67	211.75
886.98	211.89
887.28	211.89
887.59	211.87
887.90	211.83
888.20	211.80
888.51	211.92
888.82	211.81
889.13	211.91
889.43	212.17
889.74	212.22
890.05	212.15
890.35	212.05
890.66	211.98
890.97	211.96
891.28	212.03
891.58	212.04
891.89	212.11
892.20	212.06
892.50	211.99
892.81	211.95
893.12	212.00
893.42	211.78
893.73	211.81
894.04	211.78
894.34	211.82
894.65	211.82
894.95	211.71
895.26	211.72
895.57	211.80
895.87	211.51
896.18	211.54
896.48	211.57
896.79	211.64
897.10	211.63
897.40	211.63
897.71	211.61
898.01	211.56
898.32	211.58
898.63	211.58
898.93	211.60
899.24	211.64
899.54	211.66
899.85	211.75
900.15	211.75
900.46	211.77
900.76	211.73
901.07	211.77
901.38	211.82
901.68	211.83
901.99	211.70
902.29	211.69
902.60	211.66
902.90	211.63
903.21	211.65
903.51	211.58
903.82	211.67
904.12	211.59
904.43	211.62
904.73	211.61
905.03	211.60
905.34	211.98
905.64	211.97
905.95	211.89
906.25	211.83
906.56	211.77
906.86	211.68
907.17	211.73
907.47	211.67
907.77	211.59
908.08	211.48
908.38	211.50
908.69	211.57
908.99	211.64
909.30	211.67
909.60	211.68
909.90	211.72
910.21	211.60
910.51	211.61
910.81	211.60
911.12	211.61
911.42	211.63
911.73	211.19
912.03	211.20
912.33	211.33
912.64	211.32
912.94	211.27
913.24	211.26
913.55	211.18
913.85	211.13
914.15	211.27
914.46	211.34
914.76	211.24
915.06	211.18
915.37	211.11
915.67	211.10
915.97	211.05
916.27	211.06
916.58	211.13
916.88	211.11
917.18	211.11
917.49	211.35
917.79	211.33
918.09	211.43
918.39	211.43
918.70	211.40
919.00	211.36
919.30	211.49
919.60	211.53
919.91	211.51
920.21	211.62
920.51	211.53
920.81	211.55
921.12	211.65
921.42	211.65
921.72	211.60
922.02	211.62
922.32	211.68
922.63	211.61
922.93	211.76
923.23	211.83
923.53	211.80
923.83	211.61
924.13	211.65
924.44	211.60
924.74	211.72
925.04	211.83
925.34	211.89
925.64	211.77
925.94	211.79
926.24	212.02
926.55	211.96
926.85	212.03
927.15	212.01
927.45	212.01
927.75	212.06
928.05	212.13
928.35	212.08
928.65	212.12
928.95	212.15
929.26	212.00
929.56	212.04
929.86	212.07
930.16	212.04
930.46	212.01
930.76	212.01
931.06	211.85
931.36	211.74
931.66	211.78
931.96	211.89
932.26	211.87
932.56	211.70
932.86	211.75
933.16	211.70
933.46	211.73
933.76	211.68
934.06	211.74
934.36	211.84
934.66	211.85
934.96	211.85
935.26	211.85
935.56	211.88
935.86	211.68
936.16	211.67
936.46	211.62
936.76	211.57
937.06	211.55
937.36	211.54
937.66	211.56
937.96	211.50
938.26	211.42
938.56	211.42
938.86	211.45
939.16	211.48
939.46	211.49
939.76	211.45
940.06	211.41
940.35	211.31
940.65	211.16
940.95	211.22
941.25	211.10
941.55	211.08
941.85	211.08
942.15	211.26
942.45	211.31
942.75	211.28
943.04	211.35
943.34	211.44
943.64	211.42
943.94	211.29
944.24	211.30
944.54	211.27
944.84	211.21
945.13	211.17
945.43	211.11
945.73	211.14
946.03	211.11
946.33	211.11
946.62	211.09
946.92	211.04
947.22	210.98
947.52	211.05
947.82	211.04
948.11	211.03
948.41	210.97
948.71	210.93
949.01	210.98
949.31	211.00
949.60	210.97
949.90	210.96
950.20	210.97
950.50	210.98
950.79	210.96
951.09	211.05
951.39	211.05
951.69	211.04
951.98	211.12
952.28	211.22
952.58	211.26
952.87	211.26
953.17	211.32
953.47	211.35
953.76	211.32
954.06	211.28
954.36	211.19
954.66	211.15
954.95	211.22
955.25	211.24
955.55	211.17
955.84	211.15
956.14	211.23
956.44	211.32
956.73	211.30
957.03	211.33
957.32	211.37
957.62	211.34
957.92	211.42
958.21	211.33
958.51	211.66
958.81	211.68
959.10	211.77
959.40	211.91
959.69	211.90
959.99	211.92
960.29	211.94
960.58	211.97
960.88	212.13
961.17	212.10
961.47	212.07
961.76	212.09
962.06	212.16
962.36	212.22
962.65	212.16
962.95	212.16
963.24	212.18
963.54	212.15
963.83	212.18
964.13	212.13
964.42	212.07
964.72	211.77
965.01	211.75
965.31	211.67
965.60	211.62
965.90	211.83
966.19	211.77
966.49	211.83
966.78	211.83
967.08	211.80
967.37	211.78
967.67	211.79
967.96	211.87
968.26	211.83
968.55	211.80
968.85	211.76
969.14	211.69
969.43	211.66
969.73	211.66
970.02	211.65
970.32	211.59
970.61	211.54
970.91	211.42
971.20	211.41
971.49	211.35
971.79	211.35
972.08	211.10
972.38	211.19
972.67	211.12
972.96	211.21
973.26	211.12
973.55	211.16
973.85	211.17
974.14	211.06
974.43	211.04
974.73	211.00
975.02	211.04
975.31	211.12
975.61	211.11
975.90	211.06
976.19	211.03
976.49	211.12
976.78	211.18
977.07	211.20
977.37	211.16
977.66	211.27
977.95	211.20
978.24	211.30
978.54	211.33
978.83	211.33
979.12	211.24
979.42	211.26
979.71	211.30
980.00	211.28
980.29	211.30
980.59	211.23
980.88	211.34
981.17	211.34
981.46	211.28
981.76	211.34
982.05	211.41
982.34	211.44
982.63	211.41
982.93	211.47
983.22	211.55
983.51	211.64
983.80	211.62
984.09	211.65
984.39	211.61
984.68	211.56
984.97	211.56
985.26	211.55
985.55	211.56
985.85	211.41
986.14	211.48
986.43	211.53
986.72	211.57
987.01	211.41
987.30	211.38
987.59	211.34
987.89	211.32
988.18	211.24
988.47	211.19
988.76	211.15
989.05	211.01
989.34	211.00
989.63	211.05
989.92	211.00
990.22	210.96
990.51	210.88
990.80	210.82
991.09	210.86
991.38	210.92
991.67	210.88
991.96	210.88
992.25	210.87
992.54	210.78
992.83	210.73
993.12	210.73
993.41	210.79
993.70	210.92
993.99	210.94
994.28	211.00
994.58	211.03
994.87	211.02
995.16	211.02
995.45	210.95
995.74	210.85
996.03	210.94
996.32	210.98
996.61	211.07
996.90	211.12
997.19	211.11
997.48	211.07
997.77	211.06
998.06	211.10
998.34	211.06
998.63	211.05
998.92	211.02
999.21	211.05
999.50	211.03
999.79	210.96
1000.08	210.99
1000.37	210.96
1000.66	210.92
1000.95	210.96
1001.24	211.11
1001.53	211.15
1001.82	211.16
1002.11	211.10
1002.40	211.14
1002.68	211.25
1002.97	211.51
1003.26	211.47
1003.55	211.44
1003.84	211.50
1004.13	211.62
1004.42	211.64
1004.71	211.73
1004.99	211.79
1005.28	211.95
1005.57	211.95
1005.86	211.90
1006.15	211.84
1006.44	211.83
1006.72	211.90
1007.01	211.90
1007.30	211.85
1007.59	211.89
1007.88	211.89
1008.17	211.89
1008.45	211.80
1008.74	211.65
1009.03	211.46
1009.32	211.53
1009.60	211.60
1009.89	211.49
1010.18	211.33
1010.47	211.34
1010.76	211.28
1011.04	211.32
1011.33	211.35
1011.62	211.37
1011.91	211.46
1012.19	211.55
1012.48	211.54
1012.77	211.56
1013.05	211.68
1013.34	211.69
1013.63	211.69
1013.92	211.74
1014.20	211.65
1014.49	211.68
1014.78	211.72
1015.06	211.58
1015.35	211.49
1015.64	211.53
1015.92	211.69
1016.21	211.74
1016.50	211.69
1016.78	211.70
1017.07	211.69
1017.36	211.52
1017.64	211.51
1017.93	211.55
1018.22	211.46
1018.50	211.43
1018.79	211.44
1019.08	211.34
1019.36	211.29
1019.65	211.25
1019.93	211.28
1020.22	211.37
1020.51	211.56
1020.79	211.53
1021.08	210.45
1021.36	210.20
1021.65	211.75
1021.94	212.20
1022.22	210.20
1022.51	211.80
1022.79	212.65
1023.08	211.20
1023.36	215.65
1023.65	211.00
>>>>>End Processed Spectral Data<<<<<
