SpectraSuite Data File
++++++++++++++++++++++++++++++++++++
Date: Mon Feb 25 17:11:35 EST 2013
User: group
Dark Spectrum Present: No
Reference Spectrum Present: No
Number of Sampled Component Spectra: 1
Spectrometers: USB2E7196
Integration Time (usec): 104000 (USB2E7196)
Spectra Averaged: 20 (USB2E7196)
Boxcar Smoothing: 10 (USB2E7196)
Correct for Electrical Dark: No (USB2E7196)
Strobe/Lamp Enabled: No (USB2E7196)
Correct for Detector Non-linearity: No (USB2E7196)
Correct for Stray Light: No (USB2E7196)
Number of Pixels in Processed Spectrum: 2048
>>>>>Begin Processed Spectral Data<<<<<
339.09	0.00
339.48	197.80
339.86	198.85
340.24	201.10
340.63	202.00
341.01	210.05
341.39	205.65
341.78	206.85
342.16	209.25
342.54	208.45
342.93	198.04
343.31	208.08
343.69	208.64
344.07	209.12
344.46	209.58
344.84	209.99
345.22	209.98
345.60	210.19
345.99	210.42
346.37	210.51
346.75	210.64
347.13	210.61
347.52	210.62
347.90	210.85
348.28	210.83
348.66	210.88
349.05	210.82
349.43	210.93
349.81	210.95
350.19	210.93
350.57	210.99
350.96	211.06
351.34	211.15
351.72	211.24
352.10	211.32
352.48	211.35
352.87	211.44
353.25	211.53
353.63	211.57
354.01	211.65
354.39	211.76
354.77	211.77
355.15	211.87
355.54	211.90
355.92	211.80
356.30	211.84
356.68	212.14
357.06	212.28
357.44	212.26
357.82	212.30
358.20	212.40
358.58	212.49
358.97	212.57
359.35	212.61
359.73	212.70
360.11	212.77
360.49	212.82
360.87	212.83
361.25	212.86
361.63	213.08
362.01	213.11
362.39	213.06
362.77	213.14
363.15	213.25
363.53	213.25
363.91	213.26
364.29	213.29
364.67	212.91
365.05	212.87
365.43	212.91
365.81	213.02
366.19	213.17
366.57	213.27
366.95	213.27
367.33	213.18
367.71	213.16
368.09	213.26
368.47	213.22
368.85	213.26
369.23	213.31
369.61	213.14
369.99	213.17
370.37	213.17
370.75	213.30
371.13	213.15
371.51	213.10
371.89	213.15
372.27	213.19
372.65	213.27
373.03	213.24
373.41	213.19
373.78	213.04
374.16	212.81
374.54	212.59
374.92	212.46
375.30	212.48
375.68	212.36
376.06	212.34
376.44	212.28
376.82	212.19
377.19	212.18
377.57	212.16
377.95	211.95
378.33	211.94
378.71	211.70
379.09	211.70
379.47	211.79
379.84	211.65
380.22	211.54
380.60	211.43
380.98	211.33
381.36	211.26
381.73	211.20
382.11	211.26
382.49	211.30
382.87	211.25
383.25	211.11
383.62	211.51
384.00	211.42
384.38	211.45
384.76	211.46
385.13	211.46
385.51	211.44
385.89	211.37
386.27	211.30
386.64	211.29
387.02	211.30
387.40	211.21
387.78	211.22
388.15	211.18
388.53	211.17
388.91	211.20
389.29	211.15
389.66	211.24
390.04	211.16
390.42	211.26
390.79	211.26
391.17	211.26
391.55	210.93
391.92	210.85
392.30	210.86
392.68	210.81
393.05	210.77
393.43	210.78
393.81	210.90
394.18	210.85
394.56	210.86
394.94	210.92
395.31	210.85
395.69	210.98
396.06	211.05
396.44	211.09
396.82	211.05
397.19	211.20
397.57	211.09
397.95	211.20
398.32	211.07
398.70	211.14
399.07	211.26
399.45	211.23
399.82	211.22
400.20	211.17
400.58	211.18
400.95	211.10
401.33	211.20
401.70	211.47
402.08	211.58
402.45	211.59
402.83	211.60
403.20	211.60
403.58	211.62
403.95	211.67
404.33	211.70
404.71	211.77
405.08	212.03
405.46	212.13
405.83	212.21
406.21	212.29
406.58	212.38
406.96	212.37
407.33	212.48
407.70	212.70
408.08	213.17
408.45	213.29
408.83	213.49
409.20	213.56
409.58	213.47
409.95	213.70
410.33	213.87
410.70	214.00
411.08	214.38
411.45	214.64
411.82	214.85
412.20	215.26
412.57	215.70
412.95	215.74
413.32	216.15
413.69	216.40
414.07	216.80
414.44	217.18
414.82	217.69
415.19	218.21
415.56	218.66
415.94	218.94
416.31	219.65
416.68	220.29
417.06	220.96
417.43	221.70
417.81	222.43
418.18	223.21
418.55	224.06
418.93	224.94
419.30	225.77
419.67	226.74
420.04	227.72
420.42	228.72
420.79	230.16
421.16	231.35
421.54	232.85
421.91	234.18
422.28	235.49
422.66	236.95
423.03	238.50
423.40	239.98
423.77	241.56
424.15	243.09
424.52	244.67
424.89	246.52
425.26	248.22
425.64	249.88
426.01	251.76
426.38	253.63
426.75	255.56
427.13	257.64
427.50	259.70
427.87	261.87
428.24	264.08
428.61	265.95
428.99	268.35
429.36	270.67
429.73	273.11
430.10	275.72
430.47	278.24
430.85	280.64
431.22	283.36
431.59	286.46
431.96	289.24
432.33	292.37
432.70	295.39
433.08	298.92
433.45	302.23
433.82	305.54
434.19	309.12
434.56	312.87
434.93	316.28
435.30	319.72
435.68	323.45
436.05	327.13
436.42	330.82
436.79	334.27
437.16	337.83
437.53	341.73
437.90	345.54
438.27	349.38
438.64	353.35
439.01	356.99
439.38	360.01
439.75	363.10
440.13	366.57
440.50	369.91
440.87	372.67
441.24	375.42
441.61	378.60
441.98	380.92
442.35	383.43
442.72	386.19
443.09	388.96
443.46	390.65
443.83	391.75
444.20	392.74
444.57	393.99
444.94	394.70
445.31	395.37
445.68	396.25
446.05	396.60
446.42	396.15
446.79	395.76
447.16	395.36
447.53	395.13
447.90	393.74
448.27	392.25
448.64	390.29
449.01	388.93
449.37	386.40
449.74	384.01
450.11	381.41
450.48	378.14
450.85	374.73
451.22	371.80
451.59	369.11
451.96	366.60
452.33	363.21
452.70	360.06
453.07	356.40
453.43	352.35
453.80	348.68
454.17	345.29
454.54	341.98
454.91	338.45
455.28	334.97
455.65	331.84
456.02	329.13
456.38	326.26
456.75	322.89
457.12	320.10
457.49	317.41
457.86	314.46
458.23	312.26
458.59	309.78
458.96	307.32
459.33	305.03
459.70	302.72
460.07	301.00
460.43	298.97
460.80	296.98
461.17	295.45
461.54	293.60
461.91	291.91
462.27	290.13
462.64	288.62
463.01	286.96
463.38	285.45
463.74	283.37
464.11	282.11
464.48	280.94
464.85	279.59
465.21	278.65
465.58	277.54
465.95	276.20
466.32	275.15
466.68	274.07
467.05	273.20
467.42	272.20
467.78	271.03
468.15	270.06
468.52	269.43
468.88	268.27
469.25	267.34
469.62	266.64
469.98	265.93
470.35	265.29
470.72	264.69
471.08	263.91
471.45	263.45
471.82	262.86
472.18	262.28
472.55	261.83
472.92	261.05
473.28	260.53
473.65	259.98
474.02	259.52
474.38	259.24
474.75	258.82
475.11	258.47
475.48	258.28
475.85	258.08
476.21	257.71
476.58	257.54
476.94	257.45
477.31	257.33
477.67	257.22
478.04	257.10
478.41	257.05
478.77	257.36
479.14	257.14
479.50	257.17
479.87	257.20
480.23	257.32
480.60	257.52
480.96	257.61
481.33	257.93
481.69	258.08
482.06	258.23
482.42	258.47
482.79	258.69
483.15	258.84
483.52	259.24
483.88	259.59
484.25	259.93
484.61	260.39
484.98	260.79
485.34	261.46
485.71	262.02
486.07	262.64
486.44	262.95
486.80	263.72
487.17	264.34
487.53	265.12
487.90	265.93
488.26	266.87
488.62	267.84
488.99	268.78
489.35	269.83
489.72	270.91
490.08	272.07
490.44	273.25
490.81	274.71
491.17	275.95
491.54	277.28
491.90	278.84
492.26	280.38
492.63	282.03
492.99	283.52
493.36	285.23
493.72	287.09
494.08	288.97
494.45	291.00
494.81	293.19
495.17	295.40
495.54	297.60
495.90	299.91
496.26	302.35
496.63	304.92
496.99	307.52
497.35	310.19
497.72	312.93
498.08	315.80
498.44	318.66
498.80	321.90
499.17	325.24
499.53	328.57
499.89	332.11
500.26	335.60
500.62	339.35
500.98	343.22
501.34	347.19
501.71	351.34
502.07	355.45
502.43	359.65
502.79	363.91
503.16	368.55
503.52	373.13
503.88	377.84
504.24	382.67
504.60	387.59
504.97	392.83
505.33	398.01
505.69	403.68
506.05	409.39
506.41	415.00
506.78	420.68
507.14	426.47
507.50	432.46
507.86	438.52
508.22	444.71
508.59	451.11
508.95	457.50
509.31	464.17
509.67	471.05
510.03	477.91
510.39	484.97
510.75	492.11
511.12	499.43
511.48	506.87
511.84	514.23
512.20	521.86
512.56	529.57
512.92	537.45
513.28	545.27
513.64	553.12
514.00	561.07
514.37	569.24
514.73	577.68
515.09	585.90
515.45	594.28
515.81	602.78
516.17	611.05
516.53	619.58
516.89	628.16
517.25	636.65
517.61	645.58
517.97	654.36
518.33	663.08
518.69	671.87
519.05	680.82
519.41	690.03
519.77	699.45
520.13	708.40
520.49	717.31
520.85	726.40
521.21	735.78
521.57	745.29
521.93	754.50
522.29	763.75
522.65	773.05
523.01	782.36
523.37	791.38
523.73	800.94
524.09	810.35
524.45	819.63
524.81	829.14
525.17	838.52
525.53	847.86
525.89	857.14
526.25	866.63
526.61	875.67
526.97	884.87
527.33	893.98
527.68	903.53
528.04	912.81
528.40	921.61
528.76	930.55
529.12	939.80
529.48	949.07
529.84	958.13
530.20	967.19
530.56	976.49
530.91	985.93
531.27	994.98
531.63	1003.83
531.99	1012.79
532.35	1021.32
532.71	1029.98
533.07	1038.93
533.42	1047.81
533.78	1056.25
534.14	1064.79
534.50	1072.60
534.86	1080.76
535.21	1088.44
535.57	1096.74
535.93	1105.00
536.29	1113.03
536.65	1120.54
537.00	1127.73
537.36	1134.96
537.72	1142.10
538.08	1149.13
538.44	1156.23
538.79	1163.44
539.15	1170.62
539.51	1177.24
539.87	1184.37
540.22	1191.01
540.58	1197.85
540.94	1204.08
541.29	1210.14
541.65	1215.88
542.01	1222.08
542.37	1227.80
542.72	1233.65
543.08	1238.86
543.44	1244.41
543.79	1249.12
544.15	1253.95
544.51	1259.54
544.87	1264.82
545.22	1269.75
545.58	1274.23
545.94	1278.25
546.29	1281.97
546.65	1285.46
547.01	1289.46
547.36	1293.14
547.72	1296.42
548.07	1299.23
548.43	1302.46
548.79	1305.12
549.14	1308.30
549.50	1311.38
549.86	1313.85
550.21	1316.12
550.57	1318.65
550.92	1320.53
551.28	1322.75
551.64	1324.89
551.99	1326.70
552.35	1328.25
552.70	1329.58
553.06	1331.13
553.41	1332.60
553.77	1334.19
554.13	1335.71
554.48	1336.74
554.84	1337.88
555.19	1338.75
555.55	1339.63
555.90	1339.88
556.26	1340.92
556.61	1341.23
556.97	1341.11
557.32	1341.47
557.68	1341.53
558.03	1341.48
558.39	1341.53
558.74	1341.70
559.10	1341.88
559.45	1341.72
559.81	1341.76
560.16	1341.51
560.52	1341.37
560.87	1341.19
561.23	1340.31
561.58	1340.39
561.94	1339.69
562.29	1338.72
562.64	1338.15
563.00	1337.45
563.35	1337.30
563.71	1336.94
564.06	1336.38
564.42	1336.07
564.77	1335.67
565.12	1335.44
565.48	1334.99
565.83	1334.42
566.19	1333.99
566.54	1332.37
566.89	1331.03
567.25	1329.81
567.60	1328.77
567.96	1327.64
568.31	1326.33
568.66	1325.01
569.02	1322.56
569.37	1320.92
569.72	1319.26
570.08	1317.65
570.43	1315.67
570.78	1313.29
571.14	1310.60
571.49	1308.33
571.84	1306.26
572.20	1303.39
572.55	1301.00
572.90	1298.10
573.26	1294.96
573.61	1291.59
573.96	1289.04
574.31	1285.99
574.67	1282.70
575.02	1279.47
575.37	1276.01
575.72	1272.53
576.08	1269.55
576.43	1266.31
576.78	1263.02
577.13	1260.12
577.49	1256.77
577.84	1253.68
578.19	1250.75
578.54	1248.06
578.90	1245.42
579.25	1241.99
579.60	1238.73
579.95	1234.87
580.30	1231.86
580.66	1229.13
581.01	1226.08
581.36	1222.83
581.71	1219.56
582.06	1216.46
582.42	1213.24
582.77	1209.81
583.12	1206.48
583.47	1203.38
583.82	1200.65
584.17	1197.58
584.53	1194.48
584.88	1191.28
585.23	1187.88
585.58	1184.56
585.93	1181.19
586.28	1177.92
586.63	1174.71
586.98	1171.79
587.34	1169.12
587.69	1165.84
588.04	1162.53
588.39	1159.40
588.74	1155.88
589.09	1152.88
589.44	1149.29
589.79	1146.32
590.14	1143.28
590.49	1140.24
590.84	1136.70
591.19	1133.68
591.54	1130.26
591.89	1126.28
592.25	1123.03
592.60	1119.31
592.95	1115.76
593.30	1111.69
593.65	1107.53
594.00	1103.83
594.35	1101.19
594.70	1097.34
595.05	1093.83
595.40	1090.27
595.75	1086.38
596.10	1083.11
596.45	1079.76
596.80	1076.82
597.15	1073.51
597.50	1070.13
597.85	1066.84
598.19	1063.42
598.54	1059.98
598.89	1056.79
599.24	1053.93
599.59	1050.61
599.94	1048.02
600.29	1044.78
600.64	1042.01
600.99	1038.80
601.34	1035.81
601.69	1031.52
602.04	1028.20
602.39	1024.96
602.74	1021.89
603.08	1019.31
603.43	1016.65
603.78	1013.59
604.13	1010.39
604.48	1007.22
604.83	1004.63
605.18	1001.91
605.53	998.95
605.87	995.50
606.22	992.78
606.57	989.75
606.92	986.66
607.27	983.19
607.62	979.96
607.96	977.15
608.31	974.63
608.66	971.32
609.01	968.13
609.36	964.86
609.70	961.25
610.05	957.61
610.40	954.05
610.75	950.19
611.10	946.87
611.44	942.94
611.79	939.12
612.14	934.96
612.49	930.63
612.83	927.01
613.18	923.20
613.53	919.14
613.88	914.95
614.22	911.05
614.57	907.15
614.92	903.22
615.27	898.99
615.61	894.75
615.96	890.89
616.31	887.22
616.65	883.98
617.00	880.59
617.35	876.78
617.70	872.73
618.04	868.61
618.39	864.08
618.74	860.32
619.08	856.41
619.43	852.53
619.78	848.75
620.12	844.66
620.47	840.90
620.82	836.57
621.16	832.37
621.51	828.43
621.85	824.41
622.20	820.51
622.55	816.45
622.89	812.47
623.24	808.53
623.59	804.46
623.93	800.32
624.28	796.47
624.62	793.04
624.97	789.53
625.32	785.97
625.66	782.56
626.01	778.87
626.35	775.35
626.70	771.77
627.04	768.40
627.39	764.94
627.73	761.57
628.08	758.50
628.43	754.96
628.77	751.12
629.12	747.67
629.46	744.52
629.81	740.94
630.15	737.63
630.50	733.90
630.84	730.13
631.19	726.59
631.53	722.95
631.88	718.90
632.22	715.11
632.57	711.80
632.91	708.30
633.26	704.95
633.60	701.40
633.95	697.95
634.29	694.48
634.64	691.14
634.98	687.38
635.32	683.97
635.67	680.88
636.01	677.73
636.36	674.41
636.70	671.03
637.05	668.07
637.39	664.68
637.73	661.79
638.08	659.20
638.42	656.31
638.77	653.24
639.11	650.26
639.45	646.99
639.80	643.64
640.14	640.30
640.49	637.10
640.83	634.00
641.17	630.96
641.52	627.72
641.86	624.41
642.20	621.46
642.55	618.13
642.89	614.81
643.23	611.66
643.58	608.97
643.92	605.66
644.26	602.37
644.61	599.37
644.95	596.19
645.29	592.85
645.64	589.37
645.98	586.33
646.32	583.39
646.66	580.43
647.01	577.45
647.35	574.80
647.69	571.48
648.04	568.51
648.38	565.36
648.72	562.35
649.06	559.45
649.41	556.24
649.75	553.29
650.09	550.56
650.43	547.49
650.78	544.15
651.12	541.13
651.46	538.23
651.80	535.31
652.14	532.58
652.49	529.81
652.83	527.15
653.17	524.07
653.51	521.05
653.85	518.22
654.20	515.41
654.54	512.27
654.88	509.57
655.22	506.73
655.56	503.85
655.90	501.00
656.25	498.20
656.59	495.56
656.93	492.96
657.27	490.25
657.61	487.63
657.95	485.02
658.29	482.55
658.64	480.06
658.98	477.43
659.32	474.52
659.66	471.88
660.00	469.04
660.34	466.45
660.68	463.86
661.02	461.23
661.36	458.68
661.70	456.23
662.05	453.92
662.39	451.64
662.73	449.46
663.07	447.32
663.41	444.93
663.75	442.61
664.09	440.13
664.43	437.69
664.77	435.34
665.11	432.97
665.45	430.65
665.79	428.44
666.13	426.10
666.47	423.95
666.81	421.66
667.15	419.55
667.49	417.68
667.83	415.80
668.17	413.86
668.51	411.92
668.85	409.97
669.19	408.19
669.53	406.10
669.87	404.09
670.21	402.05
670.55	400.25
670.89	398.50
671.23	396.77
671.57	394.97
671.91	393.19
672.25	391.50
672.58	389.88
672.92	388.10
673.26	386.45
673.60	384.95
673.94	383.29
674.28	381.68
674.62	380.03
674.96	378.33
675.30	376.70
675.64	375.00
675.97	373.39
676.31	371.64
676.65	370.19
676.99	368.80
677.33	367.19
677.67	365.62
678.01	363.95
678.34	362.43
678.68	361.04
679.02	359.47
679.36	357.94
679.70	356.44
680.04	355.00
680.37	353.54
680.71	352.03
681.05	350.77
681.39	349.31
681.73	347.84
682.06	346.53
682.40	345.25
682.74	343.97
683.08	342.84
683.42	341.53
683.75	340.05
684.09	338.56
684.43	337.31
684.77	335.95
685.10	334.70
685.44	333.36
685.78	331.95
686.12	330.88
686.45	329.70
686.79	328.33
687.13	327.17
687.46	326.04
687.80	324.92
688.14	323.55
688.48	322.45
688.81	321.16
689.15	319.91
689.49	318.77
689.82	317.57
690.16	316.17
690.50	314.96
690.83	313.78
691.17	312.46
691.51	311.33
691.84	310.24
692.18	309.11
692.52	308.04
692.85	307.14
693.19	306.19
693.52	305.04
693.86	304.00
694.20	302.88
694.53	301.82
694.87	300.67
695.21	299.65
695.54	298.65
695.88	297.69
696.21	296.59
696.55	295.60
696.88	294.55
697.22	293.59
697.56	292.68
697.89	291.83
698.23	291.15
698.56	290.33
698.90	289.47
699.23	288.57
699.57	287.70
699.90	286.71
700.24	285.63
700.58	284.81
700.91	284.01
701.25	283.41
701.58	282.60
701.92	281.92
702.25	281.19
702.59	280.33
702.92	279.55
703.26	278.84
703.59	278.00
703.93	277.62
704.26	276.95
704.60	276.23
704.93	275.38
705.26	274.59
705.60	273.85
705.93	273.07
706.27	272.53
706.60	271.96
706.94	271.40
707.27	270.83
707.61	270.19
707.94	269.47
708.27	268.65
708.61	267.90
708.94	267.15
709.28	266.53
709.61	265.90
709.94	265.31
710.28	264.79
710.61	264.15
710.95	263.23
711.28	262.80
711.61	262.17
711.95	261.76
712.28	261.15
712.61	260.59
712.95	260.28
713.28	259.77
713.61	259.10
713.95	258.54
714.28	257.98
714.61	257.48
714.95	256.96
715.28	256.29
715.61	255.86
715.95	255.41
716.28	254.81
716.61	254.31
716.95	253.79
717.28	253.23
717.61	252.83
717.94	252.41
718.28	251.79
718.61	251.37
718.94	250.82
719.27	250.33
719.61	249.90
719.94	249.23
720.27	248.63
720.60	248.20
720.94	247.80
721.27	247.36
721.60	246.88
721.93	246.50
722.27	246.32
722.60	245.93
722.93	245.49
723.26	245.19
723.59	244.75
723.93	244.43
724.26	244.13
724.59	243.73
724.92	243.48
725.25	243.18
725.59	242.83
725.92	242.55
726.25	242.28
726.58	241.98
726.91	241.80
727.24	241.64
727.57	241.37
727.91	240.99
728.24	240.75
728.57	240.52
728.90	240.33
729.23	239.88
729.56	239.79
729.89	239.46
730.22	239.18
730.55	238.94
730.89	238.75
731.22	238.41
731.55	238.19
731.88	237.84
732.21	237.52
732.54	237.22
732.87	236.95
733.20	236.71
733.53	236.40
733.86	236.15
734.19	235.74
734.52	235.58
734.85	235.54
735.18	235.30
735.51	235.10
735.84	234.87
736.17	234.73
736.50	234.27
736.83	234.50
737.16	234.27
737.49	234.07
737.82	233.72
738.15	233.55
738.48	233.33
738.81	233.08
739.14	232.79
739.47	232.48
739.80	232.20
740.13	231.98
740.46	231.66
740.79	231.32
741.12	231.10
741.45	230.71
741.78	230.29
742.11	230.09
742.44	229.88
742.77	229.67
743.10	229.38
743.43	229.16
743.75	228.55
744.08	228.78
744.41	228.51
744.74	228.33
745.07	228.06
745.40	227.90
745.73	227.85
746.06	227.66
746.39	227.55
746.71	227.40
747.04	227.16
747.37	227.06
747.70	226.97
748.03	226.85
748.36	226.88
748.68	226.68
749.01	226.40
749.34	226.20
749.67	226.02
750.00	225.89
750.33	225.98
750.65	225.90
750.98	225.30
751.31	225.17
751.64	224.96
751.97	224.98
752.29	224.75
752.62	224.47
752.95	224.30
753.28	224.16
753.60	224.02
753.93	224.02
754.26	223.90
754.59	223.70
754.91	223.44
755.24	223.27
755.57	223.20
755.90	223.13
756.22	222.99
756.55	222.83
756.88	222.63
757.20	222.27
757.53	222.01
757.86	221.85
758.19	221.77
758.51	221.75
758.84	221.49
759.17	221.43
759.49	221.36
759.82	221.44
760.15	221.30
760.47	221.15
760.80	220.90
761.13	220.80
761.45	220.66
761.78	220.63
762.11	220.42
762.43	220.30
762.76	220.12
763.08	220.08
763.41	220.07
763.74	220.01
764.06	219.93
764.39	219.83
764.71	219.81
765.04	219.72
765.37	219.55
765.69	219.50
766.02	219.32
766.34	219.19
766.67	218.95
767.00	218.99
767.32	219.10
767.65	219.23
767.97	219.10
768.30	219.09
768.62	219.06
768.95	218.95
769.27	218.88
769.60	218.95
769.92	218.76
770.25	218.59
770.57	218.44
770.90	218.46
771.22	218.35
771.55	218.21
771.87	218.15
772.20	218.08
772.52	218.27
772.85	218.62
773.17	218.58
773.50	218.51
773.82	218.42
774.15	218.21
774.47	217.91
774.80	217.81
775.12	217.68
775.45	217.59
775.77	217.56
776.09	217.47
776.42	217.29
776.74	217.31
777.07	217.18
777.39	217.19
777.72	217.00
778.04	217.06
778.36	216.93
778.69	216.90
779.01	216.84
779.33	216.44
779.66	216.01
779.98	215.86
780.31	215.86
780.63	215.90
780.95	215.88
781.28	215.84
781.60	215.73
781.92	215.76
782.25	215.64
782.57	215.56
782.89	215.50
783.22	215.46
783.54	215.38
783.86	215.45
784.19	215.41
784.51	215.50
784.83	215.30
785.16	215.27
785.48	215.15
785.80	215.17
786.12	215.17
786.45	215.19
786.77	215.20
787.09	215.05
787.42	214.89
787.74	214.78
788.06	214.85
788.38	214.84
788.71	214.74
789.03	214.78
789.35	214.81
789.67	214.77
789.99	214.81
790.32	214.72
790.64	214.66
790.96	214.92
791.28	214.73
791.61	214.69
791.93	214.78
792.25	214.79
792.57	214.93
792.89	214.89
793.21	214.84
793.54	214.76
793.86	214.75
794.18	214.75
794.50	214.74
794.82	214.75
795.14	214.76
795.47	214.74
795.79	214.70
796.11	214.56
796.43	214.50
796.75	214.48
797.07	214.49
797.39	214.45
797.71	214.16
798.04	214.16
798.36	214.25
798.68	214.16
799.00	214.10
799.32	213.95
799.64	214.01
799.96	213.99
800.28	214.07
800.60	214.09
800.92	214.13
801.24	214.11
801.56	214.00
801.89	214.04
802.21	214.05
802.53	213.99
802.85	214.10
803.17	214.30
803.49	214.20
803.81	214.13
804.13	214.09
804.45	213.98
804.77	214.03
805.09	214.02
805.41	213.93
805.73	213.85
806.05	213.67
806.37	213.55
806.69	213.45
807.01	213.40
807.33	213.26
807.65	213.05
807.97	213.19
808.28	213.18
808.60	213.07
808.92	213.05
809.24	213.25
809.56	213.10
809.88	212.92
810.20	212.86
810.52	212.93
810.84	212.91
811.16	212.85
811.48	212.86
811.80	212.93
812.12	212.93
812.43	213.06
812.75	213.09
813.07	213.09
813.39	213.06
813.71	212.97
814.03	212.96
814.35	212.96
814.67	212.78
814.98	212.69
815.30	212.69
815.62	212.61
815.94	212.36
816.26	212.44
816.58	212.32
816.89	212.32
817.21	212.25
817.53	212.24
817.85	212.25
818.17	212.20
818.48	212.00
818.80	212.10
819.12	212.04
819.44	212.03
819.76	212.03
820.07	212.06
820.39	212.04
820.71	212.12
821.03	212.12
821.34	212.17
821.66	212.24
821.98	212.22
822.30	212.17
822.61	212.38
822.93	212.34
823.25	212.39
823.57	212.38
823.88	212.39
824.20	212.34
824.52	212.49
824.83	212.43
825.15	212.50
825.47	212.48
825.79	212.47
826.10	212.38
826.42	212.25
826.74	212.31
827.05	212.33
827.37	212.30
827.69	212.35
828.00	212.27
828.32	212.18
828.64	212.21
828.95	212.40
829.27	212.32
829.58	212.33
829.90	212.37
830.22	212.40
830.53	212.39
830.85	212.39
831.17	212.17
831.48	212.14
831.80	212.07
832.11	211.97
832.43	211.90
832.75	211.83
833.06	212.08
833.38	211.98
833.69	211.93
834.01	211.97
834.32	211.91
834.64	211.92
834.96	211.94
835.27	211.83
835.59	211.65
835.90	211.47
836.22	211.48
836.53	211.44
836.85	211.41
837.16	211.74
837.48	211.74
837.79	211.92
838.11	211.97
838.42	212.04
838.74	212.17
839.05	212.18
839.37	212.26
839.68	212.11
840.00	212.07
840.31	212.17
840.63	212.09
840.94	212.05
841.26	211.99
841.57	211.97
841.88	212.07
842.20	212.12
842.51	212.17
842.83	212.11
843.14	212.37
843.46	212.36
843.77	212.18
844.08	212.19
844.40	212.07
844.71	212.05
845.03	212.01
845.34	212.04
845.65	212.01
845.97	212.02
846.28	212.00
846.60	212.09
846.91	211.99
847.22	211.97
847.54	212.09
847.85	212.12
848.16	212.12
848.48	212.05
848.79	212.21
849.10	212.34
849.42	212.35
849.73	212.04
850.04	212.04
850.36	211.92
850.67	211.95
850.98	212.01
851.30	212.04
851.61	212.08
851.92	211.95
852.23	212.08
852.55	212.11
852.86	212.08
853.17	212.01
853.49	212.09
853.80	212.26
854.11	212.28
854.42	212.33
854.74	212.34
855.05	212.35
855.36	212.14
855.67	212.06
855.99	212.10
856.30	212.44
856.61	212.41
856.92	212.32
857.23	212.29
857.55	212.21
857.86	212.24
858.17	212.21
858.48	212.22
858.79	212.11
859.11	212.16
859.42	212.27
859.73	212.31
860.04	212.29
860.35	212.13
860.66	212.04
860.98	212.00
861.29	212.03
861.60	212.03
861.91	212.13
862.22	212.14
862.53	212.05
862.84	211.74
863.16	211.81
863.47	211.83
863.78	211.78
864.09	211.78
864.40	211.72
864.71	211.73
865.02	211.84
865.33	211.82
865.64	211.70
865.95	211.61
866.27	211.75
866.58	211.69
866.89	211.73
867.20	211.69
867.51	211.66
867.82	211.64
868.13	211.68
868.44	211.58
868.75	211.61
869.06	211.58
869.37	211.61
869.68	211.55
869.99	211.60
870.30	211.65
870.61	211.65
870.92	211.62
871.23	211.60
871.54	211.51
871.85	211.61
872.16	211.66
872.47	211.58
872.78	211.41
873.09	211.50
873.40	211.48
873.71	211.45
874.02	211.51
874.33	211.45
874.64	211.33
874.95	211.44
875.26	211.32
875.56	211.35
875.87	211.29
876.18	211.35
876.49	211.69
876.80	211.65
877.11	211.65
877.42	211.62
877.73	211.58
878.04	211.58
878.35	211.49
878.66	211.51
878.96	211.65
879.27	211.58
879.58	211.51
879.89	211.47
880.20	211.60
880.51	211.53
880.82	211.52
881.12	211.54
881.43	211.39
881.74	211.31
882.05	211.26
882.36	211.25
882.67	211.23
882.97	210.85
883.28	210.83
883.59	210.78
883.90	210.79
884.21	210.88
884.51	210.77
884.82	210.72
885.13	210.72
885.44	210.56
885.74	210.63
886.05	210.60
886.36	210.65
886.67	210.50
886.98	210.74
887.28	210.78
887.59	210.84
887.90	210.89
888.20	210.90
888.51	211.07
888.82	211.02
889.13	211.04
889.43	211.31
889.74	211.24
890.05	211.25
890.35	211.20
890.66	211.13
890.97	211.14
891.28	211.13
891.58	211.15
891.89	211.25
892.20	211.20
892.50	211.17
892.81	211.14
893.12	211.11
893.42	210.83
893.73	210.87
894.04	210.91
894.34	210.89
894.65	210.94
894.95	210.79
895.26	210.83
895.57	210.98
895.87	210.60
896.18	210.71
896.48	210.78
896.79	210.83
897.10	210.87
897.40	210.87
897.71	210.87
898.01	210.80
898.32	210.81
898.63	210.77
898.93	210.86
899.24	210.81
899.54	210.87
899.85	210.93
900.15	210.89
900.46	210.84
900.76	210.91
901.07	210.90
901.38	210.95
901.68	211.00
901.99	210.81
902.29	210.92
902.60	210.96
902.90	210.88
903.21	210.83
903.51	210.77
903.82	210.88
904.12	210.92
904.43	211.00
904.73	211.02
905.03	211.07
905.34	211.40
905.64	211.46
905.95	211.47
906.25	211.47
906.56	211.45
906.86	211.48
907.17	211.46
907.47	211.48
907.77	211.48
908.08	211.41
908.38	211.41
908.69	211.41
908.99	211.43
909.30	211.55
909.60	211.61
909.90	211.73
910.21	211.59
910.51	211.55
910.81	211.55
911.12	211.50
911.42	211.51
911.73	211.16
912.03	211.10
912.33	211.08
912.64	211.07
912.94	211.10
913.24	211.00
913.55	210.95
913.85	210.98
914.15	211.06
914.46	211.14
914.76	211.08
915.06	211.08
915.37	211.00
915.67	210.89
915.97	210.89
916.27	210.73
916.58	210.82
916.88	210.78
917.18	210.83
917.49	211.08
917.79	211.06
918.09	211.01
918.39	211.19
918.70	211.23
919.00	211.19
919.30	211.25
919.60	211.30
919.91	211.27
920.21	211.24
920.51	211.10
920.81	211.08
921.12	211.19
921.42	211.21
921.72	211.20
922.02	211.20
922.32	211.29
922.63	211.38
922.93	211.56
923.23	211.59
923.53	211.49
923.83	211.22
924.13	211.29
924.44	211.34
924.74	211.34
925.04	211.42
925.34	211.40
925.64	211.40
925.94	211.37
926.24	211.57
926.55	211.55
926.85	211.67
927.15	211.66
927.45	211.70
927.75	211.69
928.05	211.74
928.35	211.76
928.65	211.74
928.95	211.72
929.26	211.56
929.56	211.66
929.86	211.73
930.16	211.71
930.46	211.68
930.76	211.70
931.06	211.48
931.36	211.35
931.66	211.45
931.96	211.42
932.26	211.46
932.56	211.25
932.86	211.35
933.16	211.27
933.46	211.24
933.76	211.15
934.06	211.28
934.36	211.40
934.66	211.34
934.96	211.33
935.26	211.34
935.56	211.37
935.86	211.31
936.16	211.26
936.46	211.21
936.76	211.19
937.06	211.16
937.36	211.22
937.66	211.28
937.96	211.27
938.26	211.21
938.56	211.19
938.86	211.21
939.16	211.26
939.46	211.30
939.76	211.32
940.06	211.33
940.35	211.21
940.65	211.02
940.95	211.02
941.25	210.96
941.55	210.87
941.85	210.90
942.15	210.91
942.45	211.02
942.75	211.06
943.04	211.00
943.34	211.05
943.64	211.03
943.94	210.94
944.24	210.98
944.54	211.00
944.84	211.00
945.13	210.96
945.43	210.90
945.73	210.90
946.03	210.90
946.33	210.86
946.62	210.79
946.92	210.79
947.22	210.87
947.52	210.89
947.82	210.96
948.11	210.90
948.41	210.81
948.71	210.70
949.01	210.75
949.31	210.77
949.60	210.77
949.90	210.85
950.20	210.90
950.50	210.76
950.79	210.75
951.09	210.77
951.39	210.76
951.69	210.64
951.98	210.66
952.28	210.64
952.58	210.59
952.87	210.62
953.17	210.65
953.47	210.63
953.76	210.57
954.06	210.51
954.36	210.45
954.66	210.52
954.95	210.54
955.25	210.58
955.55	210.65
955.84	210.58
956.14	210.54
956.44	210.52
956.73	210.53
957.03	210.52
957.32	210.50
957.62	210.54
957.92	210.62
958.21	210.61
958.51	210.97
958.81	211.02
959.10	211.00
959.40	211.08
959.69	211.00
959.99	211.12
960.29	211.17
960.58	211.13
960.88	211.26
961.17	211.26
961.47	211.27
961.76	211.25
962.06	211.37
962.36	211.38
962.65	211.40
962.95	211.51
963.24	211.45
963.54	211.55
963.83	211.63
964.13	211.60
964.42	211.54
964.72	211.29
965.01	211.32
965.31	211.36
965.60	211.33
965.90	211.60
966.19	211.51
966.49	211.56
966.78	211.57
967.08	211.57
967.37	211.64
967.67	211.58
967.96	211.63
968.26	211.60
968.55	211.63
968.85	211.62
969.14	211.57
969.43	211.60
969.73	211.55
970.02	211.49
970.32	211.57
970.61	211.58
970.91	211.50
971.20	211.55
971.49	211.55
971.79	211.54
972.08	211.28
972.38	211.31
972.67	211.28
972.96	211.38
973.26	211.26
973.55	211.32
973.85	211.32
974.14	211.29
974.43	211.28
974.73	211.20
975.02	211.22
975.31	211.20
975.61	211.17
975.90	211.11
976.19	211.13
976.49	211.13
976.78	211.19
977.07	211.25
977.37	211.22
977.66	211.24
977.95	211.17
978.24	211.22
978.54	211.33
978.83	211.32
979.12	211.26
979.42	211.26
979.71	211.21
980.00	211.21
980.29	211.28
980.59	211.22
980.88	211.35
981.17	211.31
981.46	211.29
981.76	211.29
982.05	211.44
982.34	211.43
982.63	211.46
982.93	211.42
983.22	211.48
983.51	211.48
983.80	211.54
984.09	211.69
984.39	211.65
984.68	211.57
984.97	211.56
985.26	211.54
985.55	211.58
985.85	211.49
986.14	211.55
986.43	211.47
986.72	211.45
987.01	211.35
987.30	211.41
987.59	211.45
987.89	211.48
988.18	211.37
988.47	211.31
988.76	211.26
989.05	211.20
989.34	211.16
989.63	211.19
989.92	211.13
990.22	211.00
990.51	210.95
990.80	210.89
991.09	210.95
991.38	211.03
991.67	210.88
991.96	210.82
992.25	210.79
992.54	210.75
992.83	210.78
993.12	210.74
993.41	210.75
993.70	210.81
993.99	210.91
994.28	210.90
994.58	210.92
994.87	210.83
995.16	210.81
995.45	210.76
995.74	210.62
996.03	210.66
996.32	210.73
996.61	210.88
996.90	210.86
997.19	210.80
997.48	210.77
997.77	210.87
998.06	210.92
998.34	210.92
998.63	210.88
998.92	210.92
999.21	210.93
999.50	210.95
999.79	210.87
1000.08	210.84
1000.37	210.87
1000.66	210.87
1000.95	210.98
1001.24	211.05
1001.53	211.13
1001.82	211.12
1002.11	211.02
1002.40	211.00
1002.68	211.00
1002.97	211.28
1003.26	211.27
1003.55	211.25
1003.84	211.26
1004.13	211.40
1004.42	211.35
1004.71	211.40
1004.99	211.36
1005.28	211.47
1005.57	211.42
1005.86	211.38
1006.15	211.27
1006.44	211.18
1006.72	211.24
1007.01	211.25
1007.30	211.18
1007.59	211.18
1007.88	211.27
1008.17	211.25
1008.45	211.27
1008.74	211.20
1009.03	211.04
1009.32	211.00
1009.60	210.96
1009.89	210.95
1010.18	210.77
1010.47	210.77
1010.76	210.85
1011.04	210.84
1011.33	210.79
1011.62	210.80
1011.91	210.83
1012.19	210.92
1012.48	210.95
1012.77	210.88
1013.05	210.99
1013.34	211.08
1013.63	211.03
1013.92	211.04
1014.20	211.06
1014.49	211.07
1014.78	211.11
1015.06	211.00
1015.35	211.05
1015.64	211.11
1015.92	211.23
1016.21	211.30
1016.50	211.28
1016.78	211.24
1017.07	211.26
1017.36	211.28
1017.64	211.29
1017.93	211.33
1018.22	211.27
1018.50	211.27
1018.79	211.34
1019.08	211.22
1019.36	211.21
1019.65	211.13
1019.93	211.21
1020.22	211.22
1020.51	211.40
1020.79	211.30
1021.08	210.15
1021.36	210.15
1021.65	211.60
1021.94	211.75
1022.22	211.35
1022.51	209.95
1022.79	213.25
1023.08	210.70
1023.36	215.70
1023.65	210.00
>>>>>End Processed Spectral Data<<<<<
