SpectraSuite Data File
++++++++++++++++++++++++++++++++++++
Date: Mon Feb 25 16:56:42 EST 2013
User: group
Dark Spectrum Present: No
Reference Spectrum Present: No
Number of Sampled Component Spectra: 1
Spectrometers: USB2E7196
Integration Time (usec): 104000 (USB2E7196)
Spectra Averaged: 20 (USB2E7196)
Boxcar Smoothing: 10 (USB2E7196)
Correct for Electrical Dark: No (USB2E7196)
Strobe/Lamp Enabled: No (USB2E7196)
Correct for Detector Non-linearity: No (USB2E7196)
Correct for Stray Light: No (USB2E7196)
Number of Pixels in Processed Spectrum: 2048
>>>>>Begin Processed Spectral Data<<<<<
339.09	0.00
339.48	198.05
339.86	199.35
340.24	201.90
340.63	203.15
341.01	210.00
341.39	206.65
341.78	206.85
342.16	209.05
342.54	208.40
342.93	198.43
343.31	208.52
343.69	209.11
344.07	209.66
344.46	210.09
344.84	210.51
345.22	210.61
345.60	210.89
345.99	211.12
346.37	211.29
346.75	211.40
347.13	211.53
347.52	211.61
347.90	211.76
348.28	211.75
348.66	211.91
349.05	211.79
349.43	211.95
349.81	212.05
350.19	212.01
350.57	212.15
350.96	212.37
351.34	212.39
351.72	212.49
352.10	212.61
352.48	212.70
352.87	212.74
353.25	212.82
353.63	212.77
354.01	212.75
354.39	212.84
354.77	212.99
355.15	213.19
355.54	213.22
355.92	213.14
356.30	213.23
356.68	213.48
357.06	213.59
357.44	213.49
357.82	213.47
358.20	213.65
358.58	213.66
358.97	213.65
359.35	213.76
359.73	213.91
360.11	213.94
360.49	213.97
360.87	214.04
361.25	214.09
361.63	214.32
362.01	214.39
362.39	214.34
362.77	214.36
363.15	214.32
363.53	214.31
363.91	214.39
364.29	214.35
364.67	214.10
365.05	214.02
365.43	214.08
365.81	214.19
366.19	214.27
366.57	214.39
366.95	214.36
367.33	214.27
367.71	214.20
368.09	214.20
368.47	214.22
368.85	214.17
369.23	214.21
369.61	214.03
369.99	214.12
370.37	214.18
370.75	214.24
371.13	214.11
371.51	214.06
371.89	214.02
372.27	214.07
372.65	214.01
373.03	214.06
373.41	214.00
373.78	213.89
374.16	213.69
374.54	213.53
374.92	213.45
375.30	213.37
375.68	213.31
376.06	213.30
376.44	213.20
376.82	213.16
377.19	213.09
377.57	213.07
377.95	212.96
378.33	212.87
378.71	212.68
379.09	212.68
379.47	212.66
379.84	212.61
380.22	212.48
380.60	212.43
380.98	212.37
381.36	212.33
381.73	212.29
382.11	212.35
382.49	212.31
382.87	212.20
383.25	212.20
383.62	212.52
384.00	212.44
384.38	212.47
384.76	212.51
385.13	212.58
385.51	212.54
385.89	212.36
386.27	212.30
386.64	212.34
387.02	212.31
387.40	212.26
387.78	212.30
388.15	212.31
388.53	212.27
388.91	212.25
389.29	212.20
389.66	212.17
390.04	212.10
390.42	212.16
390.79	212.19
391.17	212.15
391.55	211.85
391.92	211.84
392.30	211.90
392.68	211.75
393.05	211.65
393.43	211.65
393.81	211.74
394.18	211.73
394.56	211.66
394.94	211.75
395.31	211.67
395.69	211.76
396.06	211.85
396.44	211.86
396.82	211.83
397.19	212.08
397.57	212.10
397.95	212.15
398.32	212.02
398.70	212.09
399.07	212.22
399.45	212.19
399.82	212.25
400.20	212.16
400.58	212.27
400.95	212.29
401.33	212.43
401.70	212.82
402.08	212.93
402.45	213.17
402.83	213.42
403.20	213.65
403.58	213.74
403.95	213.98
404.33	214.21
404.71	214.46
405.08	214.82
405.46	215.07
405.83	215.34
406.21	215.76
406.58	216.18
406.96	216.54
407.33	216.94
407.70	217.41
408.08	218.28
408.45	218.86
408.83	219.54
409.20	220.15
409.58	220.56
409.95	221.40
410.33	222.11
410.70	222.74
411.08	223.70
411.45	224.71
411.82	225.57
412.20	226.70
412.57	228.08
412.95	228.95
413.32	230.38
413.69	231.85
414.07	233.31
414.44	234.88
414.82	236.54
415.19	238.50
415.56	240.43
415.94	242.31
416.31	244.65
416.68	246.92
417.06	249.60
417.43	252.16
417.81	255.00
418.18	258.04
418.55	261.20
418.93	264.60
419.30	268.13
419.67	271.86
420.04	275.67
420.42	279.77
420.79	284.55
421.16	289.26
421.54	294.24
421.91	299.40
422.28	304.68
422.66	310.39
423.03	316.01
423.40	321.85
423.77	328.07
424.15	334.35
424.52	340.99
424.89	348.18
425.26	355.26
425.64	362.03
426.01	369.40
426.38	377.28
426.75	385.12
427.13	393.25
427.50	401.84
427.87	410.88
428.24	419.76
428.61	428.37
428.99	437.82
429.36	447.84
429.73	457.87
430.10	467.95
430.47	478.30
430.85	489.05
431.22	500.37
431.59	512.57
431.96	524.23
432.33	537.19
432.70	549.66
433.08	564.41
433.45	578.36
433.82	592.16
434.19	607.52
434.56	622.71
434.93	637.57
435.30	652.51
435.68	668.80
436.05	685.02
436.42	701.31
436.79	716.28
437.16	732.56
437.53	749.80
437.90	766.94
438.27	783.62
438.64	801.17
439.01	817.76
439.38	832.39
439.75	846.57
440.13	862.72
440.50	878.15
440.87	890.85
441.24	904.09
441.61	918.81
441.98	930.04
442.35	943.03
442.72	955.92
443.09	968.31
443.46	976.50
443.83	982.38
444.20	987.59
444.57	994.80
444.94	998.91
445.31	1003.07
445.68	1007.00
446.05	1009.62
446.42	1009.40
446.79	1008.55
447.16	1007.72
447.53	1007.65
447.90	1002.76
448.27	997.93
448.64	990.49
449.01	985.25
449.37	975.47
449.74	965.91
450.11	954.00
450.48	941.02
450.85	927.92
451.22	916.67
451.59	905.91
451.96	895.66
452.33	881.48
452.70	868.66
453.07	853.10
453.43	837.29
453.80	822.23
454.17	807.68
454.54	794.04
454.91	779.20
455.28	764.64
455.65	751.21
456.02	737.55
456.38	726.03
456.75	711.70
457.12	699.43
457.49	687.45
457.86	675.95
458.23	666.01
458.59	654.96
458.96	643.95
459.33	634.21
459.70	624.44
460.07	616.60
460.43	607.79
460.80	599.30
461.17	592.02
461.54	584.29
461.91	576.85
462.27	569.23
462.64	563.01
463.01	555.99
463.38	549.15
463.74	542.28
464.11	536.33
464.48	531.24
464.85	525.72
465.21	521.37
465.58	516.72
465.95	511.10
466.32	506.53
466.68	501.87
467.05	497.26
467.42	492.55
467.78	487.75
468.15	483.02
468.52	479.73
468.88	475.24
469.25	471.11
469.62	467.79
469.98	464.40
470.35	461.09
470.72	457.93
471.08	454.58
471.45	451.88
471.82	449.07
472.18	445.88
472.55	443.61
472.92	440.94
473.28	438.64
473.65	436.28
474.02	434.03
474.38	432.21
474.75	430.64
475.11	428.87
475.48	427.52
475.85	426.33
476.21	425.06
476.58	424.11
476.94	423.48
477.31	422.72
477.67	421.80
478.04	421.08
478.41	420.77
478.77	420.67
479.14	420.15
479.50	419.97
479.87	420.20
480.23	420.26
480.60	420.15
480.96	420.20
481.33	420.88
481.69	421.55
482.06	421.82
482.42	422.12
482.79	422.85
483.15	423.75
483.52	424.94
483.88	426.00
484.25	427.05
484.61	428.14
484.98	429.29
485.34	431.01
485.71	432.78
486.07	434.53
486.44	436.13
486.80	438.15
487.17	440.37
487.53	442.65
487.90	445.17
488.26	448.02
488.62	450.92
488.99	453.61
489.35	456.29
489.72	459.63
490.08	463.08
490.44	466.41
490.81	469.90
491.17	473.39
491.54	477.21
491.90	481.14
492.26	485.34
492.63	489.61
492.99	494.03
493.36	498.65
493.72	503.64
494.08	508.58
494.45	513.84
494.81	519.22
495.17	524.55
495.54	530.29
495.90	536.09
496.26	541.99
496.63	548.16
496.99	554.60
497.35	561.02
497.72	567.57
498.08	574.31
498.44	581.31
498.80	588.58
499.17	595.85
499.53	603.29
499.89	610.93
500.26	618.55
500.62	625.91
500.98	633.71
501.34	641.32
501.71	649.61
502.07	657.52
502.43	665.66
502.79	673.83
503.16	681.99
503.52	690.30
503.88	698.47
504.24	706.78
504.60	715.17
504.97	723.78
505.33	732.48
505.69	741.47
506.05	750.19
506.41	758.74
506.78	767.17
507.14	775.72
507.50	784.32
507.86	792.96
508.22	801.68
508.59	810.05
508.95	818.69
509.31	827.05
509.67	835.59
510.03	844.00
510.39	852.64
510.75	861.23
511.12	869.71
511.48	878.13
511.84	886.72
512.20	894.87
512.56	903.39
512.92	911.61
513.28	919.64
513.64	927.25
514.00	935.17
514.37	943.13
514.73	951.07
515.09	958.96
515.45	966.72
515.81	974.40
516.17	981.70
516.53	988.85
516.89	995.91
517.25	1002.89
517.61	1009.63
517.97	1016.15
518.33	1022.36
518.69	1028.69
519.05	1035.11
519.41	1041.26
519.77	1047.90
520.13	1053.56
520.49	1059.22
520.85	1064.77
521.21	1070.62
521.57	1076.28
521.93	1081.55
522.29	1086.95
522.65	1092.02
523.01	1097.20
523.37	1101.68
523.73	1106.69
524.09	1111.35
524.45	1116.02
524.81	1120.94
525.17	1125.90
525.53	1130.75
525.89	1135.40
526.25	1139.80
526.61	1143.62
526.97	1147.61
527.33	1151.56
527.68	1155.67
528.04	1159.41
528.40	1163.12
528.76	1166.94
529.12	1170.96
529.48	1174.99
529.84	1178.47
530.20	1182.00
530.56	1185.31
530.91	1189.58
531.27	1193.37
531.63	1196.89
531.99	1200.46
532.35	1203.32
532.71	1206.28
533.07	1209.68
533.42	1212.74
533.78	1216.03
534.14	1219.58
534.50	1222.25
534.86	1225.29
535.21	1227.97
535.57	1231.20
535.93	1233.88
536.29	1236.59
536.65	1239.01
537.00	1241.46
537.36	1243.80
537.72	1245.83
538.08	1248.10
538.44	1250.27
538.79	1252.53
539.15	1254.93
539.51	1257.23
539.87	1259.75
540.22	1261.95
540.58	1264.34
540.94	1266.71
541.29	1268.30
541.65	1269.65
542.01	1271.77
542.37	1273.20
542.72	1275.06
543.08	1276.42
543.44	1278.52
543.79	1279.73
544.15	1281.02
544.51	1282.70
544.87	1284.49
545.22	1286.16
545.58	1287.53
545.94	1288.27
546.29	1288.98
546.65	1289.68
547.01	1290.42
547.36	1291.28
547.72	1291.90
548.07	1292.02
548.43	1292.17
548.79	1292.25
549.14	1292.83
549.50	1293.31
549.86	1293.68
550.21	1293.97
550.57	1294.65
550.92	1294.44
551.28	1294.79
551.64	1295.15
551.99	1295.25
552.35	1295.37
552.70	1295.31
553.06	1295.35
553.41	1295.50
553.77	1295.98
554.13	1296.29
554.48	1296.64
554.84	1297.05
555.19	1297.32
555.55	1297.75
555.90	1297.83
556.26	1298.16
556.61	1298.22
556.97	1297.83
557.32	1297.88
557.68	1297.31
558.03	1296.71
558.39	1296.44
558.74	1296.30
559.10	1295.74
559.45	1295.32
559.81	1295.01
560.16	1294.36
560.52	1294.04
560.87	1293.74
561.23	1292.82
561.58	1292.31
561.94	1291.55
562.29	1290.25
562.64	1289.69
563.00	1288.62
563.35	1288.17
563.71	1288.20
564.06	1287.72
564.42	1287.66
564.77	1287.27
565.12	1287.17
565.48	1287.01
565.83	1286.65
566.19	1286.57
566.54	1286.01
566.89	1285.21
567.25	1284.85
567.60	1284.75
567.96	1284.59
568.31	1284.24
568.66	1283.75
569.02	1282.91
569.37	1281.73
569.72	1281.16
570.08	1280.12
570.43	1279.12
570.78	1277.81
571.14	1275.92
571.49	1274.22
571.84	1272.72
572.20	1270.75
572.55	1268.97
572.90	1267.00
573.26	1264.85
573.61	1262.35
573.96	1260.23
574.31	1258.02
574.67	1255.14
575.02	1252.21
575.37	1249.05
575.72	1245.98
576.08	1243.31
576.43	1240.32
576.78	1237.72
577.13	1235.05
577.49	1232.31
577.84	1229.51
578.19	1227.00
578.54	1224.70
578.90	1222.87
579.25	1219.98
579.60	1216.93
579.95	1213.66
580.30	1210.79
580.66	1208.23
581.01	1205.28
581.36	1202.08
581.71	1199.00
582.06	1196.01
582.42	1193.20
582.77	1189.92
583.12	1186.69
583.47	1183.35
583.82	1180.25
584.17	1176.85
584.53	1173.68
584.88	1170.10
585.23	1166.65
585.58	1162.83
585.93	1158.95
586.28	1155.13
586.63	1151.84
586.98	1148.75
587.34	1146.02
587.69	1142.30
588.04	1138.62
588.39	1135.31
588.74	1131.60
589.09	1128.30
589.44	1124.36
589.79	1120.82
590.14	1117.60
590.49	1114.02
590.84	1110.55
591.19	1107.43
591.54	1103.97
591.89	1099.57
592.25	1096.17
592.60	1092.32
592.95	1088.59
593.30	1084.55
593.65	1080.22
594.00	1075.83
594.35	1072.75
594.70	1068.26
595.05	1064.56
595.40	1060.58
595.75	1056.30
596.10	1052.88
596.45	1048.90
596.80	1045.56
597.15	1041.90
597.50	1037.70
597.85	1034.01
598.19	1030.00
598.54	1025.88
598.89	1021.90
599.24	1018.94
599.59	1015.05
599.94	1011.35
600.29	1007.53
600.64	1003.95
600.99	1000.13
601.34	996.59
601.69	991.83
602.04	987.87
602.39	983.79
602.74	980.03
603.08	976.65
603.43	973.28
603.78	969.30
604.13	965.26
604.48	961.44
604.83	958.35
605.18	954.89
605.53	951.00
605.87	947.23
606.22	943.63
606.57	939.35
606.92	935.17
607.27	931.37
607.62	927.58
607.96	923.86
608.31	920.45
608.66	916.69
609.01	912.60
609.36	908.88
609.70	904.77
610.05	900.61
610.40	896.42
610.75	891.84
611.10	888.22
611.44	883.79
611.79	879.42
612.14	874.89
612.49	870.33
612.83	866.45
613.18	862.00
613.53	857.59
613.88	853.19
614.22	848.98
614.57	844.78
614.92	840.70
615.27	836.28
615.61	831.82
615.96	827.54
616.31	823.57
616.65	819.81
617.00	815.97
617.35	812.04
617.70	807.79
618.04	803.45
618.39	798.78
618.74	794.98
619.08	790.61
619.43	786.56
619.78	782.72
620.12	778.73
620.47	775.06
620.82	770.83
621.16	766.60
621.51	762.71
621.85	758.73
622.20	754.54
622.55	750.64
622.89	746.53
623.24	742.46
623.59	738.30
623.93	734.19
624.28	730.31
624.62	726.60
624.97	722.92
625.32	719.27
625.66	715.76
626.01	712.02
626.35	708.58
626.70	704.66
627.04	700.97
627.39	697.20
627.73	693.59
628.08	690.59
628.43	687.25
628.77	683.65
629.12	679.85
629.46	676.59
629.81	673.32
630.15	669.78
630.50	666.35
630.84	662.95
631.19	659.39
631.53	656.00
631.88	652.34
632.22	648.71
632.57	645.58
632.91	642.23
633.26	638.93
633.60	635.61
633.95	632.54
634.29	629.39
634.64	626.25
634.98	622.76
635.32	619.46
635.67	616.54
636.01	613.46
636.36	610.49
636.70	607.65
637.05	604.54
637.39	601.68
637.73	598.84
638.08	596.37
638.42	593.76
638.77	591.02
639.11	588.29
639.45	585.67
639.80	582.61
640.14	579.57
640.49	576.74
640.83	573.92
641.17	571.09
641.52	568.00
641.86	565.10
642.20	562.45
642.55	559.41
642.89	556.43
643.23	553.58
643.58	551.07
643.92	547.98
644.26	545.16
644.61	542.52
644.95	539.74
645.29	536.84
645.64	533.98
645.98	531.16
646.32	528.48
646.66	525.59
647.01	522.97
647.35	520.56
647.69	517.84
648.04	515.33
648.38	512.64
648.72	510.14
649.06	507.57
649.41	504.80
649.75	502.20
650.09	499.71
650.43	497.15
650.78	494.30
651.12	491.72
651.46	489.26
651.80	486.87
652.14	484.45
652.49	482.02
652.83	479.61
653.17	476.91
653.51	474.45
653.85	472.25
654.20	469.91
654.54	467.35
654.88	464.92
655.22	462.57
655.56	460.03
655.90	457.53
656.25	455.05
656.59	452.83
656.93	450.57
657.27	448.35
657.61	446.00
657.95	443.81
658.29	441.70
658.64	439.64
658.98	437.25
659.32	434.88
659.66	432.57
660.00	430.23
660.34	428.05
660.68	425.86
661.02	423.40
661.36	421.27
661.70	419.29
662.05	417.26
662.39	415.26
662.73	413.60
663.07	411.95
663.41	410.16
663.75	408.18
664.09	406.26
664.43	404.18
664.77	402.53
665.11	400.57
665.45	398.70
665.79	396.75
666.13	395.09
666.47	393.32
666.81	391.52
667.15	389.74
667.49	388.26
667.83	386.64
668.17	385.13
668.51	383.48
668.85	381.88
669.19	380.59
669.53	378.81
669.87	377.05
670.21	375.28
670.55	373.64
670.89	372.33
671.23	370.84
671.57	369.50
671.91	367.90
672.25	366.44
672.58	364.96
672.92	363.53
673.26	362.06
673.60	360.72
673.94	359.36
674.28	358.07
674.62	356.74
674.96	355.34
675.30	354.02
675.64	352.60
675.97	351.26
676.31	349.66
676.65	348.29
676.99	347.15
677.33	345.90
677.67	344.59
678.01	343.13
678.34	342.03
678.68	340.83
679.02	339.67
679.36	338.47
679.70	337.24
680.04	335.89
680.37	334.59
680.71	333.35
681.05	332.15
681.39	330.89
681.73	329.63
682.06	328.55
682.40	327.49
682.74	326.50
683.08	325.48
683.42	324.37
683.75	323.47
684.09	322.17
684.43	320.99
684.77	319.86
685.10	318.83
685.44	317.54
685.78	316.34
686.12	315.28
686.45	314.14
686.79	313.07
687.13	312.20
687.46	311.26
687.80	310.34
688.14	309.28
688.48	308.39
688.81	307.48
689.15	306.49
689.49	305.39
689.82	304.40
690.16	303.23
690.50	302.25
690.83	301.22
691.17	300.20
691.51	299.29
691.84	298.43
692.18	297.40
692.52	296.60
692.85	295.79
693.19	294.96
693.52	294.13
693.86	293.11
694.20	292.17
694.53	291.31
694.87	290.40
695.21	289.52
695.54	288.62
695.88	287.58
696.21	286.66
696.55	285.92
696.88	285.05
697.22	284.27
697.56	283.59
697.89	282.77
698.23	282.05
698.56	281.27
698.90	280.50
699.23	279.81
699.57	278.97
699.90	278.13
700.24	277.29
700.58	276.56
700.91	275.98
701.25	275.56
701.58	274.98
701.92	274.29
702.25	273.68
702.59	273.08
702.92	272.54
703.26	271.87
703.59	271.14
703.93	270.85
704.26	270.26
704.60	269.65
704.93	269.03
705.26	268.44
705.60	267.91
705.93	267.27
706.27	266.71
706.60	266.30
706.94	265.87
707.27	265.24
707.61	264.64
707.94	264.08
708.27	263.23
708.61	262.54
708.94	261.90
709.28	261.30
709.61	260.64
709.94	260.05
710.28	259.56
710.61	259.21
710.95	258.30
711.28	258.00
711.61	257.40
711.95	257.00
712.28	256.46
712.61	255.94
712.95	255.61
713.28	255.33
713.61	254.74
713.95	254.30
714.28	253.91
714.61	253.40
714.95	252.90
715.28	252.46
715.61	252.05
715.95	251.79
716.28	251.36
716.61	251.01
716.95	250.61
717.28	250.15
717.61	249.69
717.94	249.36
718.28	248.70
718.61	248.32
718.94	247.88
719.27	247.47
719.61	247.12
719.94	246.71
720.27	246.16
720.60	245.73
720.94	245.21
721.27	244.87
721.60	244.62
721.93	244.26
722.27	244.05
722.60	243.73
722.93	243.33
723.26	243.03
723.59	242.70
723.93	242.35
724.26	242.05
724.59	241.68
724.92	241.36
725.25	241.24
725.59	240.88
725.92	240.59
726.25	240.34
726.58	240.06
726.91	239.76
727.24	239.48
727.57	239.20
727.91	238.88
728.24	238.69
728.57	238.35
728.90	238.12
729.23	237.71
729.56	237.64
729.89	237.24
730.22	236.99
730.55	236.71
730.89	236.50
731.22	236.19
731.55	235.85
731.88	235.64
732.21	235.27
732.54	234.99
732.87	234.71
733.20	234.48
733.53	234.21
733.86	233.92
734.19	233.66
734.52	233.45
734.85	233.45
735.18	233.23
735.51	233.12
735.84	232.91
736.17	232.81
736.50	232.30
736.83	232.47
737.16	232.21
737.49	231.98
737.82	231.75
738.15	231.60
738.48	231.54
738.81	231.25
739.14	231.02
739.47	230.91
739.80	230.69
740.13	230.53
740.46	230.25
740.79	230.07
741.12	229.91
741.45	229.73
741.78	229.40
742.11	229.28
742.44	229.03
742.77	228.88
743.10	228.61
743.43	228.45
743.75	228.04
744.08	228.35
744.41	228.20
744.74	228.00
745.07	227.81
745.40	227.65
745.73	227.70
746.06	227.53
746.39	227.36
746.71	227.21
747.04	227.07
747.37	226.94
747.70	226.87
748.03	226.60
748.36	226.48
748.68	226.33
749.01	226.05
749.34	225.94
749.67	225.86
750.00	225.75
750.33	225.93
750.65	225.79
750.98	225.20
751.31	225.02
751.64	224.91
751.97	225.01
752.29	224.81
752.62	224.54
752.95	224.36
753.28	224.21
753.60	224.15
753.93	224.09
754.26	223.98
754.59	223.68
754.91	223.53
755.24	223.41
755.57	223.26
755.90	223.16
756.22	223.07
756.55	222.84
756.88	222.68
757.20	222.34
757.53	222.15
757.86	222.00
758.19	221.96
758.51	221.85
758.84	221.57
759.17	221.47
759.49	221.30
759.82	221.39
760.15	221.32
760.47	221.10
760.80	220.85
761.13	220.77
761.45	220.68
761.78	220.69
762.11	220.60
762.43	220.50
762.76	220.37
763.08	220.23
763.41	220.18
763.74	220.17
764.06	220.16
764.39	220.01
764.71	220.05
765.04	219.93
765.37	219.85
765.69	219.70
766.02	219.61
766.34	219.54
766.67	219.33
767.00	219.30
767.32	219.43
767.65	219.61
767.97	219.60
768.30	219.60
768.62	219.54
768.95	219.44
769.27	219.33
769.60	219.31
769.92	219.16
770.25	218.98
770.57	218.75
770.90	218.54
771.22	218.47
771.55	218.33
771.87	218.28
772.20	218.16
772.52	218.41
772.85	218.71
773.17	218.67
773.50	218.60
773.82	218.47
774.15	218.25
774.47	217.92
774.80	217.80
775.12	217.63
775.45	217.51
775.77	217.51
776.09	217.53
776.42	217.42
776.74	217.51
777.07	217.48
777.39	217.43
777.72	217.36
778.04	217.38
778.36	217.27
778.69	217.17
779.01	217.17
779.33	216.78
779.66	216.36
779.98	216.27
780.31	216.22
780.63	216.26
780.95	216.27
781.28	216.21
781.60	216.10
781.92	216.11
782.25	216.09
782.57	215.95
782.89	215.85
783.22	215.84
783.54	215.72
783.86	215.78
784.19	215.76
784.51	215.83
784.83	215.75
785.16	215.68
785.48	215.73
785.80	215.70
786.12	215.68
786.45	215.58
786.77	215.58
787.09	215.51
787.42	215.37
787.74	215.29
788.06	215.27
788.38	215.28
788.71	215.24
789.03	215.21
789.35	215.28
789.67	215.21
789.99	215.22
790.32	215.16
790.64	215.05
790.96	215.30
791.28	215.15
791.61	215.14
791.93	215.15
792.25	215.04
792.57	215.23
792.89	215.20
793.21	215.24
793.54	215.22
793.86	215.24
794.18	215.29
794.50	215.25
794.82	215.23
795.14	215.18
795.47	215.20
795.79	215.19
796.11	215.00
796.43	214.95
796.75	214.88
797.07	214.80
797.39	214.76
797.71	214.50
798.04	214.48
798.36	214.48
798.68	214.51
799.00	214.52
799.32	214.32
799.64	214.43
799.96	214.36
800.28	214.44
800.60	214.39
800.92	214.36
801.24	214.27
801.56	214.33
801.89	214.31
802.21	214.32
802.53	214.23
802.85	214.37
803.17	214.49
803.49	214.44
803.81	214.49
804.13	214.42
804.45	214.26
804.77	214.25
805.09	214.21
805.41	214.05
805.73	213.98
806.05	213.92
806.37	213.77
806.69	213.71
807.01	213.55
807.33	213.55
807.65	213.42
807.97	213.66
808.28	213.58
808.60	213.52
808.92	213.38
809.24	213.59
809.56	213.44
809.88	213.33
810.20	213.24
810.52	213.24
810.84	213.20
811.16	213.17
811.48	213.13
811.80	213.20
812.12	213.25
812.43	213.32
812.75	213.29
813.07	213.21
813.39	213.25
813.71	213.20
814.03	213.02
814.35	212.98
814.67	212.77
814.98	212.69
815.30	212.71
815.62	212.66
815.94	212.45
816.26	212.49
816.58	212.41
816.89	212.51
817.21	212.38
817.53	212.50
817.85	212.56
818.17	212.55
818.48	212.46
818.80	212.49
819.12	212.39
819.44	212.33
819.76	212.36
820.07	212.38
820.39	212.37
820.71	212.47
821.03	212.47
821.34	212.40
821.66	212.43
821.98	212.46
822.30	212.47
822.61	212.60
822.93	212.49
823.25	212.51
823.57	212.41
823.88	212.51
824.20	212.51
824.52	212.57
824.83	212.59
825.15	212.50
825.47	212.50
825.79	212.57
826.10	212.51
826.42	212.49
826.74	212.54
827.05	212.51
827.37	212.48
827.69	212.44
828.00	212.45
828.32	212.45
828.64	212.42
828.95	212.60
829.27	212.58
829.58	212.65
829.90	212.68
830.22	212.75
830.53	212.73
830.85	212.62
831.17	212.47
831.48	212.49
831.80	212.47
832.11	212.43
832.43	212.36
832.75	212.36
833.06	212.55
833.38	212.45
833.69	212.46
834.01	212.44
834.32	212.44
834.64	212.38
834.96	212.39
835.27	212.35
835.59	212.24
835.90	212.12
836.22	212.03
836.53	211.96
836.85	211.87
837.16	212.12
837.48	212.10
837.79	212.26
838.11	212.25
838.42	212.35
838.74	212.39
839.05	212.35
839.37	212.30
839.68	212.08
840.00	212.07
840.31	212.08
840.63	212.05
840.94	212.05
841.26	212.06
841.57	212.14
841.88	212.18
842.20	212.12
842.51	212.00
842.83	212.04
843.14	212.41
843.46	212.45
843.77	212.29
844.08	212.24
844.40	212.08
844.71	212.02
845.03	211.88
845.34	211.80
845.65	211.78
845.97	211.86
846.28	211.93
846.60	211.91
846.91	211.93
847.22	211.96
847.54	212.07
847.85	212.00
848.16	211.88
848.48	211.79
848.79	211.98
849.10	212.12
849.42	212.12
849.73	211.77
850.04	211.70
850.36	211.58
850.67	211.73
850.98	211.80
851.30	211.85
851.61	211.91
851.92	211.90
852.23	212.07
852.55	212.04
852.86	212.01
853.17	211.97
853.49	211.98
853.80	212.01
854.11	211.94
854.42	212.10
854.74	212.05
855.05	212.03
855.36	211.80
855.67	211.77
855.99	211.75
856.30	212.18
856.61	212.18
856.92	212.13
857.23	212.08
857.55	212.03
857.86	212.03
858.17	212.01
858.48	211.97
858.79	211.85
859.11	211.86
859.42	211.85
859.73	211.81
860.04	211.81
860.35	211.72
860.66	211.70
860.98	211.60
861.29	211.69
861.60	211.71
861.91	211.80
862.22	211.79
862.53	211.78
862.84	211.38
863.16	211.51
863.47	211.41
863.78	211.35
864.09	211.39
864.40	211.43
864.71	211.47
865.02	211.60
865.33	211.57
865.64	211.56
865.95	211.50
866.27	211.78
866.58	211.76
866.89	211.83
867.20	211.80
867.51	211.79
867.82	211.72
868.13	211.89
868.44	211.80
868.75	211.88
869.06	211.93
869.37	211.94
869.68	211.81
869.99	211.95
870.30	211.99
870.61	211.98
870.92	211.85
871.23	211.78
871.54	211.75
871.85	211.87
872.16	211.93
872.47	211.94
872.78	211.74
873.09	211.72
873.40	211.68
873.71	211.76
874.02	211.82
874.33	211.81
874.64	211.66
874.95	211.79
875.26	211.68
875.56	211.60
875.87	211.51
876.18	211.53
876.49	211.92
876.80	211.85
877.11	211.76
877.42	211.85
877.73	211.94
878.04	211.93
878.35	211.89
878.66	211.85
878.96	211.90
879.27	211.90
879.58	211.89
879.89	211.89
880.20	211.93
880.51	211.88
880.82	211.97
881.12	211.99
881.43	211.85
881.74	211.81
882.05	211.82
882.36	211.89
882.67	211.95
882.97	211.51
883.28	211.50
883.59	211.53
883.90	211.56
884.21	211.60
884.51	211.52
884.82	211.47
885.13	211.49
885.44	211.43
885.74	211.40
886.05	211.35
886.36	211.36
886.67	211.22
886.98	211.32
887.28	211.32
887.59	211.28
887.90	211.28
888.20	211.27
888.51	211.30
888.82	211.26
889.13	211.29
889.43	211.62
889.74	211.58
890.05	211.56
890.35	211.51
890.66	211.36
890.97	211.32
891.28	211.27
891.58	211.25
891.89	211.29
892.20	211.29
892.50	211.25
892.81	211.24
893.12	211.21
893.42	211.17
893.73	211.14
894.04	211.11
894.34	211.17
894.65	211.20
894.95	211.16
895.26	211.17
895.57	211.27
895.87	210.93
896.18	211.00
896.48	211.02
896.79	210.97
897.10	211.00
897.40	211.06
897.71	211.04
898.01	211.04
898.32	211.03
898.63	211.07
898.93	211.14
899.24	211.17
899.54	211.21
899.85	211.16
900.15	211.10
900.46	211.20
900.76	211.24
901.07	211.23
901.38	211.28
901.68	211.33
901.99	211.18
902.29	211.19
902.60	211.20
902.90	211.17
903.21	211.23
903.51	211.25
903.82	211.36
904.12	211.40
904.43	211.44
904.73	211.43
905.03	211.40
905.34	211.74
905.64	211.69
905.95	211.62
906.25	211.60
906.56	211.60
906.86	211.57
907.17	211.54
907.47	211.51
907.77	211.43
908.08	211.37
908.38	211.34
908.69	211.39
908.99	211.47
909.30	211.51
909.60	211.49
909.90	211.51
910.21	211.36
910.51	211.34
910.81	211.30
911.12	211.34
911.42	211.34
911.73	210.90
912.03	210.91
912.33	211.06
912.64	211.06
912.94	211.10
913.24	211.04
913.55	211.01
913.85	211.04
914.15	211.17
914.46	211.26
914.76	211.23
915.06	211.18
915.37	211.07
915.67	211.06
915.97	211.05
916.27	210.95
916.58	211.00
916.88	211.01
917.18	210.98
917.49	211.21
917.79	211.21
918.09	211.35
918.39	211.43
918.70	211.37
919.00	211.34
919.30	211.46
919.60	211.51
919.91	211.45
920.21	211.51
920.51	211.40
920.81	211.35
921.12	211.47
921.42	211.44
921.72	211.45
922.02	211.48
922.32	211.59
922.63	211.62
922.93	211.80
923.23	211.78
923.53	211.76
923.83	211.51
924.13	211.50
924.44	211.49
924.74	211.57
925.04	211.67
925.34	211.63
925.64	211.55
925.94	211.53
926.24	211.72
926.55	211.65
926.85	211.84
927.15	211.76
927.45	211.69
927.75	211.74
928.05	211.74
928.35	211.62
928.65	211.66
928.95	211.66
929.26	211.48
929.56	211.64
929.86	211.62
930.16	211.60
930.46	211.53
930.76	211.58
931.06	211.40
931.36	211.26
931.66	211.38
931.96	211.35
932.26	211.30
932.56	211.16
932.86	211.17
933.16	211.05
933.46	211.08
933.76	211.04
934.06	211.10
934.36	211.28
934.66	211.28
934.96	211.20
935.26	211.28
935.56	211.27
935.86	211.15
936.16	211.14
936.46	211.11
936.76	211.13
937.06	211.01
937.36	211.00
937.66	211.02
937.96	210.96
938.26	210.80
938.56	210.83
938.86	210.88
939.16	210.94
939.46	210.94
939.76	210.91
940.06	210.94
940.35	210.83
940.65	210.65
940.95	210.74
941.25	210.66
941.55	210.58
941.85	210.62
942.15	210.62
942.45	210.75
942.75	210.72
943.04	210.76
943.34	210.88
943.64	210.90
943.94	210.83
944.24	210.83
944.54	210.95
944.84	210.90
945.13	210.80
945.43	210.77
945.73	210.70
946.03	210.67
946.33	210.59
946.62	210.60
946.92	210.59
947.22	210.52
947.52	210.57
947.82	210.65
948.11	210.54
948.41	210.48
948.71	210.35
949.01	210.44
949.31	210.40
949.60	210.40
949.90	210.42
950.20	210.49
950.50	210.50
950.79	210.41
951.09	210.47
951.39	210.53
951.69	210.47
951.98	210.59
952.28	210.67
952.58	210.70
952.87	210.63
953.17	210.65
953.47	210.66
953.76	210.64
954.06	210.49
954.36	210.45
954.66	210.44
954.95	210.57
955.25	210.60
955.55	210.62
955.84	210.51
956.14	210.57
956.44	210.56
956.73	210.50
957.03	210.64
957.32	210.64
957.62	210.58
957.92	210.69
958.21	210.67
958.51	211.08
958.81	211.13
959.10	211.23
959.40	211.32
959.69	211.41
959.99	211.48
960.29	211.53
960.58	211.57
960.88	211.69
961.17	211.65
961.47	211.68
961.76	211.69
962.06	211.71
962.36	211.68
962.65	211.70
962.95	211.73
963.24	211.71
963.54	211.76
963.83	211.83
964.13	211.75
964.42	211.70
964.72	211.34
965.01	211.37
965.31	211.36
965.60	211.34
965.90	211.49
966.19	211.44
966.49	211.54
966.78	211.61
967.08	211.65
967.37	211.61
967.67	211.47
967.96	211.58
968.26	211.62
968.55	211.66
968.85	211.66
969.14	211.64
969.43	211.60
969.73	211.54
970.02	211.48
970.32	211.52
970.61	211.45
970.91	211.34
971.20	211.31
971.49	211.34
971.79	211.33
972.08	211.13
972.38	211.15
972.67	211.04
972.96	211.04
973.26	210.93
973.55	211.11
973.85	211.13
974.14	211.01
974.43	211.03
974.73	210.84
975.02	210.81
975.31	210.85
975.61	210.84
975.90	210.84
976.19	210.80
976.49	210.76
976.78	210.78
977.07	210.86
977.37	210.83
977.66	210.85
977.95	210.80
978.24	210.85
978.54	210.92
978.83	210.89
979.12	210.80
979.42	210.85
979.71	210.73
980.00	210.75
980.29	210.82
980.59	210.68
980.88	210.88
981.17	210.85
981.46	210.82
981.76	210.91
982.05	211.03
982.34	211.14
982.63	211.14
982.93	211.14
983.22	211.18
983.51	211.23
983.80	211.16
984.09	211.18
984.39	211.15
984.68	211.00
984.97	211.06
985.26	211.08
985.55	211.07
985.85	211.00
986.14	211.04
986.43	211.08
986.72	211.14
987.01	211.04
987.30	211.05
987.59	211.01
987.89	210.92
988.18	210.72
988.47	210.69
988.76	210.60
989.05	210.57
989.34	210.51
989.63	210.57
989.92	210.55
990.22	210.50
990.51	210.41
990.80	210.44
991.09	210.45
991.38	210.50
991.67	210.40
991.96	210.33
992.25	210.29
992.54	210.17
992.83	210.14
993.12	210.11
993.41	210.19
993.70	210.39
993.99	210.48
994.28	210.60
994.58	210.62
994.87	210.68
995.16	210.70
995.45	210.70
995.74	210.57
996.03	210.72
996.32	210.79
996.61	210.89
996.90	210.87
997.19	210.83
997.48	210.86
997.77	210.88
998.06	210.94
998.34	210.94
998.63	210.98
998.92	211.05
999.21	211.14
999.50	211.13
999.79	211.01
1000.08	210.97
1000.37	211.00
1000.66	210.92
1000.95	211.00
1001.24	210.99
1001.53	210.95
1001.82	210.97
1002.11	210.85
1002.40	210.90
1002.68	211.02
1002.97	211.31
1003.26	211.27
1003.55	211.22
1003.84	211.33
1004.13	211.39
1004.42	211.40
1004.71	211.39
1004.99	211.33
1005.28	211.43
1005.57	211.37
1005.86	211.32
1006.15	211.26
1006.44	211.16
1006.72	211.25
1007.01	211.25
1007.30	211.27
1007.59	211.31
1007.88	211.28
1008.17	211.32
1008.45	211.26
1008.74	211.07
1009.03	210.95
1009.32	211.00
1009.60	210.95
1009.89	210.86
1010.18	210.79
1010.47	210.83
1010.76	210.90
1011.04	210.94
1011.33	210.89
1011.62	210.86
1011.91	210.86
1012.19	210.88
1012.48	210.91
1012.77	210.88
1013.05	210.91
1013.34	210.95
1013.63	210.99
1013.92	211.06
1014.20	210.92
1014.49	210.90
1014.78	210.98
1015.06	210.77
1015.35	210.80
1015.64	210.89
1015.92	210.95
1016.21	210.95
1016.50	210.94
1016.78	210.84
1017.07	210.81
1017.36	210.70
1017.64	210.68
1017.93	210.72
1018.22	210.73
1018.50	210.74
1018.79	210.73
1019.08	210.59
1019.36	210.57
1019.65	210.46
1019.93	210.50
1020.22	210.66
1020.51	210.81
1020.79	210.73
1021.08	211.05
1021.36	210.85
1021.65	210.15
1021.94	209.80
1022.22	210.70
1022.51	209.50
1022.79	211.75
1023.08	212.10
1023.36	214.15
1023.65	209.80
>>>>>End Processed Spectral Data<<<<<
