SpectraSuite Data File
++++++++++++++++++++++++++++++++++++
Date: Mon Feb 25 17:09:22 EST 2013
User: group
Dark Spectrum Present: No
Reference Spectrum Present: No
Number of Sampled Component Spectra: 1
Spectrometers: USB2E7196
Integration Time (usec): 104000 (USB2E7196)
Spectra Averaged: 20 (USB2E7196)
Boxcar Smoothing: 10 (USB2E7196)
Correct for Electrical Dark: No (USB2E7196)
Strobe/Lamp Enabled: No (USB2E7196)
Correct for Detector Non-linearity: No (USB2E7196)
Correct for Stray Light: No (USB2E7196)
Number of Pixels in Processed Spectrum: 2048
>>>>>Begin Processed Spectral Data<<<<<
339.09	0.00
339.48	199.20
339.86	200.90
340.24	202.35
340.63	202.85
341.01	208.35
341.39	204.75
341.78	208.65
342.16	210.05
342.54	208.75
342.93	198.36
343.31	208.40
343.69	208.95
344.07	209.31
344.46	209.72
344.84	210.14
345.22	210.26
345.60	210.55
345.99	210.65
346.37	210.72
346.75	210.79
347.13	210.86
347.52	210.94
347.90	211.07
348.28	211.09
348.66	211.10
349.05	210.95
349.43	210.99
349.81	211.01
350.19	210.96
350.57	211.04
350.96	211.08
351.34	211.13
351.72	211.20
352.10	211.34
352.48	211.34
352.87	211.38
353.25	211.40
353.63	211.47
354.01	211.56
354.39	211.62
354.77	211.71
355.15	211.87
355.54	211.86
355.92	211.76
356.30	211.85
356.68	212.21
357.06	212.35
357.44	212.34
357.82	212.37
358.20	212.49
358.58	212.57
358.97	212.65
359.35	212.77
359.73	212.85
360.11	212.91
360.49	212.95
360.87	212.91
361.25	213.08
361.63	213.19
362.01	213.18
362.39	213.15
362.77	213.20
363.15	213.14
363.53	213.20
363.91	213.25
364.29	213.26
364.67	212.85
365.05	212.88
365.43	212.94
365.81	213.05
366.19	213.17
366.57	213.31
366.95	213.25
367.33	213.15
367.71	213.13
368.09	213.13
368.47	213.16
368.85	213.14
369.23	213.11
369.61	213.01
369.99	213.15
370.37	213.19
370.75	213.37
371.13	213.30
371.51	213.20
371.89	213.22
372.27	213.20
372.65	213.30
373.03	213.18
373.41	213.11
373.78	213.01
374.16	212.77
374.54	212.63
374.92	212.57
375.30	212.50
375.68	212.35
376.06	212.34
376.44	212.28
376.82	212.30
377.19	212.15
377.57	212.12
377.95	211.92
378.33	211.89
378.71	211.61
379.09	211.55
379.47	211.62
379.84	211.56
380.22	211.44
380.60	211.33
380.98	211.32
381.36	211.28
381.73	211.20
382.11	211.24
382.49	211.13
382.87	211.00
383.25	211.07
383.62	211.46
384.00	211.39
384.38	211.39
384.76	211.33
385.13	211.48
385.51	211.42
385.89	211.32
386.27	211.24
386.64	211.23
387.02	211.17
387.40	211.12
387.78	211.11
388.15	211.16
388.53	211.10
388.91	211.04
389.29	210.99
389.66	211.04
390.04	210.90
390.42	210.92
390.79	210.97
391.17	210.90
391.55	210.54
391.92	210.52
392.30	210.52
392.68	210.49
393.05	210.50
393.43	210.50
393.81	210.51
394.18	210.45
394.56	210.44
394.94	210.60
395.31	210.53
395.69	210.60
396.06	210.59
396.44	210.62
396.82	210.65
397.19	210.85
397.57	210.77
397.95	210.93
398.32	210.88
398.70	210.95
399.07	211.03
399.45	211.05
399.82	211.07
400.20	211.03
400.58	211.11
400.95	210.92
401.33	211.08
401.70	211.38
402.08	211.45
402.45	211.46
402.83	211.56
403.20	211.60
403.58	211.63
403.95	211.80
404.33	211.92
404.71	212.01
405.08	212.22
405.46	212.35
405.83	212.41
406.21	212.53
406.58	212.67
406.96	212.80
407.33	212.86
407.70	213.01
408.08	213.42
408.45	213.54
408.83	213.80
409.20	213.78
409.58	213.75
409.95	214.00
410.33	214.30
410.70	214.43
411.08	214.76
411.45	215.01
411.82	215.15
412.20	215.54
412.57	216.01
412.95	216.06
413.32	216.45
413.69	216.78
414.07	217.13
414.44	217.48
414.82	217.85
415.19	218.35
415.56	218.84
415.94	219.18
416.31	219.90
416.68	220.52
417.06	221.27
417.43	222.05
417.81	222.84
418.18	223.60
418.55	224.45
418.93	225.30
419.30	226.17
419.67	227.29
420.04	228.25
420.42	229.29
420.79	230.79
421.16	232.05
421.54	233.52
421.91	234.95
422.28	236.36
422.66	237.90
423.03	239.65
423.40	241.23
423.77	242.84
424.15	244.42
424.52	246.11
424.89	248.08
425.26	249.72
425.64	251.43
426.01	253.21
426.38	255.10
426.75	257.13
427.13	259.25
427.50	261.29
427.87	263.51
428.24	265.65
428.61	267.51
428.99	269.97
429.36	272.46
429.73	274.97
430.10	277.55
430.47	280.13
430.85	282.50
431.22	285.27
431.59	288.45
431.96	291.33
432.33	294.51
432.70	297.54
433.08	301.19
433.45	304.54
433.82	308.05
434.19	311.94
434.56	315.70
434.93	319.15
435.30	322.81
435.68	326.69
436.05	330.58
436.42	334.42
436.79	337.96
437.16	341.69
437.53	345.56
437.90	349.44
438.27	353.30
438.64	357.41
439.01	361.23
439.38	364.51
439.75	367.74
440.13	371.53
440.50	375.04
440.87	378.05
441.24	381.11
441.61	384.42
441.98	386.76
442.35	389.58
442.72	392.50
443.09	395.34
443.46	397.10
443.83	398.30
444.20	399.45
444.57	400.83
444.94	401.75
445.31	402.74
445.68	403.94
446.05	404.40
446.42	404.13
446.79	403.76
447.16	403.25
447.53	403.07
447.90	401.64
448.27	400.28
448.64	398.32
449.01	396.89
449.37	394.26
449.74	391.74
450.11	389.06
450.48	385.86
450.85	382.34
451.22	379.48
451.59	376.77
451.96	374.12
452.33	370.60
452.70	367.34
453.07	363.39
453.43	359.16
453.80	355.43
454.17	351.92
454.54	348.57
454.91	345.03
455.28	341.38
455.65	338.09
456.02	335.18
456.38	332.27
456.75	328.80
457.12	325.98
457.49	323.23
457.86	320.10
458.23	317.80
458.59	315.28
458.96	312.59
459.33	310.16
459.70	307.81
460.07	305.97
460.43	303.76
460.80	301.83
461.17	300.11
461.54	298.21
461.91	296.34
462.27	294.54
462.64	292.93
463.01	291.32
463.38	289.72
463.74	287.59
464.11	286.06
464.48	284.77
464.85	283.31
465.21	282.29
465.58	281.25
465.95	279.70
466.32	278.55
466.68	277.48
467.05	276.35
467.42	275.29
467.78	274.05
468.15	272.97
468.52	272.17
468.88	271.03
469.25	270.05
469.62	269.43
469.98	268.56
470.35	267.83
470.72	267.03
471.08	266.17
471.45	265.60
471.82	265.09
472.18	264.30
472.55	263.78
472.92	263.11
473.28	262.51
473.65	262.01
474.02	261.51
474.38	261.10
474.75	260.81
475.11	260.32
475.48	260.10
475.85	259.77
476.21	259.39
476.58	259.14
476.94	259.05
477.31	258.75
477.67	258.58
478.04	258.32
478.41	258.22
478.77	258.43
479.14	258.17
479.50	258.05
479.87	258.15
480.23	258.17
480.60	258.12
480.96	258.14
481.33	258.36
481.69	258.38
482.06	258.47
482.42	258.57
482.79	258.74
483.15	258.84
483.52	259.14
483.88	259.30
484.25	259.56
484.61	259.79
484.98	260.11
485.34	260.48
485.71	260.90
486.07	261.26
486.44	261.40
486.80	261.92
487.17	262.37
487.53	262.99
487.90	263.61
488.26	264.33
488.62	265.00
488.99	265.58
489.35	266.45
489.72	267.20
490.08	268.00
490.44	268.81
490.81	269.81
491.17	270.64
491.54	271.73
491.90	272.87
492.26	273.94
492.63	275.00
492.99	276.09
493.36	277.40
493.72	278.69
494.08	279.93
494.45	281.39
494.81	282.94
495.17	284.32
495.54	285.86
495.90	287.37
496.26	288.99
496.63	290.72
496.99	292.41
497.35	294.15
497.72	296.04
498.08	298.02
498.44	299.99
498.80	302.18
499.17	304.34
499.53	306.34
499.89	308.66
500.26	310.97
500.62	313.39
500.98	315.84
501.34	318.32
501.71	321.04
502.07	323.49
502.43	326.11
502.79	328.69
503.16	331.46
503.52	334.34
503.88	337.15
504.24	340.11
504.60	343.18
504.97	346.38
505.33	349.53
505.69	352.82
506.05	356.04
506.41	359.23
506.78	362.58
507.14	366.05
507.50	369.52
507.86	373.16
508.22	376.84
508.59	380.42
508.95	384.33
509.31	388.22
509.67	392.30
510.03	396.31
510.39	400.42
510.75	404.54
511.12	408.62
511.48	412.90
511.84	417.15
512.20	421.35
512.56	425.75
512.92	430.18
513.28	434.65
513.64	439.12
514.00	443.79
514.37	448.47
514.73	453.28
515.09	457.99
515.45	462.63
515.81	467.33
516.17	472.15
516.53	476.86
516.89	481.63
517.25	486.33
517.61	491.31
517.97	496.25
518.33	501.14
518.69	506.21
519.05	511.33
519.41	516.54
519.77	522.10
520.13	527.18
520.49	532.27
520.85	537.49
521.21	542.95
521.57	548.33
521.93	553.56
522.29	559.00
522.65	564.45
523.01	569.92
523.37	575.15
523.73	580.67
524.09	586.21
524.45	591.65
524.81	597.32
525.17	602.74
525.53	608.49
525.89	614.18
526.25	619.77
526.61	625.14
526.97	630.53
527.33	635.84
527.68	641.74
528.04	647.44
528.40	652.84
528.76	658.37
529.12	664.11
529.48	669.87
529.84	675.40
530.20	681.02
530.56	686.72
530.91	692.84
531.27	698.45
531.63	704.10
531.99	709.62
532.35	715.15
532.71	720.70
533.07	726.29
533.42	732.10
533.78	737.68
534.14	743.45
534.50	748.72
534.86	754.28
535.21	759.26
535.57	764.54
535.93	769.80
536.29	775.10
536.65	780.21
537.00	785.36
537.36	790.06
537.72	794.72
538.08	799.70
538.44	804.25
538.79	809.14
539.15	813.87
539.51	818.75
539.87	823.69
540.22	828.52
540.58	833.36
540.94	837.81
541.29	842.09
541.65	846.18
542.01	850.68
542.37	854.92
542.72	859.26
543.08	863.36
543.44	867.80
543.79	871.47
544.15	875.19
544.51	879.25
544.87	883.60
545.22	887.58
545.58	891.23
545.94	894.58
546.29	897.88
546.65	900.96
547.01	904.11
547.36	907.30
547.72	910.43
548.07	913.09
548.43	915.67
548.79	918.41
549.14	921.22
549.50	923.92
549.86	925.92
550.21	928.33
550.57	930.92
550.92	932.92
551.28	935.27
551.64	937.67
551.99	939.66
552.35	941.35
552.70	943.24
553.06	945.16
553.41	947.30
553.77	949.35
554.13	951.29
554.48	953.13
554.84	954.63
555.19	955.84
555.55	957.35
555.90	958.67
556.26	960.03
556.61	961.10
556.97	962.14
557.32	963.55
557.68	964.26
558.03	965.11
558.39	966.03
558.74	967.04
559.10	967.85
559.45	968.75
559.81	969.70
560.16	970.30
560.52	970.96
560.87	971.62
561.23	971.85
561.58	972.56
561.94	973.04
562.29	973.31
562.64	973.80
563.00	974.08
563.35	974.61
563.71	975.30
564.06	975.71
564.42	976.25
564.77	976.71
565.12	977.54
565.48	978.13
565.83	978.55
566.19	978.90
566.54	978.68
566.89	978.34
567.25	978.51
567.60	978.76
567.96	978.88
568.31	978.92
568.66	978.83
569.02	978.35
569.37	977.51
569.72	977.13
570.08	976.63
570.43	976.14
570.78	975.31
571.14	974.15
571.49	973.19
571.84	972.22
572.20	971.15
572.55	969.95
572.90	968.35
573.26	966.83
573.61	965.23
573.96	963.96
574.31	962.55
574.67	960.78
575.02	958.91
575.37	956.79
575.72	954.85
576.08	953.20
576.43	951.34
576.78	949.90
577.13	948.25
577.49	946.40
577.84	944.70
578.19	943.22
578.54	941.87
578.90	940.55
579.25	938.94
579.60	937.04
579.95	935.16
580.30	933.74
580.66	932.27
581.01	930.54
581.36	928.81
581.71	926.80
582.06	925.19
582.42	923.45
582.77	921.51
583.12	919.77
583.47	918.05
583.82	916.65
584.17	914.91
584.53	913.48
584.88	911.98
585.23	910.13
585.58	908.29
585.93	906.40
586.28	904.73
586.63	902.82
586.98	901.15
587.34	899.47
587.69	897.39
588.04	895.66
588.39	893.90
588.74	891.72
589.09	890.13
589.44	888.16
589.79	886.44
590.14	884.64
590.49	882.54
590.84	880.56
591.19	878.73
591.54	876.77
591.89	874.18
592.25	872.24
592.60	870.16
592.95	867.89
593.30	865.34
593.65	862.78
594.00	860.50
594.35	859.14
594.70	856.86
595.05	854.83
595.40	852.53
595.75	850.12
596.10	848.43
596.45	846.40
596.80	844.61
597.15	842.41
597.50	840.28
597.85	838.56
598.19	836.41
598.54	834.11
598.89	832.06
599.24	830.62
599.59	828.49
599.94	826.70
600.29	824.77
600.64	823.12
600.99	821.00
601.34	819.25
601.69	816.34
602.04	814.44
602.39	812.29
602.74	810.35
603.08	808.94
603.43	807.20
603.78	805.28
604.13	802.95
604.48	801.08
604.83	799.60
605.18	797.86
605.53	795.95
605.87	794.10
606.22	792.40
606.57	790.02
606.92	788.07
607.27	785.81
607.62	783.82
607.96	782.00
608.31	780.31
608.66	778.09
609.01	775.98
609.36	773.67
609.70	771.37
610.05	769.02
610.40	766.51
610.75	763.84
611.10	761.77
611.44	759.24
611.79	756.61
612.14	753.88
612.49	750.88
612.83	748.34
613.18	745.55
613.53	742.67
613.88	739.90
614.22	737.20
614.57	734.54
614.92	731.79
615.27	728.64
615.61	725.94
615.96	723.24
616.31	720.70
616.65	718.43
617.00	715.80
617.35	713.19
617.70	710.49
618.04	707.75
618.39	704.37
618.74	701.70
619.08	698.93
619.43	696.25
619.78	693.64
620.12	690.88
620.47	688.17
620.82	685.18
621.16	682.31
621.51	679.61
621.85	676.87
622.20	674.05
622.55	671.48
622.89	668.64
623.24	665.97
623.59	663.08
623.93	660.22
624.28	657.83
624.62	655.40
624.97	652.73
625.32	650.06
625.66	647.66
626.01	645.10
626.35	642.73
626.70	640.02
627.04	637.57
627.39	635.04
627.73	632.69
628.08	630.56
628.43	628.01
628.77	625.25
629.12	622.48
629.46	620.19
629.81	617.61
630.15	615.02
630.50	612.36
630.84	609.80
631.19	607.36
631.53	604.74
631.88	601.55
632.22	598.89
632.57	596.65
632.91	594.12
633.26	591.62
633.60	589.15
633.95	586.80
634.29	584.14
634.64	581.72
634.98	579.15
635.32	576.71
635.67	574.55
636.01	572.25
636.36	569.93
636.70	567.58
637.05	565.29
637.39	563.14
637.73	560.86
638.08	558.80
638.42	556.54
638.77	554.20
639.11	552.40
639.45	550.13
639.80	547.54
640.14	545.26
640.49	543.09
640.83	540.75
641.17	538.55
641.52	536.25
641.86	533.87
642.20	531.65
642.55	529.03
642.89	526.57
643.23	524.24
643.58	522.24
643.92	519.77
644.26	517.49
644.61	515.21
644.95	512.77
645.29	510.30
645.64	507.84
645.98	505.53
646.32	503.27
646.66	500.95
647.01	498.70
647.35	496.36
647.69	493.76
648.04	491.52
648.38	489.15
648.72	486.77
649.06	484.51
649.41	482.14
649.75	480.12
650.09	478.15
650.43	475.87
650.78	473.35
651.12	471.04
651.46	468.78
651.80	466.48
652.14	464.46
652.49	462.38
652.83	460.17
653.17	458.00
653.51	455.55
653.85	453.45
654.20	451.39
654.54	449.32
654.88	447.25
655.22	445.08
655.56	442.79
655.90	440.76
656.25	438.60
656.59	436.45
656.93	434.34
657.27	432.27
657.61	430.19
657.95	428.27
658.29	426.34
658.64	424.43
658.98	422.36
659.32	420.24
659.66	418.17
660.00	416.08
660.34	414.10
660.68	412.15
661.02	410.03
661.36	408.13
661.70	406.24
662.05	404.34
662.39	402.60
662.73	401.06
663.07	399.52
663.41	397.78
663.75	395.95
664.09	394.07
664.43	392.10
664.77	390.42
665.11	388.74
665.45	387.08
665.79	385.40
666.13	383.71
666.47	382.10
666.81	380.59
667.15	379.02
667.49	377.44
667.83	376.06
668.17	374.67
668.51	373.09
668.85	371.68
669.19	370.43
669.53	368.84
669.87	367.16
670.21	365.44
670.55	364.02
670.89	362.80
671.23	361.51
671.57	360.13
671.91	358.74
672.25	357.21
672.58	355.90
672.92	354.49
673.26	353.25
673.60	352.03
673.94	350.64
674.28	349.32
674.62	348.08
674.96	346.75
675.30	345.55
675.64	344.33
675.97	343.04
676.31	341.71
676.65	340.43
676.99	339.38
677.33	338.19
677.67	336.93
678.01	335.63
678.34	334.47
678.68	333.41
679.02	332.20
679.36	331.11
679.70	329.80
680.04	328.57
680.37	327.41
680.71	326.22
681.05	325.09
681.39	324.03
681.73	322.85
682.06	321.78
682.40	320.61
682.74	319.47
683.08	318.49
683.42	317.36
683.75	316.40
684.09	315.29
684.43	314.23
684.77	313.18
685.10	312.17
685.44	311.11
685.78	309.94
686.12	308.87
686.45	307.88
686.79	306.89
687.13	306.07
687.46	305.07
687.80	304.14
688.14	303.19
688.48	302.25
688.81	301.30
689.15	300.28
689.49	299.24
689.82	298.34
690.16	297.17
690.50	296.15
690.83	295.10
691.17	294.07
691.51	293.15
691.84	292.32
692.18	291.40
692.52	290.51
692.85	289.89
693.19	289.24
693.52	288.29
693.86	287.49
694.20	286.57
694.53	285.80
694.87	284.94
695.21	284.03
695.54	283.22
695.88	282.38
696.21	281.54
696.55	280.83
696.88	280.04
697.22	279.28
697.56	278.75
697.89	278.05
698.23	277.37
698.56	276.65
698.90	275.98
699.23	275.20
699.57	274.44
699.90	273.53
700.24	272.70
700.58	272.15
700.91	271.55
701.25	271.17
701.58	270.61
701.92	270.03
702.25	269.47
702.59	268.77
702.92	268.22
703.26	267.63
703.59	267.04
703.93	266.75
704.26	266.24
704.60	265.53
704.93	264.86
705.26	264.28
705.60	263.73
705.93	263.15
706.27	262.68
706.60	262.27
706.94	261.94
707.27	261.41
707.61	260.87
707.94	260.27
708.27	259.44
708.61	258.77
708.94	258.24
709.28	257.71
709.61	257.22
709.94	256.65
710.28	256.26
710.61	255.76
710.95	254.96
711.28	254.62
711.61	254.15
711.95	253.86
712.28	253.38
712.61	252.95
712.95	252.59
713.28	252.26
713.61	251.75
713.95	251.15
714.28	250.65
714.61	250.21
714.95	249.79
715.28	249.37
715.61	248.88
715.95	248.42
716.28	247.95
716.61	247.58
716.95	247.20
717.28	246.78
717.61	246.41
717.94	246.03
718.28	245.45
718.61	245.10
718.94	244.63
719.27	244.23
719.61	243.83
719.94	243.39
720.27	242.90
720.60	242.48
720.94	242.14
721.27	241.86
721.60	241.55
721.93	241.12
722.27	240.92
722.60	240.68
722.93	240.38
723.26	240.14
723.59	239.75
723.93	239.51
724.26	239.15
724.59	238.88
724.92	238.60
725.25	238.44
725.59	238.21
725.92	238.00
726.25	237.70
726.58	237.45
726.91	237.15
727.24	236.89
727.57	236.63
727.91	236.36
728.24	236.17
728.57	235.88
728.90	235.74
729.23	235.41
729.56	235.40
729.89	235.25
730.22	235.05
730.55	234.82
730.89	234.54
731.22	234.34
731.55	234.08
731.88	233.86
732.21	233.62
732.54	233.28
732.87	233.08
733.20	232.97
733.53	232.79
733.86	232.65
734.19	232.40
734.52	232.27
734.85	232.35
735.18	232.14
735.51	232.07
735.84	231.90
736.17	231.77
736.50	231.32
736.83	231.47
737.16	231.18
737.49	231.06
737.82	230.88
738.15	230.78
738.48	230.61
738.81	230.35
739.14	230.07
739.47	229.83
739.80	229.59
740.13	229.36
740.46	229.06
740.79	228.80
741.12	228.62
741.45	228.35
741.78	227.96
742.11	227.76
742.44	227.45
742.77	227.31
743.10	227.03
743.43	226.86
743.75	226.30
744.08	226.69
744.41	226.47
744.74	226.26
745.07	225.94
745.40	225.82
745.73	225.87
746.06	225.70
746.39	225.62
746.71	225.45
747.04	225.25
747.37	225.15
747.70	225.07
748.03	224.94
748.36	224.87
748.68	224.67
749.01	224.44
749.34	224.32
749.67	224.19
750.00	224.13
750.33	224.30
750.65	224.21
750.98	223.61
751.31	223.44
751.64	223.35
751.97	223.46
752.29	223.29
752.62	222.97
752.95	222.88
753.28	222.67
753.60	222.54
753.93	222.55
754.26	222.50
754.59	222.33
754.91	222.18
755.24	222.06
755.57	221.95
755.90	221.86
756.22	221.72
756.55	221.59
756.88	221.39
757.20	220.99
757.53	220.72
757.86	220.61
758.19	220.61
758.51	220.56
758.84	220.34
759.17	220.22
759.49	220.20
759.82	220.30
760.15	220.25
760.47	220.10
760.80	219.93
761.13	219.86
761.45	219.67
761.78	219.64
762.11	219.58
762.43	219.54
762.76	219.43
763.08	219.46
763.41	219.34
763.74	219.30
764.06	219.22
764.39	219.24
764.71	219.15
765.04	219.03
765.37	218.87
765.69	218.74
766.02	218.65
766.34	218.58
766.67	218.35
767.00	218.46
767.32	218.62
767.65	218.68
767.97	218.56
768.30	218.61
768.62	218.52
768.95	218.42
769.27	218.31
769.60	218.39
769.92	218.19
770.25	218.09
770.57	217.96
770.90	217.93
771.22	217.79
771.55	217.76
771.87	217.66
772.20	217.64
772.52	217.91
772.85	218.23
773.17	218.21
773.50	218.20
773.82	218.01
774.15	217.81
774.47	217.63
774.80	217.51
775.12	217.41
775.45	217.42
775.77	217.34
776.09	217.39
776.42	217.31
776.74	217.41
777.07	217.34
777.39	217.35
777.72	217.30
778.04	217.29
778.36	217.20
778.69	217.18
779.01	217.12
779.33	216.75
779.66	216.39
779.98	216.21
780.31	216.11
780.63	216.25
780.95	216.23
781.28	216.14
781.60	216.15
781.92	216.11
782.25	215.96
782.57	215.92
782.89	215.75
783.22	215.59
783.54	215.42
783.86	215.41
784.19	215.33
784.51	215.40
784.83	215.36
785.16	215.30
785.48	215.27
785.80	215.26
786.12	215.21
786.45	215.14
786.77	215.23
787.09	215.21
787.42	215.02
787.74	215.05
788.06	215.04
788.38	214.91
788.71	214.83
789.03	214.75
789.35	214.78
789.67	214.73
789.99	214.78
790.32	214.79
790.64	214.75
790.96	214.95
791.28	214.74
791.61	214.61
791.93	214.57
792.25	214.57
792.57	214.75
792.89	214.67
793.21	214.62
793.54	214.43
793.86	214.34
794.18	214.32
794.50	214.13
794.82	214.06
795.14	214.11
795.47	214.11
795.79	214.10
796.11	213.97
796.43	213.92
796.75	213.87
797.07	213.83
797.39	213.78
797.71	213.57
798.04	213.57
798.36	213.56
798.68	213.53
799.00	213.39
799.32	213.18
799.64	213.30
799.96	213.31
800.28	213.37
800.60	213.26
800.92	213.29
801.24	213.29
801.56	213.29
801.89	213.26
802.21	213.31
802.53	213.30
802.85	213.41
803.17	213.55
803.49	213.48
803.81	213.45
804.13	213.45
804.45	213.31
804.77	213.35
805.09	213.37
805.41	213.38
805.73	213.35
806.05	213.22
806.37	213.10
806.69	213.04
807.01	213.00
807.33	213.11
807.65	212.94
807.97	213.12
808.28	213.13
808.60	213.16
808.92	213.13
809.24	213.38
809.56	213.32
809.88	213.19
810.20	213.22
810.52	213.23
810.84	213.19
811.16	213.21
811.48	213.08
811.80	213.21
812.12	213.12
812.43	213.22
812.75	213.24
813.07	213.23
813.39	213.24
813.71	213.20
814.03	213.05
814.35	213.05
814.67	212.88
814.98	212.83
815.30	212.71
815.62	212.58
815.94	212.28
816.26	212.20
816.58	212.09
816.89	212.07
817.21	211.94
817.53	211.89
817.85	211.94
818.17	211.96
818.48	211.77
818.80	211.87
819.12	211.80
819.44	211.74
819.76	211.77
820.07	211.77
820.39	211.78
820.71	211.89
821.03	211.93
821.34	211.88
821.66	211.92
821.98	211.97
822.30	211.98
822.61	212.16
822.93	212.16
823.25	212.12
823.57	212.11
823.88	212.28
824.20	212.22
824.52	212.28
824.83	212.24
825.15	212.23
825.47	212.14
825.79	212.16
826.10	212.23
826.42	212.11
826.74	212.11
827.05	212.04
827.37	212.03
827.69	212.00
828.00	212.00
828.32	211.97
828.64	211.99
828.95	212.14
829.27	212.03
829.58	212.01
829.90	212.12
830.22	212.13
830.53	211.92
830.85	212.00
831.17	211.86
831.48	211.86
831.80	211.82
832.11	211.84
832.43	211.73
832.75	211.70
833.06	211.92
833.38	211.83
833.69	211.87
834.01	211.85
834.32	211.89
834.64	211.82
834.96	211.77
835.27	211.74
835.59	211.67
835.90	211.66
836.22	211.66
836.53	211.58
836.85	211.56
837.16	211.98
837.48	211.98
837.79	212.06
838.11	212.17
838.42	212.25
838.74	212.28
839.05	212.38
839.37	212.34
839.68	212.12
840.00	212.07
840.31	212.11
840.63	212.11
840.94	212.04
841.26	212.02
841.57	212.05
841.88	212.13
842.20	212.08
842.51	212.04
842.83	212.05
843.14	212.40
843.46	212.39
843.77	212.23
844.08	212.21
844.40	212.17
844.71	212.11
845.03	212.08
845.34	212.15
845.65	212.08
845.97	212.07
846.28	212.08
846.60	212.17
846.91	212.14
847.22	212.15
847.54	212.25
847.85	212.31
848.16	212.28
848.48	212.16
848.79	212.28
849.10	212.34
849.42	212.33
849.73	211.96
850.04	212.00
850.36	211.93
850.67	211.95
850.98	211.98
851.30	212.01
851.61	211.97
851.92	211.89
852.23	212.08
852.55	212.09
852.86	212.13
853.17	212.11
853.49	212.17
853.80	212.24
854.11	212.22
854.42	212.30
854.74	212.29
855.05	212.32
855.36	212.16
855.67	212.14
855.99	212.15
856.30	212.57
856.61	212.51
856.92	212.40
857.23	212.41
857.55	212.36
857.86	212.30
858.17	212.42
858.48	212.37
858.79	212.23
859.11	212.27
859.42	212.26
859.73	212.28
860.04	212.25
860.35	212.13
860.66	212.01
860.98	211.94
861.29	212.05
861.60	211.98
861.91	212.03
862.22	211.94
862.53	211.88
862.84	211.51
863.16	211.60
863.47	211.60
863.78	211.54
864.09	211.55
864.40	211.54
864.71	211.49
865.02	211.52
865.33	211.44
865.64	211.35
865.95	211.30
866.27	211.44
866.58	211.42
866.89	211.44
867.20	211.40
867.51	211.34
867.82	211.24
868.13	211.36
868.44	211.26
868.75	211.35
869.06	211.36
869.37	211.36
869.68	211.27
869.99	211.30
870.30	211.34
870.61	211.37
870.92	211.32
871.23	211.24
871.54	211.34
871.85	211.45
872.16	211.54
872.47	211.49
872.78	211.31
873.09	211.31
873.40	211.28
873.71	211.38
874.02	211.38
874.33	211.39
874.64	211.25
874.95	211.37
875.26	211.35
875.56	211.34
875.87	211.33
876.18	211.27
876.49	211.67
876.80	211.65
877.11	211.60
877.42	211.66
877.73	211.73
878.04	211.63
878.35	211.62
878.66	211.58
878.96	211.59
879.27	211.61
879.58	211.55
879.89	211.48
880.20	211.57
880.51	211.61
880.82	211.63
881.12	211.70
881.43	211.60
881.74	211.54
882.05	211.49
882.36	211.51
882.67	211.56
882.97	211.18
883.28	211.13
883.59	211.07
883.90	211.06
884.21	211.12
884.51	211.04
884.82	210.97
885.13	211.04
885.44	211.08
885.74	211.08
886.05	211.08
886.36	211.16
886.67	211.02
886.98	211.11
887.28	211.08
887.59	211.13
887.90	211.14
888.20	211.09
888.51	211.20
888.82	211.10
889.13	211.13
889.43	211.39
889.74	211.37
890.05	211.42
890.35	211.37
890.66	211.26
890.97	211.27
891.28	211.25
891.58	211.22
891.89	211.18
892.20	211.15
892.50	211.16
892.81	211.09
893.12	211.09
893.42	211.05
893.73	211.06
894.04	211.02
894.34	211.09
894.65	211.11
894.95	211.11
895.26	211.16
895.57	211.32
895.87	211.00
896.18	211.00
896.48	210.97
896.79	210.93
897.10	211.05
897.40	211.09
897.71	211.19
898.01	211.17
898.32	211.25
898.63	211.23
898.93	211.24
899.24	211.23
899.54	211.22
899.85	211.14
900.15	211.17
900.46	211.17
900.76	211.16
901.07	211.16
901.38	211.13
901.68	211.19
901.99	211.02
902.29	211.08
902.60	211.10
902.90	211.14
903.21	211.29
903.51	211.26
903.82	211.29
904.12	211.28
904.43	211.27
904.73	211.26
905.03	211.27
905.34	211.64
905.64	211.69
905.95	211.74
906.25	211.76
906.56	211.68
906.86	211.66
907.17	211.60
907.47	211.69
907.77	211.71
908.08	211.67
908.38	211.68
908.69	211.60
908.99	211.65
909.30	211.71
909.60	211.61
909.90	211.62
910.21	211.55
910.51	211.50
910.81	211.50
911.12	211.45
911.42	211.50
911.73	211.11
912.03	211.11
912.33	211.10
912.64	211.08
912.94	211.12
913.24	211.13
913.55	211.13
913.85	211.00
914.15	211.04
914.46	211.07
914.76	211.01
915.06	211.04
915.37	210.98
915.67	210.89
915.97	210.86
916.27	210.77
916.58	210.75
916.88	210.76
917.18	210.76
917.49	211.02
917.79	211.00
918.09	211.11
918.39	211.19
918.70	211.20
919.00	211.18
919.30	211.27
919.60	211.24
919.91	211.22
920.21	211.29
920.51	211.17
920.81	211.17
921.12	211.28
921.42	211.30
921.72	211.35
922.02	211.35
922.32	211.41
922.63	211.43
922.93	211.64
923.23	211.64
923.53	211.60
923.83	211.35
924.13	211.33
924.44	211.27
924.74	211.35
925.04	211.38
925.34	211.35
925.64	211.25
925.94	211.24
926.24	211.44
926.55	211.41
926.85	211.43
927.15	211.40
927.45	211.36
927.75	211.33
928.05	211.36
928.35	211.36
928.65	211.42
928.95	211.47
929.26	211.32
929.56	211.31
929.86	211.36
930.16	211.35
930.46	211.34
930.76	211.30
931.06	211.16
931.36	211.08
931.66	211.21
931.96	211.22
932.26	211.26
932.56	211.09
932.86	211.17
933.16	211.19
933.46	211.11
933.76	211.09
934.06	211.18
934.36	211.26
934.66	211.22
934.96	211.23
935.26	211.14
935.56	211.22
935.86	211.18
936.16	211.08
936.46	211.00
936.76	210.98
937.06	211.03
937.36	211.03
937.66	211.10
937.96	211.06
938.26	211.00
938.56	210.94
938.86	210.97
939.16	210.95
939.46	211.03
939.76	211.10
940.06	211.11
940.35	211.06
940.65	210.89
940.95	210.91
941.25	210.87
941.55	210.85
941.85	210.80
942.15	210.92
942.45	211.03
942.75	211.08
943.04	211.16
943.34	211.21
943.64	211.19
943.94	211.16
944.24	211.11
944.54	211.20
944.84	211.18
945.13	211.17
945.43	211.11
945.73	211.08
946.03	211.07
946.33	210.98
946.62	210.95
946.92	211.01
947.22	211.05
947.52	211.07
947.82	211.15
948.11	211.11
948.41	211.11
948.71	211.09
949.01	211.17
949.31	211.13
949.60	211.10
949.90	211.20
950.20	211.17
950.50	211.21
950.79	211.11
951.09	211.23
951.39	211.25
951.69	211.25
951.98	211.34
952.28	211.31
952.58	211.36
952.87	211.39
953.17	211.38
953.47	211.31
953.76	211.24
954.06	211.20
954.36	211.16
954.66	211.02
954.95	211.07
955.25	211.02
955.55	211.03
955.84	211.06
956.14	211.03
956.44	211.06
956.73	210.99
957.03	211.06
957.32	211.10
957.62	211.05
957.92	211.10
958.21	211.00
958.51	211.45
958.81	211.55
959.10	211.53
959.40	211.57
959.69	211.65
959.99	211.70
960.29	211.70
960.58	211.79
960.88	212.00
961.17	212.00
961.47	212.05
961.76	211.98
962.06	211.94
962.36	211.93
962.65	211.90
962.95	211.88
963.24	211.84
963.54	211.77
963.83	211.80
964.13	211.81
964.42	211.73
964.72	211.45
965.01	211.39
965.31	211.36
965.60	211.28
965.90	211.45
966.19	211.34
966.49	211.38
966.78	211.28
967.08	211.22
967.37	211.20
967.67	211.12
967.96	211.21
968.26	211.24
968.55	211.26
968.85	211.31
969.14	211.40
969.43	211.35
969.73	211.29
970.02	211.29
970.32	211.19
970.61	211.22
970.91	211.08
971.20	211.00
971.49	210.99
971.79	211.01
972.08	210.74
972.38	210.84
972.67	210.80
972.96	210.86
973.26	210.79
973.55	210.90
973.85	210.87
974.14	210.82
974.43	210.76
974.73	210.68
975.02	210.61
975.31	210.60
975.61	210.61
975.90	210.57
976.19	210.56
976.49	210.64
976.78	210.68
977.07	210.62
977.37	210.68
977.66	210.71
977.95	210.73
978.24	210.88
978.54	210.94
978.83	210.89
979.12	210.89
979.42	210.87
979.71	210.75
980.00	210.75
980.29	210.82
980.59	210.79
980.88	210.85
981.17	210.80
981.46	210.78
981.76	210.79
982.05	210.95
982.34	210.94
982.63	210.98
982.93	210.95
983.22	211.16
983.51	211.13
983.80	211.19
984.09	211.23
984.39	211.14
984.68	211.07
984.97	211.12
985.26	211.04
985.55	211.05
985.85	211.05
986.14	211.10
986.43	211.11
986.72	211.17
987.01	211.10
987.30	211.08
987.59	211.00
987.89	211.00
988.18	210.85
988.47	210.79
988.76	210.65
989.05	210.71
989.34	210.61
989.63	210.67
989.92	210.60
990.22	210.55
990.51	210.44
990.80	210.44
991.09	210.40
991.38	210.49
991.67	210.48
991.96	210.48
992.25	210.50
992.54	210.37
992.83	210.28
993.12	210.27
993.41	210.42
993.70	210.64
993.99	210.67
994.28	210.77
994.58	210.84
994.87	210.88
995.16	210.76
995.45	210.79
995.74	210.67
996.03	210.73
996.32	210.81
996.61	210.93
996.90	210.84
997.19	210.89
997.48	210.84
997.77	210.75
998.06	210.72
998.34	210.67
998.63	210.72
998.92	210.80
999.21	210.86
999.50	210.84
999.79	210.70
1000.08	210.70
1000.37	210.69
1000.66	210.59
1000.95	210.71
1001.24	210.80
1001.53	210.74
1001.82	210.75
1002.11	210.71
1002.40	210.67
1002.68	210.78
1002.97	211.09
1003.26	211.04
1003.55	211.03
1003.84	211.05
1004.13	211.20
1004.42	211.20
1004.71	211.21
1004.99	211.15
1005.28	211.21
1005.57	211.19
1005.86	211.07
1006.15	211.07
1006.44	211.06
1006.72	211.20
1007.01	211.08
1007.30	211.05
1007.59	211.08
1007.88	211.13
1008.17	211.14
1008.45	211.05
1008.74	210.93
1009.03	210.72
1009.32	210.71
1009.60	210.69
1009.89	210.69
1010.18	210.52
1010.47	210.56
1010.76	210.52
1011.04	210.51
1011.33	210.52
1011.62	210.50
1011.91	210.63
1012.19	210.63
1012.48	210.56
1012.77	210.55
1013.05	210.71
1013.34	210.75
1013.63	210.65
1013.92	210.67
1014.20	210.64
1014.49	210.70
1014.78	210.67
1015.06	210.63
1015.35	210.74
1015.64	210.86
1015.92	210.94
1016.21	210.98
1016.50	210.95
1016.78	211.02
1017.07	211.03
1017.36	210.94
1017.64	210.90
1017.93	210.92
1018.22	210.85
1018.50	210.87
1018.79	210.80
1019.08	210.65
1019.36	210.65
1019.65	210.69
1019.93	210.74
1020.22	210.78
1020.51	210.89
1020.79	210.86
1021.08	209.70
1021.36	209.85
1021.65	210.05
1021.94	210.55
1022.22	210.90
1022.51	210.60
1022.79	212.25
1023.08	211.00
1023.36	213.60
1023.65	209.55
>>>>>End Processed Spectral Data<<<<<
