SpectraSuite Data File
++++++++++++++++++++++++++++++++++++
Date: Mon Feb 25 17:01:36 EST 2013
User: group
Dark Spectrum Present: No
Reference Spectrum Present: No
Number of Sampled Component Spectra: 1
Spectrometers: USB2E7196
Integration Time (usec): 104000 (USB2E7196)
Spectra Averaged: 20 (USB2E7196)
Boxcar Smoothing: 10 (USB2E7196)
Correct for Electrical Dark: No (USB2E7196)
Strobe/Lamp Enabled: No (USB2E7196)
Correct for Detector Non-linearity: No (USB2E7196)
Correct for Stray Light: No (USB2E7196)
Number of Pixels in Processed Spectrum: 2048
>>>>>Begin Processed Spectral Data<<<<<
339.09	0.00
339.48	198.80
339.86	199.45
340.24	201.35
340.63	203.60
341.01	208.75
341.39	206.50
341.78	206.25
342.16	208.50
342.54	208.60
342.93	198.11
343.31	208.17
343.69	208.72
344.07	209.19
344.46	209.65
344.84	209.99
345.22	210.05
345.60	210.25
345.99	210.49
346.37	210.64
346.75	210.74
347.13	210.86
347.52	210.86
347.90	211.00
348.28	211.10
348.66	211.25
349.05	211.14
349.43	211.18
349.81	211.18
350.19	211.18
350.57	211.24
350.96	211.39
351.34	211.40
351.72	211.43
352.10	211.50
352.48	211.56
352.87	211.62
353.25	211.65
353.63	211.75
354.01	211.78
354.39	211.82
354.77	211.89
355.15	211.95
355.54	212.01
355.92	211.92
356.30	211.95
356.68	212.23
357.06	212.30
357.44	212.28
357.82	212.36
358.20	212.45
358.58	212.46
358.97	212.46
359.35	212.53
359.73	212.72
360.11	212.79
360.49	212.81
360.87	212.85
361.25	212.94
361.63	213.04
362.01	213.12
362.39	213.10
362.77	213.12
363.15	213.14
363.53	213.20
363.91	213.23
364.29	213.17
364.67	212.84
365.05	212.90
365.43	213.03
365.81	213.06
366.19	213.12
366.57	213.27
366.95	213.30
367.33	213.20
367.71	213.08
368.09	213.19
368.47	213.15
368.85	213.09
369.23	213.18
369.61	213.06
369.99	213.13
370.37	213.17
370.75	213.41
371.13	213.33
371.51	213.27
371.89	213.26
372.27	213.29
372.65	213.20
373.03	213.20
373.41	213.11
373.78	213.00
374.16	212.89
374.54	212.74
374.92	212.66
375.30	212.69
375.68	212.67
376.06	212.58
376.44	212.52
376.82	212.55
377.19	212.48
377.57	212.43
377.95	212.24
378.33	212.16
378.71	211.81
379.09	211.83
379.47	211.78
379.84	211.64
380.22	211.55
380.60	211.51
380.98	211.44
381.36	211.41
381.73	211.36
382.11	211.36
382.49	211.35
382.87	211.25
383.25	211.18
383.62	211.47
384.00	211.41
384.38	211.45
384.76	211.45
385.13	211.49
385.51	211.43
385.89	211.35
386.27	211.37
386.64	211.36
387.02	211.20
387.40	211.17
387.78	211.24
388.15	211.29
388.53	211.27
388.91	211.21
389.29	211.13
389.66	211.12
390.04	211.04
390.42	211.02
390.79	211.01
391.17	210.94
391.55	210.57
391.92	210.56
392.30	210.49
392.68	210.41
393.05	210.42
393.43	210.47
393.81	210.56
394.18	210.46
394.56	210.51
394.94	210.63
395.31	210.58
395.69	210.66
396.06	210.60
396.44	210.60
396.82	210.56
397.19	210.79
397.57	210.78
397.95	210.81
398.32	210.70
398.70	210.75
399.07	210.98
399.45	210.97
399.82	210.98
400.20	210.97
400.58	211.04
400.95	210.84
401.33	210.92
401.70	211.14
402.08	211.18
402.45	211.23
402.83	211.39
403.20	211.49
403.58	211.55
403.95	211.74
404.33	211.92
404.71	212.10
405.08	212.37
405.46	212.57
405.83	212.75
406.21	213.02
406.58	213.26
406.96	213.36
407.33	213.61
407.70	213.89
408.08	214.48
408.45	214.76
408.83	215.23
409.20	215.52
409.58	215.68
409.95	216.14
410.33	216.54
410.70	216.86
411.08	217.45
411.45	217.93
411.82	218.36
412.20	218.94
412.57	219.77
412.95	220.05
413.32	220.70
413.69	221.41
414.07	222.17
414.44	222.92
414.82	223.87
415.19	224.88
415.56	225.83
415.94	226.73
416.31	227.96
416.68	229.24
417.06	230.70
417.43	232.13
417.81	233.63
418.18	235.25
418.55	236.91
418.93	238.71
419.30	240.64
419.67	242.65
420.04	244.74
420.42	246.82
420.79	249.45
421.16	252.01
421.54	254.68
421.91	257.39
422.28	260.20
422.66	263.15
423.03	266.25
423.40	269.32
423.77	272.67
424.15	276.00
424.52	279.39
424.89	283.16
425.26	286.81
425.64	290.34
426.01	294.10
426.38	298.26
426.75	302.44
427.13	306.63
427.50	311.14
427.87	315.83
428.24	320.40
428.61	324.96
428.99	329.98
429.36	335.43
429.73	340.76
430.10	346.21
430.47	351.59
430.85	357.21
431.22	363.20
431.59	369.53
431.96	375.59
432.33	382.50
432.70	389.14
433.08	396.76
433.45	404.01
433.82	411.42
434.19	419.67
434.56	427.57
434.93	435.27
435.30	443.06
435.68	451.56
436.05	460.08
436.42	468.34
436.79	476.07
437.16	484.21
437.53	492.98
437.90	501.53
438.27	510.29
438.64	519.20
439.01	527.73
439.38	535.31
439.75	542.63
440.13	550.82
440.50	558.60
440.87	565.19
441.24	572.03
441.61	579.46
441.98	585.05
442.35	591.53
442.72	598.14
443.09	604.50
443.46	608.61
443.83	611.61
444.20	614.37
444.57	617.94
444.94	620.02
445.31	622.23
445.68	624.59
446.05	625.77
446.42	625.64
446.79	625.22
447.16	624.58
447.53	624.57
447.90	621.91
448.27	619.31
448.64	615.34
449.01	612.79
449.37	607.61
449.74	602.45
450.11	596.53
450.48	589.83
450.85	582.75
451.22	576.89
451.59	571.24
451.96	565.84
452.33	558.48
452.70	551.92
453.07	543.93
453.43	535.55
453.80	527.75
454.17	520.10
454.54	512.97
454.91	505.24
455.28	497.64
455.65	490.54
456.02	483.85
456.38	478.08
456.75	470.60
457.12	464.40
457.49	458.23
457.86	451.88
458.23	446.70
458.59	441.14
458.96	435.40
459.33	430.26
459.70	425.12
460.07	421.09
460.43	416.42
460.80	411.99
461.17	408.34
461.54	404.32
461.91	400.44
462.27	396.46
462.64	393.21
463.01	389.44
463.38	386.13
463.74	382.19
464.11	378.83
464.48	375.95
464.85	372.90
465.21	370.72
465.58	368.48
465.95	365.58
466.32	363.06
466.68	360.55
467.05	358.09
467.42	355.67
467.78	353.10
468.15	350.65
468.52	348.87
468.88	346.27
469.25	344.08
469.62	342.47
469.98	340.64
470.35	338.85
470.72	337.29
471.08	335.36
471.45	333.85
471.82	332.38
472.18	330.69
472.55	329.41
472.92	327.82
473.28	326.48
473.65	325.17
474.02	323.93
474.38	322.96
474.75	322.15
475.11	321.17
475.48	320.41
475.85	319.77
476.21	318.92
476.58	318.35
476.94	317.84
477.31	317.24
477.67	316.66
478.04	316.26
478.41	315.87
478.77	315.84
479.14	315.41
479.50	315.21
479.87	315.16
480.23	315.18
480.60	315.01
480.96	314.92
481.33	315.06
481.69	315.09
482.06	315.16
482.42	315.18
482.79	315.25
483.15	315.44
483.52	315.78
483.88	316.05
484.25	316.34
484.61	316.61
484.98	316.95
485.34	317.48
485.71	318.02
486.07	318.57
486.44	318.89
486.80	319.56
487.17	320.34
487.53	321.20
487.90	322.04
488.26	323.11
488.62	324.13
488.99	325.12
489.35	326.26
489.72	327.36
490.08	328.41
490.44	329.57
490.81	330.82
491.17	332.02
491.54	333.49
491.90	334.86
492.26	336.36
492.63	337.84
492.99	339.39
493.36	340.97
493.72	342.78
494.08	344.52
494.45	346.41
494.81	348.29
495.17	350.04
495.54	351.95
495.90	353.90
496.26	355.75
496.63	357.67
496.99	359.70
497.35	361.66
497.72	363.89
498.08	366.07
498.44	368.19
498.80	370.40
499.17	372.52
499.53	374.76
499.89	377.17
500.26	379.40
500.62	381.53
500.98	383.75
501.34	385.82
501.71	388.21
502.07	390.30
502.43	392.30
502.79	394.28
503.16	396.35
503.52	398.32
503.88	400.39
504.24	402.46
504.60	404.37
504.97	406.38
505.33	408.09
505.69	410.14
506.05	412.01
506.41	413.64
506.78	415.25
507.14	416.75
507.50	418.16
507.86	419.68
508.22	421.14
508.59	422.40
508.95	423.70
509.31	425.05
509.67	426.26
510.03	427.50
510.39	428.74
510.75	429.75
511.12	430.74
511.48	431.67
511.84	432.50
512.20	433.25
512.56	433.96
512.92	434.88
513.28	435.33
513.64	435.85
514.00	436.53
514.37	437.08
514.73	437.70
515.09	438.11
515.45	438.52
515.81	438.90
516.17	439.11
516.53	439.36
516.89	439.23
517.25	439.31
517.61	439.44
517.97	439.40
518.33	439.28
518.69	439.16
519.05	439.12
519.41	439.08
519.77	439.39
520.13	439.23
520.49	439.02
520.85	438.88
521.21	438.85
521.57	438.70
521.93	438.38
522.29	438.25
522.65	438.12
523.01	437.86
523.37	437.69
523.73	437.67
524.09	437.50
524.45	437.35
524.81	437.40
525.17	437.40
525.53	437.57
525.89	437.86
526.25	438.15
526.61	438.17
526.97	438.33
527.33	438.27
527.68	438.91
528.04	439.20
528.40	439.51
528.76	439.98
529.12	440.44
529.48	441.23
529.84	441.77
530.20	442.38
530.56	443.29
530.91	444.13
531.27	445.14
531.63	446.21
531.99	447.30
532.35	448.22
532.71	449.11
533.07	450.15
533.42	451.57
533.78	452.57
534.14	453.87
534.50	455.13
534.86	456.65
535.21	457.80
535.57	459.42
535.93	460.78
536.29	462.48
536.65	464.19
537.00	465.57
537.36	467.18
537.72	468.86
538.08	470.59
538.44	472.30
538.79	474.00
539.15	475.71
539.51	477.64
539.87	479.73
540.22	481.85
540.58	484.05
540.94	485.87
541.29	488.17
541.65	490.27
542.01	492.56
542.37	494.69
542.72	497.01
543.08	499.15
543.44	501.88
543.79	504.04
544.15	506.34
544.51	509.18
544.87	511.77
545.22	514.26
545.58	516.76
545.94	519.24
546.29	521.91
546.65	524.55
547.01	527.09
547.36	529.75
547.72	532.44
548.07	535.05
548.43	537.54
548.79	539.98
549.14	542.65
549.50	545.29
549.86	547.85
550.21	550.43
550.57	553.30
550.92	555.66
551.28	558.27
551.64	560.93
551.99	563.44
552.35	566.04
552.70	568.72
553.06	571.38
553.41	574.05
553.77	576.93
554.13	579.86
554.48	582.61
554.84	585.30
555.19	587.94
555.55	590.76
555.90	593.37
556.26	596.15
556.61	598.80
556.97	601.14
557.32	603.84
557.68	606.33
558.03	608.61
558.39	611.06
558.74	613.48
559.10	615.87
559.45	618.30
559.81	620.90
560.16	623.23
560.52	625.45
560.87	628.00
561.23	629.93
561.58	632.18
561.94	634.24
562.29	636.35
562.64	638.54
563.00	640.44
563.35	642.86
563.71	645.19
564.06	647.29
564.42	649.58
564.77	651.71
565.12	654.04
565.48	656.57
565.83	658.84
566.19	661.18
566.54	663.19
566.89	665.09
567.25	667.16
567.60	669.40
567.96	671.63
568.31	673.62
568.66	675.51
569.02	676.86
569.37	678.52
569.72	680.05
570.08	681.49
570.43	682.98
570.78	684.08
571.14	685.02
571.49	686.22
571.84	687.41
572.20	688.31
572.55	689.21
572.90	689.62
573.26	690.34
573.61	690.77
573.96	691.53
574.31	692.12
574.67	692.42
575.02	692.53
575.37	692.46
575.72	692.45
576.08	692.78
576.43	692.91
576.78	693.20
577.13	693.40
577.49	693.54
577.84	693.80
578.19	694.06
578.54	694.48
578.90	694.74
579.25	694.89
579.60	694.90
579.95	694.67
580.30	694.87
580.66	694.95
581.01	694.88
581.36	694.50
581.71	694.39
582.06	694.44
582.42	694.33
582.77	694.11
583.12	693.92
583.47	693.67
583.82	693.64
584.17	693.46
584.53	693.48
584.88	693.18
585.23	692.88
585.58	692.43
585.93	691.93
586.28	691.55
586.63	690.95
586.98	690.52
587.34	690.40
587.69	689.82
588.04	689.40
588.39	689.01
588.74	688.50
589.09	688.08
589.44	687.17
589.79	686.67
590.14	686.34
590.49	685.83
590.84	685.05
591.19	684.57
591.54	683.80
591.89	682.56
592.25	681.95
592.60	680.90
592.95	680.09
593.30	678.88
593.65	677.58
594.00	676.55
594.35	676.32
594.70	674.92
595.05	673.89
595.40	672.65
595.75	671.35
596.10	670.34
596.45	669.17
596.80	668.15
597.15	666.99
597.50	665.64
597.85	664.50
598.19	663.31
598.54	661.99
598.89	660.91
599.24	660.08
599.59	658.90
599.94	657.76
600.29	656.46
600.64	655.45
600.99	654.50
601.34	653.51
601.69	651.58
602.04	650.47
602.39	649.23
602.74	648.12
603.08	647.18
603.43	646.35
603.78	645.18
604.13	644.03
604.48	643.05
604.83	642.20
605.18	641.19
605.53	640.05
605.87	638.82
606.22	637.69
606.57	636.45
606.92	634.98
607.27	633.65
607.62	632.47
607.96	631.35
608.31	630.20
608.66	628.80
609.01	627.40
609.36	626.20
609.70	624.88
610.05	623.49
610.40	621.92
610.75	620.07
611.10	618.61
611.44	616.97
611.79	615.18
612.14	613.27
612.49	611.28
612.83	609.77
613.18	608.03
613.53	606.07
613.88	604.15
614.22	602.53
614.57	600.75
614.92	598.96
615.27	597.02
615.61	594.97
615.96	593.33
616.31	591.68
616.65	590.08
617.00	588.25
617.35	586.33
617.70	584.37
618.04	582.44
618.39	580.31
618.74	578.50
619.08	576.55
619.43	574.69
619.78	573.00
620.12	571.05
620.47	569.24
620.82	567.24
621.16	565.25
621.51	563.52
621.85	561.70
622.20	559.77
622.55	557.84
622.89	555.90
623.24	553.94
623.59	551.85
623.93	549.69
624.28	547.85
624.62	546.45
624.97	544.76
625.32	543.06
625.66	541.32
626.01	539.40
626.35	537.71
626.70	535.82
627.04	533.89
627.39	531.97
627.73	530.34
628.08	528.80
628.43	526.92
628.77	524.91
629.12	523.02
629.46	521.33
629.81	519.64
630.15	517.97
630.50	516.00
630.84	514.18
631.19	512.42
631.53	510.57
631.88	508.10
632.22	506.15
632.57	504.47
632.91	502.75
633.26	500.97
633.60	499.08
633.95	497.46
634.29	495.65
634.64	494.00
634.98	492.02
635.32	490.33
635.67	488.90
636.01	487.21
636.36	485.56
636.70	484.01
637.05	482.13
637.39	480.45
637.73	479.00
638.08	477.66
638.42	476.09
638.77	474.63
639.11	473.20
639.45	471.57
639.80	469.74
640.14	467.95
640.49	466.33
640.83	464.70
641.17	462.97
641.52	461.33
641.86	459.51
642.20	457.90
642.55	455.93
642.89	454.00
643.23	452.30
643.58	450.83
643.92	448.91
644.26	447.28
644.61	445.70
644.95	443.97
645.29	442.11
645.64	440.35
645.98	438.47
646.32	436.83
646.66	435.06
647.01	433.33
647.35	431.76
647.69	430.05
648.04	428.44
648.38	426.89
648.72	425.27
649.06	423.70
649.41	421.93
649.75	420.33
650.09	418.81
650.43	417.15
650.78	415.27
651.12	413.52
651.46	411.89
651.80	410.24
652.14	408.64
652.49	407.18
652.83	405.56
653.17	403.89
653.51	402.27
653.85	400.99
654.20	399.62
654.54	397.93
654.88	396.30
655.22	394.79
655.56	393.12
655.90	391.43
656.25	389.83
656.59	388.30
656.93	386.80
657.27	385.46
657.61	383.87
657.95	382.50
658.29	381.23
658.64	379.85
658.98	378.27
659.32	376.55
659.66	374.87
660.00	373.27
660.34	371.84
660.68	370.23
661.02	368.63
661.36	367.05
661.70	365.65
662.05	364.20
662.39	362.79
662.73	361.56
663.07	360.61
663.41	359.29
663.75	357.94
664.09	356.60
664.43	355.07
664.77	353.89
665.11	352.43
665.45	351.04
665.79	349.71
666.13	348.43
666.47	347.27
666.81	346.04
667.15	344.83
667.49	343.67
667.83	342.58
668.17	341.31
668.51	340.24
668.85	339.20
669.19	338.27
669.53	337.03
669.87	335.76
670.21	334.37
670.55	333.19
670.89	332.34
671.23	331.39
671.57	330.36
671.91	329.22
672.25	328.17
672.58	327.23
672.92	326.15
673.26	325.19
673.60	324.20
673.94	323.19
674.28	322.32
674.62	321.39
674.96	320.48
675.30	319.58
675.64	318.56
675.97	317.55
676.31	316.52
676.65	315.62
676.99	314.82
677.33	313.90
677.67	313.03
678.01	311.91
678.34	310.93
678.68	310.05
679.02	309.17
679.36	308.24
679.70	307.22
680.04	306.38
680.37	305.47
680.71	304.58
681.05	303.84
681.39	303.05
681.73	302.17
682.06	301.35
682.40	300.49
682.74	299.72
683.08	298.95
683.42	298.02
683.75	297.29
684.09	296.42
684.43	295.62
684.77	294.82
685.10	294.05
685.44	293.17
685.78	292.28
686.12	291.45
686.45	290.75
686.79	289.99
687.13	289.24
687.46	288.45
687.80	287.81
688.14	287.06
688.48	286.35
688.81	285.55
689.15	284.86
689.49	284.08
689.82	283.36
690.16	282.52
690.50	281.82
690.83	281.00
691.17	280.23
691.51	279.46
691.84	278.76
692.18	278.00
692.52	277.41
692.85	276.83
693.19	276.34
693.52	275.80
693.86	275.07
694.20	274.45
694.53	273.84
694.87	273.06
695.21	272.32
695.54	271.54
695.88	270.83
696.21	270.11
696.55	269.64
696.88	269.04
697.22	268.48
697.56	267.92
697.89	267.34
698.23	266.84
698.56	266.23
698.90	265.73
699.23	265.12
699.57	264.51
699.90	263.91
700.24	263.21
700.58	262.54
700.91	262.13
701.25	261.81
701.58	261.42
701.92	260.99
702.25	260.51
702.59	259.98
702.92	259.56
703.26	259.03
703.59	258.56
703.93	258.31
704.26	257.86
704.60	257.45
704.93	256.94
705.26	256.28
705.60	256.02
705.93	255.48
706.27	255.29
706.60	254.93
706.94	254.66
707.27	254.27
707.61	253.84
707.94	253.41
708.27	252.73
708.61	252.17
708.94	251.72
709.28	251.30
709.61	250.85
709.94	250.47
710.28	250.08
710.61	249.61
710.95	248.87
711.28	248.68
711.61	248.20
711.95	247.98
712.28	247.73
712.61	247.33
712.95	247.20
713.28	246.90
713.61	246.50
713.95	246.07
714.28	245.66
714.61	245.36
714.95	244.97
715.28	244.60
715.61	244.28
715.95	244.01
716.28	243.66
716.61	243.51
716.95	243.10
717.28	242.85
717.61	242.53
717.94	242.20
718.28	241.65
718.61	241.34
718.94	240.96
719.27	240.64
719.61	240.21
719.94	239.79
720.27	239.26
720.60	238.92
720.94	238.61
721.27	238.38
721.60	238.19
721.93	237.94
722.27	237.81
722.60	237.64
722.93	237.24
723.26	237.01
723.59	236.65
723.93	236.46
724.26	236.24
724.59	236.01
724.92	235.86
725.25	235.75
725.59	235.56
725.92	235.32
726.25	235.08
726.58	234.93
726.91	234.64
727.24	234.53
727.57	234.39
727.91	234.05
728.24	233.87
728.57	233.48
728.90	233.29
729.23	232.94
729.56	232.87
729.89	232.71
730.22	232.49
730.55	232.25
730.89	231.97
731.22	231.73
731.55	231.66
731.88	231.43
732.21	231.12
732.54	230.89
732.87	230.72
733.20	230.52
733.53	230.31
733.86	230.14
734.19	229.82
734.52	229.64
734.85	229.78
735.18	229.53
735.51	229.54
735.84	229.39
736.17	229.35
736.50	228.95
736.83	229.17
737.16	228.94
737.49	228.81
737.82	228.69
738.15	228.49
738.48	228.11
738.81	227.87
739.14	227.65
739.47	227.50
739.80	227.32
740.13	227.20
740.46	226.99
740.79	226.85
741.12	226.70
741.45	226.49
741.78	226.11
742.11	226.12
742.44	225.88
742.77	225.73
743.10	225.48
743.43	225.34
743.75	224.86
744.08	225.22
744.41	225.00
744.74	224.88
745.07	224.74
745.40	224.66
745.73	224.68
746.06	224.62
746.39	224.48
746.71	224.32
747.04	224.11
747.37	223.95
747.70	223.83
748.03	223.79
748.36	223.69
748.68	223.50
749.01	223.18
749.34	223.07
749.67	222.93
750.00	222.91
750.33	223.04
750.65	222.93
750.98	222.37
751.31	222.34
751.64	222.18
751.97	222.32
752.29	222.22
752.62	221.98
752.95	221.75
753.28	221.62
753.60	221.48
753.93	221.56
754.26	221.55
754.59	221.32
754.91	221.08
755.24	220.93
755.57	220.87
755.90	220.82
756.22	220.69
756.55	220.54
756.88	220.35
757.20	220.03
757.53	219.88
757.86	219.77
758.19	219.68
758.51	219.61
758.84	219.30
759.17	219.19
759.49	219.13
759.82	219.29
760.15	219.25
760.47	219.20
760.80	218.92
761.13	218.92
761.45	218.84
761.78	218.83
762.11	218.82
762.43	218.73
762.76	218.63
763.08	218.60
763.41	218.50
763.74	218.42
764.06	218.33
764.39	218.25
764.71	218.23
765.04	218.09
765.37	217.96
765.69	217.89
766.02	217.75
766.34	217.70
766.67	217.55
767.00	217.55
767.32	217.67
767.65	217.86
767.97	217.63
768.30	217.59
768.62	217.59
768.95	217.48
769.27	217.38
769.60	217.32
769.92	217.15
770.25	217.02
770.57	216.89
770.90	216.83
771.22	216.70
771.55	216.53
771.87	216.55
772.20	216.55
772.52	216.75
772.85	217.17
773.17	217.10
773.50	216.92
773.82	216.84
774.15	216.63
774.47	216.36
774.80	216.32
775.12	216.36
775.45	216.25
775.77	216.23
776.09	216.29
776.42	216.28
776.74	216.39
777.07	216.43
777.39	216.42
777.72	216.34
778.04	216.40
778.36	216.39
778.69	216.32
779.01	216.29
779.33	215.95
779.66	215.41
779.98	215.35
780.31	215.37
780.63	215.45
780.95	215.40
781.28	215.32
781.60	215.31
781.92	215.18
782.25	215.12
782.57	215.14
782.89	214.90
783.22	214.83
783.54	214.69
783.86	214.66
784.19	214.70
784.51	214.77
784.83	214.58
785.16	214.49
785.48	214.38
785.80	214.34
786.12	214.35
786.45	214.41
786.77	214.39
787.09	214.30
787.42	214.05
787.74	213.98
788.06	213.95
788.38	213.89
788.71	213.83
789.03	213.74
789.35	213.71
789.67	213.78
789.99	213.80
790.32	213.74
790.64	213.75
790.96	214.01
791.28	213.93
791.61	213.98
791.93	214.10
792.25	214.08
792.57	214.22
792.89	214.16
793.21	214.13
793.54	214.09
793.86	214.07
794.18	214.10
794.50	214.10
794.82	214.14
795.14	214.18
795.47	214.22
795.79	214.31
796.11	214.18
796.43	214.11
796.75	214.05
797.07	214.06
797.39	213.99
797.71	213.66
798.04	213.62
798.36	213.57
798.68	213.50
799.00	213.60
799.32	213.46
799.64	213.49
799.96	213.52
800.28	213.55
800.60	213.53
800.92	213.56
801.24	213.55
801.56	213.55
801.89	213.47
802.21	213.44
802.53	213.32
802.85	213.39
803.17	213.55
803.49	213.46
803.81	213.49
804.13	213.41
804.45	213.42
804.77	213.42
805.09	213.45
805.41	213.40
805.73	213.27
806.05	213.22
806.37	213.17
806.69	213.07
807.01	212.99
807.33	213.01
807.65	212.87
807.97	212.98
808.28	212.93
808.60	212.92
808.92	212.95
809.24	213.22
809.56	213.14
809.88	213.00
810.20	213.03
810.52	213.02
810.84	212.99
811.16	212.88
811.48	212.85
811.80	212.91
812.12	212.81
812.43	212.90
812.75	212.78
813.07	212.71
813.39	212.72
813.71	212.72
814.03	212.70
814.35	212.74
814.67	212.59
814.98	212.58
815.30	212.60
815.62	212.53
815.94	212.22
816.26	212.21
816.58	212.14
816.89	212.15
817.21	212.12
817.53	212.13
817.85	212.23
818.17	212.19
818.48	212.05
818.80	212.11
819.12	212.04
819.44	212.00
819.76	211.95
820.07	211.93
820.39	211.93
820.71	211.95
821.03	211.94
821.34	211.87
821.66	211.90
821.98	211.90
822.30	211.91
822.61	212.11
822.93	212.10
823.25	212.10
823.57	212.12
823.88	212.20
824.20	212.24
824.52	212.24
824.83	212.28
825.15	212.29
825.47	212.26
825.79	212.31
826.10	212.37
826.42	212.37
826.74	212.44
827.05	212.43
827.37	212.44
827.69	212.40
828.00	212.44
828.32	212.44
828.64	212.34
828.95	212.46
829.27	212.36
829.58	212.32
829.90	212.31
830.22	212.26
830.53	212.08
830.85	212.03
831.17	211.98
831.48	211.93
831.80	211.87
832.11	211.95
832.43	211.92
832.75	211.88
833.06	212.08
833.38	211.97
833.69	211.95
834.01	211.92
834.32	211.89
834.64	211.81
834.96	211.75
835.27	211.76
835.59	211.67
835.90	211.63
836.22	211.64
836.53	211.63
836.85	211.59
837.16	212.00
837.48	212.00
837.79	212.08
838.11	212.07
838.42	212.07
838.74	212.08
839.05	212.00
839.37	212.04
839.68	211.80
840.00	211.81
840.31	211.86
840.63	211.76
840.94	211.83
841.26	211.89
841.57	211.92
841.88	211.90
842.20	211.81
842.51	211.71
842.83	211.67
843.14	212.02
843.46	212.10
843.77	211.86
844.08	211.85
844.40	211.69
844.71	211.64
845.03	211.61
845.34	211.58
845.65	211.58
845.97	211.59
846.28	211.64
846.60	211.64
846.91	211.59
847.22	211.65
847.54	211.65
847.85	211.60
848.16	211.54
848.48	211.55
848.79	211.72
849.10	211.76
849.42	211.88
849.73	211.49
850.04	211.37
850.36	211.26
850.67	211.33
850.98	211.30
851.30	211.34
851.61	211.38
851.92	211.36
852.23	211.41
852.55	211.39
852.86	211.39
853.17	211.33
853.49	211.41
853.80	211.45
854.11	211.48
854.42	211.52
854.74	211.42
855.05	211.40
855.36	211.23
855.67	211.23
855.99	211.18
856.30	211.58
856.61	211.61
856.92	211.62
857.23	211.53
857.55	211.55
857.86	211.57
858.17	211.63
858.48	211.56
858.79	211.51
859.11	211.51
859.42	211.50
859.73	211.53
860.04	211.49
860.35	211.38
860.66	211.26
860.98	211.26
861.29	211.35
861.60	211.32
861.91	211.40
862.22	211.26
862.53	211.20
862.84	210.80
863.16	210.88
863.47	210.82
863.78	210.79
864.09	210.80
864.40	210.82
864.71	210.78
865.02	210.77
865.33	210.74
865.64	210.66
865.95	210.67
866.27	210.84
866.58	210.78
866.89	210.85
867.20	210.77
867.51	210.72
867.82	210.73
868.13	210.82
868.44	210.68
868.75	210.85
869.06	210.91
869.37	210.97
869.68	210.84
869.99	210.89
870.30	210.94
870.61	211.00
870.92	210.96
871.23	210.97
871.54	211.07
871.85	211.16
872.16	211.23
872.47	211.16
872.78	211.03
873.09	211.05
873.40	211.06
873.71	211.18
874.02	211.24
874.33	211.26
874.64	211.17
874.95	211.27
875.26	211.26
875.56	211.22
875.87	211.16
876.18	211.16
876.49	211.48
876.80	211.44
877.11	211.32
877.42	211.24
877.73	211.28
878.04	211.25
878.35	211.32
878.66	211.35
878.96	211.48
879.27	211.49
879.58	211.51
879.89	211.47
880.20	211.57
880.51	211.59
880.82	211.60
881.12	211.71
881.43	211.62
881.74	211.54
882.05	211.52
882.36	211.61
882.67	211.72
882.97	211.35
883.28	211.36
883.59	211.38
883.90	211.49
884.21	211.53
884.51	211.50
884.82	211.39
885.13	211.40
885.44	211.31
885.74	211.28
886.05	211.29
886.36	211.27
886.67	211.16
886.98	211.26
887.28	211.29
887.59	211.25
887.90	211.36
888.20	211.31
888.51	211.41
888.82	211.30
889.13	211.22
889.43	211.49
889.74	211.52
890.05	211.49
890.35	211.50
890.66	211.38
890.97	211.35
891.28	211.30
891.58	211.30
891.89	211.27
892.20	211.23
892.50	211.12
892.81	211.14
893.12	211.10
893.42	210.91
893.73	210.88
894.04	210.91
894.34	210.88
894.65	210.95
894.95	210.90
895.26	210.90
895.57	211.03
895.87	210.74
896.18	210.71
896.48	210.75
896.79	210.74
897.10	210.81
897.40	210.82
897.71	210.86
898.01	210.84
898.32	210.89
898.63	210.95
898.93	210.99
899.24	210.97
899.54	210.95
899.85	211.03
900.15	211.02
900.46	210.99
900.76	211.00
901.07	210.93
901.38	210.95
901.68	211.01
901.99	210.96
902.29	211.04
902.60	211.08
902.90	211.10
903.21	211.05
903.51	211.04
903.82	211.07
904.12	211.13
904.43	211.07
904.73	211.10
905.03	211.05
905.34	211.43
905.64	211.37
905.95	211.40
906.25	211.40
906.56	211.33
906.86	211.33
907.17	211.33
907.47	211.41
907.77	211.38
908.08	211.33
908.38	211.31
908.69	211.34
908.99	211.41
909.30	211.37
909.60	211.34
909.90	211.39
910.21	211.29
910.51	211.20
910.81	211.28
911.12	211.25
911.42	211.32
911.73	210.97
912.03	211.05
912.33	211.15
912.64	211.04
912.94	211.05
913.24	210.99
913.55	211.00
913.85	210.94
914.15	211.02
914.46	211.05
914.76	210.99
915.06	210.93
915.37	210.86
915.67	210.90
915.97	211.02
916.27	210.94
916.58	211.02
916.88	210.99
917.18	210.96
917.49	211.17
917.79	211.15
918.09	211.20
918.39	211.22
918.70	211.24
919.00	211.30
919.30	211.44
919.60	211.53
919.91	211.49
920.21	211.52
920.51	211.46
920.81	211.44
921.12	211.55
921.42	211.52
921.72	211.55
922.02	211.59
922.32	211.54
922.63	211.48
922.93	211.64
923.23	211.68
923.53	211.66
923.83	211.41
924.13	211.49
924.44	211.44
924.74	211.53
925.04	211.51
925.34	211.51
925.64	211.42
925.94	211.36
926.24	211.53
926.55	211.57
926.85	211.59
927.15	211.60
927.45	211.50
927.75	211.57
928.05	211.58
928.35	211.51
928.65	211.57
928.95	211.70
929.26	211.58
929.56	211.60
929.86	211.65
930.16	211.70
930.46	211.61
930.76	211.67
931.06	211.51
931.36	211.45
931.66	211.48
931.96	211.49
932.26	211.53
932.56	211.43
932.86	211.46
933.16	211.40
933.46	211.35
933.76	211.35
934.06	211.36
934.36	211.46
934.66	211.45
934.96	211.40
935.26	211.34
935.56	211.41
935.86	211.42
936.16	211.38
936.46	211.28
936.76	211.31
937.06	211.17
937.36	211.20
937.66	211.25
937.96	211.27
938.26	211.20
938.56	211.19
938.86	211.14
939.16	211.16
939.46	211.28
939.76	211.35
940.06	211.37
940.35	211.24
940.65	211.09
940.95	211.15
941.25	211.07
941.55	211.01
941.85	210.93
942.15	210.97
942.45	211.07
942.75	211.15
943.04	211.14
943.34	211.25
943.64	211.20
943.94	211.18
944.24	211.15
944.54	211.23
944.84	211.18
945.13	211.18
945.43	211.12
945.73	211.10
946.03	211.09
946.33	211.02
946.62	211.07
946.92	211.01
947.22	211.03
947.52	211.08
947.82	211.16
948.11	211.09
948.41	211.00
948.71	210.90
949.01	210.90
949.31	210.87
949.60	210.88
949.90	210.91
950.20	210.85
950.50	210.80
950.79	210.75
951.09	210.80
951.39	210.78
951.69	210.76
951.98	210.79
952.28	210.78
952.58	210.79
952.87	210.77
953.17	210.85
953.47	210.81
953.76	210.77
954.06	210.75
954.36	210.73
954.66	210.74
954.95	210.85
955.25	210.84
955.55	210.82
955.84	210.70
956.14	210.80
956.44	210.82
956.73	210.77
957.03	210.70
957.32	210.68
957.62	210.60
957.92	210.64
958.21	210.59
958.51	210.95
958.81	210.97
959.10	211.04
959.40	211.14
959.69	211.11
959.99	211.16
960.29	211.11
960.58	211.09
960.88	211.25
961.17	211.14
961.47	211.14
961.76	211.07
962.06	211.18
962.36	211.12
962.65	211.15
962.95	211.20
963.24	211.29
963.54	211.33
963.83	211.37
964.13	211.30
964.42	211.26
964.72	210.87
965.01	210.91
965.31	210.84
965.60	210.74
965.90	210.93
966.19	210.84
966.49	210.86
966.78	210.85
967.08	210.75
967.37	210.76
967.67	210.70
967.96	210.79
968.26	210.77
968.55	210.78
968.85	210.70
969.14	210.72
969.43	210.65
969.73	210.52
970.02	210.57
970.32	210.56
970.61	210.48
970.91	210.42
971.20	210.33
971.49	210.30
971.79	210.35
972.08	210.07
972.38	210.16
972.67	210.07
972.96	210.16
973.26	210.08
973.55	210.24
973.85	210.22
974.14	210.26
974.43	210.32
974.73	210.27
975.02	210.28
975.31	210.24
975.61	210.30
975.90	210.34
976.19	210.28
976.49	210.35
976.78	210.41
977.07	210.39
977.37	210.45
977.66	210.57
977.95	210.54
978.24	210.65
978.54	210.71
978.83	210.78
979.12	210.79
979.42	210.78
979.71	210.66
980.00	210.65
980.29	210.61
980.59	210.49
980.88	210.55
981.17	210.55
981.46	210.59
981.76	210.57
982.05	210.70
982.34	210.70
982.63	210.74
982.93	210.76
983.22	210.97
983.51	210.97
983.80	211.00
984.09	211.01
984.39	211.00
984.68	210.88
984.97	210.84
985.26	210.83
985.55	210.87
985.85	210.76
986.14	210.85
986.43	210.86
986.72	210.85
987.01	210.82
987.30	210.82
987.59	210.77
987.89	210.75
988.18	210.60
988.47	210.58
988.76	210.52
989.05	210.48
989.34	210.42
989.63	210.55
989.92	210.48
990.22	210.43
990.51	210.42
990.80	210.49
991.09	210.64
991.38	210.75
991.67	210.70
991.96	210.75
992.25	210.86
992.54	210.77
992.83	210.76
993.12	210.67
993.41	210.73
993.70	210.88
993.99	210.96
994.28	210.99
994.58	211.08
994.87	210.99
995.16	211.01
995.45	210.96
995.74	210.83
996.03	210.85
996.32	210.90
996.61	210.99
996.90	211.00
997.19	210.82
997.48	210.71
997.77	210.73
998.06	210.73
998.34	210.59
998.63	210.66
998.92	210.67
999.21	210.80
999.50	210.76
999.79	210.60
1000.08	210.57
1000.37	210.64
1000.66	210.56
1000.95	210.73
1001.24	210.81
1001.53	210.86
1001.82	210.82
1002.11	210.72
1002.40	210.73
1002.68	210.79
1002.97	211.01
1003.26	211.02
1003.55	211.02
1003.84	211.08
1004.13	211.19
1004.42	211.20
1004.71	211.20
1004.99	211.20
1005.28	211.28
1005.57	211.33
1005.86	211.42
1006.15	211.40
1006.44	211.35
1006.72	211.41
1007.01	211.36
1007.30	211.30
1007.59	211.29
1007.88	211.30
1008.17	211.34
1008.45	211.33
1008.74	211.17
1009.03	210.96
1009.32	210.96
1009.60	210.99
1009.89	210.96
1010.18	210.86
1010.47	210.81
1010.76	210.81
1011.04	210.86
1011.33	210.79
1011.62	210.77
1011.91	210.72
1012.19	210.77
1012.48	210.82
1012.77	210.79
1013.05	210.92
1013.34	210.88
1013.63	210.90
1013.92	210.94
1014.20	210.98
1014.49	210.95
1014.78	210.99
1015.06	210.97
1015.35	210.98
1015.64	210.97
1015.92	211.04
1016.21	211.08
1016.50	211.13
1016.78	211.16
1017.07	211.16
1017.36	211.16
1017.64	211.09
1017.93	211.11
1018.22	211.04
1018.50	210.92
1018.79	210.92
1019.08	210.80
1019.36	210.77
1019.65	210.75
1019.93	210.84
1020.22	210.89
1020.51	211.06
1020.79	211.03
1021.08	209.90
1021.36	208.90
1021.65	210.85
1021.94	211.45
1022.22	209.25
1022.51	211.40
1022.79	212.75
1023.08	212.25
1023.36	214.70
1023.65	210.20
>>>>>End Processed Spectral Data<<<<<
