SpectraSuite Data File
++++++++++++++++++++++++++++++++++++
Date: Mon Feb 25 17:01:51 EST 2013
User: group
Dark Spectrum Present: No
Reference Spectrum Present: No
Number of Sampled Component Spectra: 1
Spectrometers: USB2E7196
Integration Time (usec): 104000 (USB2E7196)
Spectra Averaged: 20 (USB2E7196)
Boxcar Smoothing: 10 (USB2E7196)
Correct for Electrical Dark: No (USB2E7196)
Strobe/Lamp Enabled: No (USB2E7196)
Correct for Detector Non-linearity: No (USB2E7196)
Correct for Stray Light: No (USB2E7196)
Number of Pixels in Processed Spectrum: 2048
>>>>>Begin Processed Spectral Data<<<<<
339.09	0.00
339.48	199.95
339.86	199.65
340.24	201.80
340.63	202.45
341.01	209.45
341.39	205.25
341.78	207.60
342.16	207.95
342.54	207.55
342.93	197.90
343.31	207.87
343.69	208.35
344.07	208.85
344.46	209.25
344.84	209.70
345.22	209.75
345.60	209.94
345.99	210.02
346.37	210.12
346.75	210.21
347.13	210.20
347.52	210.25
347.90	210.37
348.28	210.39
348.66	210.41
349.05	210.29
349.43	210.33
349.81	210.41
350.19	210.40
350.57	210.55
350.96	210.69
351.34	210.79
351.72	210.86
352.10	210.90
352.48	210.90
352.87	210.88
353.25	210.92
353.63	211.10
354.01	211.20
354.39	211.25
354.77	211.33
355.15	211.52
355.54	211.61
355.92	211.61
356.30	211.65
356.68	211.98
357.06	212.13
357.44	212.12
357.82	212.12
358.20	212.22
358.58	212.16
358.97	212.20
359.35	212.30
359.73	212.36
360.11	212.40
360.49	212.55
360.87	212.63
361.25	212.74
361.63	212.83
362.01	212.89
362.39	213.00
362.77	213.03
363.15	213.06
363.53	213.01
363.91	213.01
364.29	213.16
364.67	212.89
365.05	212.92
365.43	213.07
365.81	213.13
366.19	213.27
366.57	213.46
366.95	213.42
367.33	213.40
367.71	213.43
368.09	213.57
368.47	213.56
368.85	213.48
369.23	213.56
369.61	213.44
369.99	213.59
370.37	213.59
370.75	213.81
371.13	213.78
371.51	213.79
371.89	213.87
372.27	213.79
372.65	213.76
373.03	213.77
373.41	213.68
373.78	213.60
374.16	213.44
374.54	213.29
374.92	213.29
375.30	213.19
375.68	213.07
376.06	212.95
376.44	212.81
376.82	212.86
377.19	212.78
377.57	212.77
377.95	212.56
378.33	212.51
378.71	212.26
379.09	212.25
379.47	212.27
379.84	212.13
380.22	212.02
380.60	211.95
380.98	211.86
381.36	211.80
381.73	211.76
382.11	211.72
382.49	211.70
382.87	211.59
383.25	211.62
383.62	212.00
384.00	211.97
384.38	211.99
384.76	211.99
385.13	212.07
385.51	212.01
385.89	211.89
386.27	211.82
386.64	211.81
387.02	211.74
387.40	211.62
387.78	211.51
388.15	211.55
388.53	211.52
388.91	211.45
389.29	211.30
389.66	211.33
390.04	211.36
390.42	211.40
390.79	211.37
391.17	211.33
391.55	210.90
391.92	210.82
392.30	210.80
392.68	210.64
393.05	210.51
393.43	210.45
393.81	210.45
394.18	210.37
394.56	210.39
394.94	210.45
395.31	210.47
395.69	210.60
396.06	210.56
396.44	210.55
396.82	210.58
397.19	210.85
397.57	210.83
397.95	210.80
398.32	210.67
398.70	210.80
399.07	210.90
399.45	210.89
399.82	210.96
400.20	210.90
400.58	211.03
400.95	210.94
401.33	211.02
401.70	211.35
402.08	211.47
402.45	211.48
402.83	211.62
403.20	211.66
403.58	211.72
403.95	211.84
404.33	211.97
404.71	212.03
405.08	212.31
405.46	212.36
405.83	212.50
406.21	212.69
406.58	212.85
406.96	213.00
407.33	213.30
407.70	213.59
408.08	214.13
408.45	214.39
408.83	214.83
409.20	215.18
409.58	215.34
409.95	215.74
410.33	216.16
410.70	216.38
411.08	216.81
411.45	217.32
411.82	217.75
412.20	218.35
412.57	219.12
412.95	219.41
413.32	220.20
413.69	220.93
414.07	221.66
414.44	222.39
414.82	223.13
415.19	224.11
415.56	224.99
415.94	225.91
416.31	227.18
416.68	228.30
417.06	229.60
417.43	231.01
417.81	232.51
418.18	234.12
418.55	235.82
418.93	237.65
419.30	239.36
419.67	241.35
420.04	243.39
420.42	245.36
420.79	248.01
421.16	250.44
421.54	253.07
421.91	255.67
422.28	258.43
422.66	261.39
423.03	264.30
423.40	267.27
423.77	270.41
424.15	273.56
424.52	276.87
424.89	280.57
425.26	284.03
425.64	287.42
426.01	291.02
426.38	294.91
426.75	298.91
427.13	303.13
427.50	307.45
427.87	311.93
428.24	316.59
428.61	320.67
428.99	325.49
429.36	330.61
429.73	335.83
430.10	341.03
430.47	346.25
430.85	351.58
431.22	357.41
431.59	363.68
431.96	369.53
432.33	376.12
432.70	382.49
433.08	389.92
433.45	396.95
433.82	404.06
434.19	411.95
434.56	419.62
434.93	426.99
435.30	434.42
435.68	442.60
436.05	450.68
436.42	459.03
436.79	466.47
437.16	474.39
437.53	482.77
437.90	491.10
438.27	499.50
438.64	508.22
439.01	516.30
439.38	523.55
439.75	530.67
440.13	538.75
440.50	546.23
440.87	552.42
441.24	559.03
441.61	566.19
441.98	571.70
442.35	577.97
442.72	584.18
443.09	590.41
443.46	594.36
443.83	597.07
444.20	599.38
444.57	602.89
444.94	604.95
445.31	607.12
445.68	609.32
446.05	610.62
446.42	610.37
446.79	610.09
447.16	609.59
447.53	609.52
447.90	607.07
448.27	604.57
448.64	601.02
449.01	598.34
449.37	593.26
449.74	588.37
450.11	582.83
450.48	576.48
450.85	569.69
451.22	564.05
451.59	558.70
451.96	553.61
452.33	546.39
452.70	539.99
453.07	532.15
453.43	524.07
453.80	516.34
454.17	509.11
454.54	502.01
454.91	494.42
455.28	487.03
455.65	480.13
456.02	473.77
456.38	467.82
456.75	460.56
457.12	454.64
457.49	448.74
457.86	442.64
458.23	437.65
458.59	432.23
458.96	426.61
459.33	421.74
459.70	416.75
460.07	412.99
460.43	408.47
460.80	404.30
461.17	400.69
461.54	396.85
461.91	393.14
462.27	389.44
462.64	386.22
463.01	382.63
463.38	379.25
463.74	375.38
464.11	372.51
464.48	369.97
464.85	367.05
465.21	364.79
465.58	362.43
465.95	359.65
466.32	357.26
466.68	354.99
467.05	352.64
467.42	350.40
467.78	347.85
468.15	345.51
468.52	343.73
468.88	341.37
469.25	339.32
469.62	337.69
469.98	335.96
470.35	334.28
470.72	332.70
471.08	330.84
471.45	329.39
471.82	327.75
472.18	326.05
472.55	324.90
472.92	323.35
473.28	322.05
473.65	320.60
474.02	319.40
474.38	318.34
474.75	317.43
475.11	316.38
475.48	315.66
475.85	314.92
476.21	314.22
476.58	313.64
476.94	313.07
477.31	312.47
477.67	311.84
478.04	311.46
478.41	311.10
478.77	311.12
479.14	310.78
479.50	310.64
479.87	310.55
480.23	310.36
480.60	310.25
480.96	310.12
481.33	310.48
481.69	310.50
482.06	310.49
482.42	310.47
482.79	310.59
483.15	310.70
483.52	311.13
483.88	311.34
484.25	311.54
484.61	311.92
484.98	312.21
485.34	312.84
485.71	313.46
486.07	314.01
486.44	314.31
486.80	315.00
487.17	315.65
487.53	316.47
487.90	317.30
488.26	318.38
488.62	319.34
488.99	320.20
489.35	321.27
489.72	322.33
490.08	323.60
490.44	324.69
490.81	325.94
491.17	326.93
491.54	328.27
491.90	329.67
492.26	330.95
492.63	332.37
492.99	333.71
493.36	335.18
493.72	336.79
494.08	338.37
494.45	340.06
494.81	341.84
495.17	343.60
495.54	345.50
495.90	347.19
496.26	349.06
496.63	350.91
496.99	352.87
497.35	354.89
497.72	356.83
498.08	358.91
498.44	360.99
498.80	363.33
499.17	365.46
499.53	367.49
499.89	369.80
500.26	371.87
500.62	373.85
500.98	375.95
501.34	378.07
501.71	380.28
502.07	382.25
502.43	384.06
502.79	385.90
503.16	387.80
503.52	389.56
503.88	391.40
504.24	393.12
504.60	394.85
504.97	396.55
505.33	398.17
505.69	400.00
506.05	401.62
506.41	403.08
506.78	404.42
507.14	405.76
507.50	407.02
507.86	408.51
508.22	409.89
508.59	411.01
508.95	412.15
509.31	413.38
509.67	414.38
510.03	415.50
510.39	416.61
510.75	417.42
511.12	418.45
511.48	419.20
511.84	420.06
512.20	420.75
512.56	421.54
512.92	422.20
513.28	422.75
513.64	423.13
514.00	423.50
514.37	423.90
514.73	424.36
515.09	424.71
515.45	424.89
515.81	425.03
516.17	425.16
516.53	425.17
516.89	424.95
517.25	424.96
517.61	424.98
517.97	424.75
518.33	424.71
518.69	424.55
519.05	424.36
519.41	424.23
519.77	424.30
520.13	424.07
520.49	423.79
520.85	423.42
521.21	423.43
521.57	423.29
521.93	423.03
522.29	422.95
522.65	422.71
523.01	422.51
523.37	422.33
523.73	422.36
524.09	422.24
524.45	422.23
524.81	422.34
525.17	422.49
525.53	422.65
525.89	422.87
526.25	422.95
526.61	423.10
526.97	423.26
527.33	423.41
527.68	424.04
528.04	424.40
528.40	424.77
528.76	425.01
529.12	425.41
529.48	426.20
529.84	426.60
530.20	427.28
530.56	428.02
530.91	429.05
531.27	429.90
531.63	430.80
531.99	431.73
532.35	432.66
532.71	433.47
533.07	434.58
533.42	435.97
533.78	437.20
534.14	438.55
534.50	439.69
534.86	441.00
535.21	441.99
535.57	443.50
535.93	444.90
536.29	446.57
536.65	448.33
537.00	449.83
537.36	451.52
537.72	453.17
538.08	454.88
538.44	456.67
538.79	458.51
539.15	460.41
539.51	462.47
539.87	464.43
540.22	466.64
540.58	468.82
540.94	470.67
541.29	472.88
541.65	474.93
542.01	477.43
542.37	479.83
542.72	482.11
543.08	484.48
543.44	487.11
543.79	489.34
544.15	491.78
544.51	494.37
544.87	497.00
545.22	499.66
545.58	502.39
545.94	504.77
546.29	507.36
546.65	509.99
547.01	512.50
547.36	515.27
547.72	517.90
548.07	520.66
548.43	523.13
548.79	525.65
549.14	528.37
549.50	530.88
549.86	533.51
550.21	536.37
550.57	539.10
550.92	541.57
551.28	544.44
551.64	547.14
551.99	549.83
552.35	552.45
552.70	554.98
553.06	557.76
553.41	560.38
553.77	563.11
554.13	565.84
554.48	568.69
554.84	571.53
555.19	574.23
555.55	577.13
555.90	579.82
556.26	582.40
556.61	584.96
556.97	587.51
557.32	589.89
557.68	592.24
558.03	594.62
558.39	597.05
558.74	599.49
559.10	601.84
559.45	604.27
559.81	606.85
560.16	609.16
560.52	611.39
560.87	613.84
561.23	616.06
561.58	618.55
561.94	620.70
562.29	622.52
562.64	624.71
563.00	626.49
563.35	628.73
563.71	631.03
564.06	633.39
564.42	635.71
564.77	638.07
565.12	640.45
565.48	642.93
565.83	645.23
566.19	647.38
566.54	649.22
566.89	651.08
567.25	653.19
567.60	655.51
567.96	657.61
568.31	659.65
568.66	661.44
569.02	662.89
569.37	664.20
569.72	665.99
570.08	667.36
570.43	668.87
570.78	670.11
571.14	671.16
571.49	672.12
571.84	673.18
572.20	674.12
572.55	675.06
572.90	675.56
573.26	676.42
573.61	677.05
573.96	677.84
574.31	678.37
574.67	678.53
575.02	678.57
575.37	678.56
575.72	678.65
576.08	679.00
576.43	679.24
576.78	679.75
577.13	679.82
577.49	680.09
577.84	680.18
578.19	680.43
578.54	681.03
578.90	681.41
579.25	681.58
579.60	681.45
579.95	681.22
580.30	681.43
580.66	681.33
581.01	681.33
581.36	681.16
581.71	681.00
582.06	680.99
582.42	681.08
582.77	680.87
583.12	680.62
583.47	680.60
583.82	680.36
584.17	680.03
584.53	680.12
584.88	679.74
585.23	679.63
585.58	679.41
585.93	678.85
586.28	678.45
586.63	678.00
586.98	677.79
587.34	677.62
587.69	677.21
588.04	676.69
588.39	676.20
588.74	675.75
589.09	675.63
589.44	674.97
589.79	674.37
590.14	674.24
590.49	673.74
590.84	672.86
591.19	672.52
591.54	672.02
591.89	670.82
592.25	670.25
592.60	669.25
592.95	668.13
593.30	667.13
593.65	666.12
594.00	665.12
594.35	664.95
594.70	663.87
595.05	662.72
595.40	661.80
595.75	660.72
596.10	659.83
596.45	658.70
596.80	657.73
597.15	656.84
597.50	655.35
597.85	654.40
598.19	653.34
598.54	652.16
598.89	650.96
599.24	650.35
599.59	649.35
599.94	648.50
600.29	647.65
600.64	646.67
600.99	645.55
601.34	644.48
601.69	642.49
602.04	641.18
602.39	639.98
602.74	638.91
603.08	637.99
603.43	637.18
603.78	636.01
604.13	635.00
604.48	633.81
604.83	633.24
605.18	632.31
605.53	631.21
605.87	630.00
606.22	628.95
606.57	627.71
606.92	626.31
607.27	624.95
607.62	623.56
607.96	622.46
608.31	621.43
608.66	620.29
609.01	619.03
609.36	617.89
609.70	616.56
610.05	614.99
610.40	613.46
610.75	611.77
611.10	610.40
611.44	608.72
611.79	607.06
612.14	605.23
612.49	603.38
612.83	601.88
613.18	600.11
613.53	598.42
613.88	596.52
614.22	594.87
614.57	593.05
614.92	591.44
615.27	589.70
615.61	587.85
615.96	586.10
616.31	584.39
616.65	582.88
617.00	581.17
617.35	579.63
617.70	577.86
618.04	575.88
618.39	573.93
618.74	572.40
619.08	570.52
619.43	568.74
619.78	567.05
620.12	565.10
620.47	563.33
620.82	561.25
621.16	559.42
621.51	557.81
621.85	555.97
622.20	554.20
622.55	552.17
622.89	550.14
623.24	548.25
623.59	546.22
623.93	544.27
624.28	542.65
624.62	541.07
624.97	539.35
625.32	537.60
625.66	535.95
626.01	534.06
626.35	532.54
626.70	530.60
627.04	528.93
627.39	527.14
627.73	525.66
628.08	524.32
628.43	522.57
628.77	520.68
629.12	518.76
629.46	517.13
629.81	515.45
630.15	513.89
630.50	512.00
630.84	510.43
631.19	508.62
631.53	506.77
631.88	504.60
632.22	502.65
632.57	501.02
632.91	499.06
633.26	497.21
633.60	495.31
633.95	493.70
634.29	491.73
634.64	490.20
634.98	488.20
635.32	486.35
635.67	484.90
636.01	483.10
636.36	481.56
636.70	479.77
637.05	478.15
637.39	476.57
637.73	475.08
638.08	473.64
638.42	472.14
638.77	470.76
639.11	469.19
639.45	467.69
639.80	465.94
640.14	464.35
640.49	462.70
640.83	461.01
641.17	459.27
641.52	457.58
641.86	455.75
642.20	454.26
642.55	452.51
642.89	450.61
643.23	449.00
643.58	447.63
643.92	445.86
644.26	444.20
644.61	442.48
644.95	440.75
645.29	438.94
645.64	437.21
645.98	435.27
646.32	433.68
646.66	431.86
647.01	430.15
647.35	428.63
647.69	427.15
648.04	425.70
648.38	424.15
648.72	422.60
649.06	420.88
649.41	419.17
649.75	417.57
650.09	416.12
650.43	414.48
650.78	412.56
651.12	410.94
651.46	409.43
651.80	407.93
652.14	406.40
652.49	404.89
652.83	403.28
653.17	401.62
653.51	400.05
653.85	398.68
654.20	397.26
654.54	395.66
654.88	393.93
655.22	392.31
655.56	390.74
655.90	389.16
656.25	387.75
656.59	386.20
656.93	384.62
657.27	383.01
657.61	381.53
657.95	380.21
658.29	378.73
658.64	377.16
658.98	375.53
659.32	373.93
659.66	372.37
660.00	370.86
660.34	369.49
660.68	367.90
661.02	366.29
661.36	364.90
661.70	363.49
662.05	362.21
662.39	360.86
662.73	359.65
663.07	358.55
663.41	357.22
663.75	355.94
664.09	354.63
664.43	353.28
664.77	352.01
665.11	350.60
665.45	349.43
665.79	348.38
666.13	347.16
666.47	345.97
666.81	344.78
667.15	343.56
667.49	342.47
667.83	341.55
668.17	340.41
668.51	339.30
668.85	338.19
669.19	337.12
669.53	335.86
669.87	334.58
670.21	333.34
670.55	332.24
670.89	331.35
671.23	330.45
671.57	329.51
671.91	328.46
672.25	327.50
672.58	326.56
672.92	325.29
673.26	324.35
673.60	323.29
673.94	322.29
674.28	321.42
674.62	320.53
674.96	319.47
675.30	318.59
675.64	317.55
675.97	316.58
676.31	315.69
676.65	314.87
676.99	314.16
677.33	313.13
677.67	312.21
678.01	311.11
678.34	310.20
678.68	309.30
679.02	308.36
679.36	307.47
679.70	306.45
680.04	305.61
680.37	304.75
680.71	303.96
681.05	303.20
681.39	302.27
681.73	301.37
682.06	300.47
682.40	299.72
682.74	299.02
683.08	298.33
683.42	297.39
683.75	296.64
684.09	295.64
684.43	294.92
684.77	294.07
685.10	293.31
685.44	292.43
685.78	291.60
686.12	290.83
686.45	290.07
686.79	289.39
687.13	288.66
687.46	287.91
687.80	287.24
688.14	286.33
688.48	285.68
688.81	284.89
689.15	284.18
689.49	283.30
689.82	282.53
690.16	281.62
690.50	280.93
690.83	280.18
691.17	279.35
691.51	278.70
691.84	278.12
692.18	277.43
692.52	276.78
692.85	276.21
693.19	275.70
693.52	274.97
693.86	274.27
694.20	273.67
694.53	273.04
694.87	272.32
695.21	271.72
695.54	270.91
695.88	270.21
696.21	269.59
696.55	269.11
696.88	268.54
697.22	267.91
697.56	267.29
697.89	266.61
698.23	266.15
698.56	265.55
698.90	265.00
699.23	264.36
699.57	263.83
699.90	263.24
700.24	262.65
700.58	262.29
700.91	261.78
701.25	261.54
701.58	261.00
701.92	260.55
702.25	260.03
702.59	259.65
702.92	259.16
703.26	258.69
703.59	258.13
703.93	257.97
704.26	257.62
704.60	257.26
704.93	256.76
705.26	256.32
705.60	255.93
705.93	255.38
706.27	255.06
706.60	254.75
706.94	254.43
707.27	253.89
707.61	253.31
707.94	252.89
708.27	252.15
708.61	251.73
708.94	251.37
709.28	251.05
709.61	250.62
709.94	250.32
710.28	249.91
710.61	249.58
710.95	248.81
711.28	248.61
711.61	248.20
711.95	248.01
712.28	247.57
712.61	247.14
712.95	246.91
713.28	246.61
713.61	246.09
713.95	245.63
714.28	245.31
714.61	244.99
714.95	244.60
715.28	244.24
715.61	243.84
715.95	243.46
716.28	243.05
716.61	242.78
716.95	242.27
717.28	241.96
717.61	241.59
717.94	241.32
718.28	240.80
718.61	240.43
718.94	240.08
719.27	239.75
719.61	239.48
719.94	239.13
720.27	238.71
720.60	238.43
720.94	238.05
721.27	237.70
721.60	237.53
721.93	237.31
722.27	237.19
722.60	236.98
722.93	236.68
723.26	236.47
723.59	236.16
723.93	236.03
724.26	235.76
724.59	235.45
724.92	235.23
725.25	235.00
725.59	234.76
725.92	234.55
726.25	234.42
726.58	234.20
726.91	233.92
727.24	233.74
727.57	233.55
727.91	233.31
728.24	233.14
728.57	232.81
728.90	232.60
729.23	232.20
729.56	232.24
729.89	232.02
730.22	231.79
730.55	231.59
730.89	231.39
731.22	231.19
731.55	231.03
731.88	230.76
732.21	230.52
732.54	230.24
732.87	229.97
733.20	229.75
733.53	229.57
733.86	229.46
734.19	229.25
734.52	229.13
734.85	229.25
735.18	229.05
735.51	228.98
735.84	228.80
736.17	228.81
736.50	228.39
736.83	228.57
737.16	228.40
737.49	228.23
737.82	228.04
738.15	227.93
738.48	227.77
738.81	227.59
739.14	227.40
739.47	227.32
739.80	227.24
740.13	227.06
740.46	226.84
740.79	226.61
741.12	226.47
741.45	226.30
741.78	225.89
742.11	225.83
742.44	225.60
742.77	225.54
743.10	225.36
743.43	225.22
743.75	224.80
744.08	225.12
744.41	224.89
744.74	224.78
745.07	224.56
745.40	224.51
745.73	224.58
746.06	224.50
746.39	224.38
746.71	224.13
747.04	223.98
747.37	223.85
747.70	223.83
748.03	223.73
748.36	223.62
748.68	223.61
749.01	223.39
749.34	223.26
749.67	223.14
750.00	223.03
750.33	223.17
750.65	223.02
750.98	222.44
751.31	222.44
751.64	222.30
751.97	222.41
752.29	222.19
752.62	221.90
752.95	221.72
753.28	221.55
753.60	221.50
753.93	221.56
754.26	221.48
754.59	221.21
754.91	221.03
755.24	220.88
755.57	220.71
755.90	220.66
756.22	220.51
756.55	220.34
756.88	220.13
757.20	219.75
757.53	219.56
757.86	219.55
758.19	219.44
758.51	219.34
758.84	219.08
759.17	219.08
759.49	219.04
759.82	219.20
760.15	219.13
760.47	219.09
760.80	218.90
761.13	218.85
761.45	218.85
761.78	218.83
762.11	218.71
762.43	218.55
762.76	218.48
763.08	218.56
763.41	218.47
763.74	218.47
764.06	218.39
764.39	218.31
764.71	218.22
765.04	218.10
765.37	218.08
765.69	218.01
766.02	217.87
766.34	217.75
766.67	217.50
767.00	217.51
767.32	217.61
767.65	217.64
767.97	217.52
768.30	217.41
768.62	217.34
768.95	217.33
769.27	217.30
769.60	217.29
769.92	217.08
770.25	216.97
770.57	216.82
770.90	216.77
771.22	216.69
771.55	216.63
771.87	216.61
772.20	216.55
772.52	216.75
772.85	217.12
773.17	217.10
773.50	216.92
773.82	216.83
774.15	216.57
774.47	216.37
774.80	216.36
775.12	216.36
775.45	216.30
775.77	216.15
776.09	216.12
776.42	216.05
776.74	216.15
777.07	216.09
777.39	216.07
777.72	216.04
778.04	216.06
778.36	215.91
778.69	215.91
779.01	215.83
779.33	215.47
779.66	214.99
779.98	214.96
780.31	214.96
780.63	214.98
780.95	214.96
781.28	214.97
781.60	214.88
781.92	214.80
782.25	214.71
782.57	214.71
782.89	214.67
783.22	214.64
783.54	214.49
783.86	214.54
784.19	214.50
784.51	214.60
784.83	214.56
785.16	214.63
785.48	214.54
785.80	214.56
786.12	214.61
786.45	214.59
786.77	214.56
787.09	214.55
787.42	214.47
787.74	214.51
788.06	214.48
788.38	214.47
788.71	214.40
789.03	214.37
789.35	214.43
789.67	214.36
789.99	214.38
790.32	214.33
790.64	214.30
790.96	214.56
791.28	214.41
791.61	214.33
791.93	214.22
792.25	214.19
792.57	214.38
792.89	214.31
793.21	214.29
793.54	214.21
793.86	214.18
794.18	214.20
794.50	214.07
794.82	214.07
795.14	214.11
795.47	214.14
795.79	214.13
796.11	214.02
796.43	213.95
796.75	213.81
797.07	213.85
797.39	213.79
797.71	213.50
798.04	213.46
798.36	213.54
798.68	213.55
799.00	213.56
799.32	213.28
799.64	213.33
799.96	213.32
800.28	213.38
800.60	213.35
800.92	213.34
801.24	213.32
801.56	213.27
801.89	213.20
802.21	213.21
802.53	213.17
802.85	213.26
803.17	213.40
803.49	213.37
803.81	213.27
804.13	213.19
804.45	213.15
804.77	213.12
805.09	213.07
805.41	213.00
805.73	212.92
806.05	212.88
806.37	212.74
806.69	212.66
807.01	212.59
807.33	212.65
807.65	212.47
807.97	212.65
808.28	212.60
808.60	212.53
808.92	212.44
809.24	212.58
809.56	212.51
809.88	212.46
810.20	212.50
810.52	212.56
810.84	212.53
811.16	212.51
811.48	212.47
811.80	212.60
812.12	212.65
812.43	212.68
812.75	212.65
813.07	212.67
813.39	212.76
813.71	212.72
814.03	212.59
814.35	212.63
814.67	212.40
814.98	212.40
815.30	212.37
815.62	212.37
815.94	212.11
816.26	212.01
816.58	211.90
816.89	211.91
817.21	211.84
817.53	211.84
817.85	211.81
818.17	211.79
818.48	211.64
818.80	211.68
819.12	211.65
819.44	211.56
819.76	211.49
820.07	211.44
820.39	211.43
820.71	211.52
821.03	211.46
821.34	211.48
821.66	211.52
821.98	211.55
822.30	211.55
822.61	211.85
822.93	211.87
823.25	211.90
823.57	211.70
823.88	211.81
824.20	211.83
824.52	211.89
824.83	211.87
825.15	211.87
825.47	211.79
825.79	211.82
826.10	211.90
826.42	211.90
826.74	211.94
827.05	211.90
827.37	211.95
827.69	211.96
828.00	212.02
828.32	211.99
828.64	211.97
828.95	212.10
829.27	211.97
829.58	211.92
829.90	211.90
830.22	212.05
830.53	211.88
830.85	211.85
831.17	211.71
831.48	211.77
831.80	211.77
832.11	211.82
832.43	211.72
832.75	211.69
833.06	211.88
833.38	211.73
833.69	211.70
834.01	211.60
834.32	211.63
834.64	211.53
834.96	211.49
835.27	211.46
835.59	211.35
835.90	211.25
836.22	211.25
836.53	211.22
836.85	211.22
837.16	211.62
837.48	211.59
837.79	211.76
838.11	211.74
838.42	211.67
838.74	211.66
839.05	211.63
839.37	211.55
839.68	211.35
840.00	211.35
840.31	211.42
840.63	211.43
840.94	211.40
841.26	211.35
841.57	211.36
841.88	211.41
842.20	211.31
842.51	211.29
842.83	211.34
843.14	211.70
843.46	211.71
843.77	211.49
844.08	211.45
844.40	211.34
844.71	211.31
845.03	211.26
845.34	211.25
845.65	211.26
845.97	211.29
846.28	211.30
846.60	211.35
846.91	211.27
847.22	211.24
847.54	211.23
847.85	211.25
848.16	211.24
848.48	211.20
848.79	211.40
849.10	211.45
849.42	211.42
849.73	211.06
850.04	211.06
850.36	210.92
850.67	211.03
850.98	211.12
851.30	211.11
851.61	211.15
851.92	211.14
852.23	211.27
852.55	211.31
852.86	211.34
853.17	211.37
853.49	211.40
853.80	211.46
854.11	211.48
854.42	211.50
854.74	211.47
855.05	211.46
855.36	211.22
855.67	211.28
855.99	211.34
856.30	211.75
856.61	211.65
856.92	211.73
857.23	211.71
857.55	211.60
857.86	211.57
858.17	211.56
858.48	211.43
858.79	211.40
859.11	211.44
859.42	211.43
859.73	211.32
860.04	211.37
860.35	211.27
860.66	211.26
860.98	211.28
861.29	211.24
861.60	211.22
861.91	211.28
862.22	211.16
862.53	211.06
862.84	210.70
863.16	210.78
863.47	210.72
863.78	210.68
864.09	210.79
864.40	210.82
864.71	210.86
865.02	210.93
865.33	210.85
865.64	210.77
865.95	210.77
866.27	211.06
866.58	211.00
866.89	211.06
867.20	211.02
867.51	210.95
867.82	210.98
868.13	211.06
868.44	211.06
868.75	211.11
869.06	211.15
869.37	211.07
869.68	211.02
869.99	211.03
870.30	211.00
870.61	210.96
870.92	210.86
871.23	210.86
871.54	210.94
871.85	211.01
872.16	211.02
872.47	211.00
872.78	210.76
873.09	210.87
873.40	210.85
873.71	210.85
874.02	210.92
874.33	210.95
874.64	210.90
874.95	210.89
875.26	210.88
875.56	210.90
875.87	210.96
876.18	210.94
876.49	211.27
876.80	211.32
877.11	211.30
877.42	211.40
877.73	211.43
878.04	211.37
878.35	211.36
878.66	211.39
878.96	211.36
879.27	211.37
879.58	211.34
879.89	211.30
880.20	211.46
880.51	211.48
880.82	211.50
881.12	211.49
881.43	211.48
881.74	211.40
882.05	211.37
882.36	211.32
882.67	211.37
882.97	211.05
883.28	210.99
883.59	210.89
883.90	210.86
884.21	210.89
884.51	210.90
884.82	210.85
885.13	211.00
885.44	211.00
885.74	211.01
886.05	210.98
886.36	210.98
886.67	210.79
886.98	210.91
887.28	210.90
887.59	210.89
887.90	210.88
888.20	210.90
888.51	211.03
888.82	211.00
889.13	211.05
889.43	211.35
889.74	211.36
890.05	211.41
890.35	211.43
890.66	211.41
890.97	211.33
891.28	211.32
891.58	211.26
891.89	211.24
892.20	211.22
892.50	211.21
892.81	211.20
893.12	211.21
893.42	211.04
893.73	211.03
894.04	211.01
894.34	211.05
894.65	211.03
894.95	210.92
895.26	211.06
895.57	211.13
895.87	210.74
896.18	210.75
896.48	210.80
896.79	210.71
897.10	210.76
897.40	210.83
897.71	210.89
898.01	210.79
898.32	210.87
898.63	210.84
898.93	210.90
899.24	210.88
899.54	210.91
899.85	210.94
900.15	211.00
900.46	211.04
900.76	211.10
901.07	211.07
901.38	211.02
901.68	210.96
901.99	210.75
902.29	210.77
902.60	210.75
902.90	210.69
903.21	210.75
903.51	210.63
903.82	210.67
904.12	210.61
904.43	210.65
904.73	210.63
905.03	210.60
905.34	210.84
905.64	210.94
905.95	210.93
906.25	210.89
906.56	210.79
906.86	210.77
907.17	210.74
907.47	210.83
907.77	210.85
908.08	210.80
908.38	210.86
908.69	210.90
908.99	211.02
909.30	211.00
909.60	210.97
909.90	211.05
910.21	210.95
910.51	210.97
910.81	211.04
911.12	211.06
911.42	211.12
911.73	210.82
912.03	210.81
912.33	210.87
912.64	210.93
912.94	210.92
913.24	210.90
913.55	210.85
913.85	210.84
914.15	210.95
914.46	211.06
914.76	211.00
915.06	210.97
915.37	210.91
915.67	210.95
915.97	210.95
916.27	210.86
916.58	210.91
916.88	210.84
917.18	210.75
917.49	210.99
917.79	210.97
918.09	211.05
918.39	211.10
918.70	211.03
919.00	211.05
919.30	211.29
919.60	211.28
919.91	211.29
920.21	211.26
920.51	211.15
920.81	211.10
921.12	211.27
921.42	211.27
921.72	211.26
922.02	211.25
922.32	211.35
922.63	211.39
922.93	211.56
923.23	211.58
923.53	211.61
923.83	211.41
924.13	211.41
924.44	211.37
924.74	211.48
925.04	211.53
925.34	211.47
925.64	211.26
925.94	211.29
926.24	211.46
926.55	211.44
926.85	211.47
927.15	211.53
927.45	211.46
927.75	211.52
928.05	211.57
928.35	211.61
928.65	211.70
928.95	211.66
929.26	211.55
929.56	211.64
929.86	211.59
930.16	211.53
930.46	211.57
930.76	211.57
931.06	211.35
931.36	211.31
931.66	211.33
931.96	211.36
932.26	211.38
932.56	211.18
932.86	211.19
933.16	211.18
933.46	211.10
933.76	210.99
934.06	211.03
934.36	211.05
934.66	211.02
934.96	210.88
935.26	210.93
935.56	210.95
935.86	210.83
936.16	210.86
936.46	210.82
936.76	210.76
937.06	210.70
937.36	210.77
937.66	210.79
937.96	210.80
938.26	210.75
938.56	210.66
938.86	210.77
939.16	210.91
939.46	210.98
939.76	210.97
940.06	211.00
940.35	210.88
940.65	210.76
940.95	210.81
941.25	210.70
941.55	210.66
941.85	210.62
942.15	210.75
942.45	210.82
942.75	210.85
943.04	210.91
943.34	210.93
943.64	210.82
943.94	210.79
944.24	210.80
944.54	210.76
944.84	210.81
945.13	210.73
945.43	210.63
945.73	210.58
946.03	210.54
946.33	210.51
946.62	210.50
946.92	210.51
947.22	210.44
947.52	210.51
947.82	210.58
948.11	210.54
948.41	210.43
948.71	210.35
949.01	210.31
949.31	210.30
949.60	210.30
949.90	210.35
950.20	210.33
950.50	210.24
950.79	210.26
951.09	210.30
951.39	210.28
951.69	210.33
951.98	210.38
952.28	210.42
952.58	210.40
952.87	210.43
953.17	210.49
953.47	210.51
953.76	210.59
954.06	210.50
954.36	210.48
954.66	210.45
954.95	210.51
955.25	210.61
955.55	210.59
955.84	210.53
956.14	210.57
956.44	210.59
956.73	210.62
957.03	210.56
957.32	210.53
957.62	210.53
957.92	210.51
958.21	210.47
958.51	210.82
958.81	210.92
959.10	210.95
959.40	211.00
959.69	211.00
959.99	211.01
960.29	211.04
960.58	211.03
960.88	211.20
961.17	211.18
961.47	211.12
961.76	211.08
962.06	211.14
962.36	211.12
962.65	211.13
962.95	211.16
963.24	211.21
963.54	211.23
963.83	211.26
964.13	211.28
964.42	211.19
964.72	210.93
965.01	210.93
965.31	210.93
965.60	210.83
965.90	211.00
966.19	210.86
966.49	210.82
966.78	210.82
967.08	210.80
967.37	210.87
967.67	210.80
967.96	210.93
968.26	210.92
968.55	210.95
968.85	210.96
969.14	210.94
969.43	210.86
969.73	210.81
970.02	210.79
970.32	210.74
970.61	210.76
970.91	210.62
971.20	210.61
971.49	210.57
971.79	210.61
972.08	210.40
972.38	210.47
972.67	210.58
972.96	210.63
973.26	210.63
973.55	210.63
973.85	210.70
974.14	210.67
974.43	210.69
974.73	210.64
975.02	210.64
975.31	210.62
975.61	210.68
975.90	210.71
976.19	210.68
976.49	210.71
976.78	210.73
977.07	210.80
977.37	210.86
977.66	210.92
977.95	210.88
978.24	210.93
978.54	210.98
978.83	210.85
979.12	210.85
979.42	210.76
979.71	210.64
980.00	210.64
980.29	210.63
980.59	210.56
980.88	210.67
981.17	210.63
981.46	210.71
981.76	210.75
982.05	210.85
982.34	210.90
982.63	210.88
982.93	210.97
983.22	211.03
983.51	211.02
983.80	211.03
984.09	211.11
984.39	211.10
984.68	211.04
984.97	211.10
985.26	211.08
985.55	211.06
985.85	211.05
986.14	211.13
986.43	211.20
986.72	211.24
987.01	211.10
987.30	211.08
987.59	211.03
987.89	211.05
988.18	210.99
988.47	210.96
988.76	210.94
989.05	210.85
989.34	210.74
989.63	210.72
989.92	210.69
990.22	210.64
990.51	210.59
990.80	210.64
991.09	210.65
991.38	210.68
991.67	210.67
991.96	210.62
992.25	210.54
992.54	210.46
992.83	210.37
993.12	210.37
993.41	210.33
993.70	210.48
993.99	210.46
994.28	210.49
994.58	210.56
994.87	210.55
995.16	210.54
995.45	210.56
995.74	210.47
996.03	210.47
996.32	210.50
996.61	210.61
996.90	210.54
997.19	210.49
997.48	210.50
997.77	210.55
998.06	210.70
998.34	210.67
998.63	210.63
998.92	210.74
999.21	210.84
999.50	210.96
999.79	210.87
1000.08	210.91
1000.37	210.87
1000.66	210.79
1000.95	210.83
1001.24	210.84
1001.53	210.85
1001.82	210.87
1002.11	210.80
1002.40	210.83
1002.68	210.93
1002.97	211.16
1003.26	211.15
1003.55	211.09
1003.84	211.08
1004.13	211.16
1004.42	211.20
1004.71	211.21
1004.99	211.15
1005.28	211.22
1005.57	211.14
1005.86	211.07
1006.15	211.02
1006.44	210.95
1006.72	211.00
1007.01	210.95
1007.30	211.05
1007.59	211.04
1007.88	211.06
1008.17	211.05
1008.45	211.05
1008.74	210.84
1009.03	210.69
1009.32	210.72
1009.60	210.65
1009.89	210.65
1010.18	210.45
1010.47	210.42
1010.76	210.41
1011.04	210.45
1011.33	210.39
1011.62	210.43
1011.91	210.46
1012.19	210.49
1012.48	210.52
1012.77	210.50
1013.05	210.72
1013.34	210.61
1013.63	210.60
1013.92	210.61
1014.20	210.66
1014.49	210.61
1014.78	210.75
1015.06	210.63
1015.35	210.63
1015.64	210.72
1015.92	210.76
1016.21	210.80
1016.50	210.81
1016.78	210.83
1017.07	210.82
1017.36	210.77
1017.64	210.76
1017.93	210.80
1018.22	210.82
1018.50	210.83
1018.79	210.80
1019.08	210.65
1019.36	210.71
1019.65	210.65
1019.93	210.79
1020.22	210.85
1020.51	210.99
1020.79	210.95
1021.08	211.60
1021.36	210.10
1021.65	210.50
1021.94	211.30
1022.22	210.85
1022.51	209.65
1022.79	213.10
1023.08	211.80
1023.36	214.10
1023.65	210.65
>>>>>End Processed Spectral Data<<<<<
