SpectraSuite Data File
++++++++++++++++++++++++++++++++++++
Date: Mon Feb 25 16:58:50 EST 2013
User: group
Dark Spectrum Present: No
Reference Spectrum Present: No
Number of Sampled Component Spectra: 1
Spectrometers: USB2E7196
Integration Time (usec): 104000 (USB2E7196)
Spectra Averaged: 20 (USB2E7196)
Boxcar Smoothing: 10 (USB2E7196)
Correct for Electrical Dark: No (USB2E7196)
Strobe/Lamp Enabled: No (USB2E7196)
Correct for Detector Non-linearity: No (USB2E7196)
Correct for Stray Light: No (USB2E7196)
Number of Pixels in Processed Spectrum: 2048
>>>>>Begin Processed Spectral Data<<<<<
339.09	0.00
339.48	198.10
339.86	200.70
340.24	200.75
340.63	202.50
341.01	209.60
341.39	206.35
341.78	207.10
342.16	209.25
342.54	210.90
342.93	198.71
343.31	208.80
343.69	209.35
344.07	209.81
344.46	210.37
344.84	210.76
345.22	210.85
345.60	211.03
345.99	211.28
346.37	211.40
346.75	211.42
347.13	211.52
347.52	211.54
347.90	211.67
348.28	211.67
348.66	211.80
349.05	211.63
349.43	211.64
349.81	211.63
350.19	211.68
350.57	211.61
350.96	211.62
351.34	211.62
351.72	211.70
352.10	211.83
352.48	211.80
352.87	211.85
353.25	211.92
353.63	211.98
354.01	211.95
354.39	211.99
354.77	212.02
355.15	212.13
355.54	212.23
355.92	212.11
356.30	212.21
356.68	212.44
357.06	212.55
357.44	212.55
357.82	212.56
358.20	212.59
358.58	212.65
358.97	212.75
359.35	212.84
359.73	213.02
360.11	213.05
360.49	213.14
360.87	213.24
361.25	213.27
361.63	213.45
362.01	213.46
362.39	213.44
362.77	213.53
363.15	213.54
363.53	213.52
363.91	213.54
364.29	213.58
364.67	213.25
365.05	213.25
365.43	213.28
365.81	213.31
366.19	213.55
366.57	213.67
366.95	213.60
367.33	213.55
367.71	213.42
368.09	213.43
368.47	213.44
368.85	213.39
369.23	213.47
369.61	213.35
369.99	213.47
370.37	213.48
370.75	213.61
371.13	213.55
371.51	213.47
371.89	213.60
372.27	213.48
372.65	213.58
373.03	213.54
373.41	213.61
373.78	213.58
374.16	213.35
374.54	213.23
374.92	213.21
375.30	213.19
375.68	213.18
376.06	213.17
376.44	213.13
376.82	213.10
377.19	213.01
377.57	212.91
377.95	212.79
378.33	212.78
378.71	212.52
379.09	212.51
379.47	212.51
379.84	212.37
380.22	212.32
380.60	212.18
380.98	212.18
381.36	212.05
381.73	211.95
382.11	212.06
382.49	212.08
382.87	212.03
383.25	211.96
383.62	212.29
384.00	212.17
384.38	212.09
384.76	212.13
385.13	212.18
385.51	212.18
385.89	212.07
386.27	212.00
386.64	211.95
387.02	211.88
387.40	211.82
387.78	211.74
388.15	211.81
388.53	211.78
388.91	211.77
389.29	211.74
389.66	211.83
390.04	211.74
390.42	211.72
390.79	211.75
391.17	211.73
391.55	211.39
391.92	211.39
392.30	211.42
392.68	211.31
393.05	211.33
393.43	211.35
393.81	211.47
394.18	211.48
394.56	211.55
394.94	211.60
395.31	211.65
395.69	211.80
396.06	211.83
396.44	211.87
396.82	211.80
397.19	212.00
397.57	211.98
397.95	212.02
398.32	211.97
398.70	212.03
399.07	212.18
399.45	212.16
399.82	212.25
400.20	212.24
400.58	212.26
400.95	212.24
401.33	212.32
401.70	212.61
402.08	212.72
402.45	212.87
402.83	213.10
403.20	213.23
403.58	213.33
403.95	213.55
404.33	213.69
404.71	213.85
405.08	214.18
405.46	214.36
405.83	214.53
406.21	214.80
406.58	215.02
406.96	215.28
407.33	215.66
407.70	215.96
408.08	216.58
408.45	217.04
408.83	217.52
409.20	217.95
409.58	218.19
409.95	218.78
410.33	219.31
410.70	219.77
411.08	220.43
411.45	221.11
411.82	221.79
412.20	222.67
412.57	223.71
412.95	224.31
413.32	225.30
413.69	226.29
414.07	227.47
414.44	228.70
414.82	229.93
415.19	231.28
415.56	232.77
415.94	234.19
416.31	236.00
416.68	237.62
417.06	239.66
417.43	241.74
417.81	243.89
418.18	246.22
418.55	248.67
418.93	251.19
419.30	253.84
419.67	256.57
420.04	259.44
420.42	262.44
420.79	266.07
421.16	269.63
421.54	273.39
421.91	277.16
422.28	281.10
422.66	285.26
423.03	289.44
423.40	293.78
423.77	298.49
424.15	303.06
424.52	308.10
424.89	313.48
425.26	318.57
425.64	323.55
426.01	328.83
426.38	334.50
426.75	340.37
427.13	346.32
427.50	352.63
427.87	359.26
428.24	365.87
428.61	372.16
428.99	379.21
429.36	386.88
429.73	394.31
430.10	401.65
430.47	409.33
430.85	417.27
431.22	425.60
431.59	434.50
431.96	443.13
432.33	452.59
432.70	461.89
433.08	472.59
433.45	482.87
433.82	493.17
434.19	504.50
434.56	515.69
434.93	526.60
435.30	537.54
435.68	549.40
436.05	561.44
436.42	573.35
436.79	584.12
437.16	595.88
437.53	608.41
437.90	621.09
438.27	633.33
438.64	646.15
439.01	658.12
439.38	668.85
439.75	679.45
440.13	691.36
440.50	702.50
440.87	712.02
441.24	721.73
441.61	732.48
441.98	740.74
442.35	750.28
442.72	759.68
443.09	768.97
443.46	775.05
443.83	779.27
444.20	783.01
444.57	788.31
444.94	791.28
445.31	794.20
445.68	797.20
446.05	799.10
446.42	798.97
446.79	798.58
447.16	797.85
447.53	797.57
447.90	793.90
448.27	790.36
448.64	784.85
449.01	781.12
449.37	773.68
449.74	766.69
450.11	757.97
450.48	748.62
450.85	738.65
451.22	730.40
451.59	722.48
451.96	714.94
452.33	704.58
452.70	695.20
453.07	683.89
453.43	672.08
453.80	661.05
454.17	650.39
454.54	640.23
454.91	629.37
455.28	618.53
455.65	608.61
456.02	598.60
456.38	590.09
456.75	579.45
457.12	570.84
457.49	562.01
457.86	553.25
458.23	545.81
458.59	537.94
458.96	529.79
459.33	522.57
459.70	515.42
460.07	509.73
460.43	503.04
460.80	496.88
461.17	491.62
461.54	485.85
461.91	480.29
462.27	474.73
462.64	470.08
463.01	464.95
463.38	459.98
463.74	454.85
464.11	450.40
464.48	446.43
464.85	442.07
465.21	438.86
465.58	435.57
465.95	431.30
466.32	427.77
466.68	424.26
467.05	420.85
467.42	417.31
467.78	413.65
468.15	410.23
468.52	407.82
468.88	404.25
469.25	401.25
469.62	398.85
469.98	396.24
470.35	393.70
470.72	391.40
471.08	388.83
471.45	386.73
471.82	384.61
472.18	382.28
472.55	380.55
472.92	378.37
473.28	376.59
473.65	374.90
474.02	373.20
474.38	371.84
474.75	370.55
475.11	369.30
475.48	368.32
475.85	367.49
476.21	366.45
476.58	365.82
476.94	365.23
477.31	364.49
477.67	363.74
478.04	363.23
478.41	362.85
478.77	362.87
479.14	362.52
479.50	362.29
479.87	362.38
480.23	362.44
480.60	362.39
480.96	362.33
481.33	362.83
481.69	363.13
482.06	363.31
482.42	363.53
482.79	363.86
483.15	364.27
483.52	364.96
483.88	365.40
484.25	366.05
484.61	366.71
484.98	367.43
485.34	368.48
485.71	369.57
486.07	370.63
486.44	371.38
486.80	372.45
487.17	373.65
487.53	375.04
487.90	376.66
488.26	378.49
488.62	380.27
488.99	381.82
489.35	383.62
489.72	385.71
490.08	387.91
490.44	389.85
490.81	392.02
491.17	394.07
491.54	396.46
491.90	398.95
492.26	401.56
492.63	404.19
492.99	406.83
493.36	409.58
493.72	412.66
494.08	415.74
494.45	419.02
494.81	422.49
495.17	425.77
495.54	429.10
495.90	432.45
496.26	435.84
496.63	439.38
496.99	443.05
497.35	446.74
497.72	450.60
498.08	454.74
498.44	458.74
498.80	463.13
499.17	467.40
499.53	471.44
499.89	475.84
500.26	480.16
500.62	484.40
500.98	488.82
501.34	493.08
501.71	497.49
502.07	501.89
502.43	506.10
502.79	510.31
503.16	514.60
503.52	519.00
503.88	523.32
504.24	527.85
504.60	532.15
504.97	536.53
505.33	540.66
505.69	545.15
506.05	549.64
506.41	553.75
506.78	557.67
507.14	561.77
507.50	565.77
507.86	569.72
508.22	573.76
508.59	577.54
508.95	581.47
509.31	585.43
509.67	589.02
510.03	592.76
510.39	596.62
510.75	600.14
511.12	603.64
511.48	607.37
511.84	610.72
512.20	614.01
512.56	617.16
512.92	620.48
513.28	623.53
513.64	626.35
514.00	629.26
514.37	632.28
514.73	635.28
515.09	638.06
515.45	640.81
515.81	643.51
516.17	645.96
516.53	648.28
516.89	650.52
517.25	652.91
517.61	655.24
517.97	657.30
518.33	659.34
518.69	661.38
519.05	663.35
519.41	665.28
519.77	667.50
520.13	669.40
520.49	670.91
520.85	672.42
521.21	674.19
521.57	675.86
521.93	677.24
522.29	678.75
522.65	680.11
523.01	681.68
523.37	682.97
523.73	684.46
524.09	685.80
524.45	686.95
524.81	688.37
525.17	689.92
525.53	691.50
525.89	692.94
526.25	694.20
526.61	695.34
526.97	696.59
527.33	697.77
527.68	699.25
528.04	700.70
528.40	701.87
528.76	703.20
529.12	704.50
529.48	706.06
529.84	707.28
530.20	708.80
530.56	710.14
530.91	711.68
531.27	713.17
531.63	714.70
531.99	716.35
532.35	717.73
532.71	718.95
533.07	720.54
533.42	722.53
533.78	724.37
534.14	726.17
534.50	727.87
534.86	729.58
535.21	731.10
535.57	733.19
535.93	735.14
536.29	736.93
536.65	738.87
537.00	740.84
537.36	742.80
537.72	744.54
538.08	746.54
538.44	748.52
538.79	750.51
539.15	752.59
539.51	754.71
539.87	757.01
540.22	759.38
540.58	761.61
540.94	763.56
541.29	765.37
541.65	767.18
542.01	769.35
542.37	771.56
542.72	773.83
543.08	775.75
543.44	778.15
543.79	779.99
544.15	781.93
544.51	784.24
544.87	786.65
545.22	788.75
545.58	790.83
545.94	793.10
546.29	795.30
546.65	797.22
547.01	799.29
547.36	801.53
547.72	803.42
548.07	805.52
548.43	807.45
548.79	809.58
549.14	811.85
549.50	813.81
549.86	815.74
550.21	817.66
550.57	819.85
550.92	821.64
551.28	823.85
551.64	826.18
551.99	828.30
552.35	830.18
552.70	832.38
553.06	834.53
553.41	836.48
553.77	838.78
554.13	841.19
554.48	843.56
554.84	845.65
555.19	847.86
555.55	850.12
555.90	852.12
556.26	854.13
556.61	855.99
556.97	857.74
557.32	859.70
557.68	861.56
558.03	863.14
558.39	864.95
558.74	866.90
559.10	868.78
559.45	870.51
559.81	872.43
560.16	873.89
560.52	875.40
560.87	877.32
561.23	878.58
561.58	880.24
561.94	881.41
562.29	882.68
562.64	884.22
563.00	885.43
563.35	886.92
563.71	888.75
564.06	890.16
564.42	892.08
564.77	893.81
565.12	895.54
565.48	897.48
565.83	899.01
566.19	900.72
566.54	901.88
566.89	903.09
567.25	904.49
567.60	906.32
567.96	908.05
568.31	909.38
568.66	910.75
569.02	911.48
569.37	912.46
569.72	913.54
570.08	914.36
570.43	915.13
570.78	916.01
571.14	916.36
571.49	917.12
571.84	917.58
572.20	917.84
572.55	918.12
572.90	917.95
573.26	918.07
573.61	917.85
573.96	917.87
574.31	917.68
574.67	917.35
575.02	916.51
575.37	915.64
575.72	914.69
576.08	914.32
576.43	913.89
576.78	913.31
577.13	912.77
577.49	912.19
577.84	911.57
578.19	910.73
578.54	910.39
578.90	909.83
579.25	908.95
579.60	907.83
579.95	906.65
580.30	905.77
580.66	904.86
581.01	903.81
581.36	902.43
581.71	901.15
582.06	900.14
582.42	899.39
582.77	898.26
583.12	897.11
583.47	895.96
583.82	894.65
584.17	893.34
584.53	891.99
584.88	890.38
585.23	888.90
585.58	887.49
585.93	885.72
586.28	884.21
586.63	882.84
586.98	881.70
587.34	880.55
587.69	878.91
588.04	877.50
588.39	876.01
588.74	874.33
589.09	873.05
589.44	871.01
589.79	869.16
590.14	867.65
590.49	865.97
590.84	864.00
591.19	862.64
591.54	861.07
591.89	858.95
592.25	857.53
592.60	855.48
592.95	853.30
593.30	851.04
593.65	848.77
594.00	846.44
594.35	845.08
594.70	842.89
595.05	841.03
595.40	838.73
595.75	836.46
596.10	834.67
596.45	832.58
596.80	830.87
597.15	828.97
597.50	826.61
597.85	824.46
598.19	822.22
598.54	819.90
598.89	817.74
599.24	816.03
599.59	813.65
599.94	811.57
600.29	809.51
600.64	807.47
600.99	805.40
601.34	803.42
601.69	800.10
602.04	797.66
602.39	795.16
602.74	793.04
603.08	791.05
603.43	789.17
603.78	786.66
604.13	784.19
604.48	781.94
604.83	780.18
605.18	778.24
605.53	776.01
605.87	773.61
606.22	771.34
606.57	768.73
606.92	766.23
607.27	763.92
607.62	761.76
607.96	759.63
608.31	757.42
608.66	754.90
609.01	752.59
609.36	750.12
609.70	747.62
610.05	744.88
610.40	742.23
610.75	739.18
611.10	737.09
611.44	734.10
611.79	731.08
612.14	728.10
612.49	725.00
612.83	722.26
613.18	719.26
613.53	716.30
613.88	713.35
614.22	710.56
614.57	707.71
614.92	704.77
615.27	701.78
615.61	698.82
615.96	696.18
616.31	693.50
616.65	691.11
617.00	688.48
617.35	685.79
617.70	682.80
618.04	679.89
618.39	676.58
618.74	674.09
619.08	671.38
619.43	668.45
619.78	665.85
620.12	663.13
620.47	660.64
620.82	657.73
621.16	655.04
621.51	652.36
621.85	649.58
622.20	646.81
622.55	643.95
622.89	641.01
623.24	638.13
623.59	635.13
623.93	632.10
624.28	629.48
624.62	627.15
624.97	624.54
625.32	621.86
625.66	619.44
626.01	616.67
626.35	614.13
626.70	611.45
627.04	608.84
627.39	606.22
627.73	603.65
628.08	601.32
628.43	598.75
628.77	596.10
629.12	593.41
629.46	590.93
629.81	588.49
630.15	585.96
630.50	583.41
630.84	580.85
631.19	578.32
631.53	575.76
631.88	572.72
632.22	570.15
632.57	567.86
632.91	565.32
633.26	562.80
633.60	560.31
633.95	558.02
634.29	555.56
634.64	553.27
634.98	550.62
635.32	548.28
635.67	546.02
636.01	543.85
636.36	541.44
636.70	539.22
637.05	536.84
637.39	534.73
637.73	532.58
638.08	530.80
638.42	528.78
638.77	526.55
639.11	524.58
639.45	522.44
639.80	520.18
640.14	517.78
640.49	515.64
640.83	513.35
641.17	511.14
641.52	508.87
641.86	506.53
642.20	504.52
642.55	502.14
642.89	499.92
643.23	497.60
643.58	495.72
643.92	493.31
644.26	491.23
644.61	489.14
644.95	486.84
645.29	484.43
645.64	482.12
645.98	479.97
646.32	477.82
646.66	475.57
647.01	473.46
647.35	471.57
647.69	469.41
648.04	467.43
648.38	465.28
648.72	463.26
649.06	461.13
649.41	459.05
649.75	456.99
650.09	454.90
650.43	452.90
650.78	450.73
651.12	448.71
651.46	446.60
651.80	444.58
652.14	442.69
652.49	440.67
652.83	438.75
653.17	436.65
653.51	434.67
653.85	432.92
654.20	431.07
654.54	428.99
654.88	427.08
655.22	425.05
655.56	423.05
655.90	420.98
656.25	419.08
656.59	417.08
656.93	415.35
657.27	413.63
657.61	411.60
657.95	409.83
658.29	408.06
658.64	406.41
658.98	404.60
659.32	402.62
659.66	400.86
660.00	398.91
660.34	397.22
660.68	395.31
661.02	393.45
661.36	391.61
661.70	389.90
662.05	388.22
662.39	386.78
662.73	385.35
663.07	383.99
663.41	382.37
663.75	380.83
664.09	379.17
664.43	377.45
664.77	375.98
665.11	374.36
665.45	372.85
665.79	371.41
666.13	369.84
666.47	368.43
666.81	366.94
667.15	365.49
667.49	364.06
667.83	362.73
668.17	361.28
668.51	359.93
668.85	358.68
669.19	357.51
669.53	355.97
669.87	354.49
670.21	353.00
670.55	351.68
670.89	350.59
671.23	349.35
671.57	348.10
671.91	346.91
672.25	345.63
672.58	344.41
672.92	343.00
673.26	341.86
673.60	340.70
673.94	339.48
674.28	338.39
674.62	337.34
674.96	336.20
675.30	335.17
675.64	334.03
675.97	332.86
676.31	331.72
676.65	330.61
676.99	329.70
677.33	328.66
677.67	327.72
678.01	326.48
678.34	325.41
678.68	324.43
679.02	323.23
679.36	322.21
679.70	321.18
680.04	320.22
680.37	319.08
680.71	318.03
681.05	317.09
681.39	316.12
681.73	315.02
682.06	314.13
682.40	313.17
682.74	312.25
683.08	311.41
683.42	310.39
683.75	309.58
684.09	308.47
684.43	307.59
684.77	306.54
685.10	305.66
685.44	304.77
685.78	303.85
686.12	302.98
686.45	302.03
686.79	301.10
687.13	300.34
687.46	299.54
687.80	298.75
688.14	297.88
688.48	297.07
688.81	296.26
689.15	295.38
689.49	294.51
689.82	293.59
690.16	292.55
690.50	291.75
690.83	290.88
691.17	290.04
691.51	289.05
691.84	288.25
692.18	287.40
692.52	286.64
692.85	285.90
693.19	285.36
693.52	284.58
693.86	283.78
694.20	282.96
694.53	282.15
694.87	281.35
695.21	280.58
695.54	279.77
695.88	278.92
696.21	278.02
696.55	277.31
696.88	276.62
697.22	275.94
697.56	275.21
697.89	274.42
698.23	273.80
698.56	273.21
698.90	272.55
699.23	271.85
699.57	271.11
699.90	270.40
700.24	269.50
700.58	268.93
700.91	268.46
701.25	268.07
701.58	267.58
701.92	267.01
702.25	266.42
702.59	265.79
702.92	265.25
703.26	264.71
703.59	264.10
703.93	263.90
704.26	263.41
704.60	262.87
704.93	262.45
705.26	261.88
705.60	261.42
705.93	260.91
706.27	260.51
706.60	260.11
706.94	259.79
707.27	259.39
707.61	258.87
707.94	258.33
708.27	257.60
708.61	256.95
708.94	256.49
709.28	256.04
709.61	255.58
709.94	255.22
710.28	254.83
710.61	254.53
710.95	253.76
711.28	253.52
711.61	253.14
711.95	252.77
712.28	252.33
712.61	251.85
712.95	251.57
713.28	251.25
713.61	250.70
713.95	250.16
714.28	249.78
714.61	249.38
714.95	248.99
715.28	248.51
715.61	248.20
715.95	247.85
716.28	247.38
716.61	247.08
716.95	246.65
717.28	246.25
717.61	245.80
717.94	245.43
718.28	244.75
718.61	244.40
718.94	243.91
719.27	243.64
719.61	243.30
719.94	242.85
720.27	242.32
720.60	241.99
720.94	241.63
721.27	241.24
721.60	240.93
721.93	240.60
722.27	240.52
722.60	240.17
722.93	239.73
723.26	239.54
723.59	239.20
723.93	238.89
724.26	238.69
724.59	238.46
724.92	238.24
725.25	238.22
725.59	237.93
725.92	237.76
726.25	237.45
726.58	237.25
726.91	236.94
727.24	236.76
727.57	236.62
727.91	236.31
728.24	236.14
728.57	235.93
728.90	235.82
729.23	235.37
729.56	235.32
729.89	235.20
730.22	234.91
730.55	234.63
730.89	234.42
731.22	234.19
731.55	233.82
731.88	233.60
732.21	233.24
732.54	233.01
732.87	232.76
733.20	232.57
733.53	232.34
733.86	232.27
734.19	231.96
734.52	231.71
734.85	231.80
735.18	231.55
735.51	231.43
735.84	231.11
736.17	231.06
736.50	230.72
736.83	230.90
737.16	230.74
737.49	230.62
737.82	230.36
738.15	230.14
738.48	229.95
738.81	229.76
739.14	229.50
739.47	229.24
739.80	229.03
740.13	228.81
740.46	228.54
740.79	228.29
741.12	228.19
741.45	228.01
741.78	227.67
742.11	227.57
742.44	227.32
742.77	227.19
743.10	226.92
743.43	226.77
743.75	226.21
744.08	226.48
744.41	226.19
744.74	226.03
745.07	225.86
745.40	225.80
745.73	225.79
746.06	225.71
746.39	225.64
746.71	225.54
747.04	225.50
747.37	225.32
747.70	225.20
748.03	225.03
748.36	224.92
748.68	224.76
749.01	224.50
749.34	224.40
749.67	224.36
750.00	224.28
750.33	224.39
750.65	224.36
750.98	223.83
751.31	223.87
751.64	223.77
751.97	223.81
752.29	223.66
752.62	223.34
752.95	223.15
753.28	222.98
753.60	222.83
753.93	222.72
754.26	222.70
754.59	222.52
754.91	222.43
755.24	222.32
755.57	222.15
755.90	222.07
756.22	221.87
756.55	221.62
756.88	221.50
757.20	221.11
757.53	220.83
757.86	220.74
758.19	220.59
758.51	220.45
758.84	220.18
759.17	220.07
759.49	220.07
759.82	220.17
760.15	220.12
760.47	219.99
760.80	219.76
761.13	219.70
761.45	219.57
761.78	219.49
762.11	219.38
762.43	219.27
762.76	219.18
763.08	219.24
763.41	219.16
763.74	219.03
764.06	218.98
764.39	218.94
764.71	218.85
765.04	218.74
765.37	218.75
765.69	218.72
766.02	218.63
766.34	218.49
766.67	218.31
767.00	218.37
767.32	218.51
767.65	218.70
767.97	218.56
768.30	218.53
768.62	218.42
768.95	218.36
769.27	218.30
769.60	218.28
769.92	218.10
770.25	218.01
770.57	217.91
770.90	217.76
771.22	217.69
771.55	217.59
771.87	217.52
772.20	217.40
772.52	217.58
772.85	217.92
773.17	217.90
773.50	217.83
773.82	217.64
774.15	217.40
774.47	217.14
774.80	217.13
775.12	217.02
775.45	216.96
775.77	216.93
776.09	216.87
776.42	216.80
776.74	216.81
777.07	216.76
777.39	216.75
777.72	216.78
778.04	216.77
778.36	216.72
778.69	216.69
779.01	216.65
779.33	216.29
779.66	215.82
779.98	215.74
780.31	215.71
780.63	215.74
780.95	215.77
781.28	215.66
781.60	215.54
781.92	215.50
782.25	215.46
782.57	215.40
782.89	215.37
783.22	215.32
783.54	215.27
783.86	215.23
784.19	215.10
784.51	215.12
784.83	214.95
785.16	214.92
785.48	214.82
785.80	214.79
786.12	214.87
786.45	214.89
786.77	214.87
787.09	214.73
787.42	214.57
787.74	214.58
788.06	214.58
788.38	214.54
788.71	214.50
789.03	214.51
789.35	214.53
789.67	214.47
789.99	214.39
790.32	214.23
790.64	214.29
790.96	214.65
791.28	214.52
791.61	214.55
791.93	214.50
792.25	214.57
792.57	214.88
792.89	214.72
793.21	214.70
793.54	214.67
793.86	214.66
794.18	214.70
794.50	214.51
794.82	214.50
795.14	214.52
795.47	214.55
795.79	214.53
796.11	214.41
796.43	214.38
796.75	214.45
797.07	214.50
797.39	214.48
797.71	214.20
798.04	214.22
798.36	214.16
798.68	214.12
799.00	214.01
799.32	213.68
799.64	213.72
799.96	213.69
800.28	213.69
800.60	213.65
800.92	213.61
801.24	213.62
801.56	213.58
801.89	213.57
802.21	213.57
802.53	213.51
802.85	213.54
803.17	213.65
803.49	213.54
803.81	213.48
804.13	213.38
804.45	213.29
804.77	213.25
805.09	213.32
805.41	213.28
805.73	213.15
806.05	213.11
806.37	213.08
806.69	213.03
807.01	212.95
807.33	213.01
807.65	212.89
807.97	213.07
808.28	213.04
808.60	213.00
808.92	212.93
809.24	213.08
809.56	213.06
809.88	212.92
810.20	212.96
810.52	213.02
810.84	212.94
811.16	212.90
811.48	212.89
811.80	212.97
812.12	212.94
812.43	213.13
812.75	213.08
813.07	212.99
813.39	213.03
813.71	212.99
814.03	212.92
814.35	212.95
814.67	212.71
814.98	212.62
815.30	212.54
815.62	212.55
815.94	212.32
816.26	212.31
816.58	212.32
816.89	212.33
817.21	212.25
817.53	212.29
817.85	212.30
818.17	212.27
818.48	212.19
818.80	212.27
819.12	212.15
819.44	212.10
819.76	212.15
820.07	212.05
820.39	212.06
820.71	212.09
821.03	212.10
821.34	212.06
821.66	212.20
821.98	212.31
822.30	212.22
822.61	212.40
822.93	212.39
823.25	212.32
823.57	212.25
823.88	212.31
824.20	212.26
824.52	212.32
824.83	212.27
825.15	212.24
825.47	212.25
825.79	212.34
826.10	212.37
826.42	212.33
826.74	212.44
827.05	212.44
827.37	212.36
827.69	212.39
828.00	212.51
828.32	212.43
828.64	212.39
828.95	212.65
829.27	212.56
829.58	212.50
829.90	212.60
830.22	212.58
830.53	212.49
830.85	212.49
831.17	212.35
831.48	212.37
831.80	212.35
832.11	212.22
832.43	212.12
832.75	212.08
833.06	212.29
833.38	212.11
833.69	212.08
834.01	212.11
834.32	212.06
834.64	211.95
834.96	211.96
835.27	211.95
835.59	211.69
835.90	211.55
836.22	211.53
836.53	211.45
836.85	211.45
837.16	211.84
837.48	211.83
837.79	212.05
838.11	212.07
838.42	212.01
838.74	212.06
839.05	212.03
839.37	212.02
839.68	211.83
840.00	211.87
840.31	211.91
840.63	211.89
840.94	211.84
841.26	211.80
841.57	211.82
841.88	211.79
842.20	211.76
842.51	211.84
842.83	211.90
843.14	212.18
843.46	212.20
843.77	211.92
844.08	211.85
844.40	211.63
844.71	211.61
845.03	211.63
845.34	211.66
845.65	211.64
845.97	211.57
846.28	211.50
846.60	211.55
846.91	211.51
847.22	211.43
847.54	211.47
847.85	211.51
848.16	211.38
848.48	211.35
848.79	211.53
849.10	211.52
849.42	211.50
849.73	211.13
850.04	211.07
850.36	210.96
850.67	211.12
850.98	211.20
851.30	211.22
851.61	211.18
851.92	211.10
852.23	211.25
852.55	211.34
852.86	211.35
853.17	211.29
853.49	211.34
853.80	211.54
854.11	211.51
854.42	211.52
854.74	211.51
855.05	211.49
855.36	211.31
855.67	211.34
855.99	211.34
856.30	211.81
856.61	211.90
856.92	211.91
857.23	211.89
857.55	211.82
857.86	211.80
858.17	211.83
858.48	211.78
858.79	211.65
859.11	211.69
859.42	211.74
859.73	211.72
860.04	211.76
860.35	211.64
860.66	211.56
860.98	211.64
861.29	211.72
861.60	211.69
861.91	211.71
862.22	211.62
862.53	211.57
862.84	211.19
863.16	211.25
863.47	211.23
863.78	211.15
864.09	211.19
864.40	211.20
864.71	211.18
865.02	211.28
865.33	211.31
865.64	211.21
865.95	211.19
866.27	211.38
866.58	211.34
866.89	211.40
867.20	211.41
867.51	211.26
867.82	211.20
868.13	211.37
868.44	211.31
868.75	211.37
869.06	211.34
869.37	211.26
869.68	211.09
869.99	211.10
870.30	211.12
870.61	211.10
870.92	211.03
871.23	211.02
871.54	211.02
871.85	211.09
872.16	211.13
872.47	211.10
872.78	210.93
873.09	210.88
873.40	210.82
873.71	210.88
874.02	210.94
874.33	210.97
874.64	210.86
874.95	210.95
875.26	210.89
875.56	210.95
875.87	211.05
876.18	211.11
876.49	211.37
876.80	211.39
877.11	211.30
877.42	211.35
877.73	211.35
878.04	211.33
878.35	211.28
878.66	211.31
878.96	211.30
879.27	211.34
879.58	211.32
879.89	211.30
880.20	211.36
880.51	211.37
880.82	211.34
881.12	211.36
881.43	211.29
881.74	211.24
882.05	211.24
882.36	211.17
882.67	211.15
882.97	210.85
883.28	210.76
883.59	210.77
883.90	210.75
884.21	210.85
884.51	210.80
884.82	210.79
885.13	210.81
885.44	210.79
885.74	210.66
886.05	210.71
886.36	210.72
886.67	210.60
886.98	210.73
887.28	210.74
887.59	210.77
887.90	210.79
888.20	210.83
888.51	210.94
888.82	210.90
889.13	210.95
889.43	211.22
889.74	211.30
890.05	211.40
890.35	211.42
890.66	211.40
890.97	211.39
891.28	211.33
891.58	211.26
891.89	211.26
892.20	211.28
892.50	211.20
892.81	211.21
893.12	211.23
893.42	211.07
893.73	211.13
894.04	211.10
894.34	211.16
894.65	211.11
894.95	210.96
895.26	211.03
895.57	211.16
895.87	210.89
896.18	211.01
896.48	210.98
896.79	210.99
897.10	210.99
897.40	211.04
897.71	211.10
898.01	211.10
898.32	211.13
898.63	211.15
898.93	211.23
899.24	211.22
899.54	211.24
899.85	211.21
900.15	211.16
900.46	211.18
900.76	211.15
901.07	211.20
901.38	211.25
901.68	211.26
901.99	211.12
902.29	211.12
902.60	211.08
902.90	211.01
903.21	210.97
903.51	210.91
903.82	210.96
904.12	210.98
904.43	211.05
904.73	211.06
905.03	211.11
905.34	211.40
905.64	211.41
905.95	211.36
906.25	211.41
906.56	211.42
906.86	211.44
907.17	211.44
907.47	211.50
907.77	211.41
908.08	211.39
908.38	211.36
908.69	211.33
908.99	211.35
909.30	211.34
909.60	211.33
909.90	211.35
910.21	211.20
910.51	211.10
910.81	211.05
911.12	211.09
911.42	210.99
911.73	210.63
912.03	210.62
912.33	210.71
912.64	210.73
912.94	210.70
913.24	210.62
913.55	210.55
913.85	210.50
914.15	210.57
914.46	210.61
914.76	210.54
915.06	210.51
915.37	210.43
915.67	210.43
915.97	210.45
916.27	210.42
916.58	210.51
916.88	210.47
917.18	210.45
917.49	210.66
917.79	210.77
918.09	210.89
918.39	210.93
918.70	210.92
919.00	210.88
919.30	211.06
919.60	211.06
919.91	211.02
920.21	211.06
920.51	211.06
920.81	211.00
921.12	211.14
921.42	211.18
921.72	211.14
922.02	211.20
922.32	211.24
922.63	211.21
922.93	211.37
923.23	211.42
923.53	211.37
923.83	211.19
924.13	211.15
924.44	211.16
924.74	211.25
925.04	211.32
925.34	211.35
925.64	211.15
925.94	211.15
926.24	211.40
926.55	211.29
926.85	211.36
927.15	211.34
927.45	211.35
927.75	211.31
928.05	211.46
928.35	211.40
928.65	211.46
928.95	211.56
929.26	211.41
929.56	211.56
929.86	211.65
930.16	211.55
930.46	211.62
930.76	211.54
931.06	211.43
931.36	211.33
931.66	211.41
931.96	211.46
932.26	211.49
932.56	211.36
932.86	211.45
933.16	211.43
933.46	211.50
933.76	211.40
934.06	211.55
934.36	211.61
934.66	211.64
934.96	211.62
935.26	211.61
935.56	211.58
935.86	211.52
936.16	211.47
936.46	211.50
936.76	211.50
937.06	211.59
937.36	211.54
937.66	211.59
937.96	211.54
938.26	211.53
938.56	211.48
938.86	211.54
939.16	211.58
939.46	211.62
939.76	211.56
940.06	211.57
940.35	211.44
940.65	211.26
940.95	211.25
941.25	211.16
941.55	211.12
941.85	211.17
942.15	211.23
942.45	211.30
942.75	211.28
943.04	211.19
943.34	211.21
943.64	211.20
943.94	211.14
944.24	211.14
944.54	211.10
944.84	211.16
945.13	211.04
945.43	211.05
945.73	210.99
946.03	211.08
946.33	211.05
946.62	211.10
946.92	211.07
947.22	211.11
947.52	211.17
947.82	211.20
948.11	211.21
948.41	211.15
948.71	211.07
949.01	211.14
949.31	211.08
949.60	210.99
949.90	211.04
950.20	211.04
950.50	211.00
950.79	210.93
951.09	211.01
951.39	211.00
951.69	210.97
951.98	211.06
952.28	210.97
952.58	210.96
952.87	210.92
953.17	211.07
953.47	211.04
953.76	210.96
954.06	210.85
954.36	210.78
954.66	210.73
954.95	210.83
955.25	210.84
955.55	210.96
955.84	210.93
956.14	210.99
956.44	211.00
956.73	210.98
957.03	211.06
957.32	211.00
957.62	211.02
957.92	211.06
958.21	211.03
958.51	211.46
958.81	211.56
959.10	211.60
959.40	211.61
959.69	211.61
959.99	211.73
960.29	211.79
960.58	211.73
960.88	211.88
961.17	211.81
961.47	211.79
961.76	211.76
962.06	211.78
962.36	211.76
962.65	211.79
962.95	211.75
963.24	211.77
963.54	211.76
963.83	211.78
964.13	211.70
964.42	211.57
964.72	211.24
965.01	211.19
965.31	211.13
965.60	211.00
965.90	211.23
966.19	211.16
966.49	211.23
966.78	211.28
967.08	211.23
967.37	211.24
967.67	211.15
967.96	211.12
968.26	211.09
968.55	211.06
968.85	211.07
969.14	211.10
969.43	211.10
969.73	211.06
970.02	211.04
970.32	211.06
970.61	211.12
970.91	211.05
971.20	210.97
971.49	211.00
971.79	211.10
972.08	210.91
972.38	210.92
972.67	210.86
972.96	210.96
973.26	210.85
973.55	211.01
973.85	211.05
974.14	211.06
974.43	211.12
974.73	211.08
975.02	211.03
975.31	211.08
975.61	211.01
975.90	211.03
976.19	211.03
976.49	211.03
976.78	210.98
977.07	210.99
977.37	211.05
977.66	211.13
977.95	211.04
978.24	211.07
978.54	211.11
978.83	211.10
979.12	211.05
979.42	211.09
979.71	210.96
980.00	210.96
980.29	210.99
980.59	210.94
980.88	211.01
981.17	210.97
981.46	210.95
981.76	210.95
982.05	211.06
982.34	211.05
982.63	211.04
982.93	211.03
983.22	211.11
983.51	211.11
983.80	211.04
984.09	211.09
984.39	211.02
984.68	210.99
984.97	210.97
985.26	210.86
985.55	210.89
985.85	210.80
986.14	210.81
986.43	210.84
986.72	210.83
987.01	210.73
987.30	210.78
987.59	210.74
987.89	210.81
988.18	210.65
988.47	210.67
988.76	210.66
989.05	210.70
989.34	210.63
989.63	210.73
989.92	210.70
990.22	210.62
990.51	210.62
990.80	210.63
991.09	210.72
991.38	210.84
991.67	210.82
991.96	210.85
992.25	210.87
992.54	210.82
992.83	210.89
993.12	210.87
993.41	210.92
993.70	211.05
993.99	211.13
994.28	211.17
994.58	211.22
994.87	211.19
995.16	211.20
995.45	211.19
995.74	211.13
996.03	211.19
996.32	211.36
996.61	211.44
996.90	211.46
997.19	211.31
997.48	211.28
997.77	211.25
998.06	211.24
998.34	211.26
998.63	211.28
998.92	211.24
999.21	211.26
999.50	211.27
999.79	211.20
1000.08	211.15
1000.37	211.25
1000.66	211.17
1000.95	211.31
1001.24	211.31
1001.53	211.36
1001.82	211.37
1002.11	211.32
1002.40	211.23
1002.68	211.36
1002.97	211.53
1003.26	211.59
1003.55	211.52
1003.84	211.53
1004.13	211.74
1004.42	211.68
1004.71	211.72
1004.99	211.66
1005.28	211.79
1005.57	211.75
1005.86	211.70
1006.15	211.67
1006.44	211.59
1006.72	211.65
1007.01	211.53
1007.30	211.57
1007.59	211.58
1007.88	211.48
1008.17	211.53
1008.45	211.50
1008.74	211.34
1009.03	211.20
1009.32	211.21
1009.60	211.22
1009.89	211.22
1010.18	211.04
1010.47	211.03
1010.76	211.02
1011.04	211.03
1011.33	211.03
1011.62	211.02
1011.91	211.05
1012.19	211.14
1012.48	211.11
1012.77	211.09
1013.05	211.22
1013.34	211.15
1013.63	211.07
1013.92	211.11
1014.20	210.97
1014.49	211.03
1014.78	211.02
1015.06	210.83
1015.35	210.78
1015.64	210.84
1015.92	210.91
1016.21	210.89
1016.50	210.83
1016.78	210.77
1017.07	210.80
1017.36	210.76
1017.64	210.72
1017.93	210.77
1018.22	210.58
1018.50	210.56
1018.79	210.53
1019.08	210.38
1019.36	210.41
1019.65	210.35
1019.93	210.44
1020.22	210.58
1020.51	210.68
1020.79	210.62
1021.08	208.50
1021.36	210.20
1021.65	209.90
1021.94	211.05
1022.22	210.70
1022.51	208.95
1022.79	212.30
1023.08	211.80
1023.36	214.05
1023.65	209.80
>>>>>End Processed Spectral Data<<<<<
