SpectraSuite Data File
++++++++++++++++++++++++++++++++++++
Date: Mon Feb 25 17:01:27 EST 2013
User: group
Dark Spectrum Present: No
Reference Spectrum Present: No
Number of Sampled Component Spectra: 1
Spectrometers: USB2E7196
Integration Time (usec): 104000 (USB2E7196)
Spectra Averaged: 20 (USB2E7196)
Boxcar Smoothing: 10 (USB2E7196)
Correct for Electrical Dark: No (USB2E7196)
Strobe/Lamp Enabled: No (USB2E7196)
Correct for Detector Non-linearity: No (USB2E7196)
Correct for Stray Light: No (USB2E7196)
Number of Pixels in Processed Spectrum: 2048
>>>>>Begin Processed Spectral Data<<<<<
339.09	0.00
339.48	199.70
339.86	201.15
340.24	203.30
340.63	203.45
341.01	210.45
341.39	207.25
341.78	207.90
342.16	210.85
342.54	209.70
342.93	199.43
343.31	209.52
343.69	210.06
344.07	210.51
344.46	210.90
344.84	211.30
345.22	211.37
345.60	211.55
345.99	211.67
346.37	211.73
346.75	211.78
347.13	211.82
347.52	211.85
347.90	211.97
348.28	211.85
348.66	211.87
349.05	211.82
349.43	211.85
349.81	211.88
350.19	211.87
350.57	211.88
350.96	211.82
351.34	211.80
351.72	211.81
352.10	211.84
352.48	211.88
352.87	211.95
353.25	211.91
353.63	211.95
354.01	212.05
354.39	212.05
354.77	212.08
355.15	212.17
355.54	212.13
355.92	212.04
356.30	212.09
356.68	212.30
357.06	212.27
357.44	212.24
357.82	212.22
358.20	212.28
358.58	212.23
358.97	212.24
359.35	212.39
359.73	212.49
360.11	212.51
360.49	212.52
360.87	212.45
361.25	212.52
361.63	212.69
362.01	212.70
362.39	212.70
362.77	212.71
363.15	212.66
363.53	212.66
363.91	212.70
364.29	212.70
364.67	212.40
365.05	212.39
365.43	212.37
365.81	212.38
366.19	212.46
366.57	212.56
366.95	212.57
367.33	212.40
367.71	212.38
368.09	212.39
368.47	212.30
368.85	212.25
369.23	212.24
369.61	212.04
369.99	212.03
370.37	212.03
370.75	212.19
371.13	212.16
371.51	212.06
371.89	212.02
372.27	211.96
372.65	212.00
373.03	212.00
373.41	211.98
373.78	211.92
374.16	211.75
374.54	211.61
374.92	211.60
375.30	211.59
375.68	211.48
376.06	211.46
376.44	211.44
376.82	211.49
377.19	211.42
377.57	211.35
377.95	211.25
378.33	211.13
378.71	210.88
379.09	210.91
379.47	210.92
379.84	210.90
380.22	210.88
380.60	210.72
380.98	210.65
381.36	210.65
381.73	210.56
382.11	210.60
382.49	210.64
382.87	210.57
383.25	210.55
383.62	210.92
384.00	210.90
384.38	210.89
384.76	210.92
385.13	211.08
385.51	211.09
385.89	211.02
386.27	211.07
386.64	211.15
387.02	211.00
387.40	210.98
387.78	210.90
388.15	210.94
388.53	210.94
388.91	210.97
389.29	210.91
389.66	210.99
390.04	210.92
390.42	210.97
390.79	210.92
391.17	210.94
391.55	210.54
391.92	210.50
392.30	210.52
392.68	210.44
393.05	210.38
393.43	210.38
393.81	210.47
394.18	210.38
394.56	210.32
394.94	210.43
395.31	210.38
395.69	210.58
396.06	210.53
396.44	210.59
396.82	210.59
397.19	210.70
397.57	210.62
397.95	210.75
398.32	210.60
398.70	210.67
399.07	210.74
399.45	210.82
399.82	210.85
400.20	210.83
400.58	210.84
400.95	210.73
401.33	210.85
401.70	211.06
402.08	211.20
402.45	211.30
402.83	211.43
403.20	211.57
403.58	211.56
403.95	211.76
404.33	211.89
404.71	211.96
405.08	212.32
405.46	212.49
405.83	212.62
406.21	212.85
406.58	213.06
406.96	213.22
407.33	213.41
407.70	213.67
408.08	214.19
408.45	214.53
408.83	214.93
409.20	215.25
409.58	215.46
409.95	215.84
410.33	216.26
410.70	216.56
411.08	217.09
411.45	217.57
411.82	218.06
412.20	218.67
412.57	219.55
412.95	219.92
413.32	220.69
413.69	221.37
414.07	222.17
414.44	223.10
414.82	223.97
415.19	225.03
415.56	226.08
415.94	226.97
416.31	228.21
416.68	229.50
417.06	230.91
417.43	232.32
417.81	233.89
418.18	235.58
418.55	237.34
418.93	239.15
419.30	241.06
419.67	243.07
420.04	245.14
420.42	247.14
420.79	249.84
421.16	252.41
421.54	255.19
421.91	257.97
422.28	260.78
422.66	263.86
423.03	267.07
423.40	270.20
423.77	273.63
424.15	277.04
424.52	280.48
424.89	284.41
425.26	288.20
425.64	291.78
426.01	295.70
426.38	299.86
426.75	304.19
427.13	308.54
427.50	313.09
427.87	317.86
428.24	322.71
428.61	327.20
428.99	332.25
429.36	337.61
429.73	343.04
430.10	348.48
430.47	354.02
430.85	359.63
431.22	365.65
431.59	372.22
431.96	378.40
432.33	385.30
432.70	391.92
433.08	399.65
433.45	407.05
433.82	414.45
434.19	422.66
434.56	430.73
434.93	438.57
435.30	446.50
435.68	455.24
436.05	463.88
436.42	472.40
436.79	480.40
437.16	488.85
437.53	497.81
437.90	506.65
438.27	515.51
438.64	524.68
439.01	533.29
439.38	540.77
439.75	548.29
440.13	556.87
440.50	564.88
440.87	571.58
441.24	578.60
441.61	586.20
441.98	591.88
442.35	598.51
442.72	605.35
443.09	612.02
443.46	616.21
443.83	619.24
444.20	622.03
444.57	625.61
444.94	627.66
445.31	629.80
445.68	632.17
446.05	633.42
446.42	633.14
446.79	632.74
447.16	632.32
447.53	632.20
447.90	629.61
448.27	627.06
448.64	623.20
449.01	620.52
449.37	615.28
449.74	610.41
450.11	604.36
450.48	597.33
450.85	590.17
451.22	584.02
451.59	578.30
451.96	572.82
452.33	565.28
452.70	558.74
453.07	550.50
453.43	541.98
453.80	533.96
454.17	526.26
454.54	519.15
454.91	511.21
455.28	503.49
455.65	496.36
456.02	489.43
456.38	483.30
456.75	475.67
457.12	469.30
457.49	462.85
457.86	456.59
458.23	451.48
458.59	445.58
458.96	439.90
459.33	434.67
459.70	429.46
460.07	425.34
460.43	420.39
460.80	416.01
461.17	412.19
461.54	408.14
461.91	404.23
462.27	400.21
462.64	396.97
463.01	393.16
463.38	389.51
463.74	385.58
464.11	382.33
464.48	379.51
464.85	376.45
465.21	374.17
465.58	371.64
465.95	368.59
466.32	366.22
466.68	363.59
467.05	361.16
467.42	358.63
467.78	356.11
468.15	353.75
468.52	351.88
468.88	349.21
469.25	346.87
469.62	345.18
469.98	343.18
470.35	341.35
470.72	339.64
471.08	337.62
471.45	336.01
471.82	334.43
472.18	332.63
472.55	331.33
472.92	329.75
473.28	328.40
473.65	327.05
474.02	325.71
474.38	324.73
474.75	323.83
475.11	322.77
475.48	321.94
475.85	321.12
476.21	320.34
476.58	319.90
476.94	319.50
477.31	318.91
477.67	318.38
478.04	317.92
478.41	317.67
478.77	317.73
479.14	317.26
479.50	317.02
479.87	316.92
480.23	316.84
480.60	316.71
480.96	316.60
481.33	316.82
481.69	316.82
482.06	316.76
482.42	316.62
482.79	316.77
483.15	316.93
483.52	317.41
483.88	317.65
484.25	317.84
484.61	318.10
484.98	318.45
485.34	319.04
485.71	319.58
486.07	320.14
486.44	320.58
486.80	321.38
487.17	322.13
487.53	323.08
487.90	324.00
488.26	325.03
488.62	326.12
488.99	327.01
489.35	328.18
489.72	329.48
490.08	330.85
490.44	332.12
490.81	333.39
491.17	334.55
491.54	336.06
491.90	337.55
492.26	339.18
492.63	340.77
492.99	342.28
493.36	343.97
493.72	345.75
494.08	347.47
494.45	349.35
494.81	351.24
495.17	353.00
495.54	355.11
495.90	357.13
496.26	359.10
496.63	361.22
496.99	363.27
497.35	365.34
497.72	367.55
498.08	369.80
498.44	371.99
498.80	374.35
499.17	376.53
499.53	378.92
499.89	381.28
500.26	383.55
500.62	385.79
500.98	388.20
501.34	390.39
501.71	392.70
502.07	394.98
502.43	397.26
502.79	399.34
503.16	401.24
503.52	403.22
503.88	405.23
504.24	407.34
504.60	409.46
504.97	411.45
505.33	413.27
505.69	415.28
506.05	417.23
506.41	419.02
506.78	420.64
507.14	422.12
507.50	423.74
507.86	425.29
508.22	426.91
508.59	428.17
508.95	429.52
509.31	430.95
509.67	432.14
510.03	433.21
510.39	434.50
510.75	435.67
511.12	436.83
511.48	437.80
511.84	438.59
512.20	439.42
512.56	440.20
512.92	441.02
513.28	441.71
513.64	442.34
514.00	442.88
514.37	443.61
514.73	444.22
515.09	444.71
515.45	445.15
515.81	445.43
516.17	445.66
516.53	445.96
516.89	445.97
517.25	446.10
517.61	446.29
517.97	446.34
518.33	446.40
518.69	446.42
519.05	446.56
519.41	446.64
519.77	446.83
520.13	446.83
520.49	446.60
520.85	446.31
521.21	446.29
521.57	446.19
521.93	445.97
522.29	445.84
522.65	445.59
523.01	445.50
523.37	445.38
523.73	445.43
524.09	445.38
524.45	445.53
524.81	445.74
525.17	445.89
525.53	446.14
525.89	446.27
526.25	446.45
526.61	446.42
526.97	446.54
527.33	446.70
527.68	447.39
528.04	447.81
528.40	448.14
528.76	448.65
529.12	449.22
529.48	449.83
529.84	450.37
530.20	451.05
530.56	451.87
530.91	452.81
531.27	453.59
531.63	454.47
531.99	455.33
532.35	456.18
532.71	457.18
533.07	458.23
533.42	459.73
533.78	460.76
534.14	462.07
534.50	463.36
534.86	464.71
535.21	465.65
535.57	467.21
535.93	468.76
536.29	470.27
536.65	471.77
537.00	473.22
537.36	474.85
537.72	476.41
538.08	478.01
538.44	479.54
538.79	481.39
539.15	483.21
539.51	485.15
539.87	487.19
540.22	489.14
540.58	491.20
540.94	493.00
541.29	495.23
541.65	497.22
542.01	499.51
542.37	501.87
542.72	504.10
543.08	506.11
543.44	508.61
543.79	510.72
544.15	513.29
544.51	516.13
544.87	518.75
545.22	521.40
545.58	523.95
545.94	526.63
546.29	529.29
546.65	531.95
547.01	534.33
547.36	537.03
547.72	539.71
548.07	542.37
548.43	544.85
548.79	547.54
549.14	550.22
549.50	553.04
549.86	555.38
550.21	558.29
550.57	561.35
550.92	563.94
551.28	566.85
551.64	569.35
551.99	571.93
552.35	574.49
552.70	577.13
553.06	579.83
553.41	582.47
553.77	585.28
554.13	587.90
554.48	590.90
554.84	593.56
555.19	596.06
555.55	598.93
555.90	601.61
556.26	603.98
556.61	606.67
556.97	608.73
557.32	611.32
557.68	613.72
558.03	615.87
558.39	618.25
558.74	620.69
559.10	623.16
559.45	625.63
559.81	628.24
560.16	630.43
560.52	632.70
560.87	635.02
561.23	637.03
561.58	639.60
561.94	641.40
562.29	643.41
562.64	645.78
563.00	647.70
563.35	649.96
563.71	652.47
564.06	654.52
564.42	657.04
564.77	659.36
565.12	661.60
565.48	664.13
565.83	666.27
566.19	668.30
566.54	670.31
566.89	671.99
567.25	673.85
567.60	676.12
567.96	678.33
568.31	680.47
568.66	682.44
569.02	683.80
569.37	685.44
569.72	687.11
570.08	688.75
570.43	690.18
570.78	691.41
571.14	692.31
571.49	693.55
571.84	694.56
572.20	695.47
572.55	696.26
572.90	696.80
573.26	697.67
573.61	698.38
573.96	698.99
574.31	699.60
574.67	700.06
575.02	700.10
575.37	700.18
575.72	700.14
576.08	700.31
576.43	700.48
576.78	700.73
577.13	700.81
577.49	700.70
577.84	700.73
578.19	701.04
578.54	701.55
578.90	701.92
579.25	702.09
579.60	701.90
579.95	701.69
580.30	701.75
580.66	701.71
581.01	701.66
581.36	701.60
581.71	701.56
582.06	701.62
582.42	701.56
582.77	701.15
583.12	700.95
583.47	700.81
583.82	700.71
584.17	700.61
584.53	700.57
584.88	700.10
585.23	699.92
585.58	699.32
585.93	698.71
586.28	698.23
586.63	697.70
586.98	697.43
587.34	697.48
587.69	696.93
588.04	696.34
588.39	695.75
588.74	694.93
589.09	694.51
589.44	693.40
589.79	692.95
590.14	692.49
590.49	691.85
590.84	691.00
591.19	690.45
591.54	689.66
591.89	688.48
592.25	687.99
592.60	686.87
592.95	685.98
593.30	684.73
593.65	683.49
594.00	682.25
594.35	682.00
594.70	680.62
595.05	679.49
595.40	678.38
595.75	677.06
596.10	676.23
596.45	674.87
596.80	674.10
597.15	672.98
597.50	671.77
597.85	670.76
598.19	669.52
598.54	668.20
598.89	666.94
599.24	666.15
599.59	664.74
599.94	663.72
600.29	662.55
600.64	661.62
600.99	660.44
601.34	659.53
601.69	657.35
602.04	655.97
602.39	654.77
602.74	653.75
603.08	652.90
603.43	651.92
603.78	650.83
604.13	649.54
604.48	648.50
604.83	647.66
605.18	646.44
605.53	645.26
605.87	644.02
606.22	643.03
606.57	641.51
606.92	640.24
607.27	638.85
607.62	637.52
607.96	636.28
608.31	635.15
608.66	633.80
609.01	632.45
609.36	631.14
609.70	629.58
610.05	627.88
610.40	626.39
610.75	624.46
611.10	623.05
611.44	621.19
611.79	619.20
612.14	617.24
612.49	615.22
612.83	613.51
613.18	611.65
613.53	609.77
613.88	607.89
614.22	606.08
614.57	604.16
614.92	602.36
615.27	600.53
615.61	598.68
615.96	596.75
616.31	594.93
616.65	593.25
617.00	591.46
617.35	589.67
617.70	587.49
618.04	585.64
618.39	583.27
618.74	581.56
619.08	579.65
619.43	577.82
619.78	576.12
620.12	574.40
620.47	572.55
620.82	570.59
621.16	568.60
621.51	566.91
621.85	565.16
622.20	563.03
622.55	560.88
622.89	558.75
623.24	556.78
623.59	554.93
623.93	553.00
624.28	551.11
624.62	549.45
624.97	547.62
625.32	545.78
625.66	544.14
626.01	542.25
626.35	540.50
626.70	538.52
627.04	536.81
627.39	534.69
627.73	532.96
628.08	531.15
628.43	529.34
628.77	527.50
629.12	525.48
629.46	523.96
629.81	522.27
630.15	520.42
630.50	518.48
630.84	516.53
631.19	514.62
631.53	512.86
631.88	510.64
632.22	508.76
632.57	507.15
632.91	505.33
633.26	503.47
633.60	501.65
633.95	499.75
634.29	497.72
634.64	496.09
634.98	494.08
635.32	492.44
635.67	490.93
636.01	488.92
636.36	487.29
636.70	485.58
637.05	483.93
637.39	482.27
637.73	480.81
638.08	479.41
638.42	477.85
638.77	476.35
639.11	474.74
639.45	473.05
639.80	471.10
640.14	469.35
640.49	467.75
640.83	466.01
641.17	464.44
641.52	462.82
641.86	460.99
642.20	459.37
642.55	457.41
642.89	455.56
643.23	454.01
643.58	452.55
643.92	450.60
644.26	448.86
644.61	447.34
644.95	445.49
645.29	443.60
645.64	441.86
645.98	440.04
646.32	438.51
646.66	436.74
647.01	435.07
647.35	433.48
647.69	431.71
648.04	429.99
648.38	428.35
648.72	426.67
649.06	425.00
649.41	423.37
649.75	421.74
650.09	420.21
650.43	418.53
650.78	416.70
651.12	415.07
651.46	413.37
651.80	411.64
652.14	410.19
652.49	408.70
652.83	407.05
653.17	405.40
653.51	403.61
653.85	402.20
654.20	400.73
654.54	399.04
654.88	397.42
655.22	395.95
655.56	394.28
655.90	392.61
656.25	391.01
656.59	389.41
656.93	387.96
657.27	386.33
657.61	384.64
657.95	383.12
658.29	381.75
658.64	380.31
658.98	378.84
659.32	377.13
659.66	375.59
660.00	374.08
660.34	372.53
660.68	371.09
661.02	369.47
661.36	367.94
661.70	366.59
662.05	365.34
662.39	364.02
662.73	362.72
663.07	361.61
663.41	360.34
663.75	358.89
664.09	357.44
664.43	356.09
664.77	354.91
665.11	353.52
665.45	352.15
665.79	350.83
666.13	349.55
666.47	348.31
666.81	347.04
667.15	345.81
667.49	344.76
667.83	343.60
668.17	342.47
668.51	341.35
668.85	340.21
669.19	339.16
669.53	337.83
669.87	336.63
670.21	335.31
670.55	334.24
670.89	333.36
671.23	332.40
671.57	331.35
671.91	330.21
672.25	329.25
672.58	328.28
672.92	327.21
673.26	326.18
673.60	325.15
673.94	324.16
674.28	323.14
674.62	322.08
674.96	321.15
675.30	320.24
675.64	319.22
675.97	318.28
676.31	317.24
676.65	316.33
676.99	315.63
677.33	314.82
677.67	313.88
678.01	312.85
678.34	311.90
678.68	311.08
679.02	310.14
679.36	309.26
679.70	308.33
680.04	307.49
680.37	306.61
680.71	305.80
681.05	304.99
681.39	304.14
681.73	303.35
682.06	302.45
682.40	301.60
682.74	300.86
683.08	300.06
683.42	299.16
683.75	298.42
684.09	297.46
684.43	296.57
684.77	295.66
685.10	294.86
685.44	293.99
685.78	293.08
686.12	292.35
686.45	291.48
686.79	290.60
687.13	289.91
687.46	289.11
687.80	288.39
688.14	287.50
688.48	286.84
688.81	285.97
689.15	285.31
689.49	284.59
689.82	283.81
690.16	282.98
690.50	282.18
690.83	281.37
691.17	280.56
691.51	279.84
691.84	279.22
692.18	278.50
692.52	277.87
692.85	277.27
693.19	276.81
693.52	276.11
693.86	275.47
694.20	274.76
694.53	274.17
694.87	273.46
695.21	272.84
695.54	272.15
695.88	271.52
696.21	270.80
696.55	270.15
696.88	269.56
697.22	268.91
697.56	268.46
697.89	267.94
698.23	267.36
698.56	266.73
698.90	266.24
699.23	265.66
699.57	265.13
699.90	264.55
700.24	263.80
700.58	263.37
700.91	262.94
701.25	262.68
701.58	262.16
701.92	261.68
702.25	261.16
702.59	260.60
702.92	260.14
703.26	259.79
703.59	259.28
703.93	259.13
704.26	258.73
704.60	258.24
704.93	257.66
705.26	257.21
705.60	256.83
705.93	256.21
706.27	255.90
706.60	255.51
706.94	255.18
707.27	254.70
707.61	254.19
707.94	253.66
708.27	252.97
708.61	252.45
708.94	252.00
709.28	251.61
709.61	251.20
709.94	250.79
710.28	250.30
710.61	249.98
710.95	249.15
711.28	249.03
711.61	248.61
711.95	248.38
712.28	248.01
712.61	247.63
712.95	247.47
713.28	247.19
713.61	246.70
713.95	246.23
714.28	245.97
714.61	245.66
714.95	245.31
715.28	244.83
715.61	244.56
715.95	244.20
716.28	243.82
716.61	243.54
716.95	243.17
717.28	242.80
717.61	242.42
717.94	242.22
718.28	241.55
718.61	241.22
718.94	240.82
719.27	240.49
719.61	240.24
719.94	239.91
720.27	239.46
720.60	239.19
720.94	238.87
721.27	238.56
721.60	238.27
721.93	238.10
722.27	238.06
722.60	237.82
722.93	237.63
723.26	237.39
723.59	237.08
723.93	236.86
724.26	236.66
724.59	236.35
724.92	236.08
725.25	235.93
725.59	235.72
725.92	235.59
726.25	235.45
726.58	235.20
726.91	234.90
727.24	234.70
727.57	234.44
727.91	234.21
728.24	233.98
728.57	233.77
728.90	233.46
729.23	233.08
729.56	233.01
729.89	232.69
730.22	232.44
730.55	232.20
730.89	231.90
731.22	231.67
731.55	231.53
731.88	231.30
732.21	231.02
732.54	230.79
732.87	230.52
733.20	230.24
733.53	229.99
733.86	229.79
734.19	229.53
734.52	229.40
734.85	229.46
735.18	229.29
735.51	229.22
735.84	229.11
736.17	229.09
736.50	228.74
736.83	229.00
737.16	228.89
737.49	228.76
737.82	228.67
738.15	228.46
738.48	228.25
738.81	228.05
739.14	227.92
739.47	227.69
739.80	227.44
740.13	227.32
740.46	227.11
740.79	226.88
741.12	226.79
741.45	226.64
741.78	226.25
742.11	226.15
742.44	225.83
742.77	225.74
743.10	225.50
743.43	225.29
743.75	224.79
744.08	225.05
744.41	224.91
744.74	224.76
745.07	224.61
745.40	224.52
745.73	224.56
746.06	224.46
746.39	224.43
746.71	224.31
747.04	224.15
747.37	224.09
747.70	224.04
748.03	223.82
748.36	223.75
748.68	223.58
749.01	223.36
749.34	223.29
749.67	223.14
750.00	223.01
750.33	223.17
750.65	223.10
750.98	222.53
751.31	222.42
751.64	222.21
751.97	222.37
752.29	222.26
752.62	222.00
752.95	221.79
753.28	221.55
753.60	221.53
753.93	221.48
754.26	221.31
754.59	221.08
754.91	221.06
755.24	220.89
755.57	220.82
755.90	220.75
756.22	220.57
756.55	220.50
756.88	220.39
757.20	220.07
757.53	219.81
757.86	219.76
758.19	219.67
758.51	219.62
758.84	219.20
759.17	219.01
759.49	218.91
759.82	219.12
760.15	219.16
760.47	219.06
760.80	218.89
761.13	218.86
761.45	218.78
761.78	218.64
762.11	218.56
762.43	218.46
762.76	218.31
763.08	218.32
763.41	218.19
763.74	218.09
764.06	218.05
764.39	218.00
764.71	217.90
765.04	217.76
765.37	217.65
765.69	217.62
766.02	217.61
766.34	217.47
766.67	217.15
767.00	217.14
767.32	217.20
767.65	217.29
767.97	217.16
768.30	217.12
768.62	217.02
768.95	216.94
769.27	216.92
769.60	216.97
769.92	216.79
770.25	216.65
770.57	216.56
770.90	216.40
771.22	216.33
771.55	216.30
771.87	216.29
772.20	216.25
772.52	216.45
772.85	216.80
773.17	216.81
773.50	216.82
773.82	216.70
774.15	216.50
774.47	216.26
774.80	216.23
775.12	216.26
775.45	216.25
775.77	216.25
776.09	216.16
776.42	216.14
776.74	216.19
777.07	216.15
777.39	216.16
777.72	216.06
778.04	216.06
778.36	215.98
778.69	215.96
779.01	215.94
779.33	215.62
779.66	215.20
779.98	215.17
780.31	215.06
780.63	215.12
780.95	215.16
781.28	215.14
781.60	215.08
781.92	214.98
782.25	214.97
782.57	214.85
782.89	214.77
783.22	214.59
783.54	214.47
783.86	214.48
784.19	214.39
784.51	214.48
784.83	214.36
785.16	214.31
785.48	214.27
785.80	214.30
786.12	214.34
786.45	214.30
786.77	214.23
787.09	214.22
787.42	214.10
787.74	214.09
788.06	214.08
788.38	214.08
788.71	213.99
789.03	213.99
789.35	214.02
789.67	213.99
789.99	214.03
790.32	214.02
790.64	213.97
790.96	214.27
791.28	214.13
791.61	214.13
791.93	214.13
792.25	214.12
792.57	214.27
792.89	214.16
793.21	214.15
793.54	214.18
793.86	214.17
794.18	214.09
794.50	214.00
794.82	213.95
795.14	213.92
795.47	214.03
795.79	214.01
796.11	213.95
796.43	213.95
796.75	213.99
797.07	213.99
797.39	213.94
797.71	213.63
798.04	213.72
798.36	213.73
798.68	213.71
799.00	213.70
799.32	213.53
799.64	213.60
799.96	213.55
800.28	213.59
800.60	213.50
800.92	213.54
801.24	213.48
801.56	213.53
801.89	213.50
802.21	213.48
802.53	213.35
802.85	213.45
803.17	213.55
803.49	213.41
803.81	213.37
804.13	213.38
804.45	213.34
804.77	213.35
805.09	213.37
805.41	213.33
805.73	213.31
806.05	213.15
806.37	213.09
806.69	213.12
807.01	213.00
807.33	213.05
807.65	212.91
807.97	213.05
808.28	213.02
808.60	212.98
808.92	212.84
809.24	213.07
809.56	212.88
809.88	212.73
810.20	212.77
810.52	212.80
810.84	212.75
811.16	212.70
811.48	212.61
811.80	212.75
812.12	212.70
812.43	212.71
812.75	212.75
813.07	212.72
813.39	212.66
813.71	212.64
814.03	212.53
814.35	212.51
814.67	212.29
814.98	212.16
815.30	212.17
815.62	212.14
815.94	211.88
816.26	211.91
816.58	211.85
816.89	211.84
817.21	211.69
817.53	211.75
817.85	211.71
818.17	211.67
818.48	211.43
818.80	211.49
819.12	211.41
819.44	211.36
819.76	211.27
820.07	211.31
820.39	211.29
820.71	211.31
821.03	211.36
821.34	211.43
821.66	211.50
821.98	211.50
822.30	211.45
822.61	211.71
822.93	211.67
823.25	211.67
823.57	211.63
823.88	211.83
824.20	211.75
824.52	211.82
824.83	211.84
825.15	211.82
825.47	211.77
825.79	211.75
826.10	211.76
826.42	211.84
826.74	211.84
827.05	211.85
827.37	211.84
827.69	211.73
828.00	211.75
828.32	211.76
828.64	211.76
828.95	211.98
829.27	211.81
829.58	211.86
829.90	211.95
830.22	211.95
830.53	211.78
830.85	211.75
831.17	211.72
831.48	211.74
831.80	211.74
832.11	211.80
832.43	211.76
832.75	211.70
833.06	211.88
833.38	211.79
833.69	211.80
834.01	211.87
834.32	211.86
834.64	211.79
834.96	211.79
835.27	211.78
835.59	211.74
835.90	211.71
836.22	211.67
836.53	211.58
836.85	211.65
837.16	212.01
837.48	212.06
837.79	212.16
838.11	212.13
838.42	212.13
838.74	212.15
839.05	212.19
839.37	212.27
839.68	212.02
840.00	212.01
840.31	212.05
840.63	212.00
840.94	211.98
841.26	211.91
841.57	211.95
841.88	211.96
842.20	211.86
842.51	211.81
842.83	211.88
843.14	212.18
843.46	212.10
843.77	212.00
844.08	211.98
844.40	211.85
844.71	211.88
845.03	211.88
845.34	211.87
845.65	211.80
845.97	211.79
846.28	211.86
846.60	211.91
846.91	211.83
847.22	211.80
847.54	211.96
847.85	212.07
848.16	211.98
848.48	211.90
848.79	212.03
849.10	212.12
849.42	212.09
849.73	211.84
850.04	211.85
850.36	211.71
850.67	211.80
850.98	211.76
851.30	211.77
851.61	211.77
851.92	211.73
852.23	211.90
852.55	211.85
852.86	211.84
853.17	211.89
853.49	211.98
853.80	212.09
854.11	212.09
854.42	212.08
854.74	212.13
855.05	212.15
855.36	212.00
855.67	212.08
855.99	212.09
856.30	212.47
856.61	212.40
856.92	212.37
857.23	212.29
857.55	212.30
857.86	212.28
858.17	212.32
858.48	212.24
858.79	212.12
859.11	212.20
859.42	212.14
859.73	212.02
860.04	212.02
860.35	211.94
860.66	211.89
860.98	211.83
861.29	211.86
861.60	211.86
861.91	211.98
862.22	211.86
862.53	211.85
862.84	211.46
863.16	211.56
863.47	211.42
863.78	211.45
864.09	211.50
864.40	211.47
864.71	211.44
865.02	211.45
865.33	211.42
865.64	211.36
865.95	211.40
866.27	211.65
866.58	211.59
866.89	211.58
867.20	211.55
867.51	211.54
867.82	211.48
868.13	211.47
868.44	211.29
868.75	211.38
869.06	211.35
869.37	211.33
869.68	211.28
869.99	211.38
870.30	211.39
870.61	211.39
870.92	211.35
871.23	211.33
871.54	211.42
871.85	211.50
872.16	211.52
872.47	211.47
872.78	211.24
873.09	211.22
873.40	211.25
873.71	211.22
874.02	211.25
874.33	211.25
874.64	211.23
874.95	211.35
875.26	211.24
875.56	211.30
875.87	211.30
876.18	211.34
876.49	211.68
876.80	211.63
877.11	211.47
877.42	211.53
877.73	211.49
878.04	211.53
878.35	211.50
878.66	211.56
878.96	211.52
879.27	211.51
879.58	211.53
879.89	211.45
880.20	211.58
880.51	211.50
880.82	211.48
881.12	211.51
881.43	211.35
881.74	211.26
882.05	211.17
882.36	211.21
882.67	211.18
882.97	210.90
883.28	210.80
883.59	210.93
883.90	210.97
884.21	211.05
884.51	210.96
884.82	210.95
885.13	210.82
885.44	210.85
885.74	210.90
886.05	210.85
886.36	210.85
886.67	210.65
886.98	210.83
887.28	210.83
887.59	210.82
887.90	210.85
888.20	210.87
888.51	210.89
888.82	210.81
889.13	210.85
889.43	211.02
889.74	211.00
890.05	210.96
890.35	210.93
890.66	210.92
890.97	210.91
891.28	210.84
891.58	210.88
891.89	210.88
892.20	210.80
892.50	210.85
892.81	210.85
893.12	210.90
893.42	210.73
893.73	210.75
894.04	210.76
894.34	210.80
894.65	210.85
894.95	210.82
895.26	210.81
895.57	210.92
895.87	210.61
896.18	210.72
896.48	210.73
896.79	210.69
897.10	210.68
897.40	210.71
897.71	210.83
898.01	210.85
898.32	210.92
898.63	210.92
898.93	210.90
899.24	210.93
899.54	210.90
899.85	210.94
900.15	211.00
900.46	210.95
900.76	210.95
901.07	211.00
901.38	211.02
901.68	211.08
901.99	210.94
902.29	211.00
902.60	211.00
902.90	211.01
903.21	211.06
903.51	211.07
903.82	211.08
904.12	211.02
904.43	211.05
904.73	211.01
905.03	211.04
905.34	211.42
905.64	211.45
905.95	211.42
906.25	211.38
906.56	211.30
906.86	211.32
907.17	211.37
907.47	211.32
907.77	211.25
908.08	211.19
908.38	211.18
908.69	211.10
908.99	211.13
909.30	211.17
909.60	211.14
909.90	211.20
910.21	211.13
910.51	211.07
910.81	211.05
911.12	211.08
911.42	211.08
911.73	210.68
912.03	210.64
912.33	210.78
912.64	210.75
912.94	210.82
913.24	210.77
913.55	210.72
913.85	210.72
914.15	210.85
914.46	210.91
914.76	210.85
915.06	210.93
915.37	210.91
915.67	210.88
915.97	210.89
916.27	210.87
916.58	210.88
916.88	210.89
917.18	210.86
917.49	211.06
917.79	211.06
918.09	211.09
918.39	211.24
918.70	211.17
919.00	211.26
919.30	211.42
919.60	211.41
919.91	211.36
920.21	211.38
920.51	211.30
920.81	211.27
921.12	211.41
921.42	211.40
921.72	211.40
922.02	211.37
922.32	211.43
922.63	211.35
922.93	211.52
923.23	211.60
923.53	211.55
923.83	211.41
924.13	211.44
924.44	211.44
924.74	211.47
925.04	211.64
925.34	211.50
925.64	211.33
925.94	211.34
926.24	211.49
926.55	211.49
926.85	211.50
927.15	211.50
927.45	211.51
927.75	211.56
928.05	211.53
928.35	211.60
928.65	211.58
928.95	211.66
929.26	211.50
929.56	211.56
929.86	211.67
930.16	211.53
930.46	211.57
930.76	211.56
931.06	211.29
931.36	211.12
931.66	211.29
931.96	211.24
932.26	211.29
932.56	211.23
932.86	211.24
933.16	211.23
933.46	211.15
933.76	211.09
934.06	211.09
934.36	211.26
934.66	211.16
934.96	211.18
935.26	211.18
935.56	211.21
935.86	211.05
936.16	211.00
936.46	210.97
936.76	210.90
937.06	210.86
937.36	210.96
937.66	211.01
937.96	210.96
938.26	210.96
938.56	210.96
938.86	210.96
939.16	211.03
939.46	211.10
939.76	211.20
940.06	211.13
940.35	211.10
940.65	210.85
940.95	210.91
941.25	210.80
941.55	210.70
941.85	210.69
942.15	210.80
942.45	210.84
942.75	210.87
943.04	210.90
943.34	211.01
943.64	210.97
943.94	210.90
944.24	210.92
944.54	211.00
944.84	210.91
945.13	210.84
945.43	210.71
945.73	210.63
946.03	210.55
946.33	210.54
946.62	210.45
946.92	210.50
947.22	210.54
947.52	210.53
947.82	210.63
948.11	210.62
948.41	210.53
948.71	210.46
949.01	210.53
949.31	210.47
949.60	210.43
949.90	210.47
950.20	210.47
950.50	210.40
950.79	210.24
951.09	210.37
951.39	210.40
951.69	210.43
951.98	210.49
952.28	210.53
952.58	210.52
952.87	210.53
953.17	210.50
953.47	210.43
953.76	210.45
954.06	210.40
954.36	210.28
954.66	210.27
954.95	210.35
955.25	210.35
955.55	210.46
955.84	210.37
956.14	210.41
956.44	210.44
956.73	210.40
957.03	210.56
957.32	210.49
957.62	210.44
957.92	210.53
958.21	210.51
958.51	210.93
958.81	211.02
959.10	211.15
959.40	211.31
959.69	211.37
959.99	211.42
960.29	211.42
960.58	211.46
960.88	211.65
961.17	211.59
961.47	211.60
961.76	211.48
962.06	211.62
962.36	211.59
962.65	211.51
962.95	211.56
963.24	211.44
963.54	211.46
963.83	211.53
964.13	211.46
964.42	211.36
964.72	211.06
965.01	211.00
965.31	210.89
965.60	210.79
965.90	210.99
966.19	210.88
966.49	210.89
966.78	210.87
967.08	210.80
967.37	210.79
967.67	210.74
967.96	210.85
968.26	210.75
968.55	210.79
968.85	210.90
969.14	210.86
969.43	210.85
969.73	210.87
970.02	210.85
970.32	210.90
970.61	210.88
970.91	210.80
971.20	210.77
971.49	210.73
971.79	210.76
972.08	210.45
972.38	210.49
972.67	210.38
972.96	210.46
973.26	210.42
973.55	210.57
973.85	210.57
974.14	210.52
974.43	210.56
974.73	210.52
975.02	210.43
975.31	210.47
975.61	210.55
975.90	210.52
976.19	210.45
976.49	210.45
976.78	210.49
977.07	210.57
977.37	210.62
977.66	210.69
977.95	210.61
978.24	210.67
978.54	210.83
978.83	210.89
979.12	210.93
979.42	210.96
979.71	210.85
980.00	210.89
980.29	210.90
980.59	210.90
980.88	210.93
981.17	211.00
981.46	211.09
981.76	211.06
982.05	211.17
982.34	211.22
982.63	211.21
982.93	211.14
983.22	211.19
983.51	211.18
983.80	211.24
984.09	211.27
984.39	211.31
984.68	211.19
984.97	211.18
985.26	211.14
985.55	211.10
985.85	211.05
986.14	211.11
986.43	211.15
986.72	210.98
987.01	210.88
987.30	210.84
987.59	210.66
987.89	210.68
988.18	210.56
988.47	210.55
988.76	210.55
989.05	210.63
989.34	210.51
989.63	210.58
989.92	210.55
990.22	210.54
990.51	210.46
990.80	210.49
991.09	210.51
991.38	210.55
991.67	210.52
991.96	210.51
992.25	210.46
992.54	210.41
992.83	210.51
993.12	210.52
993.41	210.56
993.70	210.85
993.99	210.88
994.28	210.95
994.58	210.95
994.87	210.91
995.16	210.92
995.45	210.93
995.74	210.81
996.03	210.86
996.32	210.89
996.61	210.96
996.90	210.94
997.19	210.90
997.48	210.85
997.77	210.84
998.06	210.89
998.34	210.87
998.63	210.87
998.92	210.87
999.21	210.92
999.50	210.94
999.79	210.77
1000.08	210.78
1000.37	210.75
1000.66	210.80
1000.95	210.86
1001.24	210.89
1001.53	210.94
1001.82	210.96
1002.11	210.87
1002.40	210.92
1002.68	211.03
1002.97	211.27
1003.26	211.29
1003.55	211.27
1003.84	211.30
1004.13	211.43
1004.42	211.34
1004.71	211.33
1004.99	211.36
1005.28	211.55
1005.57	211.49
1005.86	211.46
1006.15	211.47
1006.44	211.47
1006.72	211.50
1007.01	211.45
1007.30	211.44
1007.59	211.43
1007.88	211.45
1008.17	211.50
1008.45	211.45
1008.74	211.30
1009.03	211.13
1009.32	211.16
1009.60	211.17
1009.89	211.08
1010.18	210.91
1010.47	211.02
1010.76	211.02
1011.04	211.00
1011.33	210.88
1011.62	210.88
1011.91	210.92
1012.19	210.85
1012.48	210.78
1012.77	210.66
1013.05	210.87
1013.34	210.84
1013.63	210.81
1013.92	210.77
1014.20	210.72
1014.49	210.73
1014.78	210.74
1015.06	210.58
1015.35	210.56
1015.64	210.60
1015.92	210.73
1016.21	210.78
1016.50	210.77
1016.78	210.71
1017.07	210.73
1017.36	210.66
1017.64	210.63
1017.93	210.64
1018.22	210.66
1018.50	210.66
1018.79	210.69
1019.08	210.45
1019.36	210.45
1019.65	210.40
1019.93	210.57
1020.22	210.62
1020.51	210.82
1020.79	210.79
1021.08	210.70
1021.36	209.70
1021.65	210.20
1021.94	210.10
1022.22	210.05
1022.51	210.00
1022.79	213.55
1023.08	210.95
1023.36	215.60
1023.65	209.65
>>>>>End Processed Spectral Data<<<<<
