SpectraSuite Data File
++++++++++++++++++++++++++++++++++++
Date: Mon Feb 25 17:19:06 EST 2013
User: group
Dark Spectrum Present: No
Reference Spectrum Present: No
Number of Sampled Component Spectra: 1
Spectrometers: USB2E7196
Integration Time (usec): 104000 (USB2E7196)
Spectra Averaged: 20 (USB2E7196)
Boxcar Smoothing: 10 (USB2E7196)
Correct for Electrical Dark: No (USB2E7196)
Strobe/Lamp Enabled: No (USB2E7196)
Correct for Detector Non-linearity: No (USB2E7196)
Correct for Stray Light: No (USB2E7196)
Number of Pixels in Processed Spectrum: 2048
>>>>>Begin Processed Spectral Data<<<<<
339.09	0.00
339.48	199.85
339.86	199.70
340.24	201.05
340.63	202.70
341.01	208.85
341.39	206.10
341.78	206.95
342.16	208.70
342.54	209.85
342.93	198.34
343.31	208.36
343.69	208.88
344.07	209.31
344.46	209.78
344.84	210.16
345.22	210.30
345.60	210.55
345.99	210.84
346.37	210.95
346.75	211.10
347.13	211.17
347.52	211.32
347.90	211.56
348.28	211.57
348.66	211.75
349.05	211.77
349.43	211.86
349.81	211.93
350.19	212.01
350.57	212.08
350.96	212.23
351.34	212.37
351.72	212.45
352.10	212.64
352.48	212.72
352.87	212.87
353.25	212.93
353.63	212.96
354.01	213.02
354.39	213.14
354.77	213.15
355.15	213.34
355.54	213.34
355.92	213.28
356.30	213.36
356.68	213.56
357.06	213.59
357.44	213.61
357.82	213.66
358.20	213.74
358.58	213.81
358.97	213.91
359.35	214.01
359.73	214.10
360.11	214.12
360.49	214.21
360.87	214.25
361.25	214.35
361.63	214.55
362.01	214.57
362.39	214.61
362.77	214.65
363.15	214.70
363.53	214.75
363.91	214.82
364.29	214.87
364.67	214.59
365.05	214.60
365.43	214.64
365.81	214.64
366.19	214.81
366.57	214.93
366.95	214.89
367.33	214.78
367.71	214.85
368.09	214.92
368.47	214.89
368.85	214.83
369.23	214.84
369.61	214.70
369.99	214.82
370.37	214.83
370.75	215.04
371.13	214.94
371.51	214.85
371.89	214.88
372.27	214.90
372.65	214.88
373.03	214.86
373.41	214.73
373.78	214.74
374.16	214.52
374.54	214.41
374.92	214.35
375.30	214.34
375.68	214.18
376.06	214.15
376.44	214.09
376.82	214.10
377.19	214.07
377.57	214.03
377.95	213.83
378.33	213.76
378.71	213.50
379.09	213.49
379.47	213.51
379.84	213.37
380.22	213.24
380.60	213.20
380.98	213.20
381.36	213.16
381.73	213.10
382.11	213.14
382.49	213.07
382.87	213.00
383.25	213.04
383.62	213.43
384.00	213.29
384.38	213.25
384.76	213.32
385.13	213.43
385.51	213.39
385.89	213.32
386.27	213.30
386.64	213.34
387.02	213.33
387.40	213.23
387.78	213.21
388.15	213.29
388.53	213.22
388.91	213.17
389.29	213.19
389.66	213.22
390.04	213.17
390.42	213.20
390.79	213.20
391.17	213.15
391.55	212.77
391.92	212.88
392.30	212.98
392.68	212.82
393.05	212.71
393.43	212.75
393.81	212.77
394.18	212.70
394.56	212.71
394.94	212.80
395.31	212.84
395.69	212.97
396.06	212.98
396.44	213.10
396.82	213.10
397.19	213.26
397.57	213.25
397.95	213.31
398.32	213.27
398.70	213.35
399.07	213.44
399.45	213.50
399.82	213.51
400.20	213.45
400.58	213.52
400.95	213.49
401.33	213.62
401.70	213.95
402.08	214.13
402.45	214.15
402.83	214.20
403.20	214.32
403.58	214.30
403.95	214.45
404.33	214.58
404.71	214.69
405.08	214.97
405.46	215.12
405.83	215.28
406.21	215.44
406.58	215.59
406.96	215.73
407.33	215.98
407.70	216.20
408.08	216.81
408.45	217.12
408.83	217.53
409.20	217.79
409.58	217.91
409.95	218.23
410.33	218.72
410.70	219.06
411.08	219.52
411.45	220.02
411.82	220.50
412.20	221.11
412.57	221.90
412.95	222.25
413.32	222.92
413.69	223.53
414.07	224.30
414.44	225.14
414.82	225.95
415.19	226.80
415.56	227.81
415.94	228.59
416.31	229.78
416.68	230.87
417.06	232.17
417.43	233.50
417.81	235.01
418.18	236.38
418.55	237.96
418.93	239.64
419.30	241.51
419.67	243.29
420.04	245.15
420.42	247.04
420.79	249.45
421.16	251.73
421.54	254.22
421.91	256.67
422.28	259.20
422.66	261.95
423.03	264.85
423.40	267.59
423.77	270.55
424.15	273.40
424.52	276.51
424.89	279.90
425.26	283.11
425.64	286.12
426.01	289.60
426.38	293.20
426.75	296.86
427.13	300.42
427.50	304.39
427.87	308.38
428.24	312.37
428.61	316.09
428.99	320.48
429.36	325.15
429.73	329.70
430.10	334.21
430.47	338.94
430.85	343.64
431.22	348.71
431.59	354.27
431.96	359.51
432.33	365.17
432.70	370.66
433.08	377.03
433.45	383.11
433.82	389.11
434.19	395.72
434.56	402.25
434.93	408.55
435.30	414.86
435.68	421.86
436.05	428.84
436.42	435.62
436.79	441.73
437.16	448.25
437.53	455.23
437.90	462.27
438.27	469.05
438.64	476.04
439.01	482.58
439.38	488.22
439.75	493.86
440.13	500.40
440.50	506.41
440.87	511.34
441.24	516.61
441.61	522.24
441.98	526.40
442.35	531.11
442.72	535.86
443.09	540.50
443.46	543.17
443.83	544.90
444.20	546.62
444.57	548.92
444.94	550.10
445.31	551.27
445.68	552.54
446.05	552.96
446.42	552.16
446.79	551.27
447.16	550.18
447.53	549.49
447.90	546.73
448.27	543.95
448.64	540.30
449.01	537.40
449.37	532.69
449.74	528.08
450.11	522.91
450.48	517.12
450.85	511.11
451.22	506.03
451.59	501.12
451.96	496.44
452.33	490.20
452.70	484.35
453.07	477.50
453.43	470.40
453.80	463.72
454.17	457.54
454.54	451.64
454.91	445.36
455.28	439.05
455.65	433.15
456.02	427.77
456.38	422.78
456.75	416.72
457.12	411.67
457.49	406.70
457.86	401.64
458.23	397.60
458.59	393.00
458.96	388.37
459.33	384.23
459.70	380.09
460.07	376.87
460.43	373.30
460.80	369.95
461.17	366.95
461.54	363.82
461.91	360.68
462.27	357.53
462.64	354.80
463.01	351.96
463.38	349.35
463.74	346.24
464.11	343.85
464.48	341.75
464.85	339.51
465.21	337.78
465.58	335.95
465.95	333.58
466.32	331.74
466.68	329.91
467.05	328.19
467.42	326.40
467.78	324.51
468.15	322.79
468.52	321.47
468.88	319.65
469.25	318.10
469.62	317.01
469.98	315.85
470.35	314.75
470.72	313.63
471.08	312.39
471.45	311.59
471.82	310.70
472.18	309.60
472.55	308.91
472.92	308.01
473.28	307.31
473.65	306.67
474.02	305.92
474.38	305.51
474.75	305.20
475.11	304.72
475.48	304.47
475.85	304.21
476.21	303.94
476.58	303.91
476.94	303.96
477.31	303.95
477.67	303.90
478.04	304.09
478.41	304.44
478.77	304.96
479.14	305.10
479.50	305.48
479.87	306.00
480.23	306.42
480.60	307.02
480.96	307.62
481.33	308.45
481.69	309.39
482.06	310.15
482.42	310.91
482.79	311.92
483.15	313.05
483.52	314.40
483.88	315.72
484.25	317.10
484.61	318.49
484.98	320.04
485.34	321.75
485.71	323.67
486.07	325.56
486.44	327.29
486.80	329.32
487.17	331.61
487.53	334.20
487.90	336.84
488.26	339.67
488.62	342.72
488.99	345.75
489.35	348.90
489.72	352.38
490.08	356.12
490.44	359.80
490.81	363.84
491.17	367.83
491.54	372.15
491.90	376.67
492.26	381.59
492.63	386.60
492.99	391.97
493.36	397.49
493.72	403.40
494.08	409.50
494.45	416.09
494.81	422.95
495.17	429.78
495.54	437.21
495.90	444.71
496.26	452.57
496.63	460.79
496.99	469.40
497.35	478.42
497.72	487.68
498.08	497.51
498.44	507.45
498.80	518.18
499.17	529.14
499.53	540.50
499.89	552.25
500.26	564.33
500.62	576.60
500.98	589.50
501.34	602.82
501.71	616.66
502.07	630.93
502.43	645.36
502.79	660.44
503.16	676.01
503.52	691.96
503.88	708.23
504.24	725.37
504.60	742.64
504.97	760.48
505.33	778.78
505.69	798.03
506.05	817.72
506.41	837.36
506.78	857.51
507.14	878.06
507.50	899.27
507.86	920.88
508.22	943.09
508.59	965.61
508.95	988.80
509.31	1012.18
509.67	1036.30
510.03	1060.92
510.39	1086.12
510.75	1111.36
511.12	1137.13
511.48	1163.38
511.84	1189.83
512.20	1216.73
512.56	1244.25
512.92	1271.93
513.28	1299.81
513.64	1327.75
514.00	1356.18
514.37	1384.75
514.73	1413.84
515.09	1442.87
515.45	1472.11
515.81	1501.54
516.17	1530.79
516.53	1560.44
516.89	1590.64
517.25	1619.99
517.61	1649.87
517.97	1679.59
518.33	1709.59
518.69	1739.64
519.05	1769.97
519.41	1800.50
519.77	1831.25
520.13	1861.19
520.49	1891.21
520.85	1921.30
521.21	1951.64
521.57	1982.25
521.93	2012.02
522.29	2042.77
522.65	2073.89
523.01	2104.05
523.37	2133.55
523.73	2163.95
524.09	2193.69
524.45	2223.35
524.81	2253.34
525.17	2283.42
525.53	2313.19
525.89	2342.99
526.25	2372.41
526.61	2400.59
526.97	2428.63
527.33	2456.52
527.68	2484.92
528.04	2512.55
528.40	2539.18
528.76	2566.08
529.12	2593.48
529.48	2621.70
529.84	2648.30
530.20	2674.01
530.56	2700.74
530.91	2728.31
531.27	2754.88
531.63	2780.94
531.99	2806.75
532.35	2831.58
532.71	2855.52
533.07	2880.28
533.42	2903.22
533.78	2927.01
534.14	2950.69
534.50	2972.53
534.86	2995.45
535.21	3016.61
535.57	3039.37
535.93	3061.24
536.29	3081.94
536.65	3102.50
537.00	3121.68
537.36	3140.42
537.72	3158.63
538.08	3176.26
538.44	3194.04
538.79	3212.10
539.15	3229.34
539.51	3246.21
539.87	3264.04
540.22	3280.97
540.58	3298.03
540.94	3314.58
541.29	3329.20
541.65	3343.13
542.01	3358.32
542.37	3371.94
542.72	3386.68
543.08	3398.38
543.44	3412.14
543.79	3424.31
544.15	3434.92
544.51	3446.75
544.87	3459.02
545.22	3469.83
545.58	3480.18
545.94	3488.32
546.29	3495.42
546.65	3502.69
547.01	3509.76
547.36	3515.79
547.72	3521.85
548.07	3526.10
548.43	3530.76
548.79	3535.16
549.14	3539.73
549.50	3543.92
549.86	3546.96
550.21	3549.02
550.57	3553.15
550.92	3554.50
551.28	3556.58
551.64	3558.92
551.99	3560.85
552.35	3561.48
552.70	3562.86
553.06	3563.92
553.41	3565.09
553.77	3565.80
554.13	3566.27
554.48	3566.61
554.84	3567.08
555.19	3566.81
555.55	3565.81
555.90	3564.30
556.26	3562.82
556.61	3561.11
556.97	3558.40
557.32	3556.59
557.68	3553.70
558.03	3550.03
558.39	3547.02
558.74	3545.31
559.10	3542.67
559.45	3539.07
559.81	3535.98
560.16	3531.69
560.52	3527.92
560.87	3523.77
561.23	3518.64
561.58	3514.91
561.94	3509.51
562.29	3503.63
562.64	3498.72
563.00	3494.07
563.35	3490.41
563.71	3486.92
564.06	3482.28
564.42	3478.16
564.77	3473.73
565.12	3469.83
565.48	3465.33
565.83	3460.67
566.19	3455.78
566.54	3449.28
566.89	3442.83
567.25	3437.00
567.60	3431.61
567.96	3425.38
568.31	3419.51
568.66	3413.54
569.02	3405.93
569.37	3398.31
569.72	3391.40
570.08	3383.60
570.43	3375.66
570.78	3366.56
571.14	3357.18
571.49	3348.58
571.84	3340.74
572.20	3331.16
572.55	3322.32
572.90	3312.27
573.26	3302.00
573.61	3291.10
573.96	3281.02
574.31	3270.39
574.67	3258.60
575.02	3246.44
575.37	3234.78
575.72	3222.20
576.08	3211.68
576.43	3199.72
576.78	3189.00
577.13	3178.20
577.49	3167.42
577.84	3156.25
578.19	3146.10
578.54	3136.42
578.90	3126.79
579.25	3114.89
579.60	3103.06
579.95	3090.55
580.30	3080.00
580.66	3069.65
581.01	3057.97
581.36	3046.72
581.71	3035.07
582.06	3024.08
582.42	3013.60
582.77	3002.01
583.12	2990.98
583.47	2979.84
583.82	2969.86
584.17	2958.56
584.53	2947.40
584.88	2935.93
585.23	2924.67
585.58	2912.89
585.93	2900.56
586.28	2888.87
586.63	2877.73
586.98	2867.29
587.34	2857.30
587.69	2845.67
588.04	2834.26
588.39	2823.55
588.74	2811.68
589.09	2801.29
589.44	2790.10
589.79	2779.67
590.14	2769.46
590.49	2758.71
590.84	2747.13
591.19	2736.91
591.54	2726.01
591.89	2713.80
592.25	2702.44
592.60	2690.64
592.95	2678.70
593.30	2666.28
593.65	2653.63
594.00	2641.77
594.35	2631.49
594.70	2619.79
595.05	2609.21
595.40	2598.07
595.75	2586.04
596.10	2575.62
596.45	2565.34
596.80	2555.39
597.15	2544.84
597.50	2533.62
597.85	2523.37
598.19	2512.84
598.54	2501.63
598.89	2491.74
599.24	2483.08
599.59	2473.08
599.94	2464.49
600.29	2455.16
600.64	2446.13
600.99	2436.01
601.34	2426.56
601.69	2415.28
602.04	2404.56
602.39	2394.23
602.74	2384.05
603.08	2375.68
603.43	2367.10
603.78	2356.95
604.13	2346.95
604.48	2337.21
604.83	2329.01
605.18	2320.50
605.53	2310.76
605.87	2301.12
606.22	2291.89
606.57	2281.42
606.92	2272.06
607.27	2261.60
607.62	2251.32
607.96	2242.12
608.31	2233.86
608.66	2223.31
609.01	2213.79
609.36	2204.13
609.70	2193.69
610.05	2183.22
610.40	2172.39
610.75	2161.17
611.10	2151.35
611.44	2139.58
611.79	2128.20
612.14	2115.81
612.49	2103.15
612.83	2092.41
613.18	2080.50
613.53	2068.45
613.88	2056.45
614.22	2044.89
614.57	2033.22
614.92	2022.04
615.27	2010.04
615.61	1997.98
615.96	1987.27
616.31	1976.52
616.65	1966.18
617.00	1955.74
617.35	1945.26
617.70	1934.00
618.04	1922.04
618.39	1909.79
618.74	1899.29
619.08	1888.08
619.43	1877.54
619.78	1867.62
620.12	1856.80
620.47	1846.66
620.82	1835.61
621.16	1824.74
621.51	1813.78
621.85	1803.24
622.20	1792.40
622.55	1781.75
622.89	1770.85
623.24	1760.15
623.59	1748.49
623.93	1737.59
624.28	1727.04
624.62	1716.08
624.97	1705.72
625.32	1696.22
625.66	1686.66
626.01	1676.64
626.35	1667.07
626.70	1656.86
627.04	1647.30
627.39	1637.48
627.73	1627.64
628.08	1618.42
628.43	1608.49
628.77	1598.27
629.12	1587.93
629.46	1579.16
629.81	1569.77
630.15	1560.17
630.50	1550.45
630.84	1540.90
631.19	1531.15
631.53	1521.49
631.88	1511.57
632.22	1501.49
632.57	1491.97
632.91	1482.36
633.26	1472.87
633.60	1463.23
633.95	1454.51
634.29	1444.65
634.64	1435.51
634.98	1425.63
635.32	1416.45
635.67	1408.25
636.01	1399.95
636.36	1391.34
636.70	1382.25
637.05	1373.22
637.39	1364.85
637.73	1356.62
638.08	1349.06
638.42	1341.26
638.77	1332.98
639.11	1325.09
639.45	1316.68
639.80	1307.80
640.14	1299.05
640.49	1290.43
640.83	1281.95
641.17	1273.24
641.52	1264.74
641.86	1255.74
642.20	1247.56
642.55	1238.56
642.89	1229.43
643.23	1220.28
643.58	1212.34
643.92	1203.45
644.26	1194.87
644.61	1186.31
644.95	1177.59
645.29	1168.78
645.64	1159.91
645.98	1151.44
646.32	1143.16
646.66	1135.11
647.01	1127.26
647.35	1119.35
647.69	1110.91
648.04	1102.85
648.38	1094.59
648.72	1086.25
649.06	1078.20
649.41	1070.21
649.75	1062.34
650.09	1054.69
650.43	1047.12
650.78	1038.62
651.12	1030.60
651.46	1022.62
651.80	1014.96
652.14	1007.36
652.49	999.26
652.83	991.31
653.17	982.93
653.51	974.84
653.85	967.38
654.20	959.78
654.54	951.78
654.88	944.29
655.22	936.49
655.56	928.86
655.90	921.28
656.25	914.00
656.59	906.62
656.93	899.42
657.27	892.33
657.61	884.67
657.95	877.62
658.29	870.73
658.64	864.06
658.98	856.97
659.32	849.59
659.66	842.87
660.00	835.95
660.34	829.30
660.68	822.45
661.02	815.47
661.36	808.89
661.70	802.66
662.05	796.31
662.39	790.48
662.73	784.39
663.07	778.66
663.41	772.62
663.75	766.35
664.09	760.13
664.43	753.77
664.77	748.20
665.11	742.36
665.45	736.50
665.79	730.56
666.13	724.76
666.47	719.15
666.81	713.65
667.15	708.17
667.49	702.96
667.83	697.81
668.17	692.59
668.51	687.36
668.85	682.34
669.19	677.53
669.53	672.20
669.87	667.13
670.21	661.96
670.55	656.88
670.89	652.48
671.23	648.25
671.57	643.71
671.91	638.98
672.25	634.26
672.58	629.67
672.92	625.27
673.26	621.07
673.60	616.92
673.94	612.60
674.28	608.42
674.62	604.41
674.96	600.34
675.30	596.38
675.64	592.26
675.97	588.04
676.31	584.09
676.65	580.13
676.99	576.49
677.33	572.65
677.67	568.91
678.01	564.81
678.34	560.74
678.68	556.93
679.02	553.11
679.36	549.54
679.70	545.90
680.04	542.13
680.37	538.36
680.71	534.70
681.05	531.42
681.39	527.86
681.73	524.25
682.06	520.95
682.40	517.56
682.74	514.19
683.08	510.90
683.42	507.32
683.75	504.11
684.09	500.61
684.43	497.28
684.77	493.79
685.10	490.63
685.44	487.25
685.78	484.17
686.12	481.25
686.45	478.11
686.79	474.94
687.13	472.07
687.46	469.18
687.80	466.31
688.14	462.87
688.48	459.95
688.81	456.87
689.15	453.83
689.49	450.67
689.82	447.72
690.16	444.73
690.50	441.72
690.83	438.74
691.17	435.72
691.51	432.95
691.84	430.47
692.18	427.75
692.52	425.40
692.85	422.96
693.19	420.37
693.52	417.78
693.86	415.29
694.20	412.80
694.53	410.29
694.87	407.65
695.21	405.20
695.54	402.70
695.88	400.25
696.21	397.83
696.55	395.69
696.88	393.51
697.22	391.17
697.56	389.25
697.89	387.01
698.23	384.99
698.56	382.91
698.90	380.84
699.23	378.70
699.57	376.51
699.90	374.22
700.24	372.01
700.58	369.99
700.91	368.07
701.25	366.26
701.58	364.42
701.92	362.62
702.25	360.86
702.59	359.01
702.92	357.26
703.26	355.45
703.59	353.77
703.93	352.17
704.26	350.50
704.60	348.60
704.93	346.99
705.26	345.30
705.60	343.67
705.93	341.92
706.27	340.45
706.60	338.97
706.94	337.64
707.27	336.04
707.61	334.60
707.94	332.98
708.27	331.21
708.61	329.53
708.94	328.02
709.28	326.61
709.61	325.27
709.94	323.95
710.28	322.58
710.61	321.25
710.95	319.65
711.28	318.46
711.61	317.17
711.95	315.99
712.28	314.65
712.61	313.41
712.95	312.30
713.28	311.10
713.61	309.78
713.95	308.41
714.28	307.46
714.61	306.34
714.95	305.29
715.28	304.17
715.61	303.05
715.95	301.92
716.28	300.77
716.61	299.63
716.95	298.39
717.28	297.35
717.61	296.18
717.94	295.12
718.28	293.95
718.61	293.00
718.94	291.96
719.27	291.03
719.61	290.00
719.94	289.05
720.27	287.97
720.60	287.14
720.94	286.27
721.27	285.27
721.60	284.35
721.93	283.45
722.27	282.72
722.60	281.99
722.93	281.23
723.26	280.52
723.59	279.80
723.93	279.10
724.26	278.43
724.59	277.74
724.92	277.05
725.25	276.48
725.59	275.74
725.92	275.12
726.25	274.49
726.58	273.95
726.91	273.22
727.24	272.65
727.57	271.96
727.91	271.22
728.24	270.64
728.57	270.02
728.90	269.41
729.23	268.71
729.56	268.25
729.89	267.67
730.22	267.00
730.55	266.38
730.89	265.85
731.22	265.20
731.55	264.50
731.88	263.95
732.21	263.24
732.54	262.64
732.87	261.99
733.20	261.37
733.53	260.61
733.86	260.05
734.19	259.44
734.52	258.95
734.85	258.69
735.18	258.07
735.51	257.66
735.84	257.23
736.17	256.86
736.50	256.13
736.83	256.00
737.16	255.58
737.49	255.07
737.82	254.51
738.15	253.99
738.48	253.47
738.81	252.95
739.14	252.42
739.47	251.97
739.80	251.40
740.13	250.89
740.46	250.45
740.79	249.97
741.12	249.47
741.45	248.94
741.78	248.37
742.11	248.09
742.44	247.53
742.77	247.15
743.10	246.68
743.43	246.33
743.75	245.45
744.08	245.44
744.41	244.95
744.74	244.57
745.07	244.21
745.40	243.98
745.73	243.75
746.06	243.39
746.39	243.01
746.71	242.66
747.04	242.33
747.37	242.10
747.70	241.85
748.03	241.58
748.36	241.25
748.68	240.86
749.01	240.37
749.34	240.10
749.67	239.72
750.00	239.42
750.33	239.29
750.65	239.13
750.98	238.33
751.31	238.08
751.64	237.74
751.97	237.63
752.29	237.26
752.62	236.80
752.95	236.47
753.28	236.16
753.60	235.93
753.93	235.79
754.26	235.39
754.59	235.00
754.91	234.63
755.24	234.36
755.57	234.14
755.90	233.91
756.22	233.62
756.55	233.32
756.88	232.95
757.20	232.58
757.53	232.17
757.86	231.93
758.19	231.68
758.51	231.39
758.84	230.94
759.17	230.60
759.49	230.40
759.82	230.42
760.15	230.28
760.47	230.04
760.80	229.68
761.13	229.49
761.45	229.25
761.78	229.06
762.11	228.86
762.43	228.56
762.76	228.32
763.08	228.18
763.41	228.08
763.74	227.89
764.06	227.65
764.39	227.44
764.71	227.27
765.04	227.15
765.37	226.98
765.69	226.76
766.02	226.72
766.34	226.49
766.67	226.13
767.00	225.94
767.32	225.93
767.65	225.95
767.97	225.78
768.30	225.68
768.62	225.46
768.95	225.22
769.27	225.15
769.60	225.07
769.92	224.82
770.25	224.53
770.57	224.38
770.90	224.19
771.22	224.02
771.55	223.87
771.87	223.69
772.20	223.57
772.52	223.72
772.85	223.94
773.17	223.88
773.50	223.82
773.82	223.67
774.15	223.35
774.47	222.99
774.80	222.82
775.12	222.70
775.45	222.68
775.77	222.64
776.09	222.55
776.42	222.48
776.74	222.44
777.07	222.30
777.39	222.21
777.72	222.07
778.04	222.05
778.36	221.95
778.69	221.88
779.01	221.82
779.33	221.44
779.66	220.95
779.98	220.83
780.31	220.65
780.63	220.70
780.95	220.63
781.28	220.46
781.60	220.39
781.92	220.21
782.25	220.09
782.57	219.98
782.89	219.82
783.22	219.69
783.54	219.48
783.86	219.53
784.19	219.41
784.51	219.38
784.83	219.27
785.16	219.06
785.48	218.97
785.80	218.94
786.12	218.95
786.45	218.92
786.77	218.88
787.09	218.81
787.42	218.66
787.74	218.70
788.06	218.72
788.38	218.68
788.71	218.58
789.03	218.52
789.35	218.45
789.67	218.29
789.99	218.17
790.32	218.18
790.64	218.11
790.96	218.32
791.28	218.15
791.61	218.05
791.93	218.11
792.25	217.98
792.57	218.05
792.89	217.89
793.21	217.74
793.54	217.65
793.86	217.58
794.18	217.46
794.50	217.28
794.82	217.28
795.14	217.26
795.47	217.32
795.79	217.25
796.11	217.18
796.43	217.17
796.75	217.18
797.07	217.07
797.39	216.98
797.71	216.73
798.04	216.77
798.36	216.81
798.68	216.81
799.00	216.77
799.32	216.59
799.64	216.65
799.96	216.71
800.28	216.67
800.60	216.62
800.92	216.63
801.24	216.62
801.56	216.60
801.89	216.56
802.21	216.55
802.53	216.48
802.85	216.52
803.17	216.67
803.49	216.60
803.81	216.59
804.13	216.51
804.45	216.40
804.77	216.38
805.09	216.34
805.41	216.24
805.73	216.18
806.05	216.05
806.37	215.97
806.69	215.88
807.01	215.86
807.33	215.81
807.65	215.65
807.97	215.76
808.28	215.73
808.60	215.66
808.92	215.56
809.24	215.70
809.56	215.66
809.88	215.49
810.20	215.36
810.52	215.34
810.84	215.27
811.16	215.25
811.48	215.20
811.80	215.28
812.12	215.21
812.43	215.33
812.75	215.25
813.07	215.13
813.39	215.12
813.71	215.03
814.03	214.98
814.35	214.98
814.67	214.79
814.98	214.70
815.30	214.72
815.62	214.64
815.94	214.44
816.26	214.37
816.58	214.29
816.89	214.35
817.21	214.30
817.53	214.30
817.85	214.29
818.17	214.26
818.48	214.03
818.80	214.08
819.12	213.95
819.44	213.99
819.76	213.99
820.07	213.95
820.39	213.92
820.71	213.92
821.03	213.90
821.34	213.85
821.66	213.80
821.98	213.75
822.30	213.68
822.61	213.85
822.93	213.78
823.25	213.79
823.57	213.72
823.88	213.69
824.20	213.65
824.52	213.66
824.83	213.54
825.15	213.57
825.47	213.44
825.79	213.41
826.10	213.36
826.42	213.35
826.74	213.33
827.05	213.30
827.37	213.25
827.69	213.18
828.00	213.17
828.32	213.19
828.64	213.13
828.95	213.32
829.27	213.29
829.58	213.28
829.90	213.32
830.22	213.40
830.53	213.35
830.85	213.38
831.17	213.34
831.48	213.40
831.80	213.33
832.11	213.41
832.43	213.40
832.75	213.36
833.06	213.54
833.38	213.43
833.69	213.42
834.01	213.45
834.32	213.40
834.64	213.39
834.96	213.40
835.27	213.42
835.59	213.40
835.90	213.24
836.22	213.20
836.53	213.10
836.85	212.99
837.16	213.33
837.48	213.26
837.79	213.31
838.11	213.33
838.42	213.35
838.74	213.41
839.05	213.39
839.37	213.39
839.68	213.16
840.00	213.17
840.31	213.22
840.63	213.22
840.94	213.30
841.26	213.24
841.57	213.18
841.88	213.16
842.20	213.03
842.51	212.99
842.83	213.01
843.14	213.32
843.46	213.41
843.77	213.20
844.08	213.14
844.40	213.08
844.71	213.03
845.03	212.95
845.34	212.87
845.65	212.86
845.97	212.89
846.28	212.94
846.60	212.99
846.91	212.90
847.22	212.90
847.54	212.94
847.85	212.93
848.16	212.95
848.48	212.84
848.79	212.92
849.10	212.99
849.42	213.00
849.73	212.63
850.04	212.56
850.36	212.42
850.67	212.55
850.98	212.54
851.30	212.59
851.61	212.63
851.92	212.60
852.23	212.67
852.55	212.67
852.86	212.65
853.17	212.59
853.49	212.69
853.80	212.77
854.11	212.74
854.42	212.77
854.74	212.65
855.05	212.70
855.36	212.55
855.67	212.52
855.99	212.47
856.30	212.97
856.61	212.94
856.92	213.04
857.23	212.98
857.55	212.89
857.86	212.83
858.17	212.90
858.48	212.84
858.79	212.79
859.11	212.74
859.42	212.73
859.73	212.65
860.04	212.55
860.35	212.35
860.66	212.25
860.98	212.29
861.29	212.39
861.60	212.35
861.91	212.35
862.22	212.28
862.53	212.21
862.84	211.70
863.16	211.88
863.47	211.73
863.78	211.66
864.09	211.75
864.40	211.74
864.71	211.69
865.02	211.78
865.33	211.73
865.64	211.70
865.95	211.65
866.27	211.92
866.58	211.96
866.89	211.96
867.20	211.97
867.51	211.88
867.82	211.89
868.13	211.95
868.44	211.98
868.75	212.06
869.06	212.05
869.37	212.10
869.68	211.90
869.99	211.95
870.30	212.01
870.61	212.07
870.92	212.08
871.23	212.07
871.54	212.03
871.85	212.04
872.16	212.12
872.47	212.14
872.78	211.94
873.09	211.95
873.40	211.99
873.71	211.94
874.02	212.02
874.33	211.97
874.64	212.00
874.95	212.07
875.26	211.98
875.56	212.07
875.87	212.05
876.18	212.01
876.49	212.40
876.80	212.34
877.11	212.19
877.42	212.15
877.73	212.14
878.04	212.11
878.35	212.20
878.66	212.19
878.96	212.17
879.27	212.24
879.58	212.34
879.89	212.32
880.20	212.51
880.51	212.41
880.82	212.44
881.12	212.41
881.43	212.32
881.74	212.29
882.05	212.22
882.36	212.20
882.67	212.20
882.97	211.84
883.28	211.79
883.59	211.79
883.90	211.82
884.21	211.85
884.51	211.90
884.82	211.80
885.13	211.80
885.44	211.79
885.74	211.77
886.05	211.64
886.36	211.66
886.67	211.52
886.98	211.77
887.28	211.79
887.59	211.81
887.90	211.82
888.20	211.89
888.51	211.93
888.82	211.96
889.13	212.03
889.43	212.30
889.74	212.33
890.05	212.34
890.35	212.27
890.66	212.26
890.97	212.13
891.28	212.15
891.58	212.13
891.89	212.14
892.20	212.06
892.50	212.04
892.81	211.92
893.12	211.93
893.42	211.73
893.73	211.67
894.04	211.67
894.34	211.72
894.65	211.64
894.95	211.66
895.26	211.62
895.57	211.82
895.87	211.49
896.18	211.56
896.48	211.58
896.79	211.61
897.10	211.64
897.40	211.69
897.71	211.71
898.01	211.68
898.32	211.66
898.63	211.67
898.93	211.68
899.24	211.70
899.54	211.63
899.85	211.63
900.15	211.66
900.46	211.59
900.76	211.54
901.07	211.63
901.38	211.66
901.68	211.66
901.99	211.45
902.29	211.40
902.60	211.31
902.90	211.31
903.21	211.37
903.51	211.30
903.82	211.35
904.12	211.38
904.43	211.46
904.73	211.50
905.03	211.47
905.34	211.81
905.64	211.82
905.95	211.90
906.25	211.83
906.56	211.81
906.86	211.82
907.17	211.77
907.47	211.77
907.77	211.67
908.08	211.65
908.38	211.70
908.69	211.83
908.99	211.92
909.30	211.91
909.60	211.85
909.90	211.94
910.21	211.81
910.51	211.67
910.81	211.56
911.12	211.56
911.42	211.58
911.73	211.16
912.03	211.26
912.33	211.32
912.64	211.42
912.94	211.35
913.24	211.31
913.55	211.32
913.85	211.23
914.15	211.36
914.46	211.49
914.76	211.38
915.06	211.25
915.37	211.21
915.67	211.19
915.97	211.18
916.27	211.01
916.58	211.10
916.88	211.17
917.18	211.16
917.49	211.35
917.79	211.35
918.09	211.43
918.39	211.48
918.70	211.49
919.00	211.45
919.30	211.66
919.60	211.70
919.91	211.70
920.21	211.79
920.51	211.69
920.81	211.59
921.12	211.75
921.42	211.80
921.72	211.81
922.02	211.86
922.32	211.92
922.63	211.99
922.93	212.12
923.23	212.13
923.53	212.15
923.83	211.97
924.13	212.02
924.44	212.07
924.74	212.22
925.04	212.26
925.34	212.24
925.64	212.09
925.94	212.03
926.24	212.21
926.55	212.20
926.85	212.26
927.15	212.22
927.45	212.18
927.75	212.15
928.05	212.13
928.35	212.13
928.65	212.24
928.95	212.24
929.26	212.16
929.56	212.25
929.86	212.32
930.16	212.31
930.46	212.25
930.76	212.24
931.06	211.98
931.36	211.92
931.66	212.04
931.96	212.08
932.26	212.13
932.56	212.02
932.86	212.00
933.16	211.95
933.46	212.01
933.76	212.00
934.06	212.07
934.36	212.21
934.66	212.16
934.96	212.14
935.26	212.11
935.56	212.08
935.86	211.99
936.16	211.90
936.46	211.85
936.76	211.90
937.06	211.91
937.36	211.92
937.66	211.87
937.96	211.74
938.26	211.67
938.56	211.63
938.86	211.61
939.16	211.67
939.46	211.71
939.76	211.70
940.06	211.73
940.35	211.68
940.65	211.44
940.95	211.53
941.25	211.36
941.55	211.39
941.85	211.39
942.15	211.46
942.45	211.56
942.75	211.51
943.04	211.53
943.34	211.53
943.64	211.51
943.94	211.52
944.24	211.57
944.54	211.61
944.84	211.57
945.13	211.52
945.43	211.39
945.73	211.35
946.03	211.31
946.33	211.30
946.62	211.21
946.92	211.24
947.22	211.22
947.52	211.24
947.82	211.28
948.11	211.21
948.41	211.12
948.71	211.00
949.01	211.05
949.31	210.93
949.60	210.93
949.90	210.93
950.20	210.85
950.50	210.81
950.79	210.77
951.09	210.84
951.39	210.85
951.69	210.86
951.98	210.92
952.28	210.90
952.58	210.84
952.87	210.90
953.17	210.99
953.47	210.91
953.76	210.94
954.06	210.90
954.36	210.85
954.66	210.90
954.95	211.02
955.25	211.07
955.55	211.20
955.84	211.04
956.14	211.12
956.44	211.17
956.73	211.18
957.03	211.20
957.32	211.30
957.62	211.27
957.92	211.39
958.21	211.43
958.51	211.82
958.81	211.83
959.10	211.88
959.40	211.94
959.69	212.02
959.99	212.08
960.29	212.05
960.58	212.14
960.88	212.21
961.17	212.15
961.47	212.24
961.76	212.17
962.06	212.27
962.36	212.22
962.65	212.20
962.95	212.20
963.24	212.20
963.54	212.15
963.83	212.16
964.13	212.13
964.42	211.97
964.72	211.72
965.01	211.73
965.31	211.66
965.60	211.56
965.90	211.75
966.19	211.66
966.49	211.75
966.78	211.70
967.08	211.70
967.37	211.73
967.67	211.65
967.96	211.70
968.26	211.70
968.55	211.74
968.85	211.75
969.14	211.71
969.43	211.69
969.73	211.67
970.02	211.73
970.32	211.70
970.61	211.71
970.91	211.60
971.20	211.53
971.49	211.58
971.79	211.62
972.08	211.44
972.38	211.48
972.67	211.46
972.96	211.48
973.26	211.38
973.55	211.49
973.85	211.40
974.14	211.36
974.43	211.43
974.73	211.37
975.02	211.37
975.31	211.39
975.61	211.42
975.90	211.35
976.19	211.29
976.49	211.32
976.78	211.36
977.07	211.31
977.37	211.35
977.66	211.33
977.95	211.33
978.24	211.30
978.54	211.38
978.83	211.31
979.12	211.30
979.42	211.34
979.71	211.25
980.00	211.29
980.29	211.31
980.59	211.19
980.88	211.34
981.17	211.32
981.46	211.28
981.76	211.24
982.05	211.35
982.34	211.41
982.63	211.47
982.93	211.46
983.22	211.59
983.51	211.70
983.80	211.69
984.09	211.69
984.39	211.68
984.68	211.62
984.97	211.62
985.26	211.63
985.55	211.63
985.85	211.56
986.14	211.53
986.43	211.60
986.72	211.61
987.01	211.43
987.30	211.42
987.59	211.42
987.89	211.43
988.18	211.27
988.47	211.23
988.76	211.14
989.05	211.05
989.34	211.01
989.63	211.04
989.92	211.02
990.22	210.92
990.51	210.82
990.80	210.79
991.09	210.83
991.38	210.87
991.67	210.84
991.96	210.77
992.25	210.84
992.54	210.68
992.83	210.63
993.12	210.67
993.41	210.70
993.70	210.77
993.99	210.83
994.28	210.94
994.58	211.02
994.87	210.95
995.16	210.97
995.45	210.94
995.74	210.80
996.03	210.88
996.32	210.95
996.61	211.09
996.90	211.00
997.19	210.94
997.48	210.98
997.77	210.90
998.06	210.94
998.34	210.95
998.63	210.96
998.92	211.10
999.21	211.09
999.50	211.12
999.79	211.11
1000.08	211.15
1000.37	211.13
1000.66	211.03
1000.95	211.10
1001.24	211.15
1001.53	211.17
1001.82	211.18
1002.11	211.06
1002.40	211.12
1002.68	211.18
1002.97	211.51
1003.26	211.51
1003.55	211.39
1003.84	211.41
1004.13	211.58
1004.42	211.57
1004.71	211.60
1004.99	211.55
1005.28	211.76
1005.57	211.75
1005.86	211.66
1006.15	211.55
1006.44	211.51
1006.72	211.58
1007.01	211.53
1007.30	211.55
1007.59	211.54
1007.88	211.51
1008.17	211.54
1008.45	211.42
1008.74	211.32
1009.03	211.17
1009.32	211.23
1009.60	211.19
1009.89	211.25
1010.18	211.09
1010.47	211.01
1010.76	211.07
1011.04	211.02
1011.33	211.03
1011.62	211.03
1011.91	211.11
1012.19	211.18
1012.48	211.19
1012.77	211.19
1013.05	211.38
1013.34	211.33
1013.63	211.35
1013.92	211.30
1014.20	211.31
1014.49	211.34
1014.78	211.31
1015.06	211.18
1015.35	211.12
1015.64	211.23
1015.92	211.29
1016.21	211.29
1016.50	211.36
1016.78	211.38
1017.07	211.49
1017.36	211.30
1017.64	211.34
1017.93	211.33
1018.22	211.30
1018.50	211.30
1018.79	211.29
1019.08	211.09
1019.36	211.08
1019.65	211.09
1019.93	211.24
1020.22	211.33
1020.51	211.56
1020.79	211.54
1021.08	211.10
1021.36	210.35
1021.65	211.70
1021.94	210.35
1022.22	210.25
1022.51	211.50
1022.79	212.65
1023.08	212.45
1023.36	215.25
1023.65	210.35
>>>>>End Processed Spectral Data<<<<<
