SpectraSuite Data File
++++++++++++++++++++++++++++++++++++
Date: Mon Feb 25 17:10:21 EST 2013
User: group
Dark Spectrum Present: No
Reference Spectrum Present: No
Number of Sampled Component Spectra: 1
Spectrometers: USB2E7196
Integration Time (usec): 104000 (USB2E7196)
Spectra Averaged: 20 (USB2E7196)
Boxcar Smoothing: 10 (USB2E7196)
Correct for Electrical Dark: No (USB2E7196)
Strobe/Lamp Enabled: No (USB2E7196)
Correct for Detector Non-linearity: No (USB2E7196)
Correct for Stray Light: No (USB2E7196)
Number of Pixels in Processed Spectrum: 2048
>>>>>Begin Processed Spectral Data<<<<<
339.09	0.00
339.48	198.60
339.86	199.80
340.24	201.55
340.63	203.10
341.01	209.35
341.39	206.00
341.78	208.25
342.16	208.40
342.54	208.55
342.93	198.49
343.31	208.47
343.69	209.03
344.07	209.54
344.46	209.99
344.84	210.38
345.22	210.45
345.60	210.68
345.99	210.82
346.37	211.00
346.75	211.06
347.13	211.07
347.52	211.11
347.90	211.23
348.28	211.25
348.66	211.29
349.05	211.13
349.43	211.10
349.81	211.05
350.19	211.04
350.57	211.07
350.96	211.09
351.34	211.21
351.72	211.29
352.10	211.32
352.48	211.35
352.87	211.41
353.25	211.51
353.63	211.59
354.01	211.65
354.39	211.67
354.77	211.75
355.15	211.89
355.54	211.90
355.92	211.82
356.30	211.83
356.68	212.11
357.06	212.25
357.44	212.36
357.82	212.40
358.20	212.52
358.58	212.54
358.97	212.60
359.35	212.71
359.73	212.80
360.11	212.87
360.49	212.92
360.87	212.87
361.25	212.90
361.63	213.04
362.01	213.02
362.39	213.03
362.77	213.11
363.15	213.04
363.53	213.10
363.91	213.18
364.29	213.20
364.67	212.90
365.05	212.84
365.43	212.83
365.81	212.91
366.19	213.06
366.57	213.26
366.95	213.24
367.33	213.08
367.71	213.03
368.09	213.03
368.47	213.03
368.85	212.97
369.23	213.05
369.61	212.86
369.99	212.94
370.37	213.00
370.75	213.14
371.13	213.16
371.51	213.06
371.89	213.05
372.27	213.11
372.65	213.11
373.03	213.10
373.41	213.08
373.78	213.03
374.16	212.81
374.54	212.59
374.92	212.60
375.30	212.64
375.68	212.60
376.06	212.60
376.44	212.51
376.82	212.55
377.19	212.45
377.57	212.45
377.95	212.31
378.33	212.16
378.71	211.89
379.09	211.77
379.47	211.75
379.84	211.60
380.22	211.45
380.60	211.31
380.98	211.25
381.36	211.15
381.73	211.09
382.11	211.09
382.49	211.11
382.87	211.04
383.25	210.96
383.62	211.34
384.00	211.19
384.38	211.15
384.76	211.16
385.13	211.29
385.51	211.22
385.89	211.15
386.27	211.15
386.64	211.20
387.02	211.20
387.40	211.12
387.78	211.15
388.15	211.24
388.53	211.23
388.91	211.26
389.29	211.21
389.66	211.25
390.04	211.18
390.42	211.13
390.79	211.08
391.17	211.10
391.55	210.59
391.92	210.61
392.30	210.66
392.68	210.53
393.05	210.41
393.43	210.47
393.81	210.48
394.18	210.42
394.56	210.41
394.94	210.47
395.31	210.45
395.69	210.56
396.06	210.47
396.44	210.57
396.82	210.51
397.19	210.68
397.57	210.64
397.95	210.74
398.32	210.66
398.70	210.71
399.07	210.75
399.45	210.77
399.82	210.78
400.20	210.78
400.58	210.85
400.95	210.78
401.33	210.85
401.70	211.14
402.08	211.19
402.45	211.17
402.83	211.22
403.20	211.31
403.58	211.35
403.95	211.44
404.33	211.42
404.71	211.56
405.08	211.75
405.46	211.83
405.83	211.90
406.21	212.02
406.58	212.08
406.96	212.15
407.33	212.30
407.70	212.38
408.08	212.77
408.45	212.91
408.83	213.08
409.20	213.15
409.58	213.07
409.95	213.26
410.33	213.48
410.70	213.62
411.08	213.89
411.45	214.05
411.82	214.24
412.20	214.62
412.57	215.07
412.95	215.13
413.32	215.46
413.69	215.78
414.07	216.18
414.44	216.55
414.82	217.02
415.19	217.55
415.56	218.12
415.94	218.44
416.31	219.09
416.68	219.68
417.06	220.42
417.43	221.24
417.81	222.01
418.18	222.83
418.55	223.64
418.93	224.54
419.30	225.51
419.67	226.52
420.04	227.52
420.42	228.59
420.79	230.10
421.16	231.36
421.54	232.85
421.91	234.20
422.28	235.61
422.66	237.07
423.03	238.71
423.40	240.20
423.77	241.80
424.15	243.37
424.52	245.08
424.89	246.90
425.26	248.56
425.64	250.30
426.01	252.07
426.38	253.99
426.75	256.02
427.13	257.95
427.50	260.11
427.87	262.23
428.24	264.26
428.61	266.15
428.99	268.52
429.36	270.86
429.73	273.35
430.10	275.90
430.47	278.42
430.85	280.83
431.22	283.61
431.59	286.71
431.96	289.55
432.33	292.61
432.70	295.56
433.08	299.05
433.45	302.30
433.82	305.67
434.19	309.42
434.56	313.06
434.93	316.63
435.30	320.02
435.68	323.84
436.05	327.64
436.42	331.37
436.79	334.84
437.16	338.53
437.53	342.28
437.90	346.08
438.27	349.88
438.64	353.76
439.01	357.52
439.38	360.54
439.75	363.66
440.13	367.18
440.50	370.54
440.87	373.34
441.24	376.25
441.61	379.43
441.98	381.77
442.35	384.27
442.72	387.11
443.09	389.92
443.46	391.52
443.83	392.61
444.20	393.60
444.57	394.81
444.94	395.41
445.31	396.23
445.68	397.22
446.05	397.54
446.42	397.20
446.79	396.75
447.16	396.35
447.53	396.03
447.90	394.70
448.27	393.30
448.64	391.39
449.01	389.95
449.37	387.48
449.74	385.06
450.11	382.60
450.48	379.23
450.85	375.86
451.22	373.17
451.59	370.61
451.96	368.01
452.33	364.68
452.70	361.56
453.07	357.86
453.43	353.84
453.80	350.23
454.17	346.83
454.54	343.50
454.91	339.95
455.28	336.51
455.65	333.23
456.02	330.62
456.38	327.87
456.75	324.53
457.12	321.66
457.49	318.88
457.86	315.80
458.23	313.64
458.59	311.15
458.96	308.60
459.33	306.23
459.70	303.97
460.07	302.27
460.43	300.28
460.80	298.27
461.17	296.62
461.54	294.79
461.91	293.10
462.27	291.34
462.64	289.87
463.01	288.33
463.38	286.86
463.74	284.70
464.11	283.24
464.48	282.00
464.85	280.63
465.21	279.70
465.58	278.66
465.95	277.28
466.32	276.16
466.68	275.00
467.05	273.97
467.42	272.92
467.78	271.74
468.15	270.64
468.52	269.98
468.88	268.84
469.25	268.02
469.62	267.31
469.98	266.48
470.35	265.82
470.72	265.06
471.08	264.23
471.45	263.68
471.82	263.15
472.18	262.52
472.55	262.10
472.92	261.35
473.28	260.80
473.65	260.28
474.02	259.84
474.38	259.47
474.75	259.11
475.11	258.72
475.48	258.38
475.85	258.19
476.21	257.77
476.58	257.60
476.94	257.29
477.31	257.12
477.67	257.04
478.04	256.79
478.41	256.77
478.77	257.11
479.14	256.94
479.50	256.86
479.87	256.87
480.23	256.86
480.60	256.83
480.96	256.90
481.33	257.06
481.69	257.15
482.06	257.17
482.42	257.30
482.79	257.48
483.15	257.69
483.52	257.98
483.88	258.27
484.25	258.48
484.61	258.88
484.98	259.19
485.34	259.62
485.71	260.16
486.07	260.61
486.44	260.75
486.80	261.35
487.17	261.89
487.53	262.64
487.90	263.38
488.26	264.32
488.62	265.16
488.99	265.92
489.35	266.78
489.72	267.71
490.08	268.67
490.44	269.58
490.81	270.67
491.17	271.66
491.54	272.84
491.90	274.18
492.26	275.46
492.63	276.72
492.99	278.05
493.36	279.46
493.72	281.02
494.08	282.54
494.45	284.30
494.81	286.08
495.17	287.77
495.54	289.55
495.90	291.30
496.26	293.24
496.63	295.29
496.99	297.32
497.35	299.54
497.72	301.82
498.08	304.17
498.44	306.56
498.80	309.22
499.17	311.73
499.53	314.22
499.89	316.93
500.26	319.75
500.62	322.62
500.98	325.67
501.34	328.68
501.71	332.00
502.07	335.12
502.43	338.41
502.79	341.77
503.16	345.24
503.52	348.74
503.88	352.30
504.24	356.04
504.60	359.94
504.97	364.05
505.33	367.94
505.69	372.24
506.05	376.48
506.41	380.66
506.78	385.00
507.14	389.52
507.50	394.06
507.86	398.72
508.22	403.53
508.59	408.20
508.95	413.16
509.31	418.16
509.67	423.28
510.03	428.49
510.39	433.80
510.75	439.21
511.12	444.80
511.48	450.41
511.84	456.03
512.20	461.66
512.56	467.37
512.92	473.38
513.28	479.28
513.64	485.25
514.00	491.13
514.37	497.37
514.73	503.70
515.09	510.03
515.45	516.16
515.81	522.40
516.17	528.97
516.53	535.28
516.89	541.56
517.25	548.15
517.61	554.75
517.97	561.31
518.33	567.94
518.69	574.75
519.05	581.46
519.41	588.31
519.77	595.43
520.13	602.04
520.49	608.68
520.85	615.54
521.21	622.50
521.57	629.67
521.93	636.36
522.29	643.50
522.65	650.47
523.01	657.75
523.37	664.65
523.73	671.56
524.09	678.63
524.45	685.99
524.81	693.00
525.17	700.34
525.53	707.44
525.89	714.56
526.25	721.46
526.61	728.41
526.97	735.41
527.33	742.33
527.68	750.00
528.04	756.98
528.40	763.78
528.76	770.76
529.12	777.85
529.48	785.25
529.84	792.14
530.20	799.23
530.56	806.38
530.91	813.87
531.27	821.13
531.63	828.17
531.99	835.07
532.35	842.00
532.71	848.41
533.07	855.53
533.42	862.50
533.78	869.45
534.14	876.20
534.50	882.48
534.86	889.09
535.21	894.91
535.57	901.59
535.93	908.09
536.29	914.49
536.65	920.72
537.00	926.74
537.36	932.35
537.72	938.13
538.08	943.83
538.44	949.26
538.79	954.80
539.15	960.37
539.51	965.88
539.87	971.77
540.22	977.43
540.58	982.87
540.94	988.10
541.29	993.18
541.65	998.00
542.01	1003.29
542.37	1008.09
542.72	1013.22
543.08	1018.04
543.44	1022.94
543.79	1027.18
544.15	1031.49
544.51	1035.97
544.87	1040.94
545.22	1045.11
545.58	1049.09
545.94	1052.98
546.29	1056.64
546.65	1060.04
547.01	1063.50
547.36	1066.59
547.72	1069.88
548.07	1072.77
548.43	1075.45
548.79	1077.97
549.14	1080.76
549.50	1083.54
549.86	1085.90
550.21	1088.17
550.57	1090.55
550.92	1092.28
551.28	1094.40
551.64	1096.53
551.99	1098.57
552.35	1099.95
552.70	1101.76
553.06	1103.53
553.41	1105.14
553.77	1106.95
554.13	1108.82
554.48	1110.38
554.84	1112.08
555.19	1113.30
555.55	1114.55
555.90	1115.59
556.26	1116.81
556.61	1117.85
556.97	1118.18
557.32	1119.05
557.68	1119.60
558.03	1119.96
558.39	1120.66
558.74	1121.54
559.10	1122.18
559.45	1122.64
559.81	1123.40
560.16	1123.70
560.52	1124.02
560.87	1124.39
561.23	1124.08
561.58	1124.39
561.94	1124.15
562.29	1123.66
562.64	1123.72
563.00	1123.55
563.35	1123.69
563.71	1123.93
564.06	1123.97
564.42	1123.97
564.77	1123.99
565.12	1124.23
565.48	1124.64
565.83	1124.50
566.19	1124.52
566.54	1123.89
566.89	1123.22
567.25	1122.60
567.60	1122.45
567.96	1121.95
568.31	1121.24
568.66	1120.80
569.02	1119.65
569.37	1118.63
569.72	1117.68
570.08	1116.35
570.43	1115.14
570.78	1113.81
571.14	1112.17
571.49	1110.56
571.84	1109.41
572.20	1107.93
572.55	1106.23
572.90	1103.82
573.26	1101.95
573.61	1099.55
573.96	1097.63
574.31	1095.37
574.67	1093.02
575.02	1090.33
575.37	1087.81
575.72	1085.30
576.08	1082.99
576.43	1080.47
576.78	1078.16
577.13	1075.95
577.49	1073.79
577.84	1071.54
578.19	1069.53
578.54	1067.39
578.90	1065.53
579.25	1063.14
579.60	1060.36
579.95	1057.56
580.30	1055.45
580.66	1053.38
581.01	1050.97
581.36	1048.11
581.71	1045.84
582.06	1043.69
582.42	1041.50
582.77	1038.97
583.12	1036.55
583.47	1034.31
583.82	1032.27
584.17	1030.11
584.53	1028.00
584.88	1025.53
585.23	1023.02
585.58	1020.41
585.93	1017.75
586.28	1015.25
586.63	1012.69
586.98	1010.34
587.34	1008.37
587.69	1005.85
588.04	1003.21
588.39	1000.91
588.74	998.63
589.09	996.26
589.44	993.43
589.79	990.93
590.14	988.55
590.49	986.24
590.84	983.58
591.19	981.14
591.54	978.40
591.89	975.25
592.25	972.72
592.60	970.04
592.95	967.15
593.30	964.22
593.65	961.28
594.00	958.54
594.35	957.02
594.70	954.22
595.05	951.49
595.40	948.87
595.75	945.79
596.10	943.24
596.45	940.72
596.80	938.54
597.15	935.99
597.50	933.34
597.85	930.88
598.19	928.18
598.54	925.54
598.89	923.28
599.24	921.27
599.59	918.80
599.94	916.67
600.29	914.44
600.64	912.17
600.99	909.44
601.34	907.17
601.69	903.59
602.04	900.91
602.39	898.70
602.74	896.43
603.08	894.60
603.43	892.60
603.78	889.95
604.13	887.35
604.48	885.06
604.83	883.06
605.18	881.05
605.53	878.67
605.87	876.04
606.22	873.61
606.57	870.90
606.92	868.37
607.27	865.59
607.62	862.97
607.96	860.64
608.31	858.40
608.66	855.80
609.01	853.08
609.36	850.40
609.70	847.27
610.05	844.10
610.40	841.08
610.75	837.95
611.10	835.44
611.44	832.10
611.79	828.76
612.14	825.49
612.49	821.85
612.83	818.75
613.18	815.44
613.53	812.22
613.88	808.86
614.22	805.88
614.57	802.66
614.92	799.49
615.27	796.25
615.61	792.95
615.96	789.80
616.31	786.90
616.65	784.15
617.00	781.29
617.35	778.33
617.70	775.18
618.04	771.91
618.39	768.18
618.74	765.30
619.08	762.19
619.43	758.96
619.78	755.89
620.12	752.71
620.47	749.79
620.82	746.33
621.16	743.14
621.51	739.85
621.85	736.71
622.20	733.40
622.55	730.07
622.89	727.00
623.24	723.80
623.59	720.48
623.93	717.24
624.28	714.07
624.62	711.15
624.97	708.16
625.32	705.13
625.66	702.44
626.01	699.38
626.35	696.43
626.70	693.40
627.04	690.77
627.39	687.87
627.73	685.19
628.08	682.54
628.43	679.47
628.77	676.35
629.12	673.38
629.46	670.77
629.81	668.06
630.15	665.00
630.50	661.94
630.84	658.87
631.19	655.91
631.53	653.10
631.88	649.80
632.22	646.55
632.57	643.91
632.91	640.84
633.26	637.98
633.60	634.93
633.95	632.17
634.29	628.98
634.64	626.20
634.98	623.09
635.32	620.31
635.67	617.86
636.01	615.12
636.36	612.21
636.70	609.49
637.05	606.62
637.39	604.17
637.73	601.84
638.08	599.72
638.42	597.25
638.77	594.62
639.11	592.04
639.45	589.47
639.80	586.55
640.14	583.96
640.49	581.27
640.83	578.82
641.17	576.16
641.52	573.44
641.86	570.55
642.20	567.88
642.55	564.90
642.89	562.10
643.23	559.27
643.58	556.99
643.92	554.05
644.26	551.43
644.61	548.61
644.95	545.72
645.29	542.65
645.64	539.80
645.98	537.19
646.32	534.79
646.66	532.05
647.01	529.46
647.35	526.98
647.69	524.20
648.04	521.59
648.38	518.97
648.72	516.41
649.06	513.99
649.41	511.41
649.75	509.18
650.09	506.65
650.43	504.32
650.78	501.50
651.12	499.11
651.46	496.48
651.80	494.05
652.14	491.62
652.49	489.31
652.83	486.92
653.17	484.07
653.51	481.50
653.85	479.25
654.20	476.81
654.54	474.27
654.88	471.98
655.22	469.60
655.56	467.13
655.90	464.80
656.25	462.45
656.59	460.04
656.93	457.53
657.27	455.30
657.61	452.83
657.95	450.66
658.29	448.23
658.64	446.16
658.98	444.00
659.32	441.67
659.66	439.31
660.00	436.91
660.34	434.86
660.68	432.58
661.02	430.27
661.36	428.16
661.70	426.05
662.05	423.95
662.39	421.95
662.73	420.07
663.07	418.30
663.41	416.21
663.75	414.24
664.09	412.30
664.43	410.24
664.77	408.34
665.11	406.37
665.45	404.57
665.79	402.66
666.13	400.64
666.47	398.73
666.81	396.91
667.15	395.14
667.49	393.43
667.83	391.76
668.17	390.11
668.51	388.44
668.85	386.82
669.19	385.38
669.53	383.59
669.87	381.80
670.21	379.87
670.55	378.36
670.89	377.04
671.23	375.53
671.57	373.93
671.91	372.34
672.25	370.77
672.58	369.22
672.92	367.62
673.26	366.14
673.60	364.75
673.94	363.30
674.28	361.81
674.62	360.45
674.96	358.92
675.30	357.54
675.64	356.15
675.97	354.71
676.31	353.20
676.65	351.81
676.99	350.74
677.33	349.41
677.67	348.05
678.01	346.48
678.34	345.07
678.68	343.88
679.02	342.59
679.36	341.30
679.70	339.94
680.04	338.75
680.37	337.58
680.71	336.35
681.05	335.20
681.39	334.04
681.73	332.75
682.06	331.60
682.40	330.41
682.74	329.18
683.08	328.08
683.42	326.82
683.75	325.76
684.09	324.38
684.43	323.17
684.77	321.86
685.10	320.86
685.44	319.69
685.78	318.45
686.12	317.36
686.45	316.23
686.79	315.15
687.13	314.16
687.46	312.98
687.80	312.00
688.14	310.86
688.48	309.81
688.81	308.75
689.15	307.74
689.49	306.62
689.82	305.62
690.16	304.41
690.50	303.37
690.83	302.28
691.17	301.28
691.51	300.33
691.84	299.49
692.18	298.43
692.52	297.53
692.85	296.67
693.19	295.91
693.52	295.05
693.86	294.13
694.20	293.13
694.53	292.26
694.87	291.29
695.21	290.33
695.54	289.42
695.88	288.53
696.21	287.64
696.55	286.84
696.88	285.95
697.22	285.06
697.56	284.39
697.89	283.53
698.23	282.64
698.56	281.86
698.90	281.10
699.23	280.28
699.57	279.43
699.90	278.59
700.24	277.60
700.58	276.92
700.91	276.23
701.25	275.78
701.58	275.17
701.92	274.46
702.25	273.78
702.59	273.05
702.92	272.38
703.26	271.67
703.59	270.97
703.93	270.67
704.26	270.13
704.60	269.43
704.93	268.81
705.26	268.27
705.60	267.70
705.93	267.01
706.27	266.42
706.60	265.99
706.94	265.50
707.27	264.92
707.61	264.25
707.94	263.59
708.27	262.74
708.61	261.98
708.94	261.45
709.28	260.93
709.61	260.38
709.94	259.88
710.28	259.45
710.61	258.95
710.95	258.05
711.28	257.74
711.61	257.23
711.95	256.80
712.28	256.21
712.61	255.63
712.95	255.36
713.28	255.09
713.61	254.58
713.95	254.08
714.28	253.68
714.61	253.24
714.95	252.80
715.28	252.29
715.61	251.81
715.95	251.36
716.28	250.84
716.61	250.43
716.95	249.97
717.28	249.44
717.61	249.07
717.94	248.61
718.28	248.01
718.61	247.61
718.94	247.07
719.27	246.75
719.61	246.44
719.94	245.86
720.27	245.25
720.60	244.77
720.94	244.38
721.27	244.00
721.60	243.58
721.93	243.26
722.27	243.10
722.60	242.90
722.93	242.57
723.26	242.30
723.59	241.98
723.93	241.59
724.26	241.34
724.59	240.93
724.92	240.75
725.25	240.42
725.59	240.14
725.92	239.97
726.25	239.70
726.58	239.35
726.91	239.13
727.24	238.95
727.57	238.70
727.91	238.40
728.24	238.16
728.57	237.94
728.90	237.72
729.23	237.31
729.56	237.20
729.89	236.82
730.22	236.57
730.55	236.26
730.89	236.04
731.22	235.75
731.55	235.56
731.88	235.30
732.21	235.08
732.54	234.77
732.87	234.59
733.20	234.34
733.53	234.13
733.86	233.90
734.19	233.56
734.52	233.40
734.85	233.47
735.18	233.28
735.51	233.15
735.84	233.04
736.17	232.89
736.50	232.40
736.83	232.66
737.16	232.44
737.49	232.32
737.82	232.14
738.15	231.97
738.48	231.75
738.81	231.51
739.14	231.23
739.47	231.04
739.80	230.79
740.13	230.63
740.46	230.39
740.79	230.14
741.12	229.97
741.45	229.73
741.78	229.28
742.11	229.10
742.44	228.88
742.77	228.62
743.10	228.42
743.43	228.30
743.75	227.75
744.08	228.04
744.41	227.75
744.74	227.57
745.07	227.33
745.40	227.17
745.73	227.20
746.06	227.06
746.39	226.88
746.71	226.74
747.04	226.50
747.37	226.40
747.70	226.33
748.03	226.20
748.36	226.13
748.68	226.01
749.01	225.79
749.34	225.50
749.67	225.33
750.00	225.33
750.33	225.39
750.65	225.28
750.98	224.69
751.31	224.69
751.64	224.46
751.97	224.59
752.29	224.43
752.62	224.05
752.95	223.91
753.28	223.76
753.60	223.54
753.93	223.55
754.26	223.35
754.59	223.09
754.91	222.96
755.24	222.81
755.57	222.62
755.90	222.49
756.22	222.44
756.55	222.32
756.88	222.05
757.20	221.72
757.53	221.49
757.86	221.42
758.19	221.25
758.51	221.24
758.84	220.83
759.17	220.70
759.49	220.63
759.82	220.70
760.15	220.65
760.47	220.55
760.80	220.27
761.13	220.25
761.45	220.13
761.78	220.05
762.11	219.95
762.43	219.80
762.76	219.77
763.08	219.72
763.41	219.70
763.74	219.64
764.06	219.58
764.39	219.54
764.71	219.34
765.04	219.25
765.37	219.12
765.69	219.11
766.02	219.06
766.34	218.91
766.67	218.65
767.00	218.63
767.32	218.75
767.65	218.90
767.97	218.84
768.30	218.80
768.62	218.71
768.95	218.61
769.27	218.60
769.60	218.53
769.92	218.43
770.25	218.23
770.57	218.05
770.90	217.93
771.22	217.85
771.55	217.85
771.87	217.76
772.20	217.70
772.52	217.90
772.85	218.29
773.17	218.23
773.50	218.20
773.82	218.10
774.15	217.84
774.47	217.59
774.80	217.46
775.12	217.46
775.45	217.35
775.77	217.25
776.09	217.22
776.42	217.16
776.74	217.20
777.07	217.13
777.39	217.17
777.72	217.11
778.04	217.15
778.36	217.04
778.69	217.01
779.01	216.97
779.33	216.60
779.66	216.10
779.98	216.13
780.31	216.08
780.63	216.18
780.95	216.14
781.28	216.07
781.60	216.03
781.92	215.94
782.25	215.89
782.57	215.87
782.89	215.78
783.22	215.71
783.54	215.56
783.86	215.54
784.19	215.42
784.51	215.46
784.83	215.30
785.16	215.21
785.48	215.11
785.80	215.07
786.12	215.14
786.45	215.10
786.77	215.10
787.09	215.06
787.42	214.82
787.74	214.89
788.06	214.83
788.38	214.78
788.71	214.74
789.03	214.76
789.35	214.81
789.67	214.79
789.99	214.73
790.32	214.65
790.64	214.67
790.96	214.98
791.28	214.88
791.61	214.88
791.93	214.93
792.25	214.94
792.57	215.13
792.89	214.98
793.21	214.91
793.54	214.81
793.86	214.77
794.18	214.82
794.50	214.74
794.82	214.78
795.14	214.78
795.47	214.77
795.79	214.74
796.11	214.55
796.43	214.49
796.75	214.50
797.07	214.52
797.39	214.50
797.71	214.22
798.04	214.15
798.36	214.09
798.68	214.08
799.00	214.10
799.32	213.92
799.64	214.00
799.96	214.01
800.28	214.06
800.60	213.94
800.92	213.93
801.24	213.86
801.56	213.80
801.89	213.69
802.21	213.70
802.53	213.63
802.85	213.71
803.17	213.89
803.49	213.75
803.81	213.66
804.13	213.65
804.45	213.50
804.77	213.55
805.09	213.63
805.41	213.53
805.73	213.47
806.05	213.36
806.37	213.32
806.69	213.21
807.01	213.15
807.33	213.24
807.65	213.06
807.97	213.22
808.28	213.19
808.60	213.22
808.92	213.16
809.24	213.30
809.56	213.20
809.88	212.99
810.20	213.04
810.52	213.10
810.84	212.93
811.16	212.95
811.48	212.86
811.80	212.89
812.12	212.86
812.43	212.85
812.75	212.80
813.07	212.77
813.39	212.80
813.71	212.71
814.03	212.64
814.35	212.69
814.67	212.53
814.98	212.48
815.30	212.46
815.62	212.41
815.94	212.20
816.26	212.23
816.58	212.20
816.89	212.23
817.21	212.17
817.53	212.25
817.85	212.24
818.17	212.34
818.48	212.19
818.80	212.33
819.12	212.26
819.44	212.21
819.76	212.08
820.07	212.08
820.39	212.11
820.71	212.14
821.03	212.16
821.34	212.06
821.66	212.10
821.98	212.01
822.30	212.04
822.61	212.24
822.93	212.24
823.25	212.26
823.57	212.17
823.88	212.26
824.20	212.25
824.52	212.30
824.83	212.17
825.15	212.19
825.47	212.08
825.79	212.20
826.10	212.21
826.42	212.24
826.74	212.29
827.05	212.26
827.37	212.25
827.69	212.15
828.00	212.22
828.32	212.25
828.64	212.24
828.95	212.36
829.27	212.25
829.58	212.19
829.90	212.17
830.22	212.18
830.53	212.14
830.85	212.07
831.17	212.00
831.48	212.04
831.80	211.96
832.11	211.96
832.43	211.79
832.75	211.82
833.06	212.05
833.38	211.91
833.69	211.87
834.01	211.88
834.32	211.89
834.64	211.87
834.96	211.87
835.27	211.91
835.59	211.78
835.90	211.67
836.22	211.70
836.53	211.67
836.85	211.60
837.16	211.84
837.48	211.91
837.79	212.03
838.11	212.03
838.42	212.05
838.74	212.12
839.05	212.08
839.37	212.08
839.68	211.86
840.00	211.86
840.31	211.88
840.63	211.84
840.94	211.89
841.26	211.87
841.57	211.85
841.88	211.91
842.20	211.86
842.51	211.95
842.83	211.91
843.14	212.17
843.46	212.25
843.77	212.09
844.08	211.96
844.40	211.77
844.71	211.72
845.03	211.67
845.34	211.59
845.65	211.66
845.97	211.65
846.28	211.65
846.60	211.62
846.91	211.67
847.22	211.72
847.54	211.64
847.85	211.66
848.16	211.64
848.48	211.62
848.79	211.80
849.10	211.80
849.42	211.85
849.73	211.56
850.04	211.48
850.36	211.35
850.67	211.47
850.98	211.59
851.30	211.64
851.61	211.59
851.92	211.63
852.23	211.73
852.55	211.71
852.86	211.72
853.17	211.86
853.49	211.82
853.80	211.81
854.11	211.93
854.42	211.99
854.74	211.94
855.05	211.90
855.36	211.75
855.67	211.66
855.99	211.65
856.30	212.02
856.61	212.08
856.92	212.05
857.23	212.02
857.55	211.93
857.86	211.91
858.17	212.05
858.48	211.97
858.79	211.94
859.11	212.01
859.42	211.99
859.73	211.90
860.04	211.95
860.35	211.84
860.66	211.78
860.98	211.73
861.29	211.83
861.60	211.93
861.91	211.99
862.22	212.00
862.53	211.93
862.84	211.56
863.16	211.62
863.47	211.62
863.78	211.62
864.09	211.68
864.40	211.67
864.71	211.68
865.02	211.74
865.33	211.65
865.64	211.54
865.95	211.58
866.27	211.80
866.58	211.80
866.89	211.84
867.20	211.79
867.51	211.75
867.82	211.65
868.13	211.61
868.44	211.54
868.75	211.64
869.06	211.65
869.37	211.71
869.68	211.60
869.99	211.64
870.30	211.70
870.61	211.69
870.92	211.73
871.23	211.64
871.54	211.70
871.85	211.71
872.16	211.76
872.47	211.61
872.78	211.44
873.09	211.42
873.40	211.41
873.71	211.45
874.02	211.45
874.33	211.42
874.64	211.35
874.95	211.37
875.26	211.27
875.56	211.33
875.87	211.28
876.18	211.24
876.49	211.56
876.80	211.42
877.11	211.32
877.42	211.28
877.73	211.31
878.04	211.24
878.35	211.31
878.66	211.32
878.96	211.39
879.27	211.38
879.58	211.34
879.89	211.40
880.20	211.47
880.51	211.42
880.82	211.44
881.12	211.38
881.43	211.26
881.74	211.19
882.05	211.14
882.36	211.23
882.67	211.30
882.97	210.90
883.28	210.86
883.59	210.92
883.90	210.97
884.21	211.03
884.51	210.98
884.82	210.95
885.13	210.90
885.44	210.83
885.74	210.85
886.05	210.86
886.36	210.84
886.67	210.72
886.98	210.83
887.28	210.86
887.59	210.90
887.90	210.99
888.20	210.90
888.51	210.91
888.82	210.78
889.13	210.74
889.43	211.06
889.74	211.13
890.05	211.14
890.35	211.10
890.66	211.01
890.97	210.93
891.28	210.86
891.58	210.88
891.89	210.91
892.20	210.75
892.50	210.72
892.81	210.70
893.12	210.68
893.42	210.61
893.73	210.65
894.04	210.67
894.34	210.69
894.65	210.82
894.95	210.81
895.26	210.84
895.57	211.02
895.87	210.70
896.18	210.72
896.48	210.69
896.79	210.65
897.10	210.73
897.40	210.81
897.71	210.86
898.01	210.84
898.32	210.90
898.63	210.94
898.93	210.95
899.24	210.98
899.54	210.95
899.85	210.91
900.15	210.87
900.46	210.95
900.76	211.00
901.07	210.99
901.38	211.02
901.68	211.07
901.99	210.93
902.29	210.93
902.60	210.92
902.90	210.87
903.21	210.89
903.51	210.84
903.82	210.87
904.12	210.87
904.43	210.89
904.73	210.85
905.03	210.93
905.34	211.23
905.64	211.19
905.95	211.21
906.25	211.23
906.56	211.19
906.86	211.07
907.17	211.03
907.47	211.02
907.77	210.93
908.08	210.85
908.38	210.86
908.69	210.95
908.99	211.05
909.30	211.19
909.60	211.18
909.90	211.22
910.21	211.14
910.51	211.14
910.81	211.14
911.12	211.17
911.42	211.18
911.73	210.87
912.03	210.88
912.33	211.01
912.64	210.95
912.94	210.96
913.24	210.90
913.55	210.85
913.85	210.87
914.15	210.94
914.46	211.00
914.76	210.93
915.06	210.85
915.37	210.76
915.67	210.64
915.97	210.67
916.27	210.61
916.58	210.66
916.88	210.59
917.18	210.60
917.49	210.88
917.79	210.86
918.09	210.85
918.39	210.95
918.70	210.87
919.00	210.94
919.30	211.09
919.60	211.14
919.91	211.07
920.21	211.11
920.51	211.04
920.81	210.97
921.12	211.10
921.42	211.09
921.72	211.08
922.02	211.08
922.32	211.10
922.63	211.09
922.93	211.26
923.23	211.28
923.53	211.25
923.83	210.99
924.13	211.04
924.44	211.09
924.74	211.07
925.04	211.14
925.34	211.10
925.64	211.00
925.94	211.04
926.24	211.37
926.55	211.30
926.85	211.37
927.15	211.40
927.45	211.33
927.75	211.36
928.05	211.37
928.35	211.32
928.65	211.38
928.95	211.44
929.26	211.32
929.56	211.40
929.86	211.44
930.16	211.35
930.46	211.32
930.76	211.30
931.06	211.22
931.36	211.13
931.66	211.17
931.96	211.19
932.26	211.15
932.56	210.91
932.86	210.92
933.16	210.96
933.46	210.96
933.76	210.90
934.06	211.01
934.36	211.16
934.66	211.20
934.96	211.19
935.26	211.18
935.56	211.23
935.86	211.12
936.16	211.08
936.46	211.12
936.76	211.04
937.06	211.02
937.36	211.03
937.66	211.11
937.96	211.08
938.26	211.05
938.56	211.04
938.86	211.05
939.16	211.18
939.46	211.14
939.76	211.17
940.06	211.20
940.35	211.09
940.65	210.91
940.95	210.94
941.25	210.85
941.55	210.85
941.85	210.78
942.15	210.88
942.45	211.00
942.75	210.97
943.04	211.05
943.34	211.06
943.64	211.03
943.94	210.96
944.24	210.98
944.54	210.94
944.84	210.96
945.13	210.89
945.43	210.75
945.73	210.74
946.03	210.75
946.33	210.75
946.62	210.72
946.92	210.69
947.22	210.78
947.52	210.77
947.82	210.82
948.11	210.79
948.41	210.79
948.71	210.70
949.01	210.81
949.31	210.73
949.60	210.81
949.90	210.87
950.20	210.87
950.50	210.86
950.79	210.86
951.09	210.89
951.39	210.95
951.69	211.00
951.98	211.08
952.28	211.06
952.58	211.03
952.87	211.07
953.17	211.17
953.47	211.07
953.76	211.04
954.06	210.89
954.36	210.84
954.66	210.79
954.95	210.87
955.25	210.83
955.55	210.93
955.84	210.81
956.14	210.83
956.44	210.84
956.73	210.81
957.03	210.84
957.32	210.82
957.62	210.77
957.92	210.80
958.21	210.70
958.51	211.14
958.81	211.17
959.10	211.16
959.40	211.18
959.69	211.15
959.99	211.21
960.29	211.27
960.58	211.27
960.88	211.37
961.17	211.29
961.47	211.30
961.76	211.22
962.06	211.29
962.36	211.24
962.65	211.30
962.95	211.37
963.24	211.38
963.54	211.36
963.83	211.39
964.13	211.38
964.42	211.35
964.72	210.97
965.01	210.95
965.31	210.93
965.60	210.87
965.90	211.12
966.19	211.04
966.49	211.02
966.78	211.09
967.08	211.07
967.37	211.17
967.67	211.03
967.96	211.06
968.26	211.03
968.55	211.06
968.85	210.92
969.14	210.85
969.43	210.76
969.73	210.76
970.02	210.78
970.32	210.81
970.61	210.80
970.91	210.76
971.20	210.75
971.49	210.74
971.79	210.79
972.08	210.49
972.38	210.50
972.67	210.48
972.96	210.48
973.26	210.41
973.55	210.45
973.85	210.55
974.14	210.56
974.43	210.62
974.73	210.57
975.02	210.61
975.31	210.60
975.61	210.65
975.90	210.73
976.19	210.68
976.49	210.66
976.78	210.73
977.07	210.76
977.37	210.82
977.66	210.89
977.95	210.82
978.24	210.95
978.54	211.10
978.83	211.14
979.12	211.08
979.42	211.08
979.71	211.05
980.00	211.06
980.29	211.05
980.59	210.97
980.88	211.05
981.17	211.06
981.46	211.06
981.76	211.09
982.05	211.07
982.34	211.08
982.63	211.03
982.93	211.00
983.22	211.10
983.51	211.07
983.80	211.11
984.09	211.16
984.39	211.13
984.68	211.05
984.97	211.05
985.26	211.05
985.55	211.09
985.85	210.91
986.14	210.95
986.43	211.03
986.72	210.98
987.01	210.78
987.30	210.73
987.59	210.71
987.89	210.77
988.18	210.73
988.47	210.73
988.76	210.75
989.05	210.71
989.34	210.63
989.63	210.70
989.92	210.68
990.22	210.59
990.51	210.54
990.80	210.45
991.09	210.43
991.38	210.48
991.67	210.44
991.96	210.49
992.25	210.50
992.54	210.40
992.83	210.38
993.12	210.50
993.41	210.66
993.70	210.81
993.99	210.78
994.28	210.82
994.58	210.87
994.87	210.86
995.16	210.91
995.45	210.85
995.74	210.80
996.03	210.81
996.32	210.91
996.61	211.01
996.90	211.04
997.19	211.12
997.48	211.14
997.77	211.09
998.06	211.17
998.34	211.12
998.63	211.18
998.92	211.26
999.21	211.34
999.50	211.26
999.79	211.12
1000.08	211.15
1000.37	211.14
1000.66	211.05
1000.95	211.10
1001.24	211.10
1001.53	211.17
1001.82	211.13
1002.11	211.04
1002.40	211.02
1002.68	211.12
1002.97	211.42
1003.26	211.33
1003.55	211.23
1003.84	211.28
1004.13	211.38
1004.42	211.39
1004.71	211.40
1004.99	211.36
1005.28	211.39
1005.57	211.35
1005.86	211.40
1006.15	211.35
1006.44	211.31
1006.72	211.37
1007.01	211.35
1007.30	211.33
1007.59	211.29
1007.88	211.35
1008.17	211.42
1008.45	211.42
1008.74	211.24
1009.03	211.06
1009.32	211.11
1009.60	211.20
1009.89	211.24
1010.18	211.06
1010.47	211.08
1010.76	211.05
1011.04	211.04
1011.33	211.03
1011.62	211.15
1011.91	211.12
1012.19	211.17
1012.48	211.24
1012.77	211.26
1013.05	211.38
1013.34	211.38
1013.63	211.32
1013.92	211.28
1014.20	211.25
1014.49	211.20
1014.78	211.30
1015.06	211.22
1015.35	211.21
1015.64	211.19
1015.92	211.22
1016.21	211.25
1016.50	211.23
1016.78	211.26
1017.07	211.33
1017.36	211.25
1017.64	211.16
1017.93	211.21
1018.22	211.18
1018.50	211.13
1018.79	211.11
1019.08	211.00
1019.36	211.03
1019.65	211.08
1019.93	211.18
1020.22	211.18
1020.51	211.39
1020.79	211.29
1021.08	210.40
1021.36	210.80
1021.65	211.30
1021.94	211.60
1022.22	211.60
1022.51	211.10
1022.79	212.35
1023.08	210.85
1023.36	214.80
1023.65	209.75
>>>>>End Processed Spectral Data<<<<<
