SpectraSuite Data File
++++++++++++++++++++++++++++++++++++
Date: Mon Feb 25 16:58:52 EST 2013
User: group
Dark Spectrum Present: No
Reference Spectrum Present: No
Number of Sampled Component Spectra: 1
Spectrometers: USB2E7196
Integration Time (usec): 104000 (USB2E7196)
Spectra Averaged: 20 (USB2E7196)
Boxcar Smoothing: 10 (USB2E7196)
Correct for Electrical Dark: No (USB2E7196)
Strobe/Lamp Enabled: No (USB2E7196)
Correct for Detector Non-linearity: No (USB2E7196)
Correct for Stray Light: No (USB2E7196)
Number of Pixels in Processed Spectrum: 2048
>>>>>Begin Processed Spectral Data<<<<<
339.09	0.00
339.48	197.90
339.86	199.60
340.24	200.30
340.63	201.40
341.01	209.20
341.39	205.50
341.78	206.30
342.16	208.65
342.54	207.20
342.93	197.72
343.31	207.67
343.69	208.24
344.07	208.70
344.46	209.17
344.84	209.60
345.22	209.65
345.60	209.87
345.99	210.08
346.37	210.22
346.75	210.36
347.13	210.49
347.52	210.52
347.90	210.76
348.28	210.74
348.66	210.88
349.05	210.83
349.43	210.92
349.81	210.96
350.19	211.00
350.57	211.02
350.96	211.10
351.34	211.19
351.72	211.29
352.10	211.43
352.48	211.51
352.87	211.60
353.25	211.70
353.63	211.75
354.01	211.85
354.39	211.94
354.77	212.07
355.15	212.29
355.54	212.38
355.92	212.32
356.30	212.52
356.68	212.82
357.06	212.86
357.44	212.88
357.82	213.00
358.20	213.12
358.58	213.28
358.97	213.44
359.35	213.72
359.73	213.85
360.11	213.91
360.49	214.05
360.87	214.12
361.25	214.19
361.63	214.37
362.01	214.46
362.39	214.45
362.77	214.51
363.15	214.53
363.53	214.57
363.91	214.66
364.29	214.65
364.67	214.36
365.05	214.48
365.43	214.58
365.81	214.62
366.19	214.80
366.57	214.92
366.95	214.86
367.33	214.72
367.71	214.71
368.09	214.83
368.47	214.77
368.85	214.76
369.23	214.88
369.61	214.80
369.99	214.90
370.37	214.95
370.75	215.07
371.13	214.92
371.51	214.86
371.89	214.85
372.27	214.83
372.65	214.80
373.03	214.76
373.41	214.73
373.78	214.60
374.16	214.33
374.54	214.15
374.92	214.08
375.30	214.05
375.68	213.90
376.06	213.82
376.44	213.79
376.82	213.73
377.19	213.59
377.57	213.54
377.95	213.31
378.33	213.27
378.71	213.01
379.09	213.03
379.47	213.09
379.84	212.95
380.22	212.89
380.60	212.75
380.98	212.68
381.36	212.55
381.73	212.51
382.11	212.63
382.49	212.62
382.87	212.54
383.25	212.43
383.62	212.82
384.00	212.66
384.38	212.60
384.76	212.68
385.13	212.76
385.51	212.66
385.89	212.58
386.27	212.49
386.64	212.57
387.02	212.43
387.40	212.33
387.78	212.39
388.15	212.38
388.53	212.41
388.91	212.32
389.29	212.29
389.66	212.21
390.04	212.02
390.42	212.01
390.79	212.02
391.17	212.03
391.55	211.65
391.92	211.59
392.30	211.57
392.68	211.47
393.05	211.41
393.43	211.38
393.81	211.39
394.18	211.41
394.56	211.34
394.94	211.47
395.31	211.42
395.69	211.41
396.06	211.40
396.44	211.41
396.82	211.39
397.19	211.60
397.57	211.64
397.95	211.75
398.32	211.68
398.70	211.71
399.07	211.82
399.45	211.78
399.82	211.83
400.20	211.88
400.58	211.88
400.95	211.76
401.33	211.96
401.70	212.25
402.08	212.32
402.45	212.40
402.83	212.54
403.20	212.70
403.58	212.83
403.95	212.97
404.33	213.20
404.71	213.33
405.08	213.60
405.46	213.82
405.83	214.01
406.21	214.24
406.58	214.55
406.96	214.81
407.33	215.18
407.70	215.67
408.08	216.23
408.45	216.73
408.83	217.29
409.20	217.72
409.58	217.98
409.95	218.52
410.33	219.13
410.70	219.64
411.08	220.25
411.45	220.94
411.82	221.65
412.20	222.40
412.57	223.43
412.95	224.07
413.32	225.08
413.69	226.11
414.07	227.23
414.44	228.32
414.82	229.54
415.19	230.96
415.56	232.35
415.94	233.70
416.31	235.40
416.68	237.06
417.06	239.00
417.43	241.07
417.81	243.23
418.18	245.50
418.55	247.85
418.93	250.43
419.30	253.05
419.67	255.89
420.04	258.82
420.42	261.83
420.79	265.42
421.16	268.96
421.54	272.80
421.91	276.58
422.28	280.65
422.66	284.84
423.03	288.98
423.40	293.24
423.77	297.81
424.15	302.39
424.52	307.29
424.89	312.66
425.26	317.73
425.64	322.70
426.01	328.14
426.38	333.87
426.75	339.64
427.13	345.67
427.50	351.90
427.87	358.43
428.24	365.06
428.61	371.43
428.99	378.46
429.36	385.90
429.73	393.41
430.10	400.74
430.47	408.30
430.85	416.18
431.22	424.63
431.59	433.65
431.96	442.17
432.33	451.66
432.70	460.81
433.08	471.55
433.45	481.65
433.82	491.80
434.19	503.00
434.56	514.20
434.93	524.97
435.30	535.90
435.68	548.00
436.05	560.10
436.42	572.00
436.79	582.81
437.16	594.59
437.53	607.04
437.90	619.44
438.27	631.77
438.64	644.60
439.01	656.55
439.38	667.33
439.75	677.88
440.13	689.67
440.50	700.84
440.87	710.28
441.24	720.05
441.61	730.83
441.98	739.22
442.35	748.66
442.72	758.07
443.09	767.06
443.46	772.88
443.83	776.94
444.20	780.60
444.57	785.75
444.94	788.44
445.31	791.49
445.68	794.44
446.05	796.26
446.42	796.09
446.79	795.38
447.16	794.55
447.53	794.33
447.90	790.69
448.27	787.17
448.64	781.70
449.01	778.03
449.37	770.48
449.74	763.28
450.11	754.67
450.48	745.16
450.85	735.51
451.22	727.05
451.59	719.20
451.96	711.55
452.33	701.24
452.70	692.23
453.07	680.88
453.43	669.30
453.80	658.25
454.17	647.57
454.54	637.73
454.91	627.02
455.28	616.36
455.65	606.65
456.02	596.76
456.38	588.35
456.75	577.70
457.12	569.06
457.49	560.35
457.86	551.80
458.23	544.60
458.59	536.62
458.96	528.82
459.33	521.60
459.70	514.52
460.07	508.81
460.43	502.00
460.80	495.78
461.17	490.52
461.54	484.83
461.91	479.42
462.27	473.95
462.64	469.16
463.01	463.93
463.38	458.90
463.74	453.76
464.11	449.23
464.48	445.34
464.85	441.12
465.21	437.97
465.58	434.62
465.95	430.54
466.32	427.08
466.68	423.62
467.05	420.20
467.42	416.77
467.78	413.20
468.15	409.87
468.52	407.35
468.88	403.93
469.25	400.98
469.62	398.49
469.98	395.79
470.35	393.37
470.72	391.15
471.08	388.53
471.45	386.42
471.82	384.39
472.18	382.10
472.55	380.33
472.92	378.28
473.28	376.39
473.65	374.57
474.02	372.80
474.38	371.31
474.75	370.12
475.11	368.81
475.48	367.76
475.85	366.80
476.21	365.87
476.58	365.14
476.94	364.49
477.31	363.83
477.67	363.14
478.04	362.70
478.41	362.30
478.77	362.30
479.14	361.88
479.50	361.65
479.87	361.64
480.23	361.66
480.60	361.49
480.96	361.45
481.33	361.80
481.69	362.22
482.06	362.41
482.42	362.50
482.79	362.76
483.15	363.17
483.52	363.87
483.88	364.35
484.25	364.86
484.61	365.54
484.98	366.06
485.34	367.01
485.71	368.00
486.07	369.12
486.44	369.89
486.80	371.10
487.17	372.35
487.53	373.86
487.90	375.33
488.26	377.04
488.62	378.85
488.99	380.42
489.35	382.14
489.72	384.06
490.08	386.16
490.44	388.15
490.81	390.40
491.17	392.56
491.54	395.01
491.90	397.51
492.26	399.96
492.63	402.74
492.99	405.45
493.36	408.31
493.72	411.14
494.08	414.23
494.45	417.46
494.81	420.80
495.17	423.95
495.54	427.36
495.90	430.89
496.26	434.20
496.63	437.88
496.99	441.50
497.35	445.32
497.72	449.16
498.08	453.19
498.44	457.08
498.80	461.47
499.17	465.63
499.53	469.84
499.89	474.29
500.26	478.59
500.62	482.64
500.98	487.04
501.34	491.43
501.71	496.01
502.07	500.20
502.43	504.50
502.79	508.84
503.16	513.19
503.52	517.49
503.88	521.95
504.24	526.30
504.60	530.63
504.97	534.86
505.33	539.10
505.69	543.66
506.05	548.02
506.41	552.05
506.78	555.94
507.14	559.98
507.50	563.82
507.86	567.82
508.22	571.90
508.59	575.60
508.95	579.31
509.31	582.98
509.67	586.91
510.03	590.61
510.39	594.39
510.75	597.92
511.12	601.40
511.48	604.83
511.84	608.31
512.20	611.59
512.56	615.04
512.92	618.29
513.28	621.29
513.64	624.26
514.00	627.13
514.37	630.14
514.73	633.02
515.09	635.92
515.45	638.55
515.81	641.13
516.17	643.55
516.53	646.04
516.89	648.25
517.25	650.51
517.61	652.77
517.97	654.70
518.33	656.59
518.69	658.56
519.05	660.45
519.41	662.27
519.77	664.34
520.13	665.95
520.49	667.65
520.85	669.12
521.21	670.86
521.57	672.53
521.93	673.91
522.29	675.29
522.65	676.65
523.01	678.05
523.37	679.29
523.73	680.88
524.09	682.05
524.45	683.22
524.81	684.47
525.17	685.90
525.53	687.30
525.89	688.73
526.25	689.86
526.61	691.00
526.97	692.06
527.33	693.19
527.68	694.71
528.04	695.91
528.40	697.15
528.76	698.28
529.12	699.57
529.48	701.12
529.84	702.45
530.20	703.68
530.56	705.10
530.91	706.88
531.27	708.37
531.63	710.06
531.99	711.70
532.35	713.16
532.71	714.33
533.07	716.08
533.42	717.99
533.78	719.84
534.14	721.74
534.50	723.46
534.86	725.42
535.21	726.76
535.57	728.64
535.93	730.34
536.29	732.20
536.65	734.04
537.00	735.91
537.36	737.88
537.72	739.82
538.08	741.66
538.44	743.43
538.79	745.34
539.15	747.31
539.51	749.40
539.87	751.71
540.22	754.06
540.58	756.25
540.94	758.24
541.29	760.40
541.65	762.32
542.01	764.51
542.37	766.40
542.72	768.57
543.08	770.61
543.44	773.13
543.79	775.07
544.15	777.17
544.51	779.63
544.87	781.96
545.22	784.26
545.58	786.60
545.94	788.65
546.29	790.63
546.65	792.69
547.01	794.70
547.36	796.70
547.72	798.67
548.07	800.75
548.43	802.70
548.79	804.42
549.14	806.31
549.50	808.49
549.86	810.53
550.21	812.78
550.57	815.09
550.92	816.95
551.28	819.26
551.64	821.21
551.99	823.03
552.35	825.00
552.70	826.90
553.06	828.98
553.41	831.25
553.77	833.64
554.13	835.90
554.48	838.32
554.84	840.60
555.19	842.84
555.55	845.11
555.90	847.12
556.26	849.04
556.61	851.07
556.97	852.76
557.32	854.57
557.68	856.29
558.03	858.02
558.39	859.72
558.74	861.37
559.10	863.31
559.45	865.10
559.81	867.14
560.16	868.85
560.52	870.50
560.87	872.12
561.23	873.35
561.58	875.16
561.94	876.42
562.29	877.66
562.64	879.18
563.00	880.34
563.35	881.93
563.71	884.02
564.06	885.65
564.42	887.47
564.77	889.42
565.12	891.20
565.48	893.11
565.83	894.61
566.19	896.48
566.54	897.78
566.89	899.20
567.25	900.57
567.60	902.32
567.96	904.11
568.31	905.65
568.66	907.23
569.02	907.95
569.37	908.89
569.72	909.95
570.08	910.75
570.43	911.62
570.78	912.28
571.14	912.68
571.49	913.42
571.84	913.89
572.20	914.00
572.55	914.25
572.90	914.05
573.26	914.44
573.61	914.09
573.96	914.26
574.31	913.97
574.67	913.46
575.02	912.76
575.37	911.93
575.72	910.96
576.08	910.50
576.43	910.15
576.78	909.64
577.13	909.19
577.49	908.73
577.84	908.10
578.19	907.65
578.54	907.43
578.90	906.70
579.25	905.96
579.60	904.90
579.95	903.91
580.30	903.05
580.66	901.98
581.01	901.10
581.36	899.65
581.71	898.52
582.06	897.59
582.42	896.57
582.77	895.15
583.12	894.05
583.47	892.64
583.82	891.18
584.17	889.88
584.53	888.60
584.88	887.07
585.23	885.60
585.58	883.90
585.93	882.04
586.28	880.61
586.63	879.02
586.98	877.87
587.34	876.64
587.69	875.09
588.04	873.59
588.39	872.11
588.74	870.66
589.09	869.17
589.44	867.20
589.79	865.64
590.14	864.35
590.49	862.71
590.84	861.03
591.19	859.69
591.54	858.11
591.89	855.91
592.25	854.36
592.60	852.52
592.95	850.66
593.30	848.51
593.65	846.28
594.00	844.15
594.35	843.17
594.70	841.05
595.05	839.09
595.40	837.04
595.75	834.78
596.10	832.82
596.45	830.85
596.80	829.12
597.15	827.24
597.50	824.74
597.85	822.81
598.19	820.46
598.54	818.05
598.89	815.77
599.24	813.96
599.59	811.57
599.94	809.45
600.29	807.30
600.64	805.16
600.99	802.96
601.34	801.08
601.69	797.73
602.04	795.29
602.39	792.69
602.74	790.57
603.08	788.59
603.43	786.65
603.78	784.23
604.13	781.82
604.48	779.49
604.83	777.74
605.18	775.60
605.53	773.55
605.87	771.26
606.22	769.32
606.57	766.97
606.92	764.48
607.27	762.05
607.62	759.71
607.96	757.53
608.31	755.50
608.66	752.88
609.01	750.29
609.36	747.84
609.70	745.53
610.05	742.92
610.40	740.39
610.75	737.60
611.10	735.45
611.44	732.60
611.79	729.67
612.14	726.77
612.49	723.73
612.83	720.99
613.18	718.11
613.53	714.96
613.88	712.03
614.22	709.23
614.57	706.37
614.92	703.51
615.27	700.66
615.61	697.53
615.96	694.88
616.31	692.24
616.65	689.60
617.00	686.72
617.35	683.71
617.70	680.72
618.04	677.80
618.39	674.37
618.74	671.80
619.08	669.06
619.43	666.33
619.78	663.75
620.12	660.90
620.47	658.40
620.82	655.59
621.16	652.60
621.51	650.18
621.85	647.47
622.20	644.69
622.55	641.73
622.89	639.00
623.24	635.97
623.59	633.10
623.93	630.31
624.28	627.78
624.62	625.58
624.97	623.07
625.32	620.28
625.66	617.93
626.01	615.09
626.35	612.42
626.70	609.60
627.04	607.13
627.39	604.50
627.73	601.88
628.08	599.56
628.43	597.12
628.77	594.31
629.12	591.62
629.46	589.18
629.81	586.84
630.15	584.27
630.50	581.91
630.84	579.49
631.19	576.92
631.53	574.42
631.88	571.44
632.22	568.68
632.57	566.39
632.91	563.94
633.26	561.63
633.60	559.22
633.95	556.85
634.29	554.12
634.64	551.87
634.98	549.23
635.32	546.90
635.67	544.72
636.01	542.52
636.36	540.24
636.70	538.15
637.05	535.95
637.39	533.91
637.73	531.85
638.08	529.97
638.42	528.08
638.77	526.08
639.11	524.20
639.45	522.17
639.80	519.91
640.14	517.59
640.49	515.37
640.83	513.17
641.17	511.05
641.52	508.99
641.86	506.70
642.20	504.75
642.55	502.20
642.89	499.94
643.23	497.59
643.58	495.75
643.92	493.45
644.26	491.28
644.61	489.10
644.95	486.79
645.29	484.43
645.64	482.06
645.98	479.67
646.32	477.40
646.66	475.20
647.01	473.08
647.35	471.28
647.69	469.12
648.04	467.18
648.38	465.09
648.72	463.00
649.06	460.92
649.41	458.89
649.75	456.95
650.09	455.00
650.43	453.01
650.78	450.72
651.12	448.50
651.46	446.38
651.80	444.44
652.14	442.52
652.49	440.40
652.83	438.35
653.17	436.34
653.51	434.39
653.85	432.57
654.20	430.69
654.54	428.54
654.88	426.53
655.22	424.67
655.56	422.58
655.90	420.76
656.25	418.93
656.59	416.99
656.93	415.24
657.27	413.49
657.61	411.49
657.95	409.74
658.29	407.90
658.64	406.24
658.98	404.27
659.32	402.30
659.66	400.57
660.00	398.83
660.34	397.10
660.68	395.23
661.02	393.31
661.36	391.64
661.70	389.83
662.05	388.28
662.39	386.62
662.73	385.27
663.07	383.64
663.41	381.99
663.75	380.36
664.09	378.64
664.43	376.82
664.77	375.41
665.11	373.92
665.45	372.52
665.79	370.96
666.13	369.44
666.47	368.05
666.81	366.62
667.15	365.10
667.49	363.71
667.83	362.41
668.17	361.13
668.51	359.70
668.85	358.47
669.19	357.23
669.53	355.76
669.87	354.22
670.21	352.91
670.55	351.61
670.89	350.55
671.23	349.36
671.57	348.18
671.91	346.86
672.25	345.52
672.58	344.39
672.92	343.08
673.26	341.93
673.60	340.77
673.94	339.51
674.28	338.49
674.62	337.32
674.96	336.25
675.30	335.15
675.64	333.96
675.97	332.83
676.31	331.62
676.65	330.54
676.99	329.68
677.33	328.49
677.67	327.45
678.01	326.03
678.34	325.09
678.68	324.08
679.02	323.02
679.36	322.03
679.70	321.01
680.04	320.14
680.37	319.07
680.71	318.00
681.05	317.08
681.39	316.05
681.73	315.12
682.06	314.14
682.40	313.13
682.74	312.27
683.08	311.43
683.42	310.40
683.75	309.46
684.09	308.37
684.43	307.47
684.77	306.52
685.10	305.67
685.44	304.70
685.78	303.70
686.12	302.89
686.45	301.95
686.79	300.95
687.13	300.06
687.46	299.18
687.80	298.34
688.14	297.51
688.48	296.75
688.81	295.81
689.15	295.02
689.49	294.18
689.82	293.28
690.16	292.27
690.50	291.52
690.83	290.61
691.17	289.76
691.51	288.95
691.84	288.20
692.18	287.46
692.52	286.69
692.85	286.13
693.19	285.47
693.52	284.75
693.86	283.92
694.20	283.18
694.53	282.53
694.87	281.70
695.21	280.88
695.54	280.01
695.88	279.29
696.21	278.35
696.55	277.62
696.88	276.92
697.22	276.19
697.56	275.49
697.89	274.80
698.23	274.10
698.56	273.36
698.90	272.67
699.23	271.94
699.57	271.28
699.90	270.44
700.24	269.70
700.58	269.10
700.91	268.60
701.25	268.14
701.58	267.56
701.92	267.08
702.25	266.51
702.59	266.00
702.92	265.41
703.26	264.94
703.59	264.37
703.93	264.17
704.26	263.64
704.60	263.09
704.93	262.57
705.26	262.01
705.60	261.59
705.93	260.96
706.27	260.60
706.60	260.11
706.94	259.80
707.27	259.27
707.61	258.79
707.94	258.20
708.27	257.40
708.61	256.77
708.94	256.33
709.28	255.75
709.61	255.25
709.94	254.77
710.28	254.30
710.61	253.83
710.95	253.00
711.28	252.86
711.61	252.40
711.95	252.11
712.28	251.72
712.61	251.24
712.95	251.01
713.28	250.68
713.61	250.30
713.95	249.81
714.28	249.42
714.61	248.94
714.95	248.60
715.28	248.24
715.61	247.88
715.95	247.41
716.28	247.07
716.61	246.73
716.95	246.34
717.28	245.94
717.61	245.62
717.94	245.23
718.28	244.64
718.61	244.27
718.94	243.74
719.27	243.39
719.61	243.08
719.94	242.60
720.27	242.08
720.60	241.70
720.94	241.36
721.27	241.05
721.60	240.84
721.93	240.49
722.27	240.33
722.60	240.05
722.93	239.74
723.26	239.46
723.59	239.06
723.93	238.84
724.26	238.61
724.59	238.29
724.92	238.04
725.25	237.83
725.59	237.56
725.92	237.39
726.25	237.13
726.58	236.87
726.91	236.70
727.24	236.46
727.57	236.19
727.91	235.90
728.24	235.66
728.57	235.34
728.90	235.15
729.23	234.81
729.56	234.80
729.89	234.55
730.22	234.30
730.55	234.14
730.89	233.91
731.22	233.61
731.55	233.38
731.88	233.24
732.21	233.00
732.54	232.72
732.87	232.52
733.20	232.33
733.53	232.15
733.86	231.99
734.19	231.77
734.52	231.60
734.85	231.69
735.18	231.52
735.51	231.48
735.84	231.26
736.17	231.13
736.50	230.76
736.83	231.01
737.16	230.83
737.49	230.66
737.82	230.45
738.15	230.37
738.48	230.15
738.81	229.92
739.14	229.62
739.47	229.50
739.80	229.27
740.13	229.11
740.46	228.84
740.79	228.59
741.12	228.38
741.45	228.09
741.78	227.65
742.11	227.52
742.44	227.26
742.77	227.14
743.10	226.97
743.43	226.76
743.75	226.32
744.08	226.60
744.41	226.43
744.74	226.23
745.07	226.04
745.40	225.95
745.73	225.98
746.06	225.86
746.39	225.72
746.71	225.64
747.04	225.47
747.37	225.34
747.70	225.25
748.03	225.17
748.36	225.13
748.68	224.96
749.01	224.78
749.34	224.59
749.67	224.45
750.00	224.32
750.33	224.44
750.65	224.29
750.98	223.75
751.31	223.66
751.64	223.62
751.97	223.72
752.29	223.59
752.62	223.24
752.95	223.10
753.28	222.89
753.60	222.70
753.93	222.68
754.26	222.62
754.59	222.36
754.91	222.21
755.24	222.05
755.57	221.89
755.90	221.79
756.22	221.65
756.55	221.49
756.88	221.39
757.20	220.99
757.53	220.78
757.86	220.70
758.19	220.58
758.51	220.38
758.84	220.11
759.17	219.97
759.49	219.90
759.82	220.06
760.15	220.06
760.47	219.98
760.80	219.77
761.13	219.71
761.45	219.62
761.78	219.56
762.11	219.57
762.43	219.59
762.76	219.46
763.08	219.44
763.41	219.42
763.74	219.35
764.06	219.29
764.39	219.14
764.71	218.95
765.04	218.87
765.37	218.80
765.69	218.66
766.02	218.60
766.34	218.58
766.67	218.35
767.00	218.36
767.32	218.47
767.65	218.57
767.97	218.50
768.30	218.49
768.62	218.38
768.95	218.23
769.27	218.15
769.60	218.15
769.92	218.02
770.25	217.86
770.57	217.65
770.90	217.60
771.22	217.58
771.55	217.52
771.87	217.47
772.20	217.43
772.52	217.58
772.85	217.92
773.17	217.83
773.50	217.71
773.82	217.56
774.15	217.29
774.47	217.04
774.80	217.00
775.12	216.90
775.45	216.82
775.77	216.81
776.09	216.67
776.42	216.62
776.74	216.65
777.07	216.56
777.39	216.58
777.72	216.56
778.04	216.56
778.36	216.58
778.69	216.51
779.01	216.47
779.33	216.21
779.66	215.81
779.98	215.70
780.31	215.65
780.63	215.74
780.95	215.80
781.28	215.78
781.60	215.67
781.92	215.63
782.25	215.54
782.57	215.45
782.89	215.42
783.22	215.35
783.54	215.21
783.86	215.22
784.19	215.20
784.51	215.23
784.83	215.20
785.16	215.14
785.48	215.10
785.80	215.10
786.12	215.09
786.45	215.03
786.77	215.10
787.09	215.04
787.42	214.85
787.74	214.80
788.06	214.78
788.38	214.71
788.71	214.68
789.03	214.73
789.35	214.79
789.67	214.73
789.99	214.66
790.32	214.68
790.64	214.66
790.96	214.86
791.28	214.72
791.61	214.68
791.93	214.70
792.25	214.62
792.57	214.79
792.89	214.70
793.21	214.75
793.54	214.68
793.86	214.65
794.18	214.70
794.50	214.63
794.82	214.64
795.14	214.73
795.47	214.75
795.79	214.75
796.11	214.62
796.43	214.61
796.75	214.65
797.07	214.57
797.39	214.58
797.71	214.33
798.04	214.35
798.36	214.35
798.68	214.21
799.00	214.25
799.32	214.05
799.64	214.13
799.96	214.05
800.28	214.03
800.60	214.05
800.92	214.01
801.24	214.00
801.56	213.93
801.89	213.79
802.21	213.85
802.53	213.77
802.85	213.85
803.17	213.96
803.49	213.88
803.81	213.87
804.13	213.84
804.45	213.78
804.77	213.78
805.09	213.72
805.41	213.73
805.73	213.67
806.05	213.59
806.37	213.53
806.69	213.52
807.01	213.48
807.33	213.48
807.65	213.33
807.97	213.46
808.28	213.42
808.60	213.43
808.92	213.38
809.24	213.63
809.56	213.47
809.88	213.30
810.20	213.36
810.52	213.47
810.84	213.39
811.16	213.34
811.48	213.20
811.80	213.33
812.12	213.28
812.43	213.41
812.75	213.40
813.07	213.42
813.39	213.39
813.71	213.39
814.03	213.34
814.35	213.40
814.67	213.28
814.98	213.25
815.30	213.15
815.62	212.99
815.94	212.72
816.26	212.79
816.58	212.76
816.89	212.73
817.21	212.57
817.53	212.63
817.85	212.59
818.17	212.61
818.48	212.50
818.80	212.60
819.12	212.45
819.44	212.40
819.76	212.30
820.07	212.29
820.39	212.23
820.71	212.21
821.03	212.25
821.34	212.12
821.66	212.11
821.98	212.21
822.30	212.22
822.61	212.42
822.93	212.37
823.25	212.39
823.57	212.29
823.88	212.46
824.20	212.42
824.52	212.56
824.83	212.52
825.15	212.46
825.47	212.42
825.79	212.40
826.10	212.35
826.42	212.35
826.74	212.42
827.05	212.40
827.37	212.39
827.69	212.35
828.00	212.35
828.32	212.43
828.64	212.36
828.95	212.58
829.27	212.45
829.58	212.41
829.90	212.47
830.22	212.50
830.53	212.31
830.85	212.26
831.17	212.11
831.48	212.12
831.80	212.15
832.11	212.10
832.43	212.08
832.75	212.10
833.06	212.30
833.38	212.20
833.69	212.20
834.01	212.26
834.32	212.18
834.64	212.20
834.96	212.17
835.27	212.18
835.59	212.06
835.90	211.97
836.22	212.02
836.53	211.88
836.85	211.93
837.16	212.27
837.48	212.29
837.79	212.39
838.11	212.42
838.42	212.38
838.74	212.40
839.05	212.34
839.37	212.40
839.68	212.16
840.00	212.13
840.31	212.20
840.63	212.15
840.94	212.17
841.26	212.10
841.57	212.10
841.88	212.20
842.20	212.12
842.51	212.16
842.83	212.19
843.14	212.57
843.46	212.54
843.77	212.30
844.08	212.31
844.40	212.25
844.71	212.26
845.03	212.18
845.34	212.20
845.65	212.22
845.97	212.14
846.28	212.15
846.60	212.14
846.91	212.03
847.22	211.99
847.54	212.03
847.85	212.10
848.16	212.05
848.48	211.91
848.79	211.98
849.10	212.02
849.42	211.96
849.73	211.61
850.04	211.57
850.36	211.50
850.67	211.46
850.98	211.49
851.30	211.55
851.61	211.60
851.92	211.60
852.23	211.65
852.55	211.67
852.86	211.70
853.17	211.76
853.49	211.87
853.80	211.95
854.11	211.98
854.42	211.97
854.74	211.94
855.05	211.92
855.36	211.78
855.67	211.72
855.99	211.77
856.30	212.13
856.61	212.08
856.92	212.08
857.23	212.09
857.55	212.02
857.86	211.94
858.17	211.95
858.48	211.82
858.79	211.75
859.11	211.79
859.42	211.81
859.73	211.70
860.04	211.61
860.35	211.50
860.66	211.45
860.98	211.47
861.29	211.52
861.60	211.56
861.91	211.65
862.22	211.60
862.53	211.45
862.84	211.06
863.16	211.18
863.47	211.15
863.78	211.17
864.09	211.18
864.40	211.18
864.71	211.23
865.02	211.29
865.33	211.30
865.64	211.22
865.95	211.21
866.27	211.48
866.58	211.52
866.89	211.52
867.20	211.51
867.51	211.39
867.82	211.32
868.13	211.38
868.44	211.32
868.75	211.40
869.06	211.49
869.37	211.48
869.68	211.36
869.99	211.43
870.30	211.41
870.61	211.47
870.92	211.41
871.23	211.37
871.54	211.45
871.85	211.52
872.16	211.56
872.47	211.46
872.78	211.21
873.09	211.22
873.40	211.14
873.71	211.10
874.02	211.19
874.33	211.22
874.64	211.10
874.95	211.14
875.26	211.06
875.56	211.06
875.87	211.10
876.18	211.08
876.49	211.33
876.80	211.30
877.11	211.22
877.42	211.24
877.73	211.18
878.04	211.05
878.35	211.06
878.66	211.07
878.96	211.12
879.27	211.05
879.58	211.01
879.89	211.04
880.20	211.11
880.51	211.04
880.82	211.01
881.12	211.09
881.43	211.02
881.74	211.00
882.05	210.95
882.36	210.97
882.67	210.96
882.97	210.65
883.28	210.56
883.59	210.59
883.90	210.62
884.21	210.69
884.51	210.75
884.82	210.66
885.13	210.62
885.44	210.55
885.74	210.68
886.05	210.69
886.36	210.77
886.67	210.66
886.98	210.85
887.28	210.96
887.59	210.94
887.90	211.02
888.20	211.04
888.51	211.12
888.82	211.05
889.13	211.16
889.43	211.45
889.74	211.55
890.05	211.47
890.35	211.47
890.66	211.47
890.97	211.44
891.28	211.45
891.58	211.47
891.89	211.55
892.20	211.46
892.50	211.42
892.81	211.35
893.12	211.36
893.42	211.20
893.73	211.20
894.04	211.17
894.34	211.18
894.65	211.16
894.95	211.10
895.26	211.13
895.57	211.28
895.87	210.94
896.18	210.98
896.48	211.07
896.79	211.04
897.10	211.11
897.40	211.13
897.71	211.23
898.01	211.19
898.32	211.25
898.63	211.31
898.93	211.40
899.24	211.43
899.54	211.45
899.85	211.47
900.15	211.44
900.46	211.48
900.76	211.49
901.07	211.50
901.38	211.54
901.68	211.59
901.99	211.46
902.29	211.49
902.60	211.48
902.90	211.45
903.21	211.48
903.51	211.36
903.82	211.42
904.12	211.40
904.43	211.50
904.73	211.43
905.03	211.42
905.34	211.68
905.64	211.71
905.95	211.71
906.25	211.71
906.56	211.65
906.86	211.65
907.17	211.60
907.47	211.61
907.77	211.64
908.08	211.52
908.38	211.51
908.69	211.59
908.99	211.62
909.30	211.68
909.60	211.70
909.90	211.78
910.21	211.76
910.51	211.69
910.81	211.67
911.12	211.70
911.42	211.74
911.73	211.43
912.03	211.40
912.33	211.45
912.64	211.41
912.94	211.41
913.24	211.37
913.55	211.42
913.85	211.39
914.15	211.40
914.46	211.44
914.76	211.43
915.06	211.41
915.37	211.33
915.67	211.28
915.97	211.22
916.27	211.08
916.58	211.10
916.88	211.07
917.18	211.01
917.49	211.28
917.79	211.21
918.09	211.20
918.39	211.32
918.70	211.26
919.00	211.29
919.30	211.49
919.60	211.45
919.91	211.35
920.21	211.44
920.51	211.30
920.81	211.34
921.12	211.37
921.42	211.33
921.72	211.35
922.02	211.37
922.32	211.40
922.63	211.41
922.93	211.55
923.23	211.56
923.53	211.52
923.83	211.30
924.13	211.30
924.44	211.33
924.74	211.38
925.04	211.43
925.34	211.36
925.64	211.18
925.94	211.14
926.24	211.31
926.55	211.20
926.85	211.28
927.15	211.25
927.45	211.21
927.75	211.20
928.05	211.24
928.35	211.19
928.65	211.22
928.95	211.25
929.26	211.05
929.56	211.07
929.86	211.16
930.16	211.06
930.46	211.09
930.76	211.08
931.06	210.93
931.36	210.88
931.66	211.03
931.96	211.00
932.26	211.05
932.56	210.92
932.86	211.06
933.16	211.08
933.46	211.00
933.76	210.95
934.06	210.98
934.36	211.03
934.66	211.02
934.96	211.08
935.26	211.04
935.56	211.10
935.86	211.06
936.16	211.04
936.46	211.04
936.76	210.95
937.06	210.99
937.36	210.93
937.66	210.96
937.96	210.87
938.26	210.86
938.56	210.85
938.86	210.81
939.16	210.76
939.46	210.71
939.76	210.81
940.06	210.78
940.35	210.71
940.65	210.60
940.95	210.62
941.25	210.50
941.55	210.49
941.85	210.50
942.15	210.59
942.45	210.60
942.75	210.62
943.04	210.66
943.34	210.62
943.64	210.64
943.94	210.62
944.24	210.63
944.54	210.70
944.84	210.66
945.13	210.59
945.43	210.50
945.73	210.51
946.03	210.50
946.33	210.49
946.62	210.43
946.92	210.37
947.22	210.42
947.52	210.46
947.82	210.54
948.11	210.50
948.41	210.41
948.71	210.36
949.01	210.33
949.31	210.35
949.60	210.37
949.90	210.42
950.20	210.37
950.50	210.39
950.79	210.34
951.09	210.46
951.39	210.50
951.69	210.55
951.98	210.69
952.28	210.69
952.58	210.76
952.87	210.80
953.17	210.86
953.47	210.81
953.76	210.78
954.06	210.75
954.36	210.69
954.66	210.70
954.95	210.77
955.25	210.79
955.55	210.85
955.84	210.75
956.14	210.74
956.44	210.83
956.73	210.71
957.03	210.72
957.32	210.67
957.62	210.71
957.92	210.76
958.21	210.66
958.51	211.02
958.81	211.02
959.10	211.05
959.40	211.16
959.69	211.19
959.99	211.24
960.29	211.22
960.58	211.24
960.88	211.33
961.17	211.32
961.47	211.45
961.76	211.38
962.06	211.50
962.36	211.49
962.65	211.45
962.95	211.58
963.24	211.61
963.54	211.63
963.83	211.68
964.13	211.70
964.42	211.59
964.72	211.33
965.01	211.31
965.31	211.30
965.60	211.22
965.90	211.50
966.19	211.40
966.49	211.39
966.78	211.38
967.08	211.41
967.37	211.41
967.67	211.23
967.96	211.29
968.26	211.28
968.55	211.29
968.85	211.35
969.14	211.28
969.43	211.21
969.73	211.17
970.02	211.10
970.32	211.04
970.61	211.05
970.91	211.00
971.20	210.95
971.49	210.98
971.79	210.95
972.08	210.63
972.38	210.65
972.67	210.62
972.96	210.72
973.26	210.66
973.55	210.77
973.85	210.83
974.14	210.79
974.43	210.83
974.73	210.76
975.02	210.70
975.31	210.71
975.61	210.72
975.90	210.72
976.19	210.70
976.49	210.76
976.78	210.85
977.07	210.84
977.37	210.85
977.66	210.82
977.95	210.81
978.24	210.87
978.54	210.98
978.83	210.95
979.12	210.89
979.42	210.88
979.71	210.70
980.00	210.65
980.29	210.70
980.59	210.60
980.88	210.68
981.17	210.67
981.46	210.70
981.76	210.74
982.05	210.84
982.34	210.89
982.63	210.78
982.93	210.73
983.22	210.79
983.51	210.85
983.80	210.92
984.09	210.99
984.39	210.88
984.68	210.86
984.97	210.92
985.26	210.89
985.55	210.88
985.85	210.92
986.14	210.95
986.43	211.01
986.72	211.07
987.01	210.94
987.30	210.90
987.59	210.85
987.89	210.85
988.18	210.74
988.47	210.68
988.76	210.71
989.05	210.69
989.34	210.67
989.63	210.75
989.92	210.72
990.22	210.67
990.51	210.70
990.80	210.65
991.09	210.69
991.38	210.75
991.67	210.74
991.96	210.68
992.25	210.72
992.54	210.60
992.83	210.51
993.12	210.54
993.41	210.65
993.70	210.75
993.99	210.83
994.28	210.93
994.58	211.00
994.87	210.97
995.16	210.97
995.45	210.91
995.74	210.77
996.03	210.76
996.32	210.84
996.61	210.96
996.90	211.00
997.19	210.95
997.48	210.96
997.77	210.92
998.06	210.94
998.34	210.94
998.63	211.02
998.92	211.04
999.21	211.05
999.50	211.06
999.79	210.96
1000.08	210.79
1000.37	210.70
1000.66	210.69
1000.95	210.78
1001.24	210.81
1001.53	210.86
1001.82	210.90
1002.11	210.85
1002.40	210.85
1002.68	210.91
1002.97	211.14
1003.26	211.17
1003.55	211.07
1003.84	211.17
1004.13	211.34
1004.42	211.28
1004.71	211.24
1004.99	211.22
1005.28	211.37
1005.57	211.34
1005.86	211.30
1006.15	211.44
1006.44	211.39
1006.72	211.44
1007.01	211.36
1007.30	211.33
1007.59	211.26
1007.88	211.19
1008.17	211.18
1008.45	211.13
1008.74	210.98
1009.03	210.78
1009.32	210.77
1009.60	210.79
1009.89	210.68
1010.18	210.49
1010.47	210.48
1010.76	210.52
1011.04	210.55
1011.33	210.61
1011.62	210.68
1011.91	210.69
1012.19	210.69
1012.48	210.75
1012.77	210.70
1013.05	210.94
1013.34	211.01
1013.63	210.99
1013.92	211.07
1014.20	211.10
1014.49	211.12
1014.78	211.17
1015.06	211.10
1015.35	211.01
1015.64	211.14
1015.92	211.20
1016.21	211.18
1016.50	211.24
1016.78	211.23
1017.07	211.28
1017.36	211.12
1017.64	211.02
1017.93	211.10
1018.22	211.04
1018.50	210.91
1018.79	210.92
1019.08	210.66
1019.36	210.64
1019.65	210.65
1019.93	210.68
1020.22	210.78
1020.51	210.95
1020.79	210.87
1021.08	210.25
1021.36	207.80
1021.65	210.60
1021.94	210.00
1022.22	211.10
1022.51	210.25
1022.79	211.80
1023.08	212.55
1023.36	215.10
1023.65	209.75
>>>>>End Processed Spectral Data<<<<<
