SpectraSuite Data File
++++++++++++++++++++++++++++++++++++
Date: Mon Feb 25 17:16:25 EST 2013
User: group
Dark Spectrum Present: No
Reference Spectrum Present: No
Number of Sampled Component Spectra: 1
Spectrometers: USB2E7196
Integration Time (usec): 104000 (USB2E7196)
Spectra Averaged: 20 (USB2E7196)
Boxcar Smoothing: 10 (USB2E7196)
Correct for Electrical Dark: No (USB2E7196)
Strobe/Lamp Enabled: No (USB2E7196)
Correct for Detector Non-linearity: No (USB2E7196)
Correct for Stray Light: No (USB2E7196)
Number of Pixels in Processed Spectrum: 2048
>>>>>Begin Processed Spectral Data<<<<<
339.09	0.00
339.48	198.90
339.86	198.00
340.24	200.75
340.63	203.35
341.01	208.45
341.39	205.75
341.78	207.10
342.16	208.25
342.54	209.20
342.93	198.38
343.31	208.37
343.69	208.94
344.07	209.55
344.46	210.05
344.84	210.45
345.22	210.55
345.60	210.83
345.99	211.06
346.37	211.20
346.75	211.33
347.13	211.39
347.52	211.46
347.90	211.54
348.28	211.57
348.66	211.67
349.05	211.59
349.43	211.72
349.81	211.82
350.19	211.97
350.57	212.05
350.96	212.14
351.34	212.27
351.72	212.35
352.10	212.41
352.48	212.45
352.87	212.57
353.25	212.67
353.63	212.70
354.01	212.74
354.39	212.87
354.77	212.94
355.15	213.11
355.54	213.07
355.92	213.08
356.30	213.10
356.68	213.35
357.06	213.48
357.44	213.42
357.82	213.47
358.20	213.52
358.58	213.53
358.97	213.66
359.35	213.79
359.73	213.93
360.11	214.02
360.49	214.17
360.87	214.19
361.25	214.24
361.63	214.40
362.01	214.47
362.39	214.48
362.77	214.59
363.15	214.60
363.53	214.62
363.91	214.60
364.29	214.66
364.67	214.39
365.05	214.38
365.43	214.52
365.81	214.54
366.19	214.69
366.57	214.90
366.95	214.93
367.33	214.85
367.71	214.80
368.09	214.86
368.47	214.78
368.85	214.73
369.23	214.78
369.61	214.68
369.99	214.83
370.37	214.86
370.75	214.97
371.13	214.99
371.51	214.94
371.89	214.96
372.27	214.97
372.65	215.00
373.03	214.87
373.41	214.80
373.78	214.68
374.16	214.48
374.54	214.28
374.92	214.17
375.30	214.16
375.68	213.98
376.06	213.90
376.44	213.87
376.82	213.83
377.19	213.78
377.57	213.73
377.95	213.53
378.33	213.39
378.71	213.10
379.09	212.96
379.47	212.99
379.84	212.87
380.22	212.82
380.60	212.63
380.98	212.66
381.36	212.53
381.73	212.49
382.11	212.52
382.49	212.47
382.87	212.37
383.25	212.28
383.62	212.67
384.00	212.57
384.38	212.53
384.76	212.55
385.13	212.66
385.51	212.62
385.89	212.54
386.27	212.51
386.64	212.54
387.02	212.48
387.40	212.43
387.78	212.49
388.15	212.42
388.53	212.41
388.91	212.39
389.29	212.30
389.66	212.32
390.04	212.24
390.42	212.26
390.79	212.27
391.17	212.29
391.55	211.90
391.92	211.88
392.30	211.90
392.68	211.84
393.05	211.76
393.43	211.85
393.81	211.90
394.18	211.93
394.56	211.92
394.94	211.98
395.31	211.99
395.69	212.11
396.06	212.17
396.44	212.20
396.82	212.17
397.19	212.46
397.57	212.43
397.95	212.42
398.32	212.42
398.70	212.46
399.07	212.57
399.45	212.59
399.82	212.58
400.20	212.54
400.58	212.59
400.95	212.58
401.33	212.55
401.70	212.75
402.08	212.82
402.45	212.91
402.83	213.10
403.20	213.10
403.58	213.00
403.95	213.17
404.33	213.30
404.71	213.39
405.08	213.61
405.46	213.74
405.83	213.98
406.21	214.03
406.58	214.21
406.96	214.32
407.33	214.50
407.70	214.83
408.08	215.32
408.45	215.57
408.83	215.77
409.20	216.00
409.58	216.09
409.95	216.38
410.33	216.71
410.70	216.86
411.08	217.26
411.45	217.68
411.82	218.00
412.20	218.49
412.57	219.11
412.95	219.25
413.32	219.81
413.69	220.26
414.07	220.88
414.44	221.40
414.82	221.98
415.19	222.70
415.56	223.43
415.94	224.03
416.31	224.95
416.68	225.83
417.06	226.85
417.43	227.86
417.81	228.88
418.18	229.96
418.55	231.18
418.93	232.35
419.30	233.64
419.67	234.94
420.04	236.32
420.42	237.65
420.79	239.65
421.16	241.35
421.54	243.29
421.91	245.10
422.28	247.03
422.66	249.10
423.03	251.29
423.40	253.21
423.77	255.43
424.15	257.54
424.52	259.82
424.89	262.35
425.26	264.68
425.64	267.02
426.01	269.56
426.38	272.20
426.75	275.02
427.13	277.79
427.50	280.74
427.87	283.73
428.24	286.71
428.61	289.44
428.99	292.73
429.36	295.97
429.73	299.39
430.10	302.79
430.47	306.19
430.85	309.58
431.22	313.38
431.59	317.51
431.96	321.30
432.33	325.58
432.70	329.50
433.08	334.27
433.45	338.72
433.82	343.30
434.19	348.24
434.56	353.08
434.93	357.71
435.30	362.37
435.68	367.45
436.05	372.54
436.42	377.58
436.79	382.19
437.16	387.13
437.53	392.29
437.90	397.49
438.27	402.63
438.64	407.91
439.01	412.87
439.38	417.09
439.75	421.16
440.13	425.93
440.50	430.58
440.87	434.35
441.24	438.17
441.61	442.29
441.98	445.40
442.35	448.92
442.72	452.53
443.09	456.07
443.46	458.14
443.83	459.64
444.20	460.85
444.57	462.43
444.94	463.11
445.31	464.09
445.68	465.12
446.05	465.24
446.42	464.60
446.79	463.97
447.16	463.14
447.53	462.75
447.90	460.55
448.27	458.41
448.64	455.51
449.01	453.42
449.37	449.86
449.74	446.40
450.11	442.61
450.48	438.24
450.85	433.60
451.22	429.73
451.59	426.03
451.96	422.42
452.33	417.81
452.70	413.71
453.07	408.54
453.43	403.09
453.80	398.36
454.17	393.71
454.54	389.11
454.91	384.40
455.28	379.63
455.65	375.45
456.02	371.61
456.38	368.01
456.75	363.58
457.12	359.79
457.49	356.14
457.86	352.33
458.23	349.31
458.59	345.93
458.96	342.55
459.33	339.41
459.70	336.38
460.07	333.98
460.43	331.15
460.80	328.58
461.17	326.30
461.54	323.89
461.91	321.61
462.27	319.28
462.64	317.29
463.01	315.20
463.38	313.23
463.74	310.73
464.11	308.71
464.48	307.17
464.85	305.31
465.21	304.02
465.58	302.68
465.95	300.84
466.32	299.47
466.68	298.10
467.05	296.80
467.42	295.39
467.78	293.96
468.15	292.65
468.52	291.64
468.88	290.31
469.25	289.24
469.62	288.38
469.98	287.44
470.35	286.50
470.72	285.70
471.08	284.69
471.45	284.02
471.82	283.46
472.18	282.60
472.55	282.08
472.92	281.26
473.28	280.61
473.65	280.09
474.02	279.55
474.38	279.23
474.75	278.86
475.11	278.60
475.48	278.32
475.85	278.13
476.21	277.95
476.58	277.93
476.94	277.87
477.31	277.76
477.67	277.75
478.04	277.85
478.41	278.06
478.77	278.60
479.14	278.74
479.50	279.03
479.87	279.45
480.23	279.85
480.60	280.27
480.96	280.72
481.33	281.48
481.69	282.04
482.06	282.60
482.42	283.24
482.79	283.94
483.15	284.74
483.52	285.66
483.88	286.50
484.25	287.41
484.61	288.37
484.98	289.40
485.34	290.65
485.71	292.02
486.07	293.24
486.44	294.30
486.80	295.77
487.17	297.33
487.53	299.08
487.90	300.96
488.26	302.99
488.62	304.99
488.99	306.89
489.35	309.16
489.72	311.51
490.08	314.00
490.44	316.39
490.81	319.09
491.17	321.86
491.54	324.94
491.90	328.16
492.26	331.49
492.63	335.02
492.99	338.72
493.36	342.44
493.72	346.54
494.08	350.72
494.45	355.21
494.81	359.78
495.17	364.47
495.54	369.49
495.90	374.66
496.26	380.05
496.63	385.83
496.99	391.79
497.35	397.82
497.72	404.39
498.08	411.03
498.44	417.96
498.80	425.41
499.17	432.92
499.53	440.68
499.89	448.81
500.26	457.15
500.62	465.66
500.98	474.62
501.34	483.88
501.71	493.44
502.07	503.10
502.43	513.15
502.79	523.36
503.16	534.19
503.52	545.10
503.88	556.43
504.24	568.08
504.60	580.05
504.97	592.40
505.33	604.82
505.69	618.23
506.05	631.58
506.41	645.17
506.78	659.06
507.14	673.12
507.50	687.60
507.86	702.60
508.22	717.76
508.59	733.17
508.95	749.02
509.31	765.30
509.67	781.86
510.03	798.86
510.39	816.29
510.75	833.82
511.12	851.75
511.48	869.85
511.84	888.16
512.20	906.62
512.56	925.91
512.92	945.42
513.28	964.73
513.64	984.42
514.00	1004.04
514.37	1024.13
514.73	1044.45
515.09	1065.13
515.45	1085.46
515.81	1106.18
516.17	1127.15
516.53	1148.19
516.89	1169.18
517.25	1190.35
517.61	1211.79
517.97	1233.38
518.33	1254.71
518.69	1276.14
519.05	1297.71
519.41	1319.38
519.77	1341.61
520.13	1363.03
520.49	1384.33
520.85	1405.85
521.21	1427.69
521.57	1449.96
521.93	1471.31
522.29	1493.85
522.65	1515.69
523.01	1537.67
523.37	1559.13
523.73	1581.00
524.09	1602.49
524.45	1624.19
524.81	1646.01
525.17	1667.36
525.53	1688.70
525.89	1710.14
526.25	1731.32
526.61	1751.72
526.97	1772.59
527.33	1792.91
527.68	1813.81
528.04	1833.94
528.40	1853.52
528.76	1873.18
529.12	1892.92
529.48	1913.64
529.84	1932.83
530.20	1951.94
530.56	1971.45
530.91	1991.43
531.27	2010.99
531.63	2029.90
531.99	2048.70
532.35	2066.66
532.71	2084.62
533.07	2102.84
533.42	2119.94
533.78	2137.83
534.14	2155.27
534.50	2171.28
534.86	2188.26
535.21	2203.67
535.57	2220.61
535.93	2236.76
536.29	2252.51
536.65	2267.99
537.00	2282.07
537.36	2295.94
537.72	2309.86
538.08	2323.71
538.44	2337.03
538.79	2349.88
539.15	2362.93
539.51	2375.92
539.87	2389.43
540.22	2401.81
540.58	2414.63
540.94	2427.05
541.29	2437.88
541.65	2448.80
542.01	2460.21
542.37	2470.32
542.72	2481.05
543.08	2490.62
543.44	2501.30
543.79	2510.23
544.15	2518.39
544.51	2527.68
544.87	2537.29
545.22	2545.75
545.58	2553.01
545.94	2559.76
546.29	2565.90
546.65	2571.75
547.01	2577.23
547.36	2582.45
547.72	2587.48
548.07	2591.26
548.43	2595.20
548.79	2598.81
549.14	2602.60
549.50	2605.93
549.86	2608.99
550.21	2611.70
550.57	2614.66
550.92	2615.93
551.28	2617.55
551.64	2619.81
551.99	2621.82
552.35	2622.66
552.70	2623.45
553.06	2624.59
553.41	2625.58
553.77	2626.64
554.13	2627.33
554.48	2628.05
554.84	2628.34
555.19	2628.23
555.55	2627.42
555.90	2626.29
556.26	2625.51
556.61	2624.29
556.97	2622.70
557.32	2621.59
557.68	2619.39
558.03	2616.80
558.39	2615.18
558.74	2614.31
559.10	2612.37
559.45	2609.57
559.81	2607.75
560.16	2605.02
560.52	2602.57
560.87	2599.73
561.23	2596.11
561.58	2593.64
561.94	2589.59
562.29	2585.18
562.64	2581.83
563.00	2578.83
563.35	2576.56
563.71	2574.50
564.06	2571.74
564.42	2569.33
564.77	2566.22
565.12	2563.61
565.48	2560.74
565.83	2557.63
566.19	2554.28
566.54	2549.65
566.89	2545.33
567.25	2541.20
567.60	2537.71
567.96	2533.31
568.31	2529.13
568.66	2524.65
569.02	2519.24
569.37	2513.70
569.72	2509.05
570.08	2503.93
570.43	2498.41
570.78	2491.86
571.14	2484.77
571.49	2478.18
571.84	2471.79
572.20	2464.77
572.55	2458.43
572.90	2451.30
573.26	2443.35
573.61	2435.41
573.96	2428.73
574.31	2420.98
574.67	2412.36
575.02	2403.79
575.37	2395.91
575.72	2387.21
576.08	2379.91
576.43	2371.55
576.78	2364.06
577.13	2356.84
577.49	2348.85
577.84	2340.77
578.19	2333.86
578.54	2327.28
578.90	2320.57
579.25	2312.91
579.60	2304.50
579.95	2295.80
580.30	2288.35
580.66	2281.06
581.01	2272.99
581.36	2264.29
581.71	2256.40
582.06	2248.79
582.42	2241.02
582.77	2232.28
583.12	2224.37
583.47	2216.07
583.82	2208.81
584.17	2200.93
584.53	2192.74
584.88	2184.75
585.23	2176.66
585.58	2167.96
585.93	2159.10
586.28	2151.00
586.63	2142.43
586.98	2134.91
587.34	2127.68
587.69	2119.38
588.04	2111.44
588.39	2103.90
588.74	2096.04
589.09	2088.73
589.44	2080.20
589.79	2072.90
590.14	2065.81
590.49	2058.22
590.84	2050.69
591.19	2043.38
591.54	2035.85
591.89	2026.72
592.25	2018.77
592.60	2010.42
592.95	2002.28
593.30	1993.44
593.65	1984.25
594.00	1976.17
594.35	1969.34
594.70	1961.13
595.05	1953.33
595.40	1945.25
595.75	1936.55
596.10	1928.95
596.45	1921.20
596.80	1914.42
597.15	1906.89
597.50	1898.79
597.85	1891.63
598.19	1883.81
598.54	1876.07
598.89	1868.52
599.24	1862.72
599.59	1855.77
599.94	1849.78
600.29	1843.02
600.64	1836.62
600.99	1829.43
601.34	1822.77
601.69	1814.60
602.04	1807.27
602.39	1799.84
602.74	1793.05
603.08	1787.27
603.43	1781.10
603.78	1774.15
604.13	1767.28
604.48	1760.21
604.83	1754.66
605.18	1748.93
605.53	1742.27
605.87	1735.12
606.22	1728.86
606.57	1721.46
606.92	1714.19
607.27	1706.35
607.62	1699.01
607.96	1692.37
608.31	1686.60
608.66	1679.06
609.01	1671.60
609.36	1664.33
609.70	1656.75
610.05	1649.13
610.40	1641.42
610.75	1633.43
611.10	1626.46
611.44	1617.41
611.79	1609.18
612.14	1600.23
612.49	1590.56
612.83	1582.44
613.18	1573.96
613.53	1565.31
613.88	1556.63
614.22	1548.75
614.57	1540.73
614.92	1532.34
615.27	1523.82
615.61	1514.94
615.96	1507.00
616.31	1499.54
616.65	1492.14
617.00	1484.69
617.35	1476.82
617.70	1468.47
618.04	1459.74
618.39	1450.39
618.74	1443.27
619.08	1435.06
619.43	1427.11
619.78	1419.56
620.12	1411.63
620.47	1404.14
620.82	1395.75
621.16	1387.63
621.51	1379.49
621.85	1371.49
622.20	1363.46
622.55	1355.31
622.89	1347.35
623.24	1339.56
623.59	1331.34
623.93	1323.29
624.28	1315.49
624.62	1307.85
624.97	1300.29
625.32	1293.36
625.66	1286.52
626.01	1278.92
626.35	1272.09
626.70	1264.70
627.04	1257.62
627.39	1250.53
627.73	1243.18
628.08	1236.92
628.43	1229.78
628.77	1222.37
629.12	1215.28
629.46	1208.92
629.81	1202.07
630.15	1195.09
630.50	1188.05
630.84	1180.75
631.19	1173.77
631.53	1166.92
631.88	1159.47
632.22	1152.08
632.57	1145.28
632.91	1138.05
633.26	1131.30
633.60	1124.27
633.95	1117.85
634.29	1110.85
634.64	1104.28
634.98	1097.22
635.32	1090.52
635.67	1084.41
636.01	1078.18
636.36	1071.51
636.70	1065.02
637.05	1058.62
637.39	1052.38
637.73	1046.49
638.08	1041.02
638.42	1035.26
638.77	1029.30
639.11	1023.35
639.45	1017.50
639.80	1011.03
640.14	1004.66
640.49	998.34
640.83	992.16
641.17	985.73
641.52	979.56
641.86	973.06
642.20	967.24
642.55	960.59
642.89	954.02
643.23	947.58
643.58	941.66
643.92	935.20
644.26	929.10
644.61	923.06
644.95	916.55
645.29	910.13
645.64	903.48
645.98	897.28
646.32	891.56
646.66	885.39
647.01	879.52
647.35	873.92
647.69	867.79
648.04	861.91
648.38	856.02
648.72	850.08
649.06	844.33
649.41	838.26
649.75	832.54
650.09	827.12
650.43	821.67
650.78	815.75
651.12	810.00
651.46	804.36
651.80	798.83
652.14	793.40
652.49	787.72
652.83	782.15
653.17	776.02
653.51	770.24
653.85	764.85
654.20	759.25
654.54	753.49
654.88	748.19
655.22	742.73
655.56	737.21
655.90	731.86
656.25	726.35
656.59	721.09
656.93	715.88
657.27	710.60
657.61	705.06
657.95	700.13
658.29	694.98
658.64	690.00
658.98	684.74
659.32	679.40
659.66	674.37
660.00	669.36
660.34	664.31
660.68	659.11
661.02	654.21
661.36	649.55
661.70	645.12
662.05	640.54
662.39	636.10
662.73	631.74
663.07	627.42
663.41	623.11
663.75	618.86
664.09	614.36
664.43	609.82
664.77	605.60
665.11	601.10
665.45	597.11
665.79	592.99
666.13	589.01
666.47	584.97
666.81	581.10
667.15	577.14
667.49	573.62
667.83	570.09
668.17	566.32
668.51	562.71
668.85	559.08
669.19	555.61
669.53	551.85
669.87	548.21
670.21	544.76
670.55	541.14
670.89	537.94
671.23	534.83
671.57	531.63
671.91	528.22
672.25	524.90
672.58	521.53
672.92	518.25
673.26	515.12
673.60	512.11
673.94	508.95
674.28	505.84
674.62	502.84
674.96	499.89
675.30	497.00
675.64	493.77
675.97	490.69
676.31	487.81
676.65	485.07
676.99	482.38
677.33	479.38
677.67	476.60
678.01	473.44
678.34	470.52
678.68	467.72
679.02	464.99
679.36	462.41
679.70	459.67
680.04	456.90
680.37	453.99
680.71	451.37
681.05	448.83
681.39	446.32
681.73	443.79
682.06	441.31
682.40	438.77
682.74	436.38
683.08	433.99
683.42	431.24
683.75	428.89
684.09	426.23
684.43	423.82
684.77	421.32
685.10	419.07
685.44	416.67
685.78	414.23
686.12	412.10
686.45	409.83
686.79	407.62
687.13	405.53
687.46	403.50
687.80	401.41
688.14	399.19
688.48	397.10
688.81	394.84
689.15	392.66
689.49	390.42
689.82	388.35
690.16	386.07
690.50	384.02
690.83	381.80
691.17	379.70
691.51	377.62
691.84	375.81
692.18	373.84
692.52	372.00
692.85	370.34
693.19	368.54
693.52	366.67
693.86	364.77
694.20	362.85
694.53	361.03
694.87	359.10
695.21	357.30
695.54	355.39
695.88	353.60
696.21	351.75
696.55	350.20
696.88	348.47
697.22	346.85
697.56	345.30
697.89	343.59
698.23	342.16
698.56	340.60
698.90	339.05
699.23	337.40
699.57	335.77
699.90	334.09
700.24	332.38
700.58	330.91
700.91	329.53
701.25	328.30
701.58	326.88
701.92	325.54
702.25	324.08
702.59	322.75
702.92	321.38
703.26	320.11
703.59	318.79
703.93	317.76
704.26	316.54
704.60	315.30
704.93	314.07
705.26	312.78
705.60	311.61
705.93	310.29
706.27	309.35
706.60	308.30
706.94	307.42
707.27	306.28
707.61	305.06
707.94	303.90
708.27	302.43
708.61	301.26
708.94	300.12
709.28	299.11
709.61	298.08
709.94	297.12
710.28	296.08
710.61	295.02
710.95	293.75
711.28	292.96
711.61	291.97
711.95	291.14
712.28	290.14
712.61	289.15
712.95	288.42
713.28	287.50
713.61	286.50
713.95	285.46
714.28	284.63
714.61	283.80
714.95	283.02
715.28	282.27
715.61	281.38
715.95	280.55
716.28	279.65
716.61	278.82
716.95	277.94
717.28	277.20
717.61	276.46
717.94	275.71
718.28	274.69
718.61	273.88
718.94	273.02
719.27	272.31
719.61	271.63
719.94	270.89
720.27	270.05
720.60	269.36
720.94	268.64
721.27	268.01
721.60	267.36
721.93	266.72
722.27	266.20
722.60	265.80
722.93	265.21
723.26	264.74
723.59	264.13
723.93	263.57
724.26	262.91
724.59	262.38
724.92	261.85
725.25	261.46
725.59	260.95
725.92	260.52
726.25	259.99
726.58	259.54
726.91	259.03
727.24	258.58
727.57	258.11
727.91	257.52
728.24	257.07
728.57	256.57
728.90	256.00
729.23	255.42
729.56	255.05
729.89	254.52
730.22	253.95
730.55	253.41
730.89	252.96
731.22	252.55
731.55	252.01
731.88	251.50
732.21	250.94
732.54	250.48
732.87	250.00
733.20	249.62
733.53	249.18
733.86	248.73
734.19	248.22
734.52	247.80
734.85	247.73
735.18	247.29
735.51	246.99
735.84	246.70
736.17	246.47
736.50	245.83
736.83	245.90
737.16	245.56
737.49	245.23
737.82	244.88
738.15	244.50
738.48	244.17
738.81	243.88
739.14	243.52
739.47	243.13
739.80	242.75
740.13	242.34
740.46	241.97
740.79	241.59
741.12	241.32
741.45	240.98
741.78	240.41
742.11	240.20
742.44	239.80
742.77	239.50
743.10	239.11
743.43	238.79
743.75	238.04
744.08	238.17
744.41	237.92
744.74	237.58
745.07	237.30
745.40	237.11
745.73	236.94
746.06	236.61
746.39	236.40
746.71	236.14
747.04	235.88
747.37	235.56
747.70	235.29
748.03	235.07
748.36	234.87
748.68	234.57
749.01	234.17
749.34	233.95
749.67	233.68
750.00	233.44
750.33	233.43
750.65	233.29
750.98	232.63
751.31	232.28
751.64	232.05
751.97	232.04
752.29	231.69
752.62	231.25
752.95	231.03
753.28	230.76
753.60	230.49
753.93	230.37
754.26	230.13
754.59	229.92
754.91	229.65
755.24	229.38
755.57	229.25
755.90	229.09
756.22	228.87
756.55	228.66
756.88	228.39
757.20	227.97
757.53	227.65
757.86	227.47
758.19	227.34
758.51	227.12
758.84	226.75
759.17	226.53
759.49	226.43
759.82	226.44
760.15	226.27
760.47	226.07
760.80	225.85
761.13	225.72
761.45	225.45
761.78	225.28
762.11	225.16
762.43	224.90
762.76	224.74
763.08	224.63
763.41	224.47
763.74	224.28
764.06	224.13
764.39	223.98
764.71	223.82
765.04	223.67
765.37	223.59
765.69	223.32
766.02	223.23
766.34	223.05
766.67	222.75
767.00	222.70
767.32	222.78
767.65	222.81
767.97	222.64
768.30	222.61
768.62	222.47
768.95	222.22
769.27	222.17
769.60	222.05
769.92	221.83
770.25	221.70
770.57	221.60
770.90	221.43
771.22	221.29
771.55	221.18
771.87	221.02
772.20	220.85
772.52	221.10
772.85	221.39
773.17	221.26
773.50	221.15
773.82	220.98
774.15	220.72
774.47	220.40
774.80	220.30
775.12	220.17
775.45	220.05
775.77	220.01
776.09	219.90
776.42	219.78
776.74	219.79
777.07	219.68
777.39	219.54
777.72	219.45
778.04	219.45
778.36	219.30
778.69	219.28
779.01	219.24
779.33	218.83
779.66	218.34
779.98	218.27
780.31	218.20
780.63	218.20
780.95	218.24
781.28	218.22
781.60	218.18
781.92	218.13
782.25	218.08
782.57	218.12
782.89	217.93
783.22	217.88
783.54	217.73
783.86	217.62
784.19	217.58
784.51	217.64
784.83	217.47
785.16	217.43
785.48	217.39
785.80	217.30
786.12	217.31
786.45	217.25
786.77	217.20
787.09	217.15
787.42	217.01
787.74	216.93
788.06	216.83
788.38	216.65
788.71	216.53
789.03	216.55
789.35	216.52
789.67	216.48
789.99	216.43
790.32	216.40
790.64	216.45
790.96	216.75
791.28	216.68
791.61	216.62
791.93	216.61
792.25	216.49
792.57	216.72
792.89	216.63
793.21	216.56
793.54	216.61
793.86	216.53
794.18	216.51
794.50	216.43
794.82	216.38
795.14	216.47
795.47	216.50
795.79	216.42
796.11	216.29
796.43	216.26
796.75	216.23
797.07	216.16
797.39	216.09
797.71	215.83
798.04	215.76
798.36	215.76
798.68	215.67
799.00	215.71
799.32	215.51
799.64	215.45
799.96	215.52
800.28	215.55
800.60	215.55
800.92	215.56
801.24	215.47
801.56	215.54
801.89	215.38
802.21	215.38
802.53	215.27
802.85	215.33
803.17	215.52
803.49	215.43
803.81	215.38
804.13	215.33
804.45	215.22
804.77	215.16
805.09	215.18
805.41	215.15
805.73	215.12
806.05	215.01
806.37	215.04
806.69	214.96
807.01	214.79
807.33	214.79
807.65	214.59
807.97	214.72
808.28	214.65
808.60	214.72
808.92	214.66
809.24	214.86
809.56	214.69
809.88	214.49
810.20	214.46
810.52	214.52
810.84	214.43
811.16	214.37
811.48	214.31
811.80	214.40
812.12	214.37
812.43	214.35
812.75	214.34
813.07	214.27
813.39	214.31
813.71	214.28
814.03	214.23
814.35	214.29
814.67	214.13
814.98	213.99
815.30	213.92
815.62	213.86
815.94	213.55
816.26	213.58
816.58	213.45
816.89	213.47
817.21	213.40
817.53	213.42
817.85	213.44
818.17	213.45
818.48	213.29
818.80	213.34
819.12	213.23
819.44	213.16
819.76	213.12
820.07	213.09
820.39	213.10
820.71	213.04
821.03	212.96
821.34	212.89
821.66	212.98
821.98	212.97
822.30	212.95
822.61	213.15
822.93	213.07
823.25	213.08
823.57	212.99
823.88	213.05
824.20	213.06
824.52	213.10
824.83	213.03
825.15	212.95
825.47	212.91
825.79	213.00
826.10	212.95
826.42	212.95
826.74	212.97
827.05	212.94
827.37	212.94
827.69	212.93
828.00	212.92
828.32	212.88
828.64	212.87
828.95	212.98
829.27	212.91
829.58	212.96
829.90	213.06
830.22	213.17
830.53	213.02
830.85	212.96
831.17	212.84
831.48	212.85
831.80	212.87
832.11	212.81
832.43	212.73
832.75	212.75
833.06	212.91
833.38	212.71
833.69	212.65
834.01	212.65
834.32	212.64
834.64	212.66
834.96	212.67
835.27	212.63
835.59	212.60
835.90	212.46
836.22	212.41
836.53	212.37
836.85	212.33
837.16	212.75
837.48	212.69
837.79	212.79
838.11	212.82
838.42	212.85
838.74	212.92
839.05	212.93
839.37	212.90
839.68	212.71
840.00	212.72
840.31	212.77
840.63	212.81
840.94	212.72
841.26	212.67
841.57	212.73
841.88	212.82
842.20	212.67
842.51	212.67
842.83	212.66
843.14	212.87
843.46	212.88
843.77	212.60
844.08	212.61
844.40	212.57
844.71	212.52
845.03	212.46
845.34	212.43
845.65	212.40
845.97	212.33
846.28	212.36
846.60	212.41
846.91	212.31
847.22	212.27
847.54	212.41
847.85	212.47
848.16	212.41
848.48	212.30
848.79	212.48
849.10	212.48
849.42	212.50
849.73	212.19
850.04	212.20
850.36	212.12
850.67	212.22
850.98	212.23
851.30	212.27
851.61	212.29
851.92	212.29
852.23	212.38
852.55	212.43
852.86	212.38
853.17	212.39
853.49	212.54
853.80	212.52
854.11	212.56
854.42	212.54
854.74	212.42
855.05	212.45
855.36	212.25
855.67	212.36
855.99	212.42
856.30	212.89
856.61	212.78
856.92	212.78
857.23	212.75
857.55	212.63
857.86	212.63
858.17	212.65
858.48	212.62
858.79	212.58
859.11	212.64
859.42	212.67
859.73	212.65
860.04	212.59
860.35	212.55
860.66	212.35
860.98	212.43
861.29	212.53
861.60	212.52
861.91	212.63
862.22	212.51
862.53	212.46
862.84	212.04
863.16	212.14
863.47	212.08
863.78	212.04
864.09	212.09
864.40	212.08
864.71	212.07
865.02	212.06
865.33	212.02
865.64	211.90
865.95	211.86
866.27	212.07
866.58	212.00
866.89	212.00
867.20	212.06
867.51	211.91
867.82	211.81
868.13	211.89
868.44	211.82
868.75	211.87
869.06	211.86
869.37	211.90
869.68	211.80
869.99	211.85
870.30	211.83
870.61	211.87
870.92	211.84
871.23	211.81
871.54	211.83
871.85	211.94
872.16	212.05
872.47	212.09
872.78	211.82
873.09	211.89
873.40	211.93
873.71	211.94
874.02	212.01
874.33	212.10
874.64	212.07
874.95	212.11
875.26	212.01
875.56	211.95
875.87	211.86
876.18	211.84
876.49	212.18
876.80	212.16
877.11	212.09
877.42	212.10
877.73	212.08
878.04	212.07
878.35	212.02
878.66	211.98
878.96	211.91
879.27	211.96
879.58	211.92
879.89	211.86
880.20	212.03
880.51	211.98
880.82	211.90
881.12	211.87
881.43	211.79
881.74	211.83
882.05	211.79
882.36	211.85
882.67	211.94
882.97	211.52
883.28	211.52
883.59	211.51
883.90	211.52
884.21	211.67
884.51	211.58
884.82	211.52
885.13	211.56
885.44	211.60
885.74	211.51
886.05	211.50
886.36	211.57
886.67	211.40
886.98	211.66
887.28	211.73
887.59	211.69
887.90	211.75
888.20	211.72
888.51	211.86
888.82	211.80
889.13	211.87
889.43	212.17
889.74	212.10
890.05	212.06
890.35	212.04
890.66	211.85
890.97	211.91
891.28	211.89
891.58	211.90
891.89	211.86
892.20	211.87
892.50	211.83
892.81	211.75
893.12	211.75
893.42	211.49
893.73	211.51
894.04	211.53
894.34	211.56
894.65	211.57
894.95	211.51
895.26	211.52
895.57	211.54
895.87	211.23
896.18	211.32
896.48	211.37
896.79	211.35
897.10	211.47
897.40	211.44
897.71	211.40
898.01	211.35
898.32	211.37
898.63	211.38
898.93	211.36
899.24	211.43
899.54	211.41
899.85	211.40
900.15	211.33
900.46	211.33
900.76	211.33
901.07	211.36
901.38	211.37
901.68	211.45
901.99	211.31
902.29	211.30
902.60	211.30
902.90	211.32
903.21	211.33
903.51	211.33
903.82	211.42
904.12	211.46
904.43	211.48
904.73	211.51
905.03	211.55
905.34	211.92
905.64	211.81
905.95	211.86
906.25	211.87
906.56	211.88
906.86	211.90
907.17	211.83
907.47	211.84
907.77	211.75
908.08	211.58
908.38	211.54
908.69	211.62
908.99	211.71
909.30	211.75
909.60	211.78
909.90	211.83
910.21	211.71
910.51	211.74
910.81	211.73
911.12	211.68
911.42	211.69
911.73	211.35
912.03	211.40
912.33	211.42
912.64	211.37
912.94	211.26
913.24	211.18
913.55	211.16
913.85	211.13
914.15	211.28
914.46	211.43
914.76	211.49
915.06	211.41
915.37	211.36
915.67	211.28
915.97	211.22
916.27	211.09
916.58	211.09
916.88	211.08
917.18	211.03
917.49	211.28
917.79	211.20
918.09	211.29
918.39	211.44
918.70	211.49
919.00	211.50
919.30	211.74
919.60	211.73
919.91	211.74
920.21	211.77
920.51	211.60
920.81	211.51
921.12	211.51
921.42	211.52
921.72	211.54
922.02	211.60
922.32	211.70
922.63	211.74
922.93	211.93
923.23	211.87
923.53	211.85
923.83	211.63
924.13	211.74
924.44	211.76
924.74	211.79
925.04	211.79
925.34	211.86
925.64	211.66
925.94	211.69
926.24	211.89
926.55	211.79
926.85	211.91
927.15	211.92
927.45	211.93
927.75	211.96
928.05	211.93
928.35	211.83
928.65	211.87
928.95	211.85
929.26	211.67
929.56	211.82
929.86	211.87
930.16	211.85
930.46	211.82
930.76	211.70
931.06	211.47
931.36	211.35
931.66	211.40
931.96	211.48
932.26	211.52
932.56	211.33
932.86	211.35
933.16	211.36
933.46	211.35
933.76	211.29
934.06	211.39
934.36	211.44
934.66	211.46
934.96	211.37
935.26	211.45
935.56	211.48
935.86	211.41
936.16	211.34
936.46	211.30
936.76	211.23
937.06	211.23
937.36	211.31
937.66	211.35
937.96	211.31
938.26	211.33
938.56	211.25
938.86	211.25
939.16	211.37
939.46	211.36
939.76	211.36
940.06	211.27
940.35	211.18
940.65	211.05
940.95	211.05
941.25	211.02
941.55	210.91
941.85	210.94
942.15	210.99
942.45	211.07
942.75	211.09
943.04	211.12
943.34	211.14
943.64	211.07
943.94	211.00
944.24	211.00
944.54	210.95
944.84	211.00
945.13	211.02
945.43	210.91
945.73	210.86
946.03	210.84
946.33	210.85
946.62	210.83
946.92	210.80
947.22	210.89
947.52	210.87
947.82	210.93
948.11	210.85
948.41	210.72
948.71	210.64
949.01	210.61
949.31	210.59
949.60	210.60
949.90	210.67
950.20	210.73
950.50	210.72
950.79	210.69
951.09	210.62
951.39	210.61
951.69	210.53
951.98	210.61
952.28	210.70
952.58	210.75
952.87	210.76
953.17	210.84
953.47	210.77
953.76	210.81
954.06	210.76
954.36	210.76
954.66	210.76
954.95	210.83
955.25	210.96
955.55	210.97
955.84	211.02
956.14	211.09
956.44	211.11
956.73	211.08
957.03	211.12
957.32	211.20
957.62	211.20
957.92	211.35
958.21	211.30
958.51	211.62
958.81	211.70
959.10	211.74
959.40	211.82
959.69	211.93
959.99	211.91
960.29	211.96
960.58	211.99
960.88	212.18
961.17	212.21
961.47	212.19
961.76	212.16
962.06	212.18
962.36	212.05
962.65	212.09
962.95	212.13
963.24	212.11
963.54	212.13
963.83	212.17
964.13	212.10
964.42	212.05
964.72	211.85
965.01	211.81
965.31	211.82
965.60	211.67
965.90	211.84
966.19	211.84
966.49	211.84
966.78	211.82
967.08	211.78
967.37	211.75
967.67	211.68
967.96	211.75
968.26	211.69
968.55	211.83
968.85	211.73
969.14	211.74
969.43	211.78
969.73	211.74
970.02	211.79
970.32	211.85
970.61	211.84
970.91	211.66
971.20	211.61
971.49	211.58
971.79	211.69
972.08	211.45
972.38	211.48
972.67	211.49
972.96	211.50
973.26	211.41
973.55	211.58
973.85	211.61
974.14	211.62
974.43	211.64
974.73	211.53
975.02	211.50
975.31	211.47
975.61	211.43
975.90	211.39
976.19	211.27
976.49	211.26
976.78	211.30
977.07	211.32
977.37	211.35
977.66	211.33
977.95	211.22
978.24	211.23
978.54	211.29
978.83	211.14
979.12	211.06
979.42	211.02
979.71	210.80
980.00	210.72
980.29	210.69
980.59	210.62
980.88	210.71
981.17	210.70
981.46	210.74
981.76	210.74
982.05	210.91
982.34	210.92
982.63	210.90
982.93	210.82
983.22	210.88
983.51	210.89
983.80	210.96
984.09	211.03
984.39	211.01
984.68	210.94
984.97	211.06
985.26	211.01
985.55	211.09
985.85	211.11
986.14	211.20
986.43	211.23
986.72	211.20
987.01	211.06
987.30	211.08
987.59	210.99
987.89	210.99
988.18	210.81
988.47	210.85
988.76	210.82
989.05	210.83
989.34	210.80
989.63	210.87
989.92	210.77
990.22	210.72
990.51	210.67
990.80	210.62
991.09	210.65
991.38	210.81
991.67	210.74
991.96	210.67
992.25	210.63
992.54	210.57
992.83	210.59
993.12	210.62
993.41	210.70
993.70	210.89
993.99	210.96
994.28	211.00
994.58	211.04
994.87	210.97
995.16	210.95
995.45	210.89
995.74	210.76
996.03	210.89
996.32	210.89
996.61	210.97
996.90	211.00
997.19	210.98
997.48	210.88
997.77	210.83
998.06	210.83
998.34	210.87
998.63	210.85
998.92	210.90
999.21	210.94
999.50	210.94
999.79	210.79
1000.08	210.71
1000.37	210.80
1000.66	210.68
1000.95	210.78
1001.24	210.85
1001.53	210.93
1001.82	210.93
1002.11	210.85
1002.40	210.92
1002.68	211.02
1002.97	211.24
1003.26	211.18
1003.55	211.20
1003.84	211.31
1004.13	211.51
1004.42	211.48
1004.71	211.50
1004.99	211.42
1005.28	211.53
1005.57	211.53
1005.86	211.46
1006.15	211.49
1006.44	211.40
1006.72	211.51
1007.01	211.48
1007.30	211.51
1007.59	211.47
1007.88	211.53
1008.17	211.52
1008.45	211.46
1008.74	211.27
1009.03	211.15
1009.32	211.15
1009.60	211.18
1009.89	211.10
1010.18	211.00
1010.47	210.98
1010.76	210.98
1011.04	211.02
1011.33	211.03
1011.62	211.07
1011.91	211.17
1012.19	211.23
1012.48	211.24
1012.77	211.23
1013.05	211.45
1013.34	211.41
1013.63	211.47
1013.92	211.46
1014.20	211.49
1014.49	211.56
1014.78	211.63
1015.06	211.56
1015.35	211.57
1015.64	211.61
1015.92	211.69
1016.21	211.71
1016.50	211.66
1016.78	211.76
1017.07	211.83
1017.36	211.77
1017.64	211.69
1017.93	211.72
1018.22	211.65
1018.50	211.55
1018.79	211.50
1019.08	211.28
1019.36	211.29
1019.65	211.15
1019.93	211.27
1020.22	211.34
1020.51	211.48
1020.79	211.43
1021.08	210.45
1021.36	209.20
1021.65	210.45
1021.94	211.05
1022.22	210.85
1022.51	209.65
1022.79	213.40
1023.08	212.65
1023.36	215.60
1023.65	210.40
>>>>>End Processed Spectral Data<<<<<
