SpectraSuite Data File
++++++++++++++++++++++++++++++++++++
Date: Mon Feb 25 16:57:03 EST 2013
User: group
Dark Spectrum Present: No
Reference Spectrum Present: No
Number of Sampled Component Spectra: 1
Spectrometers: USB2E7196
Integration Time (usec): 104000 (USB2E7196)
Spectra Averaged: 20 (USB2E7196)
Boxcar Smoothing: 10 (USB2E7196)
Correct for Electrical Dark: No (USB2E7196)
Strobe/Lamp Enabled: No (USB2E7196)
Correct for Detector Non-linearity: No (USB2E7196)
Correct for Stray Light: No (USB2E7196)
Number of Pixels in Processed Spectrum: 2048
>>>>>Begin Processed Spectral Data<<<<<
339.09	0.00
339.48	196.70
339.86	199.45
340.24	199.70
340.63	201.50
341.01	207.95
341.39	205.00
341.78	207.30
342.16	209.40
342.54	208.20
342.93	197.77
343.31	207.73
343.69	208.39
344.07	208.86
344.46	209.42
344.84	209.90
345.22	210.01
345.60	210.32
345.99	210.55
346.37	210.63
346.75	210.78
347.13	210.89
347.52	211.00
347.90	211.19
348.28	211.20
348.66	211.32
349.05	211.21
349.43	211.31
349.81	211.36
350.19	211.39
350.57	211.52
350.96	211.60
351.34	211.74
351.72	211.81
352.10	211.94
352.48	211.98
352.87	212.02
353.25	212.14
353.63	212.24
354.01	212.26
354.39	212.41
354.77	212.49
355.15	212.68
355.54	212.68
355.92	212.66
356.30	212.80
356.68	213.12
357.06	213.26
357.44	213.30
357.82	213.35
358.20	213.53
358.58	213.56
358.97	213.60
359.35	213.70
359.73	213.82
360.11	213.86
360.49	213.90
360.87	213.95
361.25	214.04
361.63	214.08
362.01	214.18
362.39	214.11
362.77	214.20
363.15	214.15
363.53	214.24
363.91	214.21
364.29	214.22
364.67	213.88
365.05	213.83
365.43	213.91
365.81	213.96
366.19	214.05
366.57	214.18
366.95	214.19
367.33	214.14
367.71	214.11
368.09	214.22
368.47	214.29
368.85	214.24
369.23	214.27
369.61	214.24
369.99	214.24
370.37	214.34
370.75	214.51
371.13	214.46
371.51	214.33
371.89	214.41
372.27	214.47
372.65	214.51
373.03	214.52
373.41	214.42
373.78	214.35
374.16	214.08
374.54	213.95
374.92	213.88
375.30	213.81
375.68	213.76
376.06	213.71
376.44	213.63
376.82	213.60
377.19	213.56
377.57	213.48
377.95	213.39
378.33	213.34
378.71	212.98
379.09	212.97
379.47	212.98
379.84	212.88
380.22	212.72
380.60	212.58
380.98	212.62
381.36	212.55
381.73	212.48
382.11	212.52
382.49	212.52
382.87	212.40
383.25	212.36
383.62	212.68
384.00	212.56
384.38	212.45
384.76	212.52
385.13	212.61
385.51	212.54
385.89	212.45
386.27	212.37
386.64	212.40
387.02	212.37
387.40	212.29
387.78	212.20
388.15	212.20
388.53	212.20
388.91	212.15
389.29	212.14
389.66	212.22
390.04	212.20
390.42	212.11
390.79	212.14
391.17	212.13
391.55	211.84
391.92	211.86
392.30	211.94
392.68	211.88
393.05	211.81
393.43	211.81
393.81	211.87
394.18	211.81
394.56	211.82
394.94	211.93
395.31	211.91
395.69	212.09
396.06	212.10
396.44	212.13
396.82	212.14
397.19	212.35
397.57	212.34
397.95	212.43
398.32	212.35
398.70	212.48
399.07	212.65
399.45	212.57
399.82	212.61
400.20	212.70
400.58	212.78
400.95	212.69
401.33	212.84
401.70	213.12
402.08	213.26
402.45	213.35
402.83	213.54
403.20	213.75
403.58	213.92
403.95	214.16
404.33	214.42
404.71	214.62
405.08	215.01
405.46	215.27
405.83	215.57
406.21	215.95
406.58	216.26
406.96	216.58
407.33	217.04
407.70	217.52
408.08	218.26
408.45	218.79
408.83	219.42
409.20	219.98
409.58	220.46
409.95	221.18
410.33	221.93
410.70	222.50
411.08	223.33
411.45	224.13
411.82	225.03
412.20	226.14
412.57	227.45
412.95	228.30
413.32	229.53
413.69	230.78
414.07	232.26
414.44	233.83
414.82	235.37
415.19	237.20
415.56	239.03
415.94	240.79
416.31	243.00
416.68	245.21
417.06	247.67
417.43	250.13
417.81	252.92
418.18	255.81
418.55	258.93
418.93	262.17
419.30	265.60
419.67	269.21
420.04	272.76
420.42	276.54
420.79	281.06
421.16	285.61
421.54	290.37
421.91	295.29
422.28	300.34
422.66	305.88
423.03	311.29
423.40	316.87
423.77	322.90
424.15	328.86
424.52	335.15
424.89	342.06
425.26	348.76
425.64	355.22
426.01	362.23
426.38	369.61
426.75	377.11
427.13	384.86
427.50	392.93
427.87	401.61
428.24	410.19
428.61	418.33
428.99	427.22
429.36	436.94
429.73	446.44
430.10	455.93
430.47	465.72
430.85	475.89
431.22	486.71
431.59	498.18
431.96	509.18
432.33	521.32
432.70	533.26
433.08	547.20
433.45	560.39
433.82	573.62
434.19	588.17
434.56	602.71
434.93	616.73
435.30	630.84
435.68	646.25
436.05	661.65
436.42	677.16
436.79	691.52
437.16	706.87
437.53	723.10
437.90	739.18
438.27	755.29
438.64	771.85
439.01	787.40
439.38	801.27
439.75	815.04
440.13	830.84
440.50	845.48
440.87	857.71
441.24	870.31
441.61	884.39
441.98	895.31
442.35	907.64
442.72	919.78
443.09	931.70
443.46	939.55
443.83	945.20
444.20	950.24
444.57	957.00
444.94	960.80
445.31	964.86
445.68	968.79
446.05	970.96
446.42	970.66
446.79	970.04
447.16	969.29
447.53	969.11
447.90	964.20
448.27	959.50
448.64	952.25
449.01	947.46
449.37	937.79
449.74	928.50
450.11	917.21
450.48	905.14
450.85	892.49
451.22	881.59
451.59	871.14
451.96	861.37
452.33	848.09
452.70	836.00
453.07	821.21
453.43	806.47
453.80	792.10
454.17	778.42
454.54	765.51
454.91	751.46
455.28	737.55
455.65	724.84
456.02	711.95
456.38	701.29
456.75	687.54
457.12	676.29
457.49	664.89
457.86	653.92
458.23	644.42
458.59	634.13
458.96	623.76
459.33	614.60
459.70	605.05
460.07	597.58
460.43	589.15
460.80	581.28
461.17	574.09
461.54	566.75
461.91	559.67
462.27	552.46
462.64	546.40
463.01	539.64
463.38	533.07
463.74	526.45
464.11	520.72
464.48	515.82
464.85	510.33
465.21	506.36
465.58	501.84
465.95	496.55
466.32	492.10
466.68	487.75
467.05	483.35
467.42	479.16
467.78	474.48
468.15	470.10
468.52	466.71
468.88	462.52
469.25	458.73
469.62	455.66
469.98	452.26
470.35	449.19
470.72	446.25
471.08	443.13
471.45	440.53
471.82	437.72
472.18	434.68
472.55	432.46
472.92	429.87
473.28	427.65
473.65	425.36
474.02	423.25
474.38	421.35
474.75	419.91
475.11	418.11
475.48	416.76
475.85	415.56
476.21	414.49
476.58	413.50
476.94	412.88
477.31	412.18
477.67	411.35
478.04	410.77
478.41	410.43
478.77	410.38
479.14	409.99
479.50	409.79
479.87	409.93
480.23	410.13
480.60	410.09
480.96	410.20
481.33	410.88
481.69	411.37
482.06	411.79
482.42	412.00
482.79	412.54
483.15	413.40
483.52	414.50
483.88	415.43
484.25	416.48
484.61	417.47
484.98	418.40
485.34	419.84
485.71	421.35
486.07	423.06
486.44	424.46
486.80	426.36
487.17	428.22
487.53	430.48
487.90	432.59
488.26	435.03
488.62	437.70
488.99	440.24
489.35	442.87
489.72	445.80
490.08	448.95
490.44	452.14
490.81	455.35
491.17	458.58
491.54	462.22
491.90	465.79
492.26	469.51
492.63	473.66
492.99	477.89
493.36	482.08
493.72	486.50
494.08	491.19
494.45	496.03
494.81	501.08
495.17	506.07
495.54	511.44
495.90	516.86
496.26	522.07
496.63	527.69
496.99	533.43
497.35	539.44
497.72	545.54
498.08	551.78
498.44	557.99
498.80	564.64
499.17	571.28
499.53	578.17
499.89	585.23
500.26	592.15
500.62	598.99
500.98	606.20
501.34	613.39
501.71	620.66
502.07	627.86
502.43	635.15
502.79	642.36
503.16	649.73
503.52	657.09
503.88	664.72
504.24	672.37
504.60	680.18
504.97	687.77
505.33	695.42
505.69	703.65
506.05	711.69
506.41	719.63
506.78	727.15
507.14	734.72
507.50	742.33
507.86	749.88
508.22	757.59
508.59	765.10
508.95	772.70
509.31	780.38
509.67	788.06
510.03	795.68
510.39	803.55
510.75	811.05
511.12	818.61
511.48	826.02
511.84	833.24
512.20	840.46
512.56	847.77
512.92	855.11
513.28	862.08
513.64	869.07
514.00	875.74
514.37	882.47
514.73	889.53
515.09	896.26
515.45	902.82
515.81	909.25
516.17	915.63
516.53	921.58
516.89	927.53
517.25	933.50
517.61	939.21
517.97	944.71
518.33	950.24
518.69	955.75
519.05	961.13
519.41	966.39
519.77	971.88
520.13	976.77
520.49	981.37
520.85	986.03
521.21	990.80
521.57	995.60
521.93	1000.11
522.29	1004.66
522.65	1009.10
523.01	1013.50
523.37	1017.63
523.73	1021.84
524.09	1026.06
524.45	1030.11
524.81	1034.08
525.17	1038.39
525.53	1042.31
525.89	1046.22
526.25	1049.83
526.61	1053.10
526.97	1056.50
527.33	1059.63
527.68	1063.50
528.04	1067.12
528.40	1070.12
528.76	1073.23
529.12	1076.39
529.48	1080.03
529.84	1082.85
530.20	1085.94
530.56	1088.98
530.91	1092.45
531.27	1095.58
531.63	1098.51
531.99	1101.64
532.35	1104.40
532.71	1107.05
533.07	1110.12
533.42	1113.07
533.78	1116.12
534.14	1119.13
534.50	1121.73
534.86	1124.65
535.21	1126.89
535.57	1129.85
535.93	1132.36
536.29	1134.80
536.65	1137.35
537.00	1139.29
537.36	1141.46
537.72	1143.37
538.08	1145.72
538.44	1147.60
538.79	1149.93
539.15	1152.26
539.51	1154.13
539.87	1156.55
540.22	1158.58
540.58	1160.92
540.94	1163.18
541.29	1164.89
541.65	1166.67
542.01	1168.62
542.37	1170.20
542.72	1172.05
543.08	1173.30
543.44	1175.55
543.79	1176.88
544.15	1178.34
544.51	1180.59
544.87	1182.54
545.22	1184.43
545.58	1185.99
545.94	1187.27
546.29	1188.08
546.65	1189.04
547.01	1190.10
547.36	1191.35
547.72	1192.43
548.07	1192.95
548.43	1193.25
548.79	1193.99
549.14	1194.80
549.50	1195.65
549.86	1196.20
550.21	1196.80
550.57	1198.05
550.92	1198.27
551.28	1199.15
551.64	1199.76
551.99	1200.18
552.35	1200.66
552.70	1201.12
553.06	1201.44
553.41	1202.05
553.77	1203.17
554.13	1203.99
554.48	1204.82
554.84	1205.27
555.19	1205.79
555.55	1206.40
555.90	1206.93
556.26	1207.28
556.61	1207.54
556.97	1207.49
557.32	1207.98
557.68	1208.00
558.03	1207.70
558.39	1207.82
558.74	1208.10
559.10	1208.54
559.45	1208.43
559.81	1208.70
560.16	1208.61
560.52	1208.79
560.87	1208.62
561.23	1207.96
561.58	1208.20
561.94	1207.81
562.29	1207.10
562.64	1207.00
563.00	1206.75
563.35	1206.73
563.71	1207.08
564.06	1207.22
564.42	1207.83
564.77	1208.18
565.12	1208.60
565.48	1209.02
565.83	1209.25
566.19	1209.55
566.54	1209.07
566.89	1208.81
567.25	1209.09
567.60	1209.34
567.96	1209.74
568.31	1210.30
568.66	1210.31
569.02	1209.58
569.37	1209.05
569.72	1209.04
570.08	1208.47
570.43	1207.85
570.78	1207.11
571.14	1205.90
571.49	1204.65
571.84	1203.64
572.20	1201.97
572.55	1200.86
572.90	1198.91
573.26	1197.00
573.61	1194.89
573.96	1193.40
574.31	1191.54
574.67	1189.10
575.02	1186.64
575.37	1183.85
575.72	1181.07
576.08	1178.95
576.43	1176.50
576.78	1174.33
577.13	1172.15
577.49	1169.78
577.84	1167.40
578.19	1165.11
578.54	1163.33
578.90	1161.80
579.25	1159.50
579.60	1156.97
579.95	1153.90
580.30	1151.64
580.66	1149.61
581.01	1147.10
581.36	1144.19
581.71	1141.48
582.06	1138.77
582.42	1136.13
582.77	1133.31
583.12	1130.37
583.47	1127.37
583.82	1124.45
584.17	1121.48
584.53	1118.49
584.88	1115.43
585.23	1112.31
585.58	1109.13
585.93	1105.54
586.28	1102.34
586.63	1099.11
586.98	1096.24
587.34	1093.62
587.69	1090.19
588.04	1087.20
588.39	1084.24
588.74	1081.03
589.09	1078.04
589.44	1074.54
589.79	1071.44
590.14	1068.43
590.49	1065.31
590.84	1062.30
591.19	1059.69
591.54	1056.59
591.89	1052.83
592.25	1049.78
592.60	1046.35
592.95	1042.91
593.30	1039.11
593.65	1034.83
594.00	1030.79
594.35	1028.20
594.70	1024.42
595.05	1021.21
595.40	1017.26
595.75	1013.35
596.10	1009.99
596.45	1006.56
596.80	1003.48
597.15	1000.17
597.50	996.12
597.85	992.55
598.19	988.77
598.54	984.85
598.89	981.52
599.24	978.71
599.59	975.09
599.94	971.75
600.29	968.18
600.64	965.12
600.99	961.89
601.34	958.91
601.69	954.55
602.04	950.85
602.39	947.17
602.74	943.86
603.08	940.61
603.43	937.54
603.78	933.82
604.13	930.22
604.48	926.62
604.83	923.95
605.18	921.06
605.53	917.52
605.87	913.93
606.22	910.39
606.57	906.21
606.92	902.47
607.27	898.79
607.62	895.37
607.96	891.70
608.31	888.42
608.66	884.60
609.01	880.82
609.36	877.25
609.70	873.39
610.05	869.32
610.40	865.71
610.75	861.54
611.10	858.14
611.44	853.87
611.79	849.72
612.14	845.51
612.49	840.94
612.83	837.13
613.18	833.18
613.53	829.05
613.88	825.11
614.22	821.00
614.57	816.98
614.92	812.96
615.27	808.93
615.61	804.81
615.96	800.94
616.31	797.25
616.65	793.70
617.00	790.18
617.35	786.40
617.70	782.27
618.04	778.25
618.39	773.78
618.74	770.25
619.08	766.70
619.43	762.90
619.78	759.38
620.12	755.81
620.47	752.31
620.82	748.33
621.16	744.37
621.51	740.88
621.85	737.23
622.20	733.44
622.55	729.67
622.89	725.72
623.24	721.99
623.59	717.95
623.93	714.10
624.28	710.39
624.62	707.21
624.97	703.75
625.32	700.35
625.66	697.11
626.01	693.50
626.35	689.88
626.70	686.29
627.04	682.85
627.39	679.22
627.73	675.76
628.08	672.68
628.43	669.39
628.77	665.90
629.12	662.59
629.46	659.48
629.81	656.35
630.15	653.14
630.50	649.90
630.84	646.65
631.19	643.37
631.53	640.24
631.88	636.53
632.22	633.08
632.57	630.15
632.91	627.06
633.26	623.99
633.60	620.76
633.95	617.63
634.29	614.34
634.64	611.48
634.98	608.29
635.32	605.29
635.67	602.60
636.01	599.76
636.36	596.59
636.70	593.69
637.05	590.78
637.39	588.13
637.73	585.55
638.08	583.12
638.42	580.56
638.77	577.86
639.11	575.40
639.45	572.79
639.80	569.77
640.14	566.83
640.49	564.00
640.83	561.36
641.17	558.61
641.52	555.90
641.86	553.03
642.20	550.51
642.55	547.56
642.89	544.72
643.23	542.07
643.58	539.82
643.92	537.14
644.26	534.49
644.61	531.96
644.95	529.16
645.29	526.45
645.64	523.78
645.98	521.00
646.32	518.41
646.66	515.76
647.01	513.26
647.35	510.97
647.69	508.40
648.04	505.84
648.38	503.52
648.72	501.15
649.06	498.46
649.41	495.92
649.75	493.45
650.09	491.10
650.43	488.57
650.78	485.85
651.12	483.21
651.46	480.73
651.80	478.29
652.14	475.92
652.49	473.57
652.83	471.27
653.17	468.83
653.51	466.37
653.85	464.21
654.20	461.82
654.54	459.43
654.88	457.16
655.22	454.94
655.56	452.51
655.90	450.16
656.25	448.00
656.59	445.74
656.93	443.56
657.27	441.45
657.61	439.10
657.95	437.04
658.29	434.97
658.64	433.04
658.98	430.88
659.32	428.47
659.66	426.33
660.00	424.09
660.34	421.98
660.68	419.92
661.02	417.79
661.36	415.83
661.70	413.81
662.05	411.90
662.39	410.13
662.73	408.40
663.07	406.74
663.41	405.00
663.75	403.18
664.09	401.42
664.43	399.39
664.77	397.78
665.11	395.92
665.45	394.09
665.79	392.28
666.13	390.56
666.47	388.99
666.81	387.22
667.15	385.48
667.49	383.90
667.83	382.44
668.17	380.91
668.51	379.28
668.85	377.87
669.19	376.54
669.53	374.79
669.87	373.05
670.21	371.32
670.55	369.80
670.89	368.45
671.23	367.05
671.57	365.72
671.91	364.24
672.25	362.79
672.58	361.50
672.92	359.98
673.26	358.61
673.60	357.22
673.94	355.82
674.28	354.55
674.62	353.26
674.96	351.83
675.30	350.47
675.64	349.18
675.97	347.73
676.31	346.29
676.65	345.10
676.99	344.09
677.33	342.83
677.67	341.52
678.01	340.01
678.34	338.77
678.68	337.57
679.02	336.38
679.36	335.18
679.70	333.92
680.04	332.77
680.37	331.51
680.71	330.43
681.05	329.34
681.39	328.15
681.73	327.02
682.06	325.85
682.40	324.82
682.74	323.80
683.08	322.85
683.42	321.72
683.75	320.62
684.09	319.35
684.43	318.38
684.77	317.26
685.10	316.27
685.44	315.14
685.78	314.08
686.12	313.10
686.45	312.15
686.79	311.13
687.13	310.23
687.46	309.26
687.80	308.29
688.14	307.29
688.48	306.40
688.81	305.44
689.15	304.57
689.49	303.53
689.82	302.46
690.16	301.29
690.50	300.31
690.83	299.40
691.17	298.39
691.51	297.38
691.84	296.51
692.18	295.62
692.52	294.77
692.85	293.99
693.19	293.26
693.52	292.29
693.86	291.37
694.20	290.47
694.53	289.66
694.87	288.79
695.21	287.95
695.54	287.14
695.88	286.22
696.21	285.34
696.55	284.65
696.88	283.93
697.22	283.15
697.56	282.40
697.89	281.54
698.23	280.87
698.56	280.16
698.90	279.50
699.23	278.69
699.57	277.99
699.90	277.12
700.24	276.22
700.58	275.56
700.91	275.01
701.25	274.54
701.58	273.90
701.92	273.24
702.25	272.59
702.59	271.86
702.92	271.29
703.26	270.53
703.59	269.83
703.93	269.51
704.26	268.99
704.60	268.35
704.93	267.84
705.26	267.19
705.60	266.63
705.93	265.91
706.27	265.48
706.60	265.00
706.94	264.60
707.27	264.00
707.61	263.37
707.94	262.82
708.27	262.02
708.61	261.39
708.94	260.77
709.28	260.27
709.61	259.70
709.94	259.15
710.28	258.69
710.61	258.21
710.95	257.38
711.28	257.10
711.61	256.64
711.95	256.22
712.28	255.77
712.61	255.28
712.95	255.00
713.28	254.66
713.61	254.10
713.95	253.59
714.28	253.19
714.61	252.77
714.95	252.26
715.28	251.81
715.61	251.36
715.95	251.02
716.28	250.50
716.61	250.12
716.95	249.69
717.28	249.33
717.61	248.89
717.94	248.49
718.28	247.81
718.61	247.39
718.94	246.89
719.27	246.52
719.61	246.21
719.94	245.79
720.27	245.23
720.60	244.92
720.94	244.55
721.27	244.15
721.60	243.96
721.93	243.69
722.27	243.44
722.60	243.27
722.93	242.91
723.26	242.59
723.59	242.25
723.93	241.99
724.26	241.68
724.59	241.37
724.92	241.15
725.25	240.95
725.59	240.63
725.92	240.46
726.25	240.12
726.58	239.78
726.91	239.48
727.24	239.34
727.57	239.09
727.91	238.73
728.24	238.54
728.57	238.19
728.90	237.89
729.23	237.60
729.56	237.39
729.89	237.10
730.22	236.90
730.55	236.54
730.89	236.35
731.22	236.08
731.55	235.84
731.88	235.56
732.21	235.27
732.54	235.10
732.87	234.80
733.20	234.67
733.53	234.42
733.86	234.27
734.19	233.94
734.52	233.66
734.85	233.77
735.18	233.55
735.51	233.39
735.84	233.24
736.17	233.08
736.50	232.64
736.83	232.91
737.16	232.68
737.49	232.64
737.82	232.29
738.15	232.20
738.48	232.06
738.81	231.84
739.14	231.57
739.47	231.31
739.80	231.08
740.13	230.85
740.46	230.65
740.79	230.32
741.12	230.18
741.45	229.97
741.78	229.58
742.11	229.49
742.44	229.25
742.77	229.00
743.10	228.75
743.43	228.60
743.75	228.06
744.08	228.32
744.41	228.08
744.74	227.92
745.07	227.58
745.40	227.45
745.73	227.40
746.06	227.32
746.39	227.20
746.71	227.04
747.04	226.86
747.37	226.69
747.70	226.65
748.03	226.46
748.36	226.31
748.68	226.10
749.01	225.80
749.34	225.66
749.67	225.63
750.00	225.59
750.33	225.71
750.65	225.58
750.98	225.03
751.31	224.87
751.64	224.76
751.97	224.92
752.29	224.71
752.62	224.34
752.95	224.18
753.28	224.01
753.60	223.83
753.93	223.76
754.26	223.61
754.59	223.32
754.91	223.11
755.24	223.00
755.57	222.83
755.90	222.73
756.22	222.56
756.55	222.31
756.88	222.05
757.20	221.68
757.53	221.38
757.86	221.26
758.19	221.21
758.51	221.02
758.84	220.63
759.17	220.54
759.49	220.56
759.82	220.60
760.15	220.55
760.47	220.56
760.80	220.30
761.13	220.29
761.45	220.13
761.78	220.09
762.11	219.98
762.43	219.95
762.76	219.86
763.08	219.80
763.41	219.75
763.74	219.70
764.06	219.63
764.39	219.62
764.71	219.52
765.04	219.35
765.37	219.30
765.69	219.24
766.02	219.05
766.34	218.92
766.67	218.72
767.00	218.70
767.32	218.80
767.65	219.04
767.97	218.94
768.30	218.99
768.62	218.90
768.95	218.72
769.27	218.61
769.60	218.57
769.92	218.47
770.25	218.35
770.57	218.22
770.90	218.08
771.22	217.95
771.55	217.90
771.87	217.82
772.20	217.81
772.52	218.07
772.85	218.46
773.17	218.46
773.50	218.43
773.82	218.29
774.15	218.03
774.47	217.71
774.80	217.64
775.12	217.54
775.45	217.45
775.77	217.54
776.09	217.48
776.42	217.39
776.74	217.40
777.07	217.35
777.39	217.29
777.72	217.26
778.04	217.28
778.36	217.17
778.69	217.17
779.01	217.10
779.33	216.71
779.66	216.30
779.98	216.14
780.31	216.07
780.63	216.18
780.95	216.18
781.28	216.13
781.60	216.00
781.92	216.00
782.25	215.94
782.57	215.84
782.89	215.77
783.22	215.76
783.54	215.64
783.86	215.64
784.19	215.65
784.51	215.76
784.83	215.66
785.16	215.65
785.48	215.64
785.80	215.68
786.12	215.71
786.45	215.68
786.77	215.69
787.09	215.59
787.42	215.45
787.74	215.44
788.06	215.45
788.38	215.50
788.71	215.39
789.03	215.38
789.35	215.33
789.67	215.25
789.99	215.23
790.32	215.17
790.64	215.16
790.96	215.41
791.28	215.22
791.61	215.22
791.93	215.21
792.25	215.16
792.57	215.27
792.89	215.19
793.21	215.18
793.54	215.15
793.86	215.15
794.18	215.08
794.50	214.97
794.82	214.93
795.14	214.98
795.47	215.04
795.79	215.05
796.11	215.00
796.43	215.01
796.75	214.93
797.07	214.98
797.39	214.92
797.71	214.59
798.04	214.60
798.36	214.57
798.68	214.46
799.00	214.46
799.32	214.35
799.64	214.38
799.96	214.32
800.28	214.39
800.60	214.32
800.92	214.38
801.24	214.30
801.56	214.27
801.89	214.15
802.21	214.16
802.53	214.03
802.85	214.04
803.17	214.17
803.49	214.19
803.81	214.11
804.13	214.07
804.45	214.10
804.77	214.09
805.09	214.05
805.41	214.03
805.73	214.00
806.05	213.83
806.37	213.74
806.69	213.74
807.01	213.66
807.33	213.64
807.65	213.47
807.97	213.60
808.28	213.61
808.60	213.57
808.92	213.49
809.24	213.67
809.56	213.64
809.88	213.51
810.20	213.50
810.52	213.55
810.84	213.52
811.16	213.45
811.48	213.40
811.80	213.58
812.12	213.60
812.43	213.65
812.75	213.70
813.07	213.75
813.39	213.70
813.71	213.58
814.03	213.54
814.35	213.53
814.67	213.40
814.98	213.31
815.30	213.27
815.62	213.16
815.94	212.97
816.26	212.95
816.58	212.84
816.89	212.82
817.21	212.69
817.53	212.67
817.85	212.60
818.17	212.60
818.48	212.38
818.80	212.46
819.12	212.31
819.44	212.20
819.76	211.99
820.07	211.97
820.39	211.94
820.71	211.96
821.03	211.95
821.34	211.88
821.66	211.97
821.98	212.03
822.30	212.00
822.61	212.22
822.93	212.22
823.25	212.23
823.57	212.11
823.88	212.14
824.20	212.16
824.52	212.25
824.83	212.19
825.15	212.15
825.47	212.06
825.79	212.11
826.10	212.06
826.42	212.13
826.74	212.18
827.05	212.18
827.37	212.25
827.69	212.20
828.00	212.23
828.32	212.16
828.64	212.07
828.95	212.28
829.27	212.17
829.58	212.12
829.90	212.19
830.22	212.30
830.53	212.30
830.85	212.25
831.17	212.10
831.48	212.12
831.80	212.13
832.11	212.14
832.43	212.15
832.75	212.29
833.06	212.49
833.38	212.45
833.69	212.43
834.01	212.38
834.32	212.38
834.64	212.36
834.96	212.38
835.27	212.48
835.59	212.35
835.90	212.28
836.22	212.27
836.53	212.21
836.85	212.14
837.16	212.45
837.48	212.48
837.79	212.64
838.11	212.68
838.42	212.69
838.74	212.72
839.05	212.60
839.37	212.42
839.68	212.25
840.00	212.17
840.31	212.30
840.63	212.28
840.94	212.22
841.26	212.18
841.57	212.20
841.88	212.15
842.20	212.15
842.51	212.10
842.83	212.14
843.14	212.42
843.46	212.37
843.77	212.16
844.08	212.10
844.40	211.99
844.71	211.88
845.03	211.89
845.34	211.85
845.65	211.87
845.97	211.92
846.28	211.92
846.60	211.96
846.91	211.83
847.22	211.78
847.54	211.91
847.85	211.94
848.16	211.87
848.48	211.77
848.79	211.92
849.10	211.92
849.42	211.89
849.73	211.53
850.04	211.62
850.36	211.54
850.67	211.59
850.98	211.65
851.30	211.76
851.61	211.76
851.92	211.81
852.23	211.93
852.55	212.00
852.86	212.02
853.17	212.00
853.49	212.10
853.80	212.18
854.11	212.15
854.42	212.22
854.74	212.20
855.05	212.22
855.36	212.00
855.67	212.06
855.99	212.07
856.30	212.51
856.61	212.43
856.92	212.40
857.23	212.35
857.55	212.29
857.86	212.17
858.17	212.20
858.48	212.08
858.79	212.02
859.11	212.03
859.42	211.97
859.73	211.94
860.04	211.95
860.35	211.89
860.66	211.76
860.98	211.73
861.29	211.78
861.60	211.76
861.91	211.77
862.22	211.72
862.53	211.70
862.84	211.22
863.16	211.31
863.47	211.26
863.78	211.27
864.09	211.27
864.40	211.33
864.71	211.34
865.02	211.35
865.33	211.30
865.64	211.20
865.95	211.21
866.27	211.45
866.58	211.42
866.89	211.45
867.20	211.46
867.51	211.38
867.82	211.32
868.13	211.42
868.44	211.38
868.75	211.41
869.06	211.41
869.37	211.54
869.68	211.40
869.99	211.45
870.30	211.48
870.61	211.52
870.92	211.49
871.23	211.41
871.54	211.51
871.85	211.57
872.16	211.60
872.47	211.55
872.78	211.37
873.09	211.39
873.40	211.40
873.71	211.46
874.02	211.51
874.33	211.54
874.64	211.46
874.95	211.53
875.26	211.47
875.56	211.44
875.87	211.37
876.18	211.40
876.49	211.79
876.80	211.74
877.11	211.63
877.42	211.65
877.73	211.67
878.04	211.61
878.35	211.63
878.66	211.64
878.96	211.68
879.27	211.68
879.58	211.63
879.89	211.55
880.20	211.65
880.51	211.63
880.82	211.64
881.12	211.62
881.43	211.56
881.74	211.52
882.05	211.53
882.36	211.60
882.67	211.60
882.97	211.22
883.28	211.21
883.59	211.23
883.90	211.18
884.21	211.25
884.51	211.17
884.82	211.09
885.13	211.09
885.44	211.11
885.74	211.07
886.05	211.08
886.36	211.13
886.67	210.99
886.98	211.11
887.28	211.12
887.59	211.18
887.90	211.11
888.20	211.12
888.51	211.18
888.82	211.12
889.13	211.18
889.43	211.43
889.74	211.46
890.05	211.44
890.35	211.45
890.66	211.37
890.97	211.41
891.28	211.47
891.58	211.43
891.89	211.40
892.20	211.37
892.50	211.39
892.81	211.35
893.12	211.37
893.42	211.20
893.73	211.17
894.04	211.18
894.34	211.31
894.65	211.41
894.95	211.37
895.26	211.38
895.57	211.52
895.87	211.23
896.18	211.25
896.48	211.34
896.79	211.28
897.10	211.37
897.40	211.43
897.71	211.43
898.01	211.44
898.32	211.43
898.63	211.46
898.93	211.50
899.24	211.43
899.54	211.38
899.85	211.36
900.15	211.44
900.46	211.35
900.76	211.39
901.07	211.30
901.38	211.31
901.68	211.34
901.99	211.17
902.29	211.25
902.60	211.29
902.90	211.20
903.21	211.30
903.51	211.26
903.82	211.25
904.12	211.21
904.43	211.19
904.73	211.19
905.03	211.21
905.34	211.54
905.64	211.62
905.95	211.67
906.25	211.72
906.56	211.64
906.86	211.67
907.17	211.64
907.47	211.61
907.77	211.56
908.08	211.49
908.38	211.54
908.69	211.49
908.99	211.50
909.30	211.50
909.60	211.49
909.90	211.44
910.21	211.35
910.51	211.38
910.81	211.44
911.12	211.50
911.42	211.42
911.73	211.03
912.03	211.09
912.33	211.11
912.64	211.06
912.94	211.00
913.24	210.93
913.55	210.83
913.85	210.88
914.15	210.94
914.46	211.05
914.76	210.98
915.06	210.95
915.37	210.89
915.67	210.91
915.97	210.91
916.27	210.88
916.58	210.92
916.88	210.89
917.18	210.84
917.49	211.04
917.79	210.98
918.09	211.03
918.39	211.05
918.70	211.05
919.00	211.07
919.30	211.28
919.60	211.24
919.91	211.20
920.21	211.09
920.51	210.98
920.81	210.90
921.12	210.96
921.42	211.00
921.72	211.00
922.02	211.02
922.32	211.10
922.63	211.13
922.93	211.27
923.23	211.28
923.53	211.26
923.83	210.99
924.13	211.11
924.44	211.08
924.74	211.12
925.04	211.19
925.34	211.15
925.64	211.04
925.94	211.11
926.24	211.30
926.55	211.37
926.85	211.46
927.15	211.44
927.45	211.42
927.75	211.37
928.05	211.34
928.35	211.27
928.65	211.31
928.95	211.33
929.26	211.22
929.56	211.24
929.86	211.27
930.16	211.30
930.46	211.30
930.76	211.33
931.06	211.25
931.36	211.08
931.66	211.20
931.96	211.24
932.26	211.23
932.56	211.10
932.86	211.11
933.16	211.06
933.46	211.11
933.76	211.15
934.06	211.27
934.36	211.44
934.66	211.47
934.96	211.38
935.26	211.40
935.56	211.48
935.86	211.42
936.16	211.40
936.46	211.34
936.76	211.27
937.06	211.23
937.36	211.22
937.66	211.30
937.96	211.28
938.26	211.19
938.56	211.23
938.86	211.34
939.16	211.45
939.46	211.54
939.76	211.50
940.06	211.44
940.35	211.35
940.65	211.15
940.95	211.17
941.25	211.15
941.55	211.10
941.85	211.03
942.15	211.14
942.45	211.24
942.75	211.31
943.04	211.36
943.34	211.40
943.64	211.37
943.94	211.38
944.24	211.35
944.54	211.38
944.84	211.33
945.13	211.30
945.43	211.23
945.73	211.23
946.03	211.27
946.33	211.17
946.62	211.16
946.92	211.20
947.22	211.25
947.52	211.21
947.82	211.29
948.11	211.37
948.41	211.29
948.71	211.17
949.01	211.17
949.31	211.13
949.60	211.07
949.90	211.11
950.20	211.10
950.50	211.09
950.79	211.09
951.09	211.18
951.39	211.18
951.69	211.14
951.98	211.15
952.28	211.12
952.58	211.17
952.87	211.10
953.17	211.10
953.47	211.06
953.76	211.05
954.06	210.99
954.36	210.85
954.66	210.84
954.95	210.95
955.25	210.92
955.55	210.99
955.84	210.99
956.14	211.09
956.44	211.07
956.73	211.06
957.03	211.08
957.32	211.08
957.62	211.02
957.92	211.05
958.21	210.99
958.51	211.36
958.81	211.40
959.10	211.49
959.40	211.58
959.69	211.61
959.99	211.66
960.29	211.63
960.58	211.63
960.88	211.77
961.17	211.81
961.47	211.89
961.76	211.84
962.06	211.88
962.36	211.75
962.65	211.79
962.95	211.82
963.24	211.78
963.54	211.70
963.83	211.72
964.13	211.75
964.42	211.74
964.72	211.50
965.01	211.51
965.31	211.51
965.60	211.38
965.90	211.55
966.19	211.48
966.49	211.51
966.78	211.54
967.08	211.47
967.37	211.36
967.67	211.27
967.96	211.32
968.26	211.27
968.55	211.38
968.85	211.36
969.14	211.31
969.43	211.28
969.73	211.29
970.02	211.30
970.32	211.28
970.61	211.23
970.91	211.13
971.20	211.11
971.49	211.04
971.79	211.06
972.08	210.79
972.38	210.86
972.67	210.85
972.96	210.87
973.26	210.83
973.55	210.95
973.85	210.99
974.14	210.92
974.43	211.00
974.73	210.87
975.02	210.82
975.31	210.78
975.61	210.83
975.90	210.77
976.19	210.75
976.49	210.79
976.78	210.83
977.07	210.84
977.37	210.79
977.66	210.85
977.95	210.85
978.24	210.95
978.54	210.98
978.83	210.99
979.12	210.94
979.42	210.93
979.71	210.86
980.00	210.86
980.29	210.92
980.59	210.89
980.88	210.95
981.17	210.96
981.46	211.02
981.76	210.98
982.05	211.12
982.34	211.14
982.63	211.13
982.93	211.13
983.22	211.18
983.51	211.18
983.80	211.22
984.09	211.24
984.39	211.14
984.68	211.14
984.97	211.14
985.26	211.12
985.55	211.15
985.85	211.06
986.14	211.09
986.43	211.08
986.72	210.99
987.01	210.90
987.30	210.90
987.59	210.93
987.89	211.00
988.18	210.96
988.47	210.89
988.76	210.86
989.05	210.83
989.34	210.75
989.63	210.86
989.92	210.93
990.22	210.84
990.51	210.92
990.80	210.90
991.09	210.95
991.38	210.99
991.67	210.97
991.96	210.95
992.25	210.99
992.54	210.90
992.83	210.85
993.12	210.89
993.41	210.95
993.70	210.98
993.99	211.02
994.28	211.01
994.58	211.08
994.87	211.06
995.16	211.11
995.45	211.16
995.74	211.03
996.03	210.98
996.32	211.10
996.61	211.16
996.90	211.17
997.19	211.19
997.48	211.20
997.77	211.19
998.06	211.30
998.34	211.24
998.63	211.25
998.92	211.43
999.21	211.47
999.50	211.44
999.79	211.37
1000.08	211.38
1000.37	211.38
1000.66	211.30
1000.95	211.35
1001.24	211.26
1001.53	211.23
1001.82	211.30
1002.11	211.21
1002.40	211.20
1002.68	211.24
1002.97	211.40
1003.26	211.31
1003.55	211.24
1003.84	211.25
1004.13	211.36
1004.42	211.31
1004.71	211.33
1004.99	211.23
1005.28	211.33
1005.57	211.31
1005.86	211.28
1006.15	211.24
1006.44	211.23
1006.72	211.35
1007.01	211.32
1007.30	211.44
1007.59	211.42
1007.88	211.45
1008.17	211.45
1008.45	211.50
1008.74	211.37
1009.03	211.25
1009.32	211.26
1009.60	211.24
1009.89	211.16
1010.18	210.98
1010.47	211.03
1010.76	211.05
1011.04	211.02
1011.33	210.98
1011.62	211.04
1011.91	211.12
1012.19	211.03
1012.48	210.99
1012.77	210.95
1013.05	211.06
1013.34	211.01
1013.63	210.96
1013.92	210.99
1014.20	210.98
1014.49	210.94
1014.78	210.97
1015.06	210.84
1015.35	210.89
1015.64	210.98
1015.92	211.10
1016.21	211.11
1016.50	211.11
1016.78	211.12
1017.07	211.21
1017.36	211.14
1017.64	211.08
1017.93	211.03
1018.22	211.05
1018.50	211.04
1018.79	211.03
1019.08	210.90
1019.36	210.87
1019.65	210.87
1019.93	210.86
1020.22	210.93
1020.51	211.04
1020.79	210.99
1021.08	209.70
1021.36	210.40
1021.65	210.90
1021.94	210.60
1022.22	210.20
1022.51	209.85
1022.79	212.15
1023.08	211.65
1023.36	214.15
1023.65	210.15
>>>>>End Processed Spectral Data<<<<<
