SpectraSuite Data File
++++++++++++++++++++++++++++++++++++
Date: Mon Feb 25 17:01:58 EST 2013
User: group
Dark Spectrum Present: No
Reference Spectrum Present: No
Number of Sampled Component Spectra: 1
Spectrometers: USB2E7196
Integration Time (usec): 104000 (USB2E7196)
Spectra Averaged: 20 (USB2E7196)
Boxcar Smoothing: 10 (USB2E7196)
Correct for Electrical Dark: No (USB2E7196)
Strobe/Lamp Enabled: No (USB2E7196)
Correct for Detector Non-linearity: No (USB2E7196)
Correct for Stray Light: No (USB2E7196)
Number of Pixels in Processed Spectrum: 2048
>>>>>Begin Processed Spectral Data<<<<<
339.09	0.00
339.48	197.95
339.86	201.30
340.24	201.70
340.63	204.10
341.01	210.45
341.39	205.80
341.78	208.45
342.16	209.15
342.54	209.65
342.93	198.92
343.31	208.98
343.69	209.55
344.07	209.96
344.46	210.40
344.84	210.79
345.22	210.83
345.60	211.06
345.99	211.21
346.37	211.36
346.75	211.34
347.13	211.35
347.52	211.33
347.90	211.48
348.28	211.39
348.66	211.49
349.05	211.31
349.43	211.37
349.81	211.35
350.19	211.36
350.57	211.43
350.96	211.48
351.34	211.51
351.72	211.59
352.10	211.64
352.48	211.69
352.87	211.63
353.25	211.65
353.63	211.68
354.01	211.66
354.39	211.73
354.77	211.82
355.15	211.97
355.54	211.94
355.92	211.85
356.30	211.96
356.68	212.14
357.06	212.24
357.44	212.27
357.82	212.33
358.20	212.37
358.58	212.35
358.97	212.46
359.35	212.52
359.73	212.63
360.11	212.63
360.49	212.65
360.87	212.70
361.25	212.76
361.63	212.86
362.01	212.88
362.39	212.73
362.77	212.79
363.15	212.77
363.53	212.85
363.91	212.87
364.29	212.80
364.67	212.52
365.05	212.50
365.43	212.47
365.81	212.45
366.19	212.56
366.57	212.70
366.95	212.67
367.33	212.58
367.71	212.50
368.09	212.60
368.47	212.56
368.85	212.47
369.23	212.57
369.61	212.47
369.99	212.62
370.37	212.72
370.75	212.86
371.13	212.76
371.51	212.62
371.89	212.58
372.27	212.60
372.65	212.64
373.03	212.63
373.41	212.55
373.78	212.50
374.16	212.27
374.54	212.09
374.92	211.92
375.30	211.93
375.68	211.83
376.06	211.80
376.44	211.75
376.82	211.74
377.19	211.61
377.57	211.58
377.95	211.43
378.33	211.35
378.71	211.08
379.09	211.10
379.47	211.12
379.84	211.03
380.22	210.89
380.60	210.74
380.98	210.66
381.36	210.63
381.73	210.66
382.11	210.69
382.49	210.75
382.87	210.73
383.25	210.63
383.62	211.06
384.00	210.95
384.38	210.84
384.76	210.96
385.13	211.02
385.51	210.98
385.89	210.90
386.27	210.89
386.64	210.97
387.02	210.84
387.40	210.76
387.78	210.83
388.15	210.89
388.53	210.85
388.91	210.89
389.29	210.90
389.66	210.84
390.04	210.80
390.42	210.79
390.79	210.76
391.17	210.85
391.55	210.36
391.92	210.36
392.30	210.45
392.68	210.30
393.05	210.30
393.43	210.34
393.81	210.40
394.18	210.32
394.56	210.26
394.94	210.40
395.31	210.44
395.69	210.47
396.06	210.50
396.44	210.55
396.82	210.48
397.19	210.63
397.57	210.62
397.95	210.71
398.32	210.63
398.70	210.77
399.07	210.82
399.45	210.86
399.82	210.82
400.20	210.86
400.58	210.88
400.95	210.77
401.33	210.87
401.70	211.09
402.08	211.21
402.45	211.29
402.83	211.36
403.20	211.42
403.58	211.46
403.95	211.61
404.33	211.74
404.71	211.92
405.08	212.18
405.46	212.32
405.83	212.47
406.21	212.64
406.58	212.77
406.96	212.95
407.33	213.23
407.70	213.50
408.08	214.06
408.45	214.44
408.83	214.82
409.20	215.02
409.58	215.15
409.95	215.56
410.33	215.94
410.70	216.33
411.08	216.89
411.45	217.43
411.82	217.84
412.20	218.44
412.57	219.19
412.95	219.46
413.32	220.19
413.69	220.87
414.07	221.67
414.44	222.41
414.82	223.25
415.19	224.23
415.56	225.23
415.94	226.05
416.31	227.20
416.68	228.38
417.06	229.80
417.43	231.11
417.81	232.53
418.18	234.05
418.55	235.65
418.93	237.38
419.30	239.19
419.67	241.17
420.04	243.11
420.42	245.08
420.79	247.75
421.16	250.12
421.54	252.77
421.91	255.34
422.28	258.01
422.66	260.77
423.03	263.77
423.40	266.74
423.77	269.82
424.15	272.97
424.52	276.24
424.89	279.83
425.26	283.26
425.64	286.62
426.01	290.32
426.38	294.17
426.75	298.05
427.13	301.96
427.50	306.18
427.87	310.70
428.24	315.20
428.61	319.40
428.99	324.18
429.36	329.13
429.73	334.15
430.10	339.30
430.47	344.43
430.85	349.51
431.22	355.20
431.59	361.40
431.96	367.24
432.33	373.80
432.70	380.12
433.08	387.58
433.45	394.42
433.82	401.40
434.19	409.23
434.56	416.78
434.93	424.16
435.30	431.50
435.68	439.47
436.05	447.48
436.42	455.50
436.79	462.85
437.16	470.90
437.53	479.30
437.90	487.68
438.27	495.98
438.64	504.63
439.01	512.68
439.38	519.72
439.75	526.65
440.13	534.48
440.50	542.01
440.87	548.20
441.24	554.78
441.61	561.93
441.98	567.20
442.35	573.32
442.72	579.60
443.09	585.67
443.46	589.66
443.83	592.48
444.20	594.87
444.57	598.24
444.94	600.24
445.31	602.33
445.68	604.48
446.05	605.63
446.42	605.49
446.79	605.13
447.16	604.79
447.53	604.60
447.90	602.13
448.27	599.50
448.64	595.79
449.01	593.30
449.37	588.27
449.74	583.59
450.11	577.93
450.48	571.52
450.85	564.95
451.22	559.25
451.59	553.91
451.96	548.75
452.33	541.77
452.70	535.29
453.07	527.64
453.43	519.54
453.80	512.07
454.17	504.98
454.54	498.05
454.91	490.59
455.28	483.40
455.65	476.66
456.02	470.26
456.38	464.50
456.75	457.28
457.12	451.38
457.49	445.33
457.86	439.60
458.23	434.88
458.59	429.50
458.96	424.14
459.33	419.25
459.70	414.45
460.07	410.61
460.43	406.20
460.80	402.00
461.17	398.42
461.54	394.64
461.91	390.90
462.27	387.20
462.64	384.02
463.01	380.64
463.38	377.30
463.74	373.59
464.11	370.64
464.48	368.13
464.85	365.22
465.21	363.24
465.58	360.86
465.95	357.96
466.32	355.68
466.68	353.31
467.05	350.94
467.42	348.59
467.78	346.18
468.15	343.96
468.52	342.21
468.88	339.94
469.25	337.94
469.62	336.21
469.98	334.49
470.35	332.83
470.72	331.23
471.08	329.45
471.45	328.05
471.82	326.55
472.18	324.93
472.55	323.74
472.92	322.23
473.28	320.97
473.65	319.62
474.02	318.41
474.38	317.41
474.75	316.61
475.11	315.68
475.48	314.92
475.85	314.12
476.21	313.42
476.58	312.79
476.94	312.23
477.31	311.72
477.67	311.14
478.04	310.62
478.41	310.24
478.77	310.33
479.14	309.94
479.50	309.72
479.87	309.59
480.23	309.48
480.60	309.25
480.96	309.23
481.33	309.47
481.69	309.47
482.06	309.55
482.42	309.56
482.79	309.69
483.15	309.90
483.52	310.28
483.88	310.48
484.25	310.77
484.61	311.10
484.98	311.39
485.34	311.94
485.71	312.61
486.07	313.17
486.44	313.42
486.80	314.16
487.17	314.81
487.53	315.63
487.90	316.43
488.26	317.52
488.62	318.45
488.99	319.31
489.35	320.30
489.72	321.24
490.08	322.35
490.44	323.45
490.81	324.64
491.17	325.76
491.54	327.09
491.90	328.39
492.26	329.74
492.63	331.24
492.99	332.64
493.36	334.10
493.72	335.66
494.08	337.22
494.45	338.86
494.81	340.65
495.17	342.30
495.54	344.19
495.90	345.72
496.26	347.43
496.63	349.21
496.99	351.07
497.35	352.98
497.72	354.95
498.08	356.88
498.44	358.90
498.80	360.93
499.17	362.91
499.53	364.86
499.89	366.98
500.26	368.91
500.62	370.83
500.98	372.79
501.34	374.74
501.71	376.88
502.07	378.80
502.43	380.71
502.79	382.51
503.16	384.12
503.52	386.05
503.88	387.86
504.24	389.76
504.60	391.49
504.97	393.42
505.33	394.98
505.69	396.75
506.05	398.30
506.41	399.73
506.78	401.02
507.14	402.45
507.50	403.83
507.86	405.16
508.22	406.40
508.59	407.45
508.95	408.59
509.31	409.71
509.67	410.70
510.03	411.76
510.39	412.85
510.75	413.80
511.12	414.59
511.48	415.25
511.84	415.88
512.20	416.51
512.56	416.95
512.92	417.62
513.28	417.98
513.64	418.36
514.00	418.75
514.37	419.20
514.73	419.49
515.09	419.71
515.45	419.86
515.81	420.08
516.17	420.31
516.53	420.32
516.89	420.24
517.25	420.15
517.61	419.97
517.97	419.80
518.33	419.67
518.69	419.59
519.05	419.61
519.41	419.47
519.77	419.58
520.13	419.48
520.49	419.13
520.85	418.99
521.21	418.91
521.57	418.75
521.93	418.47
522.29	418.37
522.65	418.12
523.01	418.02
523.37	417.68
523.73	417.60
524.09	417.49
524.45	417.40
524.81	417.51
525.17	417.57
525.53	417.68
525.89	417.80
526.25	417.99
526.61	417.91
526.97	418.03
527.33	418.13
527.68	418.79
528.04	419.14
528.40	419.46
528.76	419.82
529.12	420.41
529.48	421.06
529.84	421.61
530.20	422.40
530.56	423.20
530.91	424.25
531.27	425.11
531.63	426.03
531.99	426.93
532.35	427.87
532.71	428.88
533.07	430.08
533.42	431.59
533.78	432.60
534.14	434.01
534.50	435.20
534.86	436.63
535.21	437.64
535.57	439.23
535.93	440.77
536.29	442.40
536.65	444.03
537.00	445.64
537.36	447.25
537.72	448.86
538.08	450.54
538.44	452.37
538.79	454.28
539.15	456.20
539.51	458.18
539.87	460.14
540.22	462.23
540.58	464.26
540.94	466.09
541.29	468.34
541.65	470.54
542.01	472.83
542.37	474.97
542.72	477.32
543.08	479.67
543.44	482.15
543.79	484.30
544.15	486.66
544.51	489.26
544.87	492.02
545.22	494.65
545.58	497.21
545.94	499.67
546.29	502.25
546.65	504.80
547.01	507.39
547.36	510.21
547.72	512.92
548.07	515.57
548.43	518.23
548.79	520.90
549.14	523.56
549.50	526.35
549.86	528.97
550.21	531.64
550.57	534.46
550.92	536.89
551.28	539.79
551.64	542.44
551.99	545.14
552.35	547.65
552.70	550.19
553.06	552.94
553.41	555.51
553.77	558.34
554.13	561.05
554.48	563.78
554.84	566.43
555.19	569.04
555.55	571.81
555.90	574.42
556.26	576.98
556.61	579.43
556.97	581.87
557.32	584.43
557.68	586.86
558.03	589.08
558.39	591.57
558.74	593.90
559.10	596.22
559.45	598.67
559.81	601.05
560.16	603.43
560.52	605.79
560.87	608.31
561.23	610.33
561.58	612.86
561.94	615.02
562.29	616.97
562.64	619.10
563.00	621.09
563.35	623.26
563.71	625.62
564.06	627.91
564.42	630.20
564.77	632.60
565.12	634.85
565.48	637.34
565.83	639.71
566.19	641.90
566.54	643.89
566.89	645.82
567.25	648.02
567.60	650.09
567.96	652.10
568.31	654.10
568.66	656.06
569.02	657.41
569.37	658.92
569.72	660.55
570.08	661.95
570.43	663.45
570.78	664.79
571.14	665.81
571.49	666.84
571.84	667.92
572.20	668.67
572.55	669.61
572.90	670.10
573.26	670.71
573.61	671.36
573.96	672.27
574.31	672.85
574.67	673.12
575.02	673.45
575.37	673.66
575.72	673.74
576.08	673.96
576.43	674.22
576.78	674.65
577.13	675.06
577.49	675.50
577.84	675.57
578.19	675.86
578.54	676.30
578.90	676.82
579.25	677.04
579.60	677.09
579.95	677.02
580.30	677.22
580.66	677.27
581.01	677.19
581.36	676.98
581.71	676.87
582.06	676.92
582.42	676.92
582.77	676.52
583.12	676.38
583.47	676.30
583.82	676.18
584.17	676.03
584.53	675.90
584.88	675.65
585.23	675.56
585.58	675.37
585.93	674.98
586.28	674.69
586.63	674.28
586.98	674.04
587.34	673.92
587.69	673.42
588.04	673.05
588.39	672.75
588.74	672.34
589.09	672.04
589.44	671.51
589.79	671.16
590.14	670.99
590.49	670.55
590.84	669.78
591.19	669.39
591.54	668.75
591.89	667.65
592.25	667.15
592.60	666.20
592.95	665.04
593.30	664.01
593.65	662.81
594.00	661.83
594.35	661.68
594.70	660.58
595.05	659.77
595.40	658.77
595.75	657.59
596.10	656.72
596.45	655.63
596.80	654.80
597.15	653.77
597.50	652.51
597.85	651.49
598.19	650.62
598.54	649.50
598.89	648.41
599.24	647.80
599.59	646.56
599.94	645.75
600.29	644.99
600.64	643.98
600.99	642.89
601.34	641.91
601.69	639.92
602.04	638.71
602.39	637.51
602.74	636.47
603.08	635.59
603.43	634.64
603.78	633.47
604.13	632.01
604.48	630.75
604.83	629.82
605.18	628.81
605.53	627.57
605.87	626.40
606.22	625.23
606.57	623.87
606.92	622.59
607.27	621.30
607.62	619.86
607.96	618.88
608.31	618.03
608.66	616.77
609.01	615.45
609.36	614.13
609.70	612.59
610.05	611.17
610.40	609.69
610.75	608.02
611.10	606.79
611.44	605.22
611.79	603.60
612.14	602.08
612.49	600.14
612.83	598.62
613.18	596.95
613.53	595.35
613.88	593.68
614.22	591.93
614.57	590.14
614.92	588.56
615.27	586.69
615.61	584.71
615.96	583.00
616.31	581.49
616.65	580.12
617.00	578.60
617.35	576.91
617.70	575.09
618.04	573.23
618.39	571.16
618.74	569.53
619.08	567.80
619.43	565.91
619.78	564.39
620.12	562.58
620.47	560.85
620.82	558.94
621.16	557.04
621.51	555.41
621.85	553.61
622.20	551.68
622.55	549.79
622.89	547.90
623.24	545.95
623.59	543.95
623.93	541.90
624.28	540.15
624.62	538.65
624.97	537.09
625.32	535.30
625.66	533.59
626.01	531.75
626.35	529.92
626.70	528.31
627.04	526.64
627.39	524.85
627.73	523.25
628.08	521.74
628.43	520.00
628.77	518.23
629.12	516.36
629.46	514.85
629.81	513.13
630.15	511.39
630.50	509.73
630.84	508.05
631.19	506.40
631.53	504.61
631.88	502.40
632.22	500.36
632.57	498.82
632.91	497.14
633.26	495.64
633.60	493.94
633.95	492.04
634.29	490.15
634.64	488.47
634.98	486.42
635.32	484.72
635.67	483.15
636.01	481.34
636.36	479.66
636.70	478.03
637.05	476.44
637.39	474.88
637.73	473.35
638.08	471.96
638.42	470.48
638.77	469.01
639.11	467.57
639.45	466.10
639.80	464.35
640.14	462.61
640.49	460.97
640.83	459.38
641.17	457.81
641.52	456.15
641.86	454.58
642.20	453.12
642.55	451.16
642.89	449.44
643.23	447.86
643.58	446.39
643.92	444.53
644.26	442.85
644.61	441.25
644.95	439.60
645.29	437.74
645.64	436.01
645.98	434.23
646.32	432.62
646.66	430.94
647.01	429.30
647.35	427.83
647.69	426.15
648.04	424.47
648.38	422.83
648.72	421.26
649.06	419.56
649.41	417.94
649.75	416.51
650.09	415.01
650.43	413.35
650.78	411.68
651.12	410.11
651.46	408.54
651.80	406.97
652.14	405.35
652.49	403.98
652.83	402.42
653.17	400.75
653.51	399.12
653.85	397.67
654.20	396.14
654.54	394.43
654.88	392.85
655.22	391.47
655.56	389.90
655.90	388.32
656.25	386.76
656.59	385.21
656.93	383.70
657.27	382.30
657.61	380.78
657.95	379.39
658.29	377.96
658.64	376.62
658.98	375.10
659.32	373.53
659.66	371.98
660.00	370.38
660.34	368.90
660.68	367.38
661.02	365.85
661.36	364.47
661.70	363.11
662.05	361.60
662.39	360.29
662.73	359.15
663.07	358.07
663.41	356.91
663.75	355.56
664.09	354.15
664.43	352.71
664.77	351.53
665.11	350.25
665.45	348.88
665.79	347.61
666.13	346.37
666.47	345.14
666.81	343.93
667.15	342.60
667.49	341.55
667.83	340.47
668.17	339.29
668.51	338.19
668.85	337.27
669.19	336.38
669.53	335.13
669.87	333.83
670.21	332.56
670.55	331.41
670.89	330.61
671.23	329.71
671.57	328.74
671.91	327.66
672.25	326.63
672.58	325.73
672.92	324.53
673.26	323.64
673.60	322.80
673.94	321.76
674.28	321.05
674.62	320.14
674.96	319.25
675.30	318.34
675.64	317.43
675.97	316.36
676.31	315.38
676.65	314.54
676.99	313.83
677.33	312.86
677.67	311.97
678.01	310.85
678.34	309.87
678.68	309.04
679.02	308.15
679.36	307.24
679.70	306.42
680.04	305.59
680.37	304.66
680.71	303.69
681.05	302.90
681.39	301.99
681.73	301.17
682.06	300.26
682.40	299.39
682.74	298.51
683.08	297.78
683.42	296.99
683.75	296.21
684.09	295.25
684.43	294.49
684.77	293.56
685.10	292.83
685.44	292.04
685.78	291.05
686.12	290.35
686.45	289.60
686.79	288.83
687.13	288.20
687.46	287.46
687.80	286.84
688.14	286.06
688.48	285.37
688.81	284.54
689.15	283.92
689.49	283.16
689.82	282.56
690.16	281.71
690.50	280.88
690.83	280.07
691.17	279.42
691.51	278.73
691.84	278.10
692.18	277.39
692.52	276.81
692.85	276.39
693.19	275.85
693.52	275.20
693.86	274.54
694.20	273.86
694.53	273.22
694.87	272.52
695.21	271.90
695.54	271.20
695.88	270.53
696.21	269.88
696.55	269.36
696.88	268.65
697.22	268.04
697.56	267.46
697.89	266.84
698.23	266.26
698.56	265.63
698.90	265.20
699.23	264.64
699.57	264.00
699.90	263.33
700.24	262.65
700.58	262.16
700.91	261.61
701.25	261.41
701.58	260.94
701.92	260.45
702.25	260.00
702.59	259.50
702.92	259.11
703.26	258.56
703.59	258.08
703.93	257.87
704.26	257.49
704.60	257.14
704.93	256.75
705.26	256.25
705.60	255.97
705.93	255.33
706.27	255.01
706.60	254.60
706.94	254.31
707.27	253.78
707.61	253.29
707.94	252.85
708.27	252.12
708.61	251.65
708.94	251.17
709.28	250.73
709.61	250.32
709.94	249.91
710.28	249.53
710.61	249.19
710.95	248.50
711.28	248.42
711.61	248.04
711.95	247.70
712.28	247.34
712.61	246.81
712.95	246.77
713.28	246.50
713.61	246.12
713.95	245.68
714.28	245.30
714.61	244.88
714.95	244.53
715.28	244.04
715.61	243.67
715.95	243.36
716.28	242.97
716.61	242.70
716.95	242.34
717.28	241.99
717.61	241.61
717.94	241.28
718.28	240.60
718.61	240.22
718.94	239.81
719.27	239.43
719.61	239.25
719.94	238.82
720.27	238.33
720.60	238.07
720.94	237.80
721.27	237.63
721.60	237.47
721.93	237.20
722.27	237.14
722.60	236.87
722.93	236.55
723.26	236.30
723.59	235.97
723.93	235.79
724.26	235.61
724.59	235.38
724.92	235.16
725.25	235.13
725.59	234.92
725.92	234.75
726.25	234.55
726.58	234.31
726.91	234.06
727.24	233.85
727.57	233.59
727.91	233.36
728.24	233.10
728.57	232.83
728.90	232.64
729.23	232.33
729.56	232.31
729.89	232.10
730.22	231.83
730.55	231.60
730.89	231.34
731.22	231.16
731.55	230.96
731.88	230.77
732.21	230.40
732.54	230.11
732.87	229.91
733.20	229.74
733.53	229.59
733.86	229.38
734.19	229.15
734.52	229.02
734.85	229.05
735.18	228.84
735.51	228.81
735.84	228.71
736.17	228.68
736.50	228.31
736.83	228.69
737.16	228.61
737.49	228.54
737.82	228.35
738.15	228.10
738.48	227.88
738.81	227.72
739.14	227.51
739.47	227.37
739.80	227.20
740.13	227.08
740.46	226.82
740.79	226.62
741.12	226.54
741.45	226.34
741.78	225.96
742.11	225.97
742.44	225.70
742.77	225.57
743.10	225.32
743.43	225.21
743.75	224.60
744.08	225.01
744.41	224.83
744.74	224.69
745.07	224.65
745.40	224.61
745.73	224.66
746.06	224.61
746.39	224.49
746.71	224.32
747.04	224.16
747.37	223.97
747.70	223.97
748.03	223.82
748.36	223.79
748.68	223.65
749.01	223.39
749.34	223.34
749.67	223.15
750.00	223.15
750.33	223.27
750.65	223.21
750.98	222.54
751.31	222.42
751.64	222.33
751.97	222.38
752.29	222.25
752.62	221.97
752.95	221.78
753.28	221.66
753.60	221.52
753.93	221.66
754.26	221.66
754.59	221.40
754.91	221.28
755.24	221.10
755.57	220.98
755.90	220.81
756.22	220.65
756.55	220.49
756.88	220.27
757.20	219.99
757.53	219.79
757.86	219.66
758.19	219.65
758.51	219.54
758.84	219.25
759.17	219.13
759.49	219.06
759.82	219.18
760.15	219.08
760.47	219.06
760.80	218.70
761.13	218.59
761.45	218.56
761.78	218.48
762.11	218.44
762.43	218.35
762.76	218.30
763.08	218.25
763.41	218.25
763.74	218.20
764.06	218.08
764.39	218.00
764.71	217.91
765.04	217.80
765.37	217.74
765.69	217.61
766.02	217.56
766.34	217.47
766.67	217.25
767.00	217.29
767.32	217.39
767.65	217.55
767.97	217.53
768.30	217.49
768.62	217.42
768.95	217.27
769.27	217.26
769.60	217.30
769.92	217.15
770.25	217.00
770.57	216.86
770.90	216.76
771.22	216.68
771.55	216.63
771.87	216.53
772.20	216.37
772.52	216.66
772.85	216.90
773.17	216.93
773.50	216.83
773.82	216.78
774.15	216.65
774.47	216.39
774.80	216.22
775.12	216.12
775.45	216.16
775.77	216.17
776.09	216.12
776.42	216.09
776.74	216.17
777.07	216.18
777.39	216.14
777.72	216.10
778.04	216.14
778.36	216.16
778.69	216.14
779.01	216.25
779.33	215.90
779.66	215.50
779.98	215.37
780.31	215.33
780.63	215.37
780.95	215.31
781.28	215.27
781.60	215.25
781.92	215.25
782.25	215.15
782.57	215.07
782.89	214.93
783.22	214.83
783.54	214.68
783.86	214.60
784.19	214.54
784.51	214.60
784.83	214.45
785.16	214.40
785.48	214.35
785.80	214.25
786.12	214.26
786.45	214.25
786.77	214.20
787.09	214.15
787.42	214.00
787.74	213.99
788.06	214.00
788.38	213.99
788.71	213.94
789.03	213.94
789.35	213.92
789.67	213.95
789.99	213.97
790.32	213.89
790.64	213.94
790.96	214.21
791.28	214.10
791.61	214.15
791.93	214.14
792.25	214.14
792.57	214.42
792.89	214.31
793.21	214.35
793.54	214.33
793.86	214.32
794.18	214.25
794.50	214.11
794.82	214.06
795.14	214.07
795.47	214.09
795.79	214.03
796.11	213.97
796.43	213.95
796.75	213.90
797.07	213.95
797.39	213.95
797.71	213.67
798.04	213.65
798.36	213.58
798.68	213.50
799.00	213.46
799.32	213.21
799.64	213.25
799.96	213.28
800.28	213.32
800.60	213.25
800.92	213.24
801.24	213.19
801.56	213.26
801.89	213.23
802.21	213.16
802.53	213.06
802.85	213.18
803.17	213.33
803.49	213.29
803.81	213.28
804.13	213.19
804.45	213.15
804.77	213.16
805.09	213.18
805.41	213.12
805.73	213.11
806.05	212.95
806.37	212.93
806.69	212.78
807.01	212.78
807.33	212.80
807.65	212.75
807.97	212.96
808.28	212.92
808.60	212.91
808.92	212.89
809.24	213.11
809.56	213.00
809.88	212.82
810.20	212.79
810.52	212.73
810.84	212.72
811.16	212.72
811.48	212.74
811.80	212.87
812.12	212.85
812.43	212.90
812.75	212.98
813.07	213.01
813.39	213.00
813.71	212.91
814.03	212.89
814.35	212.85
814.67	212.68
814.98	212.61
815.30	212.51
815.62	212.45
815.94	212.23
816.26	212.28
816.58	212.22
816.89	212.20
817.21	212.17
817.53	212.11
817.85	212.11
818.17	212.02
818.48	211.83
818.80	211.92
819.12	211.83
819.44	211.76
819.76	211.71
820.07	211.74
820.39	211.70
820.71	211.76
821.03	211.70
821.34	211.66
821.66	211.65
821.98	211.76
822.30	211.72
822.61	211.88
822.93	211.81
823.25	211.79
823.57	211.83
823.88	211.94
824.20	211.98
824.52	212.00
824.83	212.01
825.15	212.01
825.47	212.03
825.79	212.04
826.10	211.99
826.42	211.88
826.74	211.90
827.05	212.00
827.37	211.94
827.69	212.01
828.00	212.10
828.32	212.12
828.64	212.05
828.95	212.20
829.27	212.14
829.58	212.19
829.90	212.29
830.22	212.26
830.53	212.13
830.85	212.13
831.17	212.06
831.48	212.03
831.80	212.03
832.11	211.99
832.43	212.00
832.75	212.05
833.06	212.33
833.38	212.20
833.69	212.12
834.01	212.19
834.32	212.18
834.64	212.09
834.96	212.06
835.27	212.01
835.59	211.92
835.90	211.83
836.22	211.83
836.53	211.69
836.85	211.71
837.16	212.01
837.48	211.98
837.79	212.03
838.11	212.08
838.42	212.08
838.74	212.09
839.05	212.00
839.37	211.98
839.68	211.66
840.00	211.69
840.31	211.73
840.63	211.60
840.94	211.54
841.26	211.53
841.57	211.55
841.88	211.68
842.20	211.69
842.51	211.68
842.83	211.60
843.14	211.92
843.46	211.86
843.77	211.73
844.08	211.65
844.40	211.60
844.71	211.54
845.03	211.52
845.34	211.48
845.65	211.46
845.97	211.43
846.28	211.51
846.60	211.54
846.91	211.46
847.22	211.48
847.54	211.62
847.85	211.61
848.16	211.60
848.48	211.48
848.79	211.61
849.10	211.65
849.42	211.67
849.73	211.40
850.04	211.38
850.36	211.27
850.67	211.41
850.98	211.40
851.30	211.47
851.61	211.47
851.92	211.50
852.23	211.66
852.55	211.70
852.86	211.70
853.17	211.75
853.49	211.82
853.80	211.93
854.11	211.91
854.42	211.86
854.74	211.82
855.05	211.86
855.36	211.71
855.67	211.67
855.99	211.66
856.30	211.99
856.61	212.03
856.92	211.99
857.23	211.97
857.55	211.95
857.86	211.88
858.17	211.92
858.48	211.86
858.79	211.75
859.11	211.83
859.42	211.76
859.73	211.68
860.04	211.72
860.35	211.62
860.66	211.56
860.98	211.60
861.29	211.60
861.60	211.59
861.91	211.67
862.22	211.62
862.53	211.53
862.84	211.18
863.16	211.25
863.47	211.16
863.78	211.13
864.09	211.14
864.40	211.20
864.71	211.22
865.02	211.22
865.33	211.18
865.64	211.01
865.95	211.09
866.27	211.32
866.58	211.26
866.89	211.28
867.20	211.30
867.51	211.29
867.82	211.29
868.13	211.33
868.44	211.19
868.75	211.30
869.06	211.36
869.37	211.44
869.68	211.31
869.99	211.41
870.30	211.40
870.61	211.43
870.92	211.28
871.23	211.23
871.54	211.23
871.85	211.30
872.16	211.44
872.47	211.36
872.78	211.15
873.09	211.20
873.40	211.13
873.71	211.14
874.02	211.16
874.33	211.09
874.64	211.01
874.95	211.10
875.26	210.96
875.56	210.94
875.87	210.86
876.18	210.88
876.49	211.19
876.80	211.12
877.11	211.03
877.42	211.15
877.73	211.09
878.04	211.13
878.35	211.15
878.66	211.08
878.96	211.11
879.27	211.11
879.58	211.11
879.89	211.09
880.20	211.17
880.51	211.14
880.82	211.19
881.12	211.24
881.43	211.20
881.74	211.23
882.05	211.24
882.36	211.27
882.67	211.32
882.97	210.99
883.28	211.03
883.59	211.09
883.90	211.16
884.21	211.26
884.51	211.22
884.82	211.12
885.13	211.14
885.44	211.11
885.74	211.12
886.05	211.07
886.36	211.12
886.67	211.00
886.98	211.28
887.28	211.33
887.59	211.26
887.90	211.22
888.20	211.25
888.51	211.29
888.82	211.24
889.13	211.27
889.43	211.56
889.74	211.56
890.05	211.53
890.35	211.48
890.66	211.42
890.97	211.38
891.28	211.36
891.58	211.37
891.89	211.41
892.20	211.41
892.50	211.33
892.81	211.30
893.12	211.29
893.42	211.05
893.73	211.10
894.04	211.13
894.34	211.19
894.65	211.14
894.95	211.13
895.26	211.17
895.57	211.27
895.87	210.91
896.18	210.95
896.48	210.96
896.79	210.94
897.10	210.96
897.40	210.95
897.71	211.04
898.01	211.00
898.32	210.99
898.63	210.93
898.93	211.07
899.24	211.10
899.54	211.08
899.85	211.12
900.15	211.03
900.46	211.00
900.76	211.03
901.07	210.99
901.38	210.97
901.68	211.02
901.99	210.82
902.29	210.88
902.60	210.82
902.90	210.81
903.21	210.75
903.51	210.79
903.82	210.91
904.12	210.86
904.43	210.86
904.73	210.85
905.03	210.88
905.34	211.15
905.64	211.09
905.95	211.09
906.25	211.05
906.56	211.02
906.86	211.08
907.17	211.04
907.47	211.08
907.77	211.09
908.08	210.98
908.38	211.02
908.69	210.95
908.99	211.01
909.30	211.05
909.60	211.15
909.90	211.06
910.21	211.00
910.51	210.94
910.81	210.92
911.12	210.95
911.42	210.88
911.73	210.51
912.03	210.59
912.33	210.71
912.64	210.68
912.94	210.70
913.24	210.60
913.55	210.57
913.85	210.60
914.15	210.62
914.46	210.68
914.76	210.66
915.06	210.76
915.37	210.73
915.67	210.70
915.97	210.65
916.27	210.63
916.58	210.61
916.88	210.65
917.18	210.64
917.49	210.90
917.79	210.93
918.09	210.99
918.39	211.03
918.70	210.89
919.00	210.91
919.30	211.00
919.60	210.95
919.91	210.88
920.21	210.89
920.51	210.85
920.81	210.84
921.12	210.95
921.42	210.87
921.72	210.90
922.02	210.85
922.32	210.87
922.63	210.85
922.93	211.08
923.23	211.15
923.53	211.11
923.83	210.84
924.13	210.86
924.44	210.91
924.74	210.99
925.04	211.14
925.34	211.05
925.64	210.95
925.94	211.00
926.24	211.17
926.55	211.09
926.85	211.13
927.15	211.12
927.45	211.08
927.75	211.08
928.05	211.12
928.35	211.14
928.65	211.24
928.95	211.33
929.26	211.17
929.56	211.21
929.86	211.31
930.16	211.26
930.46	211.27
930.76	211.23
931.06	211.08
931.36	210.98
931.66	211.08
931.96	211.12
932.26	211.12
932.56	211.04
932.86	211.05
933.16	211.00
933.46	210.96
933.76	210.86
934.06	210.92
934.36	210.95
934.66	210.90
934.96	210.81
935.26	210.81
935.56	210.82
935.86	210.72
936.16	210.67
936.46	210.70
936.76	210.70
937.06	210.58
937.36	210.56
937.66	210.57
937.96	210.61
938.26	210.61
938.56	210.65
938.86	210.65
939.16	210.77
939.46	210.87
939.76	210.89
940.06	210.92
940.35	210.83
940.65	210.75
940.95	210.78
941.25	210.74
941.55	210.69
941.85	210.63
942.15	210.73
942.45	210.78
942.75	210.76
943.04	210.71
943.34	210.88
943.64	210.86
943.94	210.78
944.24	210.77
944.54	210.75
944.84	210.78
945.13	210.75
945.43	210.69
945.73	210.62
946.03	210.61
946.33	210.61
946.62	210.67
946.92	210.62
947.22	210.71
947.52	210.75
947.82	210.84
948.11	210.86
948.41	210.69
948.71	210.66
949.01	210.72
949.31	210.76
949.60	210.74
949.90	210.87
950.20	210.90
950.50	210.85
950.79	210.86
951.09	210.95
951.39	211.00
951.69	210.96
951.98	211.07
952.28	211.03
952.58	211.02
952.87	211.01
953.17	211.10
953.47	211.02
953.76	211.00
954.06	210.90
954.36	210.83
954.66	210.87
954.95	210.95
955.25	210.98
955.55	210.98
955.84	210.92
956.14	210.86
956.44	210.96
956.73	210.91
957.03	210.90
957.32	210.90
957.62	210.81
957.92	210.90
958.21	210.86
958.51	211.35
958.81	211.35
959.10	211.38
959.40	211.43
959.69	211.48
959.99	211.50
960.29	211.51
960.58	211.52
960.88	211.77
961.17	211.80
961.47	211.87
961.76	211.85
962.06	211.90
962.36	211.85
962.65	211.86
962.95	211.87
963.24	211.83
963.54	211.80
963.83	211.86
964.13	211.88
964.42	211.76
964.72	211.42
965.01	211.45
965.31	211.47
965.60	211.42
965.90	211.63
966.19	211.54
966.49	211.58
966.78	211.64
967.08	211.45
967.37	211.40
967.67	211.29
967.96	211.31
968.26	211.26
968.55	211.34
968.85	211.24
969.14	211.24
969.43	211.26
969.73	211.17
970.02	211.10
970.32	211.01
970.61	210.97
970.91	210.88
971.20	210.81
971.49	210.74
971.79	210.73
972.08	210.47
972.38	210.51
972.67	210.48
972.96	210.50
973.26	210.47
973.55	210.57
973.85	210.57
974.14	210.55
974.43	210.53
974.73	210.48
975.02	210.44
975.31	210.47
975.61	210.49
975.90	210.48
976.19	210.48
976.49	210.52
976.78	210.54
977.07	210.46
977.37	210.55
977.66	210.55
977.95	210.47
978.24	210.45
978.54	210.58
978.83	210.55
979.12	210.52
979.42	210.40
979.71	210.21
980.00	210.21
980.29	210.18
980.59	210.16
980.88	210.20
981.17	210.25
981.46	210.18
981.76	210.13
982.05	210.28
982.34	210.32
982.63	210.37
982.93	210.36
983.22	210.51
983.51	210.48
983.80	210.54
984.09	210.62
984.39	210.63
984.68	210.49
984.97	210.49
985.26	210.45
985.55	210.60
985.85	210.56
986.14	210.58
986.43	210.66
986.72	210.62
987.01	210.54
987.30	210.45
987.59	210.46
987.89	210.46
988.18	210.25
988.47	210.17
988.76	210.13
989.05	210.12
989.34	210.13
989.63	210.20
989.92	210.17
990.22	210.10
990.51	210.06
990.80	210.10
991.09	210.11
991.38	210.11
991.67	210.01
991.96	210.03
992.25	210.06
992.54	210.03
992.83	210.08
993.12	210.11
993.41	210.21
993.70	210.36
993.99	210.49
994.28	210.59
994.58	210.71
994.87	210.64
995.16	210.64
995.45	210.55
995.74	210.44
996.03	210.47
996.32	210.54
996.61	210.65
996.90	210.61
997.19	210.58
997.48	210.66
997.77	210.61
998.06	210.66
998.34	210.59
998.63	210.54
998.92	210.56
999.21	210.57
999.50	210.64
999.79	210.55
1000.08	210.50
1000.37	210.53
1000.66	210.47
1000.95	210.54
1001.24	210.65
1001.53	210.69
1001.82	210.68
1002.11	210.62
1002.40	210.68
1002.68	210.68
1002.97	210.87
1003.26	210.90
1003.55	210.79
1003.84	210.80
1004.13	210.90
1004.42	210.85
1004.71	210.88
1004.99	210.82
1005.28	210.92
1005.57	210.78
1005.86	210.73
1006.15	210.69
1006.44	210.61
1006.72	210.65
1007.01	210.62
1007.30	210.58
1007.59	210.57
1007.88	210.52
1008.17	210.58
1008.45	210.45
1008.74	210.37
1009.03	210.26
1009.32	210.30
1009.60	210.31
1009.89	210.33
1010.18	210.18
1010.47	210.19
1010.76	210.14
1011.04	210.09
1011.33	210.14
1011.62	210.13
1011.91	210.19
1012.19	210.20
1012.48	210.27
1012.77	210.27
1013.05	210.40
1013.34	210.46
1013.63	210.37
1013.92	210.45
1014.20	210.34
1014.49	210.41
1014.78	210.45
1015.06	210.39
1015.35	210.26
1015.64	210.31
1015.92	210.40
1016.21	210.46
1016.50	210.50
1016.78	210.53
1017.07	210.67
1017.36	210.58
1017.64	210.65
1017.93	210.63
1018.22	210.63
1018.50	210.56
1018.79	210.51
1019.08	210.40
1019.36	210.38
1019.65	210.41
1019.93	210.50
1020.22	210.66
1020.51	210.81
1020.79	210.83
1021.08	210.30
1021.36	209.85
1021.65	209.65
1021.94	211.05
1022.22	211.05
1022.51	210.05
1022.79	212.10
1023.08	212.25
1023.36	214.80
1023.65	210.95
>>>>>End Processed Spectral Data<<<<<
