SpectraSuite Data File
++++++++++++++++++++++++++++++++++++
Date: Mon Feb 25 17:08:03 EST 2013
User: group
Dark Spectrum Present: No
Reference Spectrum Present: No
Number of Sampled Component Spectra: 1
Spectrometers: USB2E7196
Integration Time (usec): 104000 (USB2E7196)
Spectra Averaged: 20 (USB2E7196)
Boxcar Smoothing: 10 (USB2E7196)
Correct for Electrical Dark: No (USB2E7196)
Strobe/Lamp Enabled: No (USB2E7196)
Correct for Detector Non-linearity: No (USB2E7196)
Correct for Stray Light: No (USB2E7196)
Number of Pixels in Processed Spectrum: 2048
>>>>>Begin Processed Spectral Data<<<<<
339.09	0.00
339.48	198.35
339.86	199.95
340.24	200.65
340.63	202.30
341.01	210.20
341.39	207.45
341.78	208.20
342.16	208.60
342.54	208.05
342.93	198.40
343.31	208.41
343.69	209.00
344.07	209.49
344.46	209.96
344.84	210.41
345.22	210.44
345.60	210.58
345.99	210.77
346.37	210.93
346.75	211.09
347.13	211.16
347.52	211.20
347.90	211.34
348.28	211.33
348.66	211.44
349.05	211.39
349.43	211.45
349.81	211.49
350.19	211.55
350.57	211.63
350.96	211.62
351.34	211.71
351.72	211.80
352.10	211.85
352.48	211.85
352.87	211.85
353.25	211.93
353.63	212.01
354.01	212.00
354.39	212.03
354.77	212.08
355.15	212.23
355.54	212.29
355.92	212.20
356.30	212.29
356.68	212.51
357.06	212.50
357.44	212.48
357.82	212.54
358.20	212.51
358.58	212.50
358.97	212.59
359.35	212.68
359.73	212.68
360.11	212.71
360.49	212.85
360.87	212.81
361.25	212.84
361.63	212.96
362.01	212.98
362.39	213.02
362.77	213.05
363.15	213.04
363.53	213.02
363.91	213.09
364.29	213.02
364.67	212.68
365.05	212.75
365.43	212.79
365.81	212.80
366.19	212.96
366.57	213.11
366.95	213.10
367.33	213.00
367.71	213.01
368.09	213.02
368.47	212.91
368.85	212.98
369.23	213.01
369.61	212.85
369.99	212.93
370.37	212.88
370.75	213.02
371.13	212.83
371.51	212.81
371.89	212.71
372.27	212.75
372.65	212.79
373.03	212.76
373.41	212.68
373.78	212.57
374.16	212.43
374.54	212.25
374.92	212.13
375.30	212.10
375.68	212.01
376.06	212.03
376.44	211.98
376.82	211.96
377.19	211.90
377.57	211.83
377.95	211.67
378.33	211.64
378.71	211.42
379.09	211.46
379.47	211.50
379.84	211.43
380.22	211.30
380.60	211.21
380.98	211.09
381.36	211.07
381.73	211.11
382.11	211.15
382.49	211.13
382.87	211.02
383.25	210.98
383.62	211.36
384.00	211.27
384.38	211.30
384.76	211.27
385.13	211.37
385.51	211.36
385.89	211.33
386.27	211.31
386.64	211.26
387.02	211.20
387.40	211.12
387.78	211.14
388.15	211.19
388.53	211.17
388.91	211.19
389.29	211.14
389.66	211.11
390.04	210.92
390.42	210.93
390.79	210.98
391.17	210.92
391.55	210.59
391.92	210.57
392.30	210.63
392.68	210.58
393.05	210.48
393.43	210.45
393.81	210.49
394.18	210.42
394.56	210.44
394.94	210.55
395.31	210.48
395.69	210.56
396.06	210.69
396.44	210.66
396.82	210.58
397.19	210.67
397.57	210.60
397.95	210.73
398.32	210.68
398.70	210.72
399.07	210.80
399.45	210.73
399.82	210.72
400.20	210.59
400.58	210.62
400.95	210.54
401.33	210.69
401.70	210.84
402.08	210.88
402.45	210.92
402.83	211.02
403.20	211.12
403.58	211.20
403.95	211.15
404.33	211.30
404.71	211.39
405.08	211.64
405.46	211.71
405.83	211.76
406.21	211.82
406.58	211.97
406.96	212.03
407.33	212.13
407.70	212.30
408.08	212.74
408.45	212.93
408.83	213.12
409.20	213.20
409.58	213.20
409.95	213.41
410.33	213.62
410.70	213.65
411.08	213.93
411.45	214.08
411.82	214.31
412.20	214.59
412.57	215.10
412.95	215.18
413.32	215.64
413.69	216.03
414.07	216.51
414.44	216.92
414.82	217.35
415.19	217.96
415.56	218.46
415.94	218.78
416.31	219.42
416.68	220.10
417.06	220.86
417.43	221.66
417.81	222.49
418.18	223.31
418.55	224.24
418.93	225.20
419.30	226.23
419.67	227.30
420.04	228.41
420.42	229.50
420.79	231.04
421.16	232.30
421.54	233.80
421.91	235.16
422.28	236.55
422.66	238.16
423.03	239.83
423.40	241.48
423.77	243.20
424.15	244.90
424.52	246.70
424.89	248.71
425.26	250.56
425.64	252.41
426.01	254.32
426.38	256.37
426.75	258.48
427.13	260.64
427.50	262.97
427.87	265.26
428.24	267.61
428.61	269.66
428.99	272.27
429.36	274.85
429.73	277.54
430.10	280.35
430.47	283.09
430.85	285.76
431.22	288.69
431.59	292.18
431.96	295.28
432.33	298.60
432.70	301.87
433.08	305.82
433.45	309.42
433.82	313.15
434.19	317.32
434.56	321.29
434.93	325.07
435.30	328.80
435.68	332.97
436.05	337.13
436.42	341.32
436.79	345.11
437.16	349.15
437.53	353.51
437.90	357.81
438.27	362.09
438.64	366.46
439.01	370.62
439.38	373.99
439.75	377.52
440.13	381.55
440.50	385.31
440.87	388.39
441.24	391.57
441.61	395.10
441.98	397.70
442.35	400.71
442.72	403.92
443.09	407.11
443.46	409.04
443.83	410.35
444.20	411.47
444.57	412.94
444.94	413.80
445.31	414.66
445.68	415.85
446.05	416.35
446.42	416.00
446.79	415.75
447.16	415.37
447.53	415.09
447.90	413.68
448.27	412.20
448.64	410.10
449.01	408.78
449.37	406.12
449.74	403.47
450.11	400.65
450.48	397.24
450.85	393.62
451.22	390.64
451.59	387.90
451.96	385.20
452.33	381.59
452.70	378.31
453.07	374.19
453.43	369.73
453.80	365.79
454.17	362.10
454.54	358.39
454.91	354.49
455.28	350.73
455.65	347.12
456.02	344.09
456.38	341.12
456.75	337.35
457.12	334.18
457.49	331.23
457.86	328.07
458.23	325.45
458.59	322.69
458.96	319.85
459.33	317.28
459.70	314.67
460.07	312.60
460.43	310.25
460.80	308.19
461.17	306.34
461.54	304.27
461.91	302.29
462.27	300.44
462.64	298.84
463.01	297.04
463.38	295.49
463.74	293.22
464.11	291.57
464.48	290.24
464.85	288.74
465.21	287.60
465.58	286.27
465.95	284.78
466.32	283.60
466.68	282.36
467.05	281.11
467.42	279.99
467.78	278.74
468.15	277.58
468.52	276.73
468.88	275.51
469.25	274.50
469.62	273.80
469.98	272.85
470.35	272.01
470.72	271.17
471.08	270.16
471.45	269.57
471.82	268.99
472.18	268.13
472.55	267.58
472.92	266.70
473.28	266.12
473.65	265.54
474.02	264.87
474.38	264.43
474.75	264.07
475.11	263.55
475.48	263.27
475.85	262.90
476.21	262.49
476.58	262.18
476.94	261.97
477.31	261.74
477.67	261.51
478.04	261.22
478.41	261.20
478.77	261.43
479.14	261.18
479.50	260.93
479.87	260.93
480.23	260.87
480.60	260.85
480.96	260.79
481.33	260.93
481.69	260.96
482.06	260.98
482.42	260.95
482.79	261.05
483.15	261.15
483.52	261.39
483.88	261.43
484.25	261.53
484.61	261.76
484.98	261.86
485.34	262.16
485.71	262.61
486.07	262.85
486.44	262.85
486.80	263.29
487.17	263.78
487.53	264.36
487.90	264.98
488.26	265.80
488.62	266.54
488.99	267.10
489.35	267.83
489.72	268.51
490.08	269.20
490.44	269.95
490.81	270.85
491.17	271.61
491.54	272.56
491.90	273.63
492.26	274.49
492.63	275.60
492.99	276.58
493.36	277.63
493.72	278.76
494.08	280.08
494.45	281.26
494.81	282.59
495.17	283.76
495.54	285.07
495.90	286.27
496.26	287.56
496.63	288.98
496.99	290.37
497.35	291.91
497.72	293.46
498.08	295.10
498.44	296.66
498.80	298.45
499.17	300.33
499.53	302.08
499.89	304.01
500.26	305.80
500.62	307.60
500.98	309.61
501.34	311.66
501.71	313.60
502.07	315.70
502.43	317.68
502.79	319.69
503.16	321.80
503.52	323.95
503.88	326.19
504.24	328.44
504.60	330.76
504.97	333.15
505.33	335.57
505.69	338.12
506.05	340.71
506.41	343.16
506.78	345.53
507.14	347.98
507.50	350.49
507.86	353.13
508.22	355.91
508.59	358.36
508.95	361.01
509.31	363.92
509.67	366.66
510.03	369.59
510.39	372.48
510.75	375.34
511.12	378.28
511.48	381.32
511.84	384.31
512.20	387.37
512.56	390.56
512.92	393.69
513.28	396.76
513.64	399.78
514.00	402.83
514.37	406.05
514.73	409.38
515.09	412.70
515.45	415.98
515.81	419.27
516.17	422.69
516.53	425.92
516.89	429.06
517.25	432.37
517.61	435.71
517.97	439.17
518.33	442.64
518.69	446.13
519.05	449.65
519.41	453.24
519.77	456.97
520.13	460.39
520.49	463.96
520.85	467.61
521.21	471.49
521.57	475.24
521.93	478.75
522.29	482.49
522.65	486.31
523.01	490.10
523.37	493.82
523.73	497.67
524.09	501.65
524.45	505.68
524.81	509.64
525.17	513.78
525.53	517.74
525.89	521.91
526.25	526.14
526.61	529.99
526.97	534.00
527.33	537.95
527.68	542.35
528.04	546.31
528.40	550.28
528.76	554.37
529.12	558.64
529.48	563.15
529.84	567.43
530.20	571.64
530.56	575.91
530.91	580.29
531.27	584.57
531.63	588.90
531.99	593.27
532.35	597.68
532.71	601.85
533.07	606.29
533.42	610.74
533.78	614.84
534.14	619.18
534.50	623.28
534.86	627.64
535.21	631.37
535.57	635.87
535.93	639.93
536.29	643.97
536.65	648.18
537.00	652.04
537.36	655.96
537.72	659.77
538.08	663.93
538.44	667.93
538.79	671.93
539.15	675.80
539.51	679.58
539.87	683.53
540.22	687.39
540.58	691.39
540.94	694.93
541.29	698.58
541.65	702.28
542.01	706.34
542.37	710.08
542.72	713.94
543.08	717.33
543.44	721.39
543.79	724.76
544.15	728.20
544.51	732.00
544.87	735.63
545.22	739.19
545.58	742.28
545.94	745.39
546.29	748.72
546.65	751.97
547.01	754.95
547.36	758.07
547.72	761.07
548.07	763.87
548.43	766.58
548.79	769.45
549.14	771.91
549.50	774.34
549.86	776.60
550.21	779.06
550.57	781.74
550.92	783.72
551.28	786.07
551.64	788.34
551.99	790.47
552.35	792.36
552.70	794.47
553.06	796.63
553.41	798.66
553.77	800.69
554.13	802.46
554.48	804.64
554.84	806.42
555.19	808.13
555.55	809.90
555.90	811.51
556.26	813.03
556.61	814.67
556.97	815.91
557.32	817.27
557.68	818.46
558.03	819.55
558.39	820.89
558.74	822.25
559.10	823.49
559.45	824.70
559.81	826.36
560.16	827.31
560.52	828.60
560.87	829.74
561.23	830.56
561.58	831.92
561.94	832.43
562.29	833.18
562.64	833.94
563.00	834.68
563.35	835.60
563.71	836.63
564.06	837.65
564.42	838.62
564.77	839.68
565.12	840.80
565.48	841.96
565.83	842.93
566.19	843.89
566.54	844.35
566.89	844.83
567.25	845.25
567.60	845.99
567.96	846.44
568.31	847.08
568.66	847.35
569.02	847.06
569.37	847.26
569.72	847.51
570.08	847.58
570.43	847.39
570.78	847.25
571.14	846.90
571.49	846.52
571.84	846.30
572.20	845.93
572.55	845.47
572.90	844.54
573.26	843.55
573.61	842.69
573.96	841.86
574.31	840.73
574.67	839.62
575.02	838.36
575.37	837.17
575.72	835.62
576.08	834.74
576.43	833.71
576.78	832.75
577.13	831.44
577.49	830.55
577.84	829.45
578.19	828.45
578.54	827.52
578.90	826.69
579.25	825.70
579.60	824.14
579.95	822.45
580.30	821.48
580.66	820.63
581.01	819.15
581.36	817.79
581.71	816.75
582.06	815.74
582.42	814.57
582.77	813.23
583.12	812.21
583.47	810.96
583.82	809.81
584.17	808.72
584.53	807.83
584.88	806.59
585.23	805.47
585.58	804.29
585.93	802.89
586.28	801.72
586.63	800.39
586.98	799.43
587.34	798.79
587.69	797.31
588.04	795.84
588.39	794.74
588.74	793.51
589.09	792.47
589.44	790.82
589.79	789.72
590.14	788.29
590.49	786.82
590.84	785.47
591.19	784.37
591.54	782.75
591.89	780.85
592.25	779.44
592.60	777.72
592.95	775.89
593.30	774.15
593.65	772.08
594.00	770.30
594.35	769.60
594.70	767.59
595.05	765.96
595.40	764.38
595.75	762.53
596.10	761.00
596.45	759.40
596.80	758.04
597.15	756.47
597.50	754.97
597.85	753.69
598.19	751.95
598.54	750.35
598.89	748.90
599.24	747.76
599.59	746.00
599.94	744.84
600.29	743.35
600.64	741.99
600.99	740.55
601.34	739.08
601.69	736.49
602.04	734.91
602.39	733.29
602.74	731.81
603.08	730.63
603.43	729.61
603.78	727.97
604.13	726.25
604.48	724.50
604.83	723.26
605.18	721.84
605.53	720.44
605.87	718.78
606.22	717.34
606.57	715.59
606.92	714.02
607.27	712.16
607.62	710.63
607.96	709.05
608.31	707.61
608.66	705.97
609.01	704.33
609.36	702.52
609.70	700.81
610.05	698.86
610.40	696.91
610.75	694.61
611.10	692.95
611.44	690.96
611.79	688.98
612.14	686.72
612.49	684.23
612.83	681.86
613.18	679.63
613.53	677.37
613.88	675.17
614.22	673.03
614.57	670.77
614.92	668.49
615.27	666.12
615.61	663.80
615.96	661.60
616.31	659.49
616.65	657.74
617.00	655.62
617.35	653.57
617.70	651.38
618.04	649.06
618.39	646.37
618.74	644.19
619.08	641.84
619.43	639.60
619.78	637.48
620.12	635.41
620.47	633.22
620.82	630.71
621.16	628.14
621.51	625.86
621.85	623.55
622.20	621.26
622.55	618.88
622.89	616.49
623.24	614.35
623.59	611.90
623.93	609.44
624.28	607.28
624.62	605.28
624.97	603.12
625.32	600.88
625.66	598.85
626.01	596.57
626.35	594.38
626.70	592.10
627.04	590.01
627.39	587.73
627.73	585.68
628.08	583.80
628.43	581.53
628.77	579.17
629.12	577.02
629.46	574.94
629.81	572.86
630.15	570.73
630.50	568.34
630.84	566.09
631.19	563.83
631.53	561.54
631.88	559.03
632.22	556.52
632.57	554.60
632.91	552.43
633.26	550.33
633.60	548.30
633.95	546.29
634.29	544.00
634.64	541.91
634.98	539.48
635.32	537.28
635.67	535.51
636.01	533.69
636.36	531.48
636.70	529.59
637.05	527.66
637.39	525.69
637.73	523.77
638.08	522.10
638.42	520.33
638.77	518.38
639.11	516.25
639.45	514.29
639.80	512.09
640.14	509.90
640.49	507.86
640.83	505.86
641.17	503.86
641.52	501.83
641.86	499.81
642.20	498.11
642.55	495.94
642.89	493.85
643.23	491.58
643.58	489.89
643.92	487.67
644.26	485.55
644.61	483.67
644.95	481.53
645.29	479.36
645.64	477.25
645.98	475.20
646.32	473.37
646.66	471.30
647.01	469.37
647.35	467.57
647.69	465.52
648.04	463.55
648.38	461.41
648.72	459.45
649.06	457.40
649.41	455.16
649.75	453.23
650.09	451.35
650.43	449.41
650.78	447.22
651.12	445.31
651.46	443.33
651.80	441.34
652.14	439.50
652.49	437.60
652.83	435.55
653.17	433.56
653.51	431.56
653.85	429.75
654.20	427.80
654.54	425.73
654.88	423.83
655.22	421.91
655.56	419.97
655.90	418.12
656.25	416.32
656.59	414.50
656.93	412.80
657.27	411.05
657.61	409.13
657.95	407.46
658.29	405.65
658.64	404.03
658.98	402.16
659.32	400.19
659.66	398.40
660.00	396.68
660.34	394.83
660.68	393.03
661.02	391.33
661.36	389.63
661.70	388.08
662.05	386.46
662.39	385.04
662.73	383.71
663.07	382.39
663.41	380.77
663.75	379.17
664.09	377.52
664.43	375.72
664.77	374.33
665.11	372.75
665.45	371.22
665.79	369.64
666.13	368.11
666.47	366.70
666.81	365.19
667.15	363.67
667.49	362.43
667.83	361.15
668.17	359.67
668.51	358.42
668.85	357.15
669.19	356.02
669.53	354.42
669.87	352.99
670.21	351.43
670.55	350.18
670.89	349.20
671.23	348.00
671.57	346.88
671.91	345.60
672.25	344.43
672.58	343.31
672.92	342.06
673.26	340.94
673.60	339.82
673.94	338.69
674.28	337.61
674.62	336.45
674.96	335.26
675.30	334.19
675.64	333.03
675.97	331.79
676.31	330.54
676.65	329.53
676.99	328.51
677.33	327.35
677.67	326.20
678.01	324.86
678.34	323.78
678.68	322.76
679.02	321.72
679.36	320.64
679.70	319.56
680.04	318.53
680.37	317.43
680.71	316.40
681.05	315.35
681.39	314.34
681.73	313.30
682.06	312.38
682.40	311.48
682.74	310.55
683.08	309.70
683.42	308.77
683.75	307.86
684.09	306.86
684.43	305.99
684.77	305.01
685.10	304.08
685.44	303.08
685.78	302.15
686.12	301.18
686.45	300.18
686.79	299.22
687.13	298.48
687.46	297.66
687.80	296.88
688.14	296.02
688.48	295.20
688.81	294.37
689.15	293.50
689.49	292.52
689.82	291.60
690.16	290.61
690.50	289.62
690.83	288.71
691.17	287.79
691.51	286.98
691.84	286.18
692.18	285.40
692.52	284.72
692.85	284.03
693.19	283.43
693.52	282.73
693.86	281.91
694.20	281.12
694.53	280.43
694.87	279.66
695.21	278.86
695.54	278.14
695.88	277.23
696.21	276.42
696.55	275.75
696.88	275.01
697.22	274.33
697.56	273.82
697.89	273.14
698.23	272.47
698.56	271.72
698.90	271.21
699.23	270.54
699.57	269.78
699.90	269.01
700.24	268.27
700.58	267.65
700.91	267.15
701.25	266.72
701.58	266.03
701.92	265.51
702.25	264.98
702.59	264.33
702.92	263.97
703.26	263.49
703.59	263.02
703.93	262.78
704.26	262.27
704.60	261.65
704.93	261.12
705.26	260.54
705.60	260.12
705.93	259.45
706.27	259.09
706.60	258.70
706.94	258.40
707.27	257.80
707.61	257.36
707.94	256.77
708.27	256.00
708.61	255.45
708.94	254.85
709.28	254.39
709.61	253.89
709.94	253.43
710.28	252.99
710.61	252.51
710.95	251.67
711.28	251.39
711.61	250.99
711.95	250.62
712.28	250.19
712.61	249.73
712.95	249.55
713.28	249.23
713.61	248.78
713.95	248.25
714.28	247.95
714.61	247.50
714.95	247.09
715.28	246.67
715.61	246.39
715.95	246.06
716.28	245.59
716.61	245.29
716.95	244.90
717.28	244.52
717.61	244.16
717.94	243.99
718.28	243.45
718.61	243.07
718.94	242.65
719.27	242.37
719.61	242.05
719.94	241.59
720.27	241.09
720.60	240.73
720.94	240.39
721.27	240.05
721.60	239.78
721.93	239.57
722.27	239.42
722.60	239.14
722.93	238.90
723.26	238.73
723.59	238.28
723.93	238.03
724.26	237.71
724.59	237.39
724.92	237.09
725.25	236.99
725.59	236.76
725.92	236.60
726.25	236.36
726.58	236.12
726.91	235.84
727.24	235.54
727.57	235.30
727.91	234.98
728.24	234.76
728.57	234.50
728.90	234.34
729.23	234.04
729.56	233.88
729.89	233.62
730.22	233.42
730.55	233.33
730.89	233.12
731.22	232.90
731.55	232.72
731.88	232.51
732.21	232.23
732.54	232.02
732.87	231.75
733.20	231.53
733.53	231.31
733.86	231.19
734.19	230.97
734.52	230.86
734.85	230.95
735.18	230.71
735.51	230.68
735.84	230.44
736.17	230.34
736.50	230.08
736.83	230.30
737.16	230.07
737.49	229.95
737.82	229.69
738.15	229.57
738.48	229.36
738.81	229.21
739.14	228.90
739.47	228.65
739.80	228.47
740.13	228.36
740.46	228.10
740.79	227.93
741.12	227.79
741.45	227.51
741.78	227.12
742.11	227.11
742.44	226.80
742.77	226.70
743.10	226.45
743.43	226.29
743.75	225.70
744.08	225.94
744.41	225.62
744.74	225.51
745.07	225.31
745.40	225.26
745.73	225.25
746.06	225.16
746.39	225.06
746.71	224.88
747.04	224.70
747.37	224.63
747.70	224.53
748.03	224.38
748.36	224.36
748.68	224.23
749.01	223.93
749.34	223.80
749.67	223.65
750.00	223.57
750.33	223.66
750.65	223.64
750.98	223.14
751.31	223.05
751.64	222.89
751.97	223.00
752.29	222.82
752.62	222.47
752.95	222.26
753.28	222.11
753.60	221.99
753.93	221.96
754.26	221.87
754.59	221.63
754.91	221.50
755.24	221.37
755.57	221.24
755.90	221.12
756.22	220.98
756.55	220.84
756.88	220.62
757.20	220.26
757.53	219.98
757.86	219.89
758.19	219.84
758.51	219.74
758.84	219.40
759.17	219.28
759.49	219.23
759.82	219.40
760.15	219.31
760.47	219.19
760.80	218.94
761.13	218.93
761.45	218.94
761.78	218.84
762.11	218.74
762.43	218.66
762.76	218.63
763.08	218.62
763.41	218.51
763.74	218.47
764.06	218.35
764.39	218.34
764.71	218.23
765.04	218.10
765.37	218.02
765.69	217.94
766.02	217.87
766.34	217.77
766.67	217.55
767.00	217.59
767.32	217.75
767.65	217.90
767.97	217.72
768.30	217.62
768.62	217.52
768.95	217.42
769.27	217.40
769.60	217.35
769.92	217.25
770.25	217.10
770.57	217.07
770.90	217.00
771.22	216.93
771.55	216.88
771.87	216.87
772.20	216.81
772.52	217.04
772.85	217.38
773.17	217.33
773.50	217.21
773.82	217.05
774.15	216.89
774.47	216.69
774.80	216.67
775.12	216.60
775.45	216.65
775.77	216.61
776.09	216.60
776.42	216.53
776.74	216.54
777.07	216.50
777.39	216.44
777.72	216.41
778.04	216.38
778.36	216.29
778.69	216.27
779.01	216.33
779.33	216.08
779.66	215.66
779.98	215.58
780.31	215.59
780.63	215.75
780.95	215.69
781.28	215.59
781.60	215.50
781.92	215.48
782.25	215.33
782.57	215.23
782.89	215.08
783.22	215.06
783.54	214.94
783.86	214.96
784.19	214.95
784.51	214.99
784.83	214.91
785.16	214.91
785.48	214.90
785.80	214.88
786.12	214.76
786.45	214.69
786.77	214.69
787.09	214.63
787.42	214.52
787.74	214.46
788.06	214.46
788.38	214.43
788.71	214.35
789.03	214.41
789.35	214.58
789.67	214.60
789.99	214.62
790.32	214.55
790.64	214.57
790.96	214.73
791.28	214.68
791.61	214.61
791.93	214.54
792.25	214.51
792.57	214.63
792.89	214.57
793.21	214.59
793.54	214.61
793.86	214.57
794.18	214.50
794.50	214.46
794.82	214.44
795.14	214.51
795.47	214.55
795.79	214.50
796.11	214.34
796.43	214.24
796.75	214.20
797.07	214.20
797.39	214.14
797.71	213.95
798.04	213.90
798.36	214.03
798.68	214.05
799.00	213.99
799.32	213.77
799.64	213.88
799.96	213.89
800.28	213.85
800.60	213.82
800.92	213.79
801.24	213.76
801.56	213.75
801.89	213.71
802.21	213.72
802.53	213.67
802.85	213.78
803.17	214.00
803.49	213.93
803.81	213.91
804.13	213.93
804.45	213.91
804.77	213.87
805.09	213.64
805.41	213.59
805.73	213.52
806.05	213.42
806.37	213.35
806.69	213.27
807.01	213.34
807.33	213.33
807.65	213.18
807.97	213.31
808.28	213.22
808.60	213.15
808.92	213.09
809.24	213.31
809.56	213.15
809.88	212.97
810.20	212.90
810.52	213.00
810.84	212.86
811.16	212.77
811.48	212.76
811.80	212.96
812.12	212.95
812.43	213.03
812.75	213.02
813.07	212.97
813.39	212.95
813.71	212.80
814.03	212.77
814.35	212.80
814.67	212.60
814.98	212.57
815.30	212.55
815.62	212.46
815.94	212.21
816.26	212.28
816.58	212.21
816.89	212.32
817.21	212.24
817.53	212.30
817.85	212.38
818.17	212.39
818.48	212.24
818.80	212.32
819.12	212.25
819.44	212.22
819.76	212.16
820.07	212.12
820.39	212.18
820.71	212.14
821.03	212.17
821.34	212.19
821.66	212.25
821.98	212.25
822.30	212.27
822.61	212.48
822.93	212.45
823.25	212.45
823.57	212.35
823.88	212.36
824.20	212.36
824.52	212.31
824.83	212.23
825.15	212.24
825.47	212.18
825.79	212.18
826.10	212.11
826.42	212.12
826.74	212.16
827.05	212.08
827.37	212.13
827.69	212.05
828.00	212.09
828.32	212.04
828.64	212.02
828.95	212.18
829.27	212.10
829.58	212.05
829.90	212.12
830.22	212.15
830.53	212.03
830.85	211.96
831.17	211.87
831.48	211.93
831.80	211.94
832.11	211.88
832.43	211.84
832.75	211.86
833.06	212.09
833.38	212.01
833.69	212.04
834.01	212.01
834.32	212.07
834.64	211.99
834.96	212.04
835.27	212.03
835.59	211.91
835.90	211.77
836.22	211.76
836.53	211.66
836.85	211.60
837.16	212.03
837.48	212.00
837.79	212.13
838.11	212.22
838.42	212.14
838.74	212.22
839.05	212.17
839.37	212.24
839.68	211.99
840.00	211.97
840.31	212.02
840.63	212.05
840.94	211.99
841.26	212.00
841.57	211.92
841.88	211.97
842.20	211.89
842.51	211.84
842.83	211.81
843.14	212.13
843.46	212.14
843.77	211.85
844.08	211.86
844.40	211.69
844.71	211.61
845.03	211.68
845.34	211.61
845.65	211.64
845.97	211.60
846.28	211.70
846.60	211.71
846.91	211.62
847.22	211.56
847.54	211.65
847.85	211.67
848.16	211.66
848.48	211.54
848.79	211.65
849.10	211.69
849.42	211.76
849.73	211.39
850.04	211.37
850.36	211.31
850.67	211.34
850.98	211.36
851.30	211.40
851.61	211.38
851.92	211.39
852.23	211.51
852.55	211.54
852.86	211.48
853.17	211.52
853.49	211.58
853.80	211.66
854.11	211.69
854.42	211.76
854.74	211.76
855.05	211.90
855.36	211.76
855.67	211.77
855.99	211.76
856.30	212.20
856.61	212.23
856.92	212.19
857.23	212.20
857.55	212.15
857.86	212.08
858.17	212.10
858.48	212.02
858.79	211.92
859.11	211.91
859.42	211.91
859.73	211.83
860.04	211.80
860.35	211.75
860.66	211.66
860.98	211.58
861.29	211.60
861.60	211.44
861.91	211.50
862.22	211.41
862.53	211.36
862.84	211.03
863.16	211.04
863.47	211.01
863.78	211.00
864.09	211.10
864.40	211.17
864.71	211.19
865.02	211.24
865.33	211.25
865.64	211.19
865.95	211.11
866.27	211.36
866.58	211.36
866.89	211.40
867.20	211.35
867.51	211.33
867.82	211.31
868.13	211.46
868.44	211.45
868.75	211.63
869.06	211.64
869.37	211.59
869.68	211.56
869.99	211.60
870.30	211.67
870.61	211.66
870.92	211.65
871.23	211.64
871.54	211.70
871.85	211.73
872.16	211.85
872.47	211.86
872.78	211.68
873.09	211.74
873.40	211.63
873.71	211.75
874.02	211.70
874.33	211.65
874.64	211.62
874.95	211.66
875.26	211.52
875.56	211.53
875.87	211.54
876.18	211.52
876.49	211.87
876.80	211.75
877.11	211.74
877.42	211.63
877.73	211.58
878.04	211.56
878.35	211.58
878.66	211.60
878.96	211.59
879.27	211.66
879.58	211.53
879.89	211.53
880.20	211.55
880.51	211.55
880.82	211.58
881.12	211.46
881.43	211.38
881.74	211.35
882.05	211.34
882.36	211.35
882.67	211.37
882.97	210.98
883.28	211.02
883.59	210.91
883.90	211.02
884.21	211.04
884.51	211.00
884.82	210.92
885.13	210.82
885.44	210.80
885.74	210.75
886.05	210.77
886.36	210.78
886.67	210.74
886.98	210.98
887.28	211.02
887.59	211.06
887.90	211.05
888.20	211.06
888.51	211.05
888.82	210.98
889.13	210.95
889.43	211.30
889.74	211.18
890.05	211.20
890.35	211.14
890.66	211.12
890.97	211.04
891.28	211.00
891.58	211.01
891.89	211.09
892.20	211.06
892.50	211.12
892.81	211.10
893.12	211.05
893.42	210.83
893.73	210.83
894.04	210.88
894.34	210.93
894.65	210.94
894.95	210.94
895.26	210.97
895.57	211.18
895.87	210.81
896.18	211.00
896.48	211.12
896.79	211.10
897.10	211.10
897.40	211.13
897.71	211.15
898.01	211.17
898.32	211.14
898.63	211.09
898.93	211.09
899.24	211.10
899.54	211.08
899.85	211.08
900.15	211.12
900.46	211.14
900.76	211.20
901.07	211.15
901.38	211.18
901.68	211.22
901.99	211.04
902.29	211.03
902.60	210.90
902.90	210.89
903.21	210.91
903.51	210.84
903.82	210.96
904.12	210.98
904.43	210.97
904.73	210.99
905.03	211.03
905.34	211.36
905.64	211.31
905.95	211.23
906.25	211.22
906.56	211.23
906.86	211.18
907.17	211.14
907.47	211.24
907.77	211.22
908.08	211.18
908.38	211.12
908.69	211.20
908.99	211.33
909.30	211.27
909.60	211.30
909.90	211.42
910.21	211.33
910.51	211.27
910.81	211.27
911.12	211.25
911.42	211.28
911.73	210.90
912.03	210.95
912.33	211.09
912.64	211.14
912.94	211.02
913.24	210.90
913.55	210.88
913.85	210.85
914.15	210.85
914.46	210.85
914.76	210.91
915.06	210.86
915.37	210.77
915.67	210.76
915.97	210.78
916.27	210.62
916.58	210.64
916.88	210.65
917.18	210.67
917.49	210.94
917.79	210.85
918.09	210.88
918.39	210.96
918.70	210.90
919.00	210.95
919.30	211.11
919.60	211.11
919.91	211.01
920.21	210.96
920.51	210.95
920.81	210.94
921.12	210.93
921.42	210.92
921.72	210.97
922.02	210.96
922.32	210.94
922.63	211.04
922.93	211.20
923.23	211.26
923.53	211.16
923.83	210.91
924.13	210.98
924.44	210.98
924.74	210.99
925.04	211.10
925.34	210.97
925.64	210.84
925.94	210.90
926.24	211.08
926.55	211.08
926.85	211.05
927.15	211.00
927.45	211.00
927.75	211.03
928.05	210.97
928.35	210.98
928.65	211.03
928.95	211.05
929.26	210.86
929.56	210.93
929.86	210.95
930.16	210.88
930.46	210.89
930.76	210.86
931.06	210.78
931.36	210.72
931.66	210.90
931.96	210.95
932.26	211.04
932.56	210.91
932.86	210.97
933.16	211.06
933.46	211.05
933.76	211.06
934.06	211.14
934.36	211.29
934.66	211.28
934.96	211.24
935.26	211.29
935.56	211.39
935.86	211.28
936.16	211.30
936.46	211.30
936.76	211.30
937.06	211.30
937.36	211.34
937.66	211.30
937.96	211.20
938.26	211.15
938.56	211.05
938.86	211.17
939.16	211.22
939.46	211.25
939.76	211.29
940.06	211.32
940.35	211.20
940.65	211.05
940.95	211.06
941.25	211.01
941.55	210.98
941.85	210.94
942.15	211.01
942.45	211.13
942.75	211.18
943.04	211.17
943.34	211.26
943.64	211.26
943.94	211.29
944.24	211.32
944.54	211.39
944.84	211.40
945.13	211.28
945.43	211.24
945.73	211.25
946.03	211.26
946.33	211.19
946.62	211.17
946.92	211.15
947.22	211.22
947.52	211.29
947.82	211.30
948.11	211.27
948.41	211.16
948.71	211.00
949.01	210.96
949.31	210.95
949.60	210.92
949.90	210.97
950.20	210.93
950.50	210.87
950.79	210.80
951.09	210.90
951.39	210.94
951.69	210.88
951.98	210.91
952.28	210.93
952.58	210.94
952.87	210.99
953.17	211.06
953.47	211.00
953.76	210.97
954.06	210.95
954.36	210.88
954.66	210.91
954.95	211.06
955.25	211.15
955.55	211.15
955.84	211.06
956.14	211.03
956.44	211.02
956.73	211.00
957.03	211.11
957.32	211.11
957.62	211.10
957.92	211.17
958.21	211.11
958.51	211.46
958.81	211.46
959.10	211.42
959.40	211.43
959.69	211.45
959.99	211.57
960.29	211.56
960.58	211.52
960.88	211.65
961.17	211.63
961.47	211.65
961.76	211.67
962.06	211.73
962.36	211.70
962.65	211.73
962.95	211.75
963.24	211.68
963.54	211.66
963.83	211.77
964.13	211.73
964.42	211.66
964.72	211.36
965.01	211.41
965.31	211.44
965.60	211.36
965.90	211.60
966.19	211.41
966.49	211.35
966.78	211.38
967.08	211.32
967.37	211.29
967.67	211.15
967.96	211.15
968.26	211.19
968.55	211.20
968.85	211.17
969.14	211.17
969.43	211.18
969.73	211.17
970.02	211.03
970.32	211.05
970.61	211.06
970.91	211.02
971.20	210.93
971.49	210.91
971.79	210.95
972.08	210.71
972.38	210.83
972.67	210.83
972.96	210.95
973.26	210.80
973.55	210.96
973.85	210.97
974.14	211.01
974.43	211.08
974.73	211.02
975.02	211.02
975.31	211.05
975.61	211.03
975.90	211.02
976.19	210.97
976.49	211.00
976.78	211.05
977.07	211.08
977.37	211.15
977.66	211.20
977.95	211.21
978.24	211.20
978.54	211.30
978.83	211.32
979.12	211.23
979.42	211.37
979.71	211.25
980.00	211.30
980.29	211.32
980.59	211.17
980.88	211.31
981.17	211.31
981.46	211.27
981.76	211.31
982.05	211.41
982.34	211.47
982.63	211.39
982.93	211.34
983.22	211.41
983.51	211.45
983.80	211.45
984.09	211.45
984.39	211.43
984.68	211.31
984.97	211.29
985.26	211.35
985.55	211.35
985.85	211.35
986.14	211.38
986.43	211.47
986.72	211.45
987.01	211.28
987.30	211.19
987.59	211.17
987.89	211.11
988.18	211.02
988.47	211.08
988.76	211.08
989.05	211.05
989.34	210.95
989.63	210.97
989.92	210.97
990.22	210.90
990.51	210.96
990.80	210.90
991.09	210.96
991.38	210.97
991.67	210.94
991.96	210.82
992.25	210.76
992.54	210.60
992.83	210.66
993.12	210.69
993.41	210.81
993.70	210.99
993.99	211.02
994.28	211.05
994.58	211.07
994.87	211.02
995.16	211.02
995.45	211.06
995.74	210.89
996.03	210.95
996.32	210.98
996.61	211.09
996.90	211.10
997.19	211.06
997.48	210.98
997.77	210.88
998.06	210.95
998.34	210.96
998.63	210.98
998.92	210.89
999.21	210.96
999.50	210.99
999.79	210.81
1000.08	210.76
1000.37	210.67
1000.66	210.58
1000.95	210.67
1001.24	210.70
1001.53	210.66
1001.82	210.68
1002.11	210.54
1002.40	210.54
1002.68	210.45
1002.97	210.74
1003.26	210.76
1003.55	210.74
1003.84	210.79
1004.13	210.97
1004.42	210.97
1004.71	210.95
1004.99	210.96
1005.28	211.01
1005.57	210.93
1005.86	210.89
1006.15	210.95
1006.44	210.90
1006.72	210.97
1007.01	210.91
1007.30	210.90
1007.59	210.87
1007.88	210.96
1008.17	210.99
1008.45	210.97
1008.74	210.90
1009.03	210.65
1009.32	210.63
1009.60	210.63
1009.89	210.63
1010.18	210.32
1010.47	210.33
1010.76	210.31
1011.04	210.36
1011.33	210.37
1011.62	210.42
1011.91	210.48
1012.19	210.46
1012.48	210.56
1012.77	210.47
1013.05	210.64
1013.34	210.71
1013.63	210.72
1013.92	210.68
1014.20	210.67
1014.49	210.77
1014.78	210.75
1015.06	210.68
1015.35	210.66
1015.64	210.73
1015.92	210.74
1016.21	210.85
1016.50	210.82
1016.78	210.87
1017.07	210.87
1017.36	210.80
1017.64	210.71
1017.93	210.73
1018.22	210.70
1018.50	210.68
1018.79	210.70
1019.08	210.55
1019.36	210.49
1019.65	210.43
1019.93	210.48
1020.22	210.55
1020.51	210.64
1020.79	210.63
1021.08	210.30
1021.36	210.50
1021.65	209.90
1021.94	210.90
1022.22	210.60
1022.51	209.20
1022.79	211.30
1023.08	211.50
1023.36	214.05
1023.65	209.75
>>>>>End Processed Spectral Data<<<<<
