SpectraSuite Data File
++++++++++++++++++++++++++++++++++++
Date: Mon Feb 25 17:14:56 EST 2013
User: group
Dark Spectrum Present: No
Reference Spectrum Present: No
Number of Sampled Component Spectra: 1
Spectrometers: USB2E7196
Integration Time (usec): 104000 (USB2E7196)
Spectra Averaged: 20 (USB2E7196)
Boxcar Smoothing: 10 (USB2E7196)
Correct for Electrical Dark: No (USB2E7196)
Strobe/Lamp Enabled: No (USB2E7196)
Correct for Detector Non-linearity: No (USB2E7196)
Correct for Stray Light: No (USB2E7196)
Number of Pixels in Processed Spectrum: 2048
>>>>>Begin Processed Spectral Data<<<<<
339.09	0.00
339.48	199.30
339.86	200.70
340.24	201.75
340.63	203.75
341.01	211.05
341.39	206.65
341.78	207.70
342.16	209.25
342.54	207.95
342.93	198.50
343.31	208.49
343.69	208.93
344.07	209.37
344.46	209.79
344.84	210.12
345.22	210.07
345.60	210.25
345.99	210.31
346.37	210.34
346.75	210.44
347.13	210.51
347.52	210.51
347.90	210.66
348.28	210.74
348.66	210.83
349.05	210.66
349.43	210.68
349.81	210.73
350.19	210.72
350.57	210.77
350.96	210.86
351.34	210.96
351.72	211.09
352.10	211.13
352.48	211.16
352.87	211.22
353.25	211.26
353.63	211.25
354.01	211.37
354.39	211.51
354.77	211.56
355.15	211.67
355.54	211.65
355.92	211.58
356.30	211.62
356.68	211.92
357.06	212.04
357.44	212.04
357.82	212.16
358.20	212.27
358.58	212.32
358.97	212.35
359.35	212.46
359.73	212.61
360.11	212.70
360.49	212.80
360.87	212.90
361.25	213.04
361.63	213.30
362.01	213.45
362.39	213.49
362.77	213.61
363.15	213.70
363.53	213.74
363.91	213.84
364.29	213.86
364.67	213.60
365.05	213.65
365.43	213.87
365.81	214.00
366.19	214.22
366.57	214.41
366.95	214.41
367.33	214.35
367.71	214.35
368.09	214.43
368.47	214.50
368.85	214.47
369.23	214.52
369.61	214.41
369.99	214.49
370.37	214.52
370.75	214.70
371.13	214.56
371.51	214.56
371.89	214.58
372.27	214.64
372.65	214.67
373.03	214.73
373.41	214.59
373.78	214.47
374.16	214.16
374.54	214.05
374.92	214.06
375.30	214.03
375.68	213.92
376.06	213.95
376.44	213.84
376.82	213.85
377.19	213.80
377.57	213.74
377.95	213.53
378.33	213.46
378.71	213.26
379.09	213.35
379.47	213.38
379.84	213.29
380.22	213.24
380.60	213.09
380.98	212.94
381.36	212.91
381.73	212.83
382.11	212.94
382.49	212.84
382.87	212.75
383.25	212.81
383.62	213.21
384.00	213.07
384.38	213.05
384.76	213.10
385.13	213.19
385.51	213.15
385.89	213.09
386.27	213.10
386.64	213.09
387.02	213.00
387.40	212.98
387.78	212.97
388.15	212.93
388.53	212.92
388.91	212.90
389.29	212.89
389.66	212.90
390.04	212.80
390.42	212.85
390.79	212.85
391.17	212.81
391.55	212.38
391.92	212.38
392.30	212.38
392.68	212.22
393.05	212.17
393.43	212.20
393.81	212.25
394.18	212.17
394.56	212.12
394.94	212.20
395.31	212.16
395.69	212.27
396.06	212.35
396.44	212.30
396.82	212.22
397.19	212.36
397.57	212.36
397.95	212.44
398.32	212.32
398.70	212.39
399.07	212.38
399.45	212.40
399.82	212.37
400.20	212.32
400.58	212.34
400.95	212.21
401.33	212.29
401.70	212.52
402.08	212.59
402.45	212.64
402.83	212.73
403.20	212.73
403.58	212.75
403.95	212.79
404.33	212.99
404.71	213.08
405.08	213.30
405.46	213.35
405.83	213.41
406.21	213.54
406.58	213.65
406.96	213.75
407.33	213.89
407.70	214.02
408.08	214.38
408.45	214.62
408.83	214.83
409.20	215.01
409.58	215.02
409.95	215.28
410.33	215.44
410.70	215.56
411.08	215.92
411.45	216.12
411.82	216.41
412.20	216.73
412.57	217.31
412.95	217.37
413.32	217.91
413.69	218.35
414.07	218.81
414.44	219.29
414.82	219.86
415.19	220.45
415.56	221.14
415.94	221.69
416.31	222.45
416.68	223.14
417.06	223.96
417.43	224.90
417.81	225.82
418.18	226.97
418.55	227.99
418.93	229.01
419.30	230.21
419.67	231.40
420.04	232.66
420.42	233.78
420.79	235.55
421.16	236.99
421.54	238.67
421.91	240.27
422.28	241.92
422.66	243.69
423.03	245.64
423.40	247.47
423.77	249.36
424.15	251.26
424.52	253.35
424.89	255.62
425.26	257.59
425.64	259.58
426.01	261.61
426.38	263.92
426.75	266.34
427.13	268.74
427.50	271.30
427.87	273.89
428.24	276.55
428.61	278.90
428.99	281.77
429.36	284.60
429.73	287.55
430.10	290.60
430.47	293.55
430.85	296.54
431.22	299.81
431.59	303.43
431.96	306.81
432.33	310.48
432.70	314.02
433.08	318.28
433.45	322.29
433.82	326.30
434.19	330.77
434.56	335.16
434.93	339.14
435.30	343.19
435.68	347.73
436.05	352.16
436.42	356.51
436.79	360.43
437.16	364.71
437.53	369.31
437.90	373.76
438.27	378.29
438.64	382.82
439.01	387.18
439.38	390.79
439.75	394.46
440.13	398.72
440.50	402.63
440.87	405.91
441.24	409.19
441.61	412.80
441.98	415.29
442.35	418.22
442.72	421.55
443.09	424.67
443.46	426.36
443.83	427.59
444.20	428.60
444.57	430.07
444.94	430.84
445.31	431.54
445.68	432.56
446.05	432.67
446.42	432.13
446.79	431.48
447.16	430.93
447.53	430.45
447.90	428.66
448.27	426.85
448.64	424.35
449.01	422.54
449.37	419.56
449.74	416.71
450.11	413.40
450.48	409.45
450.85	405.41
451.22	402.07
451.59	398.77
451.96	395.75
452.33	391.80
452.70	388.16
453.07	383.71
453.43	378.85
453.80	374.63
454.17	370.53
454.54	366.64
454.91	362.48
455.28	358.33
455.65	354.58
456.02	351.24
456.38	348.00
456.75	344.04
457.12	340.67
457.49	337.46
457.86	334.14
458.23	331.57
458.59	328.61
458.96	325.72
459.33	323.22
459.70	320.56
460.07	318.40
460.43	315.88
460.80	313.72
461.17	311.85
461.54	309.76
461.91	307.91
462.27	305.87
462.64	304.15
463.01	302.37
463.38	300.63
463.74	298.36
464.11	296.72
464.48	295.30
464.85	293.76
465.21	292.58
465.58	291.36
465.95	289.77
466.32	288.51
466.68	287.16
467.05	285.89
467.42	284.65
467.78	283.38
468.15	282.30
468.52	281.35
468.88	280.15
469.25	279.15
469.62	278.39
469.98	277.46
470.35	276.67
470.72	275.92
471.08	274.94
471.45	274.42
471.82	273.89
472.18	273.22
472.55	272.80
472.92	272.13
473.28	271.57
473.65	271.06
474.02	270.66
474.38	270.43
474.75	270.11
475.11	269.84
475.48	269.67
475.85	269.44
476.21	269.30
476.58	269.17
476.94	269.16
477.31	268.99
477.67	269.04
478.04	268.99
478.41	269.05
478.77	269.52
479.14	269.53
479.50	269.61
479.87	269.91
480.23	270.09
480.60	270.31
480.96	270.65
481.33	271.10
481.69	271.45
482.06	271.78
482.42	272.31
482.79	272.78
483.15	273.38
483.52	274.10
483.88	274.79
484.25	275.46
484.61	276.11
484.98	276.96
485.34	277.96
485.71	279.08
486.07	280.09
486.44	280.86
486.80	282.00
487.17	283.28
487.53	284.65
487.90	286.12
488.26	287.86
488.62	289.55
488.99	291.17
489.35	293.00
489.72	295.03
490.08	296.99
490.44	299.03
490.81	301.25
491.17	303.55
491.54	305.90
491.90	308.55
492.26	311.31
492.63	314.08
492.99	316.88
493.36	319.89
493.72	323.20
494.08	326.61
494.45	330.19
494.81	333.95
495.17	337.72
495.54	341.84
495.90	345.93
496.26	350.21
496.63	354.84
496.99	359.57
497.35	364.62
497.72	369.74
498.08	375.11
498.44	380.67
498.80	386.48
499.17	392.60
499.53	398.74
499.89	405.38
500.26	411.96
500.62	418.79
500.98	426.09
501.34	433.45
501.71	441.09
502.07	449.01
502.43	456.95
502.79	465.25
503.16	473.79
503.52	482.57
503.88	491.50
504.24	500.81
504.60	510.24
504.97	520.05
505.33	530.10
505.69	540.70
506.05	551.45
506.41	562.27
506.78	573.35
507.14	584.76
507.50	596.35
507.86	608.27
508.22	620.65
508.59	632.78
508.95	645.34
509.31	658.39
509.67	671.59
510.03	685.13
510.39	698.90
510.75	712.99
511.12	727.09
511.48	741.76
511.84	756.30
512.20	771.25
512.56	786.34
512.92	801.92
513.28	817.29
513.64	832.92
514.00	848.89
514.37	864.90
514.73	881.18
515.09	897.53
515.45	913.98
515.81	930.21
516.17	947.14
516.53	964.04
516.89	980.82
517.25	997.77
517.61	1014.74
517.97	1031.75
518.33	1048.74
518.69	1066.23
519.05	1083.59
519.41	1101.36
519.77	1119.40
520.13	1136.75
520.49	1153.97
520.85	1171.69
521.21	1189.43
521.57	1207.24
521.93	1224.47
522.29	1242.41
522.65	1260.29
523.01	1278.05
523.37	1295.65
523.73	1313.26
524.09	1330.70
524.45	1348.22
524.81	1365.88
525.17	1383.96
525.53	1401.74
525.89	1419.45
526.25	1436.73
526.61	1453.46
526.97	1470.41
527.33	1487.17
527.68	1504.33
528.04	1520.91
528.40	1536.83
528.76	1552.99
529.12	1569.54
529.48	1586.92
529.84	1603.02
530.20	1618.89
530.56	1634.73
530.91	1651.36
531.27	1667.50
531.63	1683.28
531.99	1698.95
532.35	1714.16
532.71	1728.72
533.07	1744.12
533.42	1758.60
533.78	1773.45
534.14	1787.95
534.50	1801.40
534.86	1815.19
535.21	1828.30
535.57	1842.40
535.93	1855.98
536.29	1868.98
536.65	1881.97
537.00	1893.64
537.36	1905.43
537.72	1917.00
538.08	1928.92
538.44	1940.14
538.79	1951.29
539.15	1962.23
539.51	1973.16
539.87	1984.12
540.22	1994.89
540.58	2005.17
540.94	2015.49
541.29	2024.94
541.65	2033.86
542.01	2043.47
542.37	2052.22
542.72	2061.09
543.08	2068.95
543.44	2077.59
543.79	2085.28
544.15	2092.02
544.51	2100.11
544.87	2108.07
545.22	2115.41
545.58	2121.76
545.94	2127.55
546.29	2132.51
546.65	2138.16
547.01	2142.99
547.36	2147.85
547.72	2152.30
548.07	2155.91
548.43	2159.47
548.79	2162.65
549.14	2166.27
549.50	2169.72
549.86	2172.38
550.21	2175.18
550.57	2177.94
550.92	2179.33
551.28	2180.90
551.64	2183.14
551.99	2184.86
552.35	2185.53
552.70	2186.67
553.06	2187.85
553.41	2189.29
553.77	2190.63
554.13	2190.85
554.48	2191.93
554.84	2192.62
555.19	2192.60
555.55	2192.43
555.90	2191.75
556.26	2191.33
556.61	2190.60
556.97	2188.97
557.32	2188.24
557.68	2186.47
558.03	2185.06
558.39	2184.12
558.74	2183.60
559.10	2182.18
559.45	2180.27
559.81	2179.31
560.16	2177.18
560.52	2175.56
560.87	2173.37
561.23	2170.75
561.58	2169.02
561.94	2166.12
562.29	2162.59
562.64	2160.03
563.00	2157.62
563.35	2155.88
563.71	2154.12
564.06	2152.10
564.42	2150.29
564.77	2148.33
565.12	2146.49
565.48	2144.26
565.83	2141.93
566.19	2139.43
566.54	2136.05
566.89	2132.50
567.25	2129.15
567.60	2126.22
567.96	2122.48
568.31	2119.30
568.66	2115.68
569.02	2111.53
569.37	2106.89
569.72	2103.39
570.08	2099.08
570.43	2094.84
570.78	2089.94
571.14	2084.61
571.49	2079.65
571.84	2074.96
572.20	2069.09
572.55	2064.03
572.90	2058.32
573.26	2052.30
573.61	2046.07
573.96	2040.47
574.31	2034.55
574.67	2027.96
575.02	2021.16
575.37	2014.68
575.72	2007.26
576.08	2001.45
576.43	1994.83
576.78	1989.19
577.13	1982.91
577.49	1976.78
577.84	1970.04
578.19	1963.91
578.54	1958.36
578.90	1952.90
579.25	1946.16
579.60	1939.52
579.95	1932.43
580.30	1926.15
580.66	1920.37
581.01	1913.96
581.36	1907.15
581.71	1900.32
582.06	1894.03
582.42	1887.77
582.77	1881.11
583.12	1874.87
583.47	1868.45
583.82	1862.53
584.17	1856.13
584.53	1850.03
584.88	1843.59
585.23	1837.39
585.58	1830.86
585.93	1823.87
586.28	1817.12
586.63	1810.93
586.98	1805.16
587.34	1799.50
587.69	1793.03
588.04	1786.40
588.39	1780.11
588.74	1773.42
589.09	1767.69
589.44	1760.98
589.79	1755.26
590.14	1749.50
590.49	1743.34
590.84	1736.86
591.19	1731.18
591.54	1724.84
591.89	1717.17
592.25	1710.68
592.60	1703.85
592.95	1696.84
593.30	1689.72
593.65	1682.40
594.00	1675.51
594.35	1670.00
594.70	1663.17
595.05	1657.00
595.40	1650.31
595.75	1643.50
596.10	1637.91
596.45	1631.91
596.80	1626.34
597.15	1620.16
597.50	1613.69
597.85	1607.57
598.19	1601.25
598.54	1594.67
598.89	1588.76
599.24	1584.03
599.59	1578.38
599.94	1573.30
600.29	1568.06
600.64	1562.88
600.99	1556.98
601.34	1551.40
601.69	1544.17
602.04	1538.28
602.39	1532.03
602.74	1526.69
603.08	1521.70
603.43	1516.65
603.78	1510.98
604.13	1505.27
604.48	1499.70
604.83	1495.14
605.18	1490.64
605.53	1485.26
605.87	1479.43
606.22	1473.85
606.57	1468.03
606.92	1462.29
607.27	1456.23
607.62	1450.44
607.96	1444.93
608.31	1440.20
608.66	1434.20
609.01	1428.61
609.36	1422.63
609.70	1416.49
610.05	1410.04
610.40	1403.78
610.75	1396.96
611.10	1390.98
611.44	1383.88
611.79	1376.80
612.14	1369.34
612.49	1361.78
612.83	1355.19
613.18	1348.27
613.53	1341.31
613.88	1333.94
614.22	1327.19
614.57	1320.20
614.92	1313.35
615.27	1306.31
615.61	1299.03
615.96	1292.54
616.31	1286.36
616.65	1280.14
617.00	1274.04
617.35	1267.73
617.70	1260.92
618.04	1253.75
618.39	1246.27
618.74	1240.05
619.08	1233.42
619.43	1226.84
619.78	1220.17
620.12	1213.64
620.47	1207.44
620.82	1200.87
621.16	1194.25
621.51	1187.74
621.85	1181.41
622.20	1174.84
622.55	1168.13
622.89	1161.36
623.24	1154.79
623.59	1147.54
623.93	1140.92
624.28	1134.37
624.62	1127.99
624.97	1121.79
625.32	1115.67
625.66	1109.84
626.01	1103.56
626.35	1097.58
626.70	1091.55
627.04	1085.94
627.39	1079.93
627.73	1074.11
628.08	1068.36
628.43	1062.39
628.77	1056.21
629.12	1050.17
629.46	1044.45
629.81	1038.80
630.15	1033.05
630.50	1027.26
630.84	1021.56
631.19	1015.53
631.53	1009.88
631.88	1003.66
632.22	997.50
632.57	992.17
632.91	986.32
633.26	980.66
633.60	975.17
633.95	969.87
634.29	964.09
634.64	958.77
634.98	952.72
635.32	947.27
635.67	942.21
636.01	936.97
636.36	931.37
636.70	926.13
637.05	920.65
637.39	915.65
637.73	910.72
638.08	906.00
638.42	901.30
638.77	896.20
639.11	891.31
639.45	886.49
639.80	881.02
640.14	875.65
640.49	870.58
640.83	865.25
641.17	859.98
641.52	854.86
641.86	849.24
642.20	844.42
642.55	838.93
642.89	833.51
643.23	828.28
643.58	823.58
643.92	818.15
644.26	813.13
644.61	807.99
644.95	802.69
645.29	797.44
645.64	792.25
645.98	787.14
646.32	782.32
646.66	777.15
647.01	772.30
647.35	767.53
647.69	762.30
648.04	757.52
648.38	752.47
648.72	747.57
649.06	742.94
649.41	738.02
649.75	733.36
650.09	728.88
650.43	724.04
650.78	719.00
651.12	714.05
651.46	709.41
651.80	704.92
652.14	700.34
652.49	695.58
652.83	690.80
653.17	685.92
653.51	680.96
653.85	676.56
654.20	672.02
654.54	667.52
654.88	663.18
655.22	658.62
655.56	654.13
655.90	649.50
656.25	644.81
656.59	640.35
656.93	636.11
657.27	631.67
657.61	627.13
657.95	622.98
658.29	619.11
658.64	615.16
658.98	610.82
659.32	606.48
659.66	602.46
660.00	598.32
660.34	594.14
660.68	590.16
661.02	585.89
661.36	581.84
661.70	577.85
662.05	574.02
662.39	570.45
662.73	566.85
663.07	563.42
663.41	559.93
663.75	556.25
664.09	552.50
664.43	548.80
664.77	545.39
665.11	541.84
665.45	538.29
665.79	534.70
666.13	531.20
666.47	527.69
666.81	524.35
667.15	521.01
667.49	518.06
667.83	514.86
668.17	511.83
668.51	508.85
668.85	505.95
669.19	503.13
669.53	499.92
669.87	496.77
670.21	493.61
670.55	490.65
670.89	488.12
671.23	485.50
671.57	482.95
671.91	480.26
672.25	477.49
672.58	474.79
672.92	471.96
673.26	469.38
673.60	467.00
673.94	464.31
674.28	461.79
674.62	459.23
674.96	456.82
675.30	454.38
675.64	451.85
675.97	449.25
676.31	446.83
676.65	444.47
676.99	442.38
677.33	440.04
677.67	437.75
678.01	435.14
678.34	432.56
678.68	430.08
679.02	427.67
679.36	425.48
679.70	423.24
680.04	420.97
680.37	418.68
680.71	416.35
681.05	414.27
681.39	412.17
681.73	409.95
682.06	407.88
682.40	405.85
682.74	403.78
683.08	401.78
683.42	399.48
683.75	397.46
684.09	395.28
684.43	393.19
684.77	391.05
685.10	389.17
685.44	387.23
685.78	385.35
686.12	383.42
686.45	381.41
686.79	379.51
687.13	377.82
687.46	376.15
687.80	374.42
688.14	372.50
688.48	370.75
688.81	368.94
689.15	367.16
689.49	365.16
689.82	363.48
690.16	361.53
690.50	359.76
690.83	357.87
691.17	356.02
691.51	354.40
691.84	352.76
692.18	351.02
692.52	349.47
692.85	347.99
693.19	346.59
693.52	345.04
693.86	343.38
694.20	341.81
694.53	340.31
694.87	338.76
695.21	337.22
695.54	335.71
695.88	334.18
696.21	332.56
696.55	331.31
696.88	329.74
697.22	328.39
697.56	327.14
697.89	325.85
698.23	324.54
698.56	323.16
698.90	322.04
699.23	320.67
699.57	319.27
699.90	317.76
700.24	316.38
700.58	315.08
700.91	313.86
701.25	312.79
701.58	311.57
701.92	310.35
702.25	309.18
702.59	307.91
702.92	306.81
703.26	305.65
703.59	304.50
703.93	303.73
704.26	302.66
704.60	301.58
704.93	300.49
705.26	299.43
705.60	298.50
705.93	297.36
706.27	296.48
706.60	295.61
706.94	294.82
707.27	293.76
707.61	292.90
707.94	291.87
708.27	290.66
708.61	289.51
708.94	288.60
709.28	287.69
709.61	286.74
709.94	285.82
710.28	285.00
710.61	284.22
710.95	283.06
711.28	282.40
711.61	281.54
711.95	280.77
712.28	279.98
712.61	279.09
712.95	278.46
713.28	277.79
713.61	276.90
713.95	276.01
714.28	275.33
714.61	274.47
714.95	273.85
715.28	273.08
715.61	272.39
715.95	271.61
716.28	270.88
716.61	270.32
716.95	269.60
717.28	268.89
717.61	268.18
717.94	267.51
718.28	266.71
718.61	266.03
718.94	265.40
719.27	264.68
719.61	264.11
719.94	263.36
720.27	262.55
720.60	262.00
720.94	261.41
721.27	260.83
721.60	260.33
721.93	259.65
722.27	259.29
722.60	258.86
722.93	258.38
723.26	257.89
723.59	257.21
723.93	256.71
724.26	256.27
724.59	255.75
724.92	255.22
725.25	254.85
725.59	254.46
725.92	254.01
726.25	253.62
726.58	253.19
726.91	252.78
727.24	252.31
727.57	251.82
727.91	251.33
728.24	250.92
728.57	250.53
728.90	250.22
729.23	249.69
729.56	249.41
729.89	248.93
730.22	248.52
730.55	248.19
730.89	247.83
731.22	247.47
731.55	247.05
731.88	246.79
732.21	246.26
732.54	245.81
732.87	245.46
733.20	245.05
733.53	244.64
733.86	244.31
734.19	243.98
734.52	243.71
734.85	243.70
735.18	243.28
735.51	242.95
735.84	242.65
736.17	242.37
736.50	241.92
736.83	242.04
737.16	241.73
737.49	241.43
737.82	241.12
738.15	240.80
738.48	240.47
738.81	240.04
739.14	239.78
739.47	239.39
739.80	239.07
740.13	238.83
740.46	238.51
740.79	238.10
741.12	237.79
741.45	237.37
741.78	236.82
742.11	236.69
742.44	236.32
742.77	236.07
743.10	235.70
743.43	235.32
743.75	234.72
744.08	234.90
744.41	234.61
744.74	234.28
745.07	233.99
745.40	233.86
745.73	233.80
746.06	233.56
746.39	233.38
746.71	233.08
747.04	232.81
747.37	232.51
747.70	232.40
748.03	232.27
748.36	232.10
748.68	231.83
749.01	231.48
749.34	231.26
749.67	231.05
750.00	230.92
750.33	230.98
750.65	230.81
750.98	230.23
751.31	230.03
751.64	229.87
751.97	229.78
752.29	229.52
752.62	229.17
752.95	228.96
753.28	228.73
753.60	228.55
753.93	228.46
754.26	228.38
754.59	228.01
754.91	227.79
755.24	227.65
755.57	227.52
755.90	227.43
756.22	227.27
756.55	227.09
756.88	226.81
757.20	226.34
757.53	225.99
757.86	225.68
758.19	225.50
758.51	225.36
758.84	225.02
759.17	224.86
759.49	224.68
759.82	224.66
760.15	224.58
760.47	224.42
760.80	224.20
761.13	223.99
761.45	223.90
761.78	223.75
762.11	223.59
762.43	223.40
762.76	223.16
763.08	223.01
763.41	222.89
763.74	222.80
764.06	222.77
764.39	222.75
764.71	222.75
765.04	222.53
765.37	222.36
765.69	222.27
766.02	222.12
766.34	221.98
766.67	221.74
767.00	221.63
767.32	221.69
767.65	221.75
767.97	221.72
768.30	221.60
768.62	221.46
768.95	221.31
769.27	221.26
769.60	221.21
769.92	221.10
770.25	220.89
770.57	220.72
770.90	220.61
771.22	220.39
771.55	220.25
771.87	220.30
772.20	220.23
772.52	220.43
772.85	220.68
773.17	220.68
773.50	220.56
773.82	220.40
774.15	220.08
774.47	219.83
774.80	219.72
775.12	219.63
775.45	219.54
775.77	219.48
776.09	219.40
776.42	219.31
776.74	219.30
777.07	219.22
777.39	219.19
777.72	219.03
778.04	219.10
778.36	218.99
778.69	218.88
779.01	218.80
779.33	218.43
779.66	217.97
779.98	217.88
780.31	217.81
780.63	217.97
780.95	218.02
781.28	217.90
781.60	217.78
781.92	217.74
782.25	217.63
782.57	217.55
782.89	217.44
783.22	217.41
783.54	217.28
783.86	217.29
784.19	217.16
784.51	217.21
784.83	217.05
785.16	216.94
785.48	216.95
785.80	216.96
786.12	216.99
786.45	216.92
786.77	216.88
787.09	216.78
787.42	216.51
787.74	216.43
788.06	216.33
788.38	216.28
788.71	216.20
789.03	216.24
789.35	216.18
789.67	216.12
789.99	216.01
790.32	215.90
790.64	215.87
790.96	216.15
791.28	216.03
791.61	215.95
791.93	215.91
792.25	215.79
792.57	215.90
792.89	215.82
793.21	215.83
793.54	215.75
793.86	215.74
794.18	215.70
794.50	215.61
794.82	215.63
795.14	215.64
795.47	215.62
795.79	215.55
796.11	215.44
796.43	215.31
796.75	215.29
797.07	215.33
797.39	215.29
797.71	214.96
798.04	214.94
798.36	214.93
798.68	214.88
799.00	214.90
799.32	214.68
799.64	214.61
799.96	214.60
800.28	214.59
800.60	214.49
800.92	214.51
801.24	214.40
801.56	214.34
801.89	214.26
802.21	214.20
802.53	214.14
802.85	214.22
803.17	214.41
803.49	214.37
803.81	214.28
804.13	214.18
804.45	214.10
804.77	214.09
805.09	214.16
805.41	214.27
805.73	214.13
806.05	214.06
806.37	214.01
806.69	213.94
807.01	213.89
807.33	213.87
807.65	213.69
807.97	213.87
808.28	213.83
808.60	213.87
808.92	213.87
809.24	214.05
809.56	213.96
809.88	213.87
810.20	213.84
810.52	213.89
810.84	213.91
811.16	213.88
811.48	213.81
811.80	213.87
812.12	213.73
812.43	213.78
812.75	213.81
813.07	213.87
813.39	213.88
813.71	213.86
814.03	213.80
814.35	213.81
814.67	213.67
814.98	213.66
815.30	213.60
815.62	213.56
815.94	213.39
816.26	213.38
816.58	213.24
816.89	213.25
817.21	213.14
817.53	213.13
817.85	213.13
818.17	213.14
818.48	213.05
818.80	213.10
819.12	213.01
819.44	212.94
819.76	212.82
820.07	212.73
820.39	212.72
820.71	212.87
821.03	212.99
821.34	213.02
821.66	213.05
821.98	213.05
822.30	213.01
822.61	213.19
822.93	213.21
823.25	213.24
823.57	213.20
823.88	213.29
824.20	213.25
824.52	213.36
824.83	213.35
825.15	213.21
825.47	213.19
825.79	213.25
826.10	213.22
826.42	213.22
826.74	213.33
827.05	213.25
827.37	213.24
827.69	213.13
828.00	213.10
828.32	213.13
828.64	213.07
828.95	213.21
829.27	213.02
829.58	212.97
829.90	213.01
830.22	213.04
830.53	212.95
830.85	212.94
831.17	212.73
831.48	212.71
831.80	212.70
832.11	212.70
832.43	212.71
832.75	212.70
833.06	212.95
833.38	212.83
833.69	212.88
834.01	212.81
834.32	212.83
834.64	212.82
834.96	212.74
835.27	212.76
835.59	212.68
835.90	212.65
836.22	212.62
836.53	212.59
836.85	212.59
837.16	212.90
837.48	212.88
837.79	213.07
838.11	213.11
838.42	213.16
838.74	213.14
839.05	213.06
839.37	213.04
839.68	212.75
840.00	212.71
840.31	212.73
840.63	212.69
840.94	212.62
841.26	212.56
841.57	212.55
841.88	212.54
842.20	212.43
842.51	212.40
842.83	212.46
843.14	212.75
843.46	212.73
843.77	212.52
844.08	212.59
844.40	212.45
844.71	212.40
845.03	212.43
845.34	212.42
845.65	212.44
845.97	212.36
846.28	212.41
846.60	212.48
846.91	212.42
847.22	212.45
847.54	212.55
847.85	212.50
848.16	212.51
848.48	212.39
848.79	212.56
849.10	212.58
849.42	212.54
849.73	212.16
850.04	212.12
850.36	212.02
850.67	212.02
850.98	212.04
851.30	212.07
851.61	212.07
851.92	212.09
852.23	212.17
852.55	212.26
852.86	212.27
853.17	212.29
853.49	212.32
853.80	212.38
854.11	212.40
854.42	212.51
854.74	212.45
855.05	212.49
855.36	212.33
855.67	212.38
855.99	212.34
856.30	212.79
856.61	212.79
856.92	212.77
857.23	212.76
857.55	212.80
857.86	212.76
858.17	212.77
858.48	212.73
858.79	212.66
859.11	212.66
859.42	212.57
859.73	212.54
860.04	212.56
860.35	212.50
860.66	212.39
860.98	212.40
861.29	212.46
861.60	212.45
861.91	212.56
862.22	212.50
862.53	212.51
862.84	212.10
863.16	212.10
863.47	212.09
863.78	212.03
864.09	212.01
864.40	212.03
864.71	211.96
865.02	211.95
865.33	211.92
865.64	211.87
865.95	211.88
866.27	212.08
866.58	212.00
866.89	212.01
867.20	212.03
867.51	211.94
867.82	211.90
868.13	211.96
868.44	211.89
868.75	211.95
869.06	211.94
869.37	211.97
869.68	211.91
869.99	211.98
870.30	212.00
870.61	212.00
870.92	211.92
871.23	211.93
871.54	211.98
871.85	212.01
872.16	212.02
872.47	212.04
872.78	211.81
873.09	211.81
873.40	211.80
873.71	211.70
874.02	211.74
874.33	211.73
874.64	211.63
874.95	211.63
875.26	211.53
875.56	211.53
875.87	211.56
876.18	211.55
876.49	211.85
876.80	211.84
877.11	211.74
877.42	211.75
877.73	211.70
878.04	211.71
878.35	211.71
878.66	211.76
878.96	211.72
879.27	211.75
879.58	211.77
879.89	211.77
880.20	211.97
880.51	211.97
880.82	211.89
881.12	212.00
881.43	211.90
881.74	211.86
882.05	211.83
882.36	211.78
882.67	211.78
882.97	211.36
883.28	211.37
883.59	211.43
883.90	211.50
884.21	211.61
884.51	211.57
884.82	211.56
885.13	211.49
885.44	211.54
885.74	211.54
886.05	211.49
886.36	211.43
886.67	211.26
886.98	211.41
887.28	211.55
887.59	211.57
887.90	211.67
888.20	211.62
888.51	211.77
888.82	211.76
889.13	211.83
889.43	212.17
889.74	212.05
890.05	212.01
890.35	211.93
890.66	211.85
890.97	211.79
891.28	211.75
891.58	211.79
891.89	211.78
892.20	211.73
892.50	211.73
892.81	211.75
893.12	211.73
893.42	211.55
893.73	211.44
894.04	211.39
894.34	211.35
894.65	211.40
894.95	211.23
895.26	211.19
895.57	211.31
895.87	210.96
896.18	211.11
896.48	211.15
896.79	211.15
897.10	211.22
897.40	211.22
897.71	211.25
898.01	211.12
898.32	211.15
898.63	211.18
898.93	211.23
899.24	211.28
899.54	211.34
899.85	211.36
900.15	211.38
900.46	211.33
900.76	211.33
901.07	211.30
901.38	211.39
901.68	211.43
901.99	211.28
902.29	211.31
902.60	211.20
902.90	211.10
903.21	211.16
903.51	211.08
903.82	211.17
904.12	211.18
904.43	211.32
904.73	211.31
905.03	211.32
905.34	211.67
905.64	211.65
905.95	211.64
906.25	211.63
906.56	211.57
906.86	211.63
907.17	211.70
907.47	211.84
907.77	211.75
908.08	211.70
908.38	211.73
908.69	211.84
908.99	211.99
909.30	212.12
909.60	212.11
909.90	212.22
910.21	212.12
910.51	212.11
910.81	212.07
911.12	212.10
911.42	212.10
911.73	211.71
912.03	211.68
912.33	211.69
912.64	211.63
912.94	211.58
913.24	211.49
913.55	211.42
913.85	211.34
914.15	211.51
914.46	211.50
914.76	211.52
915.06	211.43
915.37	211.27
915.67	211.25
915.97	211.17
916.27	211.09
916.58	211.12
916.88	211.04
917.18	211.11
917.49	211.24
917.79	211.24
918.09	211.29
918.39	211.37
918.70	211.40
919.00	211.41
919.30	211.72
919.60	211.78
919.91	211.78
920.21	211.74
920.51	211.55
920.81	211.61
921.12	211.63
921.42	211.58
921.72	211.71
922.02	211.61
922.32	211.70
922.63	211.69
922.93	211.83
923.23	211.83
923.53	211.78
923.83	211.58
924.13	211.59
924.44	211.60
924.74	211.65
925.04	211.68
925.34	211.69
925.64	211.50
925.94	211.46
926.24	211.63
926.55	211.58
926.85	211.64
927.15	211.66
927.45	211.71
927.75	211.77
928.05	211.74
928.35	211.84
928.65	211.87
928.95	211.88
929.26	211.81
929.56	211.90
929.86	211.92
930.16	211.93
930.46	211.91
930.76	211.90
931.06	211.75
931.36	211.67
931.66	211.73
931.96	211.79
932.26	211.87
932.56	211.74
932.86	211.82
933.16	211.86
933.46	211.79
933.76	211.66
934.06	211.72
934.36	211.85
934.66	211.81
934.96	211.80
935.26	211.78
935.56	211.77
935.86	211.71
936.16	211.62
936.46	211.59
936.76	211.51
937.06	211.48
937.36	211.57
937.66	211.64
937.96	211.65
938.26	211.59
938.56	211.52
938.86	211.53
939.16	211.60
939.46	211.69
939.76	211.65
940.06	211.70
940.35	211.59
940.65	211.38
940.95	211.39
941.25	211.40
941.55	211.42
941.85	211.48
942.15	211.59
942.45	211.77
942.75	211.74
943.04	211.83
943.34	211.97
943.64	211.90
943.94	211.83
944.24	211.84
944.54	211.85
944.84	211.86
945.13	211.83
945.43	211.80
945.73	211.70
946.03	211.75
946.33	211.75
946.62	211.72
946.92	211.73
947.22	211.71
947.52	211.65
947.82	211.69
948.11	211.61
948.41	211.51
948.71	211.38
949.01	211.46
949.31	211.44
949.60	211.35
949.90	211.33
950.20	211.26
950.50	211.23
950.79	211.20
951.09	211.15
951.39	211.09
951.69	211.03
951.98	211.10
952.28	211.11
952.58	211.07
952.87	211.09
953.17	211.13
953.47	211.16
953.76	211.14
954.06	211.07
954.36	211.00
954.66	211.00
954.95	211.07
955.25	211.11
955.55	211.14
955.84	211.13
956.14	211.22
956.44	211.27
956.73	211.25
957.03	211.30
957.32	211.38
957.62	211.43
957.92	211.49
958.21	211.44
958.51	211.80
958.81	211.87
959.10	211.94
959.40	212.08
959.69	212.10
959.99	212.11
960.29	212.12
960.58	212.08
960.88	212.19
961.17	212.11
961.47	212.14
961.76	212.05
962.06	212.08
962.36	212.00
962.65	212.01
962.95	212.04
963.24	211.99
963.54	212.00
963.83	212.05
964.13	212.05
964.42	211.89
964.72	211.65
965.01	211.60
965.31	211.61
965.60	211.52
965.90	211.70
966.19	211.64
966.49	211.67
966.78	211.67
967.08	211.58
967.37	211.60
967.67	211.47
967.96	211.49
968.26	211.47
968.55	211.47
968.85	211.47
969.14	211.41
969.43	211.41
969.73	211.34
970.02	211.30
970.32	211.25
970.61	211.32
970.91	211.22
971.20	211.15
971.49	211.13
971.79	211.12
972.08	210.85
972.38	210.86
972.67	210.84
972.96	210.90
973.26	210.87
973.55	211.02
973.85	211.07
974.14	211.10
974.43	211.12
974.73	211.04
975.02	211.04
975.31	211.10
975.61	211.05
975.90	211.00
976.19	210.96
976.49	211.00
976.78	211.00
977.07	211.02
977.37	211.04
977.66	211.05
977.95	210.98
978.24	211.05
978.54	211.22
978.83	211.16
979.12	211.15
979.42	211.12
979.71	211.05
980.00	210.93
980.29	210.97
980.59	210.90
980.88	211.04
981.17	210.97
981.46	210.95
981.76	211.00
982.05	211.25
982.34	211.25
982.63	211.24
982.93	211.27
983.22	211.29
983.51	211.30
983.80	211.30
984.09	211.38
984.39	211.32
984.68	211.17
984.97	211.14
985.26	211.13
985.55	211.24
985.85	211.09
986.14	211.20
986.43	211.21
986.72	211.17
987.01	211.11
987.30	211.15
987.59	211.13
987.89	211.09
988.18	210.90
988.47	210.90
988.76	210.83
989.05	210.83
989.34	210.77
989.63	210.83
989.92	210.80
990.22	210.70
990.51	210.70
990.80	210.70
991.09	210.76
991.38	210.76
991.67	210.69
991.96	210.69
992.25	210.69
992.54	210.61
992.83	210.63
993.12	210.57
993.41	210.66
993.70	210.72
993.99	210.85
994.28	210.85
994.58	210.92
994.87	210.95
995.16	210.89
995.45	210.92
995.74	210.78
996.03	210.84
996.32	210.94
996.61	210.96
996.90	210.97
997.19	210.95
997.48	210.99
997.77	210.94
998.06	211.04
998.34	211.00
998.63	210.95
998.92	210.99
999.21	211.09
999.50	211.02
999.79	210.92
1000.08	210.91
1000.37	210.96
1000.66	210.93
1000.95	210.98
1001.24	211.01
1001.53	210.98
1001.82	211.07
1002.11	210.93
1002.40	210.99
1002.68	211.11
1002.97	211.33
1003.26	211.32
1003.55	211.25
1003.84	211.27
1004.13	211.40
1004.42	211.36
1004.71	211.37
1004.99	211.35
1005.28	211.34
1005.57	211.31
1005.86	211.32
1006.15	211.26
1006.44	211.25
1006.72	211.29
1007.01	211.21
1007.30	211.22
1007.59	211.24
1007.88	211.15
1008.17	211.27
1008.45	211.11
1008.74	211.01
1009.03	210.90
1009.32	210.92
1009.60	210.98
1009.89	210.94
1010.18	210.71
1010.47	210.70
1010.76	210.74
1011.04	210.76
1011.33	210.82
1011.62	210.81
1011.91	210.78
1012.19	210.79
1012.48	210.72
1012.77	210.68
1013.05	210.81
1013.34	210.84
1013.63	210.81
1013.92	210.88
1014.20	210.77
1014.49	210.85
1014.78	210.85
1015.06	210.72
1015.35	210.72
1015.64	210.75
1015.92	210.88
1016.21	210.92
1016.50	211.00
1016.78	211.03
1017.07	211.04
1017.36	210.98
1017.64	210.97
1017.93	210.99
1018.22	211.00
1018.50	210.96
1018.79	210.98
1019.08	210.90
1019.36	210.82
1019.65	210.78
1019.93	210.83
1020.22	210.90
1020.51	211.06
1020.79	210.98
1021.08	211.10
1021.36	209.05
1021.65	211.45
1021.94	211.15
1022.22	210.05
1022.51	209.65
1022.79	211.40
1023.08	211.45
1023.36	215.05
1023.65	209.50
>>>>>End Processed Spectral Data<<<<<
