SpectraSuite Data File
++++++++++++++++++++++++++++++++++++
Date: Mon Feb 25 17:05:04 EST 2013
User: group
Dark Spectrum Present: No
Reference Spectrum Present: No
Number of Sampled Component Spectra: 1
Spectrometers: USB2E7196
Integration Time (usec): 104000 (USB2E7196)
Spectra Averaged: 20 (USB2E7196)
Boxcar Smoothing: 10 (USB2E7196)
Correct for Electrical Dark: No (USB2E7196)
Strobe/Lamp Enabled: No (USB2E7196)
Correct for Detector Non-linearity: No (USB2E7196)
Correct for Stray Light: No (USB2E7196)
Number of Pixels in Processed Spectrum: 2048
>>>>>Begin Processed Spectral Data<<<<<
339.09	0.00
339.48	198.60
339.86	199.00
340.24	200.25
340.63	201.35
341.01	208.40
341.39	205.05
341.78	207.00
342.16	208.05
342.54	209.30
342.93	197.64
343.31	207.60
343.69	208.13
344.07	208.61
344.46	209.14
344.84	209.58
345.22	209.59
345.60	209.82
345.99	209.97
346.37	210.08
346.75	210.11
347.13	210.21
347.52	210.30
347.90	210.49
348.28	210.52
348.66	210.65
349.05	210.62
349.43	210.73
349.81	210.80
350.19	210.86
350.57	211.00
350.96	211.01
351.34	211.14
351.72	211.25
352.10	211.39
352.48	211.42
352.87	211.52
353.25	211.73
353.63	211.85
354.01	211.99
354.39	212.11
354.77	212.22
355.15	212.40
355.54	212.49
355.92	212.45
356.30	212.61
356.68	212.92
357.06	213.02
357.44	212.94
357.82	213.05
358.20	213.20
358.58	213.21
358.97	213.34
359.35	213.47
359.73	213.65
360.11	213.62
360.49	213.75
360.87	213.74
361.25	213.76
361.63	213.91
362.01	214.03
362.39	214.00
362.77	214.11
363.15	214.17
363.53	214.16
363.91	214.17
364.29	214.07
364.67	213.75
365.05	213.73
365.43	213.85
365.81	213.93
366.19	214.00
366.57	214.11
366.95	214.12
367.33	214.07
367.71	213.96
368.09	214.13
368.47	214.11
368.85	214.15
369.23	214.20
369.61	214.08
369.99	214.06
370.37	214.08
370.75	214.12
371.13	214.01
371.51	213.89
371.89	213.88
372.27	213.87
372.65	213.77
373.03	213.80
373.41	213.68
373.78	213.50
374.16	213.33
374.54	213.27
374.92	213.14
375.30	213.06
375.68	212.96
376.06	212.87
376.44	212.71
376.82	212.62
377.19	212.54
377.57	212.43
377.95	212.24
378.33	212.23
378.71	211.97
379.09	211.91
379.47	211.89
379.84	211.77
380.22	211.68
380.60	211.65
380.98	211.52
381.36	211.44
381.73	211.36
382.11	211.39
382.49	211.29
382.87	211.19
383.25	211.10
383.62	211.49
384.00	211.35
384.38	211.34
384.76	211.37
385.13	211.44
385.51	211.40
385.89	211.31
386.27	211.23
386.64	211.24
387.02	211.21
387.40	211.19
387.78	211.15
388.15	211.20
388.53	211.18
388.91	211.05
389.29	210.97
389.66	210.98
390.04	210.88
390.42	210.94
390.79	210.93
391.17	210.88
391.55	210.40
391.92	210.42
392.30	210.47
392.68	210.29
393.05	210.22
393.43	210.11
393.81	210.08
394.18	210.00
394.56	209.99
394.94	210.07
395.31	209.94
395.69	210.08
396.06	210.05
396.44	210.00
396.82	210.09
397.19	210.31
397.57	210.28
397.95	210.32
398.32	210.23
398.70	210.29
399.07	210.41
399.45	210.37
399.82	210.32
400.20	210.28
400.58	210.40
400.95	210.27
401.33	210.46
401.70	210.77
402.08	210.81
402.45	210.88
402.83	210.96
403.20	211.14
403.58	211.04
403.95	211.21
404.33	211.34
404.71	211.37
405.08	211.65
405.46	211.75
405.83	211.83
406.21	211.88
406.58	212.02
406.96	212.08
407.33	212.29
407.70	212.51
408.08	212.91
408.45	213.10
408.83	213.43
409.20	213.61
409.58	213.55
409.95	213.86
410.33	214.10
410.70	214.28
411.08	214.55
411.45	214.89
411.82	215.13
412.20	215.58
412.57	216.20
412.95	216.37
413.32	216.91
413.69	217.33
414.07	217.89
414.44	218.44
414.82	219.10
415.19	219.86
415.56	220.48
415.94	221.04
416.31	221.90
416.68	222.62
417.06	223.57
417.43	224.66
417.81	225.70
418.18	226.77
418.55	227.89
418.93	229.17
419.30	230.46
419.67	231.78
420.04	233.17
420.42	234.45
420.79	236.25
421.16	237.90
421.54	239.84
421.91	241.61
422.28	243.45
422.66	245.34
423.03	247.46
423.40	249.51
423.77	251.74
424.15	253.85
424.52	256.24
424.89	258.78
425.26	261.20
425.64	263.58
426.01	266.14
426.38	268.76
426.75	271.44
427.13	274.28
427.50	277.22
427.87	280.28
428.24	283.43
428.61	286.21
428.99	289.51
429.36	292.84
429.73	296.37
430.10	299.96
430.47	303.63
430.85	307.09
431.22	311.04
431.59	315.38
431.96	319.43
432.33	323.85
432.70	328.09
433.08	333.11
433.45	337.79
433.82	342.52
434.19	347.85
434.56	353.08
434.93	358.05
435.30	363.01
435.68	368.52
436.05	373.93
436.42	379.41
436.79	384.44
437.16	389.94
437.53	395.68
437.90	401.13
438.27	406.83
438.64	412.67
439.01	418.13
439.38	422.68
439.75	427.39
440.13	432.79
440.50	437.98
440.87	442.15
441.24	446.44
441.61	451.38
441.98	454.98
442.35	459.17
442.72	463.36
443.09	467.62
443.46	470.11
443.83	472.01
444.20	473.79
444.57	475.99
444.94	477.32
445.31	478.62
445.68	480.31
446.05	480.92
446.42	480.83
446.79	480.60
447.16	480.18
447.53	480.16
447.90	478.48
448.27	476.58
448.64	474.06
449.01	472.47
449.37	469.03
449.74	465.81
450.11	462.01
450.48	457.64
450.85	452.95
451.22	449.15
451.59	445.54
451.96	441.83
452.33	437.05
452.70	432.71
453.07	427.52
453.43	421.85
453.80	416.81
454.17	411.83
454.54	407.06
454.91	402.12
455.28	397.14
455.65	392.37
456.02	388.18
456.38	384.16
456.75	379.29
457.12	375.24
457.49	371.15
457.86	367.00
458.23	363.69
458.59	360.04
458.96	356.29
459.33	352.88
459.70	349.67
460.07	347.09
460.43	343.88
460.80	340.93
461.17	338.51
461.54	335.88
461.91	333.39
462.27	330.92
462.64	328.80
463.01	326.27
463.38	324.00
463.74	321.25
464.11	319.20
464.48	317.34
464.85	315.23
465.21	313.78
465.58	312.21
465.95	310.18
466.32	308.65
466.68	307.02
467.05	305.43
467.42	303.73
467.78	301.96
468.15	300.52
468.52	299.36
468.88	297.73
469.25	296.25
469.62	295.05
469.98	293.72
470.35	292.52
470.72	291.40
471.08	290.10
471.45	289.23
471.82	288.18
472.18	286.98
472.55	286.28
472.92	285.20
473.28	284.30
473.65	283.57
474.02	282.68
474.38	282.10
474.75	281.44
475.11	280.80
475.48	280.36
475.85	279.73
476.21	279.21
476.58	278.79
476.94	278.47
477.31	278.01
477.67	277.68
478.04	277.33
478.41	277.18
478.77	277.47
479.14	277.09
479.50	276.95
479.87	276.91
480.23	276.71
480.60	276.56
480.96	276.48
481.33	276.52
481.69	276.60
482.06	276.53
482.42	276.64
482.79	276.73
483.15	276.77
483.52	277.09
483.88	277.15
484.25	277.28
484.61	277.46
484.98	277.62
485.34	277.96
485.71	278.28
486.07	278.57
486.44	278.52
486.80	279.00
487.17	279.41
487.53	279.84
487.90	280.41
488.26	281.15
488.62	281.74
488.99	282.21
489.35	282.76
489.72	283.48
490.08	284.15
490.44	284.86
490.81	285.59
491.17	286.24
491.54	287.17
491.90	288.08
492.26	288.92
492.63	289.87
492.99	290.69
493.36	291.72
493.72	292.80
494.08	293.88
494.45	294.91
494.81	296.10
495.17	297.34
495.54	298.46
495.90	299.60
496.26	300.75
496.63	301.97
496.99	303.17
497.35	304.30
497.72	305.54
498.08	306.78
498.44	308.11
498.80	309.55
499.17	310.82
499.53	312.12
499.89	313.54
500.26	314.93
500.62	316.27
500.98	317.70
501.34	319.02
501.71	320.33
502.07	321.62
502.43	322.79
502.79	323.95
503.16	325.24
503.52	326.49
503.88	327.69
504.24	328.96
504.60	330.27
504.97	331.52
505.33	332.75
505.69	334.15
506.05	335.37
506.41	336.46
506.78	337.47
507.14	338.55
507.50	339.60
507.86	340.62
508.22	341.74
508.59	342.66
508.95	343.67
509.31	344.86
509.67	345.93
510.03	346.91
510.39	347.89
510.75	348.85
511.12	349.60
511.48	350.56
511.84	351.46
512.20	352.26
512.56	353.20
512.92	354.02
513.28	354.65
513.64	355.37
514.00	356.12
514.37	356.86
514.73	357.71
515.09	358.55
515.45	359.23
515.81	360.01
516.17	360.70
516.53	361.27
516.89	361.71
517.25	362.21
517.61	362.97
517.97	363.61
518.33	364.21
518.69	365.03
519.05	365.71
519.41	366.43
519.77	367.34
520.13	367.93
520.49	368.60
520.85	369.29
521.21	370.13
521.57	370.95
521.93	371.77
522.29	372.60
522.65	373.29
523.01	374.20
523.37	374.89
523.73	375.84
524.09	376.86
524.45	377.90
524.81	379.10
525.17	380.06
525.53	381.19
525.89	382.42
526.25	383.61
526.61	384.69
526.97	385.97
527.33	387.18
527.68	388.86
528.04	390.26
528.40	391.68
528.76	393.17
529.12	394.62
529.48	396.39
529.84	397.85
530.20	399.54
530.56	401.35
530.91	403.34
531.27	405.12
531.63	406.94
531.99	408.85
532.35	410.68
532.71	412.72
533.07	414.79
533.42	417.26
533.78	419.25
534.14	421.42
534.50	423.28
534.86	425.46
535.21	427.41
535.57	429.82
535.93	432.09
536.29	434.48
536.65	436.87
537.00	439.11
537.36	441.57
537.72	444.05
538.08	446.38
538.44	448.75
538.79	451.19
539.15	453.77
539.51	456.27
539.87	458.77
540.22	461.38
540.58	464.02
540.94	466.28
541.29	468.86
541.65	471.36
542.01	474.27
542.37	477.01
542.72	479.67
543.08	482.32
543.44	485.26
543.79	487.71
544.15	490.40
544.51	493.26
544.87	496.02
545.22	498.71
545.58	501.49
545.94	504.18
546.29	506.98
546.65	509.74
547.01	512.47
547.36	515.55
547.72	518.28
548.07	521.00
548.43	523.60
548.79	526.16
549.14	528.96
549.50	531.60
549.86	533.99
550.21	536.60
550.57	539.07
550.92	541.43
551.28	544.11
551.64	546.73
551.99	549.15
552.35	551.56
552.70	554.07
553.06	556.53
553.41	559.04
553.77	561.53
554.13	563.84
554.48	566.45
554.84	568.72
555.19	570.93
555.55	573.40
555.90	575.59
556.26	577.98
556.61	580.12
556.97	582.12
557.32	584.52
557.68	586.65
558.03	588.75
558.39	590.73
558.74	592.77
559.10	594.81
559.45	596.93
559.81	599.15
560.16	601.06
560.52	602.98
560.87	604.91
561.23	606.69
561.58	609.01
561.94	610.60
562.29	612.25
562.64	614.20
563.00	615.71
563.35	617.45
563.71	619.40
564.06	621.30
564.42	623.17
564.77	624.98
565.12	626.70
565.48	628.70
565.83	630.52
566.19	632.20
566.54	633.66
566.89	635.15
567.25	636.70
567.60	638.19
567.96	639.81
568.31	641.38
568.66	642.77
569.02	643.41
569.37	644.39
569.72	645.61
570.08	646.73
570.43	647.72
570.78	648.73
571.14	649.30
571.49	649.85
571.84	650.43
572.20	650.92
572.55	651.44
572.90	651.62
573.26	651.98
573.61	652.40
573.96	652.79
574.31	652.85
574.67	652.79
575.02	652.95
575.37	652.83
575.72	652.42
576.08	652.40
576.43	652.48
576.78	652.67
577.13	652.46
577.49	652.19
577.84	652.22
578.19	652.29
578.54	652.43
578.90	652.65
579.25	652.85
579.60	652.53
579.95	652.35
580.30	652.44
580.66	652.48
581.01	652.15
581.36	651.87
581.71	651.80
582.06	651.84
582.42	651.59
582.77	651.39
583.12	651.35
583.47	651.30
583.82	651.27
584.17	651.15
584.53	651.20
584.88	651.09
585.23	650.91
585.58	650.56
585.93	650.20
586.28	649.83
586.63	649.33
586.98	649.22
587.34	649.04
587.69	648.50
588.04	647.89
588.39	647.62
588.74	647.15
589.09	646.89
589.44	646.22
589.79	645.88
590.14	645.50
590.49	644.86
590.84	644.18
591.19	643.67
591.54	643.03
591.89	642.07
592.25	641.56
592.60	640.67
592.95	639.73
593.30	638.60
593.65	637.72
594.00	636.80
594.35	636.73
594.70	635.75
595.05	634.82
595.40	634.03
595.75	632.94
596.10	632.17
596.45	631.10
596.80	630.49
597.15	629.56
597.50	628.40
597.85	627.83
598.19	626.84
598.54	625.81
598.89	624.87
599.24	624.33
599.59	623.24
599.94	622.49
600.29	621.80
600.64	621.05
600.99	620.15
601.34	619.46
601.69	617.63
602.04	616.70
602.39	615.81
602.74	614.99
603.08	614.37
603.43	613.79
603.78	612.90
604.13	611.84
604.48	610.90
604.83	610.38
605.18	609.51
605.53	608.64
605.87	607.69
606.22	606.77
606.57	605.66
606.92	604.73
607.27	603.76
607.62	602.63
607.96	601.86
608.31	600.86
608.66	599.79
609.01	598.74
609.36	597.78
609.70	596.52
610.05	595.23
610.40	593.96
610.75	592.35
611.10	591.41
611.44	589.82
611.79	588.40
612.14	586.96
612.49	585.30
612.83	583.95
613.18	582.43
613.53	581.03
613.88	579.32
614.22	577.74
614.57	576.09
614.92	574.50
615.27	572.95
615.61	571.50
615.96	570.01
616.31	568.53
616.65	567.07
617.00	565.63
617.35	564.19
617.70	562.43
618.04	560.88
618.39	558.83
618.74	557.57
619.08	555.98
619.43	554.16
619.78	552.55
620.12	550.89
620.47	549.34
620.82	547.49
621.16	545.68
621.51	544.24
621.85	542.50
622.20	540.85
622.55	538.99
622.89	537.20
623.24	535.31
623.59	533.56
623.93	531.76
624.28	530.15
624.62	528.65
624.97	527.20
625.32	525.49
625.66	524.08
626.01	522.34
626.35	520.69
626.70	519.20
627.04	517.85
627.39	516.11
627.73	514.59
628.08	513.17
628.43	511.74
628.77	509.85
629.12	508.25
629.46	506.79
629.81	505.24
630.15	503.52
630.50	501.80
630.84	500.20
631.19	498.57
631.53	496.89
631.88	494.90
632.22	493.10
632.57	491.72
632.91	489.98
633.26	488.33
633.60	486.70
633.95	485.05
634.29	483.18
634.64	481.69
634.98	479.90
635.32	478.28
635.67	476.78
636.01	475.25
636.36	473.62
636.70	472.17
637.05	470.61
637.39	469.15
637.73	467.87
638.08	466.50
638.42	465.07
638.77	463.67
639.11	462.15
639.45	460.69
639.80	458.86
640.14	457.34
640.49	455.74
640.83	454.04
641.17	452.50
641.52	450.80
641.86	449.18
642.20	447.75
642.55	446.02
642.89	444.28
643.23	442.60
643.58	441.23
643.92	439.39
644.26	437.82
644.61	436.15
644.95	434.58
645.29	432.76
645.64	431.14
645.98	429.56
646.32	428.02
646.66	426.34
647.01	424.89
647.35	423.44
647.69	421.79
648.04	420.53
648.38	419.06
648.72	417.66
649.06	416.05
649.41	414.37
649.75	412.75
650.09	411.45
650.43	409.99
650.78	408.24
651.12	406.73
651.46	405.23
651.80	403.78
652.14	402.17
652.49	400.79
652.83	399.24
653.17	397.53
653.51	396.12
653.85	394.75
654.20	393.20
654.54	391.42
654.88	389.94
655.22	388.40
655.56	386.67
655.90	385.04
656.25	383.56
656.59	382.08
656.93	380.65
657.27	379.15
657.61	377.59
657.95	376.31
658.29	374.88
658.64	373.54
658.98	372.13
659.32	370.65
659.66	369.18
660.00	367.70
660.34	366.25
660.68	364.67
661.02	363.07
661.36	361.74
661.70	360.44
662.05	359.12
662.39	357.83
662.73	356.66
663.07	355.59
663.41	354.38
663.75	353.07
664.09	351.81
664.43	350.48
664.77	349.28
665.11	347.96
665.45	346.71
665.79	345.48
666.13	344.21
666.47	342.97
666.81	341.71
667.15	340.49
667.49	339.52
667.83	338.45
668.17	337.44
668.51	336.26
668.85	335.30
669.19	334.37
669.53	333.09
669.87	331.95
670.21	330.70
670.55	329.54
670.89	328.75
671.23	327.79
671.57	326.75
671.91	325.76
672.25	324.66
672.58	323.79
672.92	322.66
673.26	321.71
673.60	320.76
673.94	319.85
674.28	318.97
674.62	318.01
674.96	317.14
675.30	316.17
675.64	315.23
675.97	314.20
676.31	313.15
676.65	312.35
676.99	311.65
677.33	310.69
677.67	309.89
678.01	308.83
678.34	307.87
678.68	307.03
679.02	306.01
679.36	305.19
679.70	304.20
680.04	303.41
680.37	302.52
680.71	301.74
681.05	300.90
681.39	300.09
681.73	299.20
682.06	298.37
682.40	297.59
682.74	296.92
683.08	296.28
683.42	295.46
683.75	294.69
684.09	293.78
684.43	293.06
684.77	292.25
685.10	291.48
685.44	290.71
685.78	289.92
686.12	289.31
686.45	288.61
686.79	287.89
687.13	287.21
687.46	286.54
687.80	285.80
688.14	285.11
688.48	284.38
688.81	283.69
689.15	282.97
689.49	282.22
689.82	281.47
690.16	280.50
690.50	279.72
690.83	278.92
691.17	278.10
691.51	277.47
691.84	276.78
692.18	276.12
692.52	275.50
692.85	274.89
693.19	274.28
693.52	273.56
693.86	272.86
694.20	272.14
694.53	271.49
694.87	270.84
695.21	270.14
695.54	269.41
695.88	268.67
696.21	268.00
696.55	267.44
696.88	266.75
697.22	266.26
697.56	265.79
697.89	265.20
698.23	264.63
698.56	263.95
698.90	263.41
699.23	262.78
699.57	262.24
699.90	261.60
700.24	260.91
700.58	260.41
700.91	259.90
701.25	259.65
701.58	259.19
701.92	258.63
702.25	258.14
702.59	257.60
702.92	257.18
703.26	256.69
703.59	256.17
703.93	256.08
704.26	255.61
704.60	255.17
704.93	254.65
705.26	254.16
705.60	253.77
705.93	253.29
706.27	252.97
706.60	252.55
706.94	252.31
707.27	251.95
707.61	251.57
707.94	251.21
708.27	250.48
708.61	250.02
708.94	249.70
709.28	249.28
709.61	248.92
709.94	248.58
710.28	248.18
710.61	247.90
710.95	247.10
711.28	247.03
711.61	246.65
711.95	246.41
712.28	246.08
712.61	245.71
712.95	245.59
713.28	245.27
713.61	244.89
713.95	244.44
714.28	244.11
714.61	243.68
714.95	243.25
715.28	242.87
715.61	242.56
715.95	242.18
716.28	241.90
716.61	241.69
716.95	241.32
717.28	241.07
717.61	240.72
717.94	240.44
718.28	239.92
718.61	239.60
718.94	239.23
719.27	238.91
719.61	238.68
719.94	238.29
720.27	237.83
720.60	237.55
720.94	237.24
721.27	237.00
721.60	236.81
721.93	236.57
722.27	236.52
722.60	236.35
722.93	236.14
723.26	235.92
723.59	235.60
723.93	235.40
724.26	235.08
724.59	234.85
724.92	234.77
725.25	234.58
725.59	234.33
725.92	234.21
726.25	234.00
726.58	233.83
726.91	233.61
727.24	233.55
727.57	233.35
727.91	233.09
728.24	232.85
728.57	232.63
728.90	232.55
729.23	232.28
729.56	232.19
729.89	232.00
730.22	231.81
730.55	231.61
730.89	231.40
731.22	231.28
731.55	231.05
731.88	230.81
732.21	230.59
732.54	230.33
732.87	230.08
733.20	229.96
733.53	229.72
733.86	229.55
734.19	229.29
734.52	229.19
734.85	229.29
735.18	229.10
735.51	229.00
735.84	228.86
736.17	228.73
736.50	228.37
736.83	228.60
737.16	228.37
737.49	228.16
737.82	227.95
738.15	227.85
738.48	227.70
738.81	227.45
739.14	227.26
739.47	227.15
739.80	227.06
740.13	226.92
740.46	226.69
740.79	226.45
741.12	226.29
741.45	226.06
741.78	225.74
742.11	225.64
742.44	225.40
742.77	225.15
743.10	224.98
743.43	224.85
743.75	224.30
744.08	224.65
744.41	224.55
744.74	224.41
745.07	224.13
745.40	224.08
745.73	224.17
746.06	224.02
746.39	223.94
746.71	223.83
747.04	223.64
747.37	223.63
747.70	223.63
748.03	223.55
748.36	223.49
748.68	223.30
749.01	223.17
749.34	223.10
749.67	223.10
750.00	222.99
750.33	223.15
750.65	223.02
750.98	222.45
751.31	222.40
751.64	222.32
751.97	222.40
752.29	222.18
752.62	221.93
752.95	221.79
753.28	221.62
753.60	221.37
753.93	221.38
754.26	221.26
754.59	221.02
754.91	220.81
755.24	220.70
755.57	220.62
755.90	220.43
756.22	220.36
756.55	220.19
756.88	220.04
757.20	219.62
757.53	219.47
757.86	219.38
758.19	219.36
758.51	219.23
758.84	218.99
759.17	218.87
759.49	218.74
759.82	218.81
760.15	218.77
760.47	218.71
760.80	218.57
761.13	218.48
761.45	218.40
761.78	218.33
762.11	218.24
762.43	218.18
762.76	218.12
763.08	217.95
763.41	217.87
763.74	217.81
764.06	217.70
764.39	217.58
764.71	217.47
765.04	217.29
765.37	217.20
765.69	217.10
766.02	217.05
766.34	216.97
766.67	216.77
767.00	216.77
767.32	216.95
767.65	217.04
767.97	217.01
768.30	216.98
768.62	216.92
768.95	216.77
769.27	216.70
769.60	216.72
769.92	216.66
770.25	216.58
770.57	216.46
770.90	216.45
771.22	216.47
771.55	216.44
771.87	216.45
772.20	216.43
772.52	216.62
772.85	217.00
773.17	217.06
773.50	217.03
773.82	216.95
774.15	216.70
774.47	216.44
774.80	216.28
775.12	216.21
775.45	216.24
775.77	216.26
776.09	216.21
776.42	216.15
776.74	216.20
777.07	216.12
777.39	216.14
777.72	216.05
778.04	216.02
778.36	215.95
778.69	215.82
779.01	215.83
779.33	215.52
779.66	215.08
779.98	214.97
780.31	214.90
780.63	215.04
780.95	215.05
781.28	214.98
781.60	214.96
781.92	214.90
782.25	214.83
782.57	214.79
782.89	214.73
783.22	214.65
783.54	214.62
783.86	214.61
784.19	214.48
784.51	214.60
784.83	214.53
785.16	214.53
785.48	214.60
785.80	214.55
786.12	214.57
786.45	214.55
786.77	214.60
787.09	214.54
787.42	214.29
787.74	214.22
788.06	214.22
788.38	214.20
788.71	214.14
789.03	214.12
789.35	214.14
789.67	214.12
789.99	214.14
790.32	213.95
790.64	213.94
790.96	214.29
791.28	214.12
791.61	214.10
791.93	214.11
792.25	214.03
792.57	214.23
792.89	214.13
793.21	214.14
793.54	214.04
793.86	213.98
794.18	214.03
794.50	213.94
794.82	213.85
795.14	213.84
795.47	213.88
795.79	213.86
796.11	213.77
796.43	213.66
796.75	213.67
797.07	213.71
797.39	213.71
797.71	213.43
798.04	213.45
798.36	213.45
798.68	213.35
799.00	213.38
799.32	213.20
799.64	213.24
799.96	213.28
800.28	213.33
800.60	213.33
800.92	213.32
801.24	213.31
801.56	213.39
801.89	213.34
802.21	213.36
802.53	213.30
802.85	213.39
803.17	213.63
803.49	213.48
803.81	213.46
804.13	213.45
804.45	213.31
804.77	213.27
805.09	213.25
805.41	213.23
805.73	213.20
806.05	213.08
806.37	213.02
806.69	212.96
807.01	212.94
807.33	213.01
807.65	212.81
807.97	212.98
808.28	212.94
808.60	212.94
808.92	212.83
809.24	213.00
809.56	212.91
809.88	212.73
810.20	212.74
810.52	212.80
810.84	212.65
811.16	212.69
811.48	212.63
811.80	212.77
812.12	212.72
812.43	212.72
812.75	212.74
813.07	212.74
813.39	212.70
813.71	212.57
814.03	212.52
814.35	212.56
814.67	212.35
814.98	212.34
815.30	212.33
815.62	212.29
815.94	212.04
816.26	211.97
816.58	211.91
816.89	211.93
817.21	211.85
817.53	211.90
817.85	211.90
818.17	211.89
818.48	211.71
818.80	211.79
819.12	211.69
819.44	211.61
819.76	211.58
820.07	211.56
820.39	211.48
820.71	211.49
821.03	211.51
821.34	211.55
821.66	211.61
821.98	211.55
822.30	211.57
822.61	211.82
822.93	211.81
823.25	211.80
823.57	211.83
823.88	211.87
824.20	211.86
824.52	211.94
824.83	211.97
825.15	211.94
825.47	211.90
825.79	212.00
826.10	212.01
826.42	212.03
826.74	212.11
827.05	212.15
827.37	212.10
827.69	212.08
828.00	212.02
828.32	211.98
828.64	212.00
828.95	212.15
829.27	212.10
829.58	212.09
829.90	212.11
830.22	212.10
830.53	212.01
830.85	212.00
831.17	211.90
831.48	211.85
831.80	211.90
832.11	211.84
832.43	211.78
832.75	211.71
833.06	211.94
833.38	211.79
833.69	211.80
834.01	211.88
834.32	211.88
834.64	211.85
834.96	211.84
835.27	211.83
835.59	211.75
835.90	211.61
836.22	211.59
836.53	211.53
836.85	211.47
837.16	211.82
837.48	211.82
837.79	211.92
838.11	211.92
838.42	211.96
838.74	212.00
839.05	211.96
839.37	212.01
839.68	211.79
840.00	211.81
840.31	211.91
840.63	211.85
840.94	211.78
841.26	211.83
841.57	211.84
841.88	211.92
842.20	211.84
842.51	211.85
842.83	211.92
843.14	212.23
843.46	212.21
843.77	211.97
844.08	211.97
844.40	211.82
844.71	211.86
845.03	211.76
845.34	211.78
845.65	211.71
845.97	211.68
846.28	211.62
846.60	211.62
846.91	211.47
847.22	211.49
847.54	211.60
847.85	211.58
848.16	211.55
848.48	211.55
848.79	211.74
849.10	211.76
849.42	211.72
849.73	211.49
850.04	211.48
850.36	211.45
850.67	211.55
850.98	211.66
851.30	211.66
851.61	211.61
851.92	211.59
852.23	211.77
852.55	211.77
852.86	211.77
853.17	211.79
853.49	211.90
853.80	211.90
854.11	211.92
854.42	212.01
854.74	211.90
855.05	211.84
855.36	211.57
855.67	211.56
855.99	211.58
856.30	211.86
856.61	211.87
856.92	211.83
857.23	211.72
857.55	211.62
857.86	211.61
858.17	211.73
858.48	211.66
858.79	211.65
859.11	211.65
859.42	211.63
859.73	211.59
860.04	211.50
860.35	211.42
860.66	211.24
860.98	211.19
861.29	211.30
861.60	211.26
861.91	211.30
862.22	211.16
862.53	211.13
862.84	210.75
863.16	210.78
863.47	210.74
863.78	210.74
864.09	210.77
864.40	210.75
864.71	210.72
865.02	210.77
865.33	210.63
865.64	210.66
865.95	210.72
866.27	210.98
866.58	210.95
866.89	210.95
867.20	211.01
867.51	210.96
867.82	210.91
868.13	211.01
868.44	210.96
868.75	211.17
869.06	211.13
869.37	211.10
869.68	211.04
869.99	211.11
870.30	211.10
870.61	211.14
870.92	211.10
871.23	211.09
871.54	211.12
871.85	211.17
872.16	211.19
872.47	211.18
872.78	210.93
873.09	211.04
873.40	211.06
873.71	211.11
874.02	211.16
874.33	211.14
874.64	211.06
874.95	211.13
875.26	211.03
875.56	211.08
875.87	211.12
876.18	211.07
876.49	211.42
876.80	211.44
877.11	211.29
877.42	211.30
877.73	211.33
878.04	211.24
878.35	211.26
878.66	211.28
878.96	211.22
879.27	211.24
879.58	211.21
879.89	211.12
880.20	211.15
880.51	211.08
880.82	211.10
881.12	211.19
881.43	211.19
881.74	211.14
882.05	211.10
882.36	211.15
882.67	211.23
882.97	210.89
883.28	210.87
883.59	210.98
883.90	211.07
884.21	211.15
884.51	211.20
884.82	211.20
885.13	211.17
885.44	211.20
885.74	211.23
886.05	211.23
886.36	211.28
886.67	211.21
886.98	211.43
887.28	211.50
887.59	211.49
887.90	211.49
888.20	211.52
888.51	211.63
888.82	211.65
889.13	211.68
889.43	211.90
889.74	211.87
890.05	211.78
890.35	211.70
890.66	211.61
890.97	211.64
891.28	211.57
891.58	211.60
891.89	211.62
892.20	211.63
892.50	211.59
892.81	211.57
893.12	211.61
893.42	211.49
893.73	211.43
894.04	211.36
894.34	211.35
894.65	211.34
894.95	211.25
895.26	211.25
895.57	211.37
895.87	211.07
896.18	211.21
896.48	211.32
896.79	211.34
897.10	211.28
897.40	211.23
897.71	211.25
898.01	211.20
898.32	211.23
898.63	211.15
898.93	211.12
899.24	211.13
899.54	211.09
899.85	211.03
900.15	211.02
900.46	210.97
900.76	210.99
901.07	210.91
901.38	210.93
901.68	210.87
901.99	210.76
902.29	210.71
902.60	210.57
902.90	210.51
903.21	210.45
903.51	210.52
903.82	210.56
904.12	210.60
904.43	210.59
904.73	210.51
905.03	210.57
905.34	210.84
905.64	210.83
905.95	210.78
906.25	210.71
906.56	210.79
906.86	210.80
907.17	210.80
907.47	210.82
907.77	210.75
908.08	210.73
908.38	210.75
908.69	210.79
908.99	210.85
909.30	210.88
909.60	210.85
909.90	210.87
910.21	210.82
910.51	210.71
910.81	210.73
911.12	210.76
911.42	210.69
911.73	210.45
912.03	210.39
912.33	210.54
912.64	210.59
912.94	210.52
913.24	210.50
913.55	210.46
913.85	210.48
914.15	210.59
914.46	210.65
914.76	210.64
915.06	210.68
915.37	210.63
915.67	210.59
915.97	210.66
916.27	210.61
916.58	210.62
916.88	210.67
917.18	210.62
917.49	210.86
917.79	210.87
918.09	210.95
918.39	211.10
918.70	211.02
919.00	210.93
919.30	211.05
919.60	211.05
919.91	211.02
920.21	211.02
920.51	210.95
920.81	210.96
921.12	210.96
921.42	210.92
921.72	210.94
922.02	210.95
922.32	211.00
922.63	210.99
922.93	211.20
923.23	211.17
923.53	211.21
923.83	210.99
924.13	211.03
924.44	210.97
924.74	211.03
925.04	211.13
925.34	211.23
925.64	211.11
925.94	211.12
926.24	211.37
926.55	211.36
926.85	211.40
927.15	211.35
927.45	211.36
927.75	211.39
928.05	211.42
928.35	211.45
928.65	211.49
928.95	211.51
929.26	211.30
929.56	211.43
929.86	211.43
930.16	211.40
930.46	211.40
930.76	211.36
931.06	211.18
931.36	211.10
931.66	211.16
931.96	211.13
932.26	211.14
932.56	210.97
932.86	211.01
933.16	210.99
933.46	210.94
933.76	210.87
934.06	210.95
934.36	211.06
934.66	210.98
934.96	210.92
935.26	210.92
935.56	211.00
935.86	210.90
936.16	210.88
936.46	210.87
936.76	210.88
937.06	210.85
937.36	210.90
937.66	210.96
937.96	210.83
938.26	210.80
938.56	210.81
938.86	210.73
939.16	210.79
939.46	210.85
939.76	210.90
940.06	210.85
940.35	210.75
940.65	210.60
940.95	210.65
941.25	210.59
941.55	210.59
941.85	210.53
942.15	210.60
942.45	210.63
942.75	210.65
943.04	210.65
943.34	210.69
943.64	210.66
943.94	210.58
944.24	210.67
944.54	210.77
944.84	210.75
945.13	210.76
945.43	210.70
945.73	210.67
946.03	210.68
946.33	210.68
946.62	210.68
946.92	210.59
947.22	210.65
947.52	210.66
947.82	210.65
948.11	210.63
948.41	210.57
948.71	210.52
949.01	210.53
949.31	210.46
949.60	210.45
949.90	210.55
950.20	210.55
950.50	210.56
950.79	210.51
951.09	210.59
951.39	210.62
951.69	210.58
951.98	210.66
952.28	210.65
952.58	210.66
952.87	210.69
953.17	210.88
953.47	210.81
953.76	210.79
954.06	210.72
954.36	210.74
954.66	210.79
954.95	210.88
955.25	210.82
955.55	210.85
955.84	210.85
956.14	210.85
956.44	210.88
956.73	210.81
957.03	210.80
957.32	210.71
957.62	210.69
957.92	210.75
958.21	210.74
958.51	211.17
958.81	211.25
959.10	211.29
959.40	211.30
959.69	211.32
959.99	211.45
960.29	211.51
960.58	211.50
960.88	211.60
961.17	211.55
961.47	211.65
961.76	211.62
962.06	211.74
962.36	211.70
962.65	211.76
962.95	211.74
963.24	211.76
963.54	211.77
963.83	211.78
964.13	211.77
964.42	211.65
964.72	211.29
965.01	211.25
965.31	211.16
965.60	211.12
965.90	211.32
966.19	211.22
966.49	211.17
966.78	211.13
967.08	211.12
967.37	211.16
967.67	211.11
967.96	211.24
968.26	211.18
968.55	211.20
968.85	211.09
969.14	211.03
969.43	210.95
969.73	210.96
970.02	211.00
970.32	211.00
970.61	211.02
970.91	210.96
971.20	211.02
971.49	210.98
971.79	211.04
972.08	210.78
972.38	210.75
972.67	210.70
972.96	210.77
973.26	210.64
973.55	210.75
973.85	210.71
974.14	210.66
974.43	210.64
974.73	210.58
975.02	210.62
975.31	210.74
975.61	210.75
975.90	210.69
976.19	210.64
976.49	210.68
976.78	210.68
977.07	210.67
977.37	210.65
977.66	210.71
977.95	210.61
978.24	210.64
978.54	210.73
978.83	210.76
979.12	210.72
979.42	210.73
979.71	210.66
980.00	210.65
980.29	210.66
980.59	210.60
980.88	210.66
981.17	210.66
981.46	210.58
981.76	210.58
982.05	210.72
982.34	210.74
982.63	210.69
982.93	210.67
983.22	210.81
983.51	210.83
983.80	210.87
984.09	210.94
984.39	210.96
984.68	210.95
984.97	211.02
985.26	210.97
985.55	211.08
985.85	210.99
986.14	211.01
986.43	211.00
986.72	211.00
987.01	210.92
987.30	210.87
987.59	210.88
987.89	210.93
988.18	210.89
988.47	210.89
988.76	210.85
989.05	210.87
989.34	210.70
989.63	210.76
989.92	210.63
990.22	210.58
990.51	210.55
990.80	210.50
991.09	210.50
991.38	210.58
991.67	210.47
991.96	210.44
992.25	210.47
992.54	210.48
992.83	210.47
993.12	210.45
993.41	210.50
993.70	210.62
993.99	210.70
994.28	210.67
994.58	210.73
994.87	210.78
995.16	210.79
995.45	210.85
995.74	210.70
996.03	210.85
996.32	210.88
996.61	211.00
996.90	211.00
997.19	211.01
997.48	211.04
997.77	211.01
998.06	211.01
998.34	211.01
998.63	210.98
998.92	211.05
999.21	211.15
999.50	211.21
999.79	211.14
1000.08	211.12
1000.37	211.19
1000.66	211.14
1000.95	211.20
1001.24	211.17
1001.53	211.18
1001.82	211.23
1002.11	211.09
1002.40	211.15
1002.68	211.15
1002.97	211.38
1003.26	211.28
1003.55	211.22
1003.84	211.21
1004.13	211.39
1004.42	211.36
1004.71	211.35
1004.99	211.26
1005.28	211.25
1005.57	211.23
1005.86	211.16
1006.15	211.15
1006.44	211.06
1006.72	211.06
1007.01	210.99
1007.30	211.07
1007.59	211.10
1007.88	211.05
1008.17	211.08
1008.45	210.95
1008.74	210.83
1009.03	210.66
1009.32	210.63
1009.60	210.64
1009.89	210.67
1010.18	210.50
1010.47	210.43
1010.76	210.46
1011.04	210.51
1011.33	210.55
1011.62	210.53
1011.91	210.55
1012.19	210.49
1012.48	210.50
1012.77	210.52
1013.05	210.69
1013.34	210.62
1013.63	210.54
1013.92	210.51
1014.20	210.49
1014.49	210.50
1014.78	210.45
1015.06	210.42
1015.35	210.46
1015.64	210.51
1015.92	210.53
1016.21	210.51
1016.50	210.50
1016.78	210.55
1017.07	210.54
1017.36	210.47
1017.64	210.42
1017.93	210.42
1018.22	210.45
1018.50	210.45
1018.79	210.42
1019.08	210.21
1019.36	210.22
1019.65	210.16
1019.93	210.26
1020.22	210.36
1020.51	210.60
1020.79	210.60
1021.08	210.45
1021.36	210.60
1021.65	210.45
1021.94	209.65
1022.22	210.65
1022.51	208.90
1022.79	211.20
1023.08	211.65
1023.36	215.50
1023.65	209.25
>>>>>End Processed Spectral Data<<<<<
