SpectraSuite Data File
++++++++++++++++++++++++++++++++++++
Date: Mon Feb 25 17:11:38 EST 2013
User: group
Dark Spectrum Present: No
Reference Spectrum Present: No
Number of Sampled Component Spectra: 1
Spectrometers: USB2E7196
Integration Time (usec): 104000 (USB2E7196)
Spectra Averaged: 20 (USB2E7196)
Boxcar Smoothing: 10 (USB2E7196)
Correct for Electrical Dark: No (USB2E7196)
Strobe/Lamp Enabled: No (USB2E7196)
Correct for Detector Non-linearity: No (USB2E7196)
Correct for Stray Light: No (USB2E7196)
Number of Pixels in Processed Spectrum: 2048
>>>>>Begin Processed Spectral Data<<<<<
339.09	0.00
339.48	199.35
339.86	200.40
340.24	201.25
340.63	201.95
341.01	210.25
341.39	205.40
341.78	207.10
342.16	210.00
342.54	207.65
342.93	198.17
343.31	208.13
343.69	208.60
344.07	209.00
344.46	209.48
344.84	209.90
345.22	209.89
345.60	210.17
345.99	210.28
346.37	210.29
346.75	210.46
347.13	210.58
347.52	210.55
347.90	210.63
348.28	210.65
348.66	210.70
349.05	210.64
349.43	210.77
349.81	210.80
350.19	210.75
350.57	210.85
350.96	210.93
351.34	211.05
351.72	211.06
352.10	211.16
352.48	211.17
352.87	211.24
353.25	211.33
353.63	211.34
354.01	211.48
354.39	211.60
354.77	211.63
355.15	211.78
355.54	211.84
355.92	211.76
356.30	211.85
356.68	212.12
357.06	212.15
357.44	212.10
357.82	212.15
358.20	212.31
358.58	212.34
358.97	212.47
359.35	212.66
359.73	212.90
360.11	212.96
360.49	212.97
360.87	212.95
361.25	213.06
361.63	213.24
362.01	213.26
362.39	213.30
362.77	213.38
363.15	213.32
363.53	213.37
363.91	213.50
364.29	213.46
364.67	213.20
365.05	213.27
365.43	213.37
365.81	213.42
366.19	213.54
366.57	213.67
366.95	213.65
367.33	213.53
367.71	213.49
368.09	213.56
368.47	213.64
368.85	213.64
369.23	213.65
369.61	213.52
369.99	213.65
370.37	213.67
370.75	213.83
371.13	213.74
371.51	213.70
371.89	213.65
372.27	213.68
372.65	213.69
373.03	213.72
373.41	213.67
373.78	213.62
374.16	213.41
374.54	213.25
374.92	213.15
375.30	213.14
375.68	212.97
376.06	212.90
376.44	212.88
376.82	212.88
377.19	212.79
377.57	212.75
377.95	212.58
378.33	212.49
378.71	212.22
379.09	212.28
379.47	212.26
379.84	212.24
380.22	212.10
380.60	211.98
380.98	211.84
381.36	211.74
381.73	211.70
382.11	211.74
382.49	211.74
382.87	211.71
383.25	211.63
383.62	212.05
384.00	211.97
384.38	211.92
384.76	212.02
385.13	212.13
385.51	212.08
385.89	211.94
386.27	211.90
386.64	211.89
387.02	211.73
387.40	211.63
387.78	211.52
388.15	211.50
388.53	211.48
388.91	211.48
389.29	211.48
389.66	211.44
390.04	211.34
390.42	211.37
390.79	211.35
391.17	211.31
391.55	210.89
391.92	210.90
392.30	210.95
392.68	210.78
393.05	210.71
393.43	210.71
393.81	210.77
394.18	210.73
394.56	210.73
394.94	210.87
395.31	210.83
395.69	210.95
396.06	210.98
396.44	211.03
396.82	210.99
397.19	211.13
397.57	211.16
397.95	211.21
398.32	211.11
398.70	211.11
399.07	211.21
399.45	211.18
399.82	211.18
400.20	211.08
400.58	211.10
400.95	210.93
401.33	211.01
401.70	211.26
402.08	211.30
402.45	211.33
402.83	211.42
403.20	211.52
403.58	211.52
403.95	211.60
404.33	211.70
404.71	211.83
405.08	212.03
405.46	212.08
405.83	212.16
406.21	212.26
406.58	212.40
406.96	212.42
407.33	212.55
407.70	212.69
408.08	213.08
408.45	213.20
408.83	213.50
409.20	213.57
409.58	213.56
409.95	213.70
410.33	213.98
410.70	214.10
411.08	214.32
411.45	214.49
411.82	214.71
412.20	214.95
412.57	215.50
412.95	215.58
413.32	215.97
413.69	216.29
414.07	216.66
414.44	217.00
414.82	217.41
415.19	217.97
415.56	218.44
415.94	218.79
416.31	219.52
416.68	220.08
417.06	220.83
417.43	221.53
417.81	222.43
418.18	223.13
418.55	224.03
418.93	224.88
419.30	225.84
419.67	226.85
420.04	227.79
420.42	228.63
420.79	230.10
421.16	231.25
421.54	232.76
421.91	234.07
422.28	235.47
422.66	236.96
423.03	238.57
423.40	240.11
423.77	241.65
424.15	243.11
424.52	244.72
424.89	246.52
425.26	248.24
425.64	249.87
426.01	251.67
426.38	253.51
426.75	255.54
427.13	257.62
427.50	259.76
427.87	262.08
428.24	264.29
428.61	266.17
428.99	268.68
429.36	271.00
429.73	273.56
430.10	276.04
430.47	278.59
430.85	281.04
431.22	283.78
431.59	287.00
431.96	289.79
432.33	292.94
432.70	295.95
433.08	299.41
433.45	302.70
433.82	305.97
434.19	309.66
434.56	313.27
434.93	316.57
435.30	319.99
435.68	323.70
436.05	327.43
436.42	331.00
436.79	334.41
437.16	338.05
437.53	341.77
437.90	345.60
438.27	349.29
438.64	353.14
439.01	356.78
439.38	359.76
439.75	362.92
440.13	366.52
440.50	369.75
440.87	372.43
441.24	375.27
441.61	378.41
441.98	380.60
442.35	383.11
442.72	385.90
443.09	388.61
443.46	390.27
443.83	391.40
444.20	392.47
444.57	393.65
444.94	394.28
445.31	395.04
445.68	396.02
446.05	396.26
446.42	395.87
446.79	395.53
447.16	395.04
447.53	394.71
447.90	393.20
448.27	391.81
448.64	389.95
449.01	388.50
449.37	386.03
449.74	383.71
450.11	381.22
450.48	378.04
450.85	374.54
451.22	371.74
451.59	369.03
451.96	366.41
452.33	363.10
452.70	360.03
453.07	356.38
453.43	352.30
453.80	348.73
454.17	345.36
454.54	341.93
454.91	338.37
455.28	334.90
455.65	331.69
456.02	329.09
456.38	326.36
456.75	322.99
457.12	320.20
457.49	317.43
457.86	314.45
458.23	312.30
458.59	309.94
458.96	307.38
459.33	305.11
459.70	302.98
460.07	301.24
460.43	299.15
460.80	297.19
461.17	295.60
461.54	293.91
461.91	292.20
462.27	290.47
462.64	289.02
463.01	287.52
463.38	286.13
463.74	283.99
464.11	282.60
464.48	281.42
464.85	280.04
465.21	279.06
465.58	278.08
465.95	276.71
466.32	275.58
466.68	274.46
467.05	273.37
467.42	272.20
467.78	271.03
468.15	270.08
468.52	269.36
468.88	268.25
469.25	267.31
469.62	266.65
469.98	266.00
470.35	265.34
470.72	264.65
471.08	263.79
471.45	263.41
471.82	262.90
472.18	262.31
472.55	261.92
472.92	261.35
473.28	260.74
473.65	260.19
474.02	259.83
474.38	259.50
474.75	259.21
475.11	258.89
475.48	258.64
475.85	258.33
476.21	258.00
476.58	257.84
476.94	257.72
477.31	257.58
477.67	257.40
478.04	257.19
478.41	257.16
478.77	257.49
479.14	257.25
479.50	257.30
479.87	257.38
480.23	257.41
480.60	257.48
480.96	257.64
481.33	258.04
481.69	258.18
482.06	258.39
482.42	258.68
482.79	259.04
483.15	259.28
483.52	259.75
483.88	260.07
484.25	260.38
484.61	260.76
484.98	261.15
485.34	261.80
485.71	262.50
486.07	263.03
486.44	263.33
486.80	263.99
487.17	264.59
487.53	265.36
487.90	266.22
488.26	267.14
488.62	268.15
488.99	268.97
489.35	269.93
489.72	271.03
490.08	272.14
490.44	273.25
490.81	274.58
491.17	275.89
491.54	277.38
491.90	278.92
492.26	280.49
492.63	282.08
492.99	283.68
493.36	285.38
493.72	287.32
494.08	289.27
494.45	291.37
494.81	293.50
495.17	295.70
495.54	298.10
495.90	300.38
496.26	302.84
496.63	305.40
496.99	308.09
497.35	310.84
497.72	313.70
498.08	316.62
498.44	319.69
498.80	322.91
499.17	326.21
499.53	329.57
499.89	333.16
500.26	336.89
500.62	340.52
500.98	344.47
501.34	348.41
501.71	352.56
502.07	356.66
502.43	360.90
502.79	365.17
503.16	369.62
503.52	374.28
503.88	378.90
504.24	383.88
504.60	388.92
504.97	394.12
505.33	399.26
505.69	404.96
506.05	410.54
506.41	416.11
506.78	421.90
507.14	427.84
507.50	433.85
507.86	439.91
508.22	446.31
508.59	452.60
508.95	459.04
509.31	465.85
509.67	472.76
510.03	479.82
510.39	487.03
510.75	494.23
511.12	501.63
511.48	509.21
511.84	516.66
512.20	524.34
512.56	532.17
512.92	540.23
513.28	548.01
513.64	556.03
514.00	564.24
514.37	572.39
514.73	580.81
515.09	589.22
515.45	597.71
515.81	606.19
516.17	614.84
516.53	623.67
516.89	632.35
517.25	641.13
517.61	650.10
517.97	658.84
518.33	667.79
518.69	676.81
519.05	685.92
519.41	695.08
519.77	704.45
520.13	713.45
520.49	722.57
520.85	731.83
521.21	741.23
521.57	750.53
521.93	759.73
522.29	769.29
522.65	778.81
523.01	788.28
523.37	797.66
523.73	807.26
524.09	816.75
524.45	826.25
524.81	835.63
525.17	845.15
525.53	854.68
525.89	864.25
526.25	873.65
526.61	882.73
526.97	892.11
527.33	901.49
527.68	911.22
528.04	920.57
528.40	929.71
528.76	938.99
529.12	948.34
529.48	958.03
529.84	967.10
530.20	976.18
530.56	985.29
530.91	994.63
531.27	1003.95
531.63	1012.97
531.99	1021.78
532.35	1030.77
532.71	1039.39
533.07	1048.43
533.42	1057.22
533.78	1065.90
534.14	1074.49
534.50	1082.34
534.86	1090.50
535.21	1098.25
535.57	1106.51
535.93	1114.28
536.29	1122.07
536.65	1129.85
537.00	1137.05
537.36	1144.35
537.72	1151.33
538.08	1158.37
538.44	1165.46
538.79	1172.10
539.15	1178.91
539.51	1185.92
539.87	1193.15
540.22	1199.92
540.58	1206.65
540.94	1213.04
541.29	1219.10
541.65	1225.04
542.01	1231.32
542.37	1237.10
542.72	1243.04
543.08	1248.24
543.44	1254.25
543.79	1259.35
544.15	1264.32
544.51	1269.55
544.87	1274.72
545.22	1279.67
545.58	1284.30
545.94	1288.38
546.29	1292.61
546.65	1296.36
547.01	1299.84
547.36	1303.09
547.72	1306.61
548.07	1309.37
548.43	1312.24
548.79	1315.09
549.14	1317.75
549.50	1320.39
549.86	1322.90
550.21	1325.12
550.57	1327.83
550.92	1329.48
551.28	1331.27
551.64	1333.20
551.99	1335.27
552.35	1336.47
552.70	1338.11
553.06	1339.91
553.41	1341.30
553.77	1342.69
554.13	1344.35
554.48	1345.96
554.84	1347.23
555.19	1347.93
555.55	1349.05
555.90	1349.39
556.26	1349.79
556.61	1350.46
556.97	1350.79
557.32	1351.11
557.68	1350.84
558.03	1350.72
558.39	1351.07
558.74	1351.75
559.10	1351.96
559.45	1351.75
559.81	1352.49
560.16	1352.11
560.52	1351.74
560.87	1351.60
561.23	1350.67
561.58	1350.40
561.94	1349.44
562.29	1348.31
562.64	1347.79
563.00	1346.79
563.35	1346.70
563.71	1346.80
564.06	1346.29
564.42	1345.82
564.77	1345.20
565.12	1345.20
565.48	1344.62
565.83	1343.88
566.19	1343.10
566.54	1341.84
566.89	1340.43
567.25	1338.96
567.60	1338.13
567.96	1336.86
568.31	1335.90
568.66	1334.73
569.02	1332.95
569.37	1331.15
569.72	1329.62
570.08	1327.96
570.43	1326.29
570.78	1324.07
571.14	1321.30
571.49	1318.75
571.84	1316.68
572.20	1314.13
572.55	1311.78
572.90	1308.86
573.26	1305.92
573.61	1302.76
573.96	1299.86
574.31	1296.96
574.67	1293.61
575.02	1289.91
575.37	1286.46
575.72	1282.26
576.08	1279.29
576.43	1275.51
576.78	1272.53
577.13	1269.44
577.49	1265.92
577.84	1262.70
578.19	1259.71
578.54	1257.09
578.90	1254.67
579.25	1251.33
579.60	1247.86
579.95	1244.05
580.30	1240.94
580.66	1238.20
581.01	1234.68
581.36	1231.01
581.71	1227.46
582.06	1224.15
582.42	1221.30
582.77	1217.71
583.12	1214.89
583.47	1211.74
583.82	1208.84
584.17	1205.52
584.53	1202.34
584.88	1199.19
585.23	1195.83
585.58	1192.27
585.93	1188.56
586.28	1185.06
586.63	1181.69
586.98	1178.49
587.34	1175.54
587.69	1172.28
588.04	1168.64
588.39	1165.73
588.74	1162.43
589.09	1159.42
589.44	1155.99
589.79	1152.89
590.14	1149.97
590.49	1146.28
590.84	1142.66
591.19	1139.77
591.54	1136.41
591.89	1132.63
592.25	1129.25
592.60	1125.47
592.95	1121.82
593.30	1117.91
593.65	1113.95
594.00	1110.26
594.35	1107.76
594.70	1103.95
595.05	1100.48
595.40	1096.85
595.75	1092.77
596.10	1089.50
596.45	1086.29
596.80	1083.29
597.15	1079.82
597.50	1076.49
597.85	1073.56
598.19	1070.07
598.54	1066.39
598.89	1063.20
599.24	1060.35
599.59	1057.20
599.94	1054.46
600.29	1051.55
600.64	1048.79
600.99	1045.69
601.34	1042.70
601.69	1038.37
602.04	1035.11
602.39	1031.78
602.74	1028.95
603.08	1026.45
603.43	1023.88
603.78	1020.59
604.13	1017.28
604.48	1013.93
604.83	1011.13
605.18	1008.47
605.53	1005.49
605.87	1002.03
606.22	998.88
606.57	995.64
606.92	992.35
607.27	988.75
607.62	985.39
607.96	982.38
608.31	979.47
608.66	976.06
609.01	972.79
609.36	969.49
609.70	966.01
610.05	962.24
610.40	958.81
610.75	954.90
611.10	951.80
611.44	947.96
611.79	944.21
612.14	940.14
612.49	935.61
612.83	931.79
613.18	927.88
613.53	923.89
613.88	919.64
614.22	915.77
614.57	911.95
614.92	908.00
615.27	903.67
615.61	899.49
615.96	895.53
616.31	891.87
616.65	888.38
617.00	884.56
617.35	880.74
617.70	876.42
618.04	872.16
618.39	867.47
618.74	863.66
619.08	859.64
619.43	855.64
619.78	852.14
620.12	848.19
620.47	844.45
620.82	840.27
621.16	836.13
621.51	832.03
621.85	828.17
622.20	824.07
622.55	820.22
622.89	816.15
623.24	812.41
623.59	808.29
623.93	804.22
624.28	800.46
624.62	796.85
624.97	793.22
625.32	789.65
625.66	786.33
626.01	782.66
626.35	779.05
626.70	775.36
627.04	771.80
627.39	768.35
627.73	764.97
628.08	761.76
628.43	758.08
628.77	754.26
629.12	750.68
629.46	747.53
629.81	744.00
630.15	740.54
630.50	736.87
630.84	733.32
631.19	729.94
631.53	726.44
631.88	722.45
632.22	718.71
632.57	715.42
632.91	711.79
633.26	708.25
633.60	704.94
633.95	701.60
634.29	697.98
634.64	694.58
634.98	690.88
635.32	687.48
635.67	684.63
636.01	681.58
636.36	678.19
636.70	674.79
637.05	671.52
637.39	668.36
637.73	665.40
638.08	662.59
638.42	659.53
638.77	656.51
639.11	653.61
639.45	650.58
639.80	647.15
640.14	643.82
640.49	640.65
640.83	637.52
641.17	634.60
641.52	631.29
641.86	627.99
642.20	625.05
642.55	621.62
642.89	618.21
643.23	614.93
643.58	612.10
643.92	608.79
644.26	605.65
644.61	602.47
644.95	599.35
645.29	595.93
645.64	592.51
645.98	589.30
646.32	586.30
646.66	583.00
647.01	580.02
647.35	577.09
647.69	573.83
648.04	570.74
648.38	567.45
648.72	564.58
649.06	561.56
649.41	558.57
649.75	555.67
650.09	552.89
650.43	549.93
650.78	546.59
651.12	543.67
651.46	540.74
651.80	537.91
652.14	534.89
652.49	532.18
652.83	529.32
653.17	526.20
653.51	523.14
653.85	520.45
654.20	517.64
654.54	514.62
654.88	511.81
655.22	508.95
655.56	506.10
655.90	503.23
656.25	500.39
656.59	497.49
656.93	494.84
657.27	492.05
657.61	489.22
657.95	486.62
658.29	483.95
658.64	481.40
658.98	478.55
659.32	475.63
659.66	472.89
660.00	470.27
660.34	467.67
660.68	464.98
661.02	462.28
661.36	459.84
661.70	457.46
662.05	455.11
662.39	452.73
662.73	450.50
663.07	448.26
663.41	445.88
663.75	443.43
664.09	440.82
664.43	438.42
664.77	436.21
665.11	433.90
665.45	431.68
665.79	429.47
666.13	427.36
666.47	425.33
666.81	423.10
667.15	420.81
667.49	418.83
667.83	416.99
668.17	414.96
668.51	412.86
668.85	410.97
669.19	409.21
669.53	407.20
669.87	405.15
670.21	403.08
670.55	401.35
670.89	399.80
671.23	398.18
671.57	396.45
671.91	394.66
672.25	392.85
672.58	391.18
672.92	389.28
673.26	387.61
673.60	385.95
673.94	384.34
674.28	382.84
674.62	381.26
674.96	379.49
675.30	377.90
675.64	376.24
675.97	374.60
676.31	372.95
676.65	371.34
676.99	370.03
677.33	368.56
677.67	366.86
678.01	365.12
678.34	363.58
678.68	362.07
679.02	360.61
679.36	359.18
679.70	357.60
680.04	356.13
680.37	354.70
680.71	353.24
681.05	351.90
681.39	350.43
681.73	348.98
682.06	347.62
682.40	346.34
682.74	345.02
683.08	343.78
683.42	342.26
683.75	341.01
684.09	339.38
684.43	337.98
684.77	336.61
685.10	335.33
685.44	333.92
685.78	332.49
686.12	331.18
686.45	329.86
686.79	328.58
687.13	327.45
687.46	326.18
687.80	325.03
688.14	323.79
688.48	322.52
688.81	321.25
689.15	320.15
689.49	318.80
689.82	317.61
690.16	316.20
690.50	314.99
690.83	313.75
691.17	312.53
691.51	311.45
691.84	310.32
692.18	309.27
692.52	308.25
692.85	307.37
693.19	306.45
693.52	305.35
693.86	304.20
694.20	303.09
694.53	302.05
694.87	300.97
695.21	299.88
695.54	298.91
695.88	297.87
696.21	296.77
696.55	295.96
696.88	294.97
697.22	294.07
697.56	293.23
697.89	292.25
698.23	291.47
698.56	290.58
698.90	289.82
699.23	288.72
699.57	287.77
699.90	286.71
700.24	285.65
700.58	284.81
700.91	284.04
701.25	283.42
701.58	282.67
701.92	281.85
702.25	281.09
702.59	280.26
702.92	279.49
703.26	278.72
703.59	277.87
703.93	277.38
704.26	276.67
704.60	275.93
704.93	275.18
705.26	274.32
705.60	273.56
705.93	272.80
706.27	272.23
706.60	271.69
706.94	271.23
707.27	270.52
707.61	269.83
707.94	269.15
708.27	268.27
708.61	267.52
708.94	266.87
709.28	266.15
709.61	265.50
709.94	264.88
710.28	264.33
710.61	263.76
710.95	262.81
711.28	262.41
711.61	261.79
711.95	261.31
712.28	260.78
712.61	260.23
712.95	259.84
713.28	259.42
713.61	258.74
713.95	258.18
714.28	257.72
714.61	257.21
714.95	256.71
715.28	256.15
715.61	255.56
715.95	255.13
716.28	254.69
716.61	254.32
716.95	253.75
717.28	253.26
717.61	252.75
717.94	252.34
718.28	251.58
718.61	251.09
718.94	250.52
719.27	250.06
719.61	249.61
719.94	248.99
720.27	248.41
720.60	248.05
720.94	247.58
721.27	247.21
721.60	246.94
721.93	246.58
722.27	246.33
722.60	246.06
722.93	245.62
723.26	245.21
723.59	244.73
723.93	244.48
724.26	244.12
724.59	243.74
724.92	243.47
725.25	243.29
725.59	243.10
725.92	242.92
726.25	242.71
726.58	242.35
726.91	241.98
727.24	241.76
727.57	241.41
727.91	241.00
728.24	240.68
728.57	240.29
728.90	240.06
729.23	239.67
729.56	239.56
729.89	239.31
730.22	238.98
730.55	238.67
730.89	238.36
731.22	237.97
731.55	237.69
731.88	237.44
732.21	237.10
732.54	236.78
732.87	236.52
733.20	236.24
733.53	235.97
733.86	235.79
734.19	235.46
734.52	235.25
734.85	235.26
735.18	234.94
735.51	234.74
735.84	234.45
736.17	234.27
736.50	233.79
736.83	233.96
737.16	233.76
737.49	233.58
737.82	233.40
738.15	233.23
738.48	233.03
738.81	232.70
739.14	232.42
739.47	232.21
739.80	231.92
740.13	231.63
740.46	231.42
740.79	231.16
741.12	231.04
741.45	230.81
741.78	230.40
742.11	230.31
742.44	230.16
742.77	230.02
743.10	229.74
743.43	229.51
743.75	228.84
744.08	229.06
744.41	228.81
744.74	228.54
745.07	228.35
745.40	228.25
745.73	228.22
746.06	228.07
746.39	227.85
746.71	227.66
747.04	227.51
747.37	227.39
747.70	227.33
748.03	227.17
748.36	227.05
748.68	226.93
749.01	226.67
749.34	226.42
749.67	226.21
750.00	226.15
750.33	226.40
750.65	226.37
750.98	225.75
751.31	225.67
751.64	225.55
751.97	225.60
752.29	225.36
752.62	225.10
752.95	224.91
753.28	224.75
753.60	224.57
753.93	224.49
754.26	224.36
754.59	224.12
754.91	223.90
755.24	223.78
755.57	223.63
755.90	223.53
756.22	223.37
756.55	223.29
756.88	223.05
757.20	222.56
757.53	222.34
757.86	222.29
758.19	222.17
758.51	221.92
758.84	221.67
759.17	221.56
759.49	221.38
759.82	221.41
760.15	221.31
760.47	221.14
760.80	220.97
761.13	220.86
761.45	220.76
761.78	220.65
762.11	220.46
762.43	220.29
762.76	220.14
763.08	220.09
763.41	219.96
763.74	219.94
764.06	219.85
764.39	219.75
764.71	219.58
765.04	219.46
765.37	219.43
765.69	219.33
766.02	219.26
766.34	219.23
766.67	219.07
767.00	219.07
767.32	219.20
767.65	219.33
767.97	219.24
768.30	219.12
768.62	219.01
768.95	218.92
769.27	218.86
769.60	218.83
769.92	218.68
770.25	218.50
770.57	218.27
770.90	218.19
771.22	218.04
771.55	217.93
771.87	217.87
772.20	217.81
772.52	218.03
772.85	218.34
773.17	218.21
773.50	218.13
773.82	217.99
774.15	217.73
774.47	217.39
774.80	217.26
775.12	217.18
775.45	217.15
775.77	217.10
776.09	217.08
776.42	217.02
776.74	217.11
777.07	217.03
777.39	217.04
777.72	217.03
778.04	217.04
778.36	217.04
778.69	217.00
779.01	217.01
779.33	216.62
779.66	216.13
779.98	216.17
780.31	216.14
780.63	216.27
780.95	216.32
781.28	216.35
781.60	216.24
781.92	216.25
782.25	216.21
782.57	216.24
782.89	216.17
783.22	216.10
783.54	215.98
783.86	215.97
784.19	215.90
784.51	215.90
784.83	215.83
785.16	215.79
785.48	215.75
785.80	215.66
786.12	215.64
786.45	215.67
786.77	215.58
787.09	215.50
787.42	215.29
787.74	215.27
788.06	215.22
788.38	215.19
788.71	215.17
789.03	215.10
789.35	215.13
789.67	215.05
789.99	215.09
790.32	214.99
790.64	214.97
790.96	215.24
791.28	215.11
791.61	215.07
791.93	215.17
792.25	215.06
792.57	215.37
792.89	215.34
793.21	215.40
793.54	215.33
793.86	215.32
794.18	215.29
794.50	215.26
794.82	215.24
795.14	215.27
795.47	215.30
795.79	215.35
796.11	215.18
796.43	215.20
796.75	215.13
797.07	215.11
797.39	215.15
797.71	214.90
798.04	214.90
798.36	214.87
798.68	214.72
799.00	214.74
799.32	214.53
799.64	214.56
799.96	214.48
800.28	214.55
800.60	214.49
800.92	214.54
801.24	214.42
801.56	214.45
801.89	214.46
802.21	214.39
802.53	214.27
802.85	214.38
803.17	214.51
803.49	214.39
803.81	214.42
804.13	214.36
804.45	214.34
804.77	214.37
805.09	214.36
805.41	214.35
805.73	214.26
806.05	214.05
806.37	214.00
806.69	213.91
807.01	213.80
807.33	213.79
807.65	213.61
807.97	213.74
808.28	213.65
808.60	213.60
808.92	213.55
809.24	213.75
809.56	213.55
809.88	213.34
810.20	213.36
810.52	213.32
810.84	213.27
811.16	213.16
811.48	213.06
811.80	213.10
812.12	213.05
812.43	213.15
812.75	213.20
813.07	213.11
813.39	213.13
813.71	213.09
814.03	213.10
814.35	213.11
814.67	212.93
814.98	212.85
815.30	212.75
815.62	212.65
815.94	212.42
816.26	212.45
816.58	212.38
816.89	212.45
817.21	212.38
817.53	212.35
817.85	212.34
818.17	212.37
818.48	212.28
818.80	212.32
819.12	212.19
819.44	212.09
819.76	212.04
820.07	212.02
820.39	212.10
820.71	212.06
821.03	212.06
821.34	212.06
821.66	212.13
821.98	212.22
822.30	212.20
822.61	212.33
822.93	212.31
823.25	212.28
823.57	212.17
823.88	212.23
824.20	212.26
824.52	212.28
824.83	212.27
825.15	212.19
825.47	212.17
825.79	212.20
826.10	212.22
826.42	212.20
826.74	212.19
827.05	212.13
827.37	212.13
827.69	212.06
828.00	212.05
828.32	211.98
828.64	211.92
828.95	212.15
829.27	212.08
829.58	212.08
829.90	212.11
830.22	212.15
830.53	212.06
830.85	211.96
831.17	211.89
831.48	211.90
831.80	212.00
832.11	211.98
832.43	211.98
832.75	211.98
833.06	212.20
833.38	212.09
833.69	212.07
834.01	212.03
834.32	212.09
834.64	212.06
834.96	212.07
835.27	212.01
835.59	211.94
835.90	211.87
836.22	211.88
836.53	211.90
836.85	211.93
837.16	212.27
837.48	212.24
837.79	212.40
838.11	212.39
838.42	212.30
838.74	212.30
839.05	212.28
839.37	212.24
839.68	212.02
840.00	211.99
840.31	211.99
840.63	212.02
840.94	211.91
841.26	211.95
841.57	211.97
841.88	212.07
842.20	211.90
842.51	211.90
842.83	211.83
843.14	212.13
843.46	212.04
843.77	211.82
844.08	211.86
844.40	211.72
844.71	211.66
845.03	211.70
845.34	211.66
845.65	211.64
845.97	211.64
846.28	211.66
846.60	211.70
846.91	211.69
847.22	211.67
847.54	211.74
847.85	211.73
848.16	211.69
848.48	211.59
848.79	211.83
849.10	211.81
849.42	211.86
849.73	211.50
850.04	211.51
850.36	211.40
850.67	211.44
850.98	211.42
851.30	211.48
851.61	211.45
851.92	211.51
852.23	211.68
852.55	211.70
852.86	211.67
853.17	211.79
853.49	211.83
853.80	211.89
854.11	211.97
854.42	212.01
854.74	211.93
855.05	211.99
855.36	211.72
855.67	211.75
855.99	211.76
856.30	212.22
856.61	212.20
856.92	212.24
857.23	212.25
857.55	212.30
857.86	212.23
858.17	212.24
858.48	212.15
858.79	211.97
859.11	212.03
859.42	212.07
859.73	211.99
860.04	211.96
860.35	211.82
860.66	211.72
860.98	211.69
861.29	211.77
861.60	211.77
861.91	211.93
862.22	211.89
862.53	211.83
862.84	211.39
863.16	211.47
863.47	211.42
863.78	211.38
864.09	211.37
864.40	211.36
864.71	211.44
865.02	211.47
865.33	211.44
865.64	211.37
865.95	211.27
866.27	211.46
866.58	211.41
866.89	211.48
867.20	211.43
867.51	211.40
867.82	211.40
868.13	211.51
868.44	211.41
868.75	211.45
869.06	211.48
869.37	211.43
869.68	211.41
869.99	211.43
870.30	211.46
870.61	211.50
870.92	211.56
871.23	211.44
871.54	211.50
871.85	211.61
872.16	211.68
872.47	211.66
872.78	211.48
873.09	211.51
873.40	211.49
873.71	211.46
874.02	211.50
874.33	211.44
874.64	211.28
874.95	211.30
875.26	211.23
875.56	211.27
875.87	211.30
876.18	211.27
876.49	211.60
876.80	211.58
877.11	211.54
877.42	211.50
877.73	211.55
878.04	211.49
878.35	211.47
878.66	211.42
878.96	211.46
879.27	211.46
879.58	211.39
879.89	211.31
880.20	211.49
880.51	211.44
880.82	211.47
881.12	211.53
881.43	211.46
881.74	211.45
882.05	211.42
882.36	211.50
882.67	211.52
882.97	211.19
883.28	211.07
883.59	210.96
883.90	210.96
884.21	210.96
884.51	210.95
884.82	210.90
885.13	210.93
885.44	210.91
885.74	210.89
886.05	210.98
886.36	211.09
886.67	211.00
886.98	211.16
887.28	211.28
887.59	211.25
887.90	211.27
888.20	211.22
888.51	211.26
888.82	211.15
889.13	211.07
889.43	211.29
889.74	211.32
890.05	211.35
890.35	211.36
890.66	211.28
890.97	211.25
891.28	211.20
891.58	211.19
891.89	211.28
892.20	211.22
892.50	211.15
892.81	211.04
893.12	211.05
893.42	210.90
893.73	210.80
894.04	210.82
894.34	210.88
894.65	210.89
894.95	210.81
895.26	210.84
895.57	211.11
895.87	210.82
896.18	210.92
896.48	210.95
896.79	210.92
897.10	210.99
897.40	210.97
897.71	211.00
898.01	210.99
898.32	210.98
898.63	211.05
898.93	211.13
899.24	211.16
899.54	211.17
899.85	211.13
900.15	211.15
900.46	211.13
900.76	211.20
901.07	211.26
901.38	211.27
901.68	211.32
901.99	211.07
902.29	211.12
902.60	211.09
902.90	211.11
903.21	211.13
903.51	211.15
903.82	211.27
904.12	211.26
904.43	211.25
904.73	211.22
905.03	211.15
905.34	211.48
905.64	211.55
905.95	211.48
906.25	211.52
906.56	211.49
906.86	211.52
907.17	211.45
907.47	211.43
907.77	211.44
908.08	211.38
908.38	211.45
908.69	211.45
908.99	211.50
909.30	211.50
909.60	211.51
909.90	211.49
910.21	211.34
910.51	211.30
910.81	211.30
911.12	211.31
911.42	211.37
911.73	210.94
912.03	210.95
912.33	211.06
912.64	211.06
912.94	210.99
913.24	210.95
913.55	210.93
913.85	210.89
914.15	210.95
914.46	210.99
914.76	210.97
915.06	210.97
915.37	210.87
915.67	210.86
915.97	210.85
916.27	210.78
916.58	210.84
916.88	210.81
917.18	210.84
917.49	211.08
917.79	211.07
918.09	211.20
918.39	211.25
918.70	211.19
919.00	211.19
919.30	211.37
919.60	211.41
919.91	211.37
920.21	211.39
920.51	211.26
920.81	211.24
921.12	211.26
921.42	211.24
921.72	211.29
922.02	211.29
922.32	211.33
922.63	211.35
922.93	211.51
923.23	211.61
923.53	211.52
923.83	211.22
924.13	211.27
924.44	211.22
924.74	211.32
925.04	211.41
925.34	211.35
925.64	211.25
925.94	211.13
926.24	211.29
926.55	211.30
926.85	211.35
927.15	211.36
927.45	211.32
927.75	211.34
928.05	211.36
928.35	211.35
928.65	211.43
928.95	211.50
929.26	211.35
929.56	211.40
929.86	211.48
930.16	211.53
930.46	211.45
930.76	211.45
931.06	211.23
931.36	211.11
931.66	211.23
931.96	211.25
932.26	211.33
932.56	211.23
932.86	211.25
933.16	211.29
933.46	211.30
933.76	211.32
934.06	211.39
934.36	211.50
934.66	211.47
934.96	211.44
935.26	211.41
935.56	211.50
935.86	211.36
936.16	211.29
936.46	211.26
936.76	211.27
937.06	211.24
937.36	211.32
937.66	211.31
937.96	211.25
938.26	211.19
938.56	211.24
938.86	211.20
939.16	211.23
939.46	211.28
939.76	211.28
940.06	211.23
940.35	211.19
940.65	210.99
940.95	211.00
941.25	210.85
941.55	210.87
941.85	210.82
942.15	211.00
942.45	211.08
942.75	211.10
943.04	211.11
943.34	211.21
943.64	211.17
943.94	211.12
944.24	211.07
944.54	211.10
944.84	211.06
945.13	211.12
945.43	211.05
945.73	211.02
946.03	210.98
946.33	210.96
946.62	210.97
946.92	211.00
947.22	211.05
947.52	211.10
947.82	211.16
948.11	211.12
948.41	210.98
948.71	210.87
949.01	210.87
949.31	210.82
949.60	210.78
949.90	210.79
950.20	210.81
950.50	210.84
950.79	210.76
951.09	210.85
951.39	210.77
951.69	210.81
951.98	210.90
952.28	210.90
952.58	210.89
952.87	210.83
953.17	210.85
953.47	210.76
953.76	210.80
954.06	210.67
954.36	210.64
954.66	210.65
954.95	210.76
955.25	210.83
955.55	210.86
955.84	210.78
956.14	210.86
956.44	210.91
956.73	210.88
957.03	210.94
957.32	210.89
957.62	210.86
957.92	210.90
958.21	210.77
958.51	211.20
958.81	211.24
959.10	211.26
959.40	211.35
959.69	211.47
959.99	211.51
960.29	211.55
960.58	211.56
960.88	211.65
961.17	211.70
961.47	211.67
961.76	211.69
962.06	211.77
962.36	211.75
962.65	211.68
962.95	211.75
963.24	211.78
963.54	211.77
963.83	211.83
964.13	211.81
964.42	211.83
964.72	211.53
965.01	211.51
965.31	211.49
965.60	211.43
965.90	211.59
966.19	211.54
966.49	211.55
966.78	211.54
967.08	211.55
967.37	211.56
967.67	211.55
967.96	211.60
968.26	211.59
968.55	211.63
968.85	211.66
969.14	211.64
969.43	211.61
969.73	211.59
970.02	211.58
970.32	211.58
970.61	211.58
970.91	211.49
971.20	211.49
971.49	211.50
971.79	211.53
972.08	211.32
972.38	211.36
972.67	211.35
972.96	211.44
973.26	211.28
973.55	211.36
973.85	211.35
974.14	211.31
974.43	211.31
974.73	211.23
975.02	211.20
975.31	211.24
975.61	211.23
975.90	211.30
976.19	211.20
976.49	211.18
976.78	211.24
977.07	211.27
977.37	211.25
977.66	211.34
977.95	211.27
978.24	211.23
978.54	211.25
978.83	211.21
979.12	211.13
979.42	211.19
979.71	211.13
980.00	211.08
980.29	211.09
980.59	211.02
980.88	211.02
981.17	211.12
981.46	211.03
981.76	211.05
982.05	211.05
982.34	211.15
982.63	211.18
982.93	211.10
983.22	211.14
983.51	211.24
983.80	211.23
984.09	211.28
984.39	211.28
984.68	211.24
984.97	211.25
985.26	211.25
985.55	211.27
985.85	211.17
986.14	211.25
986.43	211.27
986.72	211.26
987.01	211.22
987.30	211.17
987.59	211.13
987.89	211.11
988.18	211.03
988.47	210.98
988.76	210.85
989.05	210.85
989.34	210.83
989.63	210.82
989.92	210.73
990.22	210.75
990.51	210.76
990.80	210.73
991.09	210.77
991.38	210.84
991.67	210.82
991.96	210.78
992.25	210.77
992.54	210.74
992.83	210.76
993.12	210.74
993.41	210.76
993.70	210.93
993.99	210.98
994.28	211.05
994.58	211.09
994.87	211.13
995.16	211.12
995.45	211.02
995.74	210.93
996.03	211.07
996.32	211.08
996.61	211.14
996.90	211.14
997.19	211.17
997.48	211.10
997.77	211.06
998.06	211.13
998.34	211.10
998.63	211.05
998.92	211.06
999.21	211.11
999.50	211.13
999.79	211.06
1000.08	211.03
1000.37	211.03
1000.66	210.99
1000.95	211.11
1001.24	211.12
1001.53	211.19
1001.82	211.26
1002.11	211.14
1002.40	211.09
1002.68	211.18
1002.97	211.41
1003.26	211.33
1003.55	211.30
1003.84	211.28
1004.13	211.33
1004.42	211.31
1004.71	211.29
1004.99	211.27
1005.28	211.39
1005.57	211.30
1005.86	211.23
1006.15	211.21
1006.44	211.17
1006.72	211.21
1007.01	211.06
1007.30	211.06
1007.59	211.03
1007.88	210.92
1008.17	210.91
1008.45	210.86
1008.74	210.69
1009.03	210.54
1009.32	210.50
1009.60	210.50
1009.89	210.50
1010.18	210.36
1010.47	210.30
1010.76	210.29
1011.04	210.28
1011.33	210.19
1011.62	210.27
1011.91	210.32
1012.19	210.30
1012.48	210.32
1012.77	210.29
1013.05	210.50
1013.34	210.50
1013.63	210.53
1013.92	210.61
1014.20	210.59
1014.49	210.68
1014.78	210.70
1015.06	210.57
1015.35	210.59
1015.64	210.62
1015.92	210.66
1016.21	210.72
1016.50	210.76
1016.78	210.80
1017.07	210.84
1017.36	210.81
1017.64	210.81
1017.93	210.79
1018.22	210.85
1018.50	210.84
1018.79	210.86
1019.08	210.66
1019.36	210.72
1019.65	210.65
1019.93	210.71
1020.22	210.80
1020.51	210.86
1020.79	210.87
1021.08	211.35
1021.36	211.35
1021.65	210.85
1021.94	210.10
1022.22	211.60
1022.51	209.90
1022.79	212.10
1023.08	211.25
1023.36	213.75
1023.65	210.40
>>>>>End Processed Spectral Data<<<<<
