SpectraSuite Data File
++++++++++++++++++++++++++++++++++++
Date: Mon Feb 25 17:13:48 EST 2013
User: group
Dark Spectrum Present: No
Reference Spectrum Present: No
Number of Sampled Component Spectra: 1
Spectrometers: USB2E7196
Integration Time (usec): 104000 (USB2E7196)
Spectra Averaged: 20 (USB2E7196)
Boxcar Smoothing: 10 (USB2E7196)
Correct for Electrical Dark: No (USB2E7196)
Strobe/Lamp Enabled: No (USB2E7196)
Correct for Detector Non-linearity: No (USB2E7196)
Correct for Stray Light: No (USB2E7196)
Number of Pixels in Processed Spectrum: 2048
>>>>>Begin Processed Spectral Data<<<<<
339.09	0.00
339.48	198.35
339.86	200.25
340.24	202.60
340.63	202.15
341.01	210.05
341.39	205.95
341.78	207.90
342.16	210.65
342.54	208.70
342.93	198.65
343.31	208.69
343.69	209.21
344.07	209.66
344.46	210.10
344.84	210.53
345.22	210.55
345.60	210.78
345.99	210.95
346.37	210.96
346.75	211.04
347.13	211.08
347.52	211.15
347.90	211.34
348.28	211.32
348.66	211.37
349.05	211.38
349.43	211.49
349.81	211.56
350.19	211.58
350.57	211.63
350.96	211.71
351.34	211.84
351.72	211.99
352.10	212.08
352.48	212.14
352.87	212.19
353.25	212.34
353.63	212.38
354.01	212.46
354.39	212.67
354.77	212.79
355.15	212.98
355.54	213.04
355.92	213.00
356.30	213.07
356.68	213.40
357.06	213.48
357.44	213.40
357.82	213.40
358.20	213.54
358.58	213.54
358.97	213.63
359.35	213.71
359.73	213.81
360.11	213.89
360.49	213.91
360.87	213.97
361.25	214.01
361.63	214.20
362.01	214.23
362.39	214.21
362.77	214.24
363.15	214.19
363.53	214.21
363.91	214.18
364.29	214.22
364.67	213.89
365.05	213.88
365.43	213.98
365.81	214.06
366.19	214.17
366.57	214.37
366.95	214.36
367.33	214.21
367.71	214.15
368.09	214.15
368.47	214.15
368.85	214.12
369.23	214.14
369.61	213.99
369.99	214.05
370.37	214.04
370.75	214.24
371.13	214.14
371.51	214.09
371.89	214.09
372.27	213.99
372.65	213.98
373.03	213.91
373.41	213.85
373.78	213.75
374.16	213.49
374.54	213.31
374.92	213.16
375.30	213.18
375.68	213.07
376.06	213.11
376.44	213.09
376.82	213.05
377.19	213.05
377.57	213.05
377.95	212.83
378.33	212.72
378.71	212.35
379.09	212.39
379.47	212.38
379.84	212.32
380.22	212.27
380.60	212.18
380.98	212.21
381.36	212.12
381.73	212.07
382.11	212.10
382.49	212.09
382.87	211.99
383.25	211.90
383.62	212.23
384.00	212.10
384.38	211.92
384.76	211.94
385.13	211.91
385.51	211.81
385.89	211.81
386.27	211.71
386.64	211.76
387.02	211.74
387.40	211.67
387.78	211.65
388.15	211.69
388.53	211.59
388.91	211.45
389.29	211.45
389.66	211.43
390.04	211.31
390.42	211.29
390.79	211.39
391.17	211.35
391.55	211.04
391.92	211.02
392.30	211.10
392.68	211.02
393.05	210.97
393.43	210.98
393.81	210.93
394.18	210.87
394.56	210.91
394.94	210.89
395.31	210.87
395.69	210.98
396.06	210.99
396.44	211.03
396.82	211.02
397.19	211.19
397.57	211.15
397.95	211.28
398.32	211.16
398.70	211.11
399.07	211.24
399.45	211.12
399.82	211.12
400.20	211.06
400.58	211.05
400.95	210.95
401.33	211.04
401.70	211.34
402.08	211.45
402.45	211.47
402.83	211.54
403.20	211.60
403.58	211.58
403.95	211.72
404.33	211.85
404.71	211.96
405.08	212.21
405.46	212.30
405.83	212.45
406.21	212.57
406.58	212.71
406.96	212.79
407.33	213.04
407.70	213.16
408.08	213.68
408.45	213.90
408.83	214.17
409.20	214.36
409.58	214.31
409.95	214.55
410.33	214.80
410.70	214.96
411.08	215.28
411.45	215.64
411.82	215.79
412.20	216.23
412.57	216.77
412.95	216.87
413.32	217.29
413.69	217.65
414.07	218.15
414.44	218.64
414.82	219.18
415.19	219.79
415.56	220.44
415.94	220.85
416.31	221.61
416.68	222.29
417.06	223.07
417.43	223.92
417.81	224.86
418.18	225.78
418.55	226.79
418.93	227.80
419.30	228.79
419.67	229.92
420.04	230.94
420.42	232.00
420.79	233.56
421.16	234.92
421.54	236.42
421.91	237.81
422.28	239.32
422.66	240.85
423.03	242.63
423.40	244.24
423.77	245.99
424.15	247.70
424.52	249.58
424.89	251.58
425.26	253.50
425.64	255.26
426.01	257.25
426.38	259.42
426.75	261.54
427.13	263.75
427.50	266.08
427.87	268.51
428.24	270.95
428.61	273.04
428.99	275.72
429.36	278.32
429.73	281.04
430.10	283.77
430.47	286.58
430.85	289.21
431.22	292.21
431.59	295.47
431.96	298.46
432.33	301.83
432.70	305.05
433.08	308.82
433.45	312.43
433.82	316.07
434.19	319.90
434.56	323.85
434.93	327.50
435.30	331.26
435.68	335.35
436.05	339.34
436.42	343.28
436.79	346.90
437.16	350.96
437.53	355.05
437.90	359.16
438.27	363.24
438.64	367.37
439.01	371.30
439.38	374.65
439.75	378.17
440.13	381.87
440.50	385.44
440.87	388.44
441.24	391.50
441.61	394.77
441.98	397.23
442.35	399.99
442.72	402.95
443.09	405.86
443.46	407.48
443.83	408.52
444.20	409.62
444.57	410.92
444.94	411.48
445.31	412.37
445.68	413.38
446.05	413.55
446.42	413.14
446.79	412.59
447.16	411.99
447.53	411.51
447.90	410.04
448.27	408.51
448.64	406.29
449.01	404.60
449.37	401.82
449.74	399.16
450.11	396.28
450.48	392.70
450.85	388.92
451.22	385.89
451.59	383.01
451.96	380.22
452.33	376.49
452.70	373.11
453.07	368.95
453.43	364.52
453.80	360.70
454.17	356.96
454.54	353.39
454.91	349.62
455.28	345.85
455.65	342.33
456.02	339.25
456.38	336.27
456.75	332.76
457.12	329.78
457.49	326.76
457.86	323.60
458.23	321.26
458.59	318.64
458.96	315.85
459.33	313.42
459.70	310.94
460.07	309.14
460.43	306.97
460.80	304.96
461.17	303.22
461.54	301.36
461.91	299.53
462.27	297.68
462.64	296.00
463.01	294.35
463.38	292.79
463.74	290.65
464.11	289.20
464.48	287.86
464.85	286.42
465.21	285.49
465.58	284.34
465.95	282.87
466.32	281.70
466.68	280.53
467.05	279.40
467.42	278.33
467.78	277.05
468.15	275.87
468.52	275.12
468.88	273.97
469.25	272.96
469.62	272.32
469.98	271.53
470.35	270.90
470.72	270.16
471.08	269.24
471.45	268.69
471.82	268.21
472.18	267.54
472.55	267.16
472.92	266.48
473.28	265.93
473.65	265.42
474.02	265.00
474.38	264.80
474.75	264.61
475.11	264.24
475.48	264.08
475.85	263.93
476.21	263.66
476.58	263.54
476.94	263.49
477.31	263.29
477.67	263.25
478.04	263.24
478.41	263.26
478.77	263.64
479.14	263.71
479.50	263.71
479.87	263.87
480.23	264.00
480.60	264.17
480.96	264.44
481.33	264.91
481.69	265.25
482.06	265.57
482.42	265.88
482.79	266.26
483.15	266.80
483.52	267.36
483.88	267.93
484.25	268.45
484.61	269.10
484.98	269.72
485.34	270.64
485.71	271.47
486.07	272.34
486.44	272.97
486.80	273.90
487.17	275.04
487.53	276.22
487.90	277.46
488.26	278.89
488.62	280.34
488.99	281.66
489.35	283.13
489.72	284.62
490.08	286.31
490.44	288.06
490.81	289.88
491.17	291.70
491.54	293.69
491.90	295.85
492.26	298.00
492.63	300.41
492.99	302.75
493.36	305.22
493.72	307.93
494.08	310.81
494.45	313.84
494.81	316.91
495.17	320.05
495.54	323.41
495.90	326.82
496.26	330.31
496.63	334.04
496.99	337.91
497.35	341.98
497.72	346.20
498.08	350.53
498.44	354.94
498.80	359.89
499.17	364.91
499.53	370.00
499.89	375.42
500.26	380.83
500.62	386.37
500.98	392.41
501.34	398.32
501.71	404.61
502.07	410.97
502.43	417.47
502.79	424.15
503.16	431.22
503.52	438.33
503.88	445.62
504.24	453.16
504.60	460.95
504.97	468.98
505.33	477.15
505.69	485.95
506.05	494.86
506.41	503.70
506.78	512.62
507.14	521.84
507.50	531.26
507.86	540.81
508.22	550.80
508.59	560.69
508.95	571.15
509.31	581.75
509.67	592.35
510.03	603.17
510.39	614.64
510.75	625.93
511.12	637.55
511.48	649.35
511.84	661.25
512.20	673.38
512.56	685.83
512.92	698.42
513.28	710.90
513.64	723.49
514.00	736.38
514.37	749.54
514.73	762.82
515.09	776.13
515.45	789.53
515.81	802.97
516.17	816.74
516.53	830.42
516.89	843.98
517.25	858.06
517.61	872.28
517.97	886.10
518.33	900.14
518.69	914.15
519.05	928.53
519.41	943.01
519.77	957.62
520.13	971.85
520.49	986.00
520.85	1000.40
521.21	1015.21
521.57	1029.98
521.93	1044.22
522.29	1059.14
522.65	1073.93
523.01	1088.89
523.37	1103.43
523.73	1117.94
524.09	1132.61
524.45	1147.40
524.81	1162.13
525.17	1176.70
525.53	1191.32
525.89	1206.06
526.25	1220.67
526.61	1234.63
526.97	1248.80
527.33	1262.89
527.68	1277.22
528.04	1291.09
528.40	1304.68
528.76	1318.13
529.12	1331.82
529.48	1345.97
529.84	1359.29
530.20	1372.80
530.56	1386.14
530.91	1399.98
531.27	1413.40
531.63	1426.53
531.99	1439.56
532.35	1452.09
532.71	1464.78
533.07	1477.59
533.42	1489.85
533.78	1502.60
534.14	1514.87
534.50	1526.20
534.86	1538.08
535.21	1549.08
535.57	1561.05
535.93	1572.28
536.29	1583.40
536.65	1594.32
537.00	1604.65
537.36	1614.60
537.72	1624.45
538.08	1634.57
538.44	1644.15
538.79	1653.75
539.15	1663.35
539.51	1672.63
539.87	1682.48
540.22	1691.40
540.58	1700.72
540.94	1709.30
541.29	1717.18
541.65	1725.13
542.01	1733.58
542.37	1741.23
542.72	1749.11
543.08	1755.94
543.44	1763.99
543.79	1770.51
544.15	1776.77
544.51	1783.70
544.87	1791.04
545.22	1797.32
545.58	1802.72
545.94	1807.59
546.29	1812.50
546.65	1817.07
547.01	1821.59
547.36	1825.81
547.72	1829.91
548.07	1833.28
548.43	1836.73
548.79	1839.79
549.14	1842.99
549.50	1846.05
549.86	1848.32
550.21	1850.78
550.57	1853.49
550.92	1854.73
551.28	1856.90
551.64	1858.90
551.99	1860.65
552.35	1861.46
552.70	1862.81
553.06	1864.55
553.41	1866.13
553.77	1866.95
554.13	1867.66
554.48	1868.58
554.84	1869.29
555.19	1869.58
555.55	1869.48
555.90	1869.30
556.26	1869.30
556.61	1868.87
556.97	1867.88
557.32	1867.44
557.68	1866.48
558.03	1865.60
558.39	1864.79
558.74	1864.38
559.10	1863.54
559.45	1862.42
559.81	1861.75
560.16	1860.05
560.52	1858.71
560.87	1857.02
561.23	1855.44
561.58	1854.24
561.94	1852.32
562.29	1849.57
562.64	1847.69
563.00	1845.82
563.35	1844.62
563.71	1843.22
564.06	1841.74
564.42	1840.57
564.77	1839.40
565.12	1837.92
565.48	1836.25
565.83	1834.52
566.19	1832.64
566.54	1829.93
566.89	1827.33
567.25	1824.87
567.60	1822.91
567.96	1819.96
568.31	1817.74
568.66	1815.01
569.02	1811.58
569.37	1808.04
569.72	1805.32
570.08	1802.22
570.43	1798.70
570.78	1794.73
571.14	1790.68
571.49	1786.81
571.84	1783.15
572.20	1778.30
572.55	1774.22
572.90	1769.31
573.26	1764.69
573.61	1759.44
573.96	1754.97
574.31	1749.68
574.67	1744.16
575.02	1738.49
575.37	1733.33
575.72	1727.73
576.08	1723.08
576.43	1717.75
576.78	1712.89
577.13	1708.02
577.49	1702.71
577.84	1697.72
578.19	1693.00
578.54	1688.36
578.90	1683.66
579.25	1678.20
579.60	1672.75
579.95	1666.97
580.30	1662.27
580.66	1657.38
581.01	1652.17
581.36	1646.55
581.71	1641.19
582.06	1635.94
582.42	1630.94
582.77	1625.33
583.12	1620.12
583.47	1614.75
583.82	1610.02
584.17	1604.75
584.53	1599.51
584.88	1594.47
585.23	1589.35
585.58	1583.70
585.93	1577.95
586.28	1572.97
586.63	1567.55
586.98	1562.72
587.34	1558.49
587.69	1553.17
588.04	1548.14
588.39	1543.30
588.74	1538.18
589.09	1533.52
589.44	1528.35
589.79	1523.71
590.14	1518.95
590.49	1513.53
590.84	1508.21
591.19	1503.42
591.54	1498.03
591.89	1492.10
592.25	1486.70
592.60	1480.83
592.95	1475.08
593.30	1469.20
593.65	1462.94
594.00	1457.39
594.35	1453.33
594.70	1447.45
595.05	1442.11
595.40	1436.44
595.75	1430.38
596.10	1425.32
596.45	1420.31
596.80	1415.71
597.15	1410.46
597.50	1405.16
597.85	1400.50
598.19	1395.33
598.54	1390.06
598.89	1385.76
599.24	1381.75
599.59	1376.91
599.94	1372.80
600.29	1368.34
600.64	1364.03
600.99	1358.85
601.34	1354.27
601.69	1348.16
602.04	1342.79
602.39	1337.75
602.74	1333.04
603.08	1329.15
603.43	1324.85
603.78	1319.87
604.13	1314.79
604.48	1310.03
604.83	1306.19
605.18	1301.97
605.53	1297.31
605.87	1292.47
606.22	1287.52
606.57	1282.35
606.92	1277.47
607.27	1272.28
607.62	1267.45
607.96	1263.00
608.31	1259.24
608.66	1254.40
609.01	1249.60
609.36	1244.96
609.70	1239.83
610.05	1234.54
610.40	1229.10
610.75	1223.47
611.10	1218.67
611.44	1213.04
611.79	1207.33
612.14	1201.03
612.49	1194.76
612.83	1189.31
613.18	1183.48
613.53	1177.78
613.88	1171.66
614.22	1166.32
614.57	1160.61
614.92	1154.95
615.27	1148.87
615.61	1142.79
615.96	1136.93
616.31	1131.55
616.65	1126.62
617.00	1121.32
617.35	1115.93
617.70	1110.16
618.04	1104.24
618.39	1097.91
618.74	1092.41
619.08	1086.67
619.43	1081.13
619.78	1075.88
620.12	1070.31
620.47	1064.82
620.82	1058.82
621.16	1053.23
621.51	1047.40
621.85	1041.78
622.20	1036.04
622.55	1030.38
622.89	1024.63
623.24	1019.20
623.59	1013.29
623.93	1007.49
624.28	1002.15
624.62	996.90
624.97	991.76
625.32	986.80
625.66	981.95
626.01	976.88
626.35	972.01
626.70	966.87
627.04	961.91
627.39	956.95
627.73	952.15
628.08	947.55
628.43	942.55
628.77	937.42
629.12	932.38
629.46	927.80
629.81	923.12
630.15	918.35
630.50	913.53
630.84	908.46
631.19	903.51
631.53	898.56
631.88	893.13
632.22	887.94
632.57	883.10
632.91	878.10
633.26	873.19
633.60	868.22
633.95	863.64
634.29	858.80
634.64	854.11
634.98	849.17
635.32	844.47
635.67	840.16
636.01	835.95
636.36	831.34
636.70	826.89
637.05	822.25
637.39	817.84
637.73	813.62
638.08	809.87
638.42	805.83
638.77	801.63
639.11	797.52
639.45	793.37
639.80	788.75
640.14	784.38
640.49	780.01
640.83	775.59
641.17	771.26
641.52	766.84
641.86	762.19
642.20	758.01
642.55	753.36
642.89	748.74
643.23	744.04
643.58	740.14
643.92	735.48
644.26	731.07
644.61	726.70
644.95	722.21
645.29	717.68
645.64	712.98
645.98	708.60
646.32	704.42
646.66	699.99
647.01	695.98
647.35	692.03
647.69	687.53
648.04	683.60
648.38	679.39
648.72	675.19
649.06	671.19
649.41	667.03
649.75	662.95
650.09	659.08
650.43	655.00
650.78	650.55
651.12	646.50
651.46	642.54
651.80	638.68
652.14	634.84
652.49	630.85
652.83	626.96
653.17	622.71
653.51	618.84
653.85	615.12
654.20	611.24
654.54	607.05
654.88	603.37
655.22	599.43
655.56	595.51
655.90	591.75
656.25	587.90
656.59	584.07
656.93	580.60
657.27	577.00
657.61	573.20
657.95	569.79
658.29	566.19
658.64	562.67
658.98	559.00
659.32	555.08
659.66	551.61
660.00	548.05
660.34	544.53
660.68	540.79
661.02	537.26
661.36	533.94
661.70	530.63
662.05	527.60
662.39	524.58
662.73	521.59
663.07	518.67
663.41	515.59
663.75	512.39
664.09	509.14
664.43	505.84
664.77	502.87
665.11	499.88
665.45	496.90
665.79	493.96
666.13	491.10
666.47	488.36
666.81	485.50
667.15	482.59
667.49	480.14
667.83	477.65
668.17	474.95
668.51	472.34
668.85	469.91
669.19	467.24
669.53	464.40
669.87	461.64
670.21	458.89
670.55	456.31
670.89	454.12
671.23	451.82
671.57	449.46
671.91	447.10
672.25	444.52
672.58	442.28
672.92	439.85
673.26	437.44
673.60	435.25
673.94	432.80
674.28	430.63
674.62	428.33
674.96	426.07
675.30	423.95
675.64	421.70
675.97	419.42
676.31	417.26
676.65	415.21
676.99	413.32
677.33	411.14
677.67	409.09
678.01	406.81
678.34	404.80
678.68	402.82
679.02	400.66
679.36	398.83
679.70	396.76
680.04	394.89
680.37	392.98
680.71	390.98
681.05	389.26
681.39	387.45
681.73	385.60
682.06	383.86
682.40	382.04
682.74	380.33
683.08	378.60
683.42	376.85
683.75	375.11
684.09	373.13
684.43	371.42
684.77	369.56
685.10	367.83
685.44	366.02
685.78	364.31
686.12	362.78
686.45	361.10
686.79	359.50
687.13	357.99
687.46	356.40
687.80	354.89
688.14	353.18
688.48	351.64
688.81	349.93
689.15	348.31
689.49	346.79
689.82	345.16
690.16	343.49
690.50	341.85
690.83	340.29
691.17	338.67
691.51	337.15
691.84	335.82
692.18	334.41
692.52	333.10
692.85	331.81
693.19	330.66
693.52	329.26
693.86	327.86
694.20	326.40
694.53	325.08
694.87	323.74
695.21	322.42
695.54	321.01
695.88	319.67
696.21	318.37
696.55	317.10
696.88	315.80
697.22	314.57
697.56	313.59
697.89	312.36
698.23	311.39
698.56	310.27
698.90	309.24
699.23	308.08
699.57	306.88
699.90	305.63
700.24	304.28
700.58	303.14
700.91	302.14
701.25	301.31
701.58	300.29
701.92	299.33
702.25	298.33
702.59	297.36
702.92	296.35
703.26	295.28
703.59	294.40
703.93	293.74
704.26	292.82
704.60	291.67
704.93	290.70
705.26	289.70
705.60	288.78
705.93	287.66
706.27	286.80
706.60	285.96
706.94	285.30
707.27	284.47
707.61	283.63
707.94	282.67
708.27	281.67
708.61	280.80
708.94	279.82
709.28	279.06
709.61	278.25
709.94	277.60
710.28	276.98
710.61	276.15
710.95	275.16
711.28	274.68
711.61	273.99
711.95	273.37
712.28	272.67
712.61	272.04
712.95	271.67
713.28	271.12
713.61	270.36
713.95	269.55
714.28	268.94
714.61	268.26
714.95	267.66
715.28	266.94
715.61	266.29
715.95	265.75
716.28	265.09
716.61	264.56
716.95	263.91
717.28	263.25
717.61	262.65
717.94	262.07
718.28	261.21
718.61	260.67
718.94	260.10
719.27	259.49
719.61	258.98
719.94	258.19
720.27	257.46
720.60	257.00
720.94	256.48
721.27	255.96
721.60	255.50
721.93	255.02
722.27	254.70
722.60	254.22
722.93	253.74
723.26	253.26
723.59	252.77
723.93	252.34
724.26	251.88
724.59	251.41
724.92	251.00
725.25	250.68
725.59	250.32
725.92	249.98
726.25	249.60
726.58	249.18
726.91	248.84
727.24	248.59
727.57	248.19
727.91	247.80
728.24	247.47
728.57	247.11
728.90	246.87
729.23	246.35
729.56	246.16
729.89	245.82
730.22	245.48
730.55	245.05
730.89	244.71
731.22	244.39
731.55	244.05
731.88	243.71
732.21	243.35
732.54	242.87
732.87	242.48
733.20	242.18
733.53	241.79
733.86	241.49
734.19	241.05
734.52	240.81
734.85	240.73
735.18	240.42
735.51	240.19
735.84	239.84
736.17	239.72
736.50	239.25
736.83	239.31
737.16	238.99
737.49	238.68
737.82	238.40
738.15	238.18
738.48	237.85
738.81	237.53
739.14	237.22
739.47	236.92
739.80	236.65
740.13	236.41
740.46	236.10
740.79	235.83
741.12	235.60
741.45	235.25
741.78	234.75
742.11	234.57
742.44	234.18
742.77	233.98
743.10	233.62
743.43	233.40
743.75	232.83
744.08	233.09
744.41	232.89
744.74	232.60
745.07	232.23
745.40	232.12
745.73	232.03
746.06	231.78
746.39	231.71
746.71	231.38
747.04	231.09
747.37	230.85
747.70	230.73
748.03	230.52
748.36	230.40
748.68	230.25
749.01	229.83
749.34	229.70
749.67	229.51
750.00	229.41
750.33	229.38
750.65	229.15
750.98	228.48
751.31	228.30
751.64	228.18
751.97	228.26
752.29	227.99
752.62	227.66
752.95	227.46
753.28	227.18
753.60	227.05
753.93	227.02
754.26	226.89
754.59	226.60
754.91	226.42
755.24	226.20
755.57	225.99
755.90	225.85
756.22	225.65
756.55	225.38
756.88	225.03
757.20	224.62
757.53	224.33
757.86	224.18
758.19	224.06
758.51	223.83
758.84	223.47
759.17	223.39
759.49	223.25
759.82	223.25
760.15	223.14
760.47	223.00
760.80	222.71
761.13	222.65
761.45	222.46
761.78	222.36
762.11	222.21
762.43	222.05
762.76	221.99
763.08	221.86
763.41	221.79
763.74	221.70
764.06	221.56
764.39	221.48
764.71	221.33
765.04	221.20
765.37	221.05
765.69	220.94
766.02	220.77
766.34	220.64
766.67	220.37
767.00	220.36
767.32	220.40
767.65	220.58
767.97	220.36
768.30	220.32
768.62	220.12
768.95	220.04
769.27	219.93
769.60	219.90
769.92	219.79
770.25	219.59
770.57	219.49
770.90	219.55
771.22	219.45
771.55	219.38
771.87	219.28
772.20	219.22
772.52	219.39
772.85	219.71
773.17	219.67
773.50	219.62
773.82	219.45
774.15	219.23
774.47	218.86
774.80	218.88
775.12	218.79
775.45	218.77
775.77	218.65
776.09	218.63
776.42	218.55
776.74	218.60
777.07	218.61
777.39	218.55
777.72	218.41
778.04	218.44
778.36	218.35
778.69	218.28
779.01	218.26
779.33	217.93
779.66	217.49
779.98	217.43
780.31	217.42
780.63	217.47
780.95	217.50
781.28	217.48
781.60	217.35
781.92	217.25
782.25	217.19
782.57	217.18
782.89	217.08
783.22	217.00
783.54	216.84
783.86	216.79
784.19	216.73
784.51	216.74
784.83	216.61
785.16	216.58
785.48	216.54
785.80	216.45
786.12	216.42
786.45	216.40
786.77	216.40
787.09	216.26
787.42	216.04
787.74	216.00
788.06	216.01
788.38	215.91
788.71	215.90
789.03	215.88
789.35	215.90
789.67	215.84
789.99	215.74
790.32	215.66
790.64	215.64
790.96	215.85
791.28	215.69
791.61	215.69
791.93	215.64
792.25	215.57
792.57	215.83
792.89	215.72
793.21	215.65
793.54	215.50
793.86	215.48
794.18	215.49
794.50	215.39
794.82	215.31
795.14	215.33
795.47	215.25
795.79	215.20
796.11	214.99
796.43	214.91
796.75	214.94
797.07	214.94
797.39	214.90
797.71	214.67
798.04	214.65
798.36	214.58
798.68	214.57
799.00	214.59
799.32	214.33
799.64	214.44
799.96	214.42
800.28	214.47
800.60	214.40
800.92	214.40
801.24	214.34
801.56	214.41
801.89	214.34
802.21	214.44
802.53	214.34
802.85	214.44
803.17	214.60
803.49	214.46
803.81	214.38
804.13	214.24
804.45	214.12
804.77	214.09
805.09	214.13
805.41	214.06
805.73	213.98
806.05	213.87
806.37	213.74
806.69	213.74
807.01	213.65
807.33	213.69
807.65	213.60
807.97	213.76
808.28	213.56
808.60	213.60
808.92	213.51
809.24	213.79
809.56	213.75
809.88	213.56
810.20	213.56
810.52	213.65
810.84	213.73
811.16	213.76
811.48	213.73
811.80	213.80
812.12	213.81
812.43	213.90
812.75	213.94
813.07	213.92
813.39	213.90
813.71	213.91
814.03	213.81
814.35	213.84
814.67	213.61
814.98	213.64
815.30	213.62
815.62	213.50
815.94	213.22
816.26	213.19
816.58	213.19
816.89	213.22
817.21	213.12
817.53	213.06
817.85	213.07
818.17	213.07
818.48	212.90
818.80	212.87
819.12	212.74
819.44	212.63
819.76	212.58
820.07	212.54
820.39	212.49
820.71	212.61
821.03	212.58
821.34	212.61
821.66	212.63
821.98	212.62
822.30	212.62
822.61	212.82
822.93	212.75
823.25	212.74
823.57	212.68
823.88	212.71
824.20	212.67
824.52	212.62
824.83	212.58
825.15	212.51
825.47	212.59
825.79	212.61
826.10	212.60
826.42	212.62
826.74	212.65
827.05	212.70
827.37	212.69
827.69	212.67
828.00	212.67
828.32	212.72
828.64	212.74
828.95	212.88
829.27	212.82
829.58	212.81
829.90	212.85
830.22	212.93
830.53	212.87
830.85	212.85
831.17	212.81
831.48	212.89
831.80	212.94
832.11	212.89
832.43	212.80
832.75	212.88
833.06	213.06
833.38	212.96
833.69	212.87
834.01	212.83
834.32	212.70
834.64	212.72
834.96	212.68
835.27	212.58
835.59	212.44
835.90	212.38
836.22	212.40
836.53	212.30
836.85	212.23
837.16	212.57
837.48	212.59
837.79	212.70
838.11	212.70
838.42	212.65
838.74	212.64
839.05	212.67
839.37	212.62
839.68	212.39
840.00	212.38
840.31	212.43
840.63	212.40
840.94	212.49
841.26	212.36
841.57	212.36
841.88	212.46
842.20	212.51
842.51	212.42
842.83	212.40
843.14	212.75
843.46	212.76
843.77	212.55
844.08	212.55
844.40	212.41
844.71	212.29
845.03	212.22
845.34	212.18
845.65	212.25
845.97	212.20
846.28	212.15
846.60	212.08
846.91	212.02
847.22	212.01
847.54	212.09
847.85	212.16
848.16	212.07
848.48	212.00
848.79	212.13
849.10	212.20
849.42	212.24
849.73	211.89
850.04	211.86
850.36	211.67
850.67	211.77
850.98	211.79
851.30	211.86
851.61	211.97
851.92	211.96
852.23	211.98
852.55	212.03
852.86	212.02
853.17	212.09
853.49	212.18
853.80	212.21
854.11	212.18
854.42	212.21
854.74	212.25
855.05	212.17
855.36	211.95
855.67	211.93
855.99	211.87
856.30	212.31
856.61	212.34
856.92	212.48
857.23	212.36
857.55	212.32
857.86	212.33
858.17	212.30
858.48	212.22
858.79	212.13
859.11	212.18
859.42	212.22
859.73	212.23
860.04	212.21
860.35	212.07
860.66	211.96
860.98	211.86
861.29	211.94
861.60	211.95
861.91	212.02
862.22	211.89
862.53	211.78
862.84	211.34
863.16	211.37
863.47	211.19
863.78	211.19
864.09	211.24
864.40	211.26
864.71	211.26
865.02	211.39
865.33	211.28
865.64	211.19
865.95	211.14
866.27	211.32
866.58	211.25
866.89	211.34
867.20	211.36
867.51	211.34
867.82	211.26
868.13	211.41
868.44	211.33
868.75	211.49
869.06	211.56
869.37	211.59
869.68	211.50
869.99	211.62
870.30	211.64
870.61	211.66
870.92	211.58
871.23	211.59
871.54	211.53
871.85	211.61
872.16	211.69
872.47	211.68
872.78	211.51
873.09	211.59
873.40	211.52
873.71	211.56
874.02	211.63
874.33	211.65
874.64	211.51
874.95	211.62
875.26	211.48
875.56	211.48
875.87	211.51
876.18	211.52
876.49	211.82
876.80	211.82
877.11	211.69
877.42	211.74
877.73	211.77
878.04	211.69
878.35	211.69
878.66	211.67
878.96	211.67
879.27	211.64
879.58	211.55
879.89	211.60
880.20	211.66
880.51	211.70
880.82	211.71
881.12	211.73
881.43	211.65
881.74	211.62
882.05	211.63
882.36	211.60
882.67	211.68
882.97	211.34
883.28	211.30
883.59	211.30
883.90	211.29
884.21	211.30
884.51	211.35
884.82	211.40
885.13	211.42
885.44	211.48
885.74	211.50
886.05	211.55
886.36	211.53
886.67	211.41
886.98	211.36
887.28	211.38
887.59	211.35
887.90	211.32
888.20	211.32
888.51	211.41
888.82	211.36
889.13	211.32
889.43	211.57
889.74	211.59
890.05	211.60
890.35	211.61
890.66	211.49
890.97	211.54
891.28	211.50
891.58	211.50
891.89	211.46
892.20	211.43
892.50	211.43
892.81	211.41
893.12	211.43
893.42	211.36
893.73	211.29
894.04	211.36
894.34	211.38
894.65	211.32
894.95	211.19
895.26	211.19
895.57	211.30
895.87	210.92
896.18	210.94
896.48	210.97
896.79	210.95
897.10	211.07
897.40	211.03
897.71	211.14
898.01	211.10
898.32	211.10
898.63	211.16
898.93	211.19
899.24	211.20
899.54	211.26
899.85	211.24
900.15	211.26
900.46	211.25
900.76	211.30
901.07	211.33
901.38	211.40
901.68	211.45
901.99	211.35
902.29	211.43
902.60	211.41
902.90	211.37
903.21	211.36
903.51	211.31
903.82	211.37
904.12	211.30
904.43	211.39
904.73	211.39
905.03	211.36
905.34	211.61
905.64	211.60
905.95	211.53
906.25	211.57
906.56	211.58
906.86	211.56
907.17	211.58
907.47	211.66
907.77	211.60
908.08	211.51
908.38	211.50
908.69	211.58
908.99	211.67
909.30	211.73
909.60	211.75
909.90	211.73
910.21	211.59
910.51	211.50
910.81	211.44
911.12	211.46
911.42	211.47
911.73	211.15
912.03	211.09
912.33	211.14
912.64	211.11
912.94	211.14
913.24	211.09
913.55	211.06
913.85	211.03
914.15	211.08
914.46	211.20
914.76	211.15
915.06	211.07
915.37	210.99
915.67	210.99
915.97	210.97
916.27	210.97
916.58	211.15
916.88	211.17
917.18	211.08
917.49	211.27
917.79	211.23
918.09	211.29
918.39	211.43
918.70	211.42
919.00	211.36
919.30	211.49
919.60	211.50
919.91	211.43
920.21	211.41
920.51	211.34
920.81	211.26
921.12	211.38
921.42	211.43
921.72	211.50
922.02	211.43
922.32	211.46
922.63	211.46
922.93	211.53
923.23	211.60
923.53	211.56
923.83	211.36
924.13	211.46
924.44	211.44
924.74	211.45
925.04	211.59
925.34	211.62
925.64	211.45
925.94	211.41
926.24	211.62
926.55	211.60
926.85	211.68
927.15	211.73
927.45	211.61
927.75	211.64
928.05	211.64
928.35	211.67
928.65	211.82
928.95	211.80
929.26	211.69
929.56	211.71
929.86	211.77
930.16	211.83
930.46	211.72
930.76	211.79
931.06	211.67
931.36	211.54
931.66	211.62
931.96	211.66
932.26	211.69
932.56	211.52
932.86	211.55
933.16	211.45
933.46	211.45
933.76	211.43
934.06	211.46
934.36	211.55
934.66	211.53
934.96	211.43
935.26	211.41
935.56	211.41
935.86	211.28
936.16	211.32
936.46	211.25
936.76	211.28
937.06	211.20
937.36	211.14
937.66	211.19
937.96	211.14
938.26	211.08
938.56	211.06
938.86	211.14
939.16	211.24
939.46	211.36
939.76	211.33
940.06	211.34
940.35	211.25
940.65	211.05
940.95	211.09
941.25	211.10
941.55	211.04
941.85	211.00
942.15	211.09
942.45	211.12
942.75	211.08
943.04	211.11
943.34	211.17
943.64	211.23
943.94	211.17
944.24	211.22
944.54	211.32
944.84	211.27
945.13	211.20
945.43	211.13
945.73	211.11
946.03	211.10
946.33	211.09
946.62	211.06
946.92	211.07
947.22	211.09
947.52	211.09
947.82	211.25
948.11	211.25
948.41	211.29
948.71	211.25
949.01	211.27
949.31	211.21
949.60	211.17
949.90	211.25
950.20	211.22
950.50	211.19
950.79	211.15
951.09	211.24
951.39	211.25
951.69	211.17
951.98	211.24
952.28	211.29
952.58	211.33
952.87	211.37
953.17	211.38
953.47	211.28
953.76	211.21
954.06	211.17
954.36	211.14
954.66	211.12
954.95	211.20
955.25	211.21
955.55	211.26
955.84	211.19
956.14	211.20
956.44	211.17
956.73	211.15
957.03	211.08
957.32	211.07
957.62	211.05
957.92	211.14
958.21	211.11
958.51	211.48
958.81	211.46
959.10	211.49
959.40	211.61
959.69	211.65
959.99	211.74
960.29	211.59
960.58	211.56
960.88	211.66
961.17	211.56
961.47	211.60
961.76	211.55
962.06	211.60
962.36	211.55
962.65	211.62
962.95	211.65
963.24	211.68
963.54	211.69
963.83	211.69
964.13	211.67
964.42	211.52
964.72	211.24
965.01	211.24
965.31	211.19
965.60	211.10
965.90	211.30
966.19	211.24
966.49	211.35
966.78	211.38
967.08	211.34
967.37	211.37
967.67	211.34
967.96	211.46
968.26	211.46
968.55	211.50
968.85	211.49
969.14	211.46
969.43	211.45
969.73	211.40
970.02	211.42
970.32	211.45
970.61	211.45
970.91	211.31
971.20	211.29
971.49	211.30
971.79	211.33
972.08	211.12
972.38	211.10
972.67	211.05
972.96	211.03
973.26	210.91
973.55	211.01
973.85	210.99
974.14	210.93
974.43	211.00
974.73	210.92
975.02	210.86
975.31	210.91
975.61	210.91
975.90	210.94
976.19	210.95
976.49	210.94
976.78	210.94
977.07	210.97
977.37	211.02
977.66	211.03
977.95	210.96
978.24	210.93
978.54	211.10
978.83	211.18
979.12	211.23
979.42	211.29
979.71	211.19
980.00	211.21
980.29	211.18
980.59	211.14
980.88	211.19
981.17	211.29
981.46	211.21
981.76	211.28
982.05	211.32
982.34	211.35
982.63	211.38
982.93	211.38
983.22	211.55
983.51	211.63
983.80	211.73
984.09	211.76
984.39	211.82
984.68	211.76
984.97	211.72
985.26	211.71
985.55	211.75
985.85	211.77
986.14	211.80
986.43	211.85
986.72	211.84
987.01	211.83
987.30	211.77
987.59	211.82
987.89	211.79
988.18	211.75
988.47	211.71
988.76	211.63
989.05	211.67
989.34	211.50
989.63	211.48
989.92	211.40
990.22	211.39
990.51	211.34
990.80	211.27
991.09	211.30
991.38	211.35
991.67	211.20
991.96	211.16
992.25	211.18
992.54	211.15
992.83	211.05
993.12	211.01
993.41	211.08
993.70	211.24
993.99	211.25
994.28	211.24
994.58	211.29
994.87	211.27
995.16	211.28
995.45	211.27
995.74	211.10
996.03	211.20
996.32	211.26
996.61	211.33
996.90	211.37
997.19	211.36
997.48	211.34
997.77	211.43
998.06	211.45
998.34	211.44
998.63	211.44
998.92	211.55
999.21	211.58
999.50	211.57
999.79	211.43
1000.08	211.43
1000.37	211.38
1000.66	211.32
1000.95	211.45
1001.24	211.46
1001.53	211.50
1001.82	211.57
1002.11	211.42
1002.40	211.49
1002.68	211.56
1002.97	211.75
1003.26	211.66
1003.55	211.66
1003.84	211.61
1004.13	211.66
1004.42	211.57
1004.71	211.61
1004.99	211.53
1005.28	211.62
1005.57	211.60
1005.86	211.62
1006.15	211.60
1006.44	211.67
1006.72	211.71
1007.01	211.66
1007.30	211.68
1007.59	211.69
1007.88	211.62
1008.17	211.68
1008.45	211.51
1008.74	211.42
1009.03	211.26
1009.32	211.32
1009.60	211.29
1009.89	211.25
1010.18	211.09
1010.47	211.07
1010.76	211.00
1011.04	210.98
1011.33	210.98
1011.62	210.98
1011.91	210.95
1012.19	210.95
1012.48	210.91
1012.77	210.87
1013.05	210.96
1013.34	210.94
1013.63	210.87
1013.92	210.92
1014.20	210.80
1014.49	210.78
1014.78	210.70
1015.06	210.58
1015.35	210.54
1015.64	210.61
1015.92	210.66
1016.21	210.75
1016.50	210.73
1016.78	210.69
1017.07	210.76
1017.36	210.68
1017.64	210.61
1017.93	210.61
1018.22	210.62
1018.50	210.57
1018.79	210.57
1019.08	210.44
1019.36	210.41
1019.65	210.39
1019.93	210.52
1020.22	210.63
1020.51	210.83
1020.79	210.85
1021.08	211.00
1021.36	209.65
1021.65	210.70
1021.94	211.10
1022.22	210.30
1022.51	209.55
1022.79	213.15
1023.08	211.20
1023.36	214.35
1023.65	210.10
>>>>>End Processed Spectral Data<<<<<
