SpectraSuite Data File
++++++++++++++++++++++++++++++++++++
Date: Mon Feb 25 17:02:44 EST 2013
User: group
Dark Spectrum Present: No
Reference Spectrum Present: No
Number of Sampled Component Spectra: 1
Spectrometers: USB2E7196
Integration Time (usec): 104000 (USB2E7196)
Spectra Averaged: 20 (USB2E7196)
Boxcar Smoothing: 10 (USB2E7196)
Correct for Electrical Dark: No (USB2E7196)
Strobe/Lamp Enabled: No (USB2E7196)
Correct for Detector Non-linearity: No (USB2E7196)
Correct for Stray Light: No (USB2E7196)
Number of Pixels in Processed Spectrum: 2048
>>>>>Begin Processed Spectral Data<<<<<
339.09	0.00
339.48	198.75
339.86	200.15
340.24	200.75
340.63	202.30
341.01	209.05
341.39	206.25
341.78	206.60
342.16	209.35
342.54	209.00
342.93	198.27
343.31	208.24
343.69	208.83
344.07	209.27
344.46	209.79
344.84	210.20
345.22	210.35
345.60	210.60
345.99	210.79
346.37	210.90
346.75	210.93
347.13	210.94
347.52	210.95
347.90	211.11
348.28	211.08
348.66	211.16
349.05	211.09
349.43	211.10
349.81	211.10
350.19	211.11
350.57	211.16
350.96	211.13
351.34	211.23
351.72	211.27
352.10	211.43
352.48	211.45
352.87	211.50
353.25	211.47
353.63	211.47
354.01	211.48
354.39	211.56
354.77	211.70
355.15	211.95
355.54	211.94
355.92	211.84
356.30	211.90
356.68	212.12
357.06	212.20
357.44	212.23
357.82	212.31
358.20	212.40
358.58	212.45
358.97	212.50
359.35	212.65
359.73	212.81
360.11	212.80
360.49	212.86
360.87	212.90
361.25	212.93
361.63	213.03
362.01	213.15
362.39	213.09
362.77	213.15
363.15	213.09
363.53	213.09
363.91	213.15
364.29	213.22
364.67	212.92
365.05	212.89
365.43	212.91
365.81	212.97
366.19	213.10
366.57	213.19
366.95	213.20
367.33	213.02
367.71	212.90
368.09	212.91
368.47	212.89
368.85	212.85
369.23	212.90
369.61	212.78
369.99	212.85
370.37	212.93
370.75	213.00
371.13	212.93
371.51	212.89
371.89	212.90
372.27	212.89
372.65	212.94
373.03	212.95
373.41	212.82
373.78	212.75
374.16	212.55
374.54	212.43
374.92	212.33
375.30	212.32
375.68	212.25
376.06	212.23
376.44	212.11
376.82	212.05
377.19	211.97
377.57	211.95
377.95	211.75
378.33	211.61
378.71	211.38
379.09	211.39
379.47	211.43
379.84	211.39
380.22	211.33
380.60	211.15
380.98	211.06
381.36	211.05
381.73	210.96
382.11	211.08
382.49	211.01
382.87	210.97
383.25	210.91
383.62	211.22
384.00	211.09
384.38	211.06
384.76	211.13
385.13	211.25
385.51	211.18
385.89	211.11
386.27	211.09
386.64	211.10
387.02	210.96
387.40	210.88
387.78	210.83
388.15	210.75
388.53	210.73
388.91	210.69
389.29	210.69
389.66	210.70
390.04	210.59
390.42	210.66
390.79	210.69
391.17	210.72
391.55	210.38
391.92	210.40
392.30	210.48
392.68	210.43
393.05	210.43
393.43	210.50
393.81	210.60
394.18	210.56
394.56	210.52
394.94	210.62
395.31	210.60
395.69	210.71
396.06	210.80
396.44	210.88
396.82	210.85
397.19	211.02
397.57	210.99
397.95	211.03
398.32	210.98
398.70	210.95
399.07	210.96
399.45	210.96
399.82	211.02
400.20	210.96
400.58	210.99
400.95	210.83
401.33	210.96
401.70	211.19
402.08	211.26
402.45	211.35
402.83	211.54
403.20	211.66
403.58	211.68
403.95	211.76
404.33	211.89
404.71	212.01
405.08	212.33
405.46	212.41
405.83	212.49
406.21	212.64
406.58	212.89
406.96	213.12
407.33	213.34
407.70	213.56
408.08	214.04
408.45	214.29
408.83	214.60
409.20	214.78
409.58	214.88
409.95	215.27
410.33	215.64
410.70	215.88
411.08	216.28
411.45	216.65
411.82	217.08
412.20	217.69
412.57	218.47
412.95	218.69
413.32	219.44
413.69	220.09
414.07	220.73
414.44	221.40
414.82	222.10
415.19	223.01
415.56	223.86
415.94	224.65
416.31	225.72
416.68	226.85
417.06	228.05
417.43	229.27
417.81	230.60
418.18	232.00
418.55	233.46
418.93	234.98
419.30	236.68
419.67	238.41
420.04	240.05
420.42	241.77
420.79	244.15
421.16	246.23
421.54	248.65
421.91	251.05
422.28	253.57
422.66	256.26
423.03	258.95
423.40	261.59
423.77	264.44
424.15	267.27
424.52	270.34
424.89	273.71
425.26	276.85
425.64	279.91
426.01	283.20
426.38	286.70
426.75	290.38
427.13	294.03
427.50	297.93
427.87	302.03
428.24	306.15
428.61	309.93
428.99	314.28
429.36	318.81
429.73	323.44
430.10	327.95
430.47	332.62
430.85	337.33
431.22	342.55
431.59	348.18
431.96	353.59
432.33	359.36
432.70	364.95
433.08	371.57
433.45	377.77
433.82	384.10
434.19	391.11
434.56	398.05
434.93	404.66
435.30	411.32
435.68	418.65
436.05	425.94
436.42	433.20
436.79	439.91
437.16	447.01
437.53	454.49
437.90	462.19
438.27	469.67
438.64	477.49
439.01	484.88
439.38	491.28
439.75	497.67
440.13	504.88
440.50	511.74
440.87	517.52
441.24	523.50
441.61	530.01
441.98	535.01
442.35	540.56
442.72	546.24
443.09	551.83
443.46	555.43
443.83	557.98
444.20	560.38
444.57	563.63
444.94	565.62
445.31	567.51
445.68	569.62
446.05	570.77
446.42	570.79
446.79	570.42
447.16	569.94
447.53	569.71
447.90	567.59
448.27	565.33
448.64	561.92
449.01	559.61
449.37	555.17
449.74	550.80
450.11	545.76
450.48	539.96
450.85	533.85
451.22	528.74
451.59	524.00
451.96	519.20
452.33	512.74
452.70	506.82
453.07	499.79
453.43	492.25
453.80	485.35
454.17	478.61
454.54	472.33
454.91	465.63
455.28	459.07
455.65	452.80
456.02	446.95
456.38	441.73
456.75	435.20
457.12	429.76
457.49	424.35
457.86	418.95
458.23	414.74
458.59	409.92
458.96	404.93
459.33	400.31
459.70	395.88
460.07	392.37
460.43	388.41
460.80	384.72
461.17	381.46
461.54	377.95
461.91	374.68
462.27	371.29
462.64	368.44
463.01	365.31
463.38	362.35
463.74	359.01
464.11	356.26
464.48	353.83
464.85	351.18
465.21	349.30
465.58	347.18
465.95	344.38
466.32	342.20
466.68	340.06
467.05	337.94
467.42	335.81
467.78	333.49
468.15	331.33
468.52	329.75
468.88	327.62
469.25	325.75
469.62	324.20
469.98	322.52
470.35	320.99
470.72	319.45
471.08	317.82
471.45	316.52
471.82	315.20
472.18	313.75
472.55	312.75
472.92	311.35
473.28	310.01
473.65	308.92
474.02	307.88
474.38	307.03
474.75	306.21
475.11	305.38
475.48	304.74
475.85	304.05
476.21	303.43
476.58	302.84
476.94	302.47
477.31	301.99
477.67	301.55
478.04	301.21
478.41	300.88
478.77	300.89
479.14	300.48
479.50	300.29
479.87	300.21
480.23	300.04
480.60	299.83
480.96	299.79
481.33	300.03
481.69	299.98
482.06	299.96
482.42	299.98
482.79	299.95
483.15	300.02
483.52	300.38
483.88	300.52
484.25	300.80
484.61	300.95
484.98	301.14
485.34	301.59
485.71	301.93
486.07	302.37
486.44	302.51
486.80	303.04
487.17	303.57
487.53	304.23
487.90	304.82
488.26	305.69
488.62	306.55
488.99	307.12
489.35	307.94
489.72	308.95
490.08	309.89
490.44	310.94
490.81	312.10
491.17	313.01
491.54	314.09
491.90	315.18
492.26	316.46
492.63	317.73
492.99	318.98
493.36	320.32
493.72	321.71
494.08	323.12
494.45	324.61
494.81	326.11
495.17	327.69
495.54	329.37
495.90	330.91
496.26	332.46
496.63	334.12
496.99	335.85
497.35	337.38
497.72	339.16
498.08	340.82
498.44	342.39
498.80	344.31
499.17	346.07
499.53	347.87
499.89	349.68
500.26	351.38
500.62	352.96
500.98	354.76
501.34	356.48
501.71	358.28
502.07	359.96
502.43	361.51
502.79	362.94
503.16	364.40
503.52	365.86
503.88	367.26
504.24	368.73
504.60	370.13
504.97	371.73
505.33	373.02
505.69	374.62
506.05	376.04
506.41	377.15
506.78	378.25
507.14	379.36
507.50	380.39
507.86	381.45
508.22	382.52
508.59	383.27
508.95	384.14
509.31	385.01
509.67	385.72
510.03	386.53
510.39	387.33
510.75	388.04
511.12	388.64
511.48	389.32
511.84	389.85
512.20	390.29
512.56	390.63
512.92	391.04
513.28	391.19
513.64	391.51
514.00	391.80
514.37	392.03
514.73	392.21
515.09	392.30
515.45	392.41
515.81	392.45
516.17	392.50
516.53	392.43
516.89	392.25
517.25	392.23
517.61	392.20
517.97	392.04
518.33	391.77
518.69	391.65
519.05	391.44
519.41	391.26
519.77	391.20
520.13	390.90
520.49	390.64
520.85	390.46
521.21	390.34
521.57	390.12
521.93	389.90
522.29	389.74
522.65	389.54
523.01	389.51
523.37	389.41
523.73	389.40
524.09	389.46
524.45	389.55
524.81	389.52
525.17	389.65
525.53	389.84
525.89	390.06
526.25	390.30
526.61	390.41
526.97	390.58
527.33	390.90
527.68	391.63
528.04	392.10
528.40	392.53
528.76	392.89
529.12	393.60
529.48	394.39
529.84	395.06
530.20	395.95
530.56	396.69
530.91	397.62
531.27	398.65
531.63	399.62
531.99	400.62
532.35	401.67
532.71	402.64
533.07	403.83
533.42	405.41
533.78	406.60
534.14	408.05
534.50	409.39
534.86	410.90
535.21	412.01
535.57	413.61
535.93	415.05
536.29	416.77
536.65	418.27
537.00	419.85
537.36	421.53
537.72	423.21
538.08	425.03
538.44	426.80
538.79	428.58
539.15	430.41
539.51	432.38
539.87	434.48
540.22	436.67
540.58	438.89
540.94	440.92
541.29	443.24
541.65	445.34
542.01	447.81
542.37	449.98
542.72	452.30
543.08	454.68
543.44	457.33
543.79	459.60
544.15	462.20
544.51	464.94
544.87	467.75
545.22	470.40
545.58	472.99
545.94	475.61
546.29	478.05
546.65	480.70
547.01	483.39
547.36	486.18
547.72	488.91
548.07	491.54
548.43	494.10
548.79	496.68
549.14	499.46
549.50	502.08
549.86	504.78
550.21	507.65
550.57	510.38
550.92	512.91
551.28	515.72
551.64	518.33
551.99	520.93
552.35	523.47
552.70	526.02
553.06	528.69
553.41	531.47
553.77	534.43
554.13	537.21
554.48	539.83
554.84	542.46
555.19	545.11
555.55	547.79
555.90	550.26
556.26	552.68
556.61	555.12
556.97	557.51
557.32	560.13
557.68	562.44
558.03	564.79
558.39	567.21
558.74	569.66
559.10	572.11
559.45	574.41
559.81	576.98
560.16	579.30
560.52	581.55
560.87	583.90
561.23	586.04
561.58	588.47
561.94	590.69
562.29	592.66
562.64	594.85
563.00	596.98
563.35	599.23
563.71	601.66
564.06	603.90
564.42	606.18
564.77	608.18
565.12	610.40
565.48	612.75
565.83	614.90
566.19	616.81
566.54	618.75
566.89	620.80
567.25	622.62
567.60	624.62
567.96	626.85
568.31	628.70
568.66	630.54
569.02	631.87
569.37	633.25
569.72	634.98
570.08	636.32
570.43	637.64
570.78	638.95
571.14	639.97
571.49	641.15
571.84	642.16
572.20	643.16
572.55	644.15
572.90	644.77
573.26	645.40
573.61	646.03
573.96	646.74
574.31	647.11
574.67	647.48
575.02	647.87
575.37	647.95
575.72	648.01
576.08	648.27
576.43	648.51
576.78	648.97
577.13	649.27
577.49	649.60
577.84	649.71
578.19	650.03
578.54	650.50
578.90	650.85
579.25	651.15
579.60	651.20
579.95	651.07
580.30	651.12
580.66	651.41
581.01	651.58
581.36	651.50
581.71	651.49
582.06	651.77
582.42	651.81
582.77	651.84
583.12	651.80
583.47	651.90
583.82	652.11
584.17	652.04
584.53	652.06
584.88	652.02
585.23	651.92
585.58	651.61
585.93	651.32
586.28	651.19
586.63	650.97
586.98	650.93
587.34	651.08
587.69	650.93
588.04	650.70
588.39	650.48
588.74	650.05
589.09	650.03
589.44	649.26
589.79	649.06
590.14	648.67
590.49	648.15
590.84	647.47
591.19	646.96
591.54	646.39
591.89	645.33
592.25	644.78
592.60	644.15
592.95	643.34
593.30	642.30
593.65	641.25
594.00	640.31
594.35	640.38
594.70	639.35
595.05	638.41
595.40	637.49
595.75	636.48
596.10	635.80
596.45	634.77
596.80	634.11
597.15	633.10
597.50	632.15
597.85	631.43
598.19	630.52
598.54	629.70
598.89	628.83
599.24	628.44
599.59	627.41
599.94	626.62
600.29	625.87
600.64	625.18
600.99	624.21
601.34	623.35
601.69	621.33
602.04	620.15
602.39	619.17
602.74	618.23
603.08	617.44
603.43	616.62
603.78	615.65
604.13	614.56
604.48	613.49
604.83	612.83
605.18	611.99
605.53	611.05
605.87	609.86
606.22	608.75
606.57	607.59
606.92	606.42
607.27	605.26
607.62	604.31
607.96	603.39
608.31	602.50
608.66	601.41
609.01	600.19
609.36	599.21
609.70	597.95
610.05	596.56
610.40	595.20
610.75	593.81
611.10	592.72
611.44	591.31
611.79	589.93
612.14	588.08
612.49	586.33
612.83	584.88
613.18	583.29
613.53	581.72
613.88	579.94
614.22	578.30
614.57	576.70
614.92	575.03
615.27	573.14
615.61	571.52
615.96	569.87
616.31	568.46
616.65	567.01
617.00	565.40
617.35	563.88
617.70	562.11
618.04	560.13
618.39	558.13
618.74	556.40
619.08	554.67
619.43	553.09
619.78	551.46
620.12	549.77
620.47	548.29
620.82	546.52
621.16	544.71
621.51	543.31
621.85	541.57
622.20	539.72
622.55	537.99
622.89	536.11
623.24	534.46
623.59	532.61
623.93	530.74
624.28	529.15
624.62	527.68
624.97	526.25
625.32	524.73
625.66	523.28
626.01	521.61
626.35	519.90
626.70	518.17
627.04	516.77
627.39	515.08
627.73	513.46
628.08	512.04
628.43	510.52
628.77	508.58
629.12	506.84
629.46	505.30
629.81	503.84
630.15	502.20
630.50	500.45
630.84	498.80
631.19	497.13
631.53	495.49
631.88	493.40
632.22	491.59
632.57	490.05
632.91	488.22
633.26	486.66
633.60	484.98
633.95	483.45
634.29	481.61
634.64	480.21
634.98	478.22
635.32	476.50
635.67	475.05
636.01	473.61
636.36	471.95
636.70	470.49
637.05	468.89
637.39	467.45
637.73	466.06
638.08	464.76
638.42	463.33
638.77	461.93
639.11	460.54
639.45	458.99
639.80	457.24
640.14	455.69
640.49	454.10
640.83	452.66
641.17	451.05
641.52	449.49
641.86	447.66
642.20	446.29
642.55	444.68
642.89	443.04
643.23	441.35
643.58	440.17
643.92	438.49
644.26	436.87
644.61	435.25
644.95	433.57
645.29	431.86
645.64	430.20
645.98	428.49
646.32	426.98
646.66	425.16
647.01	423.66
647.35	422.15
647.69	420.59
648.04	419.06
648.38	417.57
648.72	415.99
649.06	414.53
649.41	412.95
649.75	411.43
650.09	409.88
650.43	408.26
650.78	406.51
651.12	404.91
651.46	403.45
651.80	402.06
652.14	400.63
652.49	399.33
652.83	397.94
653.17	396.33
653.51	394.72
653.85	393.44
654.20	392.06
654.54	390.46
654.88	388.96
655.22	387.49
655.56	385.86
655.90	384.33
656.25	382.77
656.59	381.31
656.93	379.94
657.27	378.57
657.61	377.09
657.95	375.67
658.29	374.16
658.64	372.72
658.98	371.08
659.32	369.62
659.66	367.96
660.00	366.39
660.34	365.01
660.68	363.60
661.02	362.18
661.36	360.76
661.70	359.45
662.05	358.10
662.39	356.84
662.73	355.66
663.07	354.63
663.41	353.38
663.75	352.05
664.09	350.78
664.43	349.35
664.77	348.11
665.11	346.79
665.45	345.64
665.79	344.47
666.13	343.35
666.47	342.10
666.81	340.96
667.15	339.82
667.49	338.81
667.83	337.88
668.17	336.72
668.51	335.72
668.85	334.75
669.19	333.97
669.53	332.69
669.87	331.52
670.21	330.29
670.55	329.21
670.89	328.47
671.23	327.39
671.57	326.45
671.91	325.57
672.25	324.60
672.58	323.70
672.92	322.60
673.26	321.65
673.60	320.69
673.94	319.78
674.28	318.89
674.62	317.90
674.96	317.01
675.30	316.18
675.64	315.24
675.97	314.23
676.31	313.19
676.65	312.46
676.99	311.75
677.33	310.71
677.67	309.90
678.01	308.75
678.34	307.88
678.68	307.03
679.02	306.08
679.36	305.23
679.70	304.38
680.04	303.55
680.37	302.69
680.71	301.90
681.05	301.04
681.39	300.18
681.73	299.33
682.06	298.38
682.40	297.57
682.74	296.79
683.08	296.14
683.42	295.29
683.75	294.49
684.09	293.67
684.43	293.05
684.77	292.15
685.10	291.37
685.44	290.57
685.78	289.74
686.12	289.07
686.45	288.32
686.79	287.47
687.13	286.77
687.46	286.05
687.80	285.37
688.14	284.63
688.48	283.96
688.81	283.20
689.15	282.53
689.49	281.79
689.82	281.08
690.16	280.24
690.50	279.53
690.83	278.73
691.17	277.96
691.51	277.25
691.84	276.70
692.18	276.11
692.52	275.51
692.85	274.98
693.19	274.43
693.52	273.74
693.86	273.16
694.20	272.54
694.53	271.90
694.87	271.20
695.21	270.61
695.54	269.93
695.88	269.27
696.21	268.54
696.55	268.00
696.88	267.36
697.22	266.68
697.56	266.15
697.89	265.59
698.23	264.97
698.56	264.36
698.90	263.85
699.23	263.22
699.57	262.65
699.90	262.01
700.24	261.37
700.58	260.92
700.91	260.43
701.25	260.21
701.58	259.76
701.92	259.35
702.25	258.82
702.59	258.30
702.92	257.86
703.26	257.45
703.59	256.95
703.93	256.75
704.26	256.39
704.60	255.86
704.93	255.44
705.26	255.04
705.60	254.75
705.93	254.20
706.27	253.95
706.60	253.65
706.94	253.37
707.27	252.89
707.61	252.42
707.94	251.99
708.27	251.24
708.61	250.75
708.94	250.28
709.28	249.92
709.61	249.52
709.94	249.13
710.28	248.67
710.61	248.30
710.95	247.60
711.28	247.50
711.61	247.11
711.95	246.91
712.28	246.50
712.61	246.03
712.95	245.84
713.28	245.54
713.61	245.11
713.95	244.65
714.28	244.34
714.61	243.98
714.95	243.62
715.28	243.24
715.61	242.83
715.95	242.51
716.28	242.07
716.61	241.84
716.95	241.55
717.28	241.32
717.61	240.98
717.94	240.69
718.28	240.04
718.61	239.77
718.94	239.35
719.27	239.01
719.61	238.76
719.94	238.36
720.27	237.86
720.60	237.59
720.94	237.38
721.27	237.16
721.60	236.91
721.93	236.68
722.27	236.54
722.60	236.46
722.93	236.19
723.26	236.03
723.59	235.67
723.93	235.43
724.26	235.21
724.59	234.97
724.92	234.77
725.25	234.72
725.59	234.49
725.92	234.23
726.25	233.99
726.58	233.81
726.91	233.70
727.24	233.60
727.57	233.29
727.91	233.00
728.24	232.81
728.57	232.56
728.90	232.37
729.23	232.17
729.56	232.07
729.89	231.89
730.22	231.60
730.55	231.42
730.89	231.20
731.22	230.93
731.55	230.76
731.88	230.58
732.21	230.34
732.54	230.11
732.87	230.00
733.20	229.88
733.53	229.67
733.86	229.39
734.19	229.19
734.52	229.10
734.85	229.15
735.18	228.93
735.51	228.99
735.84	228.81
736.17	228.65
736.50	228.27
736.83	228.50
737.16	228.42
737.49	228.28
737.82	228.11
738.15	228.02
738.48	227.84
738.81	227.64
739.14	227.35
739.47	227.13
739.80	226.96
740.13	226.88
740.46	226.66
740.79	226.50
741.12	226.32
741.45	226.00
741.78	225.70
742.11	225.59
742.44	225.28
742.77	225.17
743.10	225.00
743.43	224.86
743.75	224.35
744.08	224.61
744.41	224.42
744.74	224.29
745.07	224.03
745.40	223.94
745.73	223.94
746.06	223.84
746.39	223.80
746.71	223.61
747.04	223.36
747.37	223.27
747.70	223.19
748.03	223.04
748.36	223.05
748.68	222.94
749.01	222.70
749.34	222.56
749.67	222.45
750.00	222.35
750.33	222.53
750.65	222.40
750.98	221.86
751.31	221.79
751.64	221.71
751.97	221.85
752.29	221.71
752.62	221.48
752.95	221.44
753.28	221.30
753.60	221.17
753.93	221.16
754.26	221.05
754.59	220.87
754.91	220.75
755.24	220.66
755.57	220.53
755.90	220.47
756.22	220.41
756.55	220.19
756.88	219.99
757.20	219.65
757.53	219.48
757.86	219.32
758.19	219.26
758.51	219.10
758.84	218.81
759.17	218.75
759.49	218.66
759.82	218.68
760.15	218.63
760.47	218.57
760.80	218.39
761.13	218.40
761.45	218.28
761.78	218.18
762.11	218.02
762.43	217.93
762.76	217.87
763.08	217.83
763.41	217.81
763.74	217.78
764.06	217.70
764.39	217.60
764.71	217.54
765.04	217.36
765.37	217.29
765.69	217.24
766.02	217.14
766.34	217.08
766.67	216.85
767.00	216.87
767.32	216.94
767.65	217.06
767.97	216.95
768.30	216.94
768.62	216.93
768.95	216.86
769.27	216.85
769.60	216.77
769.92	216.66
770.25	216.55
770.57	216.43
770.90	216.39
771.22	216.33
771.55	216.32
771.87	216.37
772.20	216.36
772.52	216.63
772.85	216.98
773.17	216.93
773.50	216.92
773.82	216.80
774.15	216.64
774.47	216.42
774.80	216.32
775.12	216.28
775.45	216.17
775.77	216.23
776.09	216.19
776.42	216.25
776.74	216.30
777.07	216.28
777.39	216.26
777.72	216.12
778.04	216.15
778.36	216.06
778.69	215.99
779.01	215.94
779.33	215.51
779.66	215.09
779.98	215.01
780.31	214.90
780.63	214.99
780.95	214.99
781.28	214.99
781.60	214.95
781.92	214.77
782.25	214.78
782.57	214.69
782.89	214.63
783.22	214.48
783.54	214.37
783.86	214.36
784.19	214.31
784.51	214.41
784.83	214.35
785.16	214.31
785.48	214.34
785.80	214.31
786.12	214.41
786.45	214.39
786.77	214.38
787.09	214.44
787.42	214.37
787.74	214.37
788.06	214.35
788.38	214.26
788.71	214.33
789.03	214.34
789.35	214.46
789.67	214.45
789.99	214.46
790.32	214.37
790.64	214.45
790.96	214.76
791.28	214.68
791.61	214.65
791.93	214.64
792.25	214.54
792.57	214.75
792.89	214.66
793.21	214.63
793.54	214.60
793.86	214.53
794.18	214.49
794.50	214.43
794.82	214.43
795.14	214.59
795.47	214.69
795.79	214.64
796.11	214.42
796.43	214.32
796.75	214.27
797.07	214.31
797.39	214.24
797.71	213.98
798.04	213.95
798.36	213.92
798.68	213.96
799.00	213.94
799.32	213.76
799.64	213.75
799.96	213.70
800.28	213.78
800.60	213.76
800.92	213.75
801.24	213.65
801.56	213.64
801.89	213.54
802.21	213.50
802.53	213.46
802.85	213.55
803.17	213.70
803.49	213.64
803.81	213.65
804.13	213.61
804.45	213.52
804.77	213.51
805.09	213.51
805.41	213.42
805.73	213.40
806.05	213.30
806.37	213.33
806.69	213.33
807.01	213.23
807.33	213.19
807.65	213.05
807.97	213.19
808.28	213.14
808.60	213.08
808.92	212.98
809.24	213.14
809.56	213.04
809.88	212.92
810.20	212.93
810.52	212.95
810.84	212.85
811.16	212.80
811.48	212.76
811.80	212.85
812.12	212.82
812.43	212.85
812.75	212.90
813.07	212.82
813.39	212.87
813.71	212.75
814.03	212.73
814.35	212.72
814.67	212.59
814.98	212.60
815.30	212.61
815.62	212.59
815.94	212.39
816.26	212.44
816.58	212.34
816.89	212.34
817.21	212.23
817.53	212.25
817.85	212.26
818.17	212.23
818.48	212.09
818.80	212.15
819.12	212.05
819.44	211.96
819.76	211.92
820.07	211.88
820.39	211.93
820.71	211.94
821.03	211.96
821.34	211.89
821.66	211.83
821.98	211.84
822.30	211.80
822.61	212.00
822.93	211.92
823.25	211.93
823.57	211.96
823.88	212.06
824.20	212.09
824.52	212.14
824.83	212.19
825.15	212.14
825.47	212.15
825.79	212.20
826.10	212.25
826.42	212.20
826.74	212.20
827.05	212.18
827.37	212.18
827.69	212.15
828.00	212.18
828.32	212.18
828.64	212.07
828.95	212.26
829.27	212.12
829.58	212.15
829.90	212.25
830.22	212.25
830.53	212.12
830.85	212.01
831.17	211.94
831.48	211.87
831.80	211.90
832.11	211.90
832.43	211.88
832.75	211.83
833.06	212.13
833.38	212.05
833.69	212.04
834.01	212.07
834.32	212.03
834.64	212.01
834.96	212.05
835.27	212.04
835.59	211.93
835.90	211.88
836.22	211.81
836.53	211.67
836.85	211.58
837.16	211.95
837.48	211.96
837.79	212.01
838.11	212.09
838.42	212.10
838.74	212.13
839.05	212.08
839.37	212.07
839.68	211.80
840.00	211.80
840.31	211.87
840.63	211.86
840.94	211.85
841.26	211.80
841.57	211.73
841.88	211.82
842.20	211.75
842.51	211.70
842.83	211.76
843.14	212.06
843.46	212.12
843.77	211.91
844.08	211.92
844.40	211.85
844.71	211.76
845.03	211.72
845.34	211.66
845.65	211.65
845.97	211.60
846.28	211.56
846.60	211.55
846.91	211.48
847.22	211.42
847.54	211.53
847.85	211.62
848.16	211.61
848.48	211.56
848.79	211.62
849.10	211.65
849.42	211.68
849.73	211.36
850.04	211.30
850.36	211.13
850.67	211.21
850.98	211.21
851.30	211.23
851.61	211.24
851.92	211.27
852.23	211.37
852.55	211.39
852.86	211.41
853.17	211.44
853.49	211.49
853.80	211.60
854.11	211.60
854.42	211.65
854.74	211.59
855.05	211.60
855.36	211.50
855.67	211.49
855.99	211.50
856.30	211.96
856.61	211.95
856.92	212.02
857.23	211.95
857.55	211.94
857.86	211.91
858.17	211.95
858.48	211.81
858.79	211.76
859.11	211.77
859.42	211.77
859.73	211.72
860.04	211.78
860.35	211.66
860.66	211.55
860.98	211.47
861.29	211.50
861.60	211.48
861.91	211.54
862.22	211.52
862.53	211.34
862.84	210.93
863.16	210.95
863.47	210.91
863.78	210.94
864.09	210.89
864.40	210.92
864.71	210.89
865.02	210.98
865.33	210.94
865.64	210.93
865.95	210.88
866.27	211.10
866.58	210.99
866.89	211.06
867.20	211.10
867.51	211.07
867.82	211.10
868.13	211.22
868.44	211.13
868.75	211.17
869.06	211.30
869.37	211.27
869.68	211.24
869.99	211.28
870.30	211.25
870.61	211.34
870.92	211.28
871.23	211.23
871.54	211.31
871.85	211.37
872.16	211.42
872.47	211.38
872.78	211.21
873.09	211.26
873.40	211.18
873.71	211.15
874.02	211.16
874.33	211.18
874.64	211.05
874.95	211.17
875.26	211.14
875.56	211.10
875.87	211.12
876.18	211.02
876.49	211.31
876.80	211.22
877.11	211.11
877.42	211.11
877.73	211.14
878.04	211.07
878.35	211.06
878.66	210.99
878.96	211.06
879.27	211.04
879.58	211.01
879.89	210.99
880.20	211.10
880.51	211.05
880.82	210.97
881.12	211.06
881.43	210.92
881.74	210.86
882.05	210.87
882.36	210.89
882.67	211.00
882.97	210.65
883.28	210.67
883.59	210.74
883.90	210.83
884.21	210.88
884.51	210.83
884.82	210.86
885.13	210.85
885.44	210.77
885.74	210.78
886.05	210.75
886.36	210.72
886.67	210.60
886.98	210.82
887.28	210.85
887.59	210.84
887.90	210.85
888.20	210.78
888.51	210.79
888.82	210.74
889.13	210.73
889.43	211.04
889.74	211.04
890.05	210.96
890.35	210.91
890.66	210.85
890.97	210.86
891.28	210.82
891.58	210.85
891.89	210.90
892.20	210.87
892.50	210.84
892.81	210.90
893.12	210.84
893.42	210.56
893.73	210.57
894.04	210.51
894.34	210.54
894.65	210.56
894.95	210.56
895.26	210.57
895.57	210.69
895.87	210.34
896.18	210.41
896.48	210.53
896.79	210.54
897.10	210.52
897.40	210.50
897.71	210.49
898.01	210.46
898.32	210.51
898.63	210.48
898.93	210.51
899.24	210.47
899.54	210.50
899.85	210.53
900.15	210.50
900.46	210.55
900.76	210.61
901.07	210.58
901.38	210.51
901.68	210.54
901.99	210.40
902.29	210.44
902.60	210.39
902.90	210.30
903.21	210.28
903.51	210.30
903.82	210.35
904.12	210.33
904.43	210.43
904.73	210.37
905.03	210.40
905.34	210.70
905.64	210.71
905.95	210.73
906.25	210.76
906.56	210.81
906.86	210.81
907.17	210.75
907.47	210.82
907.77	210.85
908.08	210.82
908.38	210.84
908.69	210.85
908.99	210.91
909.30	210.99
909.60	210.97
909.90	211.00
910.21	210.94
910.51	210.85
910.81	210.81
911.12	210.90
911.42	210.90
911.73	210.60
912.03	210.62
912.33	210.70
912.64	210.70
912.94	210.71
913.24	210.61
913.55	210.56
913.85	210.54
914.15	210.61
914.46	210.67
914.76	210.66
915.06	210.65
915.37	210.61
915.67	210.54
915.97	210.55
916.27	210.48
916.58	210.52
916.88	210.60
917.18	210.56
917.49	210.76
917.79	210.71
918.09	210.71
918.39	210.77
918.70	210.74
919.00	210.77
919.30	210.93
919.60	210.93
919.91	210.96
920.21	211.03
920.51	210.89
920.81	210.80
921.12	210.85
921.42	210.87
921.72	210.89
922.02	210.93
922.32	211.02
922.63	211.01
922.93	211.11
923.23	211.12
923.53	211.09
923.83	210.93
924.13	210.95
924.44	211.02
924.74	211.11
925.04	211.17
925.34	211.07
925.64	210.94
925.94	210.96
926.24	211.17
926.55	211.11
926.85	211.23
927.15	211.30
927.45	211.30
927.75	211.26
928.05	211.26
928.35	211.25
928.65	211.32
928.95	211.43
929.26	211.29
929.56	211.38
929.86	211.43
930.16	211.32
930.46	211.29
930.76	211.24
931.06	211.12
931.36	211.03
931.66	211.20
931.96	211.14
932.26	211.19
932.56	211.02
932.86	211.01
933.16	211.01
933.46	210.95
933.76	210.89
934.06	211.00
934.36	211.11
934.66	211.11
934.96	210.97
935.26	210.99
935.56	211.05
935.86	210.92
936.16	210.91
936.46	210.89
936.76	210.95
937.06	210.88
937.36	210.89
937.66	210.89
937.96	210.92
938.26	210.88
938.56	210.80
938.86	210.85
939.16	210.94
939.46	210.96
939.76	211.00
940.06	211.01
940.35	210.84
940.65	210.66
940.95	210.75
941.25	210.73
941.55	210.69
941.85	210.63
942.15	210.71
942.45	210.80
942.75	210.92
943.04	210.93
943.34	211.05
943.64	210.97
943.94	210.89
944.24	210.83
944.54	210.93
944.84	210.95
945.13	210.89
945.43	210.89
945.73	210.84
946.03	210.81
946.33	210.80
946.62	210.79
946.92	210.80
947.22	210.74
947.52	210.72
947.82	210.72
948.11	210.73
948.41	210.71
948.71	210.59
949.01	210.52
949.31	210.49
949.60	210.41
949.90	210.49
950.20	210.50
950.50	210.46
950.79	210.39
951.09	210.44
951.39	210.45
951.69	210.36
951.98	210.42
952.28	210.43
952.58	210.44
952.87	210.47
953.17	210.49
953.47	210.45
953.76	210.51
954.06	210.43
954.36	210.43
954.66	210.44
954.95	210.64
955.25	210.76
955.55	210.78
955.84	210.85
956.14	210.86
956.44	210.89
956.73	210.88
957.03	210.91
957.32	210.90
957.62	210.87
957.92	210.97
958.21	210.96
958.51	211.41
958.81	211.48
959.10	211.54
959.40	211.70
959.69	211.79
959.99	211.83
960.29	211.90
960.58	211.90
960.88	211.97
961.17	211.88
961.47	211.86
961.76	211.80
962.06	211.78
962.36	211.77
962.65	211.83
962.95	211.87
963.24	211.90
963.54	211.92
963.83	211.98
964.13	212.00
964.42	211.95
964.72	211.61
965.01	211.52
965.31	211.50
965.60	211.34
965.90	211.48
966.19	211.37
966.49	211.30
966.78	211.24
967.08	211.32
967.37	211.29
967.67	211.17
967.96	211.25
968.26	211.28
968.55	211.40
968.85	211.38
969.14	211.38
969.43	211.33
969.73	211.28
970.02	211.26
970.32	211.18
970.61	211.12
970.91	211.01
971.20	210.94
971.49	210.89
971.79	210.98
972.08	210.76
972.38	210.74
972.67	210.82
972.96	210.92
973.26	210.76
973.55	210.84
973.85	210.83
974.14	210.80
974.43	210.81
974.73	210.63
975.02	210.55
975.31	210.49
975.61	210.52
975.90	210.59
976.19	210.56
976.49	210.62
976.78	210.69
977.07	210.72
977.37	210.75
977.66	210.85
977.95	210.74
978.24	210.79
978.54	210.89
978.83	210.78
979.12	210.74
979.42	210.77
979.71	210.70
980.00	210.70
980.29	210.75
980.59	210.65
980.88	210.83
981.17	210.84
981.46	210.89
981.76	210.80
982.05	210.85
982.34	210.83
982.63	210.88
982.93	210.89
983.22	210.99
983.51	211.09
983.80	211.15
984.09	211.30
984.39	211.28
984.68	211.25
984.97	211.32
985.26	211.30
985.55	211.29
985.85	211.28
986.14	211.40
986.43	211.48
986.72	211.55
987.01	211.41
987.30	211.45
987.59	211.43
987.89	211.53
988.18	211.45
988.47	211.42
988.76	211.34
989.05	211.25
989.34	211.24
989.63	211.27
989.92	211.27
990.22	211.11
990.51	211.13
990.80	211.12
991.09	211.16
991.38	211.23
991.67	211.25
991.96	211.14
992.25	211.14
992.54	211.08
992.83	211.02
993.12	211.02
993.41	211.05
993.70	211.23
993.99	211.25
994.28	211.27
994.58	211.37
994.87	211.36
995.16	211.40
995.45	211.30
995.74	211.22
996.03	211.22
996.32	211.37
996.61	211.43
996.90	211.45
997.19	211.47
997.48	211.37
997.77	211.36
998.06	211.46
998.34	211.40
998.63	211.36
998.92	211.40
999.21	211.43
999.50	211.39
999.79	211.24
1000.08	211.24
1000.37	211.24
1000.66	211.15
1000.95	211.18
1001.24	211.20
1001.53	211.25
1001.82	211.20
1002.11	211.06
1002.40	210.98
1002.68	211.06
1002.97	211.27
1003.26	211.17
1003.55	211.21
1003.84	211.20
1004.13	211.26
1004.42	211.28
1004.71	211.29
1004.99	211.31
1005.28	211.40
1005.57	211.40
1005.86	211.32
1006.15	211.30
1006.44	211.20
1006.72	211.25
1007.01	211.25
1007.30	211.26
1007.59	211.33
1007.88	211.32
1008.17	211.35
1008.45	211.41
1008.74	211.25
1009.03	211.04
1009.32	211.10
1009.60	211.08
1009.89	211.06
1010.18	210.96
1010.47	210.93
1010.76	210.90
1011.04	210.84
1011.33	210.82
1011.62	210.91
1011.91	210.97
1012.19	211.02
1012.48	211.04
1012.77	211.07
1013.05	211.16
1013.34	211.20
1013.63	211.13
1013.92	211.20
1014.20	211.21
1014.49	211.19
1014.78	211.19
1015.06	211.10
1015.35	211.04
1015.64	211.05
1015.92	211.08
1016.21	211.06
1016.50	211.06
1016.78	211.11
1017.07	211.15
1017.36	211.15
1017.64	211.04
1017.93	211.10
1018.22	210.98
1018.50	211.02
1018.79	211.00
1019.08	210.87
1019.36	210.87
1019.65	210.90
1019.93	210.99
1020.22	211.03
1020.51	211.19
1020.79	211.12
1021.08	209.50
1021.36	210.45
1021.65	211.30
1021.94	210.75
1022.22	211.65
1022.51	211.75
1022.79	212.85
1023.08	211.35
1023.36	215.00
1023.65	209.40
>>>>>End Processed Spectral Data<<<<<
