SpectraSuite Data File
++++++++++++++++++++++++++++++++++++
Date: Mon Feb 25 17:13:50 EST 2013
User: group
Dark Spectrum Present: No
Reference Spectrum Present: No
Number of Sampled Component Spectra: 1
Spectrometers: USB2E7196
Integration Time (usec): 104000 (USB2E7196)
Spectra Averaged: 20 (USB2E7196)
Boxcar Smoothing: 10 (USB2E7196)
Correct for Electrical Dark: No (USB2E7196)
Strobe/Lamp Enabled: No (USB2E7196)
Correct for Detector Non-linearity: No (USB2E7196)
Correct for Stray Light: No (USB2E7196)
Number of Pixels in Processed Spectrum: 2048
>>>>>Begin Processed Spectral Data<<<<<
339.09	0.00
339.48	198.95
339.86	199.60
340.24	201.90
340.63	203.15
341.01	208.85
341.39	204.50
341.78	207.15
342.16	209.00
342.54	208.75
342.93	198.19
343.31	208.17
343.69	208.70
344.07	209.19
344.46	209.62
344.84	209.94
345.22	210.04
345.60	210.31
345.99	210.50
346.37	210.57
346.75	210.69
347.13	210.74
347.52	210.72
347.90	210.92
348.28	210.95
348.66	211.10
349.05	210.97
349.43	211.06
349.81	211.12
350.19	211.20
350.57	211.26
350.96	211.36
351.34	211.42
351.72	211.45
352.10	211.62
352.48	211.63
352.87	211.76
353.25	211.77
353.63	211.85
354.01	211.92
354.39	212.07
354.77	212.12
355.15	212.36
355.54	212.46
355.92	212.37
356.30	212.48
356.68	212.71
357.06	212.81
357.44	212.79
357.82	212.89
358.20	212.93
358.58	212.95
358.97	213.05
359.35	213.27
359.73	213.51
360.11	213.51
360.49	213.63
360.87	213.72
361.25	213.86
361.63	214.01
362.01	214.07
362.39	214.05
362.77	214.16
363.15	214.10
363.53	214.12
363.91	214.18
364.29	214.19
364.67	213.93
365.05	213.99
365.43	214.14
365.81	214.15
366.19	214.34
366.57	214.56
366.95	214.62
367.33	214.55
367.71	214.51
368.09	214.58
368.47	214.55
368.85	214.49
369.23	214.57
369.61	214.51
369.99	214.64
370.37	214.65
370.75	214.78
371.13	214.68
371.51	214.61
371.89	214.62
372.27	214.61
372.65	214.64
373.03	214.61
373.41	214.55
373.78	214.48
374.16	214.18
374.54	214.02
374.92	213.87
375.30	213.84
375.68	213.80
376.06	213.69
376.44	213.66
376.82	213.65
377.19	213.58
377.57	213.52
377.95	213.33
378.33	213.28
378.71	213.05
379.09	213.09
379.47	213.03
379.84	212.96
380.22	212.86
380.60	212.70
380.98	212.64
381.36	212.53
381.73	212.43
382.11	212.51
382.49	212.48
382.87	212.47
383.25	212.33
383.62	212.55
384.00	212.55
384.38	212.50
384.76	212.47
385.13	212.56
385.51	212.53
385.89	212.48
386.27	212.43
386.64	212.41
387.02	212.31
387.40	212.32
387.78	212.26
388.15	212.21
388.53	212.12
388.91	212.03
389.29	211.98
389.66	212.01
390.04	211.95
390.42	211.89
390.79	211.83
391.17	211.88
391.55	211.57
391.92	211.51
392.30	211.49
392.68	211.38
393.05	211.32
393.43	211.29
393.81	211.33
394.18	211.23
394.56	211.14
394.94	211.16
395.31	211.03
395.69	211.20
396.06	211.29
396.44	211.39
396.82	211.42
397.19	211.61
397.57	211.55
397.95	211.68
398.32	211.58
398.70	211.66
399.07	211.70
399.45	211.73
399.82	211.74
400.20	211.75
400.58	211.83
400.95	211.67
401.33	211.72
401.70	211.86
402.08	211.96
402.45	212.04
402.83	212.17
403.20	212.29
403.58	212.28
403.95	212.45
404.33	212.58
404.71	212.65
405.08	212.92
405.46	213.04
405.83	213.00
406.21	213.23
406.58	213.26
406.96	213.39
407.33	213.42
407.70	213.53
408.08	213.95
408.45	214.16
408.83	214.35
409.20	214.56
409.58	214.52
409.95	214.82
410.33	215.08
410.70	215.22
411.08	215.53
411.45	215.78
411.82	215.93
412.20	216.27
412.57	216.81
412.95	216.89
413.32	217.26
413.69	217.71
414.07	218.05
414.44	218.60
414.82	219.03
415.19	219.66
415.56	220.28
415.94	220.68
416.31	221.40
416.68	222.21
417.06	223.00
417.43	223.96
417.81	224.73
418.18	225.68
418.55	226.64
418.93	227.65
419.30	228.64
419.67	229.77
420.04	230.92
420.42	232.02
420.79	233.59
421.16	235.00
421.54	236.57
421.91	238.04
422.28	239.58
422.66	241.23
423.03	243.05
423.40	244.70
423.77	246.44
424.15	248.18
424.52	249.99
424.89	252.10
425.26	253.94
425.64	255.86
426.01	257.80
426.38	259.84
426.75	262.01
427.13	264.24
427.50	266.48
427.87	268.76
428.24	271.12
428.61	273.21
428.99	275.91
429.36	278.45
429.73	281.22
430.10	283.93
430.47	286.70
430.85	289.25
431.22	292.28
431.59	295.69
431.96	298.74
432.33	302.02
432.70	305.21
433.08	309.00
433.45	312.62
433.82	316.27
434.19	320.25
434.56	324.24
434.93	327.91
435.30	331.73
435.68	335.91
436.05	339.90
436.42	343.98
436.79	347.54
437.16	351.57
437.53	355.71
437.90	359.80
438.27	364.01
438.64	368.19
439.01	372.01
439.38	375.30
439.75	378.61
440.13	382.44
440.50	386.01
440.87	389.06
441.24	391.97
441.61	395.37
441.98	397.79
442.35	400.53
442.72	403.50
443.09	406.33
443.46	407.94
443.83	409.08
444.20	409.95
444.57	411.34
444.94	411.95
445.31	412.64
445.68	413.70
446.05	413.75
446.42	413.35
446.79	412.95
447.16	412.35
447.53	412.06
447.90	410.48
448.27	408.78
448.64	406.43
449.01	404.85
449.37	402.07
449.74	399.49
450.11	396.56
450.48	393.08
450.85	389.33
451.22	386.21
451.59	383.30
451.96	380.43
452.33	376.72
452.70	373.26
453.07	369.13
453.43	364.63
453.80	360.81
454.17	357.08
454.54	353.43
454.91	349.61
455.28	345.71
455.65	342.24
456.02	339.35
456.38	336.55
456.75	332.93
457.12	329.77
457.49	326.76
457.86	323.53
458.23	321.08
458.59	318.48
458.96	315.81
459.33	313.45
459.70	311.18
460.07	309.28
460.43	307.18
460.80	305.24
461.17	303.46
461.54	301.55
461.91	299.67
462.27	297.91
462.64	296.25
463.01	294.61
463.38	293.08
463.74	290.87
464.11	289.35
464.48	288.07
464.85	286.67
465.21	285.70
465.58	284.63
465.95	283.19
466.32	282.05
466.68	280.90
467.05	279.80
467.42	278.64
467.78	277.43
468.15	276.33
468.52	275.50
468.88	274.45
469.25	273.50
469.62	272.86
469.98	272.03
470.35	271.42
470.72	270.66
471.08	269.78
471.45	269.21
471.82	268.68
472.18	268.02
472.55	267.56
472.92	266.90
473.28	266.37
473.65	265.84
474.02	265.31
474.38	265.00
474.75	264.66
475.11	264.28
475.48	264.05
475.85	263.78
476.21	263.63
476.58	263.46
476.94	263.40
477.31	263.25
477.67	263.21
478.04	263.10
478.41	263.27
478.77	263.77
479.14	263.72
479.50	263.77
479.87	264.00
480.23	264.17
480.60	264.29
480.96	264.49
481.33	264.93
481.69	265.28
482.06	265.60
482.42	266.00
482.79	266.49
483.15	267.00
483.52	267.62
483.88	268.09
484.25	268.63
484.61	269.25
484.98	269.94
485.34	270.78
485.71	271.71
486.07	272.48
486.44	273.03
486.80	274.06
487.17	274.98
487.53	276.21
487.90	277.50
488.26	278.93
488.62	280.43
488.99	281.77
489.35	283.29
489.72	284.91
490.08	286.54
490.44	288.31
490.81	290.10
491.17	292.00
491.54	294.07
491.90	296.21
492.26	298.45
492.63	300.76
492.99	303.05
493.36	305.59
493.72	308.38
494.08	311.21
494.45	314.25
494.81	317.56
495.17	320.61
495.54	324.03
495.90	327.48
496.26	331.14
496.63	335.08
496.99	339.05
497.35	343.15
497.72	347.54
498.08	351.88
498.44	356.55
498.80	361.50
499.17	366.48
499.53	371.70
499.89	377.06
500.26	382.50
500.62	388.21
500.98	394.21
501.34	400.30
501.71	406.76
502.07	413.18
502.43	419.67
502.79	426.50
503.16	433.37
503.52	440.65
503.88	447.90
504.24	455.43
504.60	463.35
504.97	471.35
505.33	479.46
505.69	488.34
506.05	497.27
506.41	506.07
506.78	515.11
507.14	524.43
507.50	533.95
507.86	543.81
508.22	553.86
508.59	563.78
508.95	574.22
509.31	584.76
509.67	595.50
510.03	606.50
510.39	617.90
510.75	629.46
511.12	641.07
511.48	652.96
511.84	664.86
512.20	676.95
512.56	689.43
512.92	702.18
513.28	714.72
513.64	727.29
514.00	740.32
514.37	753.41
514.73	766.78
515.09	780.29
515.45	793.69
515.81	807.20
516.17	821.15
516.53	834.94
516.89	848.69
517.25	862.81
517.61	877.14
517.97	891.07
518.33	905.06
518.69	919.16
519.05	933.53
519.41	948.27
519.77	963.03
520.13	977.41
520.49	991.58
520.85	1006.14
521.21	1021.03
521.57	1035.86
521.93	1050.31
522.29	1065.16
522.65	1079.89
523.01	1094.70
523.37	1109.03
523.73	1123.71
524.09	1138.10
524.45	1152.86
524.81	1167.50
525.17	1181.96
525.53	1196.77
525.89	1211.60
526.25	1226.35
526.61	1240.21
526.97	1254.41
527.33	1268.46
527.68	1283.18
528.04	1297.19
528.40	1310.60
528.76	1324.15
529.12	1338.03
529.48	1352.26
529.84	1365.79
530.20	1379.07
530.56	1392.57
530.91	1406.68
531.27	1420.17
531.63	1433.44
531.99	1446.68
532.35	1459.48
532.71	1472.32
533.07	1485.32
533.42	1498.00
533.78	1510.47
534.14	1523.07
534.50	1534.44
534.86	1546.48
535.21	1557.29
535.57	1569.20
535.93	1580.64
536.29	1592.00
536.65	1602.86
537.00	1613.09
537.36	1623.22
537.72	1633.40
538.08	1643.44
538.44	1653.47
538.79	1663.21
539.15	1673.00
539.51	1682.35
539.87	1691.99
540.22	1700.87
540.58	1710.17
540.94	1718.83
541.29	1726.93
541.65	1734.78
542.01	1743.11
542.37	1750.63
542.72	1758.93
543.08	1765.75
543.44	1773.69
543.79	1780.19
544.15	1786.66
544.51	1793.72
544.87	1800.84
545.22	1807.24
545.58	1813.13
545.94	1817.90
546.29	1822.48
546.65	1827.02
547.01	1831.34
547.36	1835.84
547.72	1840.33
548.07	1843.28
548.43	1846.58
548.79	1849.51
549.14	1852.86
549.50	1855.62
549.86	1858.03
550.21	1859.83
550.57	1862.90
550.92	1864.45
551.28	1866.15
551.64	1867.88
551.99	1869.67
552.35	1870.91
552.70	1871.94
553.06	1872.95
553.41	1874.08
553.77	1875.52
554.13	1876.46
554.48	1877.56
554.84	1878.13
555.19	1878.01
555.55	1878.25
555.90	1877.93
556.26	1878.04
556.61	1877.59
556.97	1876.97
557.32	1876.71
557.68	1875.90
558.03	1874.81
558.39	1873.90
558.74	1873.92
559.10	1873.38
559.45	1872.15
559.81	1871.15
560.16	1869.87
560.52	1868.77
560.87	1867.42
561.23	1865.22
561.58	1864.06
561.94	1861.89
562.29	1859.47
562.64	1857.84
563.00	1856.12
563.35	1854.90
563.71	1853.87
564.06	1852.40
564.42	1851.15
564.77	1849.67
565.12	1848.42
565.48	1846.61
565.83	1845.01
566.19	1843.06
566.54	1840.37
566.89	1837.49
567.25	1834.93
567.60	1832.88
567.96	1830.30
568.31	1827.80
568.66	1825.16
569.02	1821.64
569.37	1818.09
569.72	1815.14
570.08	1811.78
570.43	1808.12
570.78	1804.25
571.14	1799.70
571.49	1795.45
571.84	1791.61
572.20	1786.99
572.55	1782.90
572.90	1777.87
573.26	1772.81
573.61	1767.33
573.96	1762.44
574.31	1757.60
574.67	1751.91
575.02	1746.13
575.37	1740.68
575.72	1734.79
576.08	1730.00
576.43	1724.43
576.78	1719.67
577.13	1714.61
577.49	1709.27
577.84	1704.00
578.19	1699.17
578.54	1694.61
578.90	1690.16
579.25	1684.74
579.60	1679.18
579.95	1673.45
580.30	1668.82
580.66	1664.09
581.01	1659.17
581.36	1653.76
581.71	1647.90
582.06	1642.95
582.42	1638.00
582.77	1632.19
583.12	1627.03
583.47	1621.73
583.82	1616.95
584.17	1611.62
584.53	1606.49
584.88	1601.20
585.23	1596.23
585.58	1590.55
585.93	1584.83
586.28	1579.59
586.63	1574.45
586.98	1569.79
587.34	1564.94
587.69	1559.48
588.04	1554.33
588.39	1549.11
588.74	1543.78
589.09	1539.57
589.44	1534.01
589.79	1529.06
590.14	1524.48
590.49	1519.65
590.84	1514.32
591.19	1509.57
591.54	1504.59
591.89	1498.50
592.25	1493.20
592.60	1487.43
592.95	1481.74
593.30	1475.84
593.65	1469.82
594.00	1463.95
594.35	1459.38
594.70	1453.90
595.05	1448.73
595.40	1443.15
595.75	1437.18
596.10	1432.25
596.45	1426.87
596.80	1422.46
597.15	1417.39
597.50	1412.05
597.85	1407.14
598.19	1401.77
598.54	1396.34
598.89	1391.13
599.24	1386.98
599.59	1382.20
599.94	1377.92
600.29	1373.31
600.64	1368.76
600.99	1363.69
601.34	1359.10
601.69	1353.18
602.04	1347.87
602.39	1342.87
602.74	1337.96
603.08	1334.18
603.43	1329.93
603.78	1325.07
604.13	1320.26
604.48	1315.50
604.83	1311.60
605.18	1307.21
605.53	1302.80
605.87	1297.90
606.22	1293.72
606.57	1288.71
606.92	1284.00
607.27	1278.67
607.62	1273.98
607.96	1269.71
608.31	1265.74
608.66	1260.57
609.01	1255.64
609.36	1250.83
609.70	1245.63
610.05	1240.32
610.40	1234.94
610.75	1229.38
611.10	1224.81
611.44	1218.54
611.79	1212.56
612.14	1206.36
612.49	1200.11
612.83	1194.58
613.18	1188.91
613.53	1182.58
613.88	1176.41
614.22	1170.64
614.57	1165.09
614.92	1159.17
615.27	1153.12
615.61	1146.90
615.96	1141.47
616.31	1136.07
616.65	1130.87
617.00	1125.65
617.35	1120.38
617.70	1114.49
618.04	1108.34
618.39	1101.73
618.74	1096.55
619.08	1090.79
619.43	1085.21
619.78	1079.90
620.12	1074.30
620.47	1068.95
620.82	1063.21
621.16	1057.73
621.51	1052.14
621.85	1046.44
622.20	1040.75
622.55	1035.00
622.89	1029.39
623.24	1023.88
623.59	1018.05
623.93	1012.35
624.28	1006.88
624.62	1001.49
624.97	996.27
625.32	991.22
625.66	986.20
626.01	980.80
626.35	976.07
626.70	970.98
627.04	966.07
627.39	961.07
627.73	955.99
628.08	951.23
628.43	946.05
628.77	940.87
629.12	935.79
629.46	931.46
629.81	926.68
630.15	921.86
630.50	916.87
630.84	911.99
631.19	907.22
631.53	902.16
631.88	896.86
632.22	891.67
632.57	886.98
632.91	882.10
633.26	877.38
633.60	872.50
633.95	867.83
634.29	862.89
634.64	858.10
634.98	853.05
635.32	848.55
635.67	844.42
636.01	840.01
636.36	835.47
636.70	830.75
637.05	826.33
637.39	821.82
637.73	817.67
638.08	813.57
638.42	809.36
638.77	805.03
639.11	800.77
639.45	796.48
639.80	791.79
640.14	787.09
640.49	782.60
640.83	778.16
641.17	773.75
641.52	769.33
641.86	764.77
642.20	760.67
642.55	755.80
642.89	751.01
643.23	746.54
643.58	742.46
643.92	737.71
644.26	733.30
644.61	728.95
644.95	724.35
645.29	719.78
645.64	715.13
645.98	710.83
646.32	706.65
646.66	702.26
647.01	698.03
647.35	694.13
647.69	690.00
648.04	685.76
648.38	681.48
648.72	677.41
649.06	673.20
649.41	668.98
649.75	665.18
650.09	661.24
650.43	657.13
650.78	652.68
651.12	648.50
651.46	644.26
651.80	640.31
652.14	636.49
652.49	632.45
652.83	628.41
653.17	624.11
653.51	620.11
653.85	616.32
654.20	612.68
654.54	608.72
654.88	604.72
655.22	600.89
655.56	596.91
655.90	592.89
656.25	589.00
656.59	585.20
656.93	581.39
657.27	577.77
657.61	573.83
657.95	570.29
658.29	566.86
658.64	563.58
658.98	559.87
659.32	556.11
659.66	552.50
660.00	548.84
660.34	545.42
660.68	541.81
661.02	538.21
661.36	534.80
661.70	531.58
662.05	528.45
662.39	525.42
662.73	522.37
663.07	519.46
663.41	516.51
663.75	513.39
664.09	510.24
664.43	506.87
664.77	503.99
665.11	500.94
665.45	497.92
665.79	494.78
666.13	491.85
666.47	488.94
666.81	486.23
667.15	483.36
667.49	480.81
667.83	478.15
668.17	475.61
668.51	472.81
668.85	470.12
669.19	467.59
669.53	464.84
669.87	462.15
670.21	459.35
670.55	456.80
670.89	454.44
671.23	452.17
671.57	450.01
671.91	447.70
672.25	445.20
672.58	442.97
672.92	440.62
673.26	438.37
673.60	436.15
673.94	433.88
674.28	431.75
674.62	429.62
674.96	427.49
675.30	425.25
675.64	423.09
675.97	420.90
676.31	418.75
676.65	416.65
676.99	414.80
677.33	412.78
677.67	410.70
678.01	408.50
678.34	406.36
678.68	404.27
679.02	402.17
679.36	400.37
679.70	398.25
680.04	396.30
680.37	394.34
680.71	392.49
681.05	390.79
681.39	388.93
681.73	386.82
682.06	385.02
682.40	383.30
682.74	381.56
683.08	379.99
683.42	378.01
683.75	376.20
684.09	374.30
684.43	372.55
684.77	370.72
685.10	369.01
685.44	367.13
685.78	365.35
686.12	363.80
686.45	362.08
686.79	360.44
687.13	358.93
687.46	357.29
687.80	355.70
688.14	353.86
688.48	352.25
688.81	350.72
689.15	349.10
689.49	347.33
689.82	345.82
690.16	343.92
690.50	342.37
690.83	340.77
691.17	339.16
691.51	337.58
691.84	336.17
692.18	334.73
692.52	333.45
692.85	332.21
693.19	330.79
693.52	329.37
693.86	327.95
694.20	326.57
694.53	325.27
694.87	323.81
695.21	322.44
695.54	321.17
695.88	319.82
696.21	318.37
696.55	317.19
696.88	315.79
697.22	314.69
697.56	313.63
697.89	312.40
698.23	311.24
698.56	309.98
698.90	308.85
699.23	307.57
699.57	306.41
699.90	305.19
700.24	304.02
700.58	302.93
700.91	301.94
701.25	300.97
701.58	299.90
701.92	298.85
702.25	297.90
702.59	296.87
702.92	295.92
703.26	295.00
703.59	294.00
703.93	293.45
704.26	292.54
704.60	291.50
704.93	290.62
705.26	289.68
705.60	289.01
705.93	287.97
706.27	287.29
706.60	286.47
706.94	285.74
707.27	284.81
707.61	283.97
707.94	283.01
708.27	281.98
708.61	281.13
708.94	280.40
709.28	279.67
709.61	278.84
709.94	278.12
710.28	277.40
710.61	276.77
710.95	275.63
711.28	275.05
711.61	274.31
711.95	273.70
712.28	272.97
712.61	272.15
712.95	271.67
713.28	271.05
713.61	270.32
713.95	269.60
714.28	268.97
714.61	268.27
714.95	267.72
715.28	267.12
715.61	266.42
715.95	265.69
716.28	264.93
716.61	264.31
716.95	263.60
717.28	263.02
717.61	262.39
717.94	261.83
718.28	261.05
718.61	260.50
718.94	259.87
719.27	259.35
719.61	258.81
719.94	258.20
720.27	257.46
720.60	256.91
720.94	256.30
721.27	255.91
721.60	255.50
721.93	254.92
722.27	254.43
722.60	254.08
722.93	253.69
723.26	253.29
723.59	252.88
723.93	252.47
724.26	251.99
724.59	251.52
724.92	251.13
725.25	250.77
725.59	250.30
725.92	249.97
726.25	249.58
726.58	249.22
726.91	248.85
727.24	248.55
727.57	248.19
727.91	247.75
728.24	247.33
728.57	246.94
728.90	246.69
729.23	246.29
729.56	246.13
729.89	245.72
730.22	245.30
730.55	244.88
730.89	244.53
731.22	244.21
731.55	243.83
731.88	243.47
732.21	243.05
732.54	242.73
732.87	242.32
733.20	241.97
733.53	241.65
733.86	241.39
734.19	241.02
734.52	240.71
734.85	240.74
735.18	240.37
735.51	240.16
735.84	239.87
736.17	239.68
736.50	239.15
736.83	239.21
737.16	238.96
737.49	238.69
737.82	238.36
738.15	238.13
738.48	237.90
738.81	237.67
739.14	237.44
739.47	237.16
739.80	236.91
740.13	236.69
740.46	236.36
740.79	236.02
741.12	235.83
741.45	235.54
741.78	235.00
742.11	234.87
742.44	234.48
742.77	234.35
743.10	234.08
743.43	233.75
743.75	233.22
744.08	233.48
744.41	233.16
744.74	232.92
745.07	232.64
745.40	232.42
745.73	232.32
746.06	232.07
746.39	231.91
746.71	231.68
747.04	231.42
747.37	231.22
747.70	231.01
748.03	230.73
748.36	230.58
748.68	230.43
749.01	230.10
749.34	229.97
749.67	229.67
750.00	229.56
750.33	229.70
750.65	229.55
750.98	228.88
751.31	228.74
751.64	228.58
751.97	228.57
752.29	228.38
752.62	227.98
752.95	227.76
753.28	227.46
753.60	227.30
753.93	227.24
754.26	227.02
754.59	226.77
754.91	226.64
755.24	226.48
755.57	226.28
755.90	226.13
756.22	225.86
756.55	225.61
756.88	225.32
757.20	224.86
757.53	224.53
757.86	224.32
758.19	224.23
758.51	224.10
758.84	223.70
759.17	223.52
759.49	223.39
759.82	223.36
760.15	223.27
760.47	223.08
760.80	222.79
761.13	222.80
761.45	222.66
761.78	222.47
762.11	222.33
762.43	222.16
762.76	222.00
763.08	222.01
763.41	221.92
763.74	221.82
764.06	221.72
764.39	221.70
764.71	221.62
765.04	221.37
765.37	221.27
765.69	221.19
766.02	221.10
766.34	220.98
766.67	220.75
767.00	220.75
767.32	220.85
767.65	220.99
767.97	220.76
768.30	220.64
768.62	220.48
768.95	220.34
769.27	220.26
769.60	220.32
769.92	220.07
770.25	220.01
770.57	219.86
770.90	219.71
771.22	219.54
771.55	219.42
771.87	219.41
772.20	219.21
772.52	219.39
772.85	219.70
773.17	219.65
773.50	219.52
773.82	219.34
774.15	219.11
774.47	218.79
774.80	218.73
775.12	218.69
775.45	218.68
775.77	218.59
776.09	218.56
776.42	218.36
776.74	218.43
777.07	218.25
777.39	218.19
777.72	218.15
778.04	218.13
778.36	218.00
778.69	217.92
779.01	217.95
779.33	217.56
779.66	217.15
779.98	217.02
780.31	217.04
780.63	217.10
780.95	217.07
781.28	217.01
781.60	216.85
781.92	216.74
782.25	216.65
782.57	216.61
782.89	216.56
783.22	216.48
783.54	216.36
783.86	216.40
784.19	216.33
784.51	216.35
784.83	216.28
785.16	216.31
785.48	216.24
785.80	216.23
786.12	216.25
786.45	216.18
786.77	216.27
787.09	216.18
787.42	215.97
787.74	215.96
788.06	215.96
788.38	215.94
788.71	215.94
789.03	215.90
789.35	215.87
789.67	215.73
789.99	215.75
790.32	215.66
790.64	215.61
790.96	215.90
791.28	215.75
791.61	215.67
791.93	215.61
792.25	215.59
792.57	215.73
792.89	215.67
793.21	215.65
793.54	215.49
793.86	215.47
794.18	215.52
794.50	215.34
794.82	215.24
795.14	215.28
795.47	215.29
795.79	215.30
796.11	215.22
796.43	215.18
796.75	215.14
797.07	215.11
797.39	215.05
797.71	214.72
798.04	214.68
798.36	214.71
798.68	214.68
799.00	214.70
799.32	214.50
799.64	214.49
799.96	214.41
800.28	214.52
800.60	214.46
800.92	214.41
801.24	214.43
801.56	214.49
801.89	214.44
802.21	214.42
802.53	214.34
802.85	214.40
803.17	214.56
803.49	214.51
803.81	214.49
804.13	214.47
804.45	214.46
804.77	214.54
805.09	214.49
805.41	214.44
805.73	214.34
806.05	214.29
806.37	214.32
806.69	214.28
807.01	214.16
807.33	214.16
807.65	214.05
807.97	214.20
808.28	214.11
808.60	214.04
808.92	213.95
809.24	214.15
809.56	214.06
809.88	213.89
810.20	213.84
810.52	213.90
810.84	213.87
811.16	213.80
811.48	213.69
811.80	213.82
812.12	213.77
812.43	213.85
812.75	213.80
813.07	213.75
813.39	213.80
813.71	213.84
814.03	213.82
814.35	213.83
814.67	213.64
814.98	213.61
815.30	213.61
815.62	213.55
815.94	213.32
816.26	213.33
816.58	213.22
816.89	213.22
817.21	213.11
817.53	213.13
817.85	213.12
818.17	213.18
818.48	213.00
818.80	213.11
819.12	213.00
819.44	212.95
819.76	212.83
820.07	212.76
820.39	212.61
820.71	212.57
821.03	212.58
821.34	212.53
821.66	212.58
821.98	212.66
822.30	212.55
822.61	212.68
822.93	212.68
823.25	212.71
823.57	212.67
823.88	212.70
824.20	212.65
824.52	212.65
824.83	212.54
825.15	212.53
825.47	212.46
825.79	212.51
826.10	212.48
826.42	212.46
826.74	212.54
827.05	212.57
827.37	212.59
827.69	212.52
828.00	212.51
828.32	212.48
828.64	212.36
828.95	212.63
829.27	212.53
829.58	212.40
829.90	212.47
830.22	212.52
830.53	212.41
830.85	212.40
831.17	212.33
831.48	212.32
831.80	212.24
832.11	212.25
832.43	212.17
832.75	212.17
833.06	212.35
833.38	212.23
833.69	212.22
834.01	212.25
834.32	212.21
834.64	212.19
834.96	212.14
835.27	212.11
835.59	211.95
835.90	211.94
836.22	212.05
836.53	211.98
836.85	211.89
837.16	212.26
837.48	212.21
837.79	212.36
838.11	212.41
838.42	212.44
838.74	212.44
839.05	212.44
839.37	212.40
839.68	212.19
840.00	212.15
840.31	212.22
840.63	212.17
840.94	212.14
841.26	212.10
841.57	212.17
841.88	212.19
842.20	212.19
842.51	212.06
842.83	212.02
843.14	212.28
843.46	212.28
843.77	212.09
844.08	212.08
844.40	211.95
844.71	211.90
845.03	211.90
845.34	211.85
845.65	211.84
845.97	211.83
846.28	211.91
846.60	211.92
846.91	211.78
847.22	211.78
847.54	211.90
847.85	211.84
848.16	211.84
848.48	211.80
848.79	211.94
849.10	212.07
849.42	212.09
849.73	211.85
850.04	211.88
850.36	211.80
850.67	211.87
850.98	211.94
851.30	212.01
851.61	211.99
851.92	212.02
852.23	212.15
852.55	212.25
852.86	212.31
853.17	212.33
853.49	212.47
853.80	212.54
854.11	212.50
854.42	212.59
854.74	212.53
855.05	212.59
855.36	212.40
855.67	212.41
855.99	212.40
856.30	212.77
856.61	212.71
856.92	212.64
857.23	212.65
857.55	212.55
857.86	212.51
858.17	212.50
858.48	212.43
858.79	212.35
859.11	212.34
859.42	212.29
859.73	212.29
860.04	212.30
860.35	212.26
860.66	212.27
860.98	212.25
861.29	212.36
861.60	212.35
861.91	212.46
862.22	212.40
862.53	212.37
862.84	211.99
863.16	212.08
863.47	212.07
863.78	212.04
864.09	212.09
864.40	212.11
864.71	212.18
865.02	212.22
865.33	212.18
865.64	212.07
865.95	212.08
866.27	212.30
866.58	212.30
866.89	212.33
867.20	212.36
867.51	212.36
867.82	212.23
868.13	212.25
868.44	212.13
868.75	212.18
869.06	212.19
869.37	212.18
869.68	212.06
869.99	212.13
870.30	212.11
870.61	212.12
870.92	212.03
871.23	211.99
871.54	212.07
871.85	212.13
872.16	212.24
872.47	212.20
872.78	211.96
873.09	211.97
873.40	211.88
873.71	211.83
874.02	211.81
874.33	211.82
874.64	211.72
874.95	211.80
875.26	211.70
875.56	211.72
875.87	211.73
876.18	211.71
876.49	212.01
876.80	211.99
877.11	211.94
877.42	212.00
877.73	211.96
878.04	211.85
878.35	211.91
878.66	211.87
878.96	211.85
879.27	211.85
879.58	211.83
879.89	211.79
880.20	211.92
880.51	211.88
880.82	211.92
881.12	211.98
881.43	211.86
881.74	211.83
882.05	211.79
882.36	211.82
882.67	212.00
882.97	211.65
883.28	211.64
883.59	211.70
883.90	211.71
884.21	211.87
884.51	211.86
884.82	211.71
885.13	211.73
885.44	211.77
885.74	211.80
886.05	211.80
886.36	211.86
886.67	211.67
886.98	211.95
887.28	211.98
887.59	212.04
887.90	212.08
888.20	212.11
888.51	212.22
888.82	212.20
889.13	212.13
889.43	212.38
889.74	212.38
890.05	212.35
890.35	212.31
890.66	212.24
890.97	212.23
891.28	212.20
891.58	212.17
891.89	212.19
892.20	212.11
892.50	212.01
892.81	211.95
893.12	211.90
893.42	211.64
893.73	211.60
894.04	211.60
894.34	211.73
894.65	211.66
894.95	211.54
895.26	211.50
895.57	211.66
895.87	211.33
896.18	211.40
896.48	211.37
896.79	211.37
897.10	211.41
897.40	211.47
897.71	211.53
898.01	211.47
898.32	211.43
898.63	211.40
898.93	211.45
899.24	211.46
899.54	211.52
899.85	211.56
900.15	211.55
900.46	211.54
900.76	211.45
901.07	211.50
901.38	211.51
901.68	211.57
901.99	211.36
902.29	211.43
902.60	211.37
902.90	211.29
903.21	211.32
903.51	211.24
903.82	211.25
904.12	211.27
904.43	211.31
904.73	211.35
905.03	211.35
905.34	211.65
905.64	211.63
905.95	211.59
906.25	211.57
906.56	211.55
906.86	211.46
907.17	211.55
907.47	211.51
907.77	211.52
908.08	211.39
908.38	211.43
908.69	211.44
908.99	211.55
909.30	211.66
909.60	211.63
909.90	211.65
910.21	211.55
910.51	211.40
910.81	211.44
911.12	211.39
911.42	211.46
911.73	211.10
912.03	211.11
912.33	211.23
912.64	211.25
912.94	211.20
913.24	211.23
913.55	211.21
913.85	211.20
914.15	211.27
914.46	211.35
914.76	211.35
915.06	211.35
915.37	211.28
915.67	211.25
915.97	211.27
916.27	211.20
916.58	211.24
916.88	211.30
917.18	211.30
917.49	211.47
917.79	211.49
918.09	211.55
918.39	211.66
918.70	211.69
919.00	211.69
919.30	211.87
919.60	211.85
919.91	211.75
920.21	211.76
920.51	211.66
920.81	211.61
921.12	211.64
921.42	211.58
921.72	211.60
922.02	211.67
922.32	211.68
922.63	211.68
922.93	211.88
923.23	211.91
923.53	211.82
923.83	211.70
924.13	211.71
924.44	211.70
924.74	211.71
925.04	211.73
925.34	211.67
925.64	211.59
925.94	211.55
926.24	211.73
926.55	211.76
926.85	211.82
927.15	211.92
927.45	211.90
927.75	211.95
928.05	211.94
928.35	211.90
928.65	211.95
928.95	212.05
929.26	211.88
929.56	211.97
929.86	212.06
930.16	212.03
930.46	211.97
930.76	212.02
931.06	211.88
931.36	211.85
931.66	211.93
931.96	211.98
932.26	212.01
932.56	211.91
932.86	211.97
933.16	211.95
933.46	211.84
933.76	211.80
934.06	211.89
934.36	211.99
934.66	211.96
934.96	211.91
935.26	211.84
935.56	211.84
935.86	211.70
936.16	211.72
936.46	211.70
936.76	211.65
937.06	211.58
937.36	211.68
937.66	211.65
937.96	211.69
938.26	211.56
938.56	211.56
938.86	211.54
939.16	211.53
939.46	211.55
939.76	211.65
940.06	211.60
940.35	211.48
940.65	211.35
940.95	211.40
941.25	211.36
941.55	211.33
941.85	211.30
942.15	211.41
942.45	211.46
942.75	211.47
943.04	211.48
943.34	211.59
943.64	211.46
943.94	211.42
944.24	211.38
944.54	211.43
944.84	211.38
945.13	211.34
945.43	211.27
945.73	211.25
946.03	211.19
946.33	211.13
946.62	211.07
946.92	211.01
947.22	211.01
947.52	210.99
947.82	210.98
948.11	210.97
948.41	210.90
948.71	210.81
949.01	210.78
949.31	210.81
949.60	210.70
949.90	210.82
950.20	210.80
950.50	210.74
950.79	210.74
951.09	210.82
951.39	210.83
951.69	210.83
951.98	210.93
952.28	210.93
952.58	210.97
952.87	211.00
953.17	211.08
953.47	210.97
953.76	210.95
954.06	210.96
954.36	210.91
954.66	210.85
954.95	210.90
955.25	210.95
955.55	210.96
955.84	210.93
956.14	210.94
956.44	210.94
956.73	210.91
957.03	210.86
957.32	210.86
957.62	210.80
957.92	210.93
958.21	210.88
958.51	211.31
958.81	211.41
959.10	211.43
959.40	211.45
959.69	211.55
959.99	211.61
960.29	211.62
960.58	211.63
960.88	211.78
961.17	211.67
961.47	211.65
961.76	211.60
962.06	211.69
962.36	211.57
962.65	211.54
962.95	211.57
963.24	211.57
963.54	211.57
963.83	211.64
964.13	211.58
964.42	211.47
964.72	211.12
965.01	211.09
965.31	211.08
965.60	211.09
965.90	211.29
966.19	211.27
966.49	211.30
966.78	211.27
967.08	211.25
967.37	211.25
967.67	211.21
967.96	211.30
968.26	211.25
968.55	211.38
968.85	211.47
969.14	211.50
969.43	211.50
969.73	211.46
970.02	211.44
970.32	211.39
970.61	211.36
970.91	211.28
971.20	211.25
971.49	211.23
971.79	211.23
972.08	210.93
972.38	210.92
972.67	210.84
972.96	210.94
973.26	210.84
973.55	211.03
973.85	211.04
974.14	210.97
974.43	210.95
974.73	210.81
975.02	210.69
975.31	210.65
975.61	210.64
975.90	210.63
976.19	210.58
976.49	210.53
976.78	210.59
977.07	210.64
977.37	210.67
977.66	210.69
977.95	210.64
978.24	210.74
978.54	210.83
978.83	210.83
979.12	210.75
979.42	210.77
979.71	210.73
980.00	210.72
980.29	210.73
980.59	210.72
980.88	210.85
981.17	210.93
981.46	210.96
981.76	211.01
982.05	211.07
982.34	211.12
982.63	211.20
982.93	211.23
983.22	211.30
983.51	211.24
983.80	211.30
984.09	211.33
984.39	211.23
984.68	211.18
984.97	211.20
985.26	211.19
985.55	211.20
985.85	211.13
986.14	211.11
986.43	211.18
986.72	211.20
987.01	211.06
987.30	211.01
987.59	211.00
987.89	210.93
988.18	210.87
988.47	210.88
988.76	210.86
989.05	210.84
989.34	210.75
989.63	210.88
989.92	210.85
990.22	210.81
990.51	210.92
990.80	210.85
991.09	210.91
991.38	211.02
991.67	210.98
991.96	210.92
992.25	210.97
992.54	210.91
992.83	210.94
993.12	210.97
993.41	211.07
993.70	211.18
993.99	211.25
994.28	211.36
994.58	211.39
994.87	211.34
995.16	211.32
995.45	211.32
995.74	211.20
996.03	211.20
996.32	211.26
996.61	211.27
996.90	211.30
997.19	211.24
997.48	211.15
997.77	211.16
998.06	211.20
998.34	211.22
998.63	211.22
998.92	211.19
999.21	211.27
999.50	211.20
999.79	211.12
1000.08	211.08
1000.37	211.07
1000.66	210.94
1000.95	211.06
1001.24	211.08
1001.53	211.17
1001.82	211.20
1002.11	211.16
1002.40	211.15
1002.68	211.23
1002.97	211.53
1003.26	211.51
1003.55	211.50
1003.84	211.57
1004.13	211.65
1004.42	211.64
1004.71	211.68
1004.99	211.70
1005.28	211.78
1005.57	211.80
1005.86	211.75
1006.15	211.72
1006.44	211.63
1006.72	211.77
1007.01	211.69
1007.30	211.68
1007.59	211.49
1007.88	211.47
1008.17	211.46
1008.45	211.41
1008.74	211.21
1009.03	211.02
1009.32	211.06
1009.60	211.04
1009.89	211.01
1010.18	210.88
1010.47	210.84
1010.76	210.79
1011.04	210.76
1011.33	210.73
1011.62	210.77
1011.91	210.75
1012.19	210.85
1012.48	210.83
1012.77	210.76
1013.05	210.85
1013.34	210.87
1013.63	210.95
1013.92	210.96
1014.20	210.88
1014.49	210.92
1014.78	210.97
1015.06	210.83
1015.35	210.81
1015.64	210.90
1015.92	210.94
1016.21	210.98
1016.50	210.91
1016.78	210.96
1017.07	210.91
1017.36	210.87
1017.64	210.80
1017.93	210.87
1018.22	210.79
1018.50	210.79
1018.79	210.81
1019.08	210.64
1019.36	210.62
1019.65	210.55
1019.93	210.63
1020.22	210.77
1020.51	210.93
1020.79	210.92
1021.08	210.30
1021.36	210.15
1021.65	210.55
1021.94	209.70
1022.22	210.75
1022.51	209.25
1022.79	212.50
1023.08	211.60
1023.36	215.00
1023.65	210.35
>>>>>End Processed Spectral Data<<<<<
