SpectraSuite Data File
++++++++++++++++++++++++++++++++++++
Date: Mon Feb 25 17:05:45 EST 2013
User: group
Dark Spectrum Present: No
Reference Spectrum Present: No
Number of Sampled Component Spectra: 1
Spectrometers: USB2E7196
Integration Time (usec): 104000 (USB2E7196)
Spectra Averaged: 20 (USB2E7196)
Boxcar Smoothing: 10 (USB2E7196)
Correct for Electrical Dark: No (USB2E7196)
Strobe/Lamp Enabled: No (USB2E7196)
Correct for Detector Non-linearity: No (USB2E7196)
Correct for Stray Light: No (USB2E7196)
Number of Pixels in Processed Spectrum: 2048
>>>>>Begin Processed Spectral Data<<<<<
339.09	0.00
339.48	198.80
339.86	199.80
340.24	200.90
340.63	202.65
341.01	208.30
341.39	206.40
341.78	208.50
342.16	209.30
342.54	208.00
342.93	198.16
343.31	208.19
343.69	208.74
344.07	209.26
344.46	209.77
344.84	210.16
345.22	210.27
345.60	210.49
345.99	210.63
346.37	210.71
346.75	210.84
347.13	210.87
347.52	210.93
347.90	211.15
348.28	211.15
348.66	211.22
349.05	211.02
349.43	211.05
349.81	211.13
350.19	211.15
350.57	211.22
350.96	211.29
351.34	211.33
351.72	211.34
352.10	211.39
352.48	211.34
352.87	211.37
353.25	211.39
353.63	211.39
354.01	211.38
354.39	211.47
354.77	211.48
355.15	211.63
355.54	211.61
355.92	211.47
356.30	211.52
356.68	211.77
357.06	211.91
357.44	211.95
357.82	211.89
358.20	211.98
358.58	211.99
358.97	212.05
359.35	212.15
359.73	212.24
360.11	212.24
360.49	212.31
360.87	212.25
361.25	212.39
361.63	212.56
362.01	212.63
362.39	212.64
362.77	212.70
363.15	212.68
363.53	212.71
363.91	212.76
364.29	212.83
364.67	212.55
365.05	212.47
365.43	212.48
365.81	212.54
366.19	212.68
366.57	212.79
366.95	212.80
367.33	212.73
367.71	212.72
368.09	212.77
368.47	212.78
368.85	212.88
369.23	212.91
369.61	212.80
369.99	212.84
370.37	212.81
370.75	212.95
371.13	212.85
371.51	212.83
371.89	212.79
372.27	212.76
372.65	212.72
373.03	212.77
373.41	212.67
373.78	212.58
374.16	212.35
374.54	212.18
374.92	212.09
375.30	212.02
375.68	211.96
376.06	211.97
376.44	211.91
376.82	211.87
377.19	211.74
377.57	211.66
377.95	211.55
378.33	211.39
378.71	211.15
379.09	211.14
379.47	211.16
379.84	211.13
380.22	211.10
380.60	211.04
380.98	210.93
381.36	210.92
381.73	210.89
382.11	210.92
382.49	210.91
382.87	210.83
383.25	210.80
383.62	211.18
384.00	211.05
384.38	211.03
384.76	211.05
385.13	211.16
385.51	211.14
385.89	211.07
386.27	211.11
386.64	211.07
387.02	210.95
387.40	210.87
387.78	210.80
388.15	210.73
388.53	210.67
388.91	210.71
389.29	210.68
389.66	210.69
390.04	210.62
390.42	210.65
390.79	210.70
391.17	210.74
391.55	210.28
391.92	210.29
392.30	210.30
392.68	210.18
393.05	210.14
393.43	210.12
393.81	210.14
394.18	210.09
394.56	210.19
394.94	210.35
395.31	210.31
395.69	210.46
396.06	210.54
396.44	210.54
396.82	210.50
397.19	210.71
397.57	210.71
397.95	210.73
398.32	210.65
398.70	210.62
399.07	210.66
399.45	210.69
399.82	210.70
400.20	210.63
400.58	210.72
400.95	210.63
401.33	210.70
401.70	210.97
402.08	211.05
402.45	211.11
402.83	211.27
403.20	211.32
403.58	211.27
403.95	211.38
404.33	211.53
404.71	211.57
405.08	211.79
405.46	211.91
405.83	212.09
406.21	212.22
406.58	212.35
406.96	212.45
407.33	212.56
407.70	212.72
408.08	213.12
408.45	213.30
408.83	213.48
409.20	213.66
409.58	213.67
409.95	213.92
410.33	214.15
410.70	214.23
411.08	214.55
411.45	214.91
411.82	215.17
412.20	215.65
412.57	216.21
412.95	216.27
413.32	216.67
413.69	217.00
414.07	217.46
414.44	218.02
414.82	218.55
415.19	219.27
415.56	219.91
415.94	220.47
416.31	221.30
416.68	222.13
417.06	223.00
417.43	223.91
417.81	224.88
418.18	225.87
418.55	226.95
418.93	228.13
419.30	229.28
419.67	230.45
420.04	231.61
420.42	232.89
420.79	234.75
421.16	236.37
421.54	238.15
421.91	239.90
422.28	241.57
422.66	243.48
423.03	245.39
423.40	247.24
423.77	249.30
424.15	251.28
424.52	253.45
424.89	255.77
425.26	258.00
425.64	260.18
426.01	262.54
426.38	265.01
426.75	267.63
427.13	270.25
427.50	273.04
427.87	275.91
428.24	278.74
428.61	281.25
428.99	284.33
429.36	287.54
429.73	290.67
430.10	293.92
430.47	297.30
430.85	300.64
431.22	304.26
431.59	308.26
431.96	311.98
432.33	316.05
432.70	320.07
433.08	324.66
433.45	329.00
433.82	333.42
434.19	338.42
434.56	343.21
434.93	347.88
435.30	352.53
435.68	357.63
436.05	362.80
436.42	367.76
436.79	372.43
437.16	377.58
437.53	383.04
437.90	388.30
438.27	393.44
438.64	398.80
439.01	403.82
439.38	408.20
439.75	412.60
440.13	417.51
440.50	422.22
440.87	426.11
441.24	430.16
441.61	434.69
441.98	438.05
442.35	441.87
442.72	445.73
443.09	449.59
443.46	452.00
443.83	453.62
444.20	455.29
444.57	457.25
444.94	458.25
445.31	459.28
445.68	460.75
446.05	461.36
446.42	461.12
446.79	460.89
447.16	460.39
447.53	460.22
447.90	458.59
448.27	456.95
448.64	454.64
449.01	452.97
449.37	449.77
449.74	446.52
450.11	442.99
450.48	438.88
450.85	434.51
451.22	430.81
451.59	427.44
451.96	424.07
452.33	419.66
452.70	415.61
453.07	410.81
453.43	405.50
453.80	400.74
454.17	396.16
454.54	391.82
454.91	387.25
455.28	382.64
455.65	378.37
456.02	374.55
456.38	370.84
456.75	366.26
457.12	362.40
457.49	358.75
457.86	354.84
458.23	351.75
458.59	348.37
458.96	345.03
459.33	341.93
459.70	338.88
460.07	336.44
460.43	333.58
460.80	330.96
461.17	328.80
461.54	326.29
461.91	324.02
462.27	321.71
462.64	319.53
463.01	317.28
463.38	315.36
463.74	312.69
464.11	310.70
464.48	309.17
464.85	307.33
465.21	305.97
465.58	304.51
465.95	302.72
466.32	301.30
466.68	299.68
467.05	298.12
467.42	296.66
467.78	295.07
468.15	293.62
468.52	292.46
468.88	290.83
469.25	289.60
469.62	288.60
469.98	287.35
470.35	286.39
470.72	285.41
471.08	284.04
471.45	283.18
471.82	282.45
472.18	281.30
472.55	280.52
472.92	279.56
473.28	278.82
473.65	278.08
474.02	277.30
474.38	276.74
474.75	276.33
475.11	275.68
475.48	275.15
475.85	274.70
476.21	274.22
476.58	274.00
476.94	273.72
477.31	273.38
477.67	273.07
478.04	272.82
478.41	272.60
478.77	272.81
479.14	272.51
479.50	272.20
479.87	272.22
480.23	272.16
480.60	271.98
480.96	271.83
481.33	271.90
481.69	271.80
482.06	271.82
482.42	271.80
482.79	271.87
483.15	272.01
483.52	272.26
483.88	272.41
484.25	272.50
484.61	272.55
484.98	272.64
485.34	273.02
485.71	273.30
486.07	273.63
486.44	273.61
486.80	273.98
487.17	274.40
487.53	274.87
487.90	275.43
488.26	276.21
488.62	276.80
488.99	277.24
489.35	277.91
489.72	278.59
490.08	279.13
490.44	279.77
490.81	280.60
491.17	281.21
491.54	282.06
491.90	282.91
492.26	283.85
492.63	284.68
492.99	285.54
493.36	286.47
493.72	287.47
494.08	288.59
494.45	289.74
494.81	290.91
495.17	291.90
495.54	293.01
495.90	294.07
496.26	295.22
496.63	296.43
496.99	297.59
497.35	298.75
497.72	300.10
498.08	301.42
498.44	302.63
498.80	304.18
499.17	305.48
499.53	306.79
499.89	308.22
500.26	309.65
500.62	310.95
500.98	312.41
501.34	313.72
501.71	315.05
502.07	316.40
502.43	317.67
502.79	318.93
503.16	320.20
503.52	321.45
503.88	322.71
504.24	324.09
504.60	325.53
504.97	327.01
505.33	328.35
505.69	329.97
506.05	331.42
506.41	332.70
506.78	333.93
507.14	335.12
507.50	336.42
507.86	337.80
508.22	339.11
508.59	340.30
508.95	341.64
509.31	343.05
509.67	344.31
510.03	345.64
510.39	347.05
510.75	348.38
511.12	349.60
511.48	350.85
511.84	352.04
512.20	353.29
512.56	354.47
512.92	355.64
513.28	356.69
513.64	357.71
514.00	358.79
514.37	359.93
514.73	361.22
515.09	362.32
515.45	363.37
515.81	364.49
516.17	365.54
516.53	366.55
516.89	367.53
517.25	368.60
517.61	369.85
517.97	370.88
518.33	371.99
518.69	373.21
519.05	374.47
519.41	375.66
519.77	376.96
520.13	378.09
520.49	379.25
520.85	380.40
521.21	381.84
521.57	383.13
521.93	384.52
522.29	385.84
522.65	387.09
523.01	388.46
523.37	389.80
523.73	391.34
524.09	392.91
524.45	394.49
524.81	396.02
525.17	397.52
525.53	399.27
525.89	400.90
526.25	402.65
526.61	404.37
526.97	406.10
527.33	407.89
527.68	410.13
528.04	412.04
528.40	413.81
528.76	415.74
529.12	417.78
529.48	419.81
529.84	421.79
530.20	424.09
530.56	426.39
530.91	428.76
531.27	431.02
531.63	433.33
531.99	435.55
532.35	437.96
532.71	440.29
533.07	442.74
533.42	445.58
533.78	448.04
534.14	450.48
534.50	452.87
534.86	455.31
535.21	457.51
535.57	460.26
535.93	462.88
536.29	465.63
536.65	468.21
537.00	470.79
537.36	473.51
537.72	476.11
538.08	478.72
538.44	481.37
538.79	484.11
539.15	486.83
539.51	489.54
539.87	492.43
540.22	495.19
540.58	498.02
540.94	500.65
541.29	503.50
541.65	506.21
542.01	509.10
542.37	511.98
542.72	514.79
543.08	517.55
543.44	520.54
543.79	523.10
544.15	526.02
544.51	529.13
544.87	532.22
545.22	535.23
545.58	538.14
545.94	540.91
546.29	543.66
546.65	546.42
547.01	549.21
547.36	551.81
547.72	554.64
548.07	557.34
548.43	559.76
548.79	562.31
549.14	564.99
549.50	567.63
549.86	570.25
550.21	572.95
550.57	575.58
550.92	577.97
551.28	580.59
551.64	582.89
551.99	585.41
552.35	587.55
552.70	589.82
553.06	592.05
553.41	594.38
553.77	596.97
554.13	599.23
554.48	601.56
554.84	603.95
555.19	606.18
555.55	608.53
555.90	610.62
556.26	612.70
556.61	614.79
556.97	616.71
557.32	618.71
557.68	620.52
558.03	622.46
558.39	624.30
558.74	626.29
559.10	628.18
559.45	630.05
559.81	632.18
560.16	633.85
560.52	636.06
560.87	637.89
561.23	639.32
561.58	641.35
561.94	643.08
562.29	644.59
562.64	646.19
563.00	647.63
563.35	649.42
563.71	651.15
564.06	652.84
564.42	654.59
564.77	656.19
565.12	657.94
565.48	659.81
565.83	661.66
566.19	662.98
566.54	664.45
566.89	665.47
567.25	666.75
567.60	668.23
567.96	669.39
568.31	670.70
568.66	671.93
569.02	672.66
569.37	673.43
569.72	674.39
570.08	675.24
570.43	676.04
570.78	676.69
571.14	677.31
571.49	677.66
571.84	678.35
572.20	678.63
572.55	678.97
572.90	678.86
573.26	678.84
573.61	678.97
573.96	679.06
574.31	679.12
574.67	679.09
575.02	678.93
575.37	678.63
575.72	678.27
576.08	678.17
576.43	678.09
576.78	678.04
577.13	677.97
577.49	677.75
577.84	677.55
578.19	677.54
578.54	677.34
578.90	677.50
579.25	677.03
579.60	676.84
579.95	676.41
580.30	676.15
580.66	675.97
581.01	675.65
581.36	675.21
581.71	674.83
582.06	674.53
582.42	674.22
582.77	673.74
583.12	673.37
583.47	673.08
583.82	672.69
584.17	672.39
584.53	672.10
584.88	671.85
585.23	671.45
585.58	670.73
585.93	670.21
586.28	669.69
586.63	669.42
586.98	668.92
587.34	668.49
587.69	667.92
588.04	667.41
588.39	666.92
588.74	666.31
589.09	666.06
589.44	665.28
589.79	664.67
590.14	664.20
590.49	663.53
590.84	662.81
591.19	662.45
591.54	661.67
591.89	660.54
592.25	659.77
592.60	658.90
592.95	657.98
593.30	656.91
593.65	655.65
594.00	654.44
594.35	654.42
594.70	653.38
595.05	652.50
595.40	651.41
595.75	650.23
596.10	649.38
596.45	648.28
596.80	647.36
597.15	646.40
597.50	645.25
597.85	644.24
598.19	643.12
598.54	641.82
598.89	640.77
599.24	640.05
599.59	639.03
599.94	638.14
600.29	637.29
600.64	636.44
600.99	635.55
601.34	634.79
601.69	632.82
602.04	631.78
602.39	630.66
602.74	629.76
603.08	629.14
603.43	628.50
603.78	627.49
604.13	626.42
604.48	625.44
604.83	624.88
605.18	624.34
605.53	623.52
605.87	622.42
606.22	621.45
606.57	620.46
606.92	619.31
607.27	618.12
607.62	617.03
607.96	616.06
608.31	615.10
608.66	613.83
609.01	612.62
609.36	611.46
609.70	610.16
610.05	608.73
610.40	607.42
610.75	605.80
611.10	604.74
611.44	603.23
611.79	601.73
612.14	600.05
612.49	598.04
612.83	596.52
613.18	595.00
613.53	593.47
613.88	591.55
614.22	589.85
614.57	588.06
614.92	586.35
615.27	584.57
615.61	582.80
615.96	581.21
616.31	579.63
616.65	578.21
617.00	576.61
617.35	575.10
617.70	573.35
618.04	571.58
618.39	569.52
618.74	567.93
619.08	566.10
619.43	564.26
619.78	562.66
620.12	560.75
620.47	559.03
620.82	557.28
621.16	555.51
621.51	553.88
621.85	552.22
622.20	550.55
622.55	548.83
622.89	547.17
623.24	545.44
623.59	543.63
623.93	541.85
624.28	540.12
624.62	538.74
624.97	536.94
625.32	535.21
625.66	533.61
626.01	531.86
626.35	530.41
626.70	528.67
627.04	527.15
627.39	525.57
627.73	523.90
628.08	522.23
628.43	520.57
628.77	518.83
629.12	517.11
629.46	515.50
629.81	513.79
630.15	512.00
630.50	510.19
630.84	508.38
631.19	506.49
631.53	504.95
631.88	502.70
632.22	500.94
632.57	499.36
632.91	497.59
633.26	495.91
633.60	494.01
633.95	492.41
634.29	490.55
634.64	488.84
634.98	486.97
635.32	485.40
635.67	483.84
636.01	482.32
636.36	480.65
636.70	479.18
637.05	477.61
637.39	476.06
637.73	474.62
638.08	473.43
638.42	471.94
638.77	470.28
639.11	468.86
639.45	467.21
639.80	465.49
640.14	463.85
640.49	462.24
640.83	460.57
641.17	458.96
641.52	457.34
641.86	455.64
642.20	454.16
642.55	452.18
642.89	450.42
643.23	448.65
643.58	447.27
643.92	445.44
644.26	443.76
644.61	442.20
644.95	440.50
645.29	438.72
645.64	437.14
645.98	435.39
646.32	433.88
646.66	432.24
647.01	430.63
647.35	429.08
647.69	427.31
648.04	425.82
648.38	424.16
648.72	422.61
649.06	420.93
649.41	419.26
649.75	417.76
650.09	416.32
650.43	414.81
650.78	413.11
651.12	411.45
651.46	409.79
651.80	408.20
652.14	406.58
652.49	404.97
652.83	403.21
653.17	401.63
653.51	399.90
653.85	398.45
654.20	396.95
654.54	395.43
654.88	393.89
655.22	392.38
655.56	390.79
655.90	389.25
656.25	387.82
656.59	386.23
656.93	384.73
657.27	383.26
657.61	381.47
657.95	379.97
658.29	378.47
658.64	377.13
658.98	375.57
659.32	374.07
659.66	372.51
660.00	371.20
660.34	369.70
660.68	368.14
661.02	366.60
661.36	365.18
661.70	363.68
662.05	362.42
662.39	361.09
662.73	359.90
663.07	358.70
663.41	357.48
663.75	356.22
664.09	354.93
664.43	353.53
664.77	352.40
665.11	351.02
665.45	349.80
665.79	348.55
666.13	347.25
666.47	346.02
666.81	344.88
667.15	343.60
667.49	342.60
667.83	341.63
668.17	340.47
668.51	339.29
668.85	338.22
669.19	337.27
669.53	335.94
669.87	334.56
670.21	333.29
670.55	332.03
670.89	331.20
671.23	330.28
671.57	329.39
671.91	328.35
672.25	327.41
672.58	326.45
672.92	325.36
673.26	324.43
673.60	323.47
673.94	322.35
674.28	321.33
674.62	320.30
674.96	319.25
675.30	318.31
675.64	317.48
675.97	316.53
676.31	315.43
676.65	314.60
676.99	314.08
677.33	313.15
677.67	312.28
678.01	311.10
678.34	310.10
678.68	309.08
679.02	308.11
679.36	307.13
679.70	306.19
680.04	305.33
680.37	304.47
680.71	303.58
681.05	302.87
681.39	302.09
681.73	301.18
682.06	300.44
682.40	299.63
682.74	298.78
683.08	297.97
683.42	297.14
683.75	296.45
684.09	295.43
684.43	294.59
684.77	293.66
685.10	293.01
685.44	292.17
685.78	291.37
686.12	290.64
686.45	289.93
686.79	289.08
687.13	288.47
687.46	287.66
687.80	287.01
688.14	286.19
688.48	285.44
688.81	284.72
689.15	284.00
689.49	283.16
689.82	282.47
690.16	281.62
690.50	280.86
690.83	280.01
691.17	279.22
691.51	278.55
691.84	278.00
692.18	277.31
692.52	276.69
692.85	276.04
693.19	275.49
693.52	274.79
693.86	274.05
694.20	273.32
694.53	272.65
694.87	271.85
695.21	271.24
695.54	270.51
695.88	269.78
696.21	269.09
696.55	268.63
696.88	267.93
697.22	267.34
697.56	266.80
697.89	266.19
698.23	265.69
698.56	265.05
698.90	264.50
699.23	263.83
699.57	263.23
699.90	262.64
700.24	262.00
700.58	261.56
700.91	261.19
701.25	260.88
701.58	260.46
701.92	260.09
702.25	259.51
702.59	259.05
702.92	258.58
703.26	258.08
703.59	257.48
703.93	257.35
704.26	256.98
704.60	256.55
704.93	256.07
705.26	255.54
705.60	255.14
705.93	254.59
706.27	254.30
706.60	254.02
706.94	253.81
707.27	253.28
707.61	252.87
707.94	252.34
708.27	251.63
708.61	251.12
708.94	250.65
709.28	250.25
709.61	249.88
709.94	249.58
710.28	249.14
710.61	248.86
710.95	248.09
711.28	247.98
711.61	247.50
711.95	247.19
712.28	246.81
712.61	246.42
712.95	246.31
713.28	245.98
713.61	245.48
713.95	244.93
714.28	244.66
714.61	244.18
714.95	243.82
715.28	243.42
715.61	243.01
715.95	242.64
716.28	242.32
716.61	242.00
716.95	241.56
717.28	241.31
717.61	240.91
717.94	240.61
718.28	239.96
718.61	239.69
718.94	239.31
719.27	239.08
719.61	238.86
719.94	238.40
720.27	238.04
720.60	237.76
720.94	237.47
721.27	237.25
721.60	237.10
721.93	236.88
722.27	236.78
722.60	236.55
722.93	236.32
723.26	236.15
723.59	235.83
723.93	235.64
724.26	235.36
724.59	235.10
724.92	234.85
725.25	234.65
725.59	234.42
725.92	234.28
726.25	234.01
726.58	233.72
726.91	233.51
727.24	233.27
727.57	233.03
727.91	232.76
728.24	232.52
728.57	232.20
728.90	232.00
729.23	231.72
729.56	231.77
729.89	231.56
730.22	231.25
730.55	231.07
730.89	230.93
731.22	230.69
731.55	230.49
731.88	230.34
732.21	230.18
732.54	229.95
732.87	229.75
733.20	229.52
733.53	229.36
733.86	229.23
734.19	229.04
734.52	228.93
734.85	229.02
735.18	228.77
735.51	228.72
735.84	228.56
736.17	228.49
736.50	228.07
736.83	228.34
737.16	228.16
737.49	228.03
737.82	227.81
738.15	227.68
738.48	227.54
738.81	227.39
739.14	227.18
739.47	227.06
739.80	226.86
740.13	226.76
740.46	226.54
740.79	226.34
741.12	226.21
741.45	225.98
741.78	225.62
742.11	225.65
742.44	225.44
742.77	225.35
743.10	225.09
743.43	224.94
743.75	224.37
744.08	224.76
744.41	224.62
744.74	224.46
745.07	224.27
745.40	224.21
745.73	224.19
746.06	224.08
746.39	224.03
746.71	223.99
747.04	223.78
747.37	223.69
747.70	223.65
748.03	223.50
748.36	223.39
748.68	223.25
749.01	223.00
749.34	222.90
749.67	222.81
750.00	222.75
750.33	222.86
750.65	222.81
750.98	222.21
751.31	222.11
751.64	222.03
751.97	222.11
752.29	221.92
752.62	221.63
752.95	221.46
753.28	221.28
753.60	221.11
753.93	221.15
754.26	220.98
754.59	220.72
754.91	220.55
755.24	220.55
755.57	220.47
755.90	220.35
756.22	220.26
756.55	220.04
756.88	219.88
757.20	219.62
757.53	219.41
757.86	219.34
758.19	219.27
758.51	219.25
758.84	219.02
759.17	218.93
759.49	218.95
759.82	219.05
760.15	218.99
760.47	218.85
760.80	218.70
761.13	218.69
761.45	218.62
761.78	218.51
762.11	218.37
762.43	218.23
762.76	218.12
763.08	218.02
763.41	218.05
763.74	218.00
764.06	217.90
764.39	217.88
764.71	217.77
765.04	217.67
765.37	217.55
765.69	217.40
766.02	217.31
766.34	217.12
766.67	216.93
767.00	216.86
767.32	217.06
767.65	217.23
767.97	217.19
768.30	217.16
768.62	217.17
768.95	217.05
769.27	217.03
769.60	217.05
769.92	216.93
770.25	216.80
770.57	216.62
770.90	216.63
771.22	216.56
771.55	216.56
771.87	216.44
772.20	216.35
772.52	216.61
772.85	217.00
773.17	217.02
773.50	216.95
773.82	216.90
774.15	216.64
774.47	216.33
774.80	216.29
775.12	216.17
775.45	216.12
775.77	216.14
776.09	216.12
776.42	216.10
776.74	216.13
777.07	216.05
777.39	216.09
777.72	215.92
778.04	215.85
778.36	215.75
778.69	215.82
779.01	215.78
779.33	215.47
779.66	215.04
779.98	214.89
780.31	214.87
780.63	215.00
780.95	215.01
781.28	214.93
781.60	214.82
781.92	214.82
782.25	214.83
782.57	214.73
782.89	214.65
783.22	214.53
783.54	214.46
783.86	214.46
784.19	214.36
784.51	214.51
784.83	214.48
785.16	214.43
785.48	214.33
785.80	214.33
786.12	214.32
786.45	214.25
786.77	214.25
787.09	214.23
787.42	214.02
787.74	213.91
788.06	213.97
788.38	213.98
788.71	213.95
789.03	213.88
789.35	213.89
789.67	213.84
789.99	213.91
790.32	213.82
790.64	213.90
790.96	214.17
791.28	214.00
791.61	213.96
791.93	213.93
792.25	213.95
792.57	214.12
792.89	214.04
793.21	214.07
793.54	214.08
793.86	213.94
794.18	213.89
794.50	213.85
794.82	213.80
795.14	213.79
795.47	213.84
795.79	213.83
796.11	213.80
796.43	213.78
796.75	213.74
797.07	213.77
797.39	213.64
797.71	213.45
798.04	213.42
798.36	213.40
798.68	213.35
799.00	213.33
799.32	213.15
799.64	213.22
799.96	213.18
800.28	213.24
800.60	213.24
800.92	213.31
801.24	213.21
801.56	213.24
801.89	213.11
802.21	213.03
802.53	212.93
802.85	212.97
803.17	213.10
803.49	212.99
803.81	212.95
804.13	212.97
804.45	212.94
804.77	213.03
805.09	213.05
805.41	213.09
805.73	213.05
806.05	212.94
806.37	212.94
806.69	212.86
807.01	212.84
807.33	212.86
807.65	212.78
807.97	212.98
808.28	212.98
808.60	213.04
808.92	213.03
809.24	213.30
809.56	213.21
809.88	213.09
810.20	213.09
810.52	213.16
810.84	213.02
811.16	212.89
811.48	212.78
811.80	212.92
812.12	212.80
812.43	212.81
812.75	212.85
813.07	212.79
813.39	212.85
813.71	212.73
814.03	212.67
814.35	212.65
814.67	212.46
814.98	212.35
815.30	212.33
815.62	212.24
815.94	211.96
816.26	211.97
816.58	211.94
816.89	212.01
817.21	211.88
817.53	212.00
817.85	212.05
818.17	212.09
818.48	211.92
818.80	212.00
819.12	211.98
819.44	211.96
819.76	211.94
820.07	211.96
820.39	211.97
820.71	211.97
821.03	211.98
821.34	212.04
821.66	212.09
821.98	212.19
822.30	212.16
822.61	212.35
822.93	212.35
823.25	212.33
823.57	212.22
823.88	212.29
824.20	212.20
824.52	212.21
824.83	212.12
825.15	212.12
825.47	212.15
825.79	212.07
826.10	212.02
826.42	212.03
826.74	211.98
827.05	211.95
827.37	212.05
827.69	212.03
828.00	211.98
828.32	211.92
828.64	211.80
828.95	212.00
829.27	211.92
829.58	211.84
829.90	211.87
830.22	211.92
830.53	211.82
830.85	211.83
831.17	211.75
831.48	211.81
831.80	211.82
832.11	211.83
832.43	211.79
832.75	211.78
833.06	211.94
833.38	211.87
833.69	211.85
834.01	211.84
834.32	211.77
834.64	211.79
834.96	211.83
835.27	211.82
835.59	211.64
835.90	211.54
836.22	211.59
836.53	211.53
836.85	211.49
837.16	211.86
837.48	211.90
837.79	212.02
838.11	212.02
838.42	211.96
838.74	211.96
839.05	211.98
839.37	212.03
839.68	211.82
840.00	211.85
840.31	211.92
840.63	211.86
840.94	211.84
841.26	211.77
841.57	211.74
841.88	211.78
842.20	211.77
842.51	211.73
842.83	211.71
843.14	212.04
843.46	212.13
843.77	211.94
844.08	211.85
844.40	211.74
844.71	211.65
845.03	211.66
845.34	211.61
845.65	211.65
845.97	211.56
846.28	211.62
846.60	211.57
846.91	211.48
847.22	211.53
847.54	211.68
847.85	211.66
848.16	211.72
848.48	211.65
848.79	211.85
849.10	211.89
849.42	211.96
849.73	211.63
850.04	211.61
850.36	211.46
850.67	211.60
850.98	211.59
851.30	211.64
851.61	211.62
851.92	211.62
852.23	211.72
852.55	211.80
852.86	211.80
853.17	211.83
853.49	211.94
853.80	211.92
854.11	211.91
854.42	211.97
854.74	211.94
855.05	212.00
855.36	211.73
855.67	211.77
855.99	211.72
856.30	212.16
856.61	212.07
856.92	212.11
857.23	212.01
857.55	212.02
857.86	211.96
858.17	212.01
858.48	211.93
858.79	211.85
859.11	211.92
859.42	211.87
859.73	211.83
860.04	211.83
860.35	211.71
860.66	211.59
860.98	211.60
861.29	211.59
861.60	211.58
861.91	211.70
862.22	211.66
862.53	211.60
862.84	211.09
863.16	211.17
863.47	211.11
863.78	211.10
864.09	211.11
864.40	211.26
864.71	211.23
865.02	211.26
865.33	211.22
865.64	211.11
865.95	211.10
866.27	211.32
866.58	211.30
866.89	211.39
867.20	211.29
867.51	211.26
867.82	211.25
868.13	211.33
868.44	211.21
868.75	211.27
869.06	211.34
869.37	211.41
869.68	211.32
869.99	211.30
870.30	211.36
870.61	211.38
870.92	211.29
871.23	211.28
871.54	211.26
871.85	211.30
872.16	211.33
872.47	211.28
872.78	211.07
873.09	211.05
873.40	211.01
873.71	211.10
874.02	211.12
874.33	211.12
874.64	211.04
874.95	211.13
875.26	211.06
875.56	211.01
875.87	211.06
876.18	211.13
876.49	211.51
876.80	211.50
877.11	211.48
877.42	211.42
877.73	211.42
878.04	211.47
878.35	211.47
878.66	211.46
878.96	211.48
879.27	211.50
879.58	211.47
879.89	211.50
880.20	211.60
880.51	211.56
880.82	211.52
881.12	211.53
881.43	211.48
881.74	211.47
882.05	211.45
882.36	211.42
882.67	211.40
882.97	211.01
883.28	211.06
883.59	211.03
883.90	211.08
884.21	211.18
884.51	211.19
884.82	211.17
885.13	211.22
885.44	211.25
885.74	211.29
886.05	211.26
886.36	211.24
886.67	211.18
886.98	211.38
887.28	211.51
887.59	211.54
887.90	211.56
888.20	211.54
888.51	211.59
888.82	211.60
889.13	211.63
889.43	212.01
889.74	211.90
890.05	211.90
890.35	211.89
890.66	211.83
890.97	211.82
891.28	211.83
891.58	211.81
891.89	211.78
892.20	211.72
892.50	211.73
892.81	211.65
893.12	211.65
893.42	211.45
893.73	211.37
894.04	211.35
894.34	211.32
894.65	211.32
894.95	211.29
895.26	211.23
895.57	211.32
895.87	210.91
896.18	211.02
896.48	211.03
896.79	211.01
897.10	211.04
897.40	211.03
897.71	211.00
898.01	210.95
898.32	210.98
898.63	211.01
898.93	211.08
899.24	211.11
899.54	211.09
899.85	211.12
900.15	211.10
900.46	211.10
900.76	211.16
901.07	211.17
901.38	211.16
901.68	211.20
901.99	211.04
902.29	211.04
902.60	211.04
902.90	210.95
903.21	210.96
903.51	210.92
903.82	211.00
904.12	211.04
904.43	211.07
904.73	211.03
905.03	210.98
905.34	211.29
905.64	211.34
905.95	211.35
906.25	211.29
906.56	211.27
906.86	211.29
907.17	211.20
907.47	211.22
907.77	211.18
908.08	211.14
908.38	211.14
908.69	211.25
908.99	211.22
909.30	211.34
909.60	211.36
909.90	211.39
910.21	211.27
910.51	211.21
910.81	211.16
911.12	211.25
911.42	211.23
911.73	210.85
912.03	210.91
912.33	210.96
912.64	210.97
912.94	210.97
913.24	210.90
913.55	210.99
913.85	210.92
914.15	210.99
914.46	211.02
914.76	211.00
915.06	210.97
915.37	210.95
915.67	210.87
915.97	210.93
916.27	210.89
916.58	210.92
916.88	210.91
917.18	210.93
917.49	211.09
917.79	211.16
918.09	211.26
918.39	211.28
918.70	211.24
919.00	211.23
919.30	211.37
919.60	211.31
919.91	211.23
920.21	211.27
920.51	211.21
920.81	211.17
921.12	211.25
921.42	211.24
921.72	211.29
922.02	211.34
922.32	211.33
922.63	211.23
922.93	211.37
923.23	211.38
923.53	211.36
923.83	211.16
924.13	211.16
924.44	211.15
924.74	211.24
925.04	211.33
925.34	211.34
925.64	211.21
925.94	211.26
926.24	211.50
926.55	211.48
926.85	211.50
927.15	211.50
927.45	211.51
927.75	211.50
928.05	211.42
928.35	211.36
928.65	211.37
928.95	211.52
929.26	211.40
929.56	211.48
929.86	211.52
930.16	211.53
930.46	211.52
930.76	211.46
931.06	211.37
931.36	211.28
931.66	211.35
931.96	211.43
932.26	211.39
932.56	211.19
932.86	211.27
933.16	211.33
933.46	211.34
933.76	211.23
934.06	211.35
934.36	211.48
934.66	211.50
934.96	211.51
935.26	211.49
935.56	211.55
935.86	211.46
936.16	211.49
936.46	211.41
936.76	211.39
937.06	211.37
937.36	211.33
937.66	211.34
937.96	211.30
938.26	211.26
938.56	211.29
938.86	211.35
939.16	211.34
939.46	211.34
939.76	211.35
940.06	211.38
940.35	211.30
940.65	211.20
940.95	211.21
941.25	211.05
941.55	211.00
941.85	210.99
942.15	211.06
942.45	211.14
942.75	211.17
943.04	211.21
943.34	211.26
943.64	211.27
943.94	211.20
944.24	211.28
944.54	211.18
944.84	211.18
945.13	211.10
945.43	211.08
945.73	211.05
946.03	211.00
946.33	211.01
946.62	210.91
946.92	210.85
947.22	210.91
947.52	211.01
947.82	211.09
948.11	210.98
948.41	210.95
948.71	210.83
949.01	210.84
949.31	210.78
949.60	210.75
949.90	210.80
950.20	210.80
950.50	210.75
950.79	210.74
951.09	210.75
951.39	210.74
951.69	210.70
951.98	210.74
952.28	210.77
952.58	210.78
952.87	210.87
953.17	210.85
953.47	210.77
953.76	210.72
954.06	210.68
954.36	210.67
954.66	210.68
954.95	210.80
955.25	210.86
955.55	210.92
955.84	210.86
956.14	210.82
956.44	210.92
956.73	210.87
957.03	210.95
957.32	210.98
957.62	210.99
957.92	211.06
958.21	211.16
958.51	211.56
958.81	211.59
959.10	211.62
959.40	211.76
959.69	211.82
959.99	211.92
960.29	211.90
960.58	211.93
960.88	212.04
961.17	211.98
961.47	212.00
961.76	211.90
962.06	212.01
962.36	211.97
962.65	211.88
962.95	211.87
963.24	211.82
963.54	211.86
963.83	211.89
964.13	211.90
964.42	211.74
964.72	211.50
965.01	211.45
965.31	211.36
965.60	211.32
965.90	211.50
966.19	211.40
966.49	211.35
966.78	211.26
967.08	211.18
967.37	211.13
967.67	211.01
967.96	211.09
968.26	211.04
968.55	211.09
968.85	211.08
969.14	211.11
969.43	211.06
969.73	210.98
970.02	210.96
970.32	210.87
970.61	210.83
970.91	210.68
971.20	210.68
971.49	210.70
971.79	210.74
972.08	210.47
972.38	210.49
972.67	210.53
972.96	210.70
973.26	210.75
973.55	210.87
973.85	210.91
974.14	210.95
974.43	211.00
974.73	210.96
975.02	211.02
975.31	211.01
975.61	211.11
975.90	211.16
976.19	211.09
976.49	211.15
976.78	211.26
977.07	211.29
977.37	211.35
977.66	211.32
977.95	211.23
978.24	211.29
978.54	211.34
978.83	211.29
979.12	211.22
979.42	211.12
979.71	211.04
980.00	210.96
980.29	210.91
980.59	210.83
980.88	210.86
981.17	210.80
981.46	210.84
981.76	210.83
982.05	210.90
982.34	210.95
982.63	210.92
982.93	210.87
983.22	210.95
983.51	210.93
983.80	211.03
984.09	211.14
984.39	211.10
984.68	211.00
984.97	211.03
985.26	210.97
985.55	211.03
985.85	210.99
986.14	211.08
986.43	211.14
986.72	211.18
987.01	211.06
987.30	211.07
987.59	210.98
987.89	210.96
988.18	210.87
988.47	210.87
988.76	210.86
989.05	210.85
989.34	210.77
989.63	210.78
989.92	210.72
990.22	210.64
990.51	210.66
990.80	210.70
991.09	210.66
991.38	210.75
991.67	210.69
991.96	210.66
992.25	210.65
992.54	210.54
992.83	210.48
993.12	210.49
993.41	210.55
993.70	210.65
993.99	210.68
994.28	210.65
994.58	210.66
994.87	210.63
995.16	210.61
995.45	210.51
995.74	210.41
996.03	210.46
996.32	210.50
996.61	210.59
996.90	210.55
997.19	210.61
997.48	210.60
997.77	210.59
998.06	210.58
998.34	210.60
998.63	210.67
998.92	210.69
999.21	210.74
999.50	210.70
999.79	210.65
1000.08	210.68
1000.37	210.71
1000.66	210.66
1000.95	210.72
1001.24	210.73
1001.53	210.86
1001.82	210.85
1002.11	210.73
1002.40	210.71
1002.68	210.78
1002.97	211.04
1003.26	210.96
1003.55	210.86
1003.84	210.91
1004.13	211.09
1004.42	211.01
1004.71	211.06
1004.99	211.01
1005.28	211.14
1005.57	211.24
1005.86	211.16
1006.15	211.09
1006.44	211.06
1006.72	211.12
1007.01	211.10
1007.30	211.16
1007.59	211.11
1007.88	211.14
1008.17	211.14
1008.45	211.06
1008.74	210.86
1009.03	210.66
1009.32	210.69
1009.60	210.75
1009.89	210.65
1010.18	210.48
1010.47	210.49
1010.76	210.37
1011.04	210.35
1011.33	210.34
1011.62	210.24
1011.91	210.29
1012.19	210.26
1012.48	210.23
1012.77	210.22
1013.05	210.33
1013.34	210.24
1013.63	210.24
1013.92	210.30
1014.20	210.35
1014.49	210.40
1014.78	210.45
1015.06	210.36
1015.35	210.34
1015.64	210.36
1015.92	210.45
1016.21	210.46
1016.50	210.50
1016.78	210.54
1017.07	210.55
1017.36	210.49
1017.64	210.48
1017.93	210.53
1018.22	210.56
1018.50	210.56
1018.79	210.57
1019.08	210.46
1019.36	210.55
1019.65	210.53
1019.93	210.54
1020.22	210.56
1020.51	210.76
1020.79	210.74
1021.08	210.35
1021.36	209.60
1021.65	211.10
1021.94	210.95
1022.22	211.15
1022.51	210.30
1022.79	211.65
1023.08	210.85
1023.36	215.60
1023.65	209.35
>>>>>End Processed Spectral Data<<<<<
