SpectraSuite Data File
++++++++++++++++++++++++++++++++++++
Date: Mon Feb 25 17:09:16 EST 2013
User: group
Dark Spectrum Present: No
Reference Spectrum Present: No
Number of Sampled Component Spectra: 1
Spectrometers: USB2E7196
Integration Time (usec): 104000 (USB2E7196)
Spectra Averaged: 20 (USB2E7196)
Boxcar Smoothing: 10 (USB2E7196)
Correct for Electrical Dark: No (USB2E7196)
Strobe/Lamp Enabled: No (USB2E7196)
Correct for Detector Non-linearity: No (USB2E7196)
Correct for Stray Light: No (USB2E7196)
Number of Pixels in Processed Spectrum: 2048
>>>>>Begin Processed Spectral Data<<<<<
339.09	0.00
339.48	198.60
339.86	200.20
340.24	201.25
340.63	203.20
341.01	210.60
341.39	205.35
341.78	207.40
342.16	209.35
342.54	208.90
342.93	198.20
343.31	208.16
343.69	208.65
344.07	209.13
344.46	209.64
344.84	209.98
345.22	210.01
345.60	210.24
345.99	210.41
346.37	210.51
346.75	210.59
347.13	210.65
347.52	210.75
347.90	210.93
348.28	210.90
348.66	210.98
349.05	210.94
349.43	211.00
349.81	211.10
350.19	211.14
350.57	211.17
350.96	211.25
351.34	211.32
351.72	211.45
352.10	211.49
352.48	211.46
352.87	211.49
353.25	211.50
353.63	211.60
354.01	211.65
354.39	211.73
354.77	211.83
355.15	212.03
355.54	212.08
355.92	211.99
356.30	212.04
356.68	212.29
357.06	212.34
357.44	212.33
357.82	212.33
358.20	212.42
358.58	212.52
358.97	212.57
359.35	212.77
359.73	212.88
360.11	212.94
360.49	213.00
360.87	213.07
361.25	213.20
361.63	213.38
362.01	213.44
362.39	213.39
362.77	213.47
363.15	213.46
363.53	213.52
363.91	213.63
364.29	213.71
364.67	213.44
365.05	213.46
365.43	213.52
365.81	213.58
366.19	213.76
366.57	213.92
366.95	213.95
367.33	213.88
367.71	213.93
368.09	213.97
368.47	213.92
368.85	213.94
369.23	213.93
369.61	213.77
369.99	213.83
370.37	213.86
370.75	213.96
371.13	213.93
371.51	213.80
371.89	213.78
372.27	213.74
372.65	213.71
373.03	213.69
373.41	213.65
373.78	213.58
374.16	213.37
374.54	213.22
374.92	213.07
375.30	213.01
375.68	212.88
376.06	212.87
376.44	212.87
376.82	212.80
377.19	212.81
377.57	212.69
377.95	212.59
378.33	212.56
378.71	212.37
379.09	212.36
379.47	212.36
379.84	212.33
380.22	212.27
380.60	212.20
380.98	212.13
381.36	212.08
381.73	211.99
382.11	212.00
382.49	211.93
382.87	211.94
383.25	211.91
383.62	212.21
384.00	212.11
384.38	212.08
384.76	212.18
385.13	212.27
385.51	212.28
385.89	212.18
386.27	212.13
386.64	212.11
387.02	212.01
387.40	211.90
387.78	211.79
388.15	211.70
388.53	211.66
388.91	211.63
389.29	211.54
389.66	211.55
390.04	211.42
390.42	211.48
390.79	211.52
391.17	211.44
391.55	211.05
391.92	211.06
392.30	211.08
392.68	210.95
393.05	210.80
393.43	210.87
393.81	210.91
394.18	210.83
394.56	210.78
394.94	210.81
395.31	210.81
395.69	210.97
396.06	211.02
396.44	211.05
396.82	211.01
397.19	211.20
397.57	211.23
397.95	211.30
398.32	211.18
398.70	211.13
399.07	211.23
399.45	211.25
399.82	211.18
400.20	211.12
400.58	211.12
400.95	211.02
401.33	211.00
401.70	211.28
402.08	211.37
402.45	211.37
402.83	211.44
403.20	211.52
403.58	211.46
403.95	211.56
404.33	211.57
404.71	211.65
405.08	211.82
405.46	211.90
405.83	212.00
406.21	212.11
406.58	212.17
406.96	212.25
407.33	212.32
407.70	212.51
408.08	212.87
408.45	213.06
408.83	213.27
409.20	213.31
409.58	213.22
409.95	213.39
410.33	213.59
410.70	213.72
411.08	213.92
411.45	214.21
411.82	214.44
412.20	214.82
412.57	215.29
412.95	215.29
413.32	215.64
413.69	215.97
414.07	216.34
414.44	216.72
414.82	217.26
415.19	217.82
415.56	218.34
415.94	218.72
416.31	219.31
416.68	219.97
417.06	220.75
417.43	221.54
417.81	222.34
418.18	223.17
418.55	223.99
418.93	224.92
419.30	225.81
419.67	226.80
420.04	227.75
420.42	228.71
420.79	230.34
421.16	231.54
421.54	233.02
421.91	234.38
422.28	235.88
422.66	237.29
423.03	239.05
423.40	240.56
423.77	242.12
424.15	243.75
424.52	245.40
424.89	247.33
425.26	249.04
425.64	250.79
426.01	252.58
426.38	254.62
426.75	256.66
427.13	258.69
427.50	260.86
427.87	263.05
428.24	265.25
428.61	267.13
428.99	269.65
429.36	272.05
429.73	274.51
430.10	277.05
430.47	279.72
430.85	282.11
431.22	284.93
431.59	288.25
431.96	291.22
432.33	294.41
432.70	297.45
433.08	301.14
433.45	304.54
433.82	308.06
434.19	311.78
434.56	315.49
434.93	319.02
435.30	322.57
435.68	326.70
436.05	330.79
436.42	334.64
436.79	338.19
437.16	342.05
437.53	346.11
437.90	350.10
438.27	353.95
438.64	358.09
439.01	361.99
439.38	365.10
439.75	368.40
440.13	372.11
440.50	375.60
440.87	378.53
441.24	381.48
441.61	384.74
441.98	387.21
442.35	390.03
442.72	393.00
443.09	396.03
443.46	397.66
443.83	398.80
444.20	399.92
444.57	401.35
444.94	402.12
445.31	403.00
445.68	404.03
446.05	404.40
446.42	404.03
446.79	403.64
447.16	403.32
447.53	403.06
447.90	401.73
448.27	400.39
448.64	398.33
449.01	396.91
449.37	394.45
449.74	391.93
450.11	389.31
450.48	386.02
450.85	382.43
451.22	379.53
451.59	376.75
451.96	374.07
452.33	370.61
452.70	367.37
453.07	363.58
453.43	359.42
453.80	355.69
454.17	352.20
454.54	348.82
454.91	345.16
455.28	341.47
455.65	338.10
456.02	335.19
456.38	332.44
456.75	329.05
457.12	326.10
457.49	323.35
457.86	320.32
458.23	318.11
458.59	315.44
458.96	312.80
459.33	310.40
459.70	308.04
460.07	306.17
460.43	303.95
460.80	301.99
461.17	300.34
461.54	298.53
461.91	296.72
462.27	294.91
462.64	293.30
463.01	291.68
463.38	290.27
463.74	288.25
464.11	286.75
464.48	285.40
464.85	284.01
465.21	283.00
465.58	281.89
465.95	280.39
466.32	279.35
466.68	278.22
467.05	277.09
467.42	275.99
467.78	274.77
468.15	273.71
468.52	272.82
468.88	271.59
469.25	270.54
469.62	269.78
469.98	268.91
470.35	268.06
470.72	267.30
471.08	266.30
471.45	265.60
471.82	265.04
472.18	264.27
472.55	263.86
472.92	263.03
473.28	262.38
473.65	261.82
474.02	261.25
474.38	260.89
474.75	260.54
475.11	260.10
475.48	259.72
475.85	259.47
476.21	259.12
476.58	258.91
476.94	258.76
477.31	258.58
477.67	258.40
478.04	258.31
478.41	258.27
478.77	258.54
479.14	258.40
479.50	258.30
479.87	258.42
480.23	258.36
480.60	258.43
480.96	258.46
481.33	258.68
481.69	258.76
482.06	258.78
482.42	258.97
482.79	259.17
483.15	259.37
483.52	259.61
483.88	259.78
484.25	260.07
484.61	260.32
484.98	260.51
485.34	260.89
485.71	261.30
486.07	261.68
486.44	261.80
486.80	262.33
487.17	262.77
487.53	263.37
487.90	263.95
488.26	264.72
488.62	265.42
488.99	266.05
489.35	266.89
489.72	267.68
490.08	268.43
490.44	269.20
490.81	270.10
491.17	271.05
491.54	272.07
491.90	273.03
492.26	274.04
492.63	275.17
492.99	276.29
493.36	277.51
493.72	278.75
494.08	279.98
494.45	281.27
494.81	282.77
495.17	284.09
495.54	285.55
495.90	287.00
496.26	288.64
496.63	290.28
496.99	291.95
497.35	293.79
497.72	295.69
498.08	297.66
498.44	299.60
498.80	301.64
499.17	303.67
499.53	305.80
499.89	308.06
500.26	310.35
500.62	312.70
500.98	315.12
501.34	317.60
501.71	320.27
502.07	322.81
502.43	325.36
502.79	328.02
503.16	330.72
503.52	333.53
503.88	336.23
504.24	339.11
504.60	342.13
504.97	345.13
505.33	348.14
505.69	351.40
506.05	354.63
506.41	357.86
506.78	361.22
507.14	364.59
507.50	368.08
507.86	371.50
508.22	375.10
508.59	378.57
508.95	382.23
509.31	385.91
509.67	389.81
510.03	393.62
510.39	397.70
510.75	401.74
511.12	405.69
511.48	409.70
511.84	413.86
512.20	417.93
512.56	422.27
512.92	426.60
513.28	430.89
513.64	435.25
514.00	439.58
514.37	444.03
514.73	448.64
515.09	453.14
515.45	457.76
515.81	462.26
516.17	467.03
516.53	471.53
516.89	476.26
517.25	480.97
517.61	485.90
517.97	490.60
518.33	495.35
518.69	500.39
519.05	505.61
519.41	510.64
519.77	515.89
520.13	520.94
520.49	525.85
520.85	530.93
521.21	536.30
521.57	541.69
521.93	546.81
522.29	552.05
522.65	557.40
523.01	562.75
523.37	567.89
523.73	573.23
524.09	578.75
524.45	584.00
524.81	589.38
525.17	594.75
525.53	600.27
525.89	605.85
526.25	611.23
526.61	616.33
526.97	621.66
527.33	626.88
527.68	632.52
528.04	637.94
528.40	643.28
528.76	648.45
529.12	653.89
529.48	659.65
529.84	665.04
530.20	670.36
530.56	676.02
530.91	681.82
531.27	687.34
531.63	692.87
531.99	698.45
532.35	703.85
532.71	709.21
533.07	714.71
533.42	720.29
533.78	725.74
534.14	731.11
534.50	736.27
534.86	741.80
535.21	746.46
535.57	751.99
535.93	757.24
536.29	762.70
536.65	767.78
537.00	772.51
537.36	777.41
537.72	782.30
538.08	786.91
538.44	791.63
538.79	796.54
539.15	801.13
539.51	805.84
539.87	810.78
540.22	815.37
540.58	819.91
540.94	824.28
541.29	828.57
541.65	832.96
542.01	837.35
542.37	841.49
542.72	845.93
543.08	849.88
543.44	854.07
543.79	857.57
544.15	861.36
544.51	865.57
544.87	869.58
545.22	873.36
545.58	876.85
545.94	880.15
546.29	883.32
546.65	886.61
547.01	889.71
547.36	892.72
547.72	895.68
548.07	898.55
548.43	901.29
548.79	903.95
549.14	906.69
549.50	909.34
549.86	911.69
550.21	914.02
550.57	916.47
550.92	918.29
551.28	920.36
551.64	922.57
551.99	924.45
552.35	926.35
552.70	928.38
553.06	930.41
553.41	932.38
553.77	934.36
554.13	936.12
554.48	938.12
554.84	939.92
555.19	941.57
555.55	943.23
555.90	944.22
556.26	945.52
556.61	946.62
556.97	947.60
557.32	948.85
557.68	949.57
558.03	950.39
558.39	951.67
558.74	953.16
559.10	954.06
559.45	954.97
559.81	955.96
560.16	956.45
560.52	957.27
560.87	958.10
561.23	958.26
561.58	959.26
561.94	959.65
562.29	959.62
562.64	959.96
563.00	960.19
563.35	961.13
563.71	962.02
564.06	962.59
564.42	962.95
564.77	963.32
565.12	964.21
565.48	965.02
565.83	965.50
566.19	965.55
566.54	965.58
566.89	965.50
567.25	965.56
567.60	965.95
567.96	965.94
568.31	966.02
568.66	966.05
569.02	965.16
569.37	964.28
569.72	964.09
570.08	963.76
570.43	963.07
570.78	962.13
571.14	960.85
571.49	959.90
571.84	959.38
572.20	958.20
572.55	957.09
572.90	955.52
573.26	954.06
573.61	952.86
573.96	951.47
574.31	950.06
574.67	948.12
575.02	946.00
575.37	944.11
575.72	941.87
576.08	940.41
576.43	938.67
576.78	937.36
577.13	935.73
577.49	933.99
577.84	932.33
578.19	930.87
578.54	929.78
578.90	928.46
579.25	926.67
579.60	924.83
579.95	922.97
580.30	921.37
580.66	919.96
581.01	918.07
581.36	916.38
581.71	914.58
582.06	913.18
582.42	911.89
582.77	910.17
583.12	908.69
583.47	906.76
583.82	905.50
584.17	903.83
584.53	902.35
584.88	900.70
585.23	899.18
585.58	897.53
585.93	895.19
586.28	893.33
586.63	891.80
586.98	890.24
587.34	888.90
587.69	887.18
588.04	885.24
588.39	883.39
588.74	881.24
589.09	879.56
589.44	877.54
589.79	875.84
590.14	874.13
590.49	872.19
590.84	870.49
591.19	868.73
591.54	866.72
591.89	864.30
592.25	862.37
592.60	860.05
592.95	857.72
593.30	855.70
593.65	853.36
594.00	850.93
594.35	849.71
594.70	847.29
595.05	845.05
595.40	842.95
595.75	840.71
596.10	838.98
596.45	837.04
596.80	835.34
597.15	833.26
597.50	831.21
597.85	829.39
598.19	827.23
598.54	825.11
598.89	822.95
599.24	821.46
599.59	819.35
599.94	817.75
600.29	815.94
600.64	814.03
600.99	812.11
601.34	810.35
601.69	807.57
602.04	805.53
602.39	803.54
602.74	801.64
603.08	800.22
603.43	798.72
603.78	796.75
604.13	794.67
604.48	792.83
604.83	791.21
605.18	789.63
605.53	787.75
605.87	785.71
606.22	784.17
606.57	782.13
606.92	780.27
607.27	778.15
607.62	776.26
607.96	774.53
608.31	772.88
608.66	770.97
609.01	769.04
609.36	766.93
609.70	764.77
610.05	762.55
610.40	760.29
610.75	757.70
611.10	755.78
611.44	753.21
611.79	750.61
612.14	747.87
612.49	744.80
612.83	742.39
613.18	739.75
613.53	737.14
613.88	734.14
614.22	731.61
614.57	728.96
614.92	726.23
615.27	723.47
615.61	720.78
615.96	717.97
616.31	715.22
616.65	712.97
617.00	710.69
617.35	708.12
617.70	705.26
618.04	702.41
618.39	699.17
618.74	696.62
619.08	693.90
619.43	691.21
619.78	688.58
620.12	685.86
620.47	683.41
620.82	680.40
621.16	677.58
621.51	674.88
621.85	672.18
622.20	669.40
622.55	666.60
622.89	663.53
623.24	660.90
623.59	658.11
623.93	655.26
624.28	652.32
624.62	649.95
624.97	647.43
625.32	644.97
625.66	642.65
626.01	640.05
626.35	637.63
626.70	635.25
627.04	633.19
627.39	630.69
627.73	628.22
628.08	626.10
628.43	623.82
628.77	621.11
629.12	618.55
629.46	616.26
629.81	613.85
630.15	611.44
630.50	608.80
630.84	606.25
631.19	603.63
631.53	601.19
631.88	598.21
632.22	595.49
632.57	593.00
632.91	590.48
633.26	588.10
633.60	585.58
633.95	583.12
634.29	580.53
634.64	578.10
634.98	575.49
635.32	572.89
635.67	570.63
636.01	568.36
636.36	565.92
636.70	563.58
637.05	561.20
637.39	558.96
637.73	556.91
638.08	554.96
638.42	552.83
638.77	550.65
639.11	548.60
639.45	546.54
639.80	544.24
640.14	541.83
640.49	539.42
640.83	537.07
641.17	534.75
641.52	532.40
641.86	530.08
642.20	527.96
642.55	525.56
642.89	523.16
643.23	520.81
643.58	518.74
643.92	516.21
644.26	513.91
644.61	511.69
644.95	509.23
645.29	506.68
645.64	504.31
645.98	501.97
646.32	499.72
646.66	497.33
647.01	495.06
647.35	492.95
647.69	490.75
648.04	488.59
648.38	486.30
648.72	483.98
649.06	481.70
649.41	479.32
649.75	477.17
650.09	475.00
650.43	472.73
650.78	470.40
651.12	468.26
651.46	466.11
651.80	463.96
652.14	461.90
652.49	459.88
652.83	457.82
653.17	455.46
653.51	453.10
653.85	451.10
654.20	449.02
654.54	446.75
654.88	444.58
655.22	442.42
655.56	440.18
655.90	438.04
656.25	435.95
656.59	433.83
656.93	431.78
657.27	429.83
657.61	427.78
657.95	425.79
658.29	423.80
658.64	421.89
658.98	419.77
659.32	417.63
659.66	415.71
660.00	413.61
660.34	411.74
660.68	409.77
661.02	407.68
661.36	405.82
661.70	404.03
662.05	402.28
662.39	400.55
662.73	398.98
663.07	397.46
663.41	395.77
663.75	394.02
664.09	392.26
664.43	390.40
664.77	388.66
665.11	386.90
665.45	385.17
665.79	383.47
666.13	381.94
666.47	380.37
666.81	378.74
667.15	377.14
667.49	375.78
667.83	374.45
668.17	373.03
668.51	371.46
668.85	370.02
669.19	368.59
669.53	367.05
669.87	365.50
670.21	363.89
670.55	362.38
670.89	361.17
671.23	359.78
671.57	358.38
671.91	357.13
672.25	355.80
672.58	354.59
672.92	353.25
673.26	351.95
673.60	350.76
673.94	349.44
674.28	348.17
674.62	346.86
674.96	345.51
675.30	344.24
675.64	342.98
675.97	341.73
676.31	340.44
676.65	339.27
676.99	338.24
677.33	337.00
677.67	335.80
678.01	334.44
678.34	333.20
678.68	332.13
679.02	330.87
679.36	329.78
679.70	328.55
680.04	327.38
680.37	326.22
680.71	324.96
681.05	323.89
681.39	322.81
681.73	321.60
682.06	320.53
682.40	319.44
682.74	318.33
683.08	317.34
683.42	316.28
683.75	315.19
684.09	313.98
684.43	313.02
684.77	311.90
685.10	310.93
685.44	309.92
685.78	308.89
686.12	307.99
686.45	306.95
686.79	305.99
687.13	305.14
687.46	304.14
687.80	303.32
688.14	302.31
688.48	301.47
688.81	300.60
689.15	299.65
689.49	298.70
689.82	297.80
690.16	296.72
690.50	295.74
690.83	294.70
691.17	293.78
691.51	292.80
691.84	292.01
692.18	291.06
692.52	290.33
692.85	289.56
693.19	288.80
693.52	287.98
693.86	287.04
694.20	286.21
694.53	285.52
694.87	284.65
695.21	283.80
695.54	282.94
695.88	282.12
696.21	281.29
696.55	280.55
696.88	279.76
697.22	279.08
697.56	278.50
697.89	277.88
698.23	277.16
698.56	276.35
698.90	275.73
699.23	275.03
699.57	274.23
699.90	273.44
700.24	272.58
700.58	271.94
700.91	271.38
701.25	270.92
701.58	270.30
701.92	269.63
702.25	269.07
702.59	268.34
702.92	267.71
703.26	267.12
703.59	266.54
703.93	266.24
704.26	265.64
704.60	264.99
704.93	264.37
705.26	263.76
705.60	263.36
705.93	262.72
706.27	262.26
706.60	261.83
706.94	261.47
707.27	260.92
707.61	260.34
707.94	259.76
708.27	258.95
708.61	258.26
708.94	257.78
709.28	257.18
709.61	256.77
709.94	256.25
710.28	255.78
710.61	255.21
710.95	254.49
711.28	254.28
711.61	253.77
711.95	253.48
712.28	253.02
712.61	252.47
712.95	252.22
713.28	251.97
713.61	251.44
713.95	250.88
714.28	250.46
714.61	250.09
714.95	249.64
715.28	249.21
715.61	248.82
715.95	248.45
716.28	248.01
716.61	247.61
716.95	247.20
717.28	246.74
717.61	246.37
717.94	246.01
718.28	245.31
718.61	244.89
718.94	244.37
719.27	243.97
719.61	243.69
719.94	243.27
720.27	242.66
720.60	242.39
720.94	242.00
721.27	241.75
721.60	241.41
721.93	241.12
722.27	240.96
722.60	240.71
722.93	240.28
723.26	239.94
723.59	239.56
723.93	239.29
724.26	239.05
724.59	238.81
724.92	238.48
725.25	238.30
725.59	238.13
725.92	237.89
726.25	237.58
726.58	237.30
726.91	237.01
727.24	236.85
727.57	236.53
727.91	236.19
728.24	235.99
728.57	235.71
728.90	235.53
729.23	235.14
729.56	235.02
729.89	234.77
730.22	234.65
730.55	234.44
730.89	234.23
731.22	233.91
731.55	233.67
731.88	233.44
732.21	233.18
732.54	232.81
732.87	232.61
733.20	232.43
733.53	232.27
733.86	231.99
734.19	231.67
734.52	231.46
734.85	231.63
735.18	231.33
735.51	231.24
735.84	231.09
736.17	230.95
736.50	230.60
736.83	230.99
737.16	230.69
737.49	230.52
737.82	230.23
738.15	230.29
738.48	230.05
738.81	229.84
739.14	229.62
739.47	229.53
739.80	229.29
740.13	229.13
740.46	228.84
740.79	228.63
741.12	228.52
741.45	228.29
741.78	227.90
742.11	227.77
742.44	227.47
742.77	227.33
743.10	227.09
743.43	226.80
743.75	226.13
744.08	226.50
744.41	226.29
744.74	226.15
745.07	225.83
745.40	225.72
745.73	225.78
746.06	225.61
746.39	225.49
746.71	225.37
747.04	225.20
747.37	225.13
747.70	225.01
748.03	224.86
748.36	224.84
748.68	224.66
749.01	224.48
749.34	224.38
749.67	224.20
750.00	224.12
750.33	224.33
750.65	224.27
750.98	223.69
751.31	223.56
751.64	223.46
751.97	223.57
752.29	223.49
752.62	223.16
752.95	222.96
753.28	222.75
753.60	222.64
753.93	222.67
754.26	222.55
754.59	222.31
754.91	222.14
755.24	222.00
755.57	221.94
755.90	221.83
756.22	221.71
756.55	221.57
756.88	221.43
757.20	221.05
757.53	220.79
757.86	220.66
758.19	220.62
758.51	220.63
758.84	220.26
759.17	220.04
759.49	219.94
759.82	220.07
760.15	220.03
760.47	219.86
760.80	219.67
761.13	219.62
761.45	219.58
761.78	219.51
762.11	219.35
762.43	219.14
762.76	219.05
763.08	218.98
763.41	218.85
763.74	218.80
764.06	218.75
764.39	218.72
764.71	218.69
765.04	218.59
765.37	218.44
765.69	218.42
766.02	218.38
766.34	218.26
766.67	218.05
767.00	217.98
767.32	218.10
767.65	218.23
767.97	218.04
768.30	218.00
768.62	217.93
768.95	217.83
769.27	217.82
769.60	217.74
769.92	217.62
770.25	217.50
770.57	217.33
770.90	217.26
771.22	217.17
771.55	217.09
771.87	216.96
772.20	216.86
772.52	217.07
772.85	217.47
773.17	217.45
773.50	217.40
773.82	217.29
774.15	217.03
774.47	216.67
774.80	216.60
775.12	216.55
775.45	216.48
775.77	216.51
776.09	216.47
776.42	216.47
776.74	216.61
777.07	216.53
777.39	216.49
777.72	216.44
778.04	216.43
778.36	216.31
778.69	216.34
779.01	216.37
779.33	216.02
779.66	215.56
779.98	215.54
780.31	215.49
780.63	215.62
780.95	215.70
781.28	215.72
781.60	215.67
781.92	215.60
782.25	215.54
782.57	215.43
782.89	215.36
783.22	215.28
783.54	215.08
783.86	215.19
784.19	215.14
784.51	215.15
784.83	215.09
785.16	215.10
785.48	215.02
785.80	214.92
786.12	214.99
786.45	214.90
786.77	214.86
787.09	214.86
787.42	214.70
787.74	214.68
788.06	214.72
788.38	214.69
788.71	214.64
789.03	214.67
789.35	214.68
789.67	214.65
789.99	214.72
790.32	214.74
790.64	214.67
790.96	214.91
791.28	214.75
791.61	214.72
791.93	214.69
792.25	214.68
792.57	214.95
792.89	214.84
793.21	214.91
793.54	214.90
793.86	214.80
794.18	214.83
794.50	214.69
794.82	214.61
795.14	214.69
795.47	214.84
795.79	214.82
796.11	214.78
796.43	214.76
796.75	214.70
797.07	214.60
797.39	214.56
797.71	214.35
798.04	214.37
798.36	214.32
798.68	214.31
799.00	214.34
799.32	214.10
799.64	214.02
799.96	213.93
800.28	213.91
800.60	213.86
800.92	213.80
801.24	213.74
801.56	213.75
801.89	213.61
802.21	213.52
802.53	213.43
802.85	213.50
803.17	213.61
803.49	213.45
803.81	213.41
804.13	213.36
804.45	213.30
804.77	213.36
805.09	213.36
805.41	213.25
805.73	213.16
806.05	213.03
806.37	213.15
806.69	213.07
807.01	213.00
807.33	213.04
807.65	212.87
807.97	212.99
808.28	212.87
808.60	212.81
808.92	212.77
809.24	212.96
809.56	212.89
809.88	212.71
810.20	212.73
810.52	212.72
810.84	212.72
811.16	212.62
811.48	212.58
811.80	212.75
812.12	212.82
812.43	212.90
812.75	212.94
813.07	212.79
813.39	212.85
813.71	212.79
814.03	212.73
814.35	212.79
814.67	212.63
814.98	212.60
815.30	212.70
815.62	212.57
815.94	212.26
816.26	212.24
816.58	212.16
816.89	212.16
817.21	212.13
817.53	212.11
817.85	212.20
818.17	212.17
818.48	211.93
818.80	211.98
819.12	211.85
819.44	211.77
819.76	211.75
820.07	211.75
820.39	211.80
820.71	211.83
821.03	211.83
821.34	211.85
821.66	211.92
821.98	211.96
822.30	212.03
822.61	212.27
822.93	212.29
823.25	212.27
823.57	212.28
823.88	212.39
824.20	212.32
824.52	212.26
824.83	212.26
825.15	212.24
825.47	212.12
825.79	212.10
826.10	212.06
826.42	212.06
826.74	212.08
827.05	212.09
827.37	212.10
827.69	212.05
828.00	212.10
828.32	212.09
828.64	211.95
828.95	212.04
829.27	211.96
829.58	211.94
829.90	212.00
830.22	211.99
830.53	211.85
830.85	211.92
831.17	211.90
831.48	211.86
831.80	211.92
832.11	211.88
832.43	211.87
832.75	211.85
833.06	212.05
833.38	211.89
833.69	211.85
834.01	211.78
834.32	211.84
834.64	211.75
834.96	211.76
835.27	211.77
835.59	211.62
835.90	211.57
836.22	211.54
836.53	211.44
836.85	211.44
837.16	211.80
837.48	211.72
837.79	211.82
838.11	211.85
838.42	211.83
838.74	211.88
839.05	211.85
839.37	211.87
839.68	211.66
840.00	211.67
840.31	211.71
840.63	211.75
840.94	211.65
841.26	211.57
841.57	211.57
841.88	211.62
842.20	211.65
842.51	211.58
842.83	211.56
843.14	211.87
843.46	211.85
843.77	211.68
844.08	211.72
844.40	211.63
844.71	211.56
845.03	211.48
845.34	211.51
845.65	211.54
845.97	211.58
846.28	211.64
846.60	211.74
846.91	211.69
847.22	211.59
847.54	211.69
847.85	211.76
848.16	211.69
848.48	211.65
848.79	211.76
849.10	211.77
849.42	211.68
849.73	211.41
850.04	211.35
850.36	211.21
850.67	211.18
850.98	211.18
851.30	211.24
851.61	211.25
851.92	211.26
852.23	211.41
852.55	211.45
852.86	211.45
853.17	211.45
853.49	211.47
853.80	211.64
854.11	211.65
854.42	211.72
854.74	211.75
855.05	211.76
855.36	211.58
855.67	211.59
855.99	211.74
856.30	212.14
856.61	212.21
856.92	212.18
857.23	212.16
857.55	212.07
857.86	212.06
858.17	212.10
858.48	211.97
858.79	211.85
859.11	211.78
859.42	211.72
859.73	211.65
860.04	211.67
860.35	211.51
860.66	211.47
860.98	211.39
861.29	211.45
861.60	211.42
861.91	211.54
862.22	211.48
862.53	211.38
862.84	210.95
863.16	211.00
863.47	211.00
863.78	211.04
864.09	211.10
864.40	211.12
864.71	211.10
865.02	211.24
865.33	211.20
865.64	211.14
865.95	211.14
866.27	211.36
866.58	211.24
866.89	211.37
867.20	211.33
867.51	211.30
867.82	211.21
868.13	211.28
868.44	211.21
868.75	211.27
869.06	211.34
869.37	211.33
869.68	211.24
869.99	211.27
870.30	211.27
870.61	211.30
870.92	211.23
871.23	211.22
871.54	211.19
871.85	211.33
872.16	211.45
872.47	211.44
872.78	211.21
873.09	211.26
873.40	211.13
873.71	211.16
874.02	211.21
874.33	211.23
874.64	211.21
874.95	211.27
875.26	211.22
875.56	211.18
875.87	211.29
876.18	211.32
876.49	211.70
876.80	211.71
877.11	211.67
877.42	211.68
877.73	211.71
878.04	211.70
878.35	211.65
878.66	211.62
878.96	211.63
879.27	211.63
879.58	211.66
879.89	211.73
880.20	211.80
880.51	211.80
880.82	211.80
881.12	211.81
881.43	211.71
881.74	211.74
882.05	211.75
882.36	211.66
882.67	211.64
882.97	211.24
883.28	211.21
883.59	211.20
883.90	211.18
884.21	211.20
884.51	211.14
884.82	211.09
885.13	211.10
885.44	211.09
885.74	211.19
886.05	211.19
886.36	211.15
886.67	211.06
886.98	211.23
887.28	211.24
887.59	211.22
887.90	211.25
888.20	211.24
888.51	211.30
888.82	211.27
889.13	211.25
889.43	211.52
889.74	211.50
890.05	211.53
890.35	211.53
890.66	211.53
890.97	211.49
891.28	211.43
891.58	211.43
891.89	211.41
892.20	211.26
892.50	211.22
892.81	211.20
893.12	211.19
893.42	211.08
893.73	211.08
894.04	211.07
894.34	211.07
894.65	211.08
894.95	210.98
895.26	210.95
895.57	211.17
895.87	210.83
896.18	210.93
896.48	210.90
896.79	210.84
897.10	210.89
897.40	210.95
897.71	211.05
898.01	211.00
898.32	211.02
898.63	211.11
898.93	211.20
899.24	211.20
899.54	211.20
899.85	211.09
900.15	211.09
900.46	211.07
900.76	211.14
901.07	211.13
901.38	211.18
901.68	211.25
901.99	211.05
902.29	211.07
902.60	210.98
902.90	210.98
903.21	211.05
903.51	210.93
903.82	210.98
904.12	210.93
904.43	210.93
904.73	210.88
905.03	210.83
905.34	211.15
905.64	211.10
905.95	211.01
906.25	211.01
906.56	210.96
906.86	210.96
907.17	210.93
907.47	210.97
907.77	210.92
908.08	210.87
908.38	210.89
908.69	210.99
908.99	211.13
909.30	211.18
909.60	211.12
909.90	211.21
910.21	211.14
910.51	211.11
910.81	211.15
911.12	211.17
911.42	211.18
911.73	210.74
912.03	210.78
912.33	210.97
912.64	211.01
912.94	211.04
913.24	210.99
913.55	210.97
913.85	210.88
914.15	210.93
914.46	211.00
914.76	210.97
915.06	210.90
915.37	210.77
915.67	210.68
915.97	210.75
916.27	210.65
916.58	210.70
916.88	210.65
917.18	210.61
917.49	210.83
917.79	210.79
918.09	210.90
918.39	210.99
918.70	210.92
919.00	210.91
919.30	211.12
919.60	211.11
919.91	211.07
920.21	211.09
920.51	211.02
920.81	211.02
921.12	211.10
921.42	211.16
921.72	211.25
922.02	211.34
922.32	211.38
922.63	211.43
922.93	211.57
923.23	211.67
923.53	211.64
923.83	211.45
924.13	211.55
924.44	211.50
924.74	211.57
925.04	211.67
925.34	211.69
925.64	211.47
925.94	211.49
926.24	211.72
926.55	211.73
926.85	211.80
927.15	211.75
927.45	211.70
927.75	211.59
928.05	211.58
928.35	211.56
928.65	211.60
928.95	211.69
929.26	211.54
929.56	211.55
929.86	211.56
930.16	211.55
930.46	211.49
930.76	211.54
931.06	211.35
931.36	211.25
931.66	211.23
931.96	211.29
932.26	211.35
932.56	211.16
932.86	211.17
933.16	211.17
933.46	211.18
933.76	211.18
934.06	211.28
934.36	211.39
934.66	211.40
934.96	211.30
935.26	211.21
935.56	211.19
935.86	211.11
936.16	211.12
936.46	211.10
936.76	211.10
937.06	211.01
937.36	211.13
937.66	211.15
937.96	211.12
938.26	211.01
938.56	210.89
938.86	210.87
939.16	210.96
939.46	210.96
939.76	210.94
940.06	210.90
940.35	210.89
940.65	210.68
940.95	210.65
941.25	210.65
941.55	210.65
941.85	210.68
942.15	210.74
942.45	210.84
942.75	210.80
943.04	210.76
943.34	210.83
943.64	210.67
943.94	210.60
944.24	210.64
944.54	210.65
944.84	210.70
945.13	210.68
945.43	210.61
945.73	210.61
946.03	210.64
946.33	210.63
946.62	210.52
946.92	210.53
947.22	210.54
947.52	210.47
947.82	210.51
948.11	210.48
948.41	210.37
948.71	210.30
949.01	210.34
949.31	210.39
949.60	210.46
949.90	210.55
950.20	210.53
950.50	210.52
950.79	210.57
951.09	210.63
951.39	210.63
951.69	210.63
951.98	210.62
952.28	210.63
952.58	210.67
952.87	210.73
953.17	210.73
953.47	210.74
953.76	210.79
954.06	210.71
954.36	210.64
954.66	210.70
954.95	210.76
955.25	210.78
955.55	210.76
955.84	210.58
956.14	210.64
956.44	210.69
956.73	210.64
957.03	210.67
957.32	210.61
957.62	210.59
957.92	210.62
958.21	210.63
958.51	211.02
958.81	211.04
959.10	211.00
959.40	211.10
959.69	211.05
959.99	211.16
960.29	211.22
960.58	211.26
960.88	211.38
961.17	211.36
961.47	211.43
961.76	211.38
962.06	211.45
962.36	211.39
962.65	211.42
962.95	211.50
963.24	211.42
963.54	211.44
963.83	211.51
964.13	211.50
964.42	211.37
964.72	211.08
965.01	211.11
965.31	211.13
965.60	211.03
965.90	211.33
966.19	211.17
966.49	211.17
966.78	211.16
967.08	211.14
967.37	211.13
967.67	210.98
967.96	211.09
968.26	211.10
968.55	211.15
968.85	211.08
969.14	211.08
969.43	211.14
969.73	211.12
970.02	211.07
970.32	211.07
970.61	211.11
970.91	211.03
971.20	210.93
971.49	210.98
971.79	210.99
972.08	210.65
972.38	210.70
972.67	210.68
972.96	210.71
973.26	210.59
973.55	210.65
973.85	210.68
974.14	210.60
974.43	210.70
974.73	210.68
975.02	210.71
975.31	210.73
975.61	210.70
975.90	210.72
976.19	210.69
976.49	210.65
976.78	210.68
977.07	210.72
977.37	210.76
977.66	210.78
977.95	210.82
978.24	210.96
978.54	211.00
978.83	211.06
979.12	211.02
979.42	211.14
979.71	211.11
980.00	211.08
980.29	211.14
980.59	211.05
980.88	211.13
981.17	211.10
981.46	211.02
981.76	210.99
982.05	211.10
982.34	211.15
982.63	211.12
982.93	211.15
983.22	211.24
983.51	211.26
983.80	211.30
984.09	211.31
984.39	211.23
984.68	211.15
984.97	211.09
985.26	211.07
985.55	211.09
985.85	211.06
986.14	211.15
986.43	211.24
986.72	211.25
987.01	211.16
987.30	211.17
987.59	211.20
987.89	211.20
988.18	211.12
988.47	211.09
988.76	211.09
989.05	211.02
989.34	210.95
989.63	211.03
989.92	210.99
990.22	210.91
990.51	210.97
990.80	210.96
991.09	210.96
991.38	211.02
991.67	210.99
991.96	211.00
992.25	210.97
992.54	210.85
992.83	210.84
993.12	210.82
993.41	210.85
993.70	210.93
993.99	211.03
994.28	211.06
994.58	211.10
994.87	211.09
995.16	211.05
995.45	211.03
995.74	210.89
996.03	210.91
996.32	210.99
996.61	211.03
996.90	211.03
997.19	211.02
997.48	211.02
997.77	210.93
998.06	210.88
998.34	210.87
998.63	210.88
998.92	210.91
999.21	210.89
999.50	210.91
999.79	210.88
1000.08	210.85
1000.37	210.85
1000.66	210.80
1000.95	210.89
1001.24	210.92
1001.53	210.92
1001.82	210.96
1002.11	210.86
1002.40	210.90
1002.68	210.93
1002.97	211.17
1003.26	211.13
1003.55	211.03
1003.84	211.07
1004.13	211.14
1004.42	211.12
1004.71	211.09
1004.99	211.04
1005.28	211.15
1005.57	211.06
1005.86	210.99
1006.15	210.91
1006.44	210.85
1006.72	210.84
1007.01	210.78
1007.30	210.83
1007.59	210.73
1007.88	210.68
1008.17	210.72
1008.45	210.63
1008.74	210.51
1009.03	210.31
1009.32	210.34
1009.60	210.34
1009.89	210.32
1010.18	210.23
1010.47	210.24
1010.76	210.24
1011.04	210.25
1011.33	210.24
1011.62	210.33
1011.91	210.39
1012.19	210.43
1012.48	210.42
1012.77	210.45
1013.05	210.61
1013.34	210.62
1013.63	210.68
1013.92	210.75
1014.20	210.74
1014.49	210.80
1014.78	210.92
1015.06	210.87
1015.35	210.89
1015.64	210.92
1015.92	210.97
1016.21	210.98
1016.50	210.98
1016.78	211.05
1017.07	211.01
1017.36	210.94
1017.64	210.92
1017.93	210.93
1018.22	210.89
1018.50	210.88
1018.79	210.88
1019.08	210.72
1019.36	210.69
1019.65	210.65
1019.93	210.76
1020.22	210.79
1020.51	210.92
1020.79	210.81
1021.08	209.90
1021.36	210.05
1021.65	210.25
1021.94	210.40
1022.22	210.10
1022.51	210.35
1022.79	213.45
1023.08	210.85
1023.36	214.95
1023.65	209.80
>>>>>End Processed Spectral Data<<<<<
