SpectraSuite Data File
++++++++++++++++++++++++++++++++++++
Date: Mon Feb 25 17:18:40 EST 2013
User: group
Dark Spectrum Present: No
Reference Spectrum Present: No
Number of Sampled Component Spectra: 1
Spectrometers: USB2E7196
Integration Time (usec): 104000 (USB2E7196)
Spectra Averaged: 20 (USB2E7196)
Boxcar Smoothing: 10 (USB2E7196)
Correct for Electrical Dark: No (USB2E7196)
Strobe/Lamp Enabled: No (USB2E7196)
Correct for Detector Non-linearity: No (USB2E7196)
Correct for Stray Light: No (USB2E7196)
Number of Pixels in Processed Spectrum: 2048
>>>>>Begin Processed Spectral Data<<<<<
339.09	0.00
339.48	198.50
339.86	200.60
340.24	201.40
340.63	202.30
341.01	209.80
341.39	206.90
341.78	208.00
342.16	209.55
342.54	208.85
342.93	198.54
343.31	208.58
343.69	209.15
344.07	209.67
344.46	210.16
344.84	210.62
345.22	210.67
345.60	210.94
345.99	211.06
346.37	211.17
346.75	211.29
347.13	211.35
347.52	211.40
347.90	211.54
348.28	211.51
348.66	211.58
349.05	211.54
349.43	211.61
349.81	211.74
350.19	211.73
350.57	211.90
350.96	212.09
351.34	212.23
351.72	212.33
352.10	212.39
352.48	212.37
352.87	212.42
353.25	212.46
353.63	212.49
354.01	212.56
354.39	212.62
354.77	212.76
355.15	212.90
355.54	212.96
355.92	212.95
356.30	213.01
356.68	213.33
357.06	213.42
357.44	213.39
357.82	213.45
358.20	213.64
358.58	213.70
358.97	213.72
359.35	213.77
359.73	213.88
360.11	213.90
360.49	214.02
360.87	214.05
361.25	214.18
361.63	214.36
362.01	214.45
362.39	214.50
362.77	214.53
363.15	214.60
363.53	214.66
363.91	214.69
364.29	214.78
364.67	214.41
365.05	214.53
365.43	214.61
365.81	214.80
366.19	214.95
366.57	215.00
366.95	215.03
367.33	214.98
367.71	215.03
368.09	215.19
368.47	215.18
368.85	215.23
369.23	215.32
369.61	215.15
369.99	215.23
370.37	215.30
370.75	215.49
371.13	215.38
371.51	215.37
371.89	215.42
372.27	215.36
372.65	215.40
373.03	215.37
373.41	215.35
373.78	215.23
374.16	215.02
374.54	214.89
374.92	214.84
375.30	214.84
375.68	214.70
376.06	214.57
376.44	214.49
376.82	214.48
377.19	214.39
377.57	214.34
377.95	214.20
378.33	214.06
378.71	213.80
379.09	213.82
379.47	213.75
379.84	213.70
380.22	213.66
380.60	213.58
380.98	213.52
381.36	213.47
381.73	213.33
382.11	213.34
382.49	213.32
382.87	213.19
383.25	213.13
383.62	213.44
384.00	213.42
384.38	213.47
384.76	213.49
385.13	213.60
385.51	213.58
385.89	213.58
386.27	213.47
386.64	213.47
387.02	213.37
387.40	213.35
387.78	213.30
388.15	213.28
388.53	213.25
388.91	213.17
389.29	213.09
389.66	213.11
390.04	213.07
390.42	213.11
390.79	213.13
391.17	213.14
391.55	212.75
391.92	212.67
392.30	212.68
392.68	212.60
393.05	212.55
393.43	212.49
393.81	212.45
394.18	212.53
394.56	212.56
394.94	212.71
395.31	212.60
395.69	212.75
396.06	212.78
396.44	212.80
396.82	212.75
397.19	213.02
397.57	213.06
397.95	213.14
398.32	213.09
398.70	213.10
399.07	213.18
399.45	213.23
399.82	213.26
400.20	213.24
400.58	213.22
400.95	213.05
401.33	213.25
401.70	213.57
402.08	213.61
402.45	213.65
402.83	213.73
403.20	213.93
403.58	213.89
403.95	214.15
404.33	214.34
404.71	214.45
405.08	214.66
405.46	214.76
405.83	214.90
406.21	215.05
406.58	215.29
406.96	215.48
407.33	215.81
407.70	216.16
408.08	216.68
408.45	217.02
408.83	217.46
409.20	217.72
409.58	217.80
409.95	218.26
410.33	218.60
410.70	218.92
411.08	219.36
411.45	219.86
411.82	220.17
412.20	220.74
412.57	221.58
412.95	221.84
413.32	222.50
413.69	223.13
414.07	223.86
414.44	224.64
414.82	225.36
415.19	226.17
415.56	227.01
415.94	227.85
416.31	229.02
416.68	230.14
417.06	231.39
417.43	232.71
417.81	234.05
418.18	235.46
418.55	236.94
418.93	238.53
419.30	240.06
419.67	241.78
420.04	243.51
420.42	245.22
420.79	247.62
421.16	249.77
421.54	252.03
421.91	254.39
422.28	256.76
422.66	259.30
423.03	261.97
423.40	264.58
423.77	267.23
424.15	269.94
424.52	272.80
424.89	275.95
425.26	278.92
425.64	281.92
426.01	285.20
426.38	288.67
426.75	292.04
427.13	295.65
427.50	299.45
427.87	303.29
428.24	307.16
428.61	310.67
428.99	314.83
429.36	319.18
429.73	323.45
430.10	327.77
430.47	332.31
430.85	336.70
431.22	341.56
431.59	346.89
431.96	351.78
432.33	357.15
432.70	362.38
433.08	368.51
433.45	374.20
433.82	379.99
434.19	386.23
434.56	392.56
434.93	398.59
435.30	404.51
435.68	411.17
436.05	417.66
436.42	424.08
436.79	429.90
437.16	436.34
437.53	443.10
437.90	449.72
438.27	456.25
438.64	462.96
439.01	469.26
439.38	474.67
439.75	479.88
440.13	486.03
440.50	491.80
440.87	496.47
441.24	501.35
441.61	506.57
441.98	510.40
442.35	514.90
442.72	519.30
443.09	523.77
443.46	526.36
443.83	528.11
444.20	529.70
444.57	531.85
444.94	532.71
445.31	533.66
445.68	534.80
446.05	534.98
446.42	534.25
446.79	533.33
447.16	532.27
447.53	531.71
447.90	529.09
448.27	526.41
448.64	522.90
449.01	520.20
449.37	515.82
449.74	511.59
450.11	506.60
450.48	501.15
450.85	495.39
451.22	490.41
451.59	485.81
451.96	481.18
452.33	475.34
452.70	469.98
453.07	463.50
453.43	456.87
453.80	450.68
454.17	444.80
454.54	439.19
454.91	433.25
455.28	427.29
455.65	421.81
456.02	416.84
456.38	412.16
456.75	406.46
457.12	401.46
457.49	396.72
457.86	391.90
458.23	388.04
458.59	383.76
458.96	379.48
459.33	375.54
459.70	371.78
460.07	368.58
460.43	365.00
460.80	361.83
461.17	358.92
461.54	355.95
461.91	353.04
462.27	350.07
462.64	347.58
463.01	344.79
463.38	342.27
463.74	339.24
464.11	336.93
464.48	334.92
464.85	332.85
465.21	331.22
465.58	329.51
465.95	327.24
466.32	325.43
466.68	323.70
467.05	321.93
467.42	320.18
467.78	318.50
468.15	316.83
468.52	315.53
468.88	313.89
469.25	312.35
469.62	311.15
469.98	309.86
470.35	308.67
470.72	307.72
471.08	306.44
471.45	305.48
471.82	304.59
472.18	303.54
472.55	302.85
472.92	302.02
473.28	301.26
473.65	300.58
474.02	299.90
474.38	299.39
474.75	299.06
475.11	298.70
475.48	298.40
475.85	298.17
476.21	298.02
476.58	297.94
476.94	297.97
477.31	298.05
477.67	298.11
478.04	298.24
478.41	298.50
478.77	299.13
479.14	299.34
479.50	299.66
479.87	300.22
480.23	300.70
480.60	301.15
480.96	301.75
481.33	302.64
481.69	303.44
482.06	304.20
482.42	305.11
482.79	305.98
483.15	307.02
483.52	308.33
483.88	309.50
484.25	310.81
484.61	312.25
484.98	313.69
485.34	315.36
485.71	317.14
486.07	318.97
486.44	320.66
486.80	322.70
487.17	324.85
487.53	327.26
487.90	329.76
488.26	332.55
488.62	335.37
488.99	338.19
489.35	341.25
489.72	344.60
490.08	347.88
490.44	351.47
490.81	355.34
491.17	359.16
491.54	363.38
491.90	367.69
492.26	372.22
492.63	376.98
492.99	381.89
493.36	387.10
493.72	392.70
494.08	398.39
494.45	404.39
494.81	410.76
495.17	417.17
495.54	424.04
495.90	431.08
496.26	438.52
496.63	446.20
496.99	454.24
497.35	462.47
497.72	471.21
498.08	480.24
498.44	489.64
498.80	499.79
499.17	510.04
499.53	520.58
499.89	531.71
500.26	542.98
500.62	554.60
500.98	566.85
501.34	579.42
501.71	592.45
502.07	606.14
502.43	619.89
502.79	633.94
503.16	648.71
503.52	663.88
503.88	679.30
504.24	695.07
504.60	711.33
504.97	728.28
505.33	745.52
505.69	763.96
506.05	782.56
506.41	801.16
506.78	819.98
507.14	839.45
507.50	859.34
507.86	879.75
508.22	900.62
508.59	921.65
508.95	943.08
509.31	964.92
509.67	987.45
510.03	1010.65
510.39	1034.67
510.75	1058.57
511.12	1082.78
511.48	1107.62
511.84	1133.03
512.20	1158.33
512.56	1184.38
512.92	1210.73
513.28	1237.02
513.64	1263.23
514.00	1289.89
514.37	1317.07
514.73	1344.56
515.09	1372.11
515.45	1399.53
515.81	1427.47
516.17	1455.42
516.53	1483.95
516.89	1512.80
517.25	1541.08
517.61	1569.46
517.97	1597.38
518.33	1625.92
518.69	1654.56
519.05	1683.07
519.41	1711.85
519.77	1741.00
520.13	1769.49
520.49	1797.79
520.85	1826.04
521.21	1855.01
521.57	1883.98
521.93	1912.00
522.29	1941.43
522.65	1970.16
523.01	1999.20
523.37	2027.20
523.73	2056.01
524.09	2084.43
524.45	2112.72
524.81	2140.87
525.17	2169.29
525.53	2197.74
525.89	2225.58
526.25	2253.16
526.61	2280.10
526.97	2306.88
527.33	2333.81
527.68	2360.71
528.04	2386.94
528.40	2412.39
528.76	2438.00
529.12	2463.83
529.48	2490.83
529.84	2516.30
530.20	2541.65
530.56	2566.49
530.91	2592.61
531.27	2617.76
531.63	2642.03
531.99	2666.01
532.35	2689.42
532.71	2712.25
533.07	2735.85
533.42	2757.98
533.78	2780.77
534.14	2802.84
534.50	2823.47
534.86	2845.14
535.21	2864.97
535.57	2886.51
535.93	2907.15
536.29	2926.84
536.65	2946.52
537.00	2964.61
537.36	2981.87
537.72	2999.21
538.08	3016.76
538.44	3033.93
538.79	3050.72
539.15	3067.46
539.51	3083.63
539.87	3100.76
540.22	3116.81
540.58	3132.98
540.94	3148.50
541.29	3162.11
541.65	3175.80
542.01	3189.99
542.37	3202.61
542.72	3216.62
543.08	3228.35
543.44	3241.58
543.79	3252.85
544.15	3263.49
544.51	3275.25
544.87	3287.13
545.22	3297.22
545.58	3306.65
545.94	3314.47
546.29	3322.04
546.65	3328.61
547.01	3335.53
547.36	3342.07
547.72	3348.29
548.07	3352.80
548.43	3357.84
548.79	3362.74
549.14	3367.46
549.50	3372.15
549.86	3375.32
550.21	3377.90
550.57	3381.69
550.92	3382.84
551.28	3384.60
551.64	3386.65
551.99	3388.46
552.35	3389.23
552.70	3390.66
553.06	3391.86
553.41	3393.19
553.77	3393.68
554.13	3394.63
554.48	3395.32
554.84	3395.42
555.19	3394.83
555.55	3393.61
555.90	3391.76
556.26	3390.22
556.61	3388.02
556.97	3385.07
557.32	3383.76
557.68	3380.74
558.03	3377.16
558.39	3374.79
558.74	3373.51
559.10	3371.50
559.45	3368.22
559.81	3365.02
560.16	3361.03
560.52	3357.74
560.87	3353.34
561.23	3348.58
561.58	3344.73
561.94	3339.38
562.29	3333.27
562.64	3328.21
563.00	3323.90
563.35	3320.62
563.71	3316.95
564.06	3313.04
564.42	3309.51
564.77	3305.08
565.12	3301.42
565.48	3297.26
565.83	3292.64
566.19	3288.01
566.54	3281.18
566.89	3274.84
567.25	3269.45
567.60	3264.27
567.96	3257.92
568.31	3252.46
568.66	3246.48
569.02	3239.36
569.37	3232.06
569.72	3225.84
570.08	3218.93
570.43	3211.15
570.78	3202.60
571.14	3194.11
571.49	3185.62
571.84	3177.77
572.20	3168.23
572.55	3160.00
572.90	3150.35
573.26	3140.45
573.61	3130.36
573.96	3121.01
574.31	3110.68
574.67	3099.32
575.02	3087.95
575.37	3077.30
575.72	3066.01
576.08	3056.53
576.43	3045.50
576.78	3035.63
577.13	3025.73
577.49	3015.24
577.84	3004.54
578.19	2995.07
578.54	2985.62
578.90	2976.54
579.25	2965.58
579.60	2954.60
579.95	2942.90
580.30	2932.96
580.66	2923.49
581.01	2912.19
581.36	2901.05
581.71	2890.38
582.06	2880.19
582.42	2870.26
582.77	2858.67
583.12	2847.65
583.47	2836.86
583.82	2827.01
584.17	2816.49
584.53	2805.58
584.88	2795.02
585.23	2784.40
585.58	2773.33
585.93	2761.65
586.28	2750.59
586.63	2739.79
586.98	2729.82
587.34	2720.05
587.69	2709.18
588.04	2698.18
588.39	2688.47
588.74	2677.55
589.09	2667.65
589.44	2656.93
589.79	2646.95
590.14	2637.52
590.49	2627.59
590.84	2616.65
591.19	2607.32
591.54	2597.01
591.89	2585.18
592.25	2574.01
592.60	2563.04
592.95	2551.51
593.30	2539.93
593.65	2528.03
594.00	2516.92
594.35	2507.72
594.70	2496.78
595.05	2486.26
595.40	2475.75
595.75	2463.83
596.10	2454.10
596.45	2443.93
596.80	2434.43
597.15	2424.28
597.50	2413.60
597.85	2403.45
598.19	2393.15
598.54	2382.71
598.89	2373.17
599.24	2364.94
599.59	2356.01
599.94	2347.67
600.29	2338.78
600.64	2329.87
600.99	2320.40
601.34	2311.41
601.69	2300.41
602.04	2290.39
602.39	2280.92
602.74	2271.61
603.08	2263.73
603.43	2255.45
603.78	2246.34
604.13	2237.00
604.48	2227.72
604.83	2220.33
605.18	2212.46
605.53	2203.44
605.87	2193.65
606.22	2184.69
606.57	2175.20
606.92	2165.92
607.27	2155.80
607.62	2146.34
607.96	2137.77
608.31	2129.78
608.66	2120.00
609.01	2110.55
609.36	2101.26
609.70	2091.09
610.05	2081.01
610.40	2070.93
610.75	2060.34
611.10	2051.03
611.44	2039.60
611.79	2028.78
612.14	2016.89
612.49	2005.36
612.83	1995.05
613.18	1984.01
613.53	1972.83
613.88	1961.19
614.22	1950.67
614.57	1940.15
614.92	1929.42
615.27	1918.06
615.61	1906.86
615.96	1896.71
616.31	1886.75
616.65	1877.20
617.00	1867.34
617.35	1857.16
617.70	1846.42
618.04	1835.31
618.39	1823.68
618.74	1813.91
619.08	1803.45
619.43	1793.44
619.78	1783.45
620.12	1773.34
620.47	1763.75
620.82	1753.12
621.16	1742.89
621.51	1732.33
621.85	1722.29
622.20	1711.70
622.55	1701.57
622.89	1690.86
623.24	1680.30
623.59	1669.52
623.93	1658.93
624.28	1649.17
624.62	1639.22
624.97	1629.64
625.32	1620.53
625.66	1611.08
626.01	1601.65
626.35	1592.56
626.70	1583.13
627.04	1574.05
627.39	1564.79
627.73	1555.32
628.08	1546.43
628.43	1536.92
628.77	1527.53
629.12	1517.70
629.46	1509.23
629.81	1500.11
630.15	1491.49
630.50	1482.60
630.84	1473.52
631.19	1464.26
631.53	1454.83
631.88	1445.27
632.22	1435.69
632.57	1426.76
632.91	1417.64
633.26	1408.57
633.60	1399.76
633.95	1391.22
634.29	1382.04
634.64	1373.36
634.98	1364.19
635.32	1355.59
635.67	1347.79
636.01	1339.55
636.36	1331.09
636.70	1322.79
637.05	1314.44
637.39	1306.46
637.73	1298.56
638.08	1291.23
638.42	1283.63
638.77	1275.77
639.11	1267.99
639.45	1260.00
639.80	1251.40
640.14	1243.02
640.49	1234.91
640.83	1226.42
641.17	1218.12
641.52	1210.07
641.86	1201.44
642.20	1193.85
642.55	1185.22
642.89	1176.56
643.23	1167.98
643.58	1160.35
643.92	1151.74
644.26	1143.64
644.61	1135.34
644.95	1126.94
645.29	1118.53
645.64	1110.22
645.98	1102.43
646.32	1094.75
646.66	1087.00
647.01	1079.63
647.35	1072.36
647.69	1064.35
648.04	1056.79
648.38	1048.91
648.72	1041.13
649.06	1033.43
649.41	1025.37
649.75	1018.06
650.09	1010.70
650.43	1003.35
650.78	995.32
651.12	987.66
651.46	980.11
651.80	972.84
652.14	965.73
652.49	958.43
652.83	951.03
653.17	942.98
653.51	935.32
653.85	928.17
654.20	920.85
654.54	913.29
654.88	906.28
655.22	898.99
655.56	891.68
655.90	884.57
656.25	877.60
656.59	870.74
656.93	863.95
657.27	857.33
657.61	850.31
657.95	843.82
658.29	837.44
658.64	831.09
658.98	824.14
659.32	817.03
659.66	810.46
660.00	803.85
660.34	797.66
660.68	791.18
661.02	784.47
661.36	778.16
661.70	772.19
662.05	766.24
662.39	760.51
662.73	754.96
663.07	749.33
663.41	743.71
663.75	737.90
664.09	731.96
664.43	725.97
664.77	720.49
665.11	714.85
665.45	709.50
665.79	704.22
666.13	698.99
666.47	693.95
666.81	688.73
667.15	683.55
667.49	678.63
667.83	673.69
668.17	668.89
668.51	664.19
668.85	659.45
669.19	654.81
669.53	649.97
669.87	645.04
670.21	640.12
670.55	635.45
670.89	631.34
671.23	627.28
671.57	623.05
671.91	618.63
672.25	614.30
672.58	609.88
672.92	605.47
673.26	601.31
673.60	597.31
673.94	593.05
674.28	589.02
674.62	585.21
674.96	581.21
675.30	577.52
675.64	573.48
675.97	569.45
676.31	565.63
676.65	561.92
676.99	558.53
677.33	554.80
677.67	551.15
678.01	547.34
678.34	543.45
678.68	539.87
679.02	536.27
679.36	532.82
679.70	529.28
680.04	525.81
680.37	522.20
680.71	518.79
681.05	515.55
681.39	512.25
681.73	508.90
682.06	505.92
682.40	502.57
682.74	499.31
683.08	496.22
683.42	492.84
683.75	489.68
684.09	486.44
684.43	483.36
684.77	480.12
685.10	476.95
685.44	473.81
685.78	470.62
686.12	467.72
686.45	464.69
686.79	461.65
687.13	458.88
687.46	456.22
687.80	453.35
688.14	450.41
688.48	447.61
688.81	444.58
689.15	441.68
689.49	438.90
689.82	436.23
690.16	433.38
690.50	430.64
690.83	427.99
691.17	425.18
691.51	422.39
691.84	419.96
692.18	417.56
692.52	415.16
692.85	413.03
693.19	410.75
693.52	408.28
693.86	405.87
694.20	403.39
694.53	401.03
694.87	398.72
695.21	396.40
695.54	394.06
695.88	391.86
696.21	389.56
696.55	387.35
696.88	385.15
697.22	382.98
697.56	381.03
697.89	378.74
698.23	376.74
698.56	374.88
698.90	372.91
699.23	370.81
699.57	368.74
699.90	366.51
700.24	364.36
700.58	362.45
700.91	360.73
701.25	359.07
701.58	357.25
701.92	355.42
702.25	353.73
702.59	351.98
702.92	350.15
703.26	348.46
703.59	346.84
703.93	345.49
704.26	343.90
704.60	342.26
704.93	340.72
705.26	339.09
705.60	337.55
705.93	335.93
706.27	334.47
706.60	333.10
706.94	331.90
707.27	330.42
707.61	329.02
707.94	327.45
708.27	325.87
708.61	324.37
708.94	322.95
709.28	321.52
709.61	320.20
709.94	318.98
710.28	317.70
710.61	316.40
710.95	314.79
711.28	313.72
711.61	312.44
711.95	311.37
712.28	310.00
712.61	308.81
712.95	307.81
713.28	306.77
713.61	305.57
713.95	304.27
714.28	303.27
714.61	302.16
714.95	301.10
715.28	299.92
715.61	298.85
715.95	297.80
716.28	296.65
716.61	295.55
716.95	294.41
717.28	293.39
717.61	292.43
717.94	291.55
718.28	290.32
718.61	289.39
718.94	288.38
719.27	287.55
719.61	286.60
719.94	285.70
720.27	284.49
720.60	283.55
720.94	282.65
721.27	281.78
721.60	280.99
721.93	280.12
722.27	279.54
722.60	278.83
722.93	278.08
723.26	277.39
723.59	276.69
723.93	276.04
724.26	275.32
724.59	274.53
724.92	273.89
725.25	273.37
725.59	272.61
725.92	271.96
726.25	271.20
726.58	270.52
726.91	269.77
727.24	269.35
727.57	268.82
727.91	268.12
728.24	267.54
728.57	266.88
728.90	266.40
729.23	265.56
729.56	265.09
729.89	264.53
730.22	263.93
730.55	263.31
730.89	262.68
731.22	262.05
731.55	261.43
731.88	260.83
732.21	260.23
732.54	259.66
732.87	259.07
733.20	258.65
733.53	258.10
733.86	257.52
734.19	256.95
734.52	256.44
734.85	256.29
735.18	255.73
735.51	255.32
735.84	254.78
736.17	254.42
736.50	253.77
736.83	253.60
737.16	253.13
737.49	252.72
737.82	252.27
738.15	251.89
738.48	251.45
738.81	250.88
739.14	250.35
739.47	249.93
739.80	249.48
740.13	249.10
740.46	248.64
740.79	248.24
741.12	247.74
741.45	247.20
741.78	246.55
742.11	246.23
742.44	245.82
742.77	245.55
743.10	245.20
743.43	244.81
743.75	244.07
744.08	244.12
744.41	243.65
744.74	243.24
745.07	242.78
745.40	242.54
745.73	242.37
746.06	242.01
746.39	241.69
746.71	241.30
747.04	240.92
747.37	240.67
747.70	240.40
748.03	240.16
748.36	239.92
748.68	239.66
749.01	239.28
749.34	238.92
749.67	238.54
750.00	238.25
750.33	238.20
750.65	237.89
750.98	237.16
751.31	236.91
751.64	236.70
751.97	236.65
752.29	236.21
752.62	235.71
752.95	235.38
753.28	235.09
753.60	234.81
753.93	234.61
754.26	234.32
754.59	233.92
754.91	233.59
755.24	233.36
755.57	233.08
755.90	232.77
756.22	232.48
756.55	232.15
756.88	231.77
757.20	231.28
757.53	230.92
757.86	230.68
758.19	230.47
758.51	230.18
758.84	229.77
759.17	229.53
759.49	229.39
759.82	229.40
760.15	229.21
760.47	229.01
760.80	228.75
761.13	228.54
761.45	228.30
761.78	228.03
762.11	227.83
762.43	227.61
762.76	227.48
763.08	227.41
763.41	227.27
763.74	227.13
764.06	226.95
764.39	226.81
764.71	226.71
765.04	226.49
765.37	226.22
765.69	226.06
766.02	225.91
766.34	225.73
766.67	225.42
767.00	225.39
767.32	225.44
767.65	225.46
767.97	225.42
768.30	225.30
768.62	225.20
768.95	224.97
769.27	224.85
769.60	224.66
769.92	224.40
770.25	224.27
770.57	224.11
770.90	223.93
771.22	223.79
771.55	223.60
771.87	223.48
772.20	223.41
772.52	223.55
772.85	223.89
773.17	223.76
773.50	223.66
773.82	223.47
774.15	223.15
774.47	222.78
774.80	222.61
775.12	222.50
775.45	222.43
775.77	222.28
776.09	222.14
776.42	222.06
776.74	222.02
777.07	221.84
777.39	221.68
777.72	221.46
778.04	221.40
778.36	221.26
778.69	221.15
779.01	221.06
779.33	220.63
779.66	220.12
779.98	220.00
780.31	219.86
780.63	219.80
780.95	219.77
781.28	219.69
781.60	219.45
781.92	219.40
782.25	219.30
782.57	219.30
782.89	219.24
783.22	219.14
783.54	219.06
783.86	218.99
784.19	218.92
784.51	219.02
784.83	218.89
785.16	218.78
785.48	218.69
785.80	218.63
786.12	218.63
786.45	218.60
786.77	218.52
787.09	218.47
787.42	218.32
787.74	218.25
788.06	218.15
788.38	218.11
788.71	217.89
789.03	217.82
789.35	217.82
789.67	217.70
789.99	217.66
790.32	217.49
790.64	217.48
790.96	217.70
791.28	217.59
791.61	217.52
791.93	217.52
792.25	217.53
792.57	217.72
792.89	217.63
793.21	217.53
793.54	217.50
793.86	217.39
794.18	217.33
794.50	217.18
794.82	217.16
795.14	217.14
795.47	217.21
795.79	217.19
796.11	216.95
796.43	216.95
796.75	216.89
797.07	216.83
797.39	216.78
797.71	216.52
798.04	216.47
798.36	216.49
798.68	216.44
799.00	216.37
799.32	216.19
799.64	216.23
799.96	216.22
800.28	216.20
800.60	216.14
800.92	216.12
801.24	216.09
801.56	216.05
801.89	216.06
802.21	216.04
802.53	215.91
802.85	216.00
803.17	216.04
803.49	215.89
803.81	215.90
804.13	215.77
804.45	215.72
804.77	215.65
805.09	215.66
805.41	215.52
805.73	215.46
806.05	215.30
806.37	215.24
806.69	215.15
807.01	215.06
807.33	215.03
807.65	214.88
807.97	214.99
808.28	214.93
808.60	214.90
808.92	214.88
809.24	215.11
809.56	215.03
809.88	214.91
810.20	214.94
810.52	214.94
810.84	214.86
811.16	214.72
811.48	214.68
811.80	214.67
812.12	214.72
812.43	214.71
812.75	214.74
813.07	214.61
813.39	214.66
813.71	214.58
814.03	214.55
814.35	214.60
814.67	214.48
814.98	214.47
815.30	214.41
815.62	214.34
815.94	213.99
816.26	214.00
816.58	213.93
816.89	213.86
817.21	213.85
817.53	213.91
817.85	213.95
818.17	213.94
818.48	213.85
818.80	213.83
819.12	213.75
819.44	213.66
819.76	213.62
820.07	213.51
820.39	213.54
820.71	213.58
821.03	213.51
821.34	213.42
821.66	213.37
821.98	213.38
822.30	213.36
822.61	213.62
822.93	213.50
823.25	213.50
823.57	213.46
823.88	213.47
824.20	213.45
824.52	213.58
824.83	213.49
825.15	213.35
825.47	213.38
825.79	213.39
826.10	213.33
826.42	213.36
826.74	213.42
827.05	213.44
827.37	213.44
827.69	213.44
828.00	213.44
828.32	213.48
828.64	213.46
828.95	213.55
829.27	213.40
829.58	213.40
829.90	213.42
830.22	213.47
830.53	213.35
830.85	213.23
831.17	213.09
831.48	213.20
831.80	213.31
832.11	213.21
832.43	213.17
832.75	213.18
833.06	213.35
833.38	213.22
833.69	213.17
834.01	213.12
834.32	213.09
834.64	213.12
834.96	213.14
835.27	213.05
835.59	212.93
835.90	212.85
836.22	212.86
836.53	212.78
836.85	212.75
837.16	213.07
837.48	213.12
837.79	213.22
838.11	213.20
838.42	213.15
838.74	213.25
839.05	213.29
839.37	213.28
839.68	213.00
840.00	212.98
840.31	213.00
840.63	212.98
840.94	212.90
841.26	212.75
841.57	212.60
841.88	212.66
842.20	212.60
842.51	212.59
842.83	212.53
843.14	212.82
843.46	212.80
843.77	212.62
844.08	212.64
844.40	212.47
844.71	212.43
845.03	212.44
845.34	212.36
845.65	212.24
845.97	212.22
846.28	212.30
846.60	212.32
846.91	212.30
847.22	212.28
847.54	212.35
847.85	212.49
848.16	212.59
848.48	212.46
848.79	212.62
849.10	212.64
849.42	212.69
849.73	212.34
850.04	212.36
850.36	212.30
850.67	212.33
850.98	212.43
851.30	212.42
851.61	212.37
851.92	212.40
852.23	212.51
852.55	212.59
852.86	212.63
853.17	212.65
853.49	212.68
853.80	212.74
854.11	212.82
854.42	212.79
854.74	212.77
855.05	212.82
855.36	212.68
855.67	212.69
855.99	212.74
856.30	213.24
856.61	213.23
856.92	213.25
857.23	213.23
857.55	213.16
857.86	213.18
858.17	213.19
858.48	213.09
858.79	213.00
859.11	212.99
859.42	212.90
859.73	212.84
860.04	212.83
860.35	212.74
860.66	212.63
860.98	212.65
861.29	212.69
861.60	212.69
861.91	212.79
862.22	212.73
862.53	212.60
862.84	212.16
863.16	212.28
863.47	212.17
863.78	212.14
864.09	212.19
864.40	212.18
864.71	212.25
865.02	212.30
865.33	212.35
865.64	212.31
865.95	212.29
866.27	212.46
866.58	212.35
866.89	212.37
867.20	212.36
867.51	212.30
867.82	212.25
868.13	212.33
868.44	212.20
868.75	212.28
869.06	212.30
869.37	212.32
869.68	212.19
869.99	212.26
870.30	212.29
870.61	212.26
870.92	212.16
871.23	212.12
871.54	212.19
871.85	212.29
872.16	212.35
872.47	212.35
872.78	212.24
873.09	212.28
873.40	212.28
873.71	212.28
874.02	212.27
874.33	212.24
874.64	212.17
874.95	212.17
875.26	212.08
875.56	212.11
875.87	212.11
876.18	212.06
876.49	212.34
876.80	212.27
877.11	212.20
877.42	212.30
877.73	212.20
878.04	212.08
878.35	212.03
878.66	211.91
878.96	211.92
879.27	211.89
879.58	211.83
879.89	211.85
880.20	211.94
880.51	211.89
880.82	211.83
881.12	211.79
881.43	211.76
881.74	211.81
882.05	211.81
882.36	211.77
882.67	211.76
882.97	211.39
883.28	211.37
883.59	211.47
883.90	211.44
884.21	211.58
884.51	211.60
884.82	211.54
885.13	211.64
885.44	211.61
885.74	211.67
886.05	211.68
886.36	211.66
886.67	211.54
886.98	211.73
887.28	211.80
887.59	211.85
887.90	211.87
888.20	211.86
888.51	211.87
888.82	211.82
889.13	211.92
889.43	212.25
889.74	212.25
890.05	212.16
890.35	212.19
890.66	212.12
890.97	212.05
891.28	211.97
891.58	211.97
891.89	212.00
892.20	211.87
892.50	211.90
892.81	211.96
893.12	211.97
893.42	211.82
893.73	211.85
894.04	211.92
894.34	211.93
894.65	211.88
894.95	211.87
895.26	211.93
895.57	212.06
895.87	211.72
896.18	211.80
896.48	211.80
896.79	211.72
897.10	211.75
897.40	211.84
897.71	211.92
898.01	211.82
898.32	211.82
898.63	211.81
898.93	211.84
899.24	211.74
899.54	211.70
899.85	211.65
900.15	211.66
900.46	211.54
900.76	211.58
901.07	211.58
901.38	211.54
901.68	211.60
901.99	211.44
902.29	211.45
902.60	211.44
902.90	211.45
903.21	211.50
903.51	211.45
903.82	211.43
904.12	211.39
904.43	211.50
904.73	211.55
905.03	211.60
905.34	211.95
905.64	211.91
905.95	211.95
906.25	211.99
906.56	211.94
906.86	211.96
907.17	211.94
907.47	212.00
907.77	211.99
908.08	211.89
908.38	211.88
908.69	211.90
908.99	212.01
909.30	212.04
909.60	212.07
909.90	212.11
910.21	212.11
910.51	212.10
910.81	212.02
911.12	212.01
911.42	212.02
911.73	211.64
912.03	211.73
912.33	211.79
912.64	211.73
912.94	211.70
913.24	211.64
913.55	211.65
913.85	211.56
914.15	211.64
914.46	211.68
914.76	211.66
915.06	211.66
915.37	211.50
915.67	211.50
915.97	211.52
916.27	211.48
916.58	211.48
916.88	211.49
917.18	211.46
917.49	211.62
917.79	211.57
918.09	211.65
918.39	211.69
918.70	211.72
919.00	211.83
919.30	212.05
919.60	212.09
919.91	211.98
920.21	212.01
920.51	211.95
920.81	211.94
921.12	212.00
921.42	212.01
921.72	212.00
922.02	211.98
922.32	211.90
922.63	211.85
922.93	211.95
923.23	211.91
923.53	211.90
923.83	211.75
924.13	211.80
924.44	211.73
924.74	211.77
925.04	211.81
925.34	211.75
925.64	211.55
925.94	211.47
926.24	211.64
926.55	211.58
926.85	211.59
927.15	211.57
927.45	211.54
927.75	211.54
928.05	211.59
928.35	211.58
928.65	211.69
928.95	211.79
929.26	211.66
929.56	211.75
929.86	211.82
930.16	211.73
930.46	211.70
930.76	211.78
931.06	211.67
931.36	211.54
931.66	211.60
931.96	211.64
932.26	211.71
932.56	211.58
932.86	211.68
933.16	211.71
933.46	211.68
933.76	211.62
934.06	211.69
934.36	211.86
934.66	211.81
934.96	211.76
935.26	211.75
935.56	211.85
935.86	211.82
936.16	211.76
936.46	211.70
936.76	211.71
937.06	211.60
937.36	211.60
937.66	211.59
937.96	211.54
938.26	211.53
938.56	211.56
938.86	211.60
939.16	211.64
939.46	211.60
939.76	211.58
940.06	211.55
940.35	211.44
940.65	211.17
940.95	211.20
941.25	211.12
941.55	211.04
941.85	211.03
942.15	211.05
942.45	211.13
942.75	211.25
943.04	211.17
943.34	211.27
943.64	211.20
943.94	211.19
944.24	211.21
944.54	211.20
944.84	211.17
945.13	211.20
945.43	211.15
945.73	211.13
946.03	211.15
946.33	211.18
946.62	211.20
946.92	211.25
947.22	211.26
947.52	211.26
947.82	211.29
948.11	211.14
948.41	211.11
948.71	211.00
949.01	210.95
949.31	210.96
949.60	210.89
949.90	211.03
950.20	211.00
950.50	211.04
950.79	211.02
951.09	211.03
951.39	210.92
951.69	210.83
951.98	210.95
952.28	210.98
952.58	211.00
952.87	210.95
953.17	210.98
953.47	210.97
953.76	210.98
954.06	210.96
954.36	211.00
954.66	210.99
954.95	211.11
955.25	211.17
955.55	211.22
955.84	211.26
956.14	211.24
956.44	211.35
956.73	211.29
957.03	211.37
957.32	211.37
957.62	211.45
957.92	211.57
958.21	211.54
958.51	211.94
958.81	211.93
959.10	212.00
959.40	212.11
959.69	212.18
959.99	212.22
960.29	212.25
960.58	212.30
960.88	212.40
961.17	212.33
961.47	212.36
961.76	212.32
962.06	212.35
962.36	212.27
962.65	212.20
962.95	212.21
963.24	212.14
963.54	212.18
963.83	212.15
964.13	212.11
964.42	212.06
964.72	211.78
965.01	211.82
965.31	211.76
965.60	211.71
965.90	211.90
966.19	211.82
966.49	211.83
966.78	211.80
967.08	211.83
967.37	211.81
967.67	211.74
967.96	211.83
968.26	211.81
968.55	211.91
968.85	211.95
969.14	211.90
969.43	211.88
969.73	211.81
970.02	211.85
970.32	211.86
970.61	211.89
970.91	211.81
971.20	211.76
971.49	211.70
971.79	211.72
972.08	211.50
972.38	211.56
972.67	211.52
972.96	211.55
973.26	211.43
973.55	211.60
973.85	211.62
974.14	211.55
974.43	211.58
974.73	211.45
975.02	211.43
975.31	211.40
975.61	211.40
975.90	211.37
976.19	211.30
976.49	211.33
976.78	211.29
977.07	211.22
977.37	211.24
977.66	211.34
977.95	211.26
978.24	211.18
978.54	211.22
978.83	211.20
979.12	211.24
979.42	211.24
979.71	211.09
980.00	211.08
980.29	211.13
980.59	211.03
980.88	211.15
981.17	211.14
981.46	211.11
981.76	211.11
982.05	211.20
982.34	211.20
982.63	211.12
982.93	211.17
983.22	211.33
983.51	211.34
983.80	211.37
984.09	211.35
984.39	211.44
984.68	211.40
984.97	211.38
985.26	211.33
985.55	211.43
985.85	211.38
986.14	211.42
986.43	211.45
986.72	211.42
987.01	211.35
987.30	211.35
987.59	211.38
987.89	211.40
988.18	211.30
988.47	211.23
988.76	211.27
989.05	211.15
989.34	211.06
989.63	211.06
989.92	210.99
990.22	211.04
990.51	210.96
990.80	210.90
991.09	210.95
991.38	210.99
991.67	210.90
991.96	210.85
992.25	210.88
992.54	210.79
992.83	210.80
993.12	210.72
993.41	210.72
993.70	210.81
993.99	210.83
994.28	210.89
994.58	211.03
994.87	210.96
995.16	211.01
995.45	210.96
995.74	210.96
996.03	211.03
996.32	211.08
996.61	211.15
996.90	211.21
997.19	211.20
997.48	211.19
997.77	211.09
998.06	211.16
998.34	211.10
998.63	211.08
998.92	211.08
999.21	211.17
999.50	211.17
999.79	211.05
1000.08	211.09
1000.37	211.10
1000.66	211.02
1000.95	211.10
1001.24	211.10
1001.53	211.17
1001.82	211.17
1002.11	211.07
1002.40	211.04
1002.68	211.13
1002.97	211.44
1003.26	211.33
1003.55	211.30
1003.84	211.38
1004.13	211.54
1004.42	211.48
1004.71	211.50
1004.99	211.45
1005.28	211.48
1005.57	211.52
1005.86	211.52
1006.15	211.44
1006.44	211.37
1006.72	211.44
1007.01	211.38
1007.30	211.37
1007.59	211.34
1007.88	211.25
1008.17	211.26
1008.45	211.20
1008.74	211.05
1009.03	210.80
1009.32	210.91
1009.60	210.88
1009.89	210.85
1010.18	210.67
1010.47	210.72
1010.76	210.75
1011.04	210.77
1011.33	210.86
1011.62	210.84
1011.91	210.89
1012.19	210.95
1012.48	210.96
1012.77	210.90
1013.05	211.04
1013.34	211.03
1013.63	210.99
1013.92	211.08
1014.20	211.02
1014.49	211.09
1014.78	211.14
1015.06	211.01
1015.35	210.98
1015.64	211.05
1015.92	211.10
1016.21	211.17
1016.50	211.13
1016.78	211.15
1017.07	211.21
1017.36	211.05
1017.64	211.02
1017.93	211.10
1018.22	211.11
1018.50	211.13
1018.79	211.15
1019.08	211.02
1019.36	211.07
1019.65	211.09
1019.93	211.15
1020.22	211.28
1020.51	211.44
1020.79	211.43
1021.08	211.70
1021.36	210.50
1021.65	211.20
1021.94	210.90
1022.22	211.55
1022.51	210.90
1022.79	212.55
1023.08	212.05
1023.36	215.70
1023.65	211.05
>>>>>End Processed Spectral Data<<<<<
