SpectraSuite Data File
++++++++++++++++++++++++++++++++++++
Date: Mon Feb 25 17:07:33 EST 2013
User: group
Dark Spectrum Present: No
Reference Spectrum Present: No
Number of Sampled Component Spectra: 1
Spectrometers: USB2E7196
Integration Time (usec): 104000 (USB2E7196)
Spectra Averaged: 20 (USB2E7196)
Boxcar Smoothing: 10 (USB2E7196)
Correct for Electrical Dark: No (USB2E7196)
Strobe/Lamp Enabled: No (USB2E7196)
Correct for Detector Non-linearity: No (USB2E7196)
Correct for Stray Light: No (USB2E7196)
Number of Pixels in Processed Spectrum: 2048
>>>>>Begin Processed Spectral Data<<<<<
339.09	0.00
339.48	198.10
339.86	199.90
340.24	200.15
340.63	201.80
341.01	208.95
341.39	205.20
341.78	207.05
342.16	208.90
342.54	207.80
342.93	197.67
343.31	207.66
343.69	208.20
344.07	208.65
344.46	209.19
344.84	209.54
345.22	209.55
345.60	209.79
345.99	209.94
346.37	210.05
346.75	210.16
347.13	210.28
347.52	210.32
347.90	210.44
348.28	210.53
348.66	210.64
349.05	210.55
349.43	210.58
349.81	210.54
350.19	210.62
350.57	210.63
350.96	210.72
351.34	210.76
351.72	210.84
352.10	210.93
352.48	210.92
352.87	211.02
353.25	211.14
353.63	211.16
354.01	211.29
354.39	211.39
354.77	211.49
355.15	211.70
355.54	211.80
355.92	211.74
356.30	211.74
356.68	211.97
357.06	212.06
357.44	212.11
357.82	212.19
358.20	212.26
358.58	212.46
358.97	212.56
359.35	212.78
359.73	212.95
360.11	212.98
360.49	213.08
360.87	213.20
361.25	213.25
361.63	213.49
362.01	213.58
362.39	213.50
362.77	213.59
363.15	213.65
363.53	213.66
363.91	213.70
364.29	213.80
364.67	213.60
365.05	213.60
365.43	213.61
365.81	213.72
366.19	213.84
366.57	213.91
366.95	213.88
367.33	213.75
367.71	213.69
368.09	213.82
368.47	213.76
368.85	213.72
369.23	213.80
369.61	213.57
369.99	213.61
370.37	213.72
370.75	213.80
371.13	213.58
371.51	213.50
371.89	213.48
372.27	213.43
372.65	213.35
373.03	213.28
373.41	213.26
373.78	213.15
374.16	212.95
374.54	212.77
374.92	212.77
375.30	212.78
375.68	212.63
376.06	212.58
376.44	212.57
376.82	212.46
377.19	212.32
377.57	212.35
377.95	212.16
378.33	212.01
378.71	211.78
379.09	211.72
379.47	211.71
379.84	211.66
380.22	211.58
380.60	211.53
380.98	211.51
381.36	211.43
381.73	211.29
382.11	211.34
382.49	211.27
382.87	211.08
383.25	211.00
383.62	211.40
384.00	211.26
384.38	211.16
384.76	211.26
385.13	211.46
385.51	211.33
385.89	211.22
386.27	211.24
386.64	211.21
387.02	211.22
387.40	211.11
387.78	211.06
388.15	211.05
388.53	211.02
388.91	210.99
389.29	210.98
389.66	211.02
390.04	210.92
390.42	210.92
390.79	210.93
391.17	210.87
391.55	210.41
391.92	210.39
392.30	210.40
392.68	210.21
393.05	210.07
393.43	210.15
393.81	210.15
394.18	210.05
394.56	209.99
394.94	210.02
395.31	210.03
395.69	210.18
396.06	210.21
396.44	210.22
396.82	210.22
397.19	210.33
397.57	210.36
397.95	210.42
398.32	210.44
398.70	210.49
399.07	210.59
399.45	210.67
399.82	210.68
400.20	210.72
400.58	210.83
400.95	210.76
401.33	210.84
401.70	211.14
402.08	211.18
402.45	211.22
402.83	211.38
403.20	211.47
403.58	211.41
403.95	211.53
404.33	211.59
404.71	211.70
405.08	211.90
405.46	211.93
405.83	212.07
406.21	212.09
406.58	212.20
406.96	212.31
407.33	212.39
407.70	212.45
408.08	212.81
408.45	212.96
408.83	213.15
409.20	213.23
409.58	213.24
409.95	213.51
410.33	213.80
410.70	213.95
411.08	214.21
411.45	214.46
411.82	214.72
412.20	215.06
412.57	215.52
412.95	215.64
413.32	216.13
413.69	216.41
414.07	216.86
414.44	217.29
414.82	217.72
415.19	218.34
415.56	219.00
415.94	219.45
416.31	220.13
416.68	220.81
417.06	221.66
417.43	222.50
417.81	223.33
418.18	224.27
418.55	225.17
418.93	226.17
419.30	227.15
419.67	228.18
420.04	229.28
420.42	230.34
420.79	231.96
421.16	233.32
421.54	234.94
421.91	236.46
422.28	237.97
422.66	239.63
423.03	241.39
423.40	243.03
423.77	244.78
424.15	246.52
424.52	248.35
424.89	250.41
425.26	252.20
425.64	253.99
426.01	255.96
426.38	258.07
426.75	260.27
427.13	262.55
427.50	264.97
427.87	267.38
428.24	269.80
428.61	271.93
428.99	274.57
429.36	277.22
429.73	279.89
430.10	282.70
430.47	285.48
430.85	288.22
431.22	291.35
431.59	294.81
431.96	297.95
432.33	301.43
432.70	304.66
433.08	308.68
433.45	312.55
433.82	316.36
434.19	320.58
434.56	324.73
434.93	328.64
435.30	332.60
435.68	336.92
436.05	341.18
436.42	345.35
436.79	349.31
437.16	353.53
437.53	358.07
437.90	362.41
438.27	366.88
438.64	371.43
439.01	375.70
439.38	379.23
439.75	382.89
440.13	387.18
440.50	391.17
440.87	394.36
441.24	397.75
441.61	401.43
441.98	404.05
442.35	407.22
442.72	410.53
443.09	413.65
443.46	415.73
443.83	417.25
444.20	418.52
444.57	420.09
444.94	420.99
445.31	421.95
445.68	423.27
446.05	423.73
446.42	423.47
446.79	423.19
447.16	422.92
447.53	422.76
447.90	421.27
448.27	419.77
448.64	417.73
449.01	416.23
449.37	413.49
449.74	410.92
450.11	407.91
450.48	404.26
450.85	400.63
451.22	397.55
451.59	394.56
451.96	391.75
452.33	387.87
452.70	384.38
453.07	380.12
453.43	375.58
453.80	371.46
454.17	367.51
454.54	363.70
454.91	359.61
455.28	355.63
455.65	351.93
456.02	348.76
456.38	345.70
456.75	341.85
457.12	338.55
457.49	335.40
457.86	332.00
458.23	329.59
458.59	326.68
458.96	323.66
459.33	321.03
459.70	318.51
460.07	316.43
460.43	314.06
460.80	311.92
461.17	310.00
461.54	307.97
461.91	306.06
462.27	304.03
462.64	302.33
463.01	300.57
463.38	298.87
463.74	296.56
464.11	294.94
464.48	293.47
464.85	291.98
465.21	290.86
465.58	289.75
465.95	288.12
466.32	286.79
466.68	285.60
467.05	284.27
467.42	282.92
467.78	281.63
468.15	280.48
468.52	279.49
468.88	278.22
469.25	277.07
469.62	276.21
469.98	275.31
470.35	274.50
470.72	273.57
471.08	272.48
471.45	271.81
471.82	271.01
472.18	270.15
472.55	269.59
472.92	268.69
473.28	267.97
473.65	267.32
474.02	266.73
474.38	266.28
474.75	265.90
475.11	265.40
475.48	265.10
475.85	264.70
476.21	264.31
476.58	263.93
476.94	263.78
477.31	263.43
477.67	263.18
478.04	262.89
478.41	262.72
478.77	263.01
479.14	262.81
479.50	262.73
479.87	262.75
480.23	262.68
480.60	262.69
480.96	262.59
481.33	262.74
481.69	262.77
482.06	262.68
482.42	262.75
482.79	262.80
483.15	262.86
483.52	263.10
483.88	263.23
484.25	263.48
484.61	263.60
484.98	263.67
485.34	263.95
485.71	264.37
486.07	264.71
486.44	264.71
486.80	265.18
487.17	265.61
487.53	266.12
487.90	266.54
488.26	267.21
488.62	267.91
488.99	268.37
489.35	269.00
489.72	269.72
490.08	270.38
490.44	271.10
490.81	271.87
491.17	272.57
491.54	273.47
491.90	274.32
492.26	275.23
492.63	276.40
492.99	277.40
493.36	278.40
493.72	279.58
494.08	280.75
494.45	281.85
494.81	283.06
495.17	284.23
495.54	285.55
495.90	286.75
496.26	287.96
496.63	289.31
496.99	290.67
497.35	292.07
497.72	293.63
498.08	295.17
498.44	296.65
498.80	298.35
499.17	299.95
499.53	301.55
499.89	303.35
500.26	305.07
500.62	306.71
500.98	308.44
501.34	310.10
501.71	311.84
502.07	313.64
502.43	315.46
502.79	317.27
503.16	319.21
503.52	321.17
503.88	323.14
504.24	325.21
504.60	327.32
504.97	329.41
505.33	331.43
505.69	333.73
506.05	335.99
506.41	338.04
506.78	340.21
507.14	342.33
507.50	344.47
507.86	346.66
508.22	348.95
508.59	351.19
508.95	353.56
509.31	356.05
509.67	358.46
510.03	360.85
510.39	363.38
510.75	365.86
511.12	368.31
511.48	370.71
511.84	373.14
512.20	375.69
512.56	378.29
512.92	380.88
513.28	383.46
513.64	385.97
514.00	388.58
514.37	391.24
514.73	394.01
515.09	396.87
515.45	399.52
515.81	402.20
516.17	404.89
516.53	407.60
516.89	410.27
517.25	413.09
517.61	415.89
517.97	418.60
518.33	421.40
518.69	424.28
519.05	427.36
519.41	430.31
519.77	433.37
520.13	436.21
520.49	439.13
520.85	442.15
521.21	445.42
521.57	448.57
521.93	451.44
522.29	454.66
522.65	457.65
523.01	461.05
523.37	464.25
523.73	467.62
524.09	470.92
524.45	474.26
524.81	477.53
525.17	481.01
525.53	484.41
525.89	487.75
526.25	491.28
526.61	494.53
526.97	498.02
527.33	501.57
527.68	505.54
528.04	509.28
528.40	512.75
528.76	516.35
529.12	520.02
529.48	524.07
529.84	527.82
530.20	531.61
530.56	535.32
530.91	539.24
531.27	543.12
531.63	547.06
531.99	550.91
532.35	554.69
532.71	558.51
533.07	562.53
533.42	566.75
533.78	570.55
534.14	574.47
534.50	578.11
534.86	582.00
535.21	585.33
535.57	589.13
535.93	592.77
536.29	596.59
536.65	600.39
537.00	603.96
537.36	607.65
537.72	611.22
538.08	614.85
538.44	618.45
538.79	622.15
539.15	625.72
539.51	629.31
539.87	633.05
540.22	636.60
540.58	640.30
540.94	643.81
541.29	647.33
541.65	650.79
542.01	654.48
542.37	657.91
542.72	661.51
543.08	664.84
543.44	668.47
543.79	671.38
544.15	674.62
544.51	678.26
544.87	681.68
545.22	685.00
545.58	688.18
545.94	691.24
546.29	694.12
546.65	696.99
547.01	699.84
547.36	702.79
547.72	705.61
548.07	708.35
548.43	710.92
548.79	713.63
549.14	716.25
549.50	718.81
549.86	721.07
550.21	723.51
550.57	726.13
550.92	728.49
551.28	731.19
551.64	733.71
551.99	735.85
552.35	737.75
552.70	739.81
553.06	741.96
553.41	743.96
553.77	746.17
554.13	748.36
554.48	750.37
554.84	752.48
555.19	754.36
555.55	756.19
555.90	757.88
556.26	759.40
556.61	760.96
556.97	762.47
557.32	764.18
557.68	765.66
558.03	766.93
558.39	768.24
558.74	769.77
559.10	771.12
559.45	772.49
559.81	774.02
560.16	775.19
560.52	776.36
560.87	777.80
561.23	778.90
561.58	780.33
561.94	781.42
562.29	782.20
562.64	783.28
563.00	784.25
563.35	785.35
563.71	786.73
564.06	787.90
564.42	788.96
564.77	790.00
565.12	791.10
565.48	792.31
565.83	793.44
566.19	794.39
566.54	794.88
566.89	795.44
567.25	796.25
567.60	797.29
567.96	798.03
568.31	798.81
568.66	799.33
569.02	799.26
569.37	799.56
569.72	799.92
570.08	800.09
570.43	800.18
570.78	800.15
571.14	799.94
571.49	799.79
571.84	799.86
572.20	799.57
572.55	799.31
572.90	798.74
573.26	798.21
573.61	797.37
573.96	796.90
574.31	796.23
574.67	795.19
575.02	794.03
575.37	793.08
575.72	791.69
576.08	790.89
576.43	790.02
576.78	789.09
577.13	788.35
577.49	787.60
577.84	786.76
578.19	786.09
578.54	785.44
578.90	784.87
579.25	783.89
579.60	782.88
579.95	781.81
580.30	780.97
580.66	780.10
581.01	779.25
581.36	778.30
581.71	777.26
582.06	776.53
582.42	775.85
582.77	774.75
583.12	774.11
583.47	773.16
583.82	772.48
584.17	771.64
584.53	770.85
584.88	769.86
585.23	769.03
585.58	768.02
585.93	766.87
586.28	765.81
586.63	764.75
586.98	763.80
587.34	762.96
587.69	761.70
588.04	760.61
588.39	759.57
588.74	758.15
589.09	757.45
589.44	756.12
589.79	755.00
590.14	753.96
590.49	752.58
590.84	751.41
591.19	750.32
591.54	749.01
591.89	747.32
592.25	746.16
592.60	744.48
592.95	742.80
593.30	741.19
593.65	739.51
594.00	737.95
594.35	737.38
594.70	735.83
595.05	734.50
595.40	732.94
595.75	731.22
596.10	730.08
596.45	728.52
596.80	727.49
597.15	726.14
597.50	724.86
597.85	723.65
598.19	722.06
598.54	720.64
598.89	719.32
599.24	718.39
599.59	716.85
599.94	715.70
600.29	714.42
600.64	713.17
600.99	711.59
601.34	710.29
601.69	707.94
602.04	706.20
602.39	704.76
602.74	703.42
603.08	702.34
603.43	701.21
603.78	699.71
604.13	698.09
604.48	696.50
604.83	695.29
605.18	694.09
605.53	692.75
605.87	691.14
606.22	689.83
606.57	688.06
606.92	686.53
607.27	685.07
607.62	683.55
607.96	682.28
608.31	681.23
608.66	679.70
609.01	678.29
609.36	676.98
609.70	675.30
610.05	673.49
610.40	671.82
610.75	670.04
611.10	668.54
611.44	666.46
611.79	664.63
612.14	662.60
612.49	660.36
612.83	658.41
613.18	656.36
613.53	654.40
613.88	652.38
614.22	650.36
614.57	648.16
614.92	646.19
615.27	644.01
615.61	641.86
615.96	640.01
616.31	637.97
616.65	636.25
617.00	634.26
617.35	632.34
617.70	630.00
618.04	627.64
618.39	625.09
618.74	623.23
619.08	621.13
619.43	618.90
619.78	616.82
620.12	614.78
620.47	612.84
620.82	610.51
621.16	608.23
621.51	606.16
621.85	604.13
622.20	601.87
622.55	599.62
622.89	597.31
623.24	595.01
623.59	592.59
623.93	590.14
624.28	588.07
624.62	586.14
624.97	584.28
625.32	582.15
625.66	580.22
626.01	578.15
626.35	575.99
626.70	574.00
627.04	572.12
627.39	570.09
627.73	568.02
628.08	566.14
628.43	564.01
628.77	561.78
629.12	559.66
629.46	557.80
629.81	555.73
630.15	553.78
630.50	551.62
630.84	549.74
631.19	547.63
631.53	545.55
631.88	543.20
632.22	541.05
632.57	539.18
632.91	537.20
633.26	535.14
633.60	533.22
633.95	531.23
634.29	529.00
634.64	527.03
634.98	524.89
635.32	522.93
635.67	521.20
636.01	519.43
636.36	517.45
636.70	515.64
637.05	513.80
637.39	511.80
637.73	510.20
638.08	508.58
638.42	506.94
638.77	505.22
639.11	503.45
639.45	501.49
639.80	499.46
640.14	497.52
640.49	495.59
640.83	493.59
641.17	491.71
641.52	489.87
641.86	487.85
642.20	486.18
642.55	484.05
642.89	481.98
643.23	479.96
643.58	478.20
643.92	476.10
644.26	474.12
644.61	472.35
644.95	470.22
645.29	468.10
645.64	466.03
645.98	463.95
646.32	462.02
646.66	460.01
647.01	458.12
647.35	456.24
647.69	454.24
648.04	452.50
648.38	450.46
648.72	448.58
649.06	446.61
649.41	444.58
649.75	442.73
650.09	440.96
650.43	439.01
650.78	436.89
651.12	434.96
651.46	433.16
651.80	431.35
652.14	429.41
652.49	427.60
652.83	425.85
653.17	423.93
653.51	422.12
653.85	420.47
654.20	418.76
654.54	416.91
654.88	415.18
655.22	413.31
655.56	411.53
655.90	409.76
656.25	407.99
656.59	406.12
656.93	404.37
657.27	402.76
657.61	401.13
657.95	399.57
658.29	397.88
658.64	396.24
658.98	394.36
659.32	392.68
659.66	390.97
660.00	389.24
660.34	387.54
660.68	385.75
661.02	383.98
661.36	382.39
661.70	380.80
662.05	379.29
662.39	377.87
662.73	376.55
663.07	375.13
663.41	373.63
663.75	372.15
664.09	370.62
664.43	368.99
664.77	367.36
665.11	365.81
665.45	364.44
665.79	362.98
666.13	361.68
666.47	360.34
666.81	358.96
667.15	357.53
667.49	356.35
667.83	355.19
668.17	353.98
668.51	352.61
668.85	351.46
669.19	350.38
669.53	349.00
669.87	347.55
670.21	346.22
670.55	345.07
670.89	344.13
671.23	343.08
671.57	342.04
671.91	341.01
672.25	339.94
672.58	338.86
672.92	337.66
673.26	336.51
673.60	335.43
673.94	334.28
674.28	333.25
674.62	332.20
674.96	331.08
675.30	329.99
675.64	328.93
675.97	327.71
676.31	326.52
676.65	325.43
676.99	324.54
677.33	323.46
677.67	322.43
678.01	321.22
678.34	320.06
678.68	318.98
679.02	317.86
679.36	316.81
679.70	315.85
680.04	314.83
680.37	313.81
680.71	312.78
681.05	311.94
681.39	310.92
681.73	309.94
682.06	308.98
682.40	308.05
682.74	307.18
683.08	306.47
683.42	305.55
683.75	304.76
684.09	303.77
684.43	302.92
684.77	302.01
685.10	301.06
685.44	300.24
685.78	299.21
686.12	298.45
686.45	297.62
686.79	296.59
687.13	295.77
687.46	294.88
687.80	294.16
688.14	293.20
688.48	292.40
688.81	291.46
689.15	290.71
689.49	289.82
689.82	289.03
690.16	287.92
690.50	287.02
690.83	286.08
691.17	285.22
691.51	284.30
691.84	283.50
692.18	282.77
692.52	282.02
692.85	281.52
693.19	280.92
693.52	280.06
693.86	279.29
694.20	278.60
694.53	277.91
694.87	277.13
695.21	276.42
695.54	275.74
695.88	275.01
696.21	274.17
696.55	273.54
696.88	272.80
697.22	272.18
697.56	271.71
697.89	271.05
698.23	270.40
698.56	269.86
698.90	269.28
699.23	268.59
699.57	267.95
699.90	267.23
700.24	266.43
700.58	265.84
700.91	265.37
701.25	265.05
701.58	264.56
701.92	264.04
702.25	263.51
702.59	262.91
702.92	262.44
703.26	261.93
703.59	261.43
703.93	261.16
704.26	260.68
704.60	260.11
704.93	259.58
705.26	259.10
705.60	258.67
705.93	258.10
706.27	257.71
706.60	257.30
706.94	256.98
707.27	256.47
707.61	255.97
707.94	255.45
708.27	254.65
708.61	254.13
708.94	253.62
709.28	253.20
709.61	252.69
709.94	252.27
710.28	251.91
710.61	251.43
710.95	250.70
711.28	250.48
711.61	250.01
711.95	249.73
712.28	249.25
712.61	248.80
712.95	248.64
713.28	248.39
713.61	247.93
713.95	247.30
714.28	246.99
714.61	246.64
714.95	246.19
715.28	245.80
715.61	245.38
715.95	245.10
716.28	244.64
716.61	244.30
716.95	243.89
717.28	243.45
717.61	243.13
717.94	242.79
718.28	242.28
718.61	241.91
718.94	241.48
719.27	241.26
719.61	241.06
719.94	240.54
720.27	240.06
720.60	239.71
720.94	239.45
721.27	239.17
721.60	238.87
721.93	238.63
722.27	238.49
722.60	238.30
722.93	237.93
723.26	237.68
723.59	237.41
723.93	237.20
724.26	237.03
724.59	236.75
724.92	236.54
725.25	236.31
725.59	236.12
725.92	236.00
726.25	235.77
726.58	235.42
726.91	235.30
727.24	235.14
727.57	234.93
727.91	234.63
728.24	234.41
728.57	234.22
728.90	234.05
729.23	233.77
729.56	233.75
729.89	233.53
730.22	233.31
730.55	233.09
730.89	232.85
731.22	232.56
731.55	232.37
731.88	232.21
732.21	231.99
732.54	231.66
732.87	231.41
733.20	231.17
733.53	231.04
733.86	230.85
734.19	230.52
734.52	230.45
734.85	230.58
735.18	230.36
735.51	230.31
735.84	230.11
736.17	230.00
736.50	229.53
736.83	229.83
737.16	229.61
737.49	229.46
737.82	229.18
738.15	229.07
738.48	228.90
738.81	228.64
739.14	228.34
739.47	228.21
739.80	227.98
740.13	227.85
740.46	227.55
740.79	227.26
741.12	227.16
741.45	226.87
741.78	226.43
742.11	226.40
742.44	226.15
742.77	226.09
743.10	225.80
743.43	225.68
743.75	225.10
744.08	225.49
744.41	225.29
744.74	225.26
745.07	225.14
745.40	225.02
745.73	225.09
746.06	225.04
746.39	224.94
746.71	224.82
747.04	224.60
747.37	224.44
747.70	224.43
748.03	224.20
748.36	224.14
748.68	224.00
749.01	223.76
749.34	223.65
749.67	223.51
750.00	223.45
750.33	223.57
750.65	223.47
750.98	222.87
751.31	222.78
751.64	222.67
751.97	222.69
752.29	222.48
752.62	222.21
752.95	222.01
753.28	221.89
753.60	221.74
753.93	221.73
754.26	221.69
754.59	221.45
754.91	221.41
755.24	221.26
755.57	221.16
755.90	221.01
756.22	220.82
756.55	220.65
756.88	220.52
757.20	220.19
757.53	219.95
757.86	219.84
758.19	219.77
758.51	219.64
758.84	219.27
759.17	219.19
759.49	219.10
759.82	219.24
760.15	219.10
760.47	219.03
760.80	218.85
761.13	218.80
761.45	218.65
761.78	218.58
762.11	218.52
762.43	218.44
762.76	218.30
763.08	218.32
763.41	218.20
763.74	218.14
764.06	218.01
764.39	217.97
764.71	217.86
765.04	217.77
765.37	217.60
765.69	217.57
766.02	217.53
766.34	217.42
766.67	217.20
767.00	217.23
767.32	217.34
767.65	217.48
767.97	217.40
768.30	217.35
768.62	217.25
768.95	217.16
769.27	217.08
769.60	217.10
769.92	216.96
770.25	216.93
770.57	216.88
770.90	216.86
771.22	216.80
771.55	216.76
771.87	216.72
772.20	216.74
772.52	216.99
772.85	217.33
773.17	217.35
773.50	217.30
773.82	217.22
774.15	216.99
774.47	216.75
774.80	216.64
775.12	216.60
775.45	216.57
775.77	216.53
776.09	216.58
776.42	216.62
776.74	216.66
777.07	216.54
777.39	216.51
777.72	216.41
778.04	216.46
778.36	216.39
778.69	216.36
779.01	216.34
779.33	216.01
779.66	215.53
779.98	215.42
780.31	215.46
780.63	215.58
780.95	215.55
781.28	215.47
781.60	215.42
781.92	215.35
782.25	215.28
782.57	215.29
782.89	215.18
783.22	215.05
783.54	215.00
783.86	215.05
784.19	215.01
784.51	215.12
784.83	215.06
785.16	215.09
785.48	215.06
785.80	215.05
786.12	215.03
786.45	215.02
786.77	215.07
787.09	214.97
787.42	214.84
787.74	214.83
788.06	214.90
788.38	214.82
788.71	214.81
789.03	214.82
789.35	214.81
789.67	214.75
789.99	214.76
790.32	214.62
790.64	214.60
790.96	214.79
791.28	214.63
791.61	214.56
791.93	214.53
792.25	214.50
792.57	214.71
792.89	214.62
793.21	214.67
793.54	214.57
793.86	214.55
794.18	214.50
794.50	214.41
794.82	214.33
795.14	214.40
795.47	214.44
795.79	214.45
796.11	214.36
796.43	214.30
796.75	214.28
797.07	214.28
797.39	214.28
797.71	214.00
798.04	214.05
798.36	214.05
798.68	214.03
799.00	213.96
799.32	213.71
799.64	213.75
799.96	213.70
800.28	213.71
800.60	213.65
800.92	213.65
801.24	213.63
801.56	213.67
801.89	213.65
802.21	213.70
802.53	213.59
802.85	213.68
803.17	213.87
803.49	213.77
803.81	213.76
804.13	213.73
804.45	213.63
804.77	213.63
805.09	213.57
805.41	213.42
805.73	213.41
806.05	213.27
806.37	213.26
806.69	213.23
807.01	213.15
807.33	213.15
807.65	212.97
807.97	213.12
808.28	213.05
808.60	212.95
808.92	212.83
809.24	213.05
809.56	212.93
809.88	212.80
810.20	212.85
810.52	212.92
810.84	212.85
811.16	212.85
811.48	212.80
811.80	212.95
812.12	212.98
812.43	213.02
812.75	213.11
813.07	213.07
813.39	213.01
813.71	213.00
814.03	212.97
814.35	212.96
814.67	212.86
814.98	212.84
815.30	212.90
815.62	212.90
815.94	212.63
816.26	212.61
816.58	212.50
816.89	212.51
817.21	212.45
817.53	212.42
817.85	212.40
818.17	212.40
818.48	212.28
818.80	212.34
819.12	212.31
819.44	212.24
819.76	212.20
820.07	212.33
820.39	212.33
820.71	212.35
821.03	212.48
821.34	212.40
821.66	212.50
821.98	212.52
822.30	212.48
822.61	212.74
822.93	212.77
823.25	212.78
823.57	212.71
823.88	212.75
824.20	212.75
824.52	212.85
824.83	212.81
825.15	212.81
825.47	212.77
825.79	212.82
826.10	212.79
826.42	212.78
826.74	212.73
827.05	212.79
827.37	212.77
827.69	212.76
828.00	212.84
828.32	212.83
828.64	212.80
828.95	213.03
829.27	212.92
829.58	212.93
829.90	213.00
830.22	213.00
830.53	212.97
830.85	213.01
831.17	212.92
831.48	212.95
831.80	212.94
832.11	212.92
832.43	212.86
832.75	212.91
833.06	213.08
833.38	213.00
833.69	212.92
834.01	212.99
834.32	212.86
834.64	212.80
834.96	212.77
835.27	212.82
835.59	212.66
835.90	212.53
836.22	212.49
836.53	212.38
836.85	212.38
837.16	212.70
837.48	212.62
837.79	212.64
838.11	212.69
838.42	212.57
838.74	212.63
839.05	212.55
839.37	212.46
839.68	212.23
840.00	212.19
840.31	212.21
840.63	212.11
840.94	212.13
841.26	212.05
841.57	211.95
841.88	211.90
842.20	211.85
842.51	211.83
842.83	211.80
843.14	212.10
843.46	212.13
843.77	211.86
844.08	211.83
844.40	211.82
844.71	211.70
845.03	211.73
845.34	211.62
845.65	211.53
845.97	211.51
846.28	211.61
846.60	211.60
846.91	211.55
847.22	211.51
847.54	211.59
847.85	211.60
848.16	211.63
848.48	211.54
848.79	211.69
849.10	211.74
849.42	211.71
849.73	211.40
850.04	211.38
850.36	211.31
850.67	211.38
850.98	211.31
851.30	211.36
851.61	211.36
851.92	211.41
852.23	211.57
852.55	211.68
852.86	211.58
853.17	211.65
853.49	211.72
853.80	211.88
854.11	211.92
854.42	211.97
854.74	211.93
855.05	211.89
855.36	211.62
855.67	211.66
855.99	211.66
856.30	212.01
856.61	211.99
856.92	211.98
857.23	211.99
857.55	211.97
857.86	211.88
858.17	211.90
858.48	211.85
858.79	211.80
859.11	211.77
859.42	211.80
859.73	211.77
860.04	211.73
860.35	211.59
860.66	211.47
860.98	211.47
861.29	211.48
861.60	211.54
861.91	211.69
862.22	211.55
862.53	211.53
862.84	211.20
863.16	211.23
863.47	211.14
863.78	211.08
864.09	211.10
864.40	211.18
864.71	211.12
865.02	211.12
865.33	211.09
865.64	211.05
865.95	211.02
866.27	211.24
866.58	211.27
866.89	211.24
867.20	211.18
867.51	211.09
867.82	211.11
868.13	211.19
868.44	211.13
868.75	211.28
869.06	211.25
869.37	211.25
869.68	211.15
869.99	211.19
870.30	211.23
870.61	211.29
870.92	211.25
871.23	211.35
871.54	211.37
871.85	211.47
872.16	211.53
872.47	211.53
872.78	211.28
873.09	211.25
873.40	211.31
873.71	211.36
874.02	211.43
874.33	211.40
874.64	211.36
874.95	211.44
875.26	211.42
875.56	211.51
875.87	211.48
876.18	211.47
876.49	211.80
876.80	211.77
877.11	211.67
877.42	211.64
877.73	211.55
878.04	211.55
878.35	211.51
878.66	211.50
878.96	211.49
879.27	211.53
879.58	211.50
879.89	211.39
880.20	211.47
880.51	211.46
880.82	211.45
881.12	211.49
881.43	211.40
881.74	211.29
882.05	211.26
882.36	211.36
882.67	211.33
882.97	211.01
883.28	211.02
883.59	211.07
883.90	211.15
884.21	211.30
884.51	211.24
884.82	211.18
885.13	211.23
885.44	211.27
885.74	211.20
886.05	211.25
886.36	211.30
886.67	211.22
886.98	211.39
887.28	211.33
887.59	211.28
887.90	211.24
888.20	211.21
888.51	211.27
888.82	211.17
889.13	211.25
889.43	211.54
889.74	211.50
890.05	211.47
890.35	211.35
890.66	211.29
890.97	211.26
891.28	211.21
891.58	211.12
891.89	211.05
892.20	210.99
892.50	210.92
892.81	210.90
893.12	210.87
893.42	210.62
893.73	210.70
894.04	210.74
894.34	210.79
894.65	210.83
894.95	210.77
895.26	210.85
895.57	210.99
895.87	210.70
896.18	210.77
896.48	210.80
896.79	210.81
897.10	210.85
897.40	210.89
897.71	210.98
898.01	210.93
898.32	211.00
898.63	211.05
898.93	211.05
899.24	211.15
899.54	211.20
899.85	211.24
900.15	211.18
900.46	211.22
900.76	211.25
901.07	211.19
901.38	211.14
901.68	211.13
901.99	210.91
902.29	210.89
902.60	210.81
902.90	210.71
903.21	210.70
903.51	210.61
903.82	210.75
904.12	210.74
904.43	210.80
904.73	210.73
905.03	210.77
905.34	211.06
905.64	210.92
905.95	210.82
906.25	210.76
906.56	210.81
906.86	210.73
907.17	210.68
907.47	210.76
907.77	210.80
908.08	210.70
908.38	210.80
908.69	210.91
908.99	211.05
909.30	211.18
909.60	211.22
909.90	211.32
910.21	211.22
910.51	211.19
910.81	211.17
911.12	211.26
911.42	211.22
911.73	210.92
912.03	210.97
912.33	211.07
912.64	211.10
912.94	211.03
913.24	210.96
913.55	210.98
913.85	210.92
914.15	210.97
914.46	211.10
914.76	211.06
915.06	210.96
915.37	210.86
915.67	210.83
915.97	210.81
916.27	210.72
916.58	210.71
916.88	210.70
917.18	210.71
917.49	210.97
917.79	211.00
918.09	211.06
918.39	211.20
918.70	211.22
919.00	211.26
919.30	211.46
919.60	211.50
919.91	211.44
920.21	211.50
920.51	211.44
920.81	211.34
921.12	211.36
921.42	211.37
921.72	211.37
922.02	211.39
922.32	211.47
922.63	211.51
922.93	211.65
923.23	211.65
923.53	211.66
923.83	211.34
924.13	211.37
924.44	211.39
924.74	211.40
925.04	211.39
925.34	211.33
925.64	211.20
925.94	211.20
926.24	211.39
926.55	211.30
926.85	211.31
927.15	211.40
927.45	211.39
927.75	211.37
928.05	211.41
928.35	211.34
928.65	211.40
928.95	211.41
929.26	211.34
929.56	211.42
929.86	211.40
930.16	211.38
930.46	211.37
930.76	211.30
931.06	211.17
931.36	211.11
931.66	211.30
931.96	211.37
932.26	211.37
932.56	211.25
932.86	211.38
933.16	211.40
933.46	211.26
933.76	211.22
934.06	211.35
934.36	211.42
934.66	211.43
934.96	211.31
935.26	211.31
935.56	211.38
935.86	211.28
936.16	211.26
936.46	211.28
936.76	211.28
937.06	211.31
937.36	211.32
937.66	211.35
937.96	211.22
938.26	211.12
938.56	211.14
938.86	211.17
939.16	211.14
939.46	211.18
939.76	211.29
940.06	211.26
940.35	211.12
940.65	210.99
940.95	211.04
941.25	211.04
941.55	211.02
941.85	210.93
942.15	211.06
942.45	211.16
942.75	211.06
943.04	211.09
943.34	211.15
943.64	211.13
943.94	211.04
944.24	211.10
944.54	211.16
944.84	211.17
945.13	211.08
945.43	211.10
945.73	211.13
946.03	211.19
946.33	211.31
946.62	211.27
946.92	211.25
947.22	211.26
947.52	211.33
947.82	211.37
948.11	211.40
948.41	211.37
948.71	211.29
949.01	211.40
949.31	211.34
949.60	211.31
949.90	211.40
950.20	211.46
950.50	211.39
950.79	211.35
951.09	211.38
951.39	211.40
951.69	211.35
951.98	211.36
952.28	211.26
952.58	211.19
952.87	211.25
953.17	211.35
953.47	211.28
953.76	211.19
954.06	211.18
954.36	211.08
954.66	211.08
954.95	211.17
955.25	211.18
955.55	211.20
955.84	211.22
956.14	211.20
956.44	211.17
956.73	211.10
957.03	211.10
957.32	211.13
957.62	211.10
957.92	211.16
958.21	211.10
958.51	211.56
958.81	211.49
959.10	211.47
959.40	211.51
959.69	211.60
959.99	211.72
960.29	211.64
960.58	211.66
960.88	211.67
961.17	211.60
961.47	211.61
961.76	211.55
962.06	211.53
962.36	211.51
962.65	211.58
962.95	211.62
963.24	211.58
963.54	211.55
963.83	211.57
964.13	211.62
964.42	211.52
964.72	211.11
965.01	211.26
965.31	211.26
965.60	211.21
965.90	211.40
966.19	211.27
966.49	211.27
966.78	211.26
967.08	211.31
967.37	211.32
967.67	211.28
967.96	211.39
968.26	211.42
968.55	211.51
968.85	211.48
969.14	211.47
969.43	211.51
969.73	211.42
970.02	211.41
970.32	211.23
970.61	211.23
970.91	211.20
971.20	211.12
971.49	211.12
971.79	211.14
972.08	210.91
972.38	210.94
972.67	210.92
972.96	210.96
973.26	210.83
973.55	210.92
973.85	210.88
974.14	210.83
974.43	210.76
974.73	210.60
975.02	210.56
975.31	210.57
975.61	210.61
975.90	210.61
976.19	210.54
976.49	210.68
976.78	210.78
977.07	210.74
977.37	210.76
977.66	210.79
977.95	210.74
978.24	210.67
978.54	210.76
978.83	210.77
979.12	210.72
979.42	210.71
979.71	210.72
980.00	210.73
980.29	210.77
980.59	210.74
980.88	210.88
981.17	210.90
981.46	210.88
981.76	210.80
982.05	210.91
982.34	210.97
982.63	210.89
982.93	210.84
983.22	210.95
983.51	210.90
983.80	210.96
984.09	210.99
984.39	211.06
984.68	211.04
984.97	211.11
985.26	211.13
985.55	211.15
985.85	211.03
986.14	211.11
986.43	211.12
986.72	211.14
987.01	211.00
987.30	210.96
987.59	210.94
987.89	211.00
988.18	210.91
988.47	210.85
988.76	210.79
989.05	210.76
989.34	210.67
989.63	210.83
989.92	210.72
990.22	210.75
990.51	210.70
990.80	210.67
991.09	210.69
991.38	210.74
991.67	210.73
991.96	210.74
992.25	210.72
992.54	210.73
992.83	210.69
993.12	210.72
993.41	210.80
993.70	210.89
993.99	210.90
994.28	211.00
994.58	211.08
994.87	211.09
995.16	211.05
995.45	211.06
995.74	210.96
996.03	211.05
996.32	211.06
996.61	211.19
996.90	211.20
997.19	211.16
997.48	211.17
997.77	211.12
998.06	211.14
998.34	211.12
998.63	211.02
998.92	211.10
999.21	211.18
999.50	211.20
999.79	211.14
1000.08	211.13
1000.37	211.08
1000.66	211.08
1000.95	211.21
1001.24	211.27
1001.53	211.31
1001.82	211.24
1002.11	211.18
1002.40	211.21
1002.68	211.25
1002.97	211.47
1003.26	211.45
1003.55	211.38
1003.84	211.43
1004.13	211.54
1004.42	211.51
1004.71	211.61
1004.99	211.54
1005.28	211.57
1005.57	211.55
1005.86	211.53
1006.15	211.48
1006.44	211.39
1006.72	211.42
1007.01	211.35
1007.30	211.40
1007.59	211.37
1007.88	211.40
1008.17	211.43
1008.45	211.37
1008.74	211.22
1009.03	210.99
1009.32	210.98
1009.60	210.95
1009.89	210.90
1010.18	210.73
1010.47	210.69
1010.76	210.61
1011.04	210.64
1011.33	210.65
1011.62	210.72
1011.91	210.76
1012.19	210.83
1012.48	210.87
1012.77	210.89
1013.05	211.02
1013.34	211.00
1013.63	211.00
1013.92	210.97
1014.20	210.90
1014.49	210.87
1014.78	210.89
1015.06	210.89
1015.35	210.86
1015.64	210.97
1015.92	211.04
1016.21	211.10
1016.50	211.15
1016.78	211.19
1017.07	211.19
1017.36	211.08
1017.64	211.07
1017.93	211.08
1018.22	211.03
1018.50	211.00
1018.79	210.96
1019.08	210.80
1019.36	210.85
1019.65	210.74
1019.93	210.90
1020.22	210.97
1020.51	211.18
1020.79	211.06
1021.08	210.40
1021.36	209.80
1021.65	211.00
1021.94	210.65
1022.22	211.70
1022.51	208.95
1022.79	212.85
1023.08	211.60
1023.36	215.25
1023.65	208.60
>>>>>End Processed Spectral Data<<<<<
