SpectraSuite Data File
++++++++++++++++++++++++++++++++++++
Date: Mon Feb 25 17:05:10 EST 2013
User: group
Dark Spectrum Present: No
Reference Spectrum Present: No
Number of Sampled Component Spectra: 1
Spectrometers: USB2E7196
Integration Time (usec): 104000 (USB2E7196)
Spectra Averaged: 20 (USB2E7196)
Boxcar Smoothing: 10 (USB2E7196)
Correct for Electrical Dark: No (USB2E7196)
Strobe/Lamp Enabled: No (USB2E7196)
Correct for Detector Non-linearity: No (USB2E7196)
Correct for Stray Light: No (USB2E7196)
Number of Pixels in Processed Spectrum: 2048
>>>>>Begin Processed Spectral Data<<<<<
339.09	0.00
339.48	198.70
339.86	200.45
340.24	200.35
340.63	202.05
341.01	209.65
341.39	205.50
341.78	208.05
342.16	207.80
342.54	208.15
342.93	198.28
343.31	208.27
343.69	208.78
344.07	209.23
344.46	209.77
344.84	210.19
345.22	210.24
345.60	210.52
345.99	210.63
346.37	210.76
346.75	210.82
347.13	210.83
347.52	210.79
347.90	210.87
348.28	210.83
348.66	210.90
349.05	210.77
349.43	210.82
349.81	210.86
350.19	210.94
350.57	210.95
350.96	210.93
351.34	210.98
351.72	211.04
352.10	211.10
352.48	211.03
352.87	211.07
353.25	211.06
353.63	211.09
354.01	211.15
354.39	211.18
354.77	211.30
355.15	211.50
355.54	211.52
355.92	211.43
356.30	211.47
356.68	211.81
357.06	211.88
357.44	211.96
357.82	212.04
358.20	212.12
358.58	212.19
358.97	212.30
359.35	212.48
359.73	212.64
360.11	212.70
360.49	212.79
360.87	212.85
361.25	212.97
361.63	213.16
362.01	213.21
362.39	213.30
362.77	213.33
363.15	213.30
363.53	213.34
363.91	213.37
364.29	213.42
364.67	213.09
365.05	213.07
365.43	213.08
365.81	213.04
366.19	213.20
366.57	213.36
366.95	213.34
367.33	213.21
367.71	213.18
368.09	213.16
368.47	213.16
368.85	213.10
369.23	213.14
369.61	212.95
369.99	213.04
370.37	213.02
370.75	213.12
371.13	213.06
371.51	212.98
371.89	213.00
372.27	212.97
372.65	212.95
373.03	212.91
373.41	212.85
373.78	212.85
374.16	212.61
374.54	212.40
374.92	212.33
375.30	212.27
375.68	212.08
376.06	212.11
376.44	212.03
376.82	212.01
377.19	211.94
377.57	211.88
377.95	211.72
378.33	211.66
378.71	211.47
379.09	211.46
379.47	211.45
379.84	211.32
380.22	211.29
380.60	211.21
380.98	211.17
381.36	211.05
381.73	210.88
382.11	210.95
382.49	210.96
382.87	210.87
383.25	210.82
383.62	211.25
384.00	211.16
384.38	211.15
384.76	211.19
385.13	211.26
385.51	211.22
385.89	211.11
386.27	211.09
386.64	211.10
387.02	211.06
387.40	210.98
387.78	211.02
388.15	210.97
388.53	210.94
388.91	210.93
389.29	210.90
389.66	210.94
390.04	210.89
390.42	210.88
390.79	210.94
391.17	210.95
391.55	210.55
391.92	210.55
392.30	210.52
392.68	210.40
393.05	210.40
393.43	210.43
393.81	210.46
394.18	210.40
394.56	210.35
394.94	210.39
395.31	210.38
395.69	210.46
396.06	210.53
396.44	210.53
396.82	210.53
397.19	210.74
397.57	210.74
397.95	210.73
398.32	210.66
398.70	210.68
399.07	210.71
399.45	210.74
399.82	210.74
400.20	210.82
400.58	210.86
400.95	210.67
401.33	210.73
401.70	210.99
402.08	211.00
402.45	211.08
402.83	211.17
403.20	211.21
403.58	211.19
403.95	211.26
404.33	211.44
404.71	211.51
405.08	211.70
405.46	211.78
405.83	211.90
406.21	211.99
406.58	212.09
406.96	212.23
407.33	212.37
407.70	212.55
408.08	212.91
408.45	213.15
408.83	213.48
409.20	213.64
409.58	213.65
409.95	213.97
410.33	214.19
410.70	214.37
411.08	214.73
411.45	215.03
411.82	215.32
412.20	215.71
412.57	216.27
412.95	216.40
413.32	216.89
413.69	217.36
414.07	217.90
414.44	218.53
414.82	219.14
415.19	219.85
415.56	220.50
415.94	221.06
416.31	221.93
416.68	222.74
417.06	223.70
417.43	224.78
417.81	225.83
418.18	226.95
418.55	228.02
418.93	229.25
419.30	230.55
419.67	231.91
420.04	233.15
420.42	234.52
420.79	236.48
421.16	238.13
421.54	240.00
421.91	241.82
422.28	243.51
422.66	245.47
423.03	247.56
423.40	249.57
423.77	251.73
424.15	253.83
424.52	256.07
424.89	258.63
425.26	260.94
425.64	263.23
426.01	265.73
426.38	268.43
426.75	271.18
427.13	273.96
427.50	276.90
427.87	280.02
428.24	282.99
428.61	285.71
428.99	289.08
429.36	292.56
429.73	295.99
430.10	299.55
430.47	303.09
430.85	306.61
431.22	310.60
431.59	314.92
431.96	318.93
432.33	323.34
432.70	327.60
433.08	332.60
433.45	337.37
433.82	342.10
434.19	347.33
434.56	352.46
434.93	357.32
435.30	362.21
435.68	367.75
436.05	373.19
436.42	378.61
436.79	383.53
437.16	388.88
437.53	394.55
437.90	400.12
438.27	405.66
438.64	411.47
439.01	416.90
439.38	421.52
439.75	426.17
440.13	431.40
440.50	436.50
440.87	440.65
441.24	444.91
441.61	449.70
441.98	453.39
442.35	457.58
442.72	461.85
443.09	466.10
443.46	468.59
443.83	470.56
444.20	472.14
444.57	474.35
444.94	475.47
445.31	476.76
445.68	478.37
446.05	479.05
446.42	478.79
446.79	478.44
447.16	478.05
447.53	477.81
447.90	476.10
448.27	474.14
448.64	471.49
449.01	469.70
449.37	466.32
449.74	462.96
450.11	459.12
450.48	454.76
450.85	450.02
451.22	446.22
451.59	442.50
451.96	438.97
452.33	434.27
452.70	429.99
453.07	424.74
453.43	419.16
453.80	414.08
454.17	409.14
454.54	404.45
454.91	399.49
455.28	394.60
455.65	390.01
456.02	385.93
456.38	382.06
456.75	377.34
457.12	373.25
457.49	369.22
457.86	365.16
458.23	361.90
458.59	358.33
458.96	354.61
459.33	351.24
459.70	347.98
460.07	345.24
460.43	342.15
460.80	339.33
461.17	336.79
461.54	334.20
461.91	331.73
462.27	329.13
462.64	326.87
463.01	324.52
463.38	322.44
463.74	319.69
464.11	317.62
464.48	315.73
464.85	313.73
465.21	312.28
465.58	310.61
465.95	308.53
466.32	306.91
466.68	305.33
467.05	303.75
467.42	302.17
467.78	300.54
468.15	298.99
468.52	297.85
468.88	296.26
469.25	294.95
469.62	293.81
469.98	292.59
470.35	291.48
470.72	290.47
471.08	289.13
471.45	288.24
471.82	287.36
472.18	286.25
472.55	285.49
472.92	284.48
473.28	283.69
473.65	282.85
474.02	282.11
474.38	281.44
474.75	280.88
475.11	280.20
475.48	279.65
475.85	279.16
476.21	278.64
476.58	278.19
476.94	277.76
477.31	277.42
477.67	277.09
478.04	276.74
478.41	276.50
478.77	276.61
479.14	276.17
479.50	275.91
479.87	275.83
480.23	275.73
480.60	275.61
480.96	275.46
481.33	275.65
481.69	275.54
482.06	275.50
482.42	275.58
482.79	275.70
483.15	275.89
483.52	276.16
483.88	276.25
484.25	276.41
484.61	276.62
484.98	276.79
485.34	277.12
485.71	277.45
486.07	277.73
486.44	277.78
486.80	278.24
487.17	278.61
487.53	279.15
487.90	279.64
488.26	280.25
488.62	280.87
488.99	281.30
489.35	281.98
489.72	282.64
490.08	283.24
490.44	283.84
490.81	284.59
491.17	285.33
491.54	286.20
491.90	287.14
492.26	288.05
492.63	289.00
492.99	289.81
493.36	290.93
493.72	292.00
494.08	293.07
494.45	294.22
494.81	295.34
495.17	296.44
495.54	297.57
495.90	298.75
496.26	299.88
496.63	301.15
496.99	302.38
497.35	303.71
497.72	304.99
498.08	306.35
498.44	307.56
498.80	308.91
499.17	310.22
499.53	311.52
499.89	312.91
500.26	314.23
500.62	315.61
500.98	316.88
501.34	318.16
501.71	319.58
502.07	320.83
502.43	322.14
502.79	323.36
503.16	324.66
503.52	325.85
503.88	327.10
504.24	328.35
504.60	329.67
504.97	330.83
505.33	332.07
505.69	333.38
506.05	334.62
506.41	335.66
506.78	336.77
507.14	337.82
507.50	338.84
507.86	339.94
508.22	341.10
508.59	342.05
508.95	343.06
509.31	344.19
509.67	345.26
510.03	346.26
510.39	347.29
510.75	348.21
511.12	349.21
511.48	350.09
511.84	351.04
512.20	351.84
512.56	352.73
512.92	353.66
513.28	354.49
513.64	355.32
514.00	356.19
514.37	356.94
514.73	357.80
515.09	358.68
515.45	359.31
515.81	360.00
516.17	360.79
516.53	361.53
516.89	362.04
517.25	362.72
517.61	363.54
517.97	364.25
518.33	365.00
518.69	365.75
519.05	366.53
519.41	367.24
519.77	368.11
520.13	368.93
520.49	369.64
520.85	370.31
521.21	371.18
521.57	372.09
521.93	372.96
522.29	373.93
522.65	374.70
523.01	375.74
523.37	376.68
523.73	377.68
524.09	378.67
524.45	379.67
524.81	380.81
525.17	381.96
525.53	383.19
525.89	384.38
526.25	385.73
526.61	387.09
526.97	388.43
527.33	389.83
527.68	391.54
528.04	393.00
528.40	394.54
528.76	396.06
529.12	397.70
529.48	399.41
529.84	401.05
530.20	402.92
530.56	404.70
530.91	406.74
531.27	408.68
531.63	410.66
531.99	412.75
532.35	414.65
532.71	416.67
533.07	418.75
533.42	421.20
533.78	423.31
534.14	425.33
534.50	427.40
534.86	429.73
535.21	431.57
535.57	433.99
535.93	436.33
536.29	438.81
536.65	441.05
537.00	443.35
537.36	445.77
537.72	448.07
538.08	450.57
538.44	452.94
538.79	455.42
539.15	457.95
539.51	460.48
539.87	463.15
540.22	465.74
540.58	468.40
540.94	470.79
541.29	473.41
541.65	476.19
542.01	479.04
542.37	481.64
542.72	484.42
543.08	486.91
543.44	489.71
543.79	492.16
544.15	495.06
544.51	498.09
544.87	500.92
545.22	503.83
545.58	506.55
545.94	509.29
546.29	512.01
546.65	514.78
547.01	517.42
547.36	520.25
547.72	522.95
548.07	525.62
548.43	528.25
548.79	530.71
549.14	533.32
549.50	536.00
549.86	538.44
550.21	541.08
550.57	543.88
550.92	546.46
551.28	549.12
551.64	551.54
551.99	554.02
552.35	556.54
552.70	558.89
553.06	561.48
553.41	563.97
553.77	566.65
554.13	568.89
554.48	571.49
554.84	573.92
555.19	576.17
555.55	578.71
555.90	581.00
556.26	583.31
556.61	585.33
556.97	587.26
557.32	589.53
557.68	591.55
558.03	593.54
558.39	595.43
558.74	597.55
559.10	599.65
559.45	601.61
559.81	603.56
560.16	605.42
560.52	607.33
560.87	609.21
561.23	610.76
561.58	613.04
561.94	614.63
562.29	616.34
562.64	618.16
563.00	619.65
563.35	621.35
563.71	623.30
564.06	625.25
564.42	627.20
564.77	629.01
565.12	630.96
565.48	632.84
565.83	634.60
566.19	636.13
566.54	637.60
566.89	638.96
567.25	640.63
567.60	642.25
567.96	643.78
568.31	645.15
568.66	646.54
569.02	647.38
569.37	648.40
569.72	649.44
570.08	650.55
570.43	651.54
570.78	652.32
571.14	652.96
571.49	653.62
571.84	654.19
572.20	654.67
572.55	655.02
572.90	655.29
573.26	655.60
573.61	656.07
573.96	656.49
574.31	656.64
574.67	656.60
575.02	656.62
575.37	656.60
575.72	656.52
576.08	656.54
576.43	656.47
576.78	656.66
577.13	656.58
577.49	656.49
577.84	656.21
578.19	656.48
578.54	656.58
578.90	656.59
579.25	656.52
579.60	656.15
579.95	655.97
580.30	655.90
580.66	655.95
581.01	655.52
581.36	655.15
581.71	655.04
582.06	655.03
582.42	654.75
582.77	654.40
583.12	654.24
583.47	654.11
583.82	653.89
584.17	653.54
584.53	653.49
584.88	653.22
585.23	653.21
585.58	652.81
585.93	652.39
586.28	652.11
586.63	651.80
586.98	651.71
587.34	651.48
587.69	651.07
588.04	650.49
588.39	650.21
588.74	649.70
589.09	649.28
589.44	648.48
589.79	648.01
590.14	647.60
590.49	647.00
590.84	646.16
591.19	645.92
591.54	645.47
591.89	644.38
592.25	644.05
592.60	643.04
592.95	642.07
593.30	641.22
593.65	640.20
594.00	639.16
594.35	639.16
594.70	638.07
595.05	637.21
595.40	636.39
595.75	635.24
596.10	634.44
596.45	633.55
596.80	632.80
597.15	632.10
597.50	631.03
597.85	630.29
598.19	629.30
598.54	628.21
598.89	627.17
599.24	626.51
599.59	625.23
599.94	624.61
600.29	623.81
600.64	622.96
600.99	622.10
601.34	621.43
601.69	619.68
602.04	618.75
602.39	617.59
602.74	616.68
603.08	616.24
603.43	615.60
603.78	614.74
604.13	613.76
604.48	612.81
604.83	612.15
605.18	611.34
605.53	610.59
605.87	609.56
606.22	608.78
606.57	607.88
606.92	606.88
607.27	605.92
607.62	604.99
607.96	604.03
608.31	603.18
608.66	601.94
609.01	600.67
609.36	599.64
609.70	598.67
610.05	597.50
610.40	596.17
610.75	594.70
611.10	593.59
611.44	592.25
611.79	590.81
612.14	589.29
612.49	587.48
612.83	586.04
613.18	584.51
613.53	582.94
613.88	581.22
614.22	579.81
614.57	578.22
614.92	576.50
615.27	574.96
615.61	573.38
615.96	572.03
616.31	570.71
616.65	569.40
617.00	567.74
617.35	566.16
617.70	564.41
618.04	562.75
618.39	560.72
618.74	559.07
619.08	557.36
619.43	555.64
619.78	554.16
620.12	552.52
620.47	550.99
620.82	549.17
621.16	547.40
621.51	545.66
621.85	543.93
622.20	542.31
622.55	540.45
622.89	538.74
623.24	536.94
623.59	534.84
623.93	532.93
624.28	531.34
624.62	529.94
624.97	528.38
625.32	526.64
625.66	525.19
626.01	523.55
626.35	521.90
626.70	520.22
627.04	518.82
627.39	517.19
627.73	515.61
628.08	514.26
628.43	512.66
628.77	510.90
629.12	509.14
629.46	507.58
629.81	506.04
630.15	504.29
630.50	502.52
630.84	501.06
631.19	499.50
631.53	497.82
631.88	495.59
632.22	493.79
632.57	492.42
632.91	490.85
633.26	489.24
633.60	487.56
633.95	486.04
634.29	484.20
634.64	482.68
634.98	480.89
635.32	479.15
635.67	477.78
636.01	476.31
636.36	474.82
636.70	473.35
637.05	471.67
637.39	470.16
637.73	468.88
638.08	467.66
638.42	466.21
638.77	464.85
639.11	463.65
639.45	462.13
639.80	460.38
640.14	458.63
640.49	457.05
640.83	455.53
641.17	453.90
641.52	452.26
641.86	450.66
642.20	449.34
642.55	447.55
642.89	445.79
643.23	444.18
643.58	442.80
643.92	441.02
644.26	439.55
644.61	438.00
644.95	436.31
645.29	434.46
645.64	432.85
645.98	431.07
646.32	429.47
646.66	427.87
647.01	426.21
647.35	424.75
647.69	423.09
648.04	421.70
648.38	420.29
648.72	418.82
649.06	417.18
649.41	415.49
649.75	414.10
650.09	412.68
650.43	411.11
650.78	409.35
651.12	407.81
651.46	406.21
651.80	404.70
652.14	403.19
652.49	401.71
652.83	400.23
653.17	398.63
653.51	397.00
653.85	395.54
654.20	394.26
654.54	392.61
654.88	391.18
655.22	389.59
655.56	387.86
655.90	386.34
656.25	384.84
656.59	383.30
656.93	381.75
657.27	380.36
657.61	378.82
657.95	377.34
658.29	375.94
658.64	374.61
658.98	373.05
659.32	371.42
659.66	370.05
660.00	368.49
660.34	367.05
660.68	365.61
661.02	364.26
661.36	362.70
661.70	361.41
662.05	360.03
662.39	358.84
662.73	357.61
663.07	356.45
663.41	355.25
663.75	353.82
664.09	352.51
664.43	351.14
664.77	349.94
665.11	348.74
665.45	347.47
665.79	346.24
666.13	345.00
666.47	343.84
666.81	342.54
667.15	341.24
667.49	340.19
667.83	339.18
668.17	337.89
668.51	336.85
668.85	335.88
669.19	334.92
669.53	333.57
669.87	332.43
670.21	331.19
670.55	329.97
670.89	329.25
671.23	328.40
671.57	327.33
671.91	326.24
672.25	325.17
672.58	324.33
672.92	323.15
673.26	322.32
673.60	321.46
673.94	320.49
674.28	319.63
674.62	318.76
674.96	317.85
675.30	316.94
675.64	316.03
675.97	315.00
676.31	313.98
676.65	313.16
676.99	312.36
677.33	311.44
677.67	310.59
678.01	309.56
678.34	308.56
678.68	307.64
679.02	306.77
679.36	305.94
679.70	304.93
680.04	304.23
680.37	303.31
680.71	302.40
681.05	301.69
681.39	300.90
681.73	300.01
682.06	299.17
682.40	298.49
682.74	297.65
683.08	296.92
683.42	296.11
683.75	295.39
684.09	294.61
684.43	293.94
684.77	293.11
685.10	292.33
685.44	291.43
685.78	290.75
686.12	290.10
686.45	289.25
686.79	288.44
687.13	287.72
687.46	286.95
687.80	286.29
688.14	285.53
688.48	284.80
688.81	284.03
689.15	283.34
689.49	282.53
689.82	281.80
690.16	280.95
690.50	280.30
690.83	279.60
691.17	278.79
691.51	277.97
691.84	277.38
692.18	276.67
692.52	276.02
692.85	275.44
693.19	274.93
693.52	274.35
693.86	273.74
694.20	273.00
694.53	272.40
694.87	271.76
695.21	271.07
695.54	270.44
695.88	269.78
696.21	269.01
696.55	268.44
696.88	267.78
697.22	267.23
697.56	266.72
697.89	266.08
698.23	265.52
698.56	264.97
698.90	264.45
699.23	263.86
699.57	263.45
699.90	262.77
700.24	262.06
700.58	261.55
700.91	261.02
701.25	260.75
701.58	260.32
701.92	259.82
702.25	259.24
702.59	258.65
702.92	258.16
703.26	257.74
703.59	257.26
703.93	257.08
704.26	256.58
704.60	256.05
704.93	255.53
705.26	255.06
705.60	254.57
705.93	253.93
706.27	253.61
706.60	253.20
706.94	252.92
707.27	252.41
707.61	251.97
707.94	251.47
708.27	250.89
708.61	250.34
708.94	249.92
709.28	249.58
709.61	249.18
709.94	248.81
710.28	248.31
710.61	247.95
710.95	247.33
711.28	247.18
711.61	246.80
711.95	246.50
712.28	246.01
712.61	245.69
712.95	245.64
713.28	245.36
713.61	244.99
713.95	244.57
714.28	244.29
714.61	243.89
714.95	243.55
715.28	243.05
715.61	242.71
715.95	242.33
716.28	241.96
716.61	241.71
716.95	241.31
717.28	241.01
717.61	240.62
717.94	240.25
718.28	239.68
718.61	239.35
718.94	238.99
719.27	238.75
719.61	238.55
719.94	238.03
720.27	237.51
720.60	237.24
720.94	236.96
721.27	236.65
721.60	236.45
721.93	236.25
722.27	236.16
722.60	235.90
722.93	235.74
723.26	235.50
723.59	235.15
723.93	234.98
724.26	234.82
724.59	234.60
724.92	234.45
725.25	234.40
725.59	234.16
725.92	234.01
726.25	233.88
726.58	233.59
726.91	233.44
727.24	233.33
727.57	233.11
727.91	232.77
728.24	232.64
728.57	232.35
728.90	232.17
729.23	231.91
729.56	231.95
729.89	231.72
730.22	231.46
730.55	231.29
730.89	231.04
731.22	230.85
731.55	230.67
731.88	230.48
732.21	230.20
732.54	230.01
732.87	229.81
733.20	229.61
733.53	229.47
733.86	229.24
734.19	229.01
734.52	228.88
734.85	228.98
735.18	228.73
735.51	228.77
735.84	228.64
736.17	228.60
736.50	228.16
736.83	228.40
737.16	228.24
737.49	228.12
737.82	227.96
738.15	227.90
738.48	227.74
738.81	227.60
739.14	227.40
739.47	227.25
739.80	227.05
740.13	226.89
740.46	226.71
740.79	226.50
741.12	226.40
741.45	226.15
741.78	225.79
742.11	225.76
742.44	225.52
742.77	225.37
743.10	225.11
743.43	224.93
743.75	224.44
744.08	224.79
744.41	224.70
744.74	224.53
745.07	224.29
745.40	224.16
745.73	224.09
746.06	223.95
746.39	223.81
746.71	223.69
747.04	223.50
747.37	223.35
747.70	223.34
748.03	223.18
748.36	223.12
748.68	223.05
749.01	222.74
749.34	222.60
749.67	222.52
750.00	222.44
750.33	222.67
750.65	222.56
750.98	222.06
751.31	221.90
751.64	221.81
751.97	221.93
752.29	221.86
752.62	221.63
752.95	221.55
753.28	221.45
753.60	221.39
753.93	221.39
754.26	221.24
754.59	221.04
754.91	220.90
755.24	220.73
755.57	220.64
755.90	220.60
756.22	220.48
756.55	220.28
756.88	220.16
757.20	219.81
757.53	219.59
757.86	219.45
758.19	219.38
758.51	219.34
758.84	219.00
759.17	218.83
759.49	218.80
759.82	218.85
760.15	218.80
760.47	218.62
760.80	218.46
761.13	218.44
761.45	218.31
761.78	218.30
762.11	218.23
762.43	218.08
762.76	218.01
763.08	218.04
763.41	218.04
763.74	217.97
764.06	217.93
764.39	217.93
764.71	217.84
765.04	217.71
765.37	217.62
765.69	217.57
766.02	217.54
766.34	217.41
766.67	217.29
767.00	217.25
767.32	217.34
767.65	217.52
767.97	217.42
768.30	217.44
768.62	217.43
768.95	217.32
769.27	217.32
769.60	217.33
769.92	217.10
770.25	216.95
770.57	216.83
770.90	216.74
771.22	216.71
771.55	216.66
771.87	216.62
772.20	216.56
772.52	216.81
772.85	217.15
773.17	217.10
773.50	216.98
773.82	216.85
774.15	216.65
774.47	216.39
774.80	216.40
775.12	216.36
775.45	216.20
775.77	216.29
776.09	216.24
776.42	216.12
776.74	216.26
777.07	216.27
777.39	216.23
777.72	216.17
778.04	216.02
778.36	215.98
778.69	215.96
779.01	216.00
779.33	215.61
779.66	215.16
779.98	215.12
780.31	215.10
780.63	215.26
780.95	215.33
781.28	215.19
781.60	215.09
781.92	215.10
782.25	215.08
782.57	215.00
782.89	214.93
783.22	214.81
783.54	214.66
783.86	214.60
784.19	214.62
784.51	214.67
784.83	214.65
785.16	214.66
785.48	214.64
785.80	214.50
786.12	214.52
786.45	214.54
786.77	214.49
787.09	214.45
787.42	214.20
787.74	214.19
788.06	214.23
788.38	214.17
788.71	214.06
789.03	214.03
789.35	214.03
789.67	213.99
789.99	214.12
790.32	214.08
790.64	214.18
790.96	214.43
791.28	214.26
791.61	214.25
791.93	214.18
792.25	214.13
792.57	214.45
792.89	214.40
793.21	214.42
793.54	214.34
793.86	214.26
794.18	214.31
794.50	214.13
794.82	214.09
795.14	214.10
795.47	214.13
795.79	214.15
796.11	213.97
796.43	213.85
796.75	213.75
797.07	213.81
797.39	213.69
797.71	213.43
798.04	213.44
798.36	213.45
798.68	213.41
799.00	213.42
799.32	213.22
799.64	213.23
799.96	213.18
800.28	213.33
800.60	213.33
800.92	213.34
801.24	213.40
801.56	213.41
801.89	213.38
802.21	213.40
802.53	213.29
802.85	213.42
803.17	213.61
803.49	213.55
803.81	213.49
804.13	213.34
804.45	213.22
804.77	213.22
805.09	213.20
805.41	213.18
805.73	213.08
806.05	212.95
806.37	212.91
806.69	212.86
807.01	212.72
807.33	212.72
807.65	212.64
807.97	212.80
808.28	212.84
808.60	212.85
808.92	212.75
809.24	213.03
809.56	212.91
809.88	212.82
810.20	212.83
810.52	212.84
810.84	212.89
811.16	212.90
811.48	212.87
811.80	213.02
812.12	212.99
812.43	213.05
812.75	213.10
813.07	213.06
813.39	213.12
813.71	213.08
814.03	213.00
814.35	212.99
814.67	212.79
814.98	212.69
815.30	212.66
815.62	212.64
815.94	212.36
816.26	212.42
816.58	212.29
816.89	212.26
817.21	212.19
817.53	212.25
817.85	212.26
818.17	212.26
818.48	212.02
818.80	212.14
819.12	212.10
819.44	212.01
819.76	212.03
820.07	211.96
820.39	211.99
820.71	212.04
821.03	211.94
821.34	211.89
821.66	211.93
821.98	211.92
822.30	211.89
822.61	212.05
822.93	211.94
823.25	211.96
823.57	212.03
823.88	212.03
824.20	212.04
824.52	212.13
824.83	212.16
825.15	212.15
825.47	212.12
825.79	212.18
826.10	212.15
826.42	212.04
826.74	212.11
827.05	212.06
827.37	212.05
827.69	212.09
828.00	212.15
828.32	212.17
828.64	212.15
828.95	212.36
829.27	212.25
829.58	212.29
829.90	212.38
830.22	212.35
830.53	212.31
830.85	212.14
831.17	212.01
831.48	211.89
831.80	211.92
832.11	211.79
832.43	211.72
832.75	211.73
833.06	211.92
833.38	211.76
833.69	211.81
834.01	211.84
834.32	211.83
834.64	211.78
834.96	211.71
835.27	211.71
835.59	211.51
835.90	211.47
836.22	211.47
836.53	211.39
836.85	211.31
837.16	211.63
837.48	211.73
837.79	211.77
838.11	211.89
838.42	211.90
838.74	212.06
839.05	211.98
839.37	211.96
839.68	211.84
840.00	211.85
840.31	211.84
840.63	211.83
840.94	211.77
841.26	211.71
841.57	211.71
841.88	211.75
842.20	211.75
842.51	211.69
842.83	211.70
843.14	211.98
843.46	211.99
843.77	211.86
844.08	211.83
844.40	211.76
844.71	211.63
845.03	211.54
845.34	211.46
845.65	211.52
845.97	211.59
846.28	211.58
846.60	211.69
846.91	211.68
847.22	211.61
847.54	211.73
847.85	211.81
848.16	211.83
848.48	211.78
848.79	212.00
849.10	212.03
849.42	212.08
849.73	211.76
850.04	211.79
850.36	211.67
850.67	211.66
850.98	211.68
851.30	211.78
851.61	211.78
851.92	211.75
852.23	211.85
852.55	211.79
852.86	211.80
853.17	211.70
853.49	211.77
853.80	211.87
854.11	211.87
854.42	211.84
854.74	211.70
855.05	211.69
855.36	211.47
855.67	211.50
855.99	211.51
856.30	211.93
856.61	211.88
856.92	211.77
857.23	211.83
857.55	211.80
857.86	211.78
858.17	211.86
858.48	211.83
858.79	211.72
859.11	211.75
859.42	211.71
859.73	211.67
860.04	211.66
860.35	211.60
860.66	211.44
860.98	211.42
861.29	211.52
861.60	211.50
861.91	211.49
862.22	211.45
862.53	211.39
862.84	211.02
863.16	211.11
863.47	211.14
863.78	211.12
864.09	211.15
864.40	211.16
864.71	211.16
865.02	211.20
865.33	211.21
865.64	211.17
865.95	211.11
866.27	211.38
866.58	211.28
866.89	211.27
867.20	211.26
867.51	211.29
867.82	211.26
868.13	211.39
868.44	211.35
868.75	211.36
869.06	211.37
869.37	211.39
869.68	211.24
869.99	211.25
870.30	211.32
870.61	211.39
870.92	211.30
871.23	211.23
871.54	211.20
871.85	211.32
872.16	211.39
872.47	211.42
872.78	211.23
873.09	211.35
873.40	211.34
873.71	211.35
874.02	211.28
874.33	211.24
874.64	211.14
874.95	211.18
875.26	211.17
875.56	211.16
875.87	211.15
876.18	211.20
876.49	211.52
876.80	211.35
877.11	211.27
877.42	211.28
877.73	211.30
878.04	211.25
878.35	211.14
878.66	211.06
878.96	211.11
879.27	211.10
879.58	211.05
879.89	211.00
880.20	211.14
880.51	211.19
880.82	211.20
881.12	211.22
881.43	211.23
881.74	211.23
882.05	211.16
882.36	211.20
882.67	211.21
882.97	210.89
883.28	210.95
883.59	210.94
883.90	211.03
884.21	211.05
884.51	211.09
884.82	211.02
885.13	211.09
885.44	211.05
885.74	211.08
886.05	211.04
886.36	211.05
886.67	210.95
886.98	211.13
887.28	211.19
887.59	211.17
887.90	211.12
888.20	211.08
888.51	211.16
888.82	211.08
889.13	211.08
889.43	211.39
889.74	211.36
890.05	211.32
890.35	211.31
890.66	211.31
890.97	211.29
891.28	211.32
891.58	211.28
891.89	211.21
892.20	211.12
892.50	211.11
892.81	211.14
893.12	211.16
893.42	210.95
893.73	210.92
894.04	210.94
894.34	211.03
894.65	211.03
894.95	211.10
895.26	211.20
895.57	211.38
895.87	211.05
896.18	211.13
896.48	211.23
896.79	211.27
897.10	211.36
897.40	211.35
897.71	211.42
898.01	211.47
898.32	211.57
898.63	211.57
898.93	211.55
899.24	211.60
899.54	211.52
899.85	211.56
900.15	211.54
900.46	211.53
900.76	211.54
901.07	211.53
901.38	211.46
901.68	211.49
901.99	211.34
902.29	211.41
902.60	211.42
902.90	211.38
903.21	211.31
903.51	211.24
903.82	211.34
904.12	211.35
904.43	211.34
904.73	211.35
905.03	211.40
905.34	211.76
905.64	211.70
905.95	211.75
906.25	211.74
906.56	211.73
906.86	211.77
907.17	211.76
907.47	211.78
907.77	211.77
908.08	211.62
908.38	211.56
908.69	211.52
908.99	211.51
909.30	211.56
909.60	211.55
909.90	211.52
910.21	211.43
910.51	211.38
910.81	211.37
911.12	211.40
911.42	211.36
911.73	210.98
912.03	211.06
912.33	211.16
912.64	211.10
912.94	211.10
913.24	211.01
913.55	211.00
913.85	210.99
914.15	211.03
914.46	211.14
914.76	211.16
915.06	211.12
915.37	211.08
915.67	211.03
915.97	211.03
916.27	210.99
916.58	210.95
916.88	210.87
917.18	210.82
917.49	210.96
917.79	210.95
918.09	211.03
918.39	211.10
918.70	211.03
919.00	211.07
919.30	211.18
919.60	211.21
919.91	211.17
920.21	211.14
920.51	211.05
920.81	210.96
921.12	211.02
921.42	211.02
921.72	211.09
922.02	211.04
922.32	211.06
922.63	211.03
922.93	211.24
923.23	211.24
923.53	211.18
923.83	211.01
924.13	211.08
924.44	211.11
924.74	211.14
925.04	211.20
925.34	211.13
925.64	211.09
925.94	211.03
926.24	211.17
926.55	211.11
926.85	211.24
927.15	211.26
927.45	211.20
927.75	211.18
928.05	211.10
928.35	211.15
928.65	211.21
928.95	211.30
929.26	211.12
929.56	211.21
929.86	211.24
930.16	211.26
930.46	211.15
930.76	211.07
931.06	210.88
931.36	210.84
931.66	210.84
931.96	210.84
932.26	210.88
932.56	210.70
932.86	210.72
933.16	210.64
933.46	210.62
933.76	210.71
934.06	210.81
934.36	210.95
934.66	210.85
934.96	210.81
935.26	210.82
935.56	210.90
935.86	210.83
936.16	210.84
936.46	210.76
936.76	210.76
937.06	210.77
937.36	210.83
937.66	210.72
937.96	210.78
938.26	210.70
938.56	210.64
938.86	210.69
939.16	210.82
939.46	210.82
939.76	210.82
940.06	210.74
940.35	210.68
940.65	210.47
940.95	210.53
941.25	210.45
941.55	210.36
941.85	210.33
942.15	210.40
942.45	210.47
942.75	210.51
943.04	210.56
943.34	210.61
943.64	210.55
943.94	210.66
944.24	210.67
944.54	210.68
944.84	210.68
945.13	210.60
945.43	210.53
945.73	210.56
946.03	210.54
946.33	210.52
946.62	210.49
946.92	210.52
947.22	210.60
947.52	210.64
947.82	210.73
948.11	210.71
948.41	210.65
948.71	210.56
949.01	210.53
949.31	210.55
949.60	210.46
949.90	210.57
950.20	210.46
950.50	210.49
950.79	210.50
951.09	210.59
951.39	210.64
951.69	210.61
951.98	210.65
952.28	210.66
952.58	210.62
952.87	210.65
953.17	210.70
953.47	210.63
953.76	210.62
954.06	210.56
954.36	210.43
954.66	210.40
954.95	210.54
955.25	210.60
955.55	210.60
955.84	210.64
956.14	210.61
956.44	210.65
956.73	210.65
957.03	210.67
957.32	210.66
957.62	210.75
957.92	210.81
958.21	210.78
958.51	211.19
958.81	211.30
959.10	211.34
959.40	211.40
959.69	211.41
959.99	211.49
960.29	211.50
960.58	211.55
960.88	211.75
961.17	211.66
961.47	211.67
961.76	211.63
962.06	211.60
962.36	211.66
962.65	211.66
962.95	211.67
963.24	211.65
963.54	211.68
963.83	211.59
964.13	211.57
964.42	211.49
964.72	211.13
965.01	211.07
965.31	210.99
965.60	210.89
965.90	211.10
966.19	210.97
966.49	211.00
966.78	211.01
967.08	210.89
967.37	210.86
967.67	210.74
967.96	210.91
968.26	210.90
968.55	210.86
968.85	210.83
969.14	210.72
969.43	210.70
969.73	210.63
970.02	210.58
970.32	210.56
970.61	210.61
970.91	210.64
971.20	210.61
971.49	210.65
971.79	210.77
972.08	210.54
972.38	210.59
972.67	210.51
972.96	210.54
973.26	210.56
973.55	210.67
973.85	210.67
974.14	210.57
974.43	210.67
974.73	210.65
975.02	210.62
975.31	210.66
975.61	210.66
975.90	210.60
976.19	210.58
976.49	210.61
976.78	210.61
977.07	210.52
977.37	210.52
977.66	210.52
977.95	210.48
978.24	210.56
978.54	210.62
978.83	210.65
979.12	210.63
979.42	210.58
979.71	210.50
980.00	210.49
980.29	210.43
980.59	210.33
980.88	210.37
981.17	210.42
981.46	210.40
981.76	210.43
982.05	210.61
982.34	210.66
982.63	210.69
982.93	210.71
983.22	210.84
983.51	210.88
983.80	210.93
984.09	210.88
984.39	210.80
984.68	210.74
984.97	210.79
985.26	210.76
985.55	210.80
985.85	210.73
986.14	210.77
986.43	210.87
986.72	210.87
987.01	210.73
987.30	210.77
987.59	210.85
987.89	210.79
988.18	210.61
988.47	210.59
988.76	210.48
989.05	210.41
989.34	210.36
989.63	210.49
989.92	210.47
990.22	210.43
990.51	210.48
990.80	210.55
991.09	210.50
991.38	210.56
991.67	210.53
991.96	210.55
992.25	210.60
992.54	210.46
992.83	210.50
993.12	210.50
993.41	210.50
993.70	210.65
993.99	210.84
994.28	210.95
994.58	211.06
994.87	211.10
995.16	211.08
995.45	210.99
995.74	210.81
996.03	210.83
996.32	210.86
996.61	210.93
996.90	210.87
997.19	210.88
997.48	210.88
997.77	210.86
998.06	210.85
998.34	210.87
998.63	210.89
998.92	210.86
999.21	210.93
999.50	210.97
999.79	210.82
1000.08	210.71
1000.37	210.75
1000.66	210.70
1000.95	210.74
1001.24	210.79
1001.53	210.90
1001.82	210.97
1002.11	210.88
1002.40	210.98
1002.68	211.07
1002.97	211.31
1003.26	211.33
1003.55	211.26
1003.84	211.26
1004.13	211.39
1004.42	211.32
1004.71	211.37
1004.99	211.40
1005.28	211.49
1005.57	211.47
1005.86	211.40
1006.15	211.38
1006.44	211.17
1006.72	211.16
1007.01	211.08
1007.30	211.11
1007.59	211.14
1007.88	211.13
1008.17	211.12
1008.45	211.06
1008.74	210.88
1009.03	210.80
1009.32	210.80
1009.60	210.86
1009.89	210.84
1010.18	210.74
1010.47	210.72
1010.76	210.71
1011.04	210.70
1011.33	211.04
1011.62	211.00
1011.91	211.03
1012.19	211.09
1012.48	211.23
1012.77	211.28
1013.05	211.53
1013.34	211.49
1013.63	211.42
1013.92	211.40
1014.20	211.41
1014.49	211.38
1014.78	211.42
1015.06	211.16
1015.35	211.15
1015.64	211.20
1015.92	211.20
1016.21	211.19
1016.50	211.20
1016.78	211.24
1017.07	211.27
1017.36	210.84
1017.64	210.80
1017.93	210.86
1018.22	210.80
1018.50	210.78
1018.79	210.73
1019.08	210.58
1019.36	210.63
1019.65	210.56
1019.93	210.66
1020.22	210.66
1020.51	210.83
1020.79	210.78
1021.08	210.50
1021.36	210.00
1021.65	210.70
1021.94	211.70
1022.22	211.30
1022.51	209.65
1022.79	212.60
1023.08	210.15
1023.36	214.75
1023.65	209.80
>>>>>End Processed Spectral Data<<<<<
