SpectraSuite Data File
++++++++++++++++++++++++++++++++++++
Date: Mon Feb 25 17:06:36 EST 2013
User: group
Dark Spectrum Present: No
Reference Spectrum Present: No
Number of Sampled Component Spectra: 1
Spectrometers: USB2E7196
Integration Time (usec): 104000 (USB2E7196)
Spectra Averaged: 20 (USB2E7196)
Boxcar Smoothing: 10 (USB2E7196)
Correct for Electrical Dark: No (USB2E7196)
Strobe/Lamp Enabled: No (USB2E7196)
Correct for Detector Non-linearity: No (USB2E7196)
Correct for Stray Light: No (USB2E7196)
Number of Pixels in Processed Spectrum: 2048
>>>>>Begin Processed Spectral Data<<<<<
339.09	0.00
339.48	199.40
339.86	200.60
340.24	201.00
340.63	203.30
341.01	210.95
341.39	205.05
341.78	207.50
342.16	209.15
342.54	209.30
342.93	198.46
343.31	208.48
343.69	208.99
344.07	209.45
344.46	209.84
344.84	210.17
345.22	210.15
345.60	210.37
345.99	210.46
346.37	210.54
346.75	210.55
347.13	210.53
347.52	210.62
347.90	210.75
348.28	210.74
348.66	210.77
349.05	210.59
349.43	210.61
349.81	210.60
350.19	210.60
350.57	210.60
350.96	210.67
351.34	210.76
351.72	210.80
352.10	210.79
352.48	210.82
352.87	210.85
353.25	210.92
353.63	210.99
354.01	211.10
354.39	211.14
354.77	211.29
355.15	211.48
355.54	211.47
355.92	211.44
356.30	211.54
356.68	211.83
357.06	211.94
357.44	211.95
357.82	212.00
358.20	212.12
358.58	212.21
358.97	212.29
359.35	212.35
359.73	212.45
360.11	212.63
360.49	212.74
360.87	212.77
361.25	212.85
361.63	213.08
362.01	213.18
362.39	213.17
362.77	213.20
363.15	213.25
363.53	213.28
363.91	213.34
364.29	213.33
364.67	213.11
365.05	213.06
365.43	213.07
365.81	213.14
366.19	213.30
366.57	213.42
366.95	213.47
367.33	213.42
367.71	213.49
368.09	213.45
368.47	213.52
368.85	213.55
369.23	213.61
369.61	213.45
369.99	213.50
370.37	213.59
370.75	213.69
371.13	213.60
371.51	213.55
371.89	213.54
372.27	213.56
372.65	213.50
373.03	213.50
373.41	213.47
373.78	213.45
374.16	213.21
374.54	213.05
374.92	212.84
375.30	212.79
375.68	212.63
376.06	212.64
376.44	212.54
376.82	212.49
377.19	212.42
377.57	212.34
377.95	212.22
378.33	212.14
378.71	211.93
379.09	211.86
379.47	211.86
379.84	211.70
380.22	211.65
380.60	211.57
380.98	211.58
381.36	211.60
381.73	211.42
382.11	211.48
382.49	211.41
382.87	211.42
383.25	211.36
383.62	211.72
384.00	211.58
384.38	211.54
384.76	211.54
385.13	211.58
385.51	211.55
385.89	211.45
386.27	211.43
386.64	211.43
387.02	211.35
387.40	211.23
387.78	211.27
388.15	211.23
388.53	211.15
388.91	211.10
389.29	210.97
389.66	211.05
390.04	210.85
390.42	210.95
390.79	210.91
391.17	210.87
391.55	210.49
391.92	210.45
392.30	210.46
392.68	210.37
393.05	210.32
393.43	210.31
393.81	210.33
394.18	210.33
394.56	210.27
394.94	210.44
395.31	210.45
395.69	210.54
396.06	210.55
396.44	210.57
396.82	210.53
397.19	210.73
397.57	210.76
397.95	210.90
398.32	210.80
398.70	210.88
399.07	210.94
399.45	210.95
399.82	211.01
400.20	210.96
400.58	210.98
400.95	210.85
401.33	210.91
401.70	211.16
402.08	211.07
402.45	211.17
402.83	211.15
403.20	211.21
403.58	211.24
403.95	211.28
404.33	211.41
404.71	211.50
405.08	211.81
405.46	211.83
405.83	211.92
406.21	211.97
406.58	212.04
406.96	212.20
407.33	212.31
407.70	212.43
408.08	212.90
408.45	213.10
408.83	213.37
409.20	213.57
409.58	213.56
409.95	213.89
410.33	214.10
410.70	214.30
411.08	214.59
411.45	214.88
411.82	215.19
412.20	215.59
412.57	216.11
412.95	216.06
413.32	216.59
413.69	216.97
414.07	217.49
414.44	217.96
414.82	218.45
415.19	219.08
415.56	219.74
415.94	220.15
416.31	220.92
416.68	221.63
417.06	222.47
417.43	223.32
417.81	224.20
418.18	225.11
418.55	226.10
418.93	227.20
419.30	228.25
419.67	229.43
420.04	230.56
420.42	231.71
420.79	233.41
421.16	234.84
421.54	236.53
421.91	238.06
422.28	239.69
422.66	241.43
423.03	243.35
423.40	245.03
423.77	246.82
424.15	248.68
424.52	250.63
424.89	252.78
425.26	254.90
425.64	256.90
426.01	259.06
426.38	261.34
426.75	263.77
427.13	266.14
427.50	268.67
427.87	271.38
428.24	274.11
428.61	276.62
428.99	279.55
429.36	282.42
429.73	285.43
430.10	288.47
430.47	291.46
430.85	294.41
431.22	297.84
431.59	301.70
431.96	305.11
432.33	308.92
432.70	312.58
433.08	316.90
433.45	321.02
433.82	325.11
434.19	329.66
434.56	334.08
434.93	338.37
435.30	342.66
435.68	347.39
436.05	352.05
436.42	356.49
436.79	360.65
437.16	365.35
437.53	370.16
437.90	374.95
438.27	379.71
438.64	384.60
439.01	389.27
439.38	393.25
439.75	397.28
440.13	401.86
440.50	406.20
440.87	409.74
441.24	413.45
441.61	417.58
441.98	420.46
442.35	423.85
442.72	427.48
443.09	431.14
443.46	433.35
443.83	434.83
444.20	436.29
444.57	438.16
444.94	439.20
445.31	440.40
445.68	441.77
446.05	442.46
446.42	442.20
446.79	441.82
447.16	441.46
447.53	441.39
447.90	439.79
448.27	438.19
448.64	435.86
449.01	434.19
449.37	431.17
449.74	428.43
450.11	425.29
450.48	421.45
450.85	417.19
451.22	413.62
451.59	410.47
451.96	407.31
452.33	403.25
452.70	399.39
453.07	394.63
453.43	389.75
453.80	385.33
454.17	381.20
454.54	377.18
454.91	372.76
455.28	368.40
455.65	364.50
456.02	361.03
456.38	357.72
456.75	353.63
457.12	350.09
457.49	346.69
457.86	343.05
458.23	340.21
458.59	337.16
458.96	334.12
459.33	331.31
459.70	328.53
460.07	326.18
460.43	323.55
460.80	321.29
461.17	319.19
461.54	316.81
461.91	314.70
462.27	312.55
462.64	310.72
463.01	308.64
463.38	306.73
463.74	304.19
464.11	302.36
464.48	300.80
464.85	299.13
465.21	297.87
465.58	296.53
465.95	294.88
466.32	293.56
466.68	292.15
467.05	290.71
467.42	289.35
467.78	287.90
468.15	286.54
468.52	285.59
468.88	284.15
469.25	282.98
469.62	282.05
469.98	280.99
470.35	280.04
470.72	279.09
471.08	278.02
471.45	277.34
471.82	276.57
472.18	275.65
472.55	275.05
472.92	274.09
473.28	273.41
473.65	272.62
474.02	271.90
474.38	271.36
474.75	270.94
475.11	270.32
475.48	269.93
475.85	269.53
476.21	269.05
476.58	268.87
476.94	268.68
477.31	268.34
477.67	268.02
478.04	267.68
478.41	267.56
478.77	267.75
479.14	267.46
479.50	267.33
479.87	267.25
480.23	267.20
480.60	267.22
480.96	267.09
481.33	267.18
481.69	267.25
482.06	267.22
482.42	267.23
482.79	267.37
483.15	267.50
483.52	267.78
483.88	267.85
484.25	267.87
484.61	268.00
484.98	268.13
485.34	268.54
485.71	268.96
486.07	269.27
486.44	269.14
486.80	269.51
487.17	269.89
487.53	270.40
487.90	270.85
488.26	271.45
488.62	272.07
488.99	272.55
489.35	273.16
489.72	273.74
490.08	274.37
490.44	275.05
490.81	275.75
491.17	276.35
491.54	277.24
491.90	278.23
492.26	279.11
492.63	280.05
492.99	280.80
493.36	281.78
493.72	282.78
494.08	283.95
494.45	285.04
494.81	286.17
495.17	287.24
495.54	288.45
495.90	289.62
496.26	290.84
496.63	292.20
496.99	293.47
497.35	294.82
497.72	296.27
498.08	297.55
498.44	298.99
498.80	300.60
499.17	302.06
499.53	303.41
499.89	304.89
500.26	306.29
500.62	307.89
500.98	309.41
501.34	310.96
501.71	312.62
502.07	314.16
502.43	315.55
502.79	317.06
503.16	318.61
503.52	320.12
503.88	321.61
504.24	323.14
504.60	324.74
504.97	326.41
505.33	327.95
505.69	329.76
506.05	331.32
506.41	332.89
506.78	334.44
507.14	336.03
507.50	337.73
507.86	339.46
508.22	341.01
508.59	342.53
508.95	344.20
509.31	345.99
509.67	347.64
510.03	349.52
510.39	351.30
510.75	353.01
511.12	354.66
511.48	356.46
511.84	358.22
512.20	359.84
512.56	361.49
512.92	363.22
513.28	364.98
513.64	366.73
514.00	368.50
514.37	370.35
514.73	372.19
515.09	373.95
515.45	375.72
515.81	377.63
516.17	379.54
516.53	381.28
516.89	382.91
517.25	384.71
517.61	386.45
517.97	388.13
518.33	390.00
518.69	391.93
519.05	393.77
519.41	395.79
519.77	398.04
520.13	400.00
520.49	401.97
520.85	403.74
521.21	405.88
521.57	407.94
521.93	409.83
522.29	411.89
522.65	413.92
523.01	416.11
523.37	418.15
523.73	420.32
524.09	422.55
524.45	424.79
524.81	427.10
525.17	429.58
525.53	432.14
525.89	434.55
526.25	437.03
526.61	439.42
526.97	441.81
527.33	444.21
527.68	447.14
528.04	449.65
528.40	452.36
528.76	454.90
529.12	457.51
529.48	460.38
529.84	463.10
530.20	466.07
530.56	468.82
530.91	471.81
531.27	474.81
531.63	477.73
531.99	480.66
532.35	483.73
532.71	486.50
533.07	489.44
533.42	492.75
533.78	495.81
534.14	498.87
534.50	501.75
534.86	504.90
535.21	507.59
535.57	510.82
535.93	513.76
536.29	517.08
536.65	520.27
537.00	523.25
537.36	526.31
537.72	529.26
538.08	532.40
538.44	535.28
538.79	538.37
539.15	541.53
539.51	544.68
539.87	547.83
540.22	551.14
540.58	554.31
540.94	557.23
541.29	560.35
541.65	563.43
542.01	566.59
542.37	569.73
542.72	572.84
543.08	575.85
543.44	579.21
543.79	581.89
544.15	584.88
544.51	588.29
544.87	591.58
545.22	594.61
545.58	597.45
545.94	600.46
546.29	603.40
546.65	606.16
547.01	608.81
547.36	611.68
547.72	614.49
548.07	617.17
548.43	619.69
548.79	622.18
549.14	624.78
549.50	627.48
549.86	629.86
550.21	632.47
550.57	635.13
550.92	637.38
551.28	639.98
551.64	642.32
551.99	644.40
552.35	646.48
552.70	648.73
553.06	651.07
553.41	653.28
553.77	655.42
554.13	657.71
554.48	660.00
554.84	662.19
555.19	664.20
555.55	666.47
555.90	668.46
556.26	670.34
556.61	672.30
556.97	673.99
557.32	675.80
557.68	677.52
558.03	679.10
558.39	680.73
558.74	682.54
559.10	684.16
559.45	685.91
559.81	687.76
560.16	689.13
560.52	690.76
560.87	692.40
561.23	693.91
561.58	695.71
561.94	697.04
562.29	698.31
562.64	699.71
563.00	700.90
563.35	702.25
563.71	703.87
564.06	705.16
564.42	706.58
564.77	707.86
565.12	709.31
565.48	710.94
565.83	712.39
566.19	713.64
566.54	714.78
566.89	715.65
567.25	716.70
567.60	718.13
567.96	719.30
568.31	720.40
568.66	721.21
569.02	721.74
569.37	722.24
569.72	722.95
570.08	723.45
570.43	723.96
570.78	724.42
571.14	724.69
571.49	724.91
571.84	725.24
572.20	725.35
572.55	725.57
572.90	725.06
573.26	724.95
573.61	724.65
573.96	724.66
574.31	724.67
574.67	724.29
575.02	723.69
575.37	723.12
575.72	722.66
576.08	722.21
576.43	721.72
576.78	721.48
577.13	720.97
577.49	720.52
577.84	720.12
578.19	719.72
578.54	719.42
578.90	719.17
579.25	718.58
579.60	718.11
579.95	717.26
580.30	717.08
580.66	716.66
581.01	716.07
581.36	715.33
581.71	714.55
582.06	713.96
582.42	713.57
582.77	712.76
583.12	712.05
583.47	711.42
583.82	710.75
584.17	710.01
584.53	709.64
584.88	709.08
585.23	708.26
585.58	707.53
585.93	706.72
586.28	706.10
586.63	705.42
586.98	704.77
587.34	704.20
587.69	703.29
588.04	702.48
588.39	701.86
588.74	700.95
589.09	700.26
589.44	699.18
589.79	698.33
590.14	697.67
590.49	696.74
590.84	695.79
591.19	695.18
591.54	694.50
591.89	692.96
592.25	692.09
592.60	690.99
592.95	689.73
593.30	688.33
593.65	686.89
594.00	685.45
594.35	685.13
594.70	683.75
595.05	682.53
595.40	681.21
595.75	679.89
596.10	678.96
596.45	677.78
596.80	677.09
597.15	675.89
597.50	674.61
597.85	673.46
598.19	672.22
598.54	670.85
598.89	669.70
599.24	668.90
599.59	667.64
599.94	666.79
600.29	665.82
600.64	664.85
600.99	663.75
601.34	663.05
601.69	660.99
602.04	659.95
602.39	658.82
602.74	657.98
603.08	657.02
603.43	656.01
603.78	654.87
604.13	653.50
604.48	652.58
604.83	651.70
605.18	650.83
605.53	649.80
605.87	648.64
606.22	647.54
606.57	646.33
606.92	644.92
607.27	643.54
607.62	642.33
607.96	641.31
608.31	640.30
608.66	638.86
609.01	637.58
609.36	636.32
609.70	634.97
610.05	633.23
610.40	631.77
610.75	630.25
611.10	628.83
611.44	627.11
611.79	625.33
612.14	623.48
612.49	621.56
612.83	619.98
613.18	618.10
613.53	616.21
613.88	614.26
614.22	612.51
614.57	610.67
614.92	608.95
615.27	607.02
615.61	605.06
615.96	603.50
616.31	601.76
616.65	600.27
617.00	598.48
617.35	596.78
617.70	594.83
618.04	592.73
618.39	590.77
618.74	589.15
619.08	587.13
619.43	585.32
619.78	583.41
620.12	581.49
620.47	579.76
620.82	577.87
621.16	575.86
621.51	574.26
621.85	572.36
622.20	570.35
622.55	568.40
622.89	566.43
623.24	564.31
623.59	562.19
623.93	560.05
624.28	558.16
624.62	556.57
624.97	554.90
625.32	553.11
625.66	551.25
626.01	549.23
626.35	547.60
626.70	545.76
627.04	544.24
627.39	542.36
627.73	540.56
628.08	538.87
628.43	537.15
628.77	535.20
629.12	533.33
629.46	531.61
629.81	529.93
630.15	528.06
630.50	526.18
630.84	524.20
631.19	522.35
631.53	520.44
631.88	518.14
632.22	515.99
632.57	514.23
632.91	512.45
633.26	510.77
633.60	508.82
633.95	507.06
634.29	505.00
634.64	503.28
634.98	501.32
635.32	499.50
635.67	497.90
636.01	496.09
636.36	494.48
636.70	492.88
637.05	490.86
637.39	489.33
637.73	487.84
638.08	486.63
638.42	484.93
638.77	483.56
639.11	481.96
639.45	480.32
639.80	478.55
640.14	476.70
640.49	474.78
640.83	473.01
641.17	471.36
641.52	469.53
641.86	467.64
642.20	466.15
642.55	464.29
642.89	462.34
643.23	460.60
643.58	458.95
643.92	456.89
644.26	455.40
644.61	453.67
644.95	451.81
645.29	449.84
645.64	448.05
645.98	446.07
646.32	444.37
646.66	442.46
647.01	440.62
647.35	439.03
647.69	437.31
648.04	435.64
648.38	433.84
648.72	432.26
649.06	430.54
649.41	428.63
649.75	427.01
650.09	425.39
650.43	423.70
650.78	421.85
651.12	420.23
651.46	418.38
651.80	416.72
652.14	415.05
652.49	413.45
652.83	411.69
653.17	409.97
653.51	408.35
653.85	406.90
654.20	405.40
654.54	403.70
654.88	402.06
655.22	400.46
655.56	398.76
655.90	397.07
656.25	395.49
656.59	394.00
656.93	392.32
657.27	390.90
657.61	389.15
657.95	387.66
658.29	386.12
658.64	384.75
658.98	383.02
659.32	381.28
659.66	379.70
660.00	378.18
660.34	376.60
660.68	374.99
661.02	373.34
661.36	371.85
661.70	370.34
662.05	368.95
662.39	367.62
662.73	366.30
663.07	365.04
663.41	363.72
663.75	362.21
664.09	360.87
664.43	359.27
664.77	357.98
665.11	356.48
665.45	355.15
665.79	353.74
666.13	352.50
666.47	351.20
666.81	349.90
667.15	348.65
667.49	347.55
667.83	346.50
668.17	345.34
668.51	344.16
668.85	343.05
669.19	342.05
669.53	340.78
669.87	339.57
670.21	338.28
670.55	337.06
670.89	336.09
671.23	335.01
671.57	334.00
671.91	332.94
672.25	331.94
672.58	330.98
672.92	329.82
673.26	328.79
673.60	327.88
673.94	326.79
674.28	325.73
674.62	324.72
674.96	323.62
675.30	322.70
675.64	321.69
675.97	320.64
676.31	319.50
676.65	318.54
676.99	317.63
677.33	316.73
677.67	315.69
678.01	314.56
678.34	313.62
678.68	312.76
679.02	311.71
679.36	310.76
679.70	309.81
680.04	308.95
680.37	308.04
680.71	307.14
681.05	306.37
681.39	305.50
681.73	304.49
682.06	303.51
682.40	302.68
682.74	301.83
683.08	301.12
683.42	300.28
683.75	299.43
684.09	298.49
684.43	297.58
684.77	296.86
685.10	296.06
685.44	295.08
685.78	294.22
686.12	293.51
686.45	292.77
686.79	291.86
687.13	291.16
687.46	290.34
687.80	289.61
688.14	288.73
688.48	288.05
688.81	287.34
689.15	286.73
689.49	285.87
689.82	285.12
690.16	284.14
690.50	283.36
690.83	282.47
691.17	281.68
691.51	280.98
691.84	280.25
692.18	279.48
692.52	278.81
692.85	278.14
693.19	277.60
693.52	276.80
693.86	276.03
694.20	275.27
694.53	274.62
694.87	273.90
695.21	273.20
695.54	272.45
695.88	271.71
696.21	270.94
696.55	270.36
696.88	269.63
697.22	269.07
697.56	268.50
697.89	267.94
698.23	267.43
698.56	266.76
698.90	266.24
699.23	265.66
699.57	265.08
699.90	264.43
700.24	263.61
700.58	263.05
700.91	262.66
701.25	262.35
701.58	261.85
701.92	261.30
702.25	260.76
702.59	260.21
702.92	259.73
703.26	259.17
703.59	258.65
703.93	258.49
704.26	257.99
704.60	257.51
704.93	256.95
705.26	256.37
705.60	255.94
705.93	255.42
706.27	254.98
706.60	254.60
706.94	254.25
707.27	253.78
707.61	253.37
707.94	252.85
708.27	252.08
708.61	251.55
708.94	251.15
709.28	250.82
709.61	250.40
709.94	250.03
710.28	249.66
710.61	249.40
710.95	248.65
711.28	248.51
711.61	248.00
711.95	247.77
712.28	247.42
712.61	247.05
712.95	246.78
713.28	246.61
713.61	246.24
713.95	245.83
714.28	245.58
714.61	245.20
714.95	244.80
715.28	244.49
715.61	244.13
715.95	243.75
716.28	243.29
716.61	242.95
716.95	242.58
717.28	242.28
717.61	241.80
717.94	241.48
718.28	240.96
718.61	240.73
718.94	240.25
719.27	239.89
719.61	239.58
719.94	239.21
720.27	238.71
720.60	238.38
720.94	238.07
721.27	237.82
721.60	237.55
721.93	237.35
722.27	237.22
722.60	237.10
722.93	236.82
723.26	236.62
723.59	236.33
723.93	236.15
724.26	235.83
724.59	235.59
724.92	235.44
725.25	235.24
725.59	235.03
725.92	234.99
726.25	234.80
726.58	234.59
726.91	234.33
727.24	234.16
727.57	233.97
727.91	233.72
728.24	233.52
728.57	233.33
728.90	233.13
729.23	232.80
729.56	232.70
729.89	232.50
730.22	232.27
730.55	232.09
730.89	231.86
731.22	231.72
731.55	231.52
731.88	231.25
732.21	230.96
732.54	230.68
732.87	230.41
733.20	230.23
733.53	230.05
733.86	229.91
734.19	229.70
734.52	229.55
734.85	229.65
735.18	229.38
735.51	229.29
735.84	229.12
736.17	229.00
736.50	228.67
736.83	228.94
737.16	228.83
737.49	228.66
737.82	228.43
738.15	228.31
738.48	228.17
738.81	227.99
739.14	227.81
739.47	227.67
739.80	227.50
740.13	227.43
740.46	227.28
740.79	227.06
741.12	226.95
741.45	226.73
741.78	226.43
742.11	226.42
742.44	226.12
742.77	226.07
743.10	225.95
743.43	225.75
743.75	225.20
744.08	225.48
744.41	225.31
744.74	225.20
745.07	224.95
745.40	224.85
745.73	224.95
746.06	224.84
746.39	224.73
746.71	224.61
747.04	224.44
747.37	224.28
747.70	224.28
748.03	224.17
748.36	224.16
748.68	224.00
749.01	223.72
749.34	223.69
749.67	223.50
750.00	223.41
750.33	223.56
750.65	223.45
750.98	222.84
751.31	222.78
751.64	222.71
751.97	222.79
752.29	222.66
752.62	222.34
752.95	222.24
753.28	222.08
753.60	221.93
753.93	221.87
754.26	221.71
754.59	221.43
754.91	221.26
755.24	221.02
755.57	220.88
755.90	220.82
756.22	220.74
756.55	220.55
756.88	220.38
757.20	220.06
757.53	219.93
757.86	219.83
758.19	219.74
758.51	219.61
758.84	219.40
759.17	219.23
759.49	219.16
759.82	219.24
760.15	219.18
760.47	219.08
760.80	218.82
761.13	218.81
761.45	218.78
761.78	218.63
762.11	218.58
762.43	218.46
762.76	218.35
763.08	218.22
763.41	218.22
763.74	218.13
764.06	217.95
764.39	217.87
764.71	217.80
765.04	217.64
765.37	217.58
765.69	217.46
766.02	217.47
766.34	217.38
766.67	217.13
767.00	217.06
767.32	217.21
767.65	217.46
767.97	217.36
768.30	217.31
768.62	217.29
768.95	217.22
769.27	217.12
769.60	217.13
769.92	217.01
770.25	216.90
770.57	216.74
770.90	216.77
771.22	216.69
771.55	216.67
771.87	216.70
772.20	216.55
772.52	216.74
772.85	217.00
773.17	216.97
773.50	216.92
773.82	216.85
774.15	216.63
774.47	216.34
774.80	216.25
775.12	216.14
775.45	216.06
775.77	216.05
776.09	216.04
776.42	216.01
776.74	216.04
777.07	215.95
777.39	215.97
777.72	215.84
778.04	215.79
778.36	215.68
778.69	215.56
779.01	215.57
779.33	215.24
779.66	214.85
779.98	214.78
780.31	214.77
780.63	214.84
780.95	214.85
781.28	214.80
781.60	214.79
781.92	214.76
782.25	214.82
782.57	214.77
782.89	214.70
783.22	214.64
783.54	214.60
783.86	214.63
784.19	214.64
784.51	214.74
784.83	214.68
785.16	214.63
785.48	214.65
785.80	214.60
786.12	214.63
786.45	214.65
786.77	214.63
787.09	214.58
787.42	214.43
787.74	214.35
788.06	214.34
788.38	214.28
788.71	214.26
789.03	214.19
789.35	214.18
789.67	214.15
789.99	214.19
790.32	214.13
790.64	214.12
790.96	214.32
791.28	214.23
791.61	214.19
791.93	214.29
792.25	214.23
792.57	214.46
792.89	214.41
793.21	214.46
793.54	214.40
793.86	214.39
794.18	214.44
794.50	214.38
794.82	214.43
795.14	214.44
795.47	214.46
795.79	214.45
796.11	214.39
796.43	214.35
796.75	214.26
797.07	214.23
797.39	214.11
797.71	213.85
798.04	213.82
798.36	213.85
798.68	213.78
799.00	213.81
799.32	213.62
799.64	213.71
799.96	213.57
800.28	213.62
800.60	213.59
800.92	213.56
801.24	213.56
801.56	213.53
801.89	213.47
802.21	213.43
802.53	213.38
802.85	213.45
803.17	213.60
803.49	213.51
803.81	213.50
804.13	213.48
804.45	213.45
804.77	213.49
805.09	213.42
805.41	213.35
805.73	213.25
806.05	213.11
806.37	213.01
806.69	212.99
807.01	212.95
807.33	212.93
807.65	212.83
807.97	212.98
808.28	213.02
808.60	213.02
808.92	213.01
809.24	213.19
809.56	213.09
809.88	212.94
810.20	213.01
810.52	213.00
810.84	212.97
811.16	212.95
811.48	213.00
811.80	213.15
812.12	213.17
812.43	213.20
812.75	213.28
813.07	213.23
813.39	213.33
813.71	213.26
814.03	213.20
814.35	213.18
814.67	212.95
814.98	212.83
815.30	212.87
815.62	212.78
815.94	212.51
816.26	212.49
816.58	212.45
816.89	212.51
817.21	212.38
817.53	212.44
817.85	212.48
818.17	212.36
818.48	212.28
818.80	212.36
819.12	212.35
819.44	212.27
819.76	212.30
820.07	212.26
820.39	212.28
820.71	212.37
821.03	212.49
821.34	212.50
821.66	212.54
821.98	212.53
822.30	212.57
822.61	212.85
822.93	212.80
823.25	212.78
823.57	212.61
823.88	212.71
824.20	212.70
824.52	212.74
824.83	212.67
825.15	212.65
825.47	212.52
825.79	212.52
826.10	212.51
826.42	212.46
826.74	212.47
827.05	212.42
827.37	212.44
827.69	212.33
828.00	212.36
828.32	212.33
828.64	212.33
828.95	212.45
829.27	212.32
829.58	212.39
829.90	212.47
830.22	212.55
830.53	212.52
830.85	212.49
831.17	212.35
831.48	212.37
831.80	212.25
832.11	212.33
832.43	212.23
832.75	212.25
833.06	212.47
833.38	212.33
833.69	212.32
834.01	212.22
834.32	212.20
834.64	212.19
834.96	212.19
835.27	212.12
835.59	212.05
835.90	211.93
836.22	211.90
836.53	211.82
836.85	211.79
837.16	212.10
837.48	212.14
837.79	212.26
838.11	212.27
838.42	212.36
838.74	212.32
839.05	212.38
839.37	212.37
839.68	212.12
840.00	212.12
840.31	212.21
840.63	212.28
840.94	212.28
841.26	212.20
841.57	212.20
841.88	212.20
842.20	212.16
842.51	212.14
842.83	212.10
843.14	212.36
843.46	212.31
843.77	212.10
844.08	212.03
844.40	211.95
844.71	211.91
845.03	211.90
845.34	211.94
845.65	211.87
845.97	211.85
846.28	211.87
846.60	211.87
846.91	211.80
847.22	211.70
847.54	211.75
847.85	211.78
848.16	211.75
848.48	211.74
848.79	211.88
849.10	211.95
849.42	212.11
849.73	211.84
850.04	211.83
850.36	211.76
850.67	211.87
850.98	211.84
851.30	211.90
851.61	211.88
851.92	211.81
852.23	211.96
852.55	212.00
852.86	212.03
853.17	212.02
853.49	212.06
853.80	212.20
854.11	212.20
854.42	212.24
854.74	212.24
855.05	212.22
855.36	211.99
855.67	211.94
855.99	211.90
856.30	212.25
856.61	212.23
856.92	212.22
857.23	212.19
857.55	212.16
857.86	212.18
858.17	212.21
858.48	212.19
858.79	212.09
859.11	212.13
859.42	212.09
859.73	212.14
860.04	212.19
860.35	212.08
860.66	211.95
860.98	211.92
861.29	211.94
861.60	211.89
861.91	212.01
862.22	212.00
862.53	211.86
862.84	211.50
863.16	211.66
863.47	211.59
863.78	211.53
864.09	211.59
864.40	211.53
864.71	211.47
865.02	211.54
865.33	211.54
865.64	211.42
865.95	211.38
866.27	211.62
866.58	211.55
866.89	211.57
867.20	211.58
867.51	211.57
867.82	211.50
868.13	211.58
868.44	211.48
868.75	211.51
869.06	211.53
869.37	211.55
869.68	211.34
869.99	211.45
870.30	211.49
870.61	211.48
870.92	211.45
871.23	211.45
871.54	211.40
871.85	211.46
872.16	211.55
872.47	211.55
872.78	211.26
873.09	211.27
873.40	211.24
873.71	211.31
874.02	211.32
874.33	211.32
874.64	211.28
874.95	211.36
875.26	211.26
875.56	211.27
875.87	211.25
876.18	211.31
876.49	211.60
876.80	211.54
877.11	211.48
877.42	211.48
877.73	211.54
878.04	211.58
878.35	211.61
878.66	211.62
878.96	211.57
879.27	211.56
879.58	211.58
879.89	211.58
880.20	211.67
880.51	211.57
880.82	211.56
881.12	211.56
881.43	211.50
881.74	211.51
882.05	211.59
882.36	211.63
882.67	211.67
882.97	211.33
883.28	211.28
883.59	211.31
883.90	211.32
884.21	211.38
884.51	211.30
884.82	211.18
885.13	211.23
885.44	211.30
885.74	211.30
886.05	211.20
886.36	211.19
886.67	210.96
886.98	211.19
887.28	211.26
887.59	211.28
887.90	211.31
888.20	211.25
888.51	211.26
888.82	211.18
889.13	211.24
889.43	211.49
889.74	211.53
890.05	211.55
890.35	211.50
890.66	211.43
890.97	211.38
891.28	211.35
891.58	211.29
891.89	211.26
892.20	211.26
892.50	211.30
892.81	211.25
893.12	211.35
893.42	211.21
893.73	211.22
894.04	211.22
894.34	211.22
894.65	211.22
894.95	211.15
895.26	211.17
895.57	211.29
895.87	211.00
896.18	211.13
896.48	211.07
896.79	211.11
897.10	211.10
897.40	211.13
897.71	211.21
898.01	211.06
898.32	211.16
898.63	211.05
898.93	211.06
899.24	211.12
899.54	211.09
899.85	211.10
900.15	211.06
900.46	211.02
900.76	211.06
901.07	211.05
901.38	211.12
901.68	211.19
901.99	210.99
902.29	211.03
902.60	210.88
902.90	210.85
903.21	210.88
903.51	210.85
903.82	210.92
904.12	210.96
904.43	211.08
904.73	211.03
905.03	211.15
905.34	211.46
905.64	211.40
905.95	211.37
906.25	211.30
906.56	211.32
906.86	211.34
907.17	211.33
907.47	211.44
907.77	211.30
908.08	211.19
908.38	211.24
908.69	211.23
908.99	211.35
909.30	211.37
909.60	211.32
909.90	211.41
910.21	211.37
910.51	211.27
910.81	211.25
911.12	211.27
911.42	211.24
911.73	210.88
912.03	210.97
912.33	211.07
912.64	211.15
912.94	211.08
913.24	211.00
913.55	210.97
913.85	210.91
914.15	211.00
914.46	211.02
914.76	210.95
915.06	210.87
915.37	210.77
915.67	210.78
915.97	210.77
916.27	210.67
916.58	210.69
916.88	210.67
917.18	210.66
917.49	210.85
917.79	210.87
918.09	210.94
918.39	211.10
918.70	211.00
919.00	210.95
919.30	211.14
919.60	211.12
919.91	211.06
920.21	211.08
920.51	210.96
920.81	210.98
921.12	211.10
921.42	211.15
921.72	211.18
922.02	211.21
922.32	211.29
922.63	211.34
922.93	211.48
923.23	211.52
923.53	211.50
923.83	211.28
924.13	211.33
924.44	211.38
924.74	211.31
925.04	211.47
925.34	211.41
925.64	211.34
925.94	211.40
926.24	211.65
926.55	211.63
926.85	211.82
927.15	211.78
927.45	211.72
927.75	211.70
928.05	211.66
928.35	211.62
928.65	211.64
928.95	211.59
929.26	211.50
929.56	211.57
929.86	211.61
930.16	211.59
930.46	211.56
930.76	211.49
931.06	211.36
931.36	211.21
931.66	211.27
931.96	211.32
932.26	211.38
932.56	211.22
932.86	211.25
933.16	211.16
933.46	211.16
933.76	211.10
934.06	211.15
934.36	211.36
934.66	211.38
934.96	211.32
935.26	211.41
935.56	211.41
935.86	211.28
936.16	211.25
936.46	211.25
936.76	211.19
937.06	211.15
937.36	211.22
937.66	211.27
937.96	211.35
938.26	211.19
938.56	211.15
938.86	211.10
939.16	211.19
939.46	211.21
939.76	211.23
940.06	211.30
940.35	211.28
940.65	211.06
940.95	211.10
941.25	211.01
941.55	210.90
941.85	210.85
942.15	211.02
942.45	211.15
942.75	211.18
943.04	211.21
943.34	211.30
943.64	211.25
943.94	211.18
944.24	211.13
944.54	211.16
944.84	211.12
945.13	211.10
945.43	211.02
945.73	210.96
946.03	210.94
946.33	210.87
946.62	210.77
946.92	210.75
947.22	210.71
947.52	210.75
947.82	210.85
948.11	210.87
948.41	210.75
948.71	210.63
949.01	210.64
949.31	210.59
949.60	210.56
949.90	210.55
950.20	210.57
950.50	210.52
950.79	210.53
951.09	210.55
951.39	210.55
951.69	210.50
951.98	210.65
952.28	210.68
952.58	210.65
952.87	210.74
953.17	210.75
953.47	210.70
953.76	210.71
954.06	210.59
954.36	210.53
954.66	210.51
954.95	210.58
955.25	210.54
955.55	210.60
955.84	210.53
956.14	210.52
956.44	210.51
956.73	210.50
957.03	210.44
957.32	210.50
957.62	210.52
957.92	210.60
958.21	210.56
958.51	211.00
958.81	211.07
959.10	211.02
959.40	211.12
959.69	211.19
959.99	211.21
960.29	211.24
960.58	211.28
960.88	211.45
961.17	211.45
961.47	211.52
961.76	211.42
962.06	211.49
962.36	211.45
962.65	211.51
962.95	211.57
963.24	211.57
963.54	211.57
963.83	211.55
964.13	211.45
964.42	211.30
964.72	210.95
965.01	210.92
965.31	210.92
965.60	210.86
965.90	211.10
966.19	211.07
966.49	211.14
966.78	211.09
967.08	211.00
967.37	210.99
967.67	210.90
967.96	210.97
968.26	210.94
968.55	210.96
968.85	210.95
969.14	210.92
969.43	210.92
969.73	210.86
970.02	210.90
970.32	210.95
970.61	210.97
970.91	210.88
971.20	210.89
971.49	210.94
971.79	211.00
972.08	210.73
972.38	210.83
972.67	210.82
972.96	210.81
973.26	210.76
973.55	210.83
973.85	210.82
974.14	210.85
974.43	210.89
974.73	210.88
975.02	210.85
975.31	210.88
975.61	210.95
975.90	210.93
976.19	210.92
976.49	210.94
976.78	210.96
977.07	210.96
977.37	210.98
977.66	210.98
977.95	210.90
978.24	210.94
978.54	210.97
978.83	210.94
979.12	211.01
979.42	211.04
979.71	211.04
980.00	211.09
980.29	211.05
980.59	211.10
980.88	211.19
981.17	211.22
981.46	211.22
981.76	211.18
982.05	211.33
982.34	211.36
982.63	211.39
982.93	211.43
983.22	211.50
983.51	211.54
983.80	211.60
984.09	211.63
984.39	211.60
984.68	211.48
984.97	211.53
985.26	211.54
985.55	211.53
985.85	211.49
986.14	211.53
986.43	211.64
986.72	211.52
987.01	211.39
987.30	211.40
987.59	211.36
987.89	211.34
988.18	211.27
988.47	211.25
988.76	211.17
989.05	211.11
989.34	211.02
989.63	211.12
989.92	211.04
990.22	211.03
990.51	211.02
990.80	211.08
991.09	211.08
991.38	211.02
991.67	210.98
991.96	210.93
992.25	210.92
992.54	210.84
992.83	210.89
993.12	210.96
993.41	210.97
993.70	211.17
993.99	211.27
994.28	211.29
994.58	211.26
994.87	211.30
995.16	211.30
995.45	211.30
995.74	211.19
996.03	211.27
996.32	211.39
996.61	211.53
996.90	211.45
997.19	211.45
997.48	211.49
997.77	211.43
998.06	211.45
998.34	211.45
998.63	211.41
998.92	211.45
999.21	211.46
999.50	211.52
999.79	211.35
1000.08	211.30
1000.37	211.28
1000.66	211.26
1000.95	211.33
1001.24	211.39
1001.53	211.44
1001.82	211.47
1002.11	211.35
1002.40	211.29
1002.68	211.26
1002.97	211.51
1003.26	211.44
1003.55	211.40
1003.84	211.45
1004.13	211.53
1004.42	211.51
1004.71	211.52
1004.99	211.45
1005.28	211.50
1005.57	211.43
1005.86	211.45
1006.15	211.49
1006.44	211.48
1006.72	211.57
1007.01	211.47
1007.30	211.45
1007.59	211.45
1007.88	211.35
1008.17	211.36
1008.45	211.32
1008.74	211.15
1009.03	211.02
1009.32	211.09
1009.60	211.00
1009.89	211.02
1010.18	210.82
1010.47	210.73
1010.76	210.74
1011.04	210.68
1011.33	210.72
1011.62	210.73
1011.91	210.70
1012.19	210.65
1012.48	210.54
1012.77	210.48
1013.05	210.59
1013.34	210.57
1013.63	210.49
1013.92	210.57
1014.20	210.66
1014.49	210.62
1014.78	210.66
1015.06	210.56
1015.35	210.48
1015.64	210.61
1015.92	210.63
1016.21	210.73
1016.50	210.79
1016.78	210.78
1017.07	210.78
1017.36	210.70
1017.64	210.63
1017.93	210.66
1018.22	210.61
1018.50	210.62
1018.79	210.60
1019.08	210.49
1019.36	210.51
1019.65	210.46
1019.93	210.48
1020.22	210.45
1020.51	210.59
1020.79	210.62
1021.08	210.05
1021.36	208.95
1021.65	209.85
1021.94	210.75
1022.22	210.60
1022.51	209.20
1022.79	211.60
1023.08	211.45
1023.36	213.65
1023.65	210.20
>>>>>End Processed Spectral Data<<<<<
