SpectraSuite Data File
++++++++++++++++++++++++++++++++++++
Date: Mon Feb 25 17:14:59 EST 2013
User: group
Dark Spectrum Present: No
Reference Spectrum Present: No
Number of Sampled Component Spectra: 1
Spectrometers: USB2E7196
Integration Time (usec): 104000 (USB2E7196)
Spectra Averaged: 20 (USB2E7196)
Boxcar Smoothing: 10 (USB2E7196)
Correct for Electrical Dark: No (USB2E7196)
Strobe/Lamp Enabled: No (USB2E7196)
Correct for Detector Non-linearity: No (USB2E7196)
Correct for Stray Light: No (USB2E7196)
Number of Pixels in Processed Spectrum: 2048
>>>>>Begin Processed Spectral Data<<<<<
339.09	0.00
339.48	198.20
339.86	199.65
340.24	200.70
340.63	201.85
341.01	209.30
341.39	205.55
341.78	206.45
342.16	207.65
342.54	208.35
342.93	197.90
343.31	207.84
343.69	208.36
344.07	208.83
344.46	209.32
344.84	209.80
345.22	209.87
345.60	210.13
345.99	210.40
346.37	210.54
346.75	210.67
347.13	210.80
347.52	210.83
347.90	211.04
348.28	211.07
348.66	211.21
349.05	211.20
349.43	211.26
349.81	211.37
350.19	211.44
350.57	211.40
350.96	211.52
351.34	211.69
351.72	211.82
352.10	211.91
352.48	211.93
352.87	211.91
353.25	211.94
353.63	212.06
354.01	212.12
354.39	212.23
354.77	212.33
355.15	212.49
355.54	212.50
355.92	212.48
356.30	212.55
356.68	212.89
357.06	212.92
357.44	212.89
357.82	212.87
358.20	212.94
358.58	213.04
358.97	213.11
359.35	213.24
359.73	213.39
360.11	213.46
360.49	213.58
360.87	213.66
361.25	213.84
361.63	213.95
362.01	213.98
362.39	213.96
362.77	213.95
363.15	213.94
363.53	214.02
363.91	214.07
364.29	214.11
364.67	213.72
365.05	213.82
365.43	213.84
365.81	213.90
366.19	214.10
366.57	214.23
366.95	214.21
367.33	214.09
367.71	214.07
368.09	214.13
368.47	214.14
368.85	214.11
369.23	214.09
369.61	213.94
369.99	213.97
370.37	214.02
370.75	214.21
371.13	214.13
371.51	214.12
371.89	214.07
372.27	214.08
372.65	214.10
373.03	214.07
373.41	214.11
373.78	214.08
374.16	213.79
374.54	213.61
374.92	213.53
375.30	213.55
375.68	213.35
376.06	213.34
376.44	213.26
376.82	213.29
377.19	213.25
377.57	213.26
377.95	213.15
378.33	213.05
378.71	212.84
379.09	212.88
379.47	212.88
379.84	212.83
380.22	212.65
380.60	212.51
380.98	212.41
381.36	212.29
381.73	212.18
382.11	212.26
382.49	212.23
382.87	212.12
383.25	212.04
383.62	212.58
384.00	212.48
384.38	212.47
384.76	212.50
385.13	212.58
385.51	212.51
385.89	212.42
386.27	212.45
386.64	212.42
387.02	212.32
387.40	212.23
387.78	212.18
388.15	212.21
388.53	212.16
388.91	212.16
389.29	212.08
389.66	212.14
390.04	212.08
390.42	212.10
390.79	212.08
391.17	212.07
391.55	211.55
391.92	211.54
392.30	211.47
392.68	211.29
393.05	211.19
393.43	211.22
393.81	211.25
394.18	211.17
394.56	211.18
394.94	211.32
395.31	211.27
395.69	211.44
396.06	211.45
396.44	211.47
396.82	211.40
397.19	211.63
397.57	211.59
397.95	211.75
398.32	211.75
398.70	211.87
399.07	211.91
399.45	211.85
399.82	211.86
400.20	211.86
400.58	211.90
400.95	211.82
401.33	211.94
401.70	212.14
402.08	212.20
402.45	212.26
402.83	212.29
403.20	212.29
403.58	212.22
403.95	212.32
404.33	212.50
404.71	212.62
405.08	212.91
405.46	212.99
405.83	212.96
406.21	213.02
406.58	213.11
406.96	213.30
407.33	213.47
407.70	213.65
408.08	214.09
408.45	214.34
408.83	214.66
409.20	214.79
409.58	214.85
409.95	215.15
410.33	215.38
410.70	215.55
411.08	215.94
411.45	216.28
411.82	216.57
412.20	216.97
412.57	217.49
412.95	217.51
413.32	218.01
413.69	218.47
414.07	219.00
414.44	219.50
414.82	220.03
415.19	220.73
415.56	221.34
415.94	221.82
416.31	222.59
416.68	223.35
417.06	224.25
417.43	225.17
417.81	226.11
418.18	227.15
418.55	228.21
418.93	229.40
419.30	230.55
419.67	231.78
420.04	232.95
420.42	234.17
420.79	235.92
421.16	237.41
421.54	239.11
421.91	240.71
422.28	242.45
422.66	244.22
423.03	246.18
423.40	248.01
423.77	249.94
424.15	251.80
424.52	253.81
424.89	256.06
425.26	258.09
425.64	260.13
426.01	262.23
426.38	264.47
426.75	266.77
427.13	269.14
427.50	271.68
427.87	274.35
428.24	277.04
428.61	279.36
428.99	282.29
429.36	285.17
429.73	288.17
430.10	291.16
430.47	294.24
430.85	297.11
431.22	300.46
431.59	304.14
431.96	307.52
432.33	311.19
432.70	314.74
433.08	319.02
433.45	323.00
433.82	326.96
434.19	331.45
434.56	335.87
434.93	339.91
435.30	344.08
435.68	348.60
436.05	353.00
436.42	357.33
436.79	361.26
437.16	365.65
437.53	370.21
437.90	374.70
438.27	379.15
438.64	383.82
439.01	387.99
439.38	391.60
439.75	395.32
440.13	399.50
440.50	403.35
440.87	406.46
441.24	409.74
441.61	413.47
441.98	416.20
442.35	419.21
442.72	422.52
443.09	425.63
443.46	427.48
443.83	428.72
444.20	429.92
444.57	431.43
444.94	432.00
445.31	432.75
445.68	433.76
446.05	433.90
446.42	433.38
446.79	432.96
447.16	432.29
447.53	431.71
447.90	429.95
448.27	428.14
448.64	425.78
449.01	423.98
449.37	420.94
449.74	417.88
450.11	414.55
450.48	410.65
450.85	406.60
451.22	403.11
451.59	399.93
451.96	396.78
452.33	392.73
452.70	389.07
453.07	384.63
453.43	379.82
453.80	375.65
454.17	371.46
454.54	367.54
454.91	363.43
455.28	359.42
455.65	355.66
456.02	352.45
456.38	349.26
456.75	345.28
457.12	341.82
457.49	338.50
457.86	335.11
458.23	332.48
458.59	329.43
458.96	326.48
459.33	323.83
459.70	321.18
460.07	319.06
460.43	316.63
460.80	314.34
461.17	312.36
461.54	310.18
461.91	308.23
462.27	306.24
462.64	304.50
463.01	302.60
463.38	300.86
463.74	298.45
464.11	296.79
464.48	295.50
464.85	294.13
465.21	293.04
465.58	291.80
465.95	290.23
466.32	289.02
466.68	287.84
467.05	286.57
467.42	285.40
467.78	284.19
468.15	283.04
468.52	282.27
468.88	281.10
469.25	280.11
469.62	279.40
469.98	278.41
470.35	277.56
470.72	276.85
471.08	275.85
471.45	275.35
471.82	274.78
472.18	274.00
472.55	273.42
472.92	272.76
473.28	272.31
473.65	271.75
474.02	271.30
474.38	270.91
474.75	270.64
475.11	270.28
475.48	269.98
475.85	269.86
476.21	269.56
476.58	269.45
476.94	269.46
477.31	269.37
477.67	269.33
478.04	269.40
478.41	269.41
478.77	269.93
479.14	269.94
479.50	269.95
479.87	270.20
480.23	270.48
480.60	270.69
480.96	270.96
481.33	271.57
481.69	271.97
482.06	272.40
482.42	272.95
482.79	273.51
483.15	274.11
483.52	274.87
483.88	275.52
484.25	276.15
484.61	276.88
484.98	277.65
485.34	278.72
485.71	279.73
486.07	280.85
486.44	281.68
486.80	282.91
487.17	284.26
487.53	285.78
487.90	287.20
488.26	288.97
488.62	290.65
488.99	292.23
489.35	294.04
489.72	295.96
490.08	297.94
490.44	300.00
490.81	302.21
491.17	304.35
491.54	306.80
491.90	309.50
492.26	312.30
492.63	315.26
492.99	318.10
493.36	321.25
493.72	324.65
494.08	328.08
494.45	331.71
494.81	335.50
495.17	339.23
495.54	343.38
495.90	347.48
496.26	351.86
496.63	356.54
496.99	361.36
497.35	366.40
497.72	371.56
498.08	376.87
498.44	382.46
498.80	388.47
499.17	394.52
499.53	400.73
499.89	407.30
500.26	413.89
500.62	420.75
500.98	428.07
501.34	435.34
501.71	442.96
502.07	450.77
502.43	458.93
502.79	467.20
503.16	475.77
503.52	484.60
503.88	493.69
504.24	502.95
504.60	512.47
504.97	522.33
505.33	532.34
505.69	543.14
506.05	553.92
506.41	564.78
506.78	575.80
507.14	587.26
507.50	598.70
507.86	610.72
508.22	623.05
508.59	635.35
508.95	648.21
509.31	661.34
509.67	674.75
510.03	688.23
510.39	702.47
510.75	716.55
511.12	730.93
511.48	745.60
511.84	760.45
512.20	775.58
512.56	790.93
512.92	806.71
513.28	822.25
513.64	838.00
514.00	853.90
514.37	870.18
514.73	886.69
515.09	903.50
515.45	920.10
515.81	936.80
516.17	953.69
516.53	970.65
516.89	987.81
517.25	1004.75
517.61	1022.09
517.97	1039.25
518.33	1056.54
518.69	1073.96
519.05	1091.57
519.41	1109.49
519.77	1127.50
520.13	1145.13
520.49	1162.64
520.85	1180.26
521.21	1198.31
521.57	1216.52
521.93	1234.05
522.29	1252.41
522.65	1270.37
523.01	1288.31
523.37	1305.82
523.73	1323.60
524.09	1341.43
524.45	1358.92
524.81	1376.84
525.17	1394.87
525.53	1412.53
525.89	1430.36
526.25	1447.96
526.61	1464.70
526.97	1481.69
527.33	1498.65
527.68	1515.97
528.04	1532.35
528.40	1548.81
528.76	1565.19
529.12	1581.63
529.48	1598.80
529.84	1614.64
530.20	1630.85
530.56	1646.94
530.91	1663.70
531.27	1679.75
531.63	1695.61
531.99	1711.53
532.35	1726.68
532.71	1741.31
533.07	1756.77
533.42	1771.40
533.78	1786.08
534.14	1801.02
534.50	1814.45
534.86	1828.40
535.21	1841.32
535.57	1855.71
535.93	1869.18
536.29	1882.36
536.65	1895.29
537.00	1907.47
537.36	1919.25
537.72	1930.75
538.08	1942.28
538.44	1953.55
538.79	1965.08
539.15	1976.11
539.51	1987.01
539.87	1998.28
540.22	2009.17
540.58	2019.90
540.94	2030.34
541.29	2039.90
541.65	2048.82
542.01	2058.27
542.37	2067.10
542.72	2076.61
543.08	2084.85
543.44	2093.70
543.79	2101.41
544.15	2108.59
544.51	2116.56
544.87	2124.38
545.22	2131.38
545.58	2138.14
545.94	2143.99
546.29	2149.20
546.65	2154.23
547.01	2159.27
547.36	2164.06
547.72	2168.38
548.07	2171.78
548.43	2175.32
548.79	2178.73
549.14	2182.36
549.50	2185.96
549.86	2188.65
550.21	2190.59
550.57	2193.25
550.92	2194.49
551.28	2195.97
551.64	2198.05
551.99	2199.61
552.35	2200.91
552.70	2202.53
553.06	2203.84
553.41	2204.72
553.77	2205.66
554.13	2206.60
554.48	2207.39
554.84	2208.18
555.19	2208.37
555.55	2208.32
555.90	2207.62
556.26	2207.10
556.61	2206.17
556.97	2204.75
557.32	2204.06
557.68	2202.75
558.03	2201.05
558.39	2199.95
558.74	2199.55
559.10	2198.45
559.45	2196.67
559.81	2195.37
560.16	2192.93
560.52	2191.02
560.87	2188.93
561.23	2186.50
561.58	2184.57
561.94	2181.40
562.29	2177.59
562.64	2174.78
563.00	2172.34
563.35	2170.44
563.71	2168.59
564.06	2166.62
564.42	2164.99
564.77	2162.84
565.12	2161.03
565.48	2158.86
565.83	2156.27
566.19	2153.54
566.54	2149.82
566.89	2146.52
567.25	2143.35
567.60	2140.60
567.96	2137.12
568.31	2134.07
568.66	2130.40
569.02	2126.44
569.37	2122.26
569.72	2118.86
570.08	2114.47
570.43	2109.86
570.78	2104.65
571.14	2099.33
571.49	2093.97
571.84	2089.26
572.20	2083.32
572.55	2078.27
572.90	2072.12
573.26	2066.64
573.61	2060.43
573.96	2054.62
574.31	2048.03
574.67	2041.03
575.02	2033.76
575.37	2026.88
575.72	2019.85
576.08	2013.84
576.43	2006.78
576.78	2000.57
577.13	1994.30
577.49	1988.25
577.84	1981.58
578.19	1975.96
578.54	1970.37
578.90	1964.73
579.25	1957.76
579.60	1951.21
579.95	1944.00
580.30	1937.95
580.66	1931.89
581.01	1925.07
581.36	1918.44
581.71	1912.15
582.06	1905.91
582.42	1900.09
582.77	1893.49
583.12	1886.88
583.47	1880.69
583.82	1874.91
584.17	1868.43
584.53	1862.20
584.88	1855.77
585.23	1849.49
585.58	1842.80
585.93	1835.88
586.28	1829.33
586.63	1822.83
586.98	1816.66
587.34	1810.87
587.69	1804.39
588.04	1797.80
588.39	1791.72
588.74	1784.99
589.09	1779.08
589.44	1772.62
589.79	1766.55
590.14	1760.84
590.49	1754.90
590.84	1748.43
591.19	1742.59
591.54	1736.75
591.89	1729.62
592.25	1723.17
592.60	1716.38
592.95	1709.51
593.30	1702.25
593.65	1695.33
594.00	1688.70
594.35	1683.16
594.70	1676.33
595.05	1669.93
595.40	1663.37
595.75	1656.48
596.10	1650.84
596.45	1644.53
596.80	1638.95
597.15	1632.90
597.50	1626.24
597.85	1620.05
598.19	1613.33
598.54	1606.67
598.89	1600.46
599.24	1595.28
599.59	1589.43
599.94	1584.35
600.29	1578.74
600.64	1573.19
600.99	1567.10
601.34	1561.46
601.69	1554.63
602.04	1548.38
602.39	1542.54
602.74	1536.79
603.08	1531.84
603.43	1526.45
603.78	1520.83
604.13	1515.01
604.48	1509.08
604.83	1504.37
605.18	1499.52
605.53	1494.22
605.87	1488.22
606.22	1482.87
606.57	1476.92
606.92	1471.01
607.27	1464.76
607.62	1458.92
607.96	1453.81
608.31	1448.70
608.66	1442.84
609.01	1436.77
609.36	1431.04
609.70	1424.49
610.05	1417.99
610.40	1411.61
610.75	1405.03
611.10	1399.03
611.44	1391.64
611.79	1384.79
612.14	1377.39
612.49	1369.97
612.83	1363.25
613.18	1356.50
613.53	1349.26
613.88	1341.74
614.22	1335.16
614.57	1328.35
614.92	1321.39
615.27	1314.06
615.61	1306.80
615.96	1299.89
616.31	1293.61
616.65	1287.40
617.00	1281.22
617.35	1274.68
617.70	1268.10
618.04	1260.80
618.39	1253.10
618.74	1246.78
619.08	1240.02
619.43	1233.40
619.78	1227.00
620.12	1220.32
620.47	1213.96
620.82	1206.90
621.16	1200.16
621.51	1193.23
621.85	1186.73
622.20	1179.98
622.55	1173.30
622.89	1166.57
623.24	1160.12
623.59	1153.06
623.93	1146.14
624.28	1139.68
624.62	1133.53
624.97	1126.85
625.32	1121.07
625.66	1115.24
626.01	1109.02
626.35	1103.07
626.70	1096.94
627.04	1091.08
627.39	1085.30
627.73	1079.18
628.08	1073.72
628.43	1067.81
628.77	1061.92
629.12	1055.62
629.46	1050.36
629.81	1044.62
630.15	1038.79
630.50	1032.83
630.84	1027.13
631.19	1021.49
631.53	1015.69
631.88	1009.35
632.22	1003.34
632.57	997.64
632.91	991.68
633.26	986.12
633.60	980.38
633.95	975.03
634.29	969.08
634.64	963.46
634.98	957.64
635.32	952.26
635.67	947.30
636.01	941.99
636.36	936.60
636.70	931.21
637.05	926.03
637.39	920.91
637.73	915.70
638.08	911.06
638.42	906.20
638.77	901.15
639.11	896.24
639.45	891.34
639.80	885.85
640.14	880.66
640.49	875.43
640.83	870.14
641.17	864.83
641.52	859.48
641.86	854.09
642.20	849.20
642.55	843.58
642.89	838.11
643.23	832.75
643.58	827.85
643.92	822.21
644.26	816.90
644.61	811.79
644.95	806.61
645.29	801.22
645.64	795.87
645.98	790.60
646.32	785.73
646.66	780.56
647.01	775.74
647.35	771.09
647.69	765.95
648.04	761.22
648.38	756.27
648.72	751.62
649.06	746.71
649.41	741.81
649.75	737.05
650.09	732.36
650.43	727.59
650.78	722.45
651.12	717.61
651.46	712.89
651.80	708.35
652.14	703.75
652.49	698.99
652.83	694.31
653.17	689.51
653.51	684.53
653.85	680.05
654.20	675.38
654.54	670.51
654.88	665.96
655.22	661.44
655.56	656.81
655.90	652.15
656.25	647.59
656.59	643.05
656.93	638.84
657.27	634.48
657.61	630.08
657.95	626.01
658.29	621.99
658.64	617.87
658.98	613.41
659.32	608.95
659.66	604.83
660.00	600.54
660.34	596.31
660.68	592.18
661.02	587.85
661.36	583.90
661.70	580.13
662.05	576.31
662.39	572.52
662.73	569.05
663.07	565.55
663.41	562.00
663.75	558.40
664.09	554.62
664.43	550.95
664.77	547.33
665.11	543.77
665.45	540.32
665.79	536.87
666.13	533.51
666.47	530.19
666.81	526.80
667.15	523.47
667.49	520.64
667.83	517.77
668.17	514.81
668.51	511.67
668.85	508.74
669.19	505.95
669.53	502.85
669.87	499.60
670.21	496.59
670.55	493.68
670.89	491.06
671.23	488.33
671.57	485.48
671.91	482.78
672.25	479.88
672.58	477.05
672.92	474.23
673.26	471.70
673.60	469.27
673.94	466.60
674.28	464.08
674.62	461.39
674.96	458.69
675.30	456.20
675.64	453.56
675.97	450.94
676.31	448.40
676.65	445.90
676.99	443.60
677.33	441.13
677.67	438.65
678.01	436.03
678.34	433.64
678.68	431.33
679.02	428.83
679.36	426.65
679.70	424.30
680.04	422.01
680.37	419.60
680.71	417.24
681.05	415.13
681.39	412.88
681.73	410.65
682.06	408.65
682.40	406.61
682.74	404.66
683.08	402.68
683.42	400.47
683.75	398.58
684.09	396.47
684.43	394.37
684.77	392.32
685.10	390.21
685.44	388.07
685.78	386.21
686.12	384.41
686.45	382.53
686.79	380.60
687.13	378.84
687.46	376.99
687.80	375.28
688.14	373.43
688.48	371.72
688.81	369.88
689.15	367.97
689.49	366.00
689.82	364.28
690.16	362.23
690.50	360.52
690.83	358.58
691.17	356.64
691.51	354.95
691.84	353.33
692.18	351.76
692.52	350.30
692.85	348.79
693.19	347.33
693.52	345.61
693.86	344.10
694.20	342.50
694.53	340.95
694.87	339.29
695.21	337.74
695.54	336.02
695.88	334.45
696.21	332.96
696.55	331.58
696.88	330.10
697.22	328.71
697.56	327.40
697.89	326.09
698.23	324.87
698.56	323.52
698.90	322.32
699.23	320.96
699.57	319.53
699.90	318.00
700.24	316.56
700.58	315.35
700.91	314.13
701.25	313.06
701.58	311.94
701.92	310.85
702.25	309.67
702.59	308.53
702.92	307.49
703.26	306.33
703.59	305.24
703.93	304.40
704.26	303.37
704.60	302.25
704.93	301.23
705.26	300.13
705.60	299.11
705.93	297.97
706.27	297.09
706.60	296.26
706.94	295.47
707.27	294.45
707.61	293.50
707.94	292.52
708.27	291.33
708.61	290.20
708.94	289.30
709.28	288.36
709.61	287.47
709.94	286.62
710.28	285.80
710.61	284.95
710.95	283.71
711.28	283.10
711.61	282.23
711.95	281.41
712.28	280.64
712.61	279.86
712.95	279.24
713.28	278.51
713.61	277.72
713.95	276.85
714.28	276.18
714.61	275.51
714.95	274.72
715.28	273.96
715.61	273.29
715.95	272.47
716.28	271.81
716.61	271.20
716.95	270.45
717.28	269.74
717.61	269.08
717.94	268.47
718.28	267.57
718.61	266.92
718.94	266.25
719.27	265.67
719.61	265.07
719.94	264.40
720.27	263.58
720.60	262.90
720.94	262.28
721.27	261.69
721.60	261.03
721.93	260.53
722.27	260.19
722.60	259.72
722.93	259.15
723.26	258.61
723.59	258.00
723.93	257.50
724.26	256.99
724.59	256.42
724.92	255.98
725.25	255.58
725.59	255.09
725.92	254.68
726.25	254.15
726.58	253.70
726.91	253.19
727.24	252.81
727.57	252.36
727.91	251.90
728.24	251.51
728.57	251.05
728.90	250.65
729.23	250.04
729.56	249.79
729.89	249.42
730.22	249.01
730.55	248.61
730.89	248.23
731.22	247.82
731.55	247.48
731.88	247.06
732.21	246.66
732.54	246.18
732.87	245.80
733.20	245.49
733.53	245.14
733.86	244.84
734.19	244.45
734.52	244.21
734.85	244.12
735.18	243.76
735.51	243.57
735.84	243.23
736.17	243.07
736.50	242.55
736.83	242.60
737.16	242.24
737.49	241.91
737.82	241.49
738.15	241.19
738.48	240.83
738.81	240.47
739.14	240.08
739.47	239.80
739.80	239.47
740.13	239.13
740.46	238.64
740.79	238.21
741.12	237.94
741.45	237.58
741.78	237.15
742.11	236.88
742.44	236.47
742.77	236.14
743.10	235.74
743.43	235.40
743.75	234.76
744.08	234.95
744.41	234.74
744.74	234.61
745.07	234.28
745.40	234.11
745.73	234.08
746.06	233.80
746.39	233.64
746.71	233.44
747.04	233.08
747.37	232.90
747.70	232.79
748.03	232.60
748.36	232.36
748.68	232.02
749.01	231.75
749.34	231.48
749.67	231.34
750.00	231.23
750.33	231.29
750.65	231.07
750.98	230.41
751.31	230.15
751.64	229.88
751.97	229.96
752.29	229.76
752.62	229.34
752.95	229.20
753.28	228.91
753.60	228.62
753.93	228.61
754.26	228.45
754.59	228.15
754.91	227.88
755.24	227.67
755.57	227.50
755.90	227.32
756.22	227.13
756.55	226.88
756.88	226.59
757.20	226.15
757.53	225.87
757.86	225.66
758.19	225.50
758.51	225.30
758.84	224.87
759.17	224.63
759.49	224.50
759.82	224.40
760.15	224.27
760.47	224.08
760.80	223.82
761.13	223.69
761.45	223.59
761.78	223.50
762.11	223.39
762.43	223.23
762.76	223.02
763.08	222.93
763.41	222.82
763.74	222.75
764.06	222.63
764.39	222.53
764.71	222.45
765.04	222.25
765.37	222.14
765.69	221.99
766.02	221.86
766.34	221.73
766.67	221.49
767.00	221.50
767.32	221.65
767.65	221.77
767.97	221.65
768.30	221.56
768.62	221.37
768.95	221.18
769.27	221.06
769.60	221.04
769.92	220.91
770.25	220.67
770.57	220.43
770.90	220.32
771.22	220.13
771.55	220.00
771.87	219.96
772.20	219.85
772.52	220.11
772.85	220.40
773.17	220.26
773.50	220.23
773.82	220.04
774.15	219.65
774.47	219.27
774.80	219.18
775.12	219.00
775.45	218.92
775.77	218.86
776.09	218.84
776.42	218.73
776.74	218.71
777.07	218.70
777.39	218.63
777.72	218.52
778.04	218.54
778.36	218.48
778.69	218.40
779.01	218.34
779.33	217.94
779.66	217.46
779.98	217.47
780.31	217.40
780.63	217.41
780.95	217.43
781.28	217.37
781.60	217.28
781.92	217.22
782.25	217.18
782.57	217.10
782.89	216.97
783.22	216.89
783.54	216.84
783.86	216.78
784.19	216.79
784.51	216.85
784.83	216.78
785.16	216.68
785.48	216.62
785.80	216.54
786.12	216.56
786.45	216.56
786.77	216.49
787.09	216.38
787.42	216.26
787.74	216.23
788.06	216.18
788.38	216.06
788.71	216.03
789.03	215.94
789.35	216.03
789.67	216.00
789.99	216.00
790.32	215.89
790.64	215.94
790.96	216.15
791.28	216.03
791.61	216.02
791.93	216.02
792.25	215.93
792.57	216.15
792.89	215.93
793.21	215.89
793.54	215.75
793.86	215.66
794.18	215.62
794.50	215.55
794.82	215.52
795.14	215.62
795.47	215.66
795.79	215.66
796.11	215.49
796.43	215.39
796.75	215.34
797.07	215.36
797.39	215.30
797.71	214.97
798.04	214.90
798.36	214.84
798.68	214.79
799.00	214.80
799.32	214.55
799.64	214.69
799.96	214.61
800.28	214.67
800.60	214.70
800.92	214.75
801.24	214.73
801.56	214.78
801.89	214.69
802.21	214.65
802.53	214.62
802.85	214.68
803.17	214.79
803.49	214.73
803.81	214.66
804.13	214.60
804.45	214.59
804.77	214.57
805.09	214.54
805.41	214.45
805.73	214.38
806.05	214.38
806.37	214.30
806.69	214.29
807.01	214.24
807.33	214.21
807.65	214.10
807.97	214.19
808.28	214.06
808.60	214.01
808.92	213.94
809.24	214.09
809.56	213.99
809.88	213.89
810.20	213.89
810.52	213.89
810.84	213.86
811.16	213.77
811.48	213.85
811.80	213.98
812.12	213.96
812.43	214.05
812.75	214.05
813.07	213.99
813.39	213.99
813.71	213.88
814.03	213.86
814.35	213.81
814.67	213.68
814.98	213.61
815.30	213.60
815.62	213.48
815.94	213.21
816.26	213.17
816.58	213.10
816.89	213.09
817.21	212.98
817.53	212.97
817.85	213.05
818.17	212.97
818.48	212.87
818.80	212.91
819.12	212.82
819.44	212.76
819.76	212.74
820.07	212.73
820.39	212.78
820.71	212.83
821.03	212.77
821.34	212.75
821.66	212.85
821.98	212.91
822.30	212.92
822.61	213.16
822.93	213.18
823.25	213.23
823.57	213.16
823.88	213.26
824.20	213.21
824.52	213.19
824.83	213.19
825.15	213.04
825.47	213.08
825.79	213.07
826.10	212.97
826.42	212.98
826.74	213.00
827.05	212.98
827.37	212.90
827.69	212.91
828.00	212.91
828.32	212.87
828.64	212.78
828.95	212.96
829.27	212.82
829.58	212.79
829.90	212.77
830.22	212.78
830.53	212.71
830.85	212.62
831.17	212.58
831.48	212.50
831.80	212.57
832.11	212.53
832.43	212.52
832.75	212.55
833.06	212.79
833.38	212.72
833.69	212.71
834.01	212.81
834.32	212.76
834.64	212.72
834.96	212.70
835.27	212.69
835.59	212.59
835.90	212.57
836.22	212.60
836.53	212.57
836.85	212.55
837.16	212.86
837.48	212.91
837.79	213.00
838.11	213.08
838.42	213.08
838.74	213.10
839.05	213.08
839.37	213.09
839.68	212.81
840.00	212.84
840.31	212.92
840.63	212.81
840.94	212.83
841.26	212.76
841.57	212.75
841.88	212.81
842.20	212.79
842.51	212.71
842.83	212.72
843.14	213.08
843.46	213.12
843.77	212.90
844.08	212.85
844.40	212.74
844.71	212.63
845.03	212.51
845.34	212.46
845.65	212.44
845.97	212.43
846.28	212.41
846.60	212.38
846.91	212.33
847.22	212.32
847.54	212.49
847.85	212.57
848.16	212.60
848.48	212.55
848.79	212.69
849.10	212.74
849.42	212.67
849.73	212.29
850.04	212.20
850.36	212.16
850.67	212.26
850.98	212.26
851.30	212.34
851.61	212.40
851.92	212.37
852.23	212.46
852.55	212.50
852.86	212.53
853.17	212.55
853.49	212.63
853.80	212.68
854.11	212.56
854.42	212.60
854.74	212.49
855.05	212.54
855.36	212.31
855.67	212.38
855.99	212.41
856.30	212.82
856.61	212.84
856.92	212.79
857.23	212.84
857.55	212.80
857.86	212.75
858.17	212.75
858.48	212.70
858.79	212.61
859.11	212.54
859.42	212.48
859.73	212.44
860.04	212.37
860.35	212.21
860.66	212.12
860.98	212.09
861.29	212.20
861.60	212.14
861.91	212.23
862.22	212.07
862.53	211.99
862.84	211.56
863.16	211.64
863.47	211.53
863.78	211.46
864.09	211.39
864.40	211.41
864.71	211.45
865.02	211.58
865.33	211.56
865.64	211.61
865.95	211.62
866.27	211.77
866.58	211.78
866.89	211.95
867.20	211.96
867.51	211.88
867.82	211.78
868.13	211.90
868.44	211.78
868.75	211.94
869.06	211.95
869.37	211.99
869.68	211.89
869.99	212.01
870.30	212.05
870.61	212.17
870.92	212.06
871.23	212.04
871.54	212.05
871.85	212.13
872.16	212.11
872.47	212.12
872.78	211.87
873.09	211.81
873.40	211.74
873.71	211.76
874.02	211.76
874.33	211.79
874.64	211.60
874.95	211.74
875.26	211.65
875.56	211.70
875.87	211.71
876.18	211.67
876.49	212.05
876.80	211.97
877.11	211.92
877.42	212.00
877.73	212.03
878.04	211.93
878.35	211.94
878.66	211.90
878.96	211.90
879.27	212.03
879.58	212.01
879.89	212.01
880.20	212.15
880.51	212.20
880.82	212.22
881.12	212.29
881.43	212.20
881.74	212.14
882.05	212.08
882.36	212.06
882.67	212.17
882.97	211.79
883.28	211.76
883.59	211.74
883.90	211.80
884.21	211.84
884.51	211.80
884.82	211.76
885.13	211.79
885.44	211.77
885.74	211.61
886.05	211.70
886.36	211.65
886.67	211.50
886.98	211.70
887.28	211.65
887.59	211.66
887.90	211.66
888.20	211.64
888.51	211.78
888.82	211.75
889.13	211.67
889.43	211.90
889.74	211.92
890.05	211.84
890.35	211.74
890.66	211.66
890.97	211.69
891.28	211.58
891.58	211.56
891.89	211.58
892.20	211.67
892.50	211.59
892.81	211.60
893.12	211.56
893.42	211.34
893.73	211.43
894.04	211.40
894.34	211.38
894.65	211.39
894.95	211.31
895.26	211.27
895.57	211.47
895.87	211.18
896.18	211.21
896.48	211.31
896.79	211.28
897.10	211.28
897.40	211.26
897.71	211.31
898.01	211.24
898.32	211.30
898.63	211.23
898.93	211.24
899.24	211.22
899.54	211.27
899.85	211.26
900.15	211.19
900.46	211.23
900.76	211.28
901.07	211.30
901.38	211.24
901.68	211.29
901.99	211.04
902.29	211.06
902.60	211.04
902.90	211.05
903.21	211.06
903.51	211.04
903.82	211.09
904.12	211.06
904.43	211.21
904.73	211.15
905.03	211.25
905.34	211.60
905.64	211.57
905.95	211.58
906.25	211.56
906.56	211.63
906.86	211.65
907.17	211.68
907.47	211.76
907.77	211.73
908.08	211.76
908.38	211.86
908.69	211.87
908.99	211.93
909.30	211.85
909.60	211.92
909.90	211.93
910.21	211.84
910.51	211.85
910.81	211.78
911.12	211.81
911.42	211.74
911.73	211.29
912.03	211.33
912.33	211.38
912.64	211.44
912.94	211.37
913.24	211.29
913.55	211.25
913.85	211.16
914.15	211.26
914.46	211.29
914.76	211.31
915.06	211.29
915.37	211.21
915.67	211.25
915.97	211.24
916.27	211.24
916.58	211.25
916.88	211.21
917.18	211.22
917.49	211.45
917.79	211.54
918.09	211.67
918.39	211.74
918.70	211.73
919.00	211.69
919.30	211.88
919.60	211.85
919.91	211.85
920.21	211.88
920.51	211.79
920.81	211.69
921.12	211.72
921.42	211.76
921.72	211.79
922.02	211.80
922.32	211.82
922.63	211.84
922.93	212.04
923.23	212.16
923.53	212.16
923.83	211.89
924.13	211.91
924.44	211.90
924.74	211.99
925.04	212.07
925.34	212.04
925.64	211.92
925.94	211.89
926.24	212.05
926.55	211.98
926.85	212.10
927.15	212.07
927.45	212.05
927.75	212.08
928.05	212.13
928.35	212.18
928.65	212.29
928.95	212.25
929.26	212.17
929.56	212.16
929.86	212.15
930.16	212.17
930.46	212.19
930.76	212.21
931.06	212.06
931.36	211.94
931.66	212.00
931.96	212.02
932.26	212.12
932.56	212.00
932.86	212.07
933.16	212.04
933.46	212.12
933.76	211.98
934.06	212.03
934.36	212.07
934.66	212.03
934.96	211.93
935.26	211.93
935.56	211.93
935.86	211.93
936.16	211.89
936.46	211.89
936.76	211.73
937.06	211.66
937.36	211.70
937.66	211.71
937.96	211.75
938.26	211.67
938.56	211.64
938.86	211.64
939.16	211.71
939.46	211.74
939.76	211.73
940.06	211.81
940.35	211.75
940.65	211.51
940.95	211.52
941.25	211.45
941.55	211.49
941.85	211.41
942.15	211.45
942.45	211.55
942.75	211.53
943.04	211.61
943.34	211.69
943.64	211.67
943.94	211.60
944.24	211.54
944.54	211.59
944.84	211.56
945.13	211.49
945.43	211.36
945.73	211.36
946.03	211.33
946.33	211.25
946.62	211.13
946.92	211.24
947.22	211.30
947.52	211.32
947.82	211.26
948.11	211.33
948.41	211.23
948.71	211.13
949.01	211.17
949.31	211.15
949.60	211.12
949.90	211.15
950.20	211.15
950.50	211.14
950.79	211.11
951.09	211.14
951.39	211.19
951.69	211.23
951.98	211.24
952.28	211.24
952.58	211.29
952.87	211.33
953.17	211.31
953.47	211.30
953.76	211.33
954.06	211.33
954.36	211.22
954.66	211.20
954.95	211.31
955.25	211.33
955.55	211.35
955.84	211.26
956.14	211.25
956.44	211.28
956.73	211.23
957.03	211.20
957.32	211.23
957.62	211.15
957.92	211.22
958.21	211.16
958.51	211.57
958.81	211.58
959.10	211.59
959.40	211.73
959.69	211.66
959.99	211.73
960.29	211.73
960.58	211.70
960.88	211.81
961.17	211.78
961.47	211.75
961.76	211.72
962.06	211.77
962.36	211.78
962.65	211.86
962.95	211.90
963.24	211.93
963.54	211.89
963.83	211.95
964.13	211.91
964.42	211.86
964.72	211.58
965.01	211.54
965.31	211.58
965.60	211.50
965.90	211.70
966.19	211.58
966.49	211.66
966.78	211.70
967.08	211.71
967.37	211.68
967.67	211.61
967.96	211.67
968.26	211.66
968.55	211.74
968.85	211.71
969.14	211.70
969.43	211.69
969.73	211.67
970.02	211.65
970.32	211.54
970.61	211.58
970.91	211.47
971.20	211.48
971.49	211.45
971.79	211.49
972.08	211.26
972.38	211.35
972.67	211.24
972.96	211.19
973.26	211.14
973.55	211.28
973.85	211.28
974.14	211.27
974.43	211.35
974.73	211.24
975.02	211.19
975.31	211.16
975.61	211.18
975.90	211.15
976.19	211.11
976.49	211.21
976.78	211.23
977.07	211.19
977.37	211.29
977.66	211.27
977.95	211.19
978.24	211.20
978.54	211.21
978.83	211.20
979.12	211.26
979.42	211.24
979.71	211.14
980.00	211.10
980.29	211.12
980.59	211.01
980.88	211.05
981.17	211.00
981.46	211.05
981.76	210.97
982.05	211.09
982.34	211.04
982.63	210.97
982.93	210.92
983.22	211.00
983.51	210.94
983.80	211.03
984.09	211.10
984.39	211.09
984.68	211.05
984.97	211.09
985.26	211.10
985.55	211.15
985.85	211.06
986.14	211.20
986.43	211.21
986.72	211.20
987.01	211.12
987.30	211.15
987.59	211.13
987.89	211.13
988.18	211.05
988.47	211.12
988.76	211.09
989.05	211.07
989.34	211.04
989.63	211.13
989.92	211.08
990.22	211.03
990.51	211.00
990.80	210.94
991.09	210.90
991.38	210.90
991.67	210.85
991.96	210.86
992.25	210.83
992.54	210.83
992.83	210.84
993.12	210.89
993.41	210.94
993.70	211.08
993.99	211.20
994.28	211.23
994.58	211.23
994.87	211.19
995.16	211.21
995.45	211.20
995.74	211.13
996.03	211.17
996.32	211.18
996.61	211.26
996.90	211.24
997.19	211.29
997.48	211.24
997.77	211.22
998.06	211.25
998.34	211.20
998.63	211.14
998.92	211.23
999.21	211.20
999.50	211.20
999.79	211.05
1000.08	211.05
1000.37	211.03
1000.66	210.98
1000.95	211.15
1001.24	211.12
1001.53	211.16
1001.82	211.06
1002.11	210.99
1002.40	211.05
1002.68	211.07
1002.97	211.32
1003.26	211.27
1003.55	211.23
1003.84	211.16
1004.13	211.26
1004.42	211.26
1004.71	211.24
1004.99	211.19
1005.28	211.20
1005.57	211.14
1005.86	211.10
1006.15	211.01
1006.44	210.99
1006.72	211.00
1007.01	210.86
1007.30	210.88
1007.59	210.81
1007.88	210.85
1008.17	210.87
1008.45	210.74
1008.74	210.65
1009.03	210.48
1009.32	210.47
1009.60	210.56
1009.89	210.61
1010.18	210.43
1010.47	210.39
1010.76	210.35
1011.04	210.31
1011.33	210.34
1011.62	210.34
1011.91	210.33
1012.19	210.36
1012.48	210.33
1012.77	210.38
1013.05	210.62
1013.34	210.63
1013.63	210.63
1013.92	210.72
1014.20	210.68
1014.49	210.76
1014.78	210.79
1015.06	210.74
1015.35	210.71
1015.64	210.69
1015.92	210.76
1016.21	210.82
1016.50	210.81
1016.78	210.89
1017.07	210.91
1017.36	210.88
1017.64	210.86
1017.93	210.95
1018.22	210.90
1018.50	210.91
1018.79	210.89
1019.08	210.63
1019.36	210.65
1019.65	210.63
1019.93	210.65
1020.22	210.68
1020.51	210.87
1020.79	210.85
1021.08	210.15
1021.36	210.15
1021.65	210.75
1021.94	209.25
1022.22	211.05
1022.51	210.35
1022.79	212.00
1023.08	211.30
1023.36	215.55
1023.65	210.00
>>>>>End Processed Spectral Data<<<<<
