SpectraSuite Data File
++++++++++++++++++++++++++++++++++++
Date: Mon Feb 25 17:12:44 EST 2013
User: group
Dark Spectrum Present: No
Reference Spectrum Present: No
Number of Sampled Component Spectra: 1
Spectrometers: USB2E7196
Integration Time (usec): 104000 (USB2E7196)
Spectra Averaged: 20 (USB2E7196)
Boxcar Smoothing: 10 (USB2E7196)
Correct for Electrical Dark: No (USB2E7196)
Strobe/Lamp Enabled: No (USB2E7196)
Correct for Detector Non-linearity: No (USB2E7196)
Correct for Stray Light: No (USB2E7196)
Number of Pixels in Processed Spectrum: 2048
>>>>>Begin Processed Spectral Data<<<<<
339.09	0.00
339.48	199.40
339.86	200.05
340.24	201.95
340.63	203.15
341.01	209.45
341.39	205.65
341.78	207.55
342.16	209.35
342.54	208.30
342.93	198.37
343.31	208.35
343.69	208.86
344.07	209.34
344.46	209.78
344.84	210.15
345.22	210.21
345.60	210.47
345.99	210.66
346.37	210.70
346.75	210.87
347.13	211.00
347.52	211.01
347.90	211.13
348.28	211.16
348.66	211.28
349.05	211.17
349.43	211.18
349.81	211.30
350.19	211.30
350.57	211.37
350.96	211.51
351.34	211.62
351.72	211.76
352.10	211.87
352.48	211.90
352.87	211.95
353.25	211.99
353.63	212.05
354.01	212.14
354.39	212.20
354.77	212.23
355.15	212.39
355.54	212.43
355.92	212.42
356.30	212.44
356.68	212.70
357.06	212.78
357.44	212.70
357.82	212.75
358.20	212.85
358.58	212.98
358.97	213.04
359.35	213.15
359.73	213.22
360.11	213.29
360.49	213.39
360.87	213.44
361.25	213.51
361.63	213.64
362.01	213.67
362.39	213.75
362.77	213.81
363.15	213.74
363.53	213.80
363.91	213.87
364.29	213.92
364.67	213.57
365.05	213.59
365.43	213.69
365.81	213.77
366.19	213.92
366.57	214.07
366.95	214.04
367.33	213.97
367.71	213.91
368.09	213.92
368.47	213.91
368.85	213.91
369.23	214.07
369.61	213.95
369.99	214.01
370.37	214.00
370.75	214.15
371.13	214.07
371.51	214.02
371.89	213.95
372.27	213.95
372.65	213.95
373.03	213.90
373.41	213.90
373.78	213.83
374.16	213.60
374.54	213.39
374.92	213.32
375.30	213.32
375.68	213.25
376.06	213.23
376.44	213.13
376.82	213.07
377.19	212.97
377.57	212.95
377.95	212.76
378.33	212.71
378.71	212.44
379.09	212.45
379.47	212.49
379.84	212.38
380.22	212.26
380.60	212.15
380.98	212.06
381.36	211.95
381.73	211.86
382.11	211.92
382.49	211.89
382.87	211.81
383.25	211.65
383.62	212.00
384.00	211.85
384.38	211.88
384.76	211.98
385.13	212.00
385.51	211.95
385.89	211.92
386.27	211.92
386.64	211.95
387.02	211.83
387.40	211.76
387.78	211.83
388.15	211.88
388.53	211.90
388.91	211.94
389.29	211.94
389.66	211.85
390.04	211.73
390.42	211.78
390.79	211.83
391.17	211.93
391.55	211.53
391.92	211.53
392.30	211.51
392.68	211.40
393.05	211.34
393.43	211.29
393.81	211.32
394.18	211.24
394.56	211.22
394.94	211.31
395.31	211.24
395.69	211.35
396.06	211.37
396.44	211.36
396.82	211.32
397.19	211.45
397.57	211.52
397.95	211.60
398.32	211.44
398.70	211.45
399.07	211.51
399.45	211.50
399.82	211.50
400.20	211.45
400.58	211.42
400.95	211.28
401.33	211.37
401.70	211.55
402.08	211.58
402.45	211.60
402.83	211.69
403.20	211.73
403.58	211.74
403.95	211.85
404.33	211.93
404.71	211.98
405.08	212.26
405.46	212.27
405.83	212.32
406.21	212.48
406.58	212.58
406.96	212.63
407.33	212.79
407.70	212.93
408.08	213.39
408.45	213.60
408.83	213.85
409.20	213.97
409.58	214.00
409.95	214.18
410.33	214.37
410.70	214.50
411.08	214.78
411.45	214.98
411.82	215.11
412.20	215.37
412.57	215.86
412.95	215.83
413.32	216.24
413.69	216.64
414.07	217.02
414.44	217.45
414.82	217.93
415.19	218.49
415.56	218.99
415.94	219.31
416.31	219.91
416.68	220.58
417.06	221.38
417.43	222.19
417.81	223.03
418.18	223.91
418.55	224.77
418.93	225.73
419.30	226.71
419.67	227.74
420.04	228.84
420.42	229.93
420.79	231.44
421.16	232.73
421.54	234.20
421.91	235.54
422.28	236.95
422.66	238.47
423.03	240.15
423.40	241.74
423.77	243.38
424.15	244.99
424.52	246.72
424.89	248.59
425.26	250.33
425.64	252.05
426.01	253.96
426.38	255.99
426.75	258.05
427.13	260.13
427.50	262.37
427.87	264.64
428.24	266.80
428.61	268.76
428.99	271.22
429.36	273.63
429.73	276.18
430.10	278.74
430.47	281.29
430.85	283.72
431.22	286.56
431.59	289.71
431.96	292.65
432.33	295.76
432.70	298.76
433.08	302.37
433.45	305.76
433.82	309.05
434.19	312.77
434.56	316.56
434.93	319.97
435.30	323.46
435.68	327.30
436.05	331.16
436.42	334.93
436.79	338.41
437.16	342.15
437.53	346.09
437.90	350.00
438.27	353.90
438.64	357.97
439.01	361.64
439.38	364.85
439.75	368.02
440.13	371.65
440.50	375.05
440.87	377.79
441.24	380.69
441.61	383.90
441.98	386.18
442.35	388.74
442.72	391.64
443.09	394.40
443.46	396.05
443.83	397.17
444.20	398.20
444.57	399.46
444.94	400.15
445.31	400.80
445.68	401.82
446.05	402.00
446.42	401.53
446.79	401.11
447.16	400.46
447.53	400.12
447.90	398.68
448.27	397.14
448.64	395.20
449.01	393.67
449.37	391.11
449.74	388.64
450.11	385.83
450.48	382.53
450.85	379.03
451.22	376.18
451.59	373.48
451.96	370.87
452.33	367.41
452.70	364.19
453.07	360.39
453.43	356.07
453.80	352.53
454.17	349.02
454.54	345.60
454.91	342.02
455.28	338.40
455.65	335.14
456.02	332.42
456.38	329.52
456.75	326.19
457.12	323.23
457.49	320.44
457.86	317.51
458.23	315.22
458.59	312.70
458.96	310.02
459.33	307.60
459.70	305.31
460.07	303.48
460.43	301.39
460.80	299.52
461.17	297.93
461.54	296.11
461.91	294.38
462.27	292.63
462.64	291.19
463.01	289.59
463.38	288.19
463.74	286.11
464.11	284.69
464.48	283.47
464.85	282.19
465.21	281.22
465.58	280.20
465.95	278.72
466.32	277.65
466.68	276.53
467.05	275.47
467.42	274.38
467.78	273.29
468.15	272.17
468.52	271.44
468.88	270.38
469.25	269.38
469.62	268.77
469.98	267.95
470.35	267.29
470.72	266.63
471.08	265.69
471.45	265.23
471.82	264.77
472.18	264.20
472.55	263.75
472.92	263.12
473.28	262.58
473.65	262.13
474.02	261.73
474.38	261.55
474.75	261.30
475.11	260.97
475.48	260.79
475.85	260.58
476.21	260.33
476.58	260.17
476.94	260.07
477.31	259.85
477.67	259.84
478.04	259.70
478.41	259.74
478.77	260.08
479.14	259.94
479.50	259.97
479.87	260.05
480.23	260.23
480.60	260.35
480.96	260.52
481.33	260.97
481.69	261.24
482.06	261.45
482.42	261.79
482.79	262.06
483.15	262.41
483.52	263.02
483.88	263.42
484.25	263.87
484.61	264.41
484.98	265.03
485.34	265.80
485.71	266.52
486.07	267.27
486.44	267.77
486.80	268.61
487.17	269.41
487.53	270.42
487.90	271.48
488.26	272.59
488.62	273.94
488.99	274.97
489.35	276.14
489.72	277.49
490.08	278.85
490.44	280.27
490.81	281.84
491.17	283.36
491.54	285.05
491.90	286.81
492.26	288.68
492.63	290.55
492.99	292.39
493.36	294.53
493.72	296.74
494.08	299.05
494.45	301.57
494.81	304.27
495.17	306.83
495.54	309.65
495.90	312.50
496.26	315.35
496.63	318.55
496.99	321.89
497.35	325.22
497.72	328.85
498.08	332.60
498.44	336.32
498.80	340.41
499.17	344.45
499.53	348.73
499.89	353.20
500.26	357.69
500.62	362.43
500.98	367.40
501.34	372.42
501.71	377.78
502.07	383.11
502.43	388.43
502.79	393.90
503.16	399.71
503.52	405.66
503.88	411.72
504.24	417.99
504.60	424.33
504.97	431.05
505.33	437.70
505.69	444.84
506.05	452.05
506.41	459.32
506.78	466.82
507.14	474.33
507.50	482.09
507.86	490.16
508.22	498.34
508.59	506.46
508.95	514.94
509.31	523.51
509.67	532.24
510.03	541.30
510.39	550.68
510.75	560.02
511.12	569.62
511.48	579.19
511.84	588.90
512.20	598.64
512.56	608.70
512.92	618.80
513.28	628.87
513.64	639.30
514.00	649.63
514.37	660.09
514.73	670.99
515.09	681.79
515.45	692.62
515.81	703.56
516.17	714.62
516.53	725.85
516.89	737.09
517.25	748.55
517.61	760.01
517.97	771.41
518.33	782.60
518.69	794.15
519.05	805.84
519.41	817.69
519.77	829.78
520.13	841.59
520.49	853.48
520.85	865.69
521.21	877.75
521.57	890.07
521.93	901.94
522.29	914.35
522.65	926.65
523.01	938.75
523.37	950.74
523.73	962.78
524.09	974.78
524.45	986.81
524.81	998.76
525.17	1010.95
525.53	1023.10
525.89	1035.40
526.25	1047.50
526.61	1059.18
526.97	1071.02
527.33	1082.78
527.68	1094.79
528.04	1106.30
528.40	1117.29
528.76	1128.57
529.12	1140.01
529.48	1151.98
529.84	1163.27
530.20	1174.65
530.56	1186.15
530.91	1198.11
531.27	1209.85
531.63	1220.95
531.99	1231.80
532.35	1242.64
532.71	1253.20
533.07	1264.05
533.42	1274.67
533.78	1284.94
534.14	1295.41
534.50	1304.93
534.86	1315.03
535.21	1324.30
535.57	1334.61
535.93	1344.30
536.29	1353.98
536.65	1363.42
537.00	1372.25
537.36	1380.82
537.72	1389.18
538.08	1397.45
538.44	1405.33
538.79	1413.32
539.15	1421.64
539.51	1429.79
539.87	1438.20
540.22	1446.17
540.58	1454.21
540.94	1461.69
541.29	1468.85
541.65	1475.95
542.01	1483.52
542.37	1490.34
542.72	1497.34
543.08	1503.31
543.44	1510.41
543.79	1516.35
544.15	1521.93
544.51	1528.06
544.87	1534.12
545.22	1539.54
545.58	1544.78
545.94	1549.57
546.29	1553.89
546.65	1557.98
547.01	1562.19
547.36	1565.95
547.72	1569.68
548.07	1572.60
548.43	1575.51
548.79	1578.66
549.14	1581.71
549.50	1584.58
549.86	1586.91
550.21	1589.17
550.57	1591.60
550.92	1593.02
551.28	1595.11
551.64	1597.34
551.99	1599.02
552.35	1600.25
552.70	1601.84
553.06	1603.61
553.41	1604.92
553.77	1606.34
554.13	1607.62
554.48	1608.89
554.84	1610.05
555.19	1610.47
555.55	1611.06
555.90	1611.45
556.26	1611.49
556.61	1611.42
556.97	1610.90
557.32	1610.86
557.68	1610.23
558.03	1609.81
558.39	1609.78
558.74	1609.52
559.10	1608.91
559.45	1608.50
559.81	1608.13
560.16	1607.34
560.52	1606.20
560.87	1605.51
561.23	1604.10
561.58	1603.10
561.94	1601.63
562.29	1599.45
562.64	1598.26
563.00	1597.00
563.35	1595.95
563.71	1595.59
564.06	1594.64
564.42	1593.79
564.77	1592.80
565.12	1592.07
565.48	1590.98
565.83	1589.51
566.19	1588.09
566.54	1586.09
566.89	1583.89
567.25	1582.07
567.60	1580.16
567.96	1578.42
568.31	1576.44
568.66	1574.49
569.02	1572.05
569.37	1569.26
569.72	1567.07
570.08	1564.62
570.43	1561.80
570.78	1558.84
571.14	1555.04
571.49	1551.43
571.84	1548.43
572.20	1544.59
572.55	1541.45
572.90	1537.71
573.26	1533.82
573.61	1529.74
573.96	1525.89
574.31	1521.81
574.67	1517.47
575.02	1513.00
575.37	1508.66
575.72	1503.77
576.08	1499.90
576.43	1495.31
576.78	1491.22
577.13	1487.28
577.49	1483.03
577.84	1478.78
578.19	1475.00
578.54	1471.43
578.90	1467.97
579.25	1463.25
579.60	1458.91
579.95	1454.09
580.30	1449.91
580.66	1445.91
581.01	1441.19
581.36	1436.63
581.71	1432.43
582.06	1428.27
582.42	1424.30
582.77	1419.62
583.12	1415.65
583.47	1411.41
583.82	1407.81
584.17	1403.60
584.53	1399.83
584.88	1395.59
585.23	1391.35
585.58	1386.76
585.93	1382.25
586.28	1378.06
586.63	1373.78
586.98	1369.80
587.34	1365.86
587.69	1361.38
588.04	1357.04
588.39	1353.19
588.74	1348.87
589.09	1344.83
589.44	1340.24
589.79	1336.01
590.14	1332.15
590.49	1327.98
590.84	1323.72
591.19	1319.66
591.54	1315.50
591.89	1310.20
592.25	1305.81
592.60	1301.00
592.95	1296.27
593.30	1291.11
593.65	1285.86
594.00	1281.43
594.35	1278.12
594.70	1273.44
595.05	1269.31
595.40	1264.81
595.75	1260.15
596.10	1256.14
596.45	1251.87
596.80	1248.15
597.15	1244.24
597.50	1239.92
597.85	1235.56
598.19	1230.88
598.54	1226.52
598.89	1222.44
599.24	1219.14
599.59	1215.11
599.94	1211.87
600.29	1208.17
600.64	1204.51
600.99	1200.44
601.34	1196.79
601.69	1191.58
602.04	1187.57
602.39	1183.37
602.74	1179.57
603.08	1176.37
603.43	1173.00
603.78	1169.15
604.13	1165.18
604.48	1161.19
604.83	1157.98
605.18	1154.80
605.53	1151.11
605.87	1146.93
606.22	1143.18
606.57	1139.03
606.92	1135.15
607.27	1130.86
607.62	1126.90
607.96	1123.24
608.31	1119.83
608.66	1115.57
609.01	1111.46
609.36	1107.23
609.70	1102.98
610.05	1098.46
610.40	1093.80
610.75	1088.96
611.10	1084.75
611.44	1079.66
611.79	1074.90
612.14	1069.65
612.49	1064.40
612.83	1059.77
613.18	1054.74
613.53	1049.93
613.88	1044.84
614.22	1040.06
614.57	1035.13
614.92	1030.16
615.27	1025.14
615.61	1020.17
615.96	1015.55
616.31	1011.07
616.65	1006.77
617.00	1002.22
617.35	997.44
617.70	992.47
618.04	987.53
618.39	982.38
618.74	977.85
619.08	973.03
619.43	968.12
619.78	963.40
620.12	958.64
620.47	954.29
620.82	949.19
621.16	944.10
621.51	939.06
621.85	934.42
622.20	929.69
622.55	924.86
622.89	919.90
623.24	915.17
623.59	910.27
623.93	905.40
624.28	900.81
624.62	896.74
624.97	892.21
625.32	887.77
625.66	883.52
626.01	879.00
626.35	874.59
626.70	870.29
627.04	866.32
627.39	862.03
627.73	857.75
628.08	853.68
628.43	849.46
628.77	845.17
629.12	840.76
629.46	836.80
629.81	832.71
630.15	828.78
630.50	824.34
630.84	820.04
631.19	815.81
631.53	811.56
631.88	806.82
632.22	802.52
632.57	798.40
632.91	793.97
633.26	789.92
633.60	785.88
633.95	781.83
634.29	777.49
634.64	773.53
634.98	769.24
635.32	765.36
635.67	761.75
636.01	758.03
636.36	754.07
636.70	750.10
637.05	746.20
637.39	742.25
637.73	738.67
638.08	735.41
638.42	731.75
638.77	728.02
639.11	724.29
639.45	720.62
639.80	716.73
640.14	712.94
640.49	709.04
640.83	705.23
641.17	701.60
641.52	697.72
641.86	693.83
642.20	690.07
642.55	685.99
642.89	682.08
643.23	678.05
643.58	674.60
643.92	670.67
644.26	667.04
644.61	663.34
644.95	659.65
645.29	655.54
645.64	651.85
645.98	648.09
646.32	644.53
646.66	640.83
647.01	637.31
647.35	633.80
647.69	630.23
648.04	626.78
648.38	623.11
648.72	619.58
649.06	615.92
649.41	612.50
649.75	609.11
650.09	605.77
650.43	602.35
650.78	598.60
651.12	595.00
651.46	591.39
651.80	587.96
652.14	584.41
652.49	581.04
652.83	577.46
653.17	573.95
653.51	570.56
653.85	567.28
654.20	563.83
654.54	560.26
654.88	556.79
655.22	553.36
655.56	549.87
655.90	546.45
656.25	543.19
656.59	539.73
656.93	536.45
657.27	533.18
657.61	529.90
657.95	526.86
658.29	523.81
658.64	520.79
658.98	517.53
659.32	514.39
659.66	511.38
660.00	508.34
660.34	505.21
660.68	502.07
661.02	498.88
661.36	496.05
661.70	493.41
662.05	490.69
662.39	488.00
662.73	485.44
663.07	482.88
663.41	480.12
663.75	477.57
664.09	474.80
664.43	471.92
664.77	469.27
665.11	466.43
665.45	463.82
665.79	461.12
666.13	458.60
666.47	456.04
666.81	453.33
667.15	450.76
667.49	448.57
667.83	446.39
668.17	444.06
668.51	441.75
668.85	439.37
669.19	437.31
669.53	434.84
669.87	432.41
670.21	430.09
670.55	427.94
670.89	425.93
671.23	424.01
671.57	422.06
671.91	420.00
672.25	417.98
672.58	415.97
672.92	414.02
673.26	412.06
673.60	410.19
673.94	408.33
674.28	406.40
674.62	404.53
674.96	402.63
675.30	400.83
675.64	398.89
675.97	396.95
676.31	395.09
676.65	393.31
676.99	391.69
677.33	389.89
677.67	388.11
678.01	386.09
678.34	384.25
678.68	382.46
679.02	380.67
679.36	378.95
679.70	377.27
680.04	375.49
680.37	373.76
680.71	372.01
681.05	370.37
681.39	368.69
681.73	366.92
682.06	365.26
682.40	363.86
682.74	362.32
683.08	360.85
683.42	359.07
683.75	357.52
684.09	355.89
684.43	354.32
684.77	352.65
685.10	351.19
685.44	349.50
685.78	348.01
686.12	346.74
686.45	345.28
686.79	343.81
687.13	342.43
687.46	341.09
687.80	339.79
688.14	338.39
688.48	337.20
688.81	335.65
689.15	334.24
689.49	332.60
689.82	331.28
690.16	329.69
690.50	328.38
690.83	327.03
691.17	325.60
691.51	324.22
691.84	322.99
692.18	321.72
692.52	320.58
692.85	319.40
693.19	318.20
693.52	316.94
693.86	315.67
694.20	314.49
694.53	313.29
694.87	312.01
695.21	310.77
695.54	309.51
695.88	308.42
696.21	307.24
696.55	306.19
696.88	305.03
697.22	304.01
697.56	303.03
697.89	301.91
698.23	300.96
698.56	299.97
698.90	299.08
699.23	298.04
699.57	296.98
699.90	295.90
700.24	294.73
700.58	293.82
700.91	292.95
701.25	292.16
701.58	291.32
701.92	290.42
702.25	289.53
702.59	288.60
702.92	287.80
703.26	286.95
703.59	286.10
703.93	285.56
704.26	284.75
704.60	283.85
704.93	282.93
705.26	282.01
705.60	281.29
705.93	280.43
706.27	279.83
706.60	279.18
706.94	278.51
707.27	277.72
707.61	277.00
707.94	276.24
708.27	275.28
708.61	274.51
708.94	273.80
709.28	273.14
709.61	272.47
709.94	271.75
710.28	271.02
710.61	270.35
710.95	269.35
711.28	268.92
711.61	268.22
711.95	267.71
712.28	267.12
712.61	266.44
712.95	265.88
713.28	265.31
713.61	264.67
713.95	263.99
714.28	263.47
714.61	262.86
714.95	262.21
715.28	261.64
715.61	261.09
715.95	260.48
716.28	259.92
716.61	259.41
716.95	258.82
717.28	258.31
717.61	257.85
717.94	257.38
718.28	256.57
718.61	256.09
718.94	255.64
719.27	255.17
719.61	254.66
719.94	254.15
720.27	253.39
720.60	252.89
720.94	252.44
721.27	251.98
721.60	251.53
721.93	251.14
722.27	250.72
722.60	250.26
722.93	249.85
723.26	249.38
723.59	248.95
723.93	248.63
724.26	248.32
724.59	247.87
724.92	247.45
725.25	247.22
725.59	246.85
725.92	246.49
726.25	246.10
726.58	245.82
726.91	245.41
727.24	245.18
727.57	244.81
727.91	244.37
728.24	244.12
728.57	243.74
728.90	243.49
729.23	243.08
729.56	242.91
729.89	242.61
730.22	242.30
730.55	241.94
730.89	241.55
731.22	241.08
731.55	240.74
731.88	240.39
732.21	239.99
732.54	239.58
732.87	239.22
733.20	238.87
733.53	238.49
733.86	238.31
734.19	237.95
734.52	237.72
734.85	237.75
735.18	237.34
735.51	237.19
735.84	236.82
736.17	236.72
736.50	236.25
736.83	236.37
737.16	236.05
737.49	235.78
737.82	235.55
738.15	235.38
738.48	235.13
738.81	235.03
739.14	234.75
739.47	234.53
739.80	234.25
740.13	234.08
740.46	233.80
740.79	233.52
741.12	233.31
741.45	233.00
741.78	232.59
742.11	232.51
742.44	232.22
742.77	232.10
743.10	231.75
743.43	231.51
743.75	230.88
744.08	231.15
744.41	230.85
744.74	230.59
745.07	230.31
745.40	230.15
745.73	230.01
746.06	229.78
746.39	229.64
746.71	229.48
747.04	229.29
747.37	229.05
747.70	228.85
748.03	228.63
748.36	228.46
748.68	228.16
749.01	227.94
749.34	227.74
749.67	227.49
750.00	227.40
750.33	227.50
750.65	227.32
750.98	226.77
751.31	226.69
751.64	226.55
751.97	226.58
752.29	226.36
752.62	225.99
752.95	225.84
753.28	225.66
753.60	225.47
753.93	225.40
754.26	225.29
754.59	224.94
754.91	224.73
755.24	224.60
755.57	224.50
755.90	224.27
756.22	224.08
756.55	223.89
756.88	223.64
757.20	223.21
757.53	223.00
757.86	222.81
758.19	222.73
758.51	222.57
758.84	222.25
759.17	222.08
759.49	222.02
759.82	222.03
760.15	221.95
760.47	221.82
760.80	221.57
761.13	221.52
761.45	221.52
761.78	221.45
762.11	221.35
762.43	221.22
762.76	221.06
763.08	221.05
763.41	220.98
763.74	220.92
764.06	220.88
764.39	220.83
764.71	220.67
765.04	220.45
765.37	220.40
765.69	220.36
766.02	220.25
766.34	220.13
766.67	219.93
767.00	219.93
767.32	220.05
767.65	220.18
767.97	220.06
768.30	220.06
768.62	219.98
768.95	219.88
769.27	219.78
769.60	219.85
769.92	219.65
770.25	219.50
770.57	219.37
770.90	219.24
771.22	219.07
771.55	219.09
771.87	219.10
772.20	219.08
772.52	219.25
772.85	219.61
773.17	219.55
773.50	219.50
773.82	219.36
774.15	219.15
774.47	218.83
774.80	218.74
775.12	218.61
775.45	218.54
775.77	218.54
776.09	218.49
776.42	218.38
776.74	218.47
777.07	218.39
777.39	218.36
777.72	218.31
778.04	218.40
778.36	218.30
778.69	218.23
779.01	218.14
779.33	217.79
779.66	217.34
779.98	217.22
780.31	217.10
780.63	217.13
780.95	217.05
781.28	216.99
781.60	216.94
781.92	216.84
782.25	216.73
782.57	216.61
782.89	216.60
783.22	216.46
783.54	216.34
783.86	216.33
784.19	216.25
784.51	216.34
784.83	216.24
785.16	216.14
785.48	216.10
785.80	216.05
786.12	216.04
786.45	215.97
786.77	215.99
787.09	215.95
787.42	215.78
787.74	215.77
788.06	215.76
788.38	215.63
788.71	215.57
789.03	215.63
789.35	215.65
789.67	215.56
789.99	215.56
790.32	215.52
790.64	215.50
790.96	215.71
791.28	215.48
791.61	215.41
791.93	215.43
792.25	215.36
792.57	215.60
792.89	215.53
793.21	215.58
793.54	215.48
793.86	215.42
794.18	215.40
794.50	215.29
794.82	215.17
795.14	215.25
795.47	215.27
795.79	215.19
796.11	215.06
796.43	214.99
796.75	214.94
797.07	214.87
797.39	214.85
797.71	214.58
798.04	214.55
798.36	214.59
798.68	214.55
799.00	214.56
799.32	214.27
799.64	214.30
799.96	214.29
800.28	214.33
800.60	214.36
800.92	214.40
801.24	214.28
801.56	214.39
801.89	214.33
802.21	214.34
802.53	214.30
802.85	214.35
803.17	214.53
803.49	214.40
803.81	214.34
804.13	214.32
804.45	214.25
804.77	214.29
805.09	214.18
805.41	214.15
805.73	214.10
806.05	213.97
806.37	213.89
806.69	213.80
807.01	213.72
807.33	213.63
807.65	213.40
807.97	213.61
808.28	213.49
808.60	213.49
808.92	213.44
809.24	213.67
809.56	213.62
809.88	213.47
810.20	213.54
810.52	213.58
810.84	213.46
811.16	213.41
811.48	213.50
811.80	213.71
812.12	213.60
812.43	213.61
812.75	213.66
813.07	213.63
813.39	213.50
813.71	213.48
814.03	213.47
814.35	213.54
814.67	213.40
814.98	213.36
815.30	213.34
815.62	213.25
815.94	212.91
816.26	212.92
816.58	212.86
816.89	212.89
817.21	212.85
817.53	212.90
817.85	212.96
818.17	212.87
818.48	212.62
818.80	212.73
819.12	212.63
819.44	212.62
819.76	212.57
820.07	212.66
820.39	212.66
820.71	212.67
821.03	212.66
821.34	212.58
821.66	212.64
821.98	212.70
822.30	212.69
822.61	212.98
822.93	212.94
823.25	212.87
823.57	212.75
823.88	212.81
824.20	212.75
824.52	212.79
824.83	212.75
825.15	212.76
825.47	212.75
825.79	212.83
826.10	212.75
826.42	212.75
826.74	212.75
827.05	212.69
827.37	212.67
827.69	212.63
828.00	212.68
828.32	212.62
828.64	212.47
828.95	212.65
829.27	212.43
829.58	212.39
829.90	212.43
830.22	212.55
830.53	212.40
830.85	212.43
831.17	212.30
831.48	212.24
831.80	212.25
832.11	212.17
832.43	212.10
832.75	212.13
833.06	212.32
833.38	212.29
833.69	212.32
834.01	212.33
834.32	212.30
834.64	212.29
834.96	212.28
835.27	212.26
835.59	212.09
835.90	212.05
836.22	212.06
836.53	211.99
836.85	211.88
837.16	212.22
837.48	212.20
837.79	212.33
838.11	212.36
838.42	212.35
838.74	212.44
839.05	212.37
839.37	212.40
839.68	212.14
840.00	212.10
840.31	212.11
840.63	212.03
840.94	212.02
841.26	211.92
841.57	211.92
841.88	211.96
842.20	211.93
842.51	211.90
842.83	211.90
843.14	212.26
843.46	212.34
843.77	212.12
844.08	212.05
844.40	211.92
844.71	211.90
845.03	211.84
845.34	211.76
845.65	211.74
845.97	211.71
846.28	211.77
846.60	211.79
846.91	211.72
847.22	211.73
847.54	211.80
847.85	211.83
848.16	211.82
848.48	211.74
848.79	211.88
849.10	211.90
849.42	211.96
849.73	211.51
850.04	211.43
850.36	211.35
850.67	211.44
850.98	211.44
851.30	211.46
851.61	211.42
851.92	211.46
852.23	211.66
852.55	211.63
852.86	211.63
853.17	211.68
853.49	211.78
853.80	211.86
854.11	211.86
854.42	211.97
854.74	211.96
855.05	211.94
855.36	211.73
855.67	211.70
855.99	211.64
856.30	212.11
856.61	212.14
856.92	212.18
857.23	212.18
857.55	212.17
857.86	212.11
858.17	212.22
858.48	212.15
858.79	211.99
859.11	212.08
859.42	212.05
859.73	211.99
860.04	211.95
860.35	211.88
860.66	211.81
860.98	211.75
861.29	211.78
861.60	211.85
861.91	211.93
862.22	211.91
862.53	211.90
862.84	211.57
863.16	211.64
863.47	211.58
863.78	211.58
864.09	211.59
864.40	211.71
864.71	211.71
865.02	211.71
865.33	211.75
865.64	211.69
865.95	211.70
866.27	211.91
866.58	211.90
866.89	211.93
867.20	211.94
867.51	211.90
867.82	211.87
868.13	211.90
868.44	211.85
868.75	211.95
869.06	211.94
869.37	211.96
869.68	211.79
869.99	211.78
870.30	211.79
870.61	211.82
870.92	211.72
871.23	211.60
871.54	211.67
871.85	211.71
872.16	211.74
872.47	211.70
872.78	211.50
873.09	211.49
873.40	211.45
873.71	211.45
874.02	211.46
874.33	211.51
874.64	211.46
874.95	211.58
875.26	211.45
875.56	211.49
875.87	211.47
876.18	211.54
876.49	211.90
876.80	211.87
877.11	211.81
877.42	211.76
877.73	211.83
878.04	211.80
878.35	211.82
878.66	211.86
878.96	211.81
879.27	211.83
879.58	211.79
879.89	211.77
880.20	211.81
880.51	211.77
880.82	211.73
881.12	211.81
881.43	211.67
881.74	211.72
882.05	211.60
882.36	211.63
882.67	211.60
882.97	211.29
883.28	211.28
883.59	211.29
883.90	211.32
884.21	211.37
884.51	211.32
884.82	211.26
885.13	211.19
885.44	211.19
885.74	211.20
886.05	211.23
886.36	211.21
886.67	211.11
886.98	211.28
887.28	211.33
887.59	211.29
887.90	211.30
888.20	211.29
888.51	211.39
888.82	211.30
889.13	211.34
889.43	211.58
889.74	211.51
890.05	211.50
890.35	211.47
890.66	211.38
890.97	211.34
891.28	211.31
891.58	211.32
891.89	211.38
892.20	211.34
892.50	211.27
892.81	211.30
893.12	211.34
893.42	211.18
893.73	211.15
894.04	211.13
894.34	211.18
894.65	211.14
894.95	211.07
895.26	211.08
895.57	211.27
895.87	210.91
896.18	210.97
896.48	210.98
896.79	211.03
897.10	211.11
897.40	211.17
897.71	211.25
898.01	211.20
898.32	211.28
898.63	211.29
898.93	211.36
899.24	211.31
899.54	211.36
899.85	211.41
900.15	211.44
900.46	211.43
900.76	211.43
901.07	211.47
901.38	211.54
901.68	211.57
901.99	211.37
902.29	211.46
902.60	211.47
902.90	211.47
903.21	211.55
903.51	211.54
903.82	211.62
904.12	211.59
904.43	211.69
904.73	211.68
905.03	211.65
905.34	212.07
905.64	212.13
905.95	212.09
906.25	212.03
906.56	211.97
906.86	212.07
907.17	212.06
907.47	212.08
907.77	212.02
908.08	211.97
908.38	211.94
908.69	211.94
908.99	212.02
909.30	212.04
909.60	211.96
909.90	212.00
910.21	211.91
910.51	211.84
910.81	211.86
911.12	211.83
911.42	211.85
911.73	211.40
912.03	211.39
912.33	211.44
912.64	211.46
912.94	211.43
913.24	211.28
913.55	211.26
913.85	211.27
914.15	211.38
914.46	211.39
914.76	211.35
915.06	211.26
915.37	211.10
915.67	211.03
915.97	211.03
916.27	210.91
916.58	210.91
916.88	210.89
917.18	210.81
917.49	211.02
917.79	211.02
918.09	211.06
918.39	211.14
918.70	211.10
919.00	211.08
919.30	211.27
919.60	211.33
919.91	211.26
920.21	211.24
920.51	211.18
920.81	211.17
921.12	211.34
921.42	211.35
921.72	211.41
922.02	211.40
922.32	211.48
922.63	211.49
922.93	211.57
923.23	211.57
923.53	211.58
923.83	211.38
924.13	211.38
924.44	211.37
924.74	211.43
925.04	211.47
925.34	211.53
925.64	211.36
925.94	211.20
926.24	211.43
926.55	211.38
926.85	211.40
927.15	211.41
927.45	211.36
927.75	211.35
928.05	211.35
928.35	211.41
928.65	211.43
928.95	211.42
929.26	211.34
929.56	211.45
929.86	211.46
930.16	211.42
930.46	211.41
930.76	211.44
931.06	211.26
931.36	211.12
931.66	211.08
931.96	211.13
932.26	211.24
932.56	211.15
932.86	211.16
933.16	211.17
933.46	211.12
933.76	210.99
934.06	211.12
934.36	211.23
934.66	211.17
934.96	211.05
935.26	211.15
935.56	211.22
935.86	211.09
936.16	211.00
936.46	210.94
936.76	210.92
937.06	210.83
937.36	210.88
937.66	210.96
937.96	211.04
938.26	211.00
938.56	210.96
938.86	210.87
939.16	210.98
939.46	211.00
939.76	211.14
940.06	211.23
940.35	211.19
940.65	211.02
940.95	211.09
941.25	211.04
941.55	210.96
941.85	210.87
942.15	211.01
942.45	211.19
942.75	211.20
943.04	211.25
943.34	211.29
943.64	211.23
943.94	211.24
944.24	211.21
944.54	211.24
944.84	211.25
945.13	211.29
945.43	211.20
945.73	211.17
946.03	211.11
946.33	211.03
946.62	210.96
946.92	210.88
947.22	210.91
947.52	210.92
947.82	210.94
948.11	210.93
948.41	210.73
948.71	210.56
949.01	210.58
949.31	210.55
949.60	210.54
949.90	210.63
950.20	210.64
950.50	210.63
950.79	210.60
951.09	210.69
951.39	210.63
951.69	210.61
951.98	210.65
952.28	210.62
952.58	210.70
952.87	210.70
953.17	210.78
953.47	210.70
953.76	210.71
954.06	210.69
954.36	210.61
954.66	210.72
954.95	210.93
955.25	210.97
955.55	210.94
955.84	210.83
956.14	210.89
956.44	210.85
956.73	210.78
957.03	210.74
957.32	210.76
957.62	210.75
957.92	210.78
958.21	210.70
958.51	211.08
958.81	211.08
959.10	211.15
959.40	211.30
959.69	211.35
959.99	211.45
960.29	211.45
960.58	211.51
960.88	211.62
961.17	211.47
961.47	211.49
961.76	211.47
962.06	211.59
962.36	211.54
962.65	211.51
962.95	211.54
963.24	211.52
963.54	211.49
963.83	211.59
964.13	211.62
964.42	211.57
964.72	211.29
965.01	211.28
965.31	211.23
965.60	211.10
965.90	211.37
966.19	211.26
966.49	211.27
966.78	211.27
967.08	211.21
967.37	211.27
967.67	211.20
967.96	211.33
968.26	211.34
968.55	211.34
968.85	211.41
969.14	211.43
969.43	211.45
969.73	211.43
970.02	211.32
970.32	211.28
970.61	211.24
970.91	211.12
971.20	211.06
971.49	211.07
971.79	211.17
972.08	210.87
972.38	210.85
972.67	210.88
972.96	210.95
973.26	210.94
973.55	210.98
973.85	211.03
974.14	210.96
974.43	210.98
974.73	210.99
975.02	210.96
975.31	211.02
975.61	211.00
975.90	211.07
976.19	211.06
976.49	211.14
976.78	211.23
977.07	211.27
977.37	211.34
977.66	211.39
977.95	211.37
978.24	211.41
978.54	211.58
978.83	211.51
979.12	211.45
979.42	211.45
979.71	211.43
980.00	211.39
980.29	211.34
980.59	211.29
980.88	211.30
981.17	211.28
981.46	211.25
981.76	211.22
982.05	211.28
982.34	211.35
982.63	211.28
982.93	211.25
983.22	211.43
983.51	211.40
983.80	211.41
984.09	211.38
984.39	211.33
984.68	211.23
984.97	211.35
985.26	211.28
985.55	211.32
985.85	211.18
986.14	211.29
986.43	211.32
986.72	211.31
987.01	211.20
987.30	211.25
987.59	211.19
987.89	211.21
988.18	211.09
988.47	211.02
988.76	211.02
989.05	211.04
989.34	210.88
989.63	210.96
989.92	210.90
990.22	210.85
990.51	210.85
990.80	210.86
991.09	210.78
991.38	210.87
991.67	210.84
991.96	210.90
992.25	210.83
992.54	210.85
992.83	210.87
993.12	210.86
993.41	210.83
993.70	210.95
993.99	211.04
994.28	211.07
994.58	211.11
994.87	211.06
995.16	211.01
995.45	210.99
995.74	210.92
996.03	211.01
996.32	211.06
996.61	211.18
996.90	211.15
997.19	211.14
997.48	211.16
997.77	211.10
998.06	211.12
998.34	211.09
998.63	211.12
998.92	211.10
999.21	211.12
999.50	211.17
999.79	211.10
1000.08	211.11
1000.37	211.13
1000.66	211.14
1000.95	211.22
1001.24	211.28
1001.53	211.34
1001.82	211.34
1002.11	211.25
1002.40	211.26
1002.68	211.28
1002.97	211.54
1003.26	211.57
1003.55	211.49
1003.84	211.59
1004.13	211.72
1004.42	211.73
1004.71	211.69
1004.99	211.72
1005.28	211.86
1005.57	211.84
1005.86	211.80
1006.15	211.73
1006.44	211.68
1006.72	211.64
1007.01	211.69
1007.30	211.60
1007.59	211.57
1007.88	211.53
1008.17	211.57
1008.45	211.52
1008.74	211.37
1009.03	211.24
1009.32	211.17
1009.60	211.13
1009.89	211.00
1010.18	210.80
1010.47	210.81
1010.76	210.80
1011.04	210.78
1011.33	210.79
1011.62	210.80
1011.91	210.77
1012.19	210.81
1012.48	210.80
1012.77	210.82
1013.05	210.86
1013.34	210.91
1013.63	210.92
1013.92	210.86
1014.20	210.82
1014.49	210.87
1014.78	210.91
1015.06	210.79
1015.35	210.75
1015.64	210.79
1015.92	210.88
1016.21	210.94
1016.50	210.89
1016.78	210.90
1017.07	210.97
1017.36	210.84
1017.64	210.78
1017.93	210.87
1018.22	210.76
1018.50	210.76
1018.79	210.81
1019.08	210.66
1019.36	210.66
1019.65	210.61
1019.93	210.78
1020.22	210.80
1020.51	210.95
1020.79	210.95
1021.08	209.20
1021.36	210.50
1021.65	212.00
1021.94	210.20
1022.22	210.50
1022.51	210.55
1022.79	212.90
1023.08	211.05
1023.36	214.65
1023.65	210.90
>>>>>End Processed Spectral Data<<<<<
