SpectraSuite Data File
++++++++++++++++++++++++++++++++++++
Date: Mon Feb 25 17:19:55 EST 2013
User: group
Dark Spectrum Present: No
Reference Spectrum Present: No
Number of Sampled Component Spectra: 1
Spectrometers: USB2E7196
Integration Time (usec): 104000 (USB2E7196)
Spectra Averaged: 20 (USB2E7196)
Boxcar Smoothing: 10 (USB2E7196)
Correct for Electrical Dark: No (USB2E7196)
Strobe/Lamp Enabled: No (USB2E7196)
Correct for Detector Non-linearity: No (USB2E7196)
Correct for Stray Light: No (USB2E7196)
Number of Pixels in Processed Spectrum: 2048
>>>>>Begin Processed Spectral Data<<<<<
339.09	0.00
339.48	197.85
339.86	198.60
340.24	201.50
340.63	201.80
341.01	209.10
341.39	204.25
341.78	206.60
342.16	207.60
342.54	208.25
342.93	197.80
343.31	207.83
343.69	208.41
344.07	208.95
344.46	209.38
344.84	209.87
345.22	209.99
345.60	210.39
345.99	210.66
346.37	210.86
346.75	211.03
347.13	211.19
347.52	211.33
347.90	211.52
348.28	211.61
348.66	211.78
349.05	211.75
349.43	211.85
349.81	211.98
350.19	212.09
350.57	212.30
350.96	212.46
351.34	212.62
351.72	212.74
352.10	212.94
352.48	213.06
352.87	213.17
353.25	213.22
353.63	213.25
354.01	213.30
354.39	213.39
354.77	213.46
355.15	213.56
355.54	213.58
355.92	213.54
356.30	213.67
356.68	213.95
357.06	214.02
357.44	214.08
357.82	214.17
358.20	214.31
358.58	214.28
358.97	214.38
359.35	214.48
359.73	214.64
360.11	214.67
360.49	214.79
360.87	214.84
361.25	215.02
361.63	215.24
362.01	215.30
362.39	215.35
362.77	215.47
363.15	215.50
363.53	215.57
363.91	215.70
364.29	215.68
364.67	215.42
365.05	215.50
365.43	215.54
365.81	215.60
366.19	215.69
366.57	215.89
366.95	215.80
367.33	215.80
367.71	215.85
368.09	215.93
368.47	215.97
368.85	215.86
369.23	215.86
369.61	215.65
369.99	215.84
370.37	215.92
370.75	216.09
371.13	216.05
371.51	216.02
371.89	215.93
372.27	215.92
372.65	215.89
373.03	215.84
373.41	215.79
373.78	215.66
374.16	215.52
374.54	215.32
374.92	215.39
375.30	215.25
375.68	215.08
376.06	214.97
376.44	214.85
376.82	214.88
377.19	214.80
377.57	214.79
377.95	214.65
378.33	214.51
378.71	214.23
379.09	214.29
379.47	214.26
379.84	214.23
380.22	214.18
380.60	214.06
380.98	214.01
381.36	213.96
381.73	213.85
382.11	213.85
382.49	213.80
382.87	213.68
383.25	213.66
383.62	214.04
384.00	213.94
384.38	213.84
384.76	213.87
385.13	214.01
385.51	214.01
385.89	213.84
386.27	213.81
386.64	213.85
387.02	213.70
387.40	213.69
387.78	213.62
388.15	213.63
388.53	213.71
388.91	213.66
389.29	213.58
389.66	213.67
390.04	213.56
390.42	213.61
390.79	213.54
391.17	213.51
391.55	213.11
391.92	213.15
392.30	213.20
392.68	213.12
393.05	212.99
393.43	212.93
393.81	212.95
394.18	212.96
394.56	212.90
394.94	213.01
395.31	213.03
395.69	213.15
396.06	213.11
396.44	213.12
396.82	213.13
397.19	213.39
397.57	213.36
397.95	213.49
398.32	213.47
398.70	213.62
399.07	213.76
399.45	213.82
399.82	213.90
400.20	213.97
400.58	214.02
400.95	213.92
401.33	214.06
401.70	214.32
402.08	214.45
402.45	214.58
402.83	214.70
403.20	214.73
403.58	214.82
403.95	215.00
404.33	215.15
404.71	215.35
405.08	215.64
405.46	215.86
405.83	216.05
406.21	216.27
406.58	216.51
406.96	216.67
407.33	216.93
407.70	217.17
408.08	217.67
408.45	217.97
408.83	218.40
409.20	218.79
409.58	219.00
409.95	219.43
410.33	219.90
410.70	220.24
411.08	220.79
411.45	221.33
411.82	221.86
412.20	222.54
412.57	223.35
412.95	223.74
413.32	224.46
413.69	225.15
414.07	225.93
414.44	226.70
414.82	227.62
415.19	228.69
415.56	229.78
415.94	230.78
416.31	232.12
416.68	233.40
417.06	234.75
417.43	236.25
417.81	237.80
418.18	239.41
418.55	241.19
418.93	242.94
419.30	244.80
419.67	246.75
420.04	248.73
420.42	250.78
420.79	253.39
421.16	255.91
421.54	258.61
421.91	261.33
422.28	264.13
422.66	267.04
423.03	270.01
423.40	273.02
423.77	276.22
424.15	279.37
424.52	282.75
424.89	286.48
425.26	289.98
425.64	293.35
426.01	296.96
426.38	300.79
426.75	304.79
427.13	308.85
427.50	313.13
427.87	317.59
428.24	322.07
428.61	326.11
428.99	330.80
429.36	335.72
429.73	340.53
430.10	345.49
430.47	350.59
430.85	355.67
431.22	361.10
431.59	367.03
431.96	372.66
432.33	378.85
432.70	384.77
433.08	391.77
433.45	398.29
433.82	404.91
434.19	412.24
434.56	419.39
434.93	426.31
435.30	433.10
435.68	440.59
436.05	448.01
436.42	455.62
436.79	462.44
437.16	469.78
437.53	477.65
437.90	485.30
438.27	492.76
438.64	500.62
439.01	507.91
439.38	514.21
439.75	520.36
440.13	527.55
440.50	534.18
440.87	539.51
441.24	545.20
441.61	551.50
441.98	556.01
442.35	561.24
442.72	566.69
443.09	571.89
443.46	574.95
443.83	577.06
444.20	578.66
444.57	581.13
444.94	582.21
445.31	583.30
445.68	584.58
446.05	585.18
446.42	584.20
446.79	583.13
447.16	581.90
447.53	581.07
447.90	577.89
448.27	574.85
448.64	570.78
449.01	567.73
449.37	562.33
449.74	557.42
450.11	551.84
450.48	545.22
450.85	538.71
451.22	533.11
451.59	527.70
451.96	522.68
452.33	515.88
452.70	509.73
453.07	502.44
453.43	494.85
453.80	487.48
454.17	480.77
454.54	474.28
454.91	467.32
455.28	460.43
455.65	454.10
456.02	448.05
456.38	442.81
456.75	436.15
457.12	430.78
457.49	425.27
457.86	419.75
458.23	415.31
458.59	410.30
458.96	405.22
459.33	400.67
459.70	396.13
460.07	392.61
460.43	388.49
460.80	384.66
461.17	381.39
461.54	378.00
461.91	374.54
462.27	371.30
462.64	368.58
463.01	365.67
463.38	362.80
463.74	359.57
464.11	356.85
464.48	354.64
464.85	352.20
465.21	350.33
465.58	348.25
465.95	345.70
466.32	343.65
466.68	341.75
467.05	339.83
467.42	337.89
467.78	335.84
468.15	334.05
468.52	332.73
468.88	330.71
469.25	329.04
469.62	327.84
469.98	326.42
470.35	325.10
470.72	323.88
471.08	322.47
471.45	321.50
471.82	320.50
472.18	319.30
472.55	318.41
472.92	317.34
473.28	316.55
473.65	315.78
474.02	315.11
474.38	314.61
474.75	314.11
475.11	313.59
475.48	313.23
475.85	312.98
476.21	312.66
476.58	312.65
476.94	312.67
477.31	312.71
477.67	312.69
478.04	312.81
478.41	313.07
478.77	313.63
479.14	313.83
479.50	314.31
479.87	314.93
480.23	315.53
480.60	316.07
480.96	316.66
481.33	317.69
481.69	318.49
482.06	319.45
482.42	320.38
482.79	321.48
483.15	322.75
483.52	324.20
483.88	325.62
484.25	327.07
484.61	328.63
484.98	330.28
485.34	332.33
485.71	334.42
486.07	336.62
486.44	338.63
486.80	341.14
487.17	343.66
487.53	346.47
487.90	349.50
488.26	352.72
488.62	356.21
488.99	359.50
489.35	363.11
489.72	366.92
490.08	371.00
490.44	375.15
490.81	379.57
491.17	384.10
491.54	389.10
491.90	394.19
492.26	399.62
492.63	405.23
492.99	410.94
493.36	417.05
493.72	423.44
494.08	430.20
494.45	437.28
494.81	444.61
495.17	452.07
495.54	460.05
495.90	468.44
496.26	477.01
496.63	486.07
496.99	495.52
497.35	505.18
497.72	515.37
498.08	525.95
498.44	536.89
498.80	548.58
499.17	560.50
499.53	573.12
499.89	586.09
500.26	599.27
500.62	612.94
500.98	627.30
501.34	642.11
501.71	657.55
502.07	673.22
502.43	689.45
502.79	706.14
503.16	723.28
503.52	741.09
503.88	759.26
504.24	778.04
504.60	797.30
504.97	817.13
505.33	837.39
505.69	858.70
506.05	880.24
506.41	901.95
506.78	924.00
507.14	946.56
507.50	969.64
507.86	993.50
508.22	1018.05
508.59	1042.81
508.95	1068.25
509.31	1093.90
509.67	1120.28
510.03	1147.33
510.39	1175.24
510.75	1203.25
511.12	1231.50
511.48	1260.05
511.84	1289.02
512.20	1318.22
512.56	1348.43
512.92	1378.97
513.28	1409.64
513.64	1440.96
514.00	1471.93
514.37	1503.33
514.73	1535.29
515.09	1567.45
515.45	1599.38
515.81	1631.13
516.17	1663.57
516.53	1696.00
516.89	1728.46
517.25	1761.33
517.61	1793.96
517.97	1826.41
518.33	1858.81
518.69	1891.50
519.05	1924.85
519.41	1958.19
519.77	1991.54
520.13	2024.20
520.49	2056.59
520.85	2089.32
521.21	2121.90
521.57	2155.58
521.93	2187.94
522.29	2221.30
522.65	2254.33
523.01	2287.10
523.37	2319.54
523.73	2351.91
524.09	2384.27
524.45	2416.90
524.81	2448.99
525.17	2481.66
525.53	2513.81
525.89	2546.24
526.25	2577.75
526.61	2608.08
526.97	2638.84
527.33	2669.52
527.68	2700.17
528.04	2730.34
528.40	2759.12
528.76	2788.47
529.12	2817.78
529.48	2848.31
529.84	2876.81
530.20	2905.42
530.56	2934.02
530.91	2963.62
531.27	2992.23
531.63	3019.88
531.99	3047.31
532.35	3073.83
532.71	3099.49
533.07	3125.90
533.42	3150.84
533.78	3176.76
534.14	3202.21
534.50	3225.36
534.86	3249.88
535.21	3272.53
535.57	3296.62
535.93	3319.76
536.29	3342.15
536.65	3364.18
537.00	3384.57
537.36	3404.73
537.72	3424.12
538.08	3443.52
538.44	3462.59
538.79	3481.56
539.15	3500.29
539.51	3518.75
539.87	3537.86
540.22	3555.78
540.58	3574.22
540.94	3591.61
541.29	3606.92
541.65	3621.70
542.01	3637.73
542.37	3652.10
542.72	3667.29
543.08	3680.40
543.44	3695.43
543.79	3707.47
544.15	3718.74
544.51	3731.46
544.87	3744.25
545.22	3755.66
545.58	3765.98
545.94	3774.74
546.29	3782.40
546.65	3790.08
547.01	3797.68
547.36	3804.35
547.72	3811.15
548.07	3815.95
548.43	3821.58
548.79	3826.54
549.14	3831.77
549.50	3836.61
549.86	3839.89
550.21	3843.17
550.57	3847.02
550.92	3848.39
551.28	3851.00
551.64	3854.07
551.99	3856.36
552.35	3856.95
552.70	3858.60
553.06	3860.39
553.41	3861.53
553.77	3862.90
554.13	3863.58
554.48	3864.13
554.84	3864.39
555.19	3863.48
555.55	3862.03
555.90	3859.77
556.26	3858.34
556.61	3856.35
556.97	3853.35
557.32	3851.47
557.68	3848.34
558.03	3844.79
558.39	3841.77
558.74	3839.74
559.10	3836.44
559.45	3832.15
559.81	3829.60
560.16	3824.74
560.52	3820.76
560.87	3816.30
561.23	3810.45
561.58	3806.12
561.94	3799.76
562.29	3792.94
562.64	3787.85
563.00	3783.09
563.35	3778.92
563.71	3774.90
564.06	3769.88
564.42	3765.35
564.77	3760.71
565.12	3756.09
565.48	3750.93
565.83	3745.72
566.19	3740.60
566.54	3733.59
566.89	3726.78
567.25	3719.85
567.60	3714.02
567.96	3706.81
568.31	3700.26
568.66	3693.81
569.02	3685.57
569.37	3677.30
569.72	3670.19
570.08	3661.94
570.43	3653.02
570.78	3643.61
571.14	3632.96
571.49	3623.63
571.84	3614.79
572.20	3604.16
572.55	3594.37
572.90	3583.35
573.26	3571.72
573.61	3559.97
573.96	3549.16
574.31	3537.68
574.67	3525.01
575.02	3511.97
575.37	3499.61
575.72	3486.53
576.08	3475.04
576.43	3462.30
576.78	3451.09
577.13	3439.60
577.49	3427.90
577.84	3415.81
578.19	3404.76
578.54	3394.71
578.90	3384.04
579.25	3371.30
579.60	3358.28
579.95	3345.34
580.30	3333.49
580.66	3322.37
581.01	3309.95
581.36	3297.05
581.71	3284.75
582.06	3272.84
582.42	3261.11
582.77	3248.07
583.12	3235.32
583.47	3223.61
583.82	3212.61
584.17	3200.27
584.53	3188.11
584.88	3175.46
585.23	3163.10
585.58	3150.23
585.93	3136.61
586.28	3123.74
586.63	3111.44
586.98	3099.81
587.34	3088.12
587.69	3076.28
588.04	3063.75
588.39	3051.65
588.74	3039.21
589.09	3027.80
589.44	3015.32
589.79	3003.84
590.14	2993.09
590.49	2981.64
590.84	2969.32
591.19	2958.35
591.54	2946.59
591.89	2932.81
592.25	2920.57
592.60	2907.72
592.95	2894.61
593.30	2881.05
593.65	2867.39
594.00	2854.44
594.35	2843.55
594.70	2831.20
595.05	2819.25
595.40	2807.61
595.75	2794.47
596.10	2783.46
596.45	2771.80
596.80	2761.02
597.15	2749.82
597.50	2737.70
597.85	2726.56
598.19	2714.45
598.54	2702.29
598.89	2690.86
599.24	2681.54
599.59	2670.70
599.94	2661.15
600.29	2651.13
600.64	2641.15
600.99	2629.99
601.34	2620.00
601.69	2607.84
602.04	2596.17
602.39	2584.82
602.74	2573.96
603.08	2564.58
603.43	2554.79
603.78	2543.47
604.13	2532.75
604.48	2521.90
604.83	2513.16
605.18	2504.01
605.53	2493.56
605.87	2482.79
606.22	2473.10
606.57	2462.20
606.92	2451.69
607.27	2440.36
607.62	2429.33
607.96	2419.57
608.31	2410.81
608.66	2399.55
609.01	2388.60
609.36	2377.69
609.70	2366.31
610.05	2354.65
610.40	2343.06
610.75	2330.79
611.10	2320.44
611.44	2307.57
611.79	2295.15
612.14	2281.34
612.49	2267.45
612.83	2255.41
613.18	2242.57
613.53	2229.44
613.88	2216.03
614.22	2203.62
614.57	2191.31
614.92	2178.83
615.27	2165.80
615.61	2152.70
615.96	2140.84
616.31	2129.77
616.65	2119.25
617.00	2108.02
617.35	2096.52
617.70	2084.52
618.04	2072.00
618.39	2058.91
618.74	2047.69
619.08	2035.85
619.43	2024.27
619.78	2013.16
620.12	2001.74
620.47	1990.78
620.82	1979.06
621.16	1967.08
621.51	1954.84
621.85	1943.36
622.20	1931.51
622.55	1919.92
622.89	1908.16
623.24	1896.41
623.59	1883.84
623.93	1871.55
624.28	1860.11
624.62	1848.49
624.97	1837.10
625.32	1826.52
625.66	1816.03
626.01	1805.06
626.35	1794.39
626.70	1783.59
627.04	1773.31
627.39	1762.37
627.73	1751.65
628.08	1741.28
628.43	1730.99
628.77	1720.55
629.12	1709.59
629.46	1699.98
629.81	1689.65
630.15	1679.53
630.50	1669.16
630.84	1658.70
631.19	1648.24
631.53	1637.76
631.88	1626.98
632.22	1616.27
632.57	1606.20
632.91	1595.76
633.26	1585.63
633.60	1575.54
633.95	1566.10
634.29	1555.62
634.64	1546.00
634.98	1535.33
635.32	1525.91
635.67	1516.75
636.01	1507.37
636.36	1497.52
636.70	1487.64
637.05	1478.16
637.39	1468.65
637.73	1459.61
638.08	1451.35
638.42	1442.88
638.77	1433.96
639.11	1425.29
639.45	1416.30
639.80	1406.55
640.14	1396.78
640.49	1387.18
640.83	1377.85
641.17	1368.20
641.52	1358.94
641.86	1349.19
642.20	1340.16
642.55	1329.99
642.89	1320.09
643.23	1310.49
643.58	1301.93
643.92	1292.29
644.26	1283.11
644.61	1273.89
644.95	1264.47
645.29	1254.79
645.64	1245.07
645.98	1235.86
646.32	1226.93
646.66	1217.93
647.01	1209.32
647.35	1201.11
647.69	1191.99
648.04	1183.05
648.38	1173.99
648.72	1165.12
649.06	1156.28
649.41	1147.68
649.75	1138.92
650.09	1130.55
650.43	1121.93
650.78	1112.60
651.12	1103.89
651.46	1095.20
651.80	1086.91
652.14	1078.44
652.49	1069.98
652.83	1061.42
653.17	1052.21
653.51	1043.47
653.85	1035.31
654.20	1026.82
654.54	1017.98
654.88	1009.84
655.22	1001.44
655.56	993.28
655.90	985.03
656.25	976.95
656.59	968.84
656.93	961.26
657.27	953.41
657.61	945.38
657.95	937.79
658.29	930.29
658.64	922.82
658.98	914.88
659.32	907.06
659.66	899.42
660.00	891.77
660.34	884.67
660.68	876.98
661.02	869.18
661.36	861.77
661.70	854.78
662.05	848.01
662.39	841.49
662.73	834.85
663.07	828.34
663.41	821.75
663.75	815.12
664.09	808.18
664.43	801.32
664.77	795.06
665.11	788.57
665.45	782.41
665.79	776.01
666.13	769.80
666.47	763.67
666.81	757.62
667.15	751.69
667.49	746.14
667.83	740.65
668.17	735.06
668.51	729.69
668.85	724.23
669.19	718.72
669.53	713.18
669.87	707.40
670.21	701.93
670.55	696.56
670.89	691.58
671.23	686.89
671.57	682.01
671.91	676.77
672.25	671.78
672.58	666.69
672.92	661.69
673.26	656.93
673.60	652.14
673.94	647.36
674.28	642.67
674.62	638.00
674.96	633.30
675.30	628.89
675.64	624.31
675.97	619.87
676.31	615.63
676.65	611.41
676.99	607.65
677.33	603.22
677.67	599.07
678.01	594.58
678.34	590.19
678.68	585.93
679.02	581.75
679.36	577.79
679.70	573.68
680.04	569.75
680.37	565.61
680.71	561.82
681.05	558.16
681.39	554.36
681.73	550.34
682.06	546.80
682.40	543.13
682.74	539.39
683.08	535.73
683.42	531.79
683.75	527.86
684.09	523.96
684.43	520.42
684.77	516.61
685.10	513.09
685.44	509.51
685.78	506.15
686.12	502.95
686.45	499.55
686.79	496.20
687.13	493.05
687.46	489.94
687.80	486.79
688.14	483.41
688.48	480.25
688.81	477.04
689.15	473.75
689.49	470.48
689.82	467.33
690.16	463.89
690.50	460.75
690.83	457.76
691.17	454.54
691.51	451.46
691.84	448.67
692.18	445.89
692.52	443.20
692.85	440.50
693.19	437.76
693.52	434.91
693.86	432.16
694.20	429.27
694.53	426.58
694.87	423.70
695.21	420.97
695.54	418.21
695.88	415.52
696.21	412.88
696.55	410.59
696.88	408.20
697.22	405.83
697.56	403.59
697.89	401.10
698.23	398.75
698.56	396.40
698.90	394.20
699.23	391.76
699.57	389.39
699.90	387.01
700.24	384.75
700.58	382.45
700.91	380.38
701.25	378.55
701.58	376.37
701.92	374.41
702.25	372.35
702.59	370.38
702.92	368.43
703.26	366.46
703.59	364.44
703.93	362.76
704.26	360.94
704.60	359.10
704.93	357.32
705.26	355.59
705.60	353.82
705.93	351.99
706.27	350.40
706.60	348.77
706.94	347.34
707.27	345.57
707.61	343.94
707.94	342.17
708.27	340.24
708.61	338.62
708.94	336.91
709.28	335.47
709.61	333.96
709.94	332.53
710.28	331.12
710.61	329.66
710.95	327.82
711.28	326.51
711.61	325.03
711.95	323.69
712.28	322.28
712.61	321.06
712.95	319.84
713.28	318.69
713.61	317.29
713.95	315.79
714.28	314.70
714.61	313.49
714.95	312.32
715.28	311.07
715.61	309.83
715.95	308.74
716.28	307.40
716.61	306.25
716.95	305.01
717.28	303.87
717.61	302.79
717.94	301.77
718.28	300.52
718.61	299.43
718.94	298.34
719.27	297.31
719.61	296.25
719.94	295.13
720.27	293.83
720.60	292.92
720.94	292.01
721.27	290.95
721.60	290.09
721.93	289.14
722.27	288.33
722.60	287.47
722.93	286.60
723.26	285.86
723.59	284.93
723.93	284.21
724.26	283.35
724.59	282.43
724.92	281.74
725.25	281.09
725.59	280.34
725.92	279.59
726.25	278.79
726.58	278.00
726.91	277.20
727.24	276.59
727.57	275.84
727.91	274.95
728.24	274.27
728.57	273.56
728.90	272.94
729.23	272.16
729.56	271.58
729.89	270.75
730.22	269.96
730.55	269.41
730.89	268.63
731.22	267.94
731.55	267.28
731.88	266.61
732.21	265.83
732.54	265.08
732.87	264.50
733.20	263.99
733.53	263.52
733.86	262.97
734.19	262.29
734.52	261.71
734.85	261.49
735.18	260.92
735.51	260.45
735.84	259.88
736.17	259.45
736.50	258.85
736.83	258.84
737.16	258.37
737.49	257.73
737.82	257.20
738.15	256.74
738.48	256.31
738.81	255.75
739.14	255.26
739.47	254.80
739.80	254.27
740.13	253.77
740.46	253.20
740.79	252.58
741.12	252.13
741.45	251.56
741.78	250.86
742.11	250.51
742.44	249.95
742.77	249.60
743.10	249.02
743.43	248.50
743.75	247.67
744.08	247.65
744.41	247.21
744.74	246.87
745.07	246.39
745.40	246.04
745.73	245.82
746.06	245.47
746.39	245.12
746.71	244.67
747.04	244.25
747.37	243.76
747.70	243.49
748.03	243.15
748.36	242.89
748.68	242.56
749.01	242.07
749.34	241.76
749.67	241.32
750.00	241.15
750.33	241.06
750.65	240.80
750.98	240.05
751.31	239.74
751.64	239.42
751.97	239.30
752.29	238.90
752.62	238.42
752.95	238.09
753.28	237.72
753.60	237.50
753.93	237.29
754.26	237.04
754.59	236.71
754.91	236.37
755.24	236.03
755.57	235.72
755.90	235.45
756.22	235.11
756.55	234.86
756.88	234.41
757.20	233.88
757.53	233.48
757.86	233.18
758.19	232.96
758.51	232.68
758.84	232.25
759.17	231.93
759.49	231.65
759.82	231.49
760.15	231.30
760.47	231.00
760.80	230.64
761.13	230.50
761.45	230.26
761.78	230.05
762.11	229.88
762.43	229.55
762.76	229.30
763.08	229.11
763.41	228.89
763.74	228.73
764.06	228.58
764.39	228.37
764.71	228.17
765.04	227.90
765.37	227.65
765.69	227.45
766.02	227.29
766.34	227.10
766.67	226.85
767.00	226.71
767.32	226.71
767.65	226.70
767.97	226.49
768.30	226.28
768.62	226.10
768.95	225.88
769.27	225.75
769.60	225.65
769.92	225.38
770.25	225.16
770.57	224.97
770.90	224.84
771.22	224.64
771.55	224.57
771.87	224.48
772.20	224.43
772.52	224.63
772.85	224.97
773.17	224.88
773.50	224.73
773.82	224.55
774.15	224.28
774.47	223.95
774.80	223.76
775.12	223.61
775.45	223.48
775.77	223.40
776.09	223.37
776.42	223.23
776.74	223.28
777.07	223.20
777.39	223.13
777.72	222.95
778.04	222.89
778.36	222.69
778.69	222.64
779.01	222.49
779.33	222.03
779.66	221.50
779.98	221.40
780.31	221.28
780.63	221.32
780.95	221.25
781.28	221.23
781.60	221.17
781.92	221.14
782.25	221.08
782.57	221.00
782.89	220.84
783.22	220.70
783.54	220.60
783.86	220.52
784.19	220.36
784.51	220.40
784.83	220.28
785.16	220.21
785.48	220.08
785.80	219.98
786.12	219.90
786.45	219.82
786.77	219.73
787.09	219.61
787.42	219.41
787.74	219.32
788.06	219.21
788.38	219.11
788.71	219.02
789.03	218.91
789.35	218.84
789.67	218.76
789.99	218.70
790.32	218.47
790.64	218.37
790.96	218.68
791.28	218.46
791.61	218.33
791.93	218.30
792.25	218.19
792.57	218.39
792.89	218.36
793.21	218.29
793.54	218.19
793.86	218.12
794.18	218.07
794.50	217.95
794.82	217.87
795.14	217.89
795.47	217.93
795.79	217.94
796.11	217.79
796.43	217.65
796.75	217.65
797.07	217.68
797.39	217.63
797.71	217.31
798.04	217.35
798.36	217.33
798.68	217.23
799.00	217.18
799.32	216.93
799.64	216.90
799.96	216.90
800.28	216.90
800.60	216.86
800.92	216.78
801.24	216.68
801.56	216.64
801.89	216.50
802.21	216.43
802.53	216.20
802.85	216.27
803.17	216.48
803.49	216.42
803.81	216.31
804.13	216.25
804.45	216.14
804.77	216.05
805.09	216.08
805.41	216.09
805.73	216.03
806.05	215.87
806.37	215.80
806.69	215.73
807.01	215.66
807.33	215.58
807.65	215.46
807.97	215.65
808.28	215.67
808.60	215.61
808.92	215.53
809.24	215.79
809.56	215.73
809.88	215.53
810.20	215.49
810.52	215.56
810.84	215.52
811.16	215.50
811.48	215.49
811.80	215.54
812.12	215.47
812.43	215.56
812.75	215.58
813.07	215.51
813.39	215.50
813.71	215.45
814.03	215.38
814.35	215.35
814.67	215.12
814.98	215.03
815.30	215.00
815.62	214.90
815.94	214.62
816.26	214.54
816.58	214.39
816.89	214.33
817.21	214.19
817.53	214.14
817.85	214.13
818.17	214.10
818.48	214.01
818.80	214.06
819.12	213.92
819.44	213.85
819.76	213.83
820.07	213.72
820.39	213.68
820.71	213.73
821.03	213.74
821.34	213.64
821.66	213.62
821.98	213.67
822.30	213.69
822.61	213.91
822.93	213.89
823.25	213.89
823.57	213.84
823.88	213.93
824.20	213.98
824.52	213.99
824.83	213.96
825.15	213.86
825.47	213.82
825.79	213.85
826.10	213.83
826.42	213.84
826.74	213.87
827.05	213.84
827.37	213.85
827.69	213.82
828.00	213.93
828.32	213.88
828.64	213.79
828.95	213.90
829.27	213.73
829.58	213.65
829.90	213.72
830.22	213.74
830.53	213.66
830.85	213.57
831.17	213.47
831.48	213.44
831.80	213.44
832.11	213.39
832.43	213.24
832.75	213.28
833.06	213.41
833.38	213.31
833.69	213.24
834.01	213.24
834.32	213.25
834.64	213.14
834.96	213.22
835.27	213.23
835.59	213.15
835.90	213.09
836.22	213.12
836.53	213.05
836.85	212.97
837.16	213.26
837.48	213.31
837.79	213.45
838.11	213.52
838.42	213.48
838.74	213.53
839.05	213.55
839.37	213.51
839.68	213.32
840.00	213.31
840.31	213.39
840.63	213.33
840.94	213.20
841.26	213.23
841.57	213.19
841.88	213.23
842.20	213.18
842.51	213.21
842.83	213.26
843.14	213.57
843.46	213.55
843.77	213.36
844.08	213.29
844.40	213.20
844.71	213.10
845.03	213.13
845.34	213.08
845.65	213.07
845.97	213.08
846.28	213.09
846.60	213.09
846.91	213.01
847.22	212.99
847.54	213.14
847.85	213.17
848.16	213.14
848.48	213.16
848.79	213.28
849.10	213.31
849.42	213.25
849.73	213.03
850.04	213.08
850.36	213.05
850.67	213.11
850.98	213.12
851.30	213.11
851.61	213.14
851.92	213.14
852.23	213.27
852.55	213.26
852.86	213.20
853.17	213.29
853.49	213.40
853.80	213.50
854.11	213.54
854.42	213.54
854.74	213.50
855.05	213.42
855.36	213.26
855.67	213.22
855.99	213.18
856.30	213.53
856.61	213.53
856.92	213.47
857.23	213.47
857.55	213.46
857.86	213.41
858.17	213.41
858.48	213.35
858.79	213.26
859.11	213.31
859.42	213.30
859.73	213.30
860.04	213.28
860.35	213.16
860.66	213.05
860.98	213.02
861.29	213.02
861.60	212.98
861.91	213.03
862.22	212.93
862.53	212.89
862.84	212.47
863.16	212.54
863.47	212.48
863.78	212.42
864.09	212.37
864.40	212.49
864.71	212.45
865.02	212.49
865.33	212.43
865.64	212.32
865.95	212.32
866.27	212.45
866.58	212.37
866.89	212.39
867.20	212.40
867.51	212.40
867.82	212.39
868.13	212.49
868.44	212.34
868.75	212.45
869.06	212.47
869.37	212.46
869.68	212.30
869.99	212.35
870.30	212.36
870.61	212.40
870.92	212.30
871.23	212.16
871.54	212.14
871.85	212.24
872.16	212.33
872.47	212.34
872.78	212.14
873.09	212.25
873.40	212.18
873.71	212.17
874.02	212.19
874.33	212.11
874.64	212.03
874.95	212.20
875.26	212.10
875.56	212.13
875.87	212.10
876.18	212.13
876.49	212.41
876.80	212.38
877.11	212.32
877.42	212.35
877.73	212.40
878.04	212.37
878.35	212.38
878.66	212.33
878.96	212.31
879.27	212.32
879.58	212.22
879.89	212.27
880.20	212.38
880.51	212.32
880.82	212.38
881.12	212.31
881.43	212.15
881.74	212.20
882.05	212.18
882.36	212.24
882.67	212.25
882.97	211.89
883.28	211.85
883.59	211.83
883.90	211.85
884.21	211.96
884.51	211.92
884.82	211.87
885.13	211.94
885.44	211.91
885.74	211.88
886.05	211.84
886.36	211.82
886.67	211.69
886.98	211.81
887.28	211.82
887.59	211.90
887.90	212.03
888.20	212.01
888.51	212.14
888.82	212.12
889.13	212.13
889.43	212.40
889.74	212.38
890.05	212.40
890.35	212.42
890.66	212.39
890.97	212.40
891.28	212.35
891.58	212.36
891.89	212.35
892.20	212.26
892.50	212.21
892.81	212.14
893.12	212.10
893.42	211.93
893.73	211.96
894.04	211.93
894.34	211.90
894.65	211.86
894.95	211.75
895.26	211.70
895.57	211.90
895.87	211.56
896.18	211.64
896.48	211.65
896.79	211.56
897.10	211.55
897.40	211.55
897.71	211.60
898.01	211.53
898.32	211.60
898.63	211.64
898.93	211.72
899.24	211.79
899.54	211.80
899.85	211.82
900.15	211.84
900.46	211.87
900.76	211.86
901.07	211.82
901.38	211.80
901.68	211.86
901.99	211.56
902.29	211.67
902.60	211.65
902.90	211.62
903.21	211.60
903.51	211.63
903.82	211.70
904.12	211.73
904.43	211.79
904.73	211.76
905.03	211.79
905.34	212.13
905.64	212.15
905.95	212.21
906.25	212.26
906.56	212.29
906.86	212.26
907.17	212.29
907.47	212.37
907.77	212.33
908.08	212.25
908.38	212.34
908.69	212.30
908.99	212.32
909.30	212.37
909.60	212.41
909.90	212.43
910.21	212.32
910.51	212.26
910.81	212.30
911.12	212.31
911.42	212.35
911.73	212.04
912.03	212.02
912.33	212.01
912.64	212.00
912.94	211.98
913.24	211.94
913.55	211.93
913.85	211.80
914.15	211.88
914.46	211.97
914.76	211.97
915.06	211.92
915.37	211.88
915.67	211.89
915.97	211.86
916.27	211.75
916.58	211.83
916.88	211.78
917.18	211.64
917.49	211.75
917.79	211.72
918.09	211.73
918.39	211.74
918.70	211.76
919.00	211.75
919.30	211.83
919.60	211.82
919.91	211.70
920.21	211.83
920.51	211.79
920.81	211.72
921.12	211.77
921.42	211.82
921.72	211.85
922.02	211.81
922.32	211.87
922.63	211.86
922.93	211.96
923.23	212.09
923.53	212.10
923.83	211.95
924.13	212.00
924.44	211.90
924.74	212.04
925.04	212.07
925.34	212.02
925.64	211.89
925.94	211.96
926.24	212.16
926.55	212.11
926.85	212.13
927.15	212.11
927.45	212.11
927.75	212.11
928.05	212.06
928.35	212.01
928.65	212.09
928.95	212.16
929.26	212.00
929.56	212.00
929.86	212.01
930.16	212.04
930.46	212.00
930.76	212.08
931.06	211.85
931.36	211.80
931.66	211.84
931.96	211.88
932.26	211.76
932.56	211.63
932.86	211.61
933.16	211.62
933.46	211.53
933.76	211.51
934.06	211.53
934.36	211.74
934.66	211.75
934.96	211.69
935.26	211.69
935.56	211.74
935.86	211.62
936.16	211.56
936.46	211.51
936.76	211.43
937.06	211.31
937.36	211.42
937.66	211.39
937.96	211.39
938.26	211.30
938.56	211.35
938.86	211.35
939.16	211.43
939.46	211.50
939.76	211.61
940.06	211.54
940.35	211.53
940.65	211.30
940.95	211.38
941.25	211.33
941.55	211.31
941.85	211.34
942.15	211.43
942.45	211.55
942.75	211.51
943.04	211.55
943.34	211.66
943.64	211.58
943.94	211.60
944.24	211.65
944.54	211.72
944.84	211.71
945.13	211.68
945.43	211.64
945.73	211.55
946.03	211.52
946.33	211.56
946.62	211.52
946.92	211.56
947.22	211.54
947.52	211.52
947.82	211.56
948.11	211.50
948.41	211.42
948.71	211.36
949.01	211.45
949.31	211.39
949.60	211.36
949.90	211.45
950.20	211.45
950.50	211.41
950.79	211.36
951.09	211.37
951.39	211.38
951.69	211.39
951.98	211.46
952.28	211.50
952.58	211.46
952.87	211.49
953.17	211.54
953.47	211.52
953.76	211.53
954.06	211.43
954.36	211.38
954.66	211.36
954.95	211.41
955.25	211.40
955.55	211.45
955.84	211.41
956.14	211.42
956.44	211.46
956.73	211.42
957.03	211.45
957.32	211.50
957.62	211.50
957.92	211.58
958.21	211.54
958.51	212.01
958.81	212.00
959.10	212.04
959.40	212.08
959.69	212.09
959.99	212.13
960.29	212.18
960.58	212.21
960.88	212.41
961.17	212.39
961.47	212.42
961.76	212.48
962.06	212.56
962.36	212.56
962.65	212.47
962.95	212.46
963.24	212.47
963.54	212.50
963.83	212.49
964.13	212.40
964.42	212.30
964.72	211.95
965.01	212.00
965.31	212.00
965.60	211.85
965.90	211.98
966.19	211.89
966.49	211.89
966.78	211.89
967.08	211.83
967.37	211.89
967.67	211.82
967.96	211.82
968.26	211.82
968.55	211.86
968.85	211.91
969.14	211.90
969.43	211.89
969.73	211.84
970.02	211.78
970.32	211.76
970.61	211.75
970.91	211.67
971.20	211.68
971.49	211.62
971.79	211.69
972.08	211.53
972.38	211.60
972.67	211.60
972.96	211.65
973.26	211.56
973.55	211.57
973.85	211.56
974.14	211.53
974.43	211.54
974.73	211.42
975.02	211.37
975.31	211.38
975.61	211.39
975.90	211.35
976.19	211.37
976.49	211.41
976.78	211.46
977.07	211.42
977.37	211.35
977.66	211.37
977.95	211.32
978.24	211.29
978.54	211.34
978.83	211.25
979.12	211.22
979.42	211.24
979.71	211.17
980.00	211.12
980.29	211.17
980.59	211.07
980.88	211.15
981.17	211.16
981.46	211.14
981.76	211.07
982.05	211.20
982.34	211.19
982.63	211.17
982.93	211.12
983.22	211.20
983.51	211.23
983.80	211.28
984.09	211.34
984.39	211.31
984.68	211.28
984.97	211.31
985.26	211.20
985.55	211.17
985.85	211.09
986.14	211.17
986.43	211.13
986.72	211.13
987.01	211.08
987.30	211.08
987.59	211.09
987.89	211.12
988.18	210.99
988.47	210.95
988.76	210.93
989.05	210.94
989.34	210.90
989.63	210.98
989.92	210.92
990.22	210.85
990.51	210.81
990.80	210.71
991.09	210.77
991.38	210.85
991.67	210.85
991.96	210.86
992.25	210.86
992.54	210.84
992.83	210.86
993.12	210.86
993.41	210.90
993.70	211.04
993.99	211.10
994.28	211.13
994.58	211.23
994.87	211.21
995.16	211.14
995.45	211.10
995.74	210.95
996.03	211.02
996.32	211.10
996.61	211.26
996.90	211.30
997.19	211.30
997.48	211.30
997.77	211.29
998.06	211.37
998.34	211.35
998.63	211.29
998.92	211.29
999.21	211.33
999.50	211.33
999.79	211.24
1000.08	211.22
1000.37	211.25
1000.66	211.20
1000.95	211.31
1001.24	211.45
1001.53	211.53
1001.82	211.56
1002.11	211.50
1002.40	211.50
1002.68	211.60
1002.97	211.87
1003.26	211.82
1003.55	211.79
1003.84	211.78
1004.13	211.87
1004.42	211.89
1004.71	211.91
1004.99	211.89
1005.28	211.97
1005.57	211.96
1005.86	211.88
1006.15	211.86
1006.44	211.79
1006.72	211.78
1007.01	211.77
1007.30	211.72
1007.59	211.64
1007.88	211.61
1008.17	211.58
1008.45	211.50
1008.74	211.31
1009.03	211.09
1009.32	211.11
1009.60	211.15
1009.89	211.13
1010.18	210.94
1010.47	210.85
1010.76	210.86
1011.04	210.85
1011.33	210.81
1011.62	210.78
1011.91	210.83
1012.19	210.81
1012.48	210.83
1012.77	210.85
1013.05	210.86
1013.34	210.80
1013.63	210.75
1013.92	210.82
1014.20	210.84
1014.49	210.93
1014.78	210.99
1015.06	210.87
1015.35	210.86
1015.64	210.87
1015.92	210.93
1016.21	210.95
1016.50	210.98
1016.78	211.04
1017.07	211.02
1017.36	210.96
1017.64	210.97
1017.93	210.96
1018.22	210.94
1018.50	210.94
1018.79	210.92
1019.08	210.82
1019.36	210.87
1019.65	210.94
1019.93	211.00
1020.22	211.03
1020.51	211.17
1020.79	211.10
1021.08	210.40
1021.36	210.50
1021.65	210.40
1021.94	210.65
1022.22	210.90
1022.51	211.25
1022.79	212.40
1023.08	212.00
1023.36	215.60
1023.65	210.00
>>>>>End Processed Spectral Data<<<<<
