SpectraSuite Data File
++++++++++++++++++++++++++++++++++++
Date: Mon Feb 25 17:01:03 EST 2013
User: group
Dark Spectrum Present: No
Reference Spectrum Present: No
Number of Sampled Component Spectra: 1
Spectrometers: USB2E7196
Integration Time (usec): 104000 (USB2E7196)
Spectra Averaged: 20 (USB2E7196)
Boxcar Smoothing: 10 (USB2E7196)
Correct for Electrical Dark: No (USB2E7196)
Strobe/Lamp Enabled: No (USB2E7196)
Correct for Detector Non-linearity: No (USB2E7196)
Correct for Stray Light: No (USB2E7196)
Number of Pixels in Processed Spectrum: 2048
>>>>>Begin Processed Spectral Data<<<<<
339.09	0.00
339.48	197.90
339.86	199.90
340.24	200.10
340.63	203.00
341.01	209.25
341.39	206.10
341.78	208.35
342.16	209.25
342.54	207.85
342.93	197.95
343.31	207.97
343.69	208.51
344.07	208.93
344.46	209.48
344.84	209.81
345.22	209.90
345.60	210.11
345.99	210.21
346.37	210.33
346.75	210.43
347.13	210.39
347.52	210.46
347.90	210.63
348.28	210.69
348.66	210.85
349.05	210.83
349.43	210.89
349.81	210.93
350.19	211.02
350.57	211.05
350.96	211.18
351.34	211.21
351.72	211.34
352.10	211.51
352.48	211.53
352.87	211.57
353.25	211.64
353.63	211.70
354.01	211.74
354.39	211.78
354.77	211.84
355.15	212.08
355.54	212.13
355.92	212.00
356.30	212.10
356.68	212.33
357.06	212.39
357.44	212.39
357.82	212.45
358.20	212.54
358.58	212.61
358.97	212.65
359.35	212.82
359.73	212.92
360.11	212.94
360.49	212.98
360.87	213.06
361.25	213.11
361.63	213.31
362.01	213.40
362.39	213.40
362.77	213.51
363.15	213.47
363.53	213.52
363.91	213.60
364.29	213.58
364.67	213.30
365.05	213.36
365.43	213.44
365.81	213.49
366.19	213.63
366.57	213.77
366.95	213.71
367.33	213.61
367.71	213.68
368.09	213.72
368.47	213.69
368.85	213.68
369.23	213.76
369.61	213.62
369.99	213.73
370.37	213.75
370.75	213.83
371.13	213.76
371.51	213.63
371.89	213.70
372.27	213.69
372.65	213.65
373.03	213.61
373.41	213.48
373.78	213.45
374.16	213.26
374.54	213.09
374.92	213.05
375.30	213.06
375.68	212.88
376.06	212.81
376.44	212.78
376.82	212.78
377.19	212.71
377.57	212.62
377.95	212.44
378.33	212.40
378.71	212.16
379.09	212.19
379.47	212.18
379.84	212.07
380.22	211.99
380.60	211.96
380.98	211.89
381.36	211.87
381.73	211.83
382.11	211.81
382.49	211.73
382.87	211.64
383.25	211.52
383.62	211.86
384.00	211.77
384.38	211.77
384.76	211.77
385.13	211.81
385.51	211.74
385.89	211.65
386.27	211.60
386.64	211.62
387.02	211.59
387.40	211.53
387.78	211.50
388.15	211.45
388.53	211.35
388.91	211.34
389.29	211.28
389.66	211.24
390.04	211.15
390.42	211.29
390.79	211.27
391.17	211.31
391.55	210.89
391.92	210.91
392.30	210.91
392.68	210.83
393.05	210.81
393.43	210.89
393.81	210.91
394.18	210.79
394.56	210.80
394.94	210.81
395.31	210.80
395.69	210.85
396.06	210.87
396.44	210.92
396.82	210.84
397.19	211.03
397.57	210.98
397.95	211.07
398.32	210.89
398.70	210.92
399.07	210.92
399.45	210.96
399.82	210.97
400.20	210.94
400.58	210.99
400.95	210.85
401.33	210.90
401.70	211.20
402.08	211.31
402.45	211.40
402.83	211.54
403.20	211.67
403.58	211.76
403.95	211.95
404.33	212.12
404.71	212.28
405.08	212.59
405.46	212.74
405.83	212.86
406.21	213.05
406.58	213.25
406.96	213.42
407.33	213.65
407.70	213.94
408.08	214.42
408.45	214.78
408.83	215.19
409.20	215.50
409.58	215.60
409.95	216.08
410.33	216.48
410.70	216.75
411.08	217.20
411.45	217.73
411.82	218.19
412.20	218.87
412.57	219.70
412.95	220.04
413.32	220.85
413.69	221.68
414.07	222.55
414.44	223.46
414.82	224.41
415.19	225.46
415.56	226.54
415.94	227.58
416.31	228.85
416.68	230.20
417.06	231.72
417.43	233.25
417.81	234.87
418.18	236.58
418.55	238.40
418.93	240.42
419.30	242.41
419.67	244.57
420.04	246.65
420.42	249.03
420.79	251.92
421.16	254.51
421.54	257.38
421.91	260.27
422.28	263.32
422.66	266.59
423.03	269.95
423.40	273.20
423.77	276.68
424.15	280.22
424.52	284.01
424.89	288.02
425.26	291.91
425.64	295.70
426.01	299.79
426.38	304.19
426.75	308.58
427.13	313.18
427.50	317.97
427.87	322.95
428.24	327.77
428.61	332.45
428.99	337.90
429.36	343.61
429.73	349.40
430.10	354.94
430.47	360.73
430.85	366.52
431.22	372.94
431.59	379.95
431.96	386.43
432.33	393.58
432.70	400.69
433.08	409.04
433.45	416.78
433.82	424.66
434.19	433.33
434.56	441.97
434.93	450.11
435.30	458.30
435.68	467.49
436.05	476.50
436.42	485.39
436.79	493.67
437.16	502.55
437.53	511.90
437.90	521.45
438.27	530.62
438.64	540.30
439.01	549.33
439.38	557.34
439.75	565.30
440.13	574.15
440.50	582.52
440.87	589.30
441.24	596.54
441.61	604.51
441.98	610.52
442.35	617.53
442.72	624.64
443.09	631.74
443.46	636.17
443.83	639.43
444.20	642.38
444.57	646.21
444.94	648.42
445.31	650.63
445.68	652.93
446.05	654.20
446.42	654.01
446.79	653.68
447.16	653.04
447.53	652.90
447.90	650.24
448.27	647.46
448.64	643.46
449.01	640.87
449.37	635.39
449.74	630.12
450.11	623.54
450.48	616.39
450.85	608.80
451.22	602.38
451.59	596.29
451.96	590.51
452.33	582.60
452.70	575.42
453.07	566.90
453.43	558.03
453.80	549.78
454.17	541.74
454.54	534.01
454.91	525.78
455.28	517.56
455.65	509.90
456.02	502.58
456.38	496.15
456.75	488.03
457.12	481.30
457.49	474.63
457.86	468.04
458.23	462.60
458.59	456.66
458.96	450.62
459.33	445.28
459.70	439.87
460.07	435.68
460.43	430.72
460.80	426.03
461.17	421.85
461.54	417.46
461.91	413.34
462.27	409.17
462.64	405.68
463.01	401.75
463.38	398.14
463.74	394.06
464.11	390.76
464.48	387.72
464.85	384.55
465.21	382.12
465.58	379.63
465.95	376.32
466.32	373.61
466.68	371.01
467.05	368.35
467.42	365.71
467.78	362.92
468.15	360.43
468.52	358.56
468.88	356.04
469.25	353.88
469.62	352.11
469.98	350.16
470.35	348.25
470.72	346.56
471.08	344.51
471.45	342.95
471.82	341.27
472.18	339.44
472.55	338.06
472.92	336.43
473.28	335.06
473.65	333.71
474.02	332.38
474.38	331.27
474.75	330.37
475.11	329.34
475.48	328.50
475.85	327.79
476.21	326.87
476.58	326.20
476.94	325.70
477.31	325.02
477.67	324.29
478.04	323.78
478.41	323.42
478.77	323.46
479.14	323.06
479.50	322.74
479.87	322.71
480.23	322.67
480.60	322.57
480.96	322.33
481.33	322.56
481.69	322.68
482.06	322.70
482.42	322.67
482.79	322.80
483.15	323.04
483.52	323.31
483.88	323.65
484.25	324.00
484.61	324.29
484.98	324.67
485.34	325.42
485.71	326.07
486.07	326.62
486.44	327.00
486.80	327.70
487.17	328.52
487.53	329.47
487.90	330.40
488.26	331.56
488.62	332.79
488.99	333.81
489.35	334.99
489.72	336.29
490.08	337.57
490.44	338.87
490.81	340.30
491.17	341.62
491.54	343.15
491.90	344.73
492.26	346.40
492.63	348.08
492.99	349.72
493.36	351.58
493.72	353.56
494.08	355.52
494.45	357.64
494.81	359.90
495.17	361.85
495.54	364.04
495.90	366.07
496.26	368.20
496.63	370.38
496.99	372.58
497.35	374.82
497.72	377.25
498.08	379.70
498.44	382.20
498.80	384.73
499.17	387.13
499.53	389.63
499.89	392.18
500.26	394.78
500.62	397.24
500.98	399.79
501.34	402.11
501.71	404.68
502.07	407.08
502.43	409.38
502.79	411.67
503.16	413.97
503.52	416.36
503.88	418.61
504.24	420.87
504.60	423.13
504.97	425.44
505.33	427.53
505.69	429.84
506.05	431.93
506.41	433.97
506.78	435.88
507.14	437.73
507.50	439.57
507.86	441.33
508.22	443.15
508.59	444.68
508.95	446.45
509.31	448.02
509.67	449.55
510.03	450.98
510.39	452.58
510.75	454.08
511.12	455.36
511.48	456.61
511.84	457.78
512.20	458.96
512.56	460.12
512.92	461.20
513.28	462.15
513.64	462.83
514.00	463.66
514.37	464.53
514.73	465.40
515.09	466.18
515.45	466.69
515.81	467.17
516.17	467.64
516.53	467.93
516.89	468.02
517.25	468.32
517.61	468.67
517.97	468.87
518.33	468.95
518.69	469.08
519.05	469.17
519.41	469.33
519.77	469.52
520.13	469.40
520.49	469.39
520.85	469.42
521.21	469.63
521.57	469.64
521.93	469.46
522.29	469.37
522.65	469.12
523.01	469.16
523.37	469.11
523.73	469.24
524.09	469.38
524.45	469.53
524.81	469.73
525.17	469.85
525.53	470.03
525.89	470.20
526.25	470.55
526.61	470.69
526.97	470.94
527.33	471.13
527.68	471.87
528.04	472.28
528.40	472.59
528.76	473.05
529.12	473.55
529.48	474.51
529.84	475.04
530.20	475.84
530.56	476.68
530.91	477.63
531.27	478.39
531.63	479.30
531.99	480.40
532.35	481.25
532.71	482.26
533.07	483.38
533.42	484.89
533.78	485.99
534.14	487.35
534.50	488.48
534.86	489.94
535.21	490.89
535.57	492.40
535.93	493.67
536.29	495.29
536.65	496.84
537.00	498.20
537.36	499.80
537.72	501.37
538.08	503.06
538.44	504.72
538.79	506.53
539.15	508.31
539.51	510.10
539.87	512.09
540.22	514.05
540.58	516.15
540.94	517.98
541.29	520.05
541.65	522.04
542.01	524.33
542.37	526.54
542.72	528.85
543.08	531.01
543.44	533.51
543.79	535.52
544.15	538.08
544.51	540.70
544.87	543.47
545.22	546.03
545.58	548.56
545.94	551.16
546.29	553.82
546.65	556.41
547.01	559.07
547.36	561.64
547.72	564.24
548.07	566.77
548.43	569.29
548.79	571.79
549.14	574.43
549.50	577.16
549.86	579.80
550.21	582.43
550.57	585.31
550.92	588.04
551.28	590.72
551.64	593.29
551.99	595.92
552.35	598.38
552.70	600.98
553.06	603.59
553.41	606.04
553.77	608.66
554.13	611.26
554.48	613.89
554.84	616.69
555.19	619.38
555.55	622.36
555.90	624.91
556.26	627.45
556.61	630.08
556.97	632.31
557.32	634.70
557.68	637.18
558.03	639.35
558.39	641.30
558.74	643.76
559.10	646.05
559.45	648.29
559.81	650.74
560.16	653.04
560.52	655.39
560.87	657.66
561.23	659.72
561.58	662.25
561.94	664.36
562.29	666.33
562.64	668.41
563.00	670.20
563.35	672.38
563.71	674.78
564.06	676.84
564.42	679.24
564.77	681.47
565.12	683.74
565.48	686.33
565.83	688.94
566.19	691.07
566.54	693.01
566.89	694.97
567.25	697.08
567.60	699.26
567.96	701.51
568.31	703.66
568.66	705.65
569.02	706.98
569.37	708.37
569.72	710.05
570.08	711.60
570.43	713.01
570.78	714.33
571.14	715.38
571.49	716.51
571.84	717.55
572.20	718.52
572.55	719.29
572.90	719.84
573.26	720.34
573.61	720.97
573.96	721.64
574.31	722.14
574.67	722.35
575.02	722.34
575.37	722.16
575.72	722.14
576.08	722.30
576.43	722.34
576.78	722.53
577.13	722.81
577.49	722.98
577.84	722.96
578.19	723.15
578.54	723.56
578.90	723.85
579.25	723.96
579.60	723.81
579.95	723.64
580.30	723.39
580.66	723.28
581.01	723.16
581.36	722.84
581.71	722.56
582.06	722.47
582.42	722.30
582.77	722.00
583.12	721.77
583.47	721.42
583.82	721.22
584.17	720.83
584.53	720.37
584.88	719.85
585.23	719.61
585.58	718.91
585.93	718.20
586.28	717.62
586.63	717.20
586.98	716.80
587.34	716.56
587.69	716.18
588.04	715.56
588.39	714.85
588.74	714.19
589.09	713.70
589.44	712.76
589.79	712.31
590.14	711.63
590.49	710.74
590.84	709.85
591.19	709.27
591.54	708.71
591.89	707.47
592.25	706.71
592.60	705.41
592.95	704.26
593.30	703.10
593.65	701.81
594.00	700.23
594.35	699.77
594.70	698.18
595.05	696.89
595.40	695.62
595.75	694.25
596.10	693.11
596.45	691.90
596.80	690.79
597.15	689.46
597.50	688.00
597.85	686.87
598.19	685.57
598.54	684.30
598.89	682.96
599.24	682.20
599.59	680.83
599.94	679.88
600.29	678.76
600.64	677.49
600.99	676.18
601.34	675.14
601.69	672.85
602.04	671.43
602.39	669.98
602.74	668.74
603.08	667.69
603.43	666.74
603.78	665.30
604.13	663.93
604.48	662.52
604.83	661.75
605.18	660.53
605.53	659.26
605.87	657.83
606.22	656.49
606.57	654.91
606.92	653.44
607.27	651.83
607.62	650.39
607.96	648.97
608.31	647.81
608.66	646.15
609.01	644.65
609.36	643.33
609.70	641.76
610.05	640.09
610.40	638.46
610.75	636.55
611.10	635.05
611.44	633.22
611.79	631.46
612.14	629.40
612.49	627.37
612.83	625.48
613.18	623.38
613.53	621.44
613.88	619.20
614.22	617.22
614.57	615.33
614.92	613.46
615.27	611.44
615.61	609.43
615.96	607.59
616.31	605.81
616.65	604.11
617.00	602.19
617.35	600.29
617.70	598.15
618.04	595.99
618.39	593.67
618.74	591.80
619.08	589.56
619.43	587.60
619.78	585.62
620.12	583.74
620.47	581.90
620.82	579.84
621.16	577.84
621.51	575.93
621.85	573.84
622.20	571.76
622.55	569.63
622.89	567.40
623.24	565.27
623.59	563.13
623.93	561.01
624.28	559.03
624.62	557.38
624.97	555.63
625.32	553.62
625.66	551.89
626.01	549.87
626.35	548.04
626.70	546.00
627.04	544.42
627.39	542.48
627.73	540.69
628.08	538.88
628.43	537.10
628.77	535.02
629.12	533.18
629.46	531.41
629.81	529.75
630.15	527.89
630.50	526.08
630.84	524.20
631.19	522.20
631.53	520.40
631.88	518.01
632.22	515.89
632.57	514.24
632.91	512.38
633.26	510.57
633.60	508.79
633.95	506.96
634.29	504.77
634.64	503.05
634.98	500.95
635.32	499.19
635.67	497.47
636.01	495.78
636.36	493.92
636.70	492.15
637.05	490.20
637.39	488.53
637.73	487.01
638.08	485.53
638.42	483.94
638.77	482.26
639.11	480.72
639.45	478.96
639.80	477.01
640.14	475.07
640.49	473.25
640.83	471.49
641.17	469.70
641.52	467.94
641.86	466.04
642.20	464.53
642.55	462.47
642.89	460.55
643.23	458.70
643.58	457.24
643.92	455.28
644.26	453.63
644.61	451.97
644.95	450.10
645.29	448.25
645.64	446.38
645.98	444.64
646.32	442.96
646.66	441.17
647.01	439.53
647.35	437.98
647.69	436.20
648.04	434.66
648.38	432.97
648.72	431.22
649.06	429.44
649.41	427.63
649.75	426.08
650.09	424.52
650.43	422.91
650.78	420.98
651.12	419.27
651.46	417.51
651.80	415.82
652.14	414.16
652.49	412.53
652.83	410.88
653.17	409.01
653.51	407.28
653.85	405.84
654.20	404.30
654.54	402.50
654.88	400.83
655.22	399.20
655.56	397.50
655.90	395.85
656.25	394.25
656.59	392.55
656.93	390.86
657.27	389.28
657.61	387.46
657.95	385.99
658.29	384.47
658.64	383.08
658.98	381.47
659.32	379.71
659.66	378.11
660.00	376.67
660.34	375.18
660.68	373.55
661.02	371.89
661.36	370.31
661.70	368.93
662.05	367.57
662.39	366.10
662.73	364.92
663.07	363.78
663.41	362.52
663.75	361.18
664.09	359.82
664.43	358.36
664.77	357.17
665.11	355.69
665.45	354.45
665.79	353.08
666.13	351.72
666.47	350.54
666.81	349.20
667.15	347.75
667.49	346.71
667.83	345.60
668.17	344.38
668.51	343.28
668.85	342.13
669.19	341.17
669.53	339.85
669.87	338.52
670.21	337.20
670.55	335.89
670.89	334.98
671.23	333.98
671.57	332.99
671.91	332.00
672.25	330.93
672.58	329.94
672.92	328.80
673.26	327.74
673.60	326.75
673.94	325.77
674.28	324.87
674.62	323.84
674.96	322.84
675.30	321.97
675.64	320.81
675.97	319.80
676.31	318.72
676.65	317.77
676.99	316.96
677.33	315.99
677.67	315.08
678.01	313.94
678.34	313.04
678.68	312.08
679.02	310.95
679.36	310.14
679.70	309.12
680.04	308.25
680.37	307.40
680.71	306.49
681.05	305.65
681.39	304.76
681.73	303.83
682.06	303.04
682.40	302.18
682.74	301.40
683.08	300.72
683.42	299.78
683.75	299.04
684.09	298.02
684.43	297.22
684.77	296.39
685.10	295.66
685.44	294.79
685.78	293.99
686.12	293.37
686.45	292.55
686.79	291.73
687.13	291.06
687.46	290.28
687.80	289.59
688.14	288.77
688.48	288.02
688.81	287.30
689.15	286.59
689.49	285.81
689.82	285.19
690.16	284.18
690.50	283.45
690.83	282.62
691.17	281.86
691.51	281.16
691.84	280.47
692.18	279.75
692.52	279.08
692.85	278.53
693.19	277.90
693.52	277.18
693.86	276.54
694.20	275.78
694.53	275.07
694.87	274.37
695.21	273.70
695.54	273.05
695.88	272.35
696.21	271.51
696.55	270.96
696.88	270.25
697.22	269.77
697.56	269.22
697.89	268.61
698.23	268.07
698.56	267.48
698.90	266.91
699.23	266.32
699.57	265.77
699.90	265.02
700.24	264.30
700.58	263.75
700.91	263.21
701.25	263.04
701.58	262.64
701.92	262.17
702.25	261.68
702.59	261.13
702.92	260.51
703.26	260.11
703.59	259.55
703.93	259.31
704.26	258.77
704.60	258.30
704.93	257.74
705.26	257.24
705.60	256.77
705.93	256.27
706.27	255.91
706.60	255.52
706.94	255.27
707.27	254.87
707.61	254.47
707.94	254.01
708.27	253.22
708.61	252.60
708.94	252.20
709.28	251.73
709.61	251.36
709.94	251.10
710.28	250.58
710.61	250.20
710.95	249.46
711.28	249.34
711.61	248.99
711.95	248.76
712.28	248.31
712.61	247.90
712.95	247.75
713.28	247.43
713.61	246.96
713.95	246.50
714.28	246.12
714.61	245.66
714.95	245.28
715.28	244.87
715.61	244.52
715.95	244.12
716.28	243.71
716.61	243.34
716.95	242.90
717.28	242.62
717.61	242.30
717.94	242.02
718.28	241.45
718.61	241.06
718.94	240.75
719.27	240.53
719.61	240.30
719.94	239.81
720.27	239.40
720.60	239.05
720.94	238.78
721.27	238.51
721.60	238.40
721.93	238.13
722.27	237.98
722.60	237.91
722.93	237.65
723.26	237.48
723.59	237.22
723.93	237.05
724.26	236.88
724.59	236.57
724.92	236.37
725.25	236.18
725.59	235.96
725.92	235.74
726.25	235.54
726.58	235.30
726.91	235.12
727.24	234.88
727.57	234.74
727.91	234.36
728.24	234.17
728.57	233.92
728.90	233.78
729.23	233.53
729.56	233.40
729.89	233.20
730.22	232.93
730.55	232.66
730.89	232.52
731.22	232.26
731.55	232.05
731.88	231.81
732.21	231.63
732.54	231.38
732.87	231.21
733.20	231.01
733.53	230.90
733.86	230.72
734.19	230.43
734.52	230.26
734.85	230.45
735.18	230.23
735.51	230.02
735.84	229.79
736.17	229.72
736.50	229.28
736.83	229.49
737.16	229.45
737.49	229.32
737.82	228.99
738.15	228.84
738.48	228.67
738.81	228.53
739.14	228.32
739.47	228.14
739.80	227.91
740.13	227.72
740.46	227.38
740.79	227.15
741.12	227.03
741.45	226.79
741.78	226.42
742.11	226.44
742.44	226.26
742.77	226.13
743.10	225.88
743.43	225.75
743.75	225.23
744.08	225.44
744.41	225.26
744.74	225.14
745.07	224.99
745.40	224.88
745.73	224.89
746.06	224.67
746.39	224.57
746.71	224.36
747.04	224.20
747.37	224.17
747.70	224.12
748.03	224.04
748.36	223.98
748.68	223.76
749.01	223.42
749.34	223.29
749.67	223.18
750.00	223.09
750.33	223.22
750.65	223.11
750.98	222.55
751.31	222.42
751.64	222.33
751.97	222.37
752.29	222.19
752.62	221.88
752.95	221.80
753.28	221.62
753.60	221.59
753.93	221.55
754.26	221.46
754.59	221.20
754.91	221.07
755.24	220.97
755.57	220.92
755.90	220.83
756.22	220.66
756.55	220.52
756.88	220.32
757.20	220.00
757.53	219.77
757.86	219.70
758.19	219.67
758.51	219.53
758.84	219.25
759.17	219.13
759.49	219.03
759.82	219.06
760.15	219.00
760.47	218.89
760.80	218.69
761.13	218.62
761.45	218.50
761.78	218.48
762.11	218.40
762.43	218.20
762.76	218.10
763.08	218.09
763.41	218.03
763.74	218.01
764.06	217.83
764.39	217.86
764.71	217.77
765.04	217.67
765.37	217.62
765.69	217.55
766.02	217.46
766.34	217.37
766.67	217.21
767.00	217.15
767.32	217.25
767.65	217.44
767.97	217.33
768.30	217.35
768.62	217.20
768.95	217.09
769.27	217.08
769.60	217.15
769.92	217.07
770.25	216.98
770.57	216.83
770.90	216.84
771.22	216.65
771.55	216.58
771.87	216.56
772.20	216.53
772.52	216.75
772.85	217.17
773.17	217.16
773.50	217.11
773.82	217.08
774.15	216.85
774.47	216.58
774.80	216.49
775.12	216.42
775.45	216.34
775.77	216.36
776.09	216.34
776.42	216.19
776.74	216.24
777.07	216.15
777.39	216.17
777.72	216.10
778.04	216.16
778.36	216.12
778.69	216.01
779.01	215.99
779.33	215.65
779.66	215.21
779.98	215.18
780.31	215.09
780.63	215.24
780.95	215.26
781.28	215.16
781.60	215.09
781.92	215.05
782.25	215.08
782.57	214.95
782.89	214.86
783.22	214.87
783.54	214.78
783.86	214.80
784.19	214.78
784.51	214.87
784.83	214.73
785.16	214.69
785.48	214.76
785.80	214.69
786.12	214.75
786.45	214.72
786.77	214.68
787.09	214.66
787.42	214.44
787.74	214.43
788.06	214.47
788.38	214.51
788.71	214.43
789.03	214.39
789.35	214.44
789.67	214.44
789.99	214.36
790.32	214.25
790.64	214.31
790.96	214.54
791.28	214.38
791.61	214.39
791.93	214.32
792.25	214.23
792.57	214.43
792.89	214.36
793.21	214.37
793.54	214.34
793.86	214.32
794.18	214.37
794.50	214.30
794.82	214.27
795.14	214.24
795.47	214.32
795.79	214.30
796.11	214.13
796.43	214.03
796.75	214.13
797.07	214.13
797.39	214.07
797.71	213.74
798.04	213.74
798.36	213.76
798.68	213.79
799.00	213.80
799.32	213.66
799.64	213.64
799.96	213.59
800.28	213.60
800.60	213.62
800.92	213.59
801.24	213.54
801.56	213.55
801.89	213.56
802.21	213.53
802.53	213.47
802.85	213.57
803.17	213.77
803.49	213.61
803.81	213.53
804.13	213.45
804.45	213.44
804.77	213.47
805.09	213.45
805.41	213.44
805.73	213.30
806.05	213.19
806.37	213.15
806.69	213.11
807.01	213.07
807.33	213.01
807.65	212.86
807.97	212.99
808.28	212.93
808.60	212.83
808.92	212.85
809.24	213.02
809.56	213.06
809.88	212.96
810.20	213.01
810.52	213.11
810.84	213.03
811.16	212.94
811.48	212.95
811.80	213.10
812.12	213.06
812.43	213.17
812.75	213.18
813.07	213.13
813.39	213.16
813.71	213.13
814.03	213.10
814.35	213.11
814.67	212.98
814.98	212.95
815.30	213.00
815.62	212.85
815.94	212.66
816.26	212.61
816.58	212.51
816.89	212.48
817.21	212.42
817.53	212.46
817.85	212.59
818.17	212.55
818.48	212.43
818.80	212.54
819.12	212.42
819.44	212.38
819.76	212.49
820.07	212.48
820.39	212.42
820.71	212.41
821.03	212.35
821.34	212.34
821.66	212.37
821.98	212.33
822.30	212.37
822.61	212.49
822.93	212.41
823.25	212.33
823.57	212.24
823.88	212.35
824.20	212.35
824.52	212.34
824.83	212.28
825.15	212.09
825.47	212.03
825.79	212.06
826.10	212.00
826.42	211.87
826.74	211.86
827.05	211.82
827.37	211.88
827.69	211.90
828.00	211.89
828.32	211.84
828.64	211.85
828.95	212.02
829.27	211.92
829.58	211.89
829.90	211.97
830.22	212.05
830.53	211.91
830.85	211.85
831.17	211.78
831.48	211.79
831.80	211.87
832.11	211.75
832.43	211.72
832.75	211.74
833.06	211.96
833.38	211.82
833.69	211.80
834.01	211.73
834.32	211.71
834.64	211.68
834.96	211.72
835.27	211.69
835.59	211.58
835.90	211.55
836.22	211.55
836.53	211.48
836.85	211.43
837.16	211.78
837.48	211.80
837.79	211.90
838.11	211.93
838.42	211.95
838.74	211.99
839.05	211.98
839.37	211.91
839.68	211.66
840.00	211.70
840.31	211.76
840.63	211.81
840.94	211.82
841.26	211.77
841.57	211.77
841.88	211.83
842.20	211.79
842.51	211.71
842.83	211.74
843.14	211.98
843.46	212.03
843.77	211.81
844.08	211.78
844.40	211.54
844.71	211.40
845.03	211.37
845.34	211.39
845.65	211.36
845.97	211.38
846.28	211.39
846.60	211.42
846.91	211.40
847.22	211.36
847.54	211.44
847.85	211.44
848.16	211.39
848.48	211.26
848.79	211.37
849.10	211.41
849.42	211.52
849.73	211.20
850.04	211.15
850.36	211.08
850.67	211.19
850.98	211.35
851.30	211.44
851.61	211.49
851.92	211.43
852.23	211.62
852.55	211.65
852.86	211.71
853.17	211.72
853.49	211.78
853.80	211.82
854.11	211.79
854.42	211.87
854.74	211.84
855.05	211.90
855.36	211.70
855.67	211.77
855.99	211.70
856.30	212.11
856.61	212.12
856.92	212.06
857.23	212.00
857.55	211.89
857.86	211.86
858.17	211.87
858.48	211.84
858.79	211.68
859.11	211.73
859.42	211.67
859.73	211.63
860.04	211.59
860.35	211.47
860.66	211.42
860.98	211.38
861.29	211.38
861.60	211.37
861.91	211.42
862.22	211.31
862.53	211.22
862.84	210.92
863.16	210.99
863.47	210.95
863.78	210.90
864.09	210.96
864.40	211.07
864.71	211.01
865.02	211.07
865.33	211.04
865.64	210.93
865.95	210.91
866.27	211.12
866.58	211.20
866.89	211.28
867.20	211.20
867.51	211.19
867.82	211.14
868.13	211.24
868.44	211.22
868.75	211.23
869.06	211.31
869.37	211.32
869.68	211.21
869.99	211.22
870.30	211.29
870.61	211.28
870.92	211.15
871.23	211.15
871.54	211.13
871.85	211.23
872.16	211.34
872.47	211.36
872.78	211.12
873.09	211.13
873.40	211.08
873.71	211.10
874.02	211.07
874.33	211.06
874.64	210.96
874.95	211.08
875.26	211.10
875.56	211.02
875.87	210.96
876.18	210.97
876.49	211.42
876.80	211.40
877.11	211.38
877.42	211.36
877.73	211.37
878.04	211.36
878.35	211.35
878.66	211.31
878.96	211.34
879.27	211.40
879.58	211.31
879.89	211.31
880.20	211.47
880.51	211.50
880.82	211.52
881.12	211.52
881.43	211.41
881.74	211.33
882.05	211.36
882.36	211.43
882.67	211.45
882.97	211.02
883.28	210.97
883.59	211.01
883.90	211.05
884.21	211.13
884.51	211.10
884.82	211.01
885.13	211.03
885.44	211.02
885.74	211.00
886.05	210.97
886.36	210.94
886.67	210.86
886.98	211.05
887.28	211.05
887.59	211.07
887.90	211.07
888.20	211.10
888.51	211.18
888.82	211.09
889.13	211.24
889.43	211.47
889.74	211.45
890.05	211.38
890.35	211.36
890.66	211.26
890.97	211.17
891.28	211.19
891.58	211.19
891.89	211.18
892.20	211.16
892.50	211.19
892.81	211.23
893.12	211.22
893.42	210.96
893.73	211.00
894.04	210.98
894.34	211.00
894.65	211.00
894.95	210.98
895.26	210.99
895.57	210.98
895.87	210.70
896.18	210.81
896.48	210.83
896.79	210.90
897.10	211.00
897.40	211.12
897.71	211.10
898.01	211.01
898.32	211.00
898.63	210.97
898.93	211.02
899.24	211.04
899.54	210.97
899.85	211.06
900.15	211.06
900.46	211.08
900.76	211.13
901.07	211.07
901.38	211.00
901.68	211.10
901.99	210.96
902.29	210.98
902.60	210.92
902.90	210.93
903.21	210.86
903.51	210.85
903.82	210.87
904.12	210.90
904.43	211.02
904.73	211.01
905.03	211.08
905.34	211.36
905.64	211.32
905.95	211.27
906.25	211.21
906.56	211.18
906.86	211.18
907.17	211.14
907.47	211.15
907.77	211.15
908.08	211.05
908.38	211.07
908.69	211.15
908.99	211.23
909.30	211.25
909.60	211.30
909.90	211.27
910.21	211.19
910.51	211.14
910.81	211.11
911.12	211.15
911.42	211.13
911.73	210.72
912.03	210.76
912.33	210.86
912.64	210.85
912.94	210.78
913.24	210.71
913.55	210.67
913.85	210.67
914.15	210.69
914.46	210.66
914.76	210.69
915.06	210.57
915.37	210.44
915.67	210.34
915.97	210.25
916.27	210.21
916.58	210.29
916.88	210.27
917.18	210.19
917.49	210.37
917.79	210.42
918.09	210.47
918.39	210.60
918.70	210.53
919.00	210.46
919.30	210.66
919.60	210.66
919.91	210.70
920.21	210.79
920.51	210.67
920.81	210.71
921.12	210.68
921.42	210.75
921.72	210.86
922.02	210.93
922.32	211.04
922.63	211.02
922.93	211.14
923.23	211.21
923.53	211.21
923.83	211.02
924.13	210.99
924.44	211.00
924.74	210.95
925.04	211.11
925.34	211.18
925.64	211.13
925.94	211.11
926.24	211.28
926.55	211.18
926.85	211.33
927.15	211.37
927.45	211.43
927.75	211.37
928.05	211.30
928.35	211.34
928.65	211.38
928.95	211.43
929.26	211.27
929.56	211.32
929.86	211.40
930.16	211.44
930.46	211.44
930.76	211.56
931.06	211.47
931.36	211.37
931.66	211.44
931.96	211.50
932.26	211.56
932.56	211.34
932.86	211.34
933.16	211.34
933.46	211.26
933.76	211.23
934.06	211.32
934.36	211.45
934.66	211.37
934.96	211.28
935.26	211.33
935.56	211.45
935.86	211.40
936.16	211.29
936.46	211.21
936.76	211.21
937.06	211.09
937.36	211.09
937.66	211.09
937.96	211.07
938.26	210.91
938.56	210.86
938.86	210.93
939.16	211.03
939.46	211.06
939.76	211.13
940.06	211.12
940.35	211.04
940.65	210.80
940.95	210.80
941.25	210.78
941.55	210.67
941.85	210.59
942.15	210.62
942.45	210.76
942.75	210.80
943.04	210.74
943.34	210.83
943.64	210.81
943.94	210.79
944.24	210.76
944.54	210.85
944.84	210.87
945.13	210.80
945.43	210.74
945.73	210.66
946.03	210.54
946.33	210.51
946.62	210.50
946.92	210.61
947.22	210.70
947.52	210.73
947.82	210.81
948.11	210.76
948.41	210.70
948.71	210.60
949.01	210.62
949.31	210.63
949.60	210.60
949.90	210.64
950.20	210.57
950.50	210.61
950.79	210.52
951.09	210.56
951.39	210.57
951.69	210.56
951.98	210.67
952.28	210.75
952.58	210.80
952.87	210.81
953.17	210.84
953.47	210.70
953.76	210.62
954.06	210.55
954.36	210.53
954.66	210.54
954.95	210.58
955.25	210.55
955.55	210.58
955.84	210.52
956.14	210.57
956.44	210.66
956.73	210.55
957.03	210.65
957.32	210.57
957.62	210.62
957.92	210.65
958.21	210.67
958.51	211.10
958.81	211.06
959.10	211.07
959.40	211.19
959.69	211.30
959.99	211.40
960.29	211.41
960.58	211.40
960.88	211.50
961.17	211.52
961.47	211.54
961.76	211.46
962.06	211.56
962.36	211.54
962.65	211.51
962.95	211.57
963.24	211.53
963.54	211.59
963.83	211.57
964.13	211.62
964.42	211.46
964.72	211.15
965.01	211.18
965.31	211.19
965.60	211.10
965.90	211.30
966.19	211.20
966.49	211.22
966.78	211.26
967.08	211.29
967.37	211.29
967.67	211.27
967.96	211.42
968.26	211.37
968.55	211.37
968.85	211.44
969.14	211.44
969.43	211.41
969.73	211.48
970.02	211.52
970.32	211.46
970.61	211.52
970.91	211.35
971.20	211.37
971.49	211.27
971.79	211.24
972.08	211.04
972.38	211.13
972.67	211.15
972.96	211.11
973.26	211.04
973.55	211.15
973.85	211.15
974.14	211.11
974.43	211.13
974.73	211.10
975.02	211.02
975.31	211.02
975.61	211.01
975.90	210.88
976.19	210.85
976.49	210.92
976.78	210.98
977.07	211.06
977.37	211.06
977.66	211.17
977.95	211.14
978.24	211.08
978.54	211.16
978.83	211.09
979.12	211.13
979.42	211.12
979.71	211.04
980.00	211.05
980.29	211.13
980.59	211.01
980.88	211.07
981.17	211.09
981.46	211.02
981.76	211.00
982.05	211.18
982.34	211.15
982.63	211.11
982.93	211.07
983.22	211.10
983.51	211.05
983.80	211.06
984.09	211.07
984.39	211.09
984.68	210.96
984.97	210.99
985.26	210.97
985.55	211.02
985.85	210.95
986.14	210.95
986.43	210.91
986.72	210.98
987.01	210.87
987.30	210.92
987.59	210.97
987.89	210.98
988.18	210.88
988.47	210.88
988.76	210.86
989.05	210.80
989.34	210.74
989.63	210.84
989.92	210.80
990.22	210.74
990.51	210.69
990.80	210.63
991.09	210.64
991.38	210.65
991.67	210.56
991.96	210.49
992.25	210.48
992.54	210.42
992.83	210.37
993.12	210.40
993.41	210.42
993.70	210.56
993.99	210.66
994.28	210.69
994.58	210.80
994.87	210.75
995.16	210.70
995.45	210.69
995.74	210.55
996.03	210.62
996.32	210.66
996.61	210.80
996.90	210.85
997.19	210.86
997.48	210.85
997.77	210.83
998.06	210.91
998.34	210.88
998.63	210.83
998.92	210.88
999.21	210.97
999.50	210.94
999.79	210.80
1000.08	210.81
1000.37	210.80
1000.66	210.74
1000.95	210.81
1001.24	210.89
1001.53	210.96
1001.82	210.97
1002.11	210.85
1002.40	210.95
1002.68	211.07
1002.97	211.29
1003.26	211.23
1003.55	211.18
1003.84	211.22
1004.13	211.32
1004.42	211.38
1004.71	211.42
1004.99	211.39
1005.28	211.43
1005.57	211.47
1005.86	211.45
1006.15	211.40
1006.44	211.33
1006.72	211.38
1007.01	211.36
1007.30	211.36
1007.59	211.30
1007.88	211.30
1008.17	211.39
1008.45	211.29
1008.74	211.06
1009.03	210.91
1009.32	210.89
1009.60	210.91
1009.89	210.91
1010.18	210.75
1010.47	210.70
1010.76	210.60
1011.04	210.60
1011.33	210.91
1011.62	210.86
1011.91	210.84
1012.19	210.90
1012.48	210.94
1012.77	210.85
1013.05	211.00
1013.34	211.01
1013.63	210.94
1013.92	210.95
1014.20	210.88
1014.49	210.90
1014.78	210.92
1015.06	210.90
1015.35	210.92
1015.64	210.94
1015.92	210.96
1016.21	210.97
1016.50	210.94
1016.78	211.06
1017.07	211.08
1017.36	210.67
1017.64	210.66
1017.93	210.76
1018.22	210.61
1018.50	210.56
1018.79	210.57
1019.08	210.36
1019.36	210.38
1019.65	210.38
1019.93	210.54
1020.22	210.61
1020.51	210.80
1020.79	210.84
1021.08	209.10
1021.36	209.80
1021.65	210.30
1021.94	210.10
1022.22	211.05
1022.51	209.50
1022.79	213.00
1023.08	211.35
1023.36	214.55
1023.65	211.00
>>>>>End Processed Spectral Data<<<<<
