SpectraSuite Data File
++++++++++++++++++++++++++++++++++++
Date: Mon Feb 25 17:15:23 EST 2013
User: group
Dark Spectrum Present: No
Reference Spectrum Present: No
Number of Sampled Component Spectra: 1
Spectrometers: USB2E7196
Integration Time (usec): 104000 (USB2E7196)
Spectra Averaged: 20 (USB2E7196)
Boxcar Smoothing: 10 (USB2E7196)
Correct for Electrical Dark: No (USB2E7196)
Strobe/Lamp Enabled: No (USB2E7196)
Correct for Detector Non-linearity: No (USB2E7196)
Correct for Stray Light: No (USB2E7196)
Number of Pixels in Processed Spectrum: 2048
>>>>>Begin Processed Spectral Data<<<<<
339.09	0.00
339.48	197.75
339.86	199.90
340.24	201.85
340.63	202.45
341.01	208.20
341.39	204.75
341.78	206.60
342.16	208.60
342.54	208.80
342.93	198.18
343.31	208.16
343.69	208.75
344.07	209.21
344.46	209.64
344.84	210.11
345.22	210.25
345.60	210.53
345.99	210.76
346.37	210.89
346.75	210.99
347.13	211.01
347.52	211.04
347.90	211.19
348.28	211.21
348.66	211.22
349.05	211.13
349.43	211.19
349.81	211.19
350.19	211.24
350.57	211.22
350.96	211.30
351.34	211.41
351.72	211.38
352.10	211.50
352.48	211.57
352.87	211.52
353.25	211.58
353.63	211.61
354.01	211.63
354.39	211.71
354.77	211.73
355.15	211.95
355.54	212.01
355.92	211.98
356.30	212.07
356.68	212.42
357.06	212.53
357.44	212.48
357.82	212.49
358.20	212.60
358.58	212.67
358.97	212.74
359.35	212.87
359.73	213.05
360.11	213.14
360.49	213.20
360.87	213.30
361.25	213.35
361.63	213.50
362.01	213.58
362.39	213.56
362.77	213.69
363.15	213.67
363.53	213.77
363.91	213.87
364.29	213.89
364.67	213.54
365.05	213.54
365.43	213.65
365.81	213.77
366.19	213.93
366.57	214.14
366.95	214.18
367.33	214.08
367.71	214.10
368.09	214.14
368.47	214.06
368.85	213.99
369.23	214.06
369.61	213.95
369.99	214.05
370.37	214.12
370.75	214.27
371.13	214.18
371.51	214.05
371.89	213.95
372.27	213.97
372.65	214.09
373.03	214.09
373.41	213.99
373.78	213.98
374.16	213.77
374.54	213.63
374.92	213.55
375.30	213.55
375.68	213.41
376.06	213.36
376.44	213.40
376.82	213.34
377.19	213.26
377.57	213.24
377.95	213.11
378.33	213.01
378.71	212.71
379.09	212.74
379.47	212.70
379.84	212.72
380.22	212.64
380.60	212.42
380.98	212.34
381.36	212.37
381.73	212.26
382.11	212.24
382.49	212.18
382.87	212.00
383.25	211.92
383.62	212.35
384.00	212.30
384.38	212.22
384.76	212.31
385.13	212.46
385.51	212.46
385.89	212.33
386.27	212.31
386.64	212.41
387.02	212.32
387.40	212.29
387.78	212.23
388.15	212.25
388.53	212.28
388.91	212.29
389.29	212.23
389.66	212.27
390.04	212.19
390.42	212.24
390.79	212.28
391.17	212.32
391.55	211.89
391.92	211.78
392.30	211.77
392.68	211.71
393.05	211.65
393.43	211.66
393.81	211.75
394.18	211.65
394.56	211.60
394.94	211.70
395.31	211.70
395.69	211.78
396.06	211.80
396.44	211.74
396.82	211.68
397.19	211.78
397.57	211.73
397.95	211.84
398.32	211.70
398.70	211.77
399.07	211.83
399.45	211.83
399.82	211.90
400.20	211.91
400.58	211.93
400.95	211.82
401.33	211.90
401.70	212.11
402.08	212.18
402.45	212.25
402.83	212.36
403.20	212.46
403.58	212.48
403.95	212.61
404.33	212.79
404.71	212.88
405.08	213.23
405.46	213.32
405.83	213.40
406.21	213.59
406.58	213.75
406.96	213.81
407.33	214.00
407.70	214.21
408.08	214.62
408.45	214.85
408.83	215.11
409.20	215.25
409.58	215.30
409.95	215.66
410.33	215.90
410.70	216.03
411.08	216.35
411.45	216.69
411.82	216.97
412.20	217.33
412.57	217.89
412.95	218.00
413.32	218.48
413.69	219.02
414.07	219.48
414.44	220.00
414.82	220.65
415.19	221.33
415.56	222.00
415.94	222.51
416.31	223.25
416.68	224.01
417.06	224.97
417.43	225.88
417.81	226.81
418.18	227.85
418.55	229.01
418.93	230.08
419.30	231.23
419.67	232.40
420.04	233.62
420.42	234.93
420.79	236.65
421.16	238.13
421.54	239.81
421.91	241.50
422.28	243.17
422.66	244.93
423.03	246.84
423.40	248.68
423.77	250.68
424.15	252.67
424.52	254.77
424.89	256.95
425.26	259.00
425.64	261.05
426.01	263.30
426.38	265.58
426.75	268.15
427.13	270.78
427.50	273.43
427.87	276.24
428.24	278.82
428.61	281.24
428.99	284.22
429.36	287.15
429.73	290.21
430.10	293.37
430.47	296.49
430.85	299.50
431.22	302.87
431.59	306.75
431.96	310.28
432.33	314.05
432.70	317.84
433.08	322.12
433.45	326.30
433.82	330.38
434.19	334.95
434.56	339.35
434.93	343.40
435.30	347.62
435.68	352.30
436.05	356.96
436.42	361.42
436.79	365.58
437.16	369.98
437.53	374.77
437.90	379.40
438.27	384.04
438.64	388.90
439.01	393.33
439.38	397.03
439.75	400.81
440.13	405.09
440.50	409.04
440.87	412.35
441.24	415.56
441.61	419.32
441.98	422.09
442.35	425.22
442.72	428.46
443.09	431.67
443.46	433.53
443.83	434.77
444.20	435.99
444.57	437.59
444.94	438.37
445.31	439.10
445.68	440.23
446.05	440.50
446.42	439.89
446.79	439.28
447.16	438.49
447.53	437.94
447.90	436.08
448.27	434.20
448.64	431.82
449.01	430.10
449.37	426.91
449.74	423.80
450.11	420.35
450.48	416.48
450.85	412.30
451.22	408.70
451.59	405.37
451.96	402.18
452.33	397.92
452.70	394.00
453.07	389.38
453.43	384.32
453.80	380.00
454.17	375.85
454.54	371.87
454.91	367.65
455.28	363.45
455.65	359.54
456.02	356.23
456.38	352.86
456.75	348.73
457.12	345.30
457.49	341.90
457.86	338.40
458.23	335.65
458.59	332.64
458.96	329.64
459.33	326.89
459.70	324.14
460.07	321.91
460.43	319.49
460.80	317.26
461.17	315.24
461.54	312.94
461.91	310.78
462.27	308.64
462.64	306.76
463.01	304.81
463.38	303.11
463.74	300.74
464.11	299.09
464.48	297.74
464.85	296.14
465.21	295.00
465.58	293.77
465.95	292.14
466.32	290.83
466.68	289.60
467.05	288.42
467.42	287.12
467.78	285.78
468.15	284.61
468.52	283.63
468.88	282.40
469.25	281.33
469.62	280.63
469.98	279.75
470.35	278.99
470.72	278.29
471.08	277.31
471.45	276.68
471.82	276.12
472.18	275.37
472.55	274.93
472.92	274.31
473.28	273.73
473.65	273.27
474.02	272.78
474.38	272.37
474.75	272.13
475.11	271.78
475.48	271.67
475.85	271.52
476.21	271.33
476.58	271.24
476.94	271.27
477.31	271.19
477.67	271.17
478.04	271.21
478.41	271.29
478.77	271.80
479.14	271.73
479.50	271.94
479.87	272.23
480.23	272.49
480.60	272.76
480.96	273.05
481.33	273.66
481.69	274.20
482.06	274.63
482.42	275.13
482.79	275.74
483.15	276.39
483.52	277.18
483.88	277.88
484.25	278.66
484.61	279.46
484.98	280.26
485.34	281.40
485.71	282.48
486.07	283.61
486.44	284.55
486.80	285.99
487.17	287.21
487.53	288.65
487.90	290.24
488.26	291.97
488.62	293.84
488.99	295.49
489.35	297.39
489.72	299.53
490.08	301.70
490.44	303.90
490.81	306.32
491.17	308.59
491.54	311.19
491.90	313.92
492.26	316.82
492.63	319.91
492.99	322.90
493.36	326.24
493.72	329.75
494.08	333.32
494.45	337.12
494.81	341.13
495.17	345.16
495.54	349.58
495.90	353.98
496.26	358.56
496.63	363.59
496.99	368.69
497.35	373.92
497.72	379.42
498.08	385.13
498.44	390.99
498.80	397.34
499.17	403.82
499.53	410.49
499.89	417.50
500.26	424.59
500.62	431.91
500.98	439.57
501.34	447.35
501.71	455.60
502.07	463.90
502.43	472.42
502.79	481.29
503.16	490.40
503.52	499.88
503.88	509.60
504.24	519.30
504.60	529.35
504.97	539.82
505.33	550.33
505.69	561.66
506.05	573.04
506.41	584.55
506.78	596.13
507.14	608.19
507.50	620.48
507.86	633.18
508.22	646.21
508.59	659.42
508.95	673.01
509.31	686.81
509.67	700.73
510.03	715.17
510.39	729.89
510.75	744.94
511.12	760.00
511.48	775.35
511.84	791.07
512.20	806.93
512.56	823.18
512.92	839.82
513.28	856.27
513.64	873.06
514.00	889.96
514.37	907.29
514.73	924.85
515.09	942.33
515.45	959.77
515.81	977.40
516.17	995.05
516.53	1012.99
516.89	1031.01
517.25	1049.45
517.61	1067.71
517.97	1085.93
518.33	1104.19
518.69	1122.69
519.05	1141.36
519.41	1160.29
519.77	1179.20
520.13	1197.69
520.49	1216.28
520.85	1235.06
521.21	1253.85
521.57	1272.90
521.93	1291.31
522.29	1310.48
522.65	1329.61
523.01	1348.59
523.37	1367.10
523.73	1386.05
524.09	1404.80
524.45	1423.33
524.81	1441.69
525.17	1460.23
525.53	1478.70
525.89	1497.14
526.25	1515.67
526.61	1533.41
526.97	1551.30
527.33	1569.22
527.68	1587.55
528.04	1604.97
528.40	1621.92
528.76	1638.97
529.12	1656.49
529.48	1674.45
529.84	1691.07
530.20	1707.74
530.56	1724.75
530.91	1742.58
531.27	1759.52
531.63	1776.14
531.99	1792.75
532.35	1808.77
532.71	1824.66
533.07	1840.98
533.42	1856.51
533.78	1872.08
534.14	1887.49
534.50	1901.53
534.86	1916.26
535.21	1929.87
535.57	1944.53
535.93	1958.63
536.29	1972.30
536.65	1985.60
537.00	1997.91
537.36	2010.37
537.72	2022.66
538.08	2034.52
538.44	2046.02
538.79	2057.90
539.15	2069.46
539.51	2081.07
539.87	2092.72
540.22	2103.50
540.58	2114.66
540.94	2125.30
541.29	2134.95
541.65	2144.13
542.01	2153.97
542.37	2163.10
542.72	2172.62
543.08	2181.27
543.44	2190.33
543.79	2198.32
544.15	2206.11
544.51	2214.38
544.87	2222.75
545.22	2230.10
545.58	2236.98
545.94	2243.10
546.29	2248.48
546.65	2253.64
547.01	2258.67
547.36	2263.98
547.72	2269.20
548.07	2272.82
548.43	2276.10
548.79	2279.26
549.14	2282.91
549.50	2286.60
549.86	2289.14
550.21	2291.33
550.57	2294.09
550.92	2295.59
551.28	2297.33
551.64	2299.13
551.99	2300.99
552.35	2301.58
552.70	2302.68
553.06	2303.95
553.41	2304.85
553.77	2306.06
554.13	2307.09
554.48	2307.82
554.84	2307.97
555.19	2307.72
555.55	2307.31
555.90	2306.95
556.26	2306.81
556.61	2306.06
556.97	2304.33
557.32	2303.62
557.68	2302.48
558.03	2300.54
558.39	2299.14
558.74	2298.50
559.10	2297.39
559.45	2295.53
559.81	2294.09
560.16	2291.96
560.52	2290.03
560.87	2287.92
561.23	2284.68
561.58	2282.19
561.94	2278.69
562.29	2275.15
562.64	2272.53
563.00	2269.96
563.35	2267.79
563.71	2265.81
564.06	2263.58
564.42	2261.57
564.77	2259.28
565.12	2257.01
565.48	2254.68
565.83	2252.32
566.19	2249.89
566.54	2245.86
566.89	2242.07
567.25	2238.64
567.60	2235.06
567.96	2231.19
568.31	2227.67
568.66	2224.02
569.02	2219.61
569.37	2215.04
569.72	2211.11
570.08	2206.34
570.43	2201.65
570.78	2196.43
571.14	2190.70
571.49	2185.18
571.84	2180.23
572.20	2174.07
572.55	2168.34
572.90	2162.10
573.26	2155.34
573.61	2148.53
573.96	2142.45
574.31	2135.71
574.67	2128.79
575.02	2121.61
575.37	2114.62
575.72	2107.12
576.08	2100.79
576.43	2093.64
576.78	2087.27
577.13	2081.08
577.49	2074.44
577.84	2067.74
578.19	2061.62
578.54	2055.31
578.90	2049.34
579.25	2042.33
579.60	2035.27
579.95	2027.99
580.30	2021.72
580.66	2015.82
581.01	2008.55
581.36	2001.43
581.71	1994.71
582.06	1988.00
582.42	1981.91
582.77	1974.81
583.12	1967.80
583.47	1960.95
583.82	1954.71
584.17	1947.89
584.53	1941.16
584.88	1934.74
585.23	1927.66
585.58	1920.33
585.93	1913.14
586.28	1906.23
586.63	1899.36
586.98	1892.96
587.34	1886.93
587.69	1879.69
588.04	1872.78
588.39	1866.52
588.74	1859.35
589.09	1853.18
589.44	1846.40
589.79	1839.75
590.14	1833.70
590.49	1826.96
590.84	1820.40
591.19	1814.39
591.54	1807.76
591.89	1799.90
592.25	1792.67
592.60	1785.57
592.95	1778.61
593.30	1770.84
593.65	1763.37
594.00	1756.10
594.35	1750.40
594.70	1743.29
595.05	1736.76
595.40	1729.75
595.75	1722.31
596.10	1716.10
596.45	1709.40
596.80	1703.40
597.15	1696.97
597.50	1689.96
597.85	1684.22
598.19	1677.35
598.54	1670.53
598.89	1664.48
599.24	1659.12
599.59	1653.29
599.94	1648.05
600.29	1642.04
600.64	1636.81
600.99	1630.25
601.34	1624.44
601.69	1616.98
602.04	1610.42
602.39	1603.92
602.74	1598.06
603.08	1593.04
603.43	1587.71
603.78	1581.76
604.13	1575.65
604.48	1569.77
604.83	1564.87
605.18	1559.53
605.53	1553.88
605.87	1547.62
606.22	1541.74
606.57	1535.53
606.92	1529.24
607.27	1522.52
607.62	1516.17
607.96	1510.34
608.31	1505.25
608.66	1499.06
609.01	1492.86
609.36	1486.53
609.70	1479.93
610.05	1473.25
610.40	1466.33
610.75	1459.43
611.10	1453.25
611.44	1445.73
611.79	1438.23
612.14	1430.68
612.49	1422.55
612.83	1415.44
613.18	1408.07
613.53	1400.73
613.88	1392.83
614.22	1385.56
614.57	1378.26
614.92	1371.24
615.27	1363.65
615.61	1355.99
615.96	1348.88
616.31	1342.32
616.65	1335.91
617.00	1329.28
617.35	1322.44
617.70	1315.17
618.04	1307.60
618.39	1299.59
618.74	1292.77
619.08	1286.02
619.43	1278.92
619.78	1272.29
620.12	1265.44
620.47	1258.85
620.82	1251.62
621.16	1244.78
621.51	1237.91
621.85	1231.02
622.20	1224.00
622.55	1216.98
622.89	1210.05
623.24	1203.14
623.59	1195.68
623.93	1188.56
624.28	1181.87
624.62	1175.13
624.97	1168.65
625.32	1162.36
625.66	1156.17
626.01	1149.85
626.35	1143.56
626.70	1136.98
627.04	1131.12
627.39	1124.78
627.73	1118.36
628.08	1112.63
628.43	1106.29
628.77	1100.00
629.12	1093.72
629.46	1088.02
629.81	1082.04
630.15	1075.94
630.50	1069.71
630.84	1063.46
631.19	1057.30
631.53	1051.22
631.88	1044.78
632.22	1038.46
632.57	1032.56
632.91	1026.57
633.26	1020.50
633.60	1014.40
633.95	1008.76
634.29	1002.42
634.64	996.66
634.98	990.48
635.32	984.58
635.67	979.28
636.01	973.81
636.36	968.10
636.70	962.47
637.05	956.63
637.39	951.37
637.73	946.27
638.08	941.48
638.42	936.46
638.77	931.21
639.11	926.11
639.45	920.72
639.80	914.83
640.14	909.16
640.49	903.70
640.83	898.25
641.17	892.88
641.52	887.42
641.86	881.51
642.20	876.35
642.55	870.61
642.89	864.88
643.23	858.98
643.58	854.04
643.92	848.44
644.26	843.22
644.61	837.67
644.95	832.06
645.29	826.46
645.64	820.83
645.98	815.45
646.32	810.22
646.66	805.02
647.01	800.27
647.35	795.35
647.69	790.00
648.04	784.94
648.38	779.78
648.72	774.69
649.06	769.72
649.41	764.88
649.75	759.88
650.09	755.00
650.43	750.20
650.78	744.79
651.12	739.51
651.46	734.47
651.80	729.71
652.14	725.02
652.49	720.16
652.83	715.36
653.17	710.03
653.51	705.06
653.85	700.26
654.20	695.29
654.54	690.34
654.88	685.54
655.22	680.70
655.56	675.77
655.90	670.99
656.25	666.47
656.59	661.62
656.93	657.16
657.27	652.58
657.61	647.69
657.95	643.35
658.29	639.11
658.64	634.92
658.98	630.16
659.32	625.43
659.66	621.08
660.00	616.55
660.34	612.30
660.68	607.72
661.02	603.40
661.36	599.28
661.70	595.27
662.05	591.43
662.39	587.53
662.73	583.80
663.07	580.22
663.41	576.34
663.75	572.50
664.09	568.52
664.43	564.67
664.77	561.12
665.11	557.26
665.45	553.66
665.79	549.97
666.13	546.64
666.47	543.12
666.81	539.56
667.15	536.14
667.49	532.92
667.83	529.87
668.17	526.59
668.51	523.34
668.85	520.26
669.19	517.00
669.53	513.83
669.87	510.54
670.21	507.20
670.55	503.96
670.89	501.24
671.23	498.41
671.57	495.66
671.91	492.85
672.25	489.99
672.58	487.12
672.92	484.29
673.26	481.36
673.60	478.77
673.94	476.12
674.28	473.38
674.62	470.91
674.96	468.16
675.30	465.62
675.64	462.95
675.97	460.26
676.31	457.89
676.65	455.44
676.99	453.09
677.33	450.56
677.67	448.16
678.01	445.37
678.34	442.97
678.68	440.40
679.02	437.88
679.36	435.51
679.70	433.06
680.04	430.70
680.37	428.34
680.71	425.92
681.05	423.68
681.39	421.52
681.73	419.13
682.06	417.10
682.40	414.84
682.74	412.65
683.08	410.53
683.42	408.18
683.75	406.06
684.09	403.80
684.43	401.76
684.77	399.64
685.10	397.69
685.44	395.46
685.78	393.39
686.12	391.47
686.45	389.36
686.79	387.41
687.13	385.49
687.46	383.59
687.80	381.67
688.14	379.64
688.48	377.83
688.81	375.82
689.15	373.88
689.49	371.96
689.82	370.13
690.16	368.07
690.50	366.24
690.83	364.25
691.17	362.31
691.51	360.41
691.84	358.74
692.18	356.99
692.52	355.41
692.85	353.81
693.19	352.32
693.52	350.81
693.86	349.19
694.20	347.71
694.53	346.22
694.87	344.66
695.21	343.05
695.54	341.28
695.88	339.68
696.21	338.07
696.55	336.69
696.88	335.16
697.22	333.67
697.56	332.26
697.89	330.79
698.23	329.47
698.56	328.08
698.90	326.72
699.23	325.30
699.57	323.81
699.90	322.39
700.24	320.79
700.58	319.40
700.91	318.10
701.25	316.90
701.58	315.55
701.92	314.30
702.25	313.04
702.59	311.75
702.92	310.61
703.26	309.45
703.59	308.18
703.93	307.33
704.26	306.30
704.60	305.14
704.93	304.09
705.26	302.87
705.60	301.90
705.93	300.73
706.27	299.75
706.60	298.86
706.94	297.98
707.27	297.03
707.61	296.05
707.94	294.93
708.27	293.69
708.61	292.69
708.94	291.72
709.28	290.83
709.61	289.99
709.94	289.08
710.28	288.20
710.61	287.37
710.95	286.11
711.28	285.38
711.61	284.54
711.95	283.78
712.28	282.97
712.61	282.09
712.95	281.49
713.28	280.80
713.61	279.86
713.95	279.00
714.28	278.21
714.61	277.39
714.95	276.70
715.28	275.94
715.61	275.16
715.95	274.45
716.28	273.68
716.61	273.01
716.95	272.22
717.28	271.44
717.61	270.78
717.94	270.17
718.28	269.30
718.61	268.68
718.94	267.90
719.27	267.31
719.61	266.64
719.94	265.87
720.27	265.03
720.60	264.45
720.94	263.85
721.27	263.22
721.60	262.76
721.93	262.13
722.27	261.62
722.60	261.16
722.93	260.47
723.26	260.01
723.59	259.40
723.93	258.98
724.26	258.45
724.59	257.90
724.92	257.45
725.25	257.00
725.59	256.50
725.92	256.13
726.25	255.69
726.58	255.28
726.91	254.76
727.24	254.37
727.57	253.93
727.91	253.41
728.24	253.01
728.57	252.49
728.90	252.15
729.23	251.70
729.56	251.42
729.89	251.03
730.22	250.52
730.55	250.01
730.89	249.56
731.22	249.19
731.55	248.75
731.88	248.32
732.21	247.87
732.54	247.38
732.87	246.92
733.20	246.47
733.53	246.07
733.86	245.78
734.19	245.34
734.52	245.05
734.85	244.95
735.18	244.54
735.51	244.36
735.84	243.94
736.17	243.66
736.50	243.12
736.83	243.25
737.16	242.98
737.49	242.73
737.82	242.42
738.15	242.07
738.48	241.71
738.81	241.40
739.14	241.02
739.47	240.72
739.80	240.42
740.13	240.17
740.46	239.84
740.79	239.40
741.12	239.08
741.45	238.73
741.78	238.32
742.11	238.11
742.44	237.71
742.77	237.53
743.10	237.21
743.43	236.89
743.75	236.19
744.08	236.31
744.41	235.99
744.74	235.63
745.07	235.39
745.40	235.21
745.73	234.99
746.06	234.78
746.39	234.60
746.71	234.30
747.04	233.95
747.37	233.65
747.70	233.45
748.03	233.28
748.36	233.07
748.68	232.71
749.01	232.36
749.34	232.06
749.67	231.80
750.00	231.65
750.33	231.67
750.65	231.46
750.98	230.83
751.31	230.68
751.64	230.50
751.97	230.42
752.29	230.19
752.62	229.86
752.95	229.60
753.28	229.33
753.60	229.17
753.93	229.10
754.26	228.91
754.59	228.68
754.91	228.46
755.24	228.16
755.57	228.03
755.90	227.86
756.22	227.76
756.55	227.57
756.88	227.27
757.20	226.75
757.53	226.46
757.86	226.24
758.19	226.05
758.51	225.90
758.84	225.55
759.17	225.31
759.49	225.12
759.82	225.18
760.15	225.02
760.47	224.81
760.80	224.54
761.13	224.47
761.45	224.25
761.78	224.09
762.11	224.01
762.43	223.80
762.76	223.64
763.08	223.48
763.41	223.30
763.74	223.17
764.06	223.15
764.39	223.00
764.71	222.91
765.04	222.74
765.37	222.50
765.69	222.41
766.02	222.31
766.34	222.24
766.67	221.98
767.00	221.95
767.32	222.11
767.65	222.19
767.97	222.04
768.30	221.98
768.62	221.90
768.95	221.70
769.27	221.57
769.60	221.52
769.92	221.33
770.25	221.19
770.57	221.02
770.90	220.88
771.22	220.82
771.55	220.73
771.87	220.63
772.20	220.57
772.52	220.70
772.85	221.04
773.17	220.90
773.50	220.81
773.82	220.67
774.15	220.33
774.47	220.03
774.80	219.90
775.12	219.80
775.45	219.60
775.77	219.60
776.09	219.52
776.42	219.41
776.74	219.50
777.07	219.45
777.39	219.40
777.72	219.29
778.04	219.22
778.36	219.12
778.69	219.09
779.01	219.00
779.33	218.70
779.66	218.16
779.98	218.04
780.31	217.92
780.63	217.98
780.95	217.97
781.28	217.88
781.60	217.75
781.92	217.70
782.25	217.69
782.57	217.62
782.89	217.63
783.22	217.55
783.54	217.27
783.86	217.21
784.19	217.17
784.51	217.25
784.83	217.23
785.16	217.11
785.48	217.08
785.80	217.06
786.12	216.95
786.45	216.99
786.77	217.00
787.09	216.96
787.42	216.75
787.74	216.63
788.06	216.55
788.38	216.54
788.71	216.47
789.03	216.46
789.35	216.45
789.67	216.29
789.99	216.28
790.32	216.20
790.64	216.18
790.96	216.35
791.28	216.15
791.61	216.05
791.93	216.04
792.25	215.95
792.57	216.17
792.89	216.17
793.21	216.13
793.54	216.06
793.86	215.98
794.18	215.90
794.50	215.87
794.82	215.92
795.14	215.86
795.47	215.84
795.79	215.81
796.11	215.54
796.43	215.48
796.75	215.39
797.07	215.40
797.39	215.30
797.71	215.06
798.04	215.01
798.36	215.01
798.68	214.93
799.00	214.92
799.32	214.69
799.64	214.68
799.96	214.60
800.28	214.60
800.60	214.57
800.92	214.63
801.24	214.60
801.56	214.53
801.89	214.46
802.21	214.47
802.53	214.40
802.85	214.46
803.17	214.55
803.49	214.47
803.81	214.49
804.13	214.48
804.45	214.38
804.77	214.38
805.09	214.37
805.41	214.32
805.73	214.19
806.05	214.05
806.37	213.97
806.69	213.94
807.01	213.83
807.33	213.77
807.65	213.63
807.97	213.74
808.28	213.73
808.60	213.80
808.92	213.67
809.24	213.82
809.56	213.82
809.88	213.75
810.20	213.78
810.52	213.75
810.84	213.63
811.16	213.62
811.48	213.68
811.80	213.74
812.12	213.78
812.43	213.80
812.75	213.82
813.07	213.72
813.39	213.71
813.71	213.66
814.03	213.67
814.35	213.68
814.67	213.48
814.98	213.46
815.30	213.41
815.62	213.38
815.94	213.13
816.26	213.12
816.58	213.01
816.89	213.01
817.21	212.94
817.53	212.99
817.85	213.01
818.17	212.91
818.48	212.75
818.80	212.79
819.12	212.69
819.44	212.67
819.76	212.64
820.07	212.59
820.39	212.64
820.71	212.62
821.03	212.58
821.34	212.55
821.66	212.51
821.98	212.50
822.30	212.43
822.61	212.65
822.93	212.58
823.25	212.56
823.57	212.54
823.88	212.62
824.20	212.59
824.52	212.63
824.83	212.59
825.15	212.58
825.47	212.52
825.79	212.62
826.10	212.54
826.42	212.56
826.74	212.70
827.05	212.67
827.37	212.68
827.69	212.63
828.00	212.65
828.32	212.67
828.64	212.59
828.95	212.81
829.27	212.71
829.58	212.75
829.90	212.83
830.22	212.84
830.53	212.65
830.85	212.65
831.17	212.47
831.48	212.50
831.80	212.53
832.11	212.51
832.43	212.44
832.75	212.42
833.06	212.61
833.38	212.43
833.69	212.44
834.01	212.42
834.32	212.44
834.64	212.38
834.96	212.37
835.27	212.43
835.59	212.32
835.90	212.22
836.22	212.17
836.53	212.11
836.85	212.01
837.16	212.41
837.48	212.39
837.79	212.50
838.11	212.47
838.42	212.49
838.74	212.55
839.05	212.55
839.37	212.59
839.68	212.44
840.00	212.37
840.31	212.38
840.63	212.42
840.94	212.43
841.26	212.42
841.57	212.46
841.88	212.55
842.20	212.46
842.51	212.50
842.83	212.47
843.14	212.73
843.46	212.74
843.77	212.56
844.08	212.60
844.40	212.54
844.71	212.53
845.03	212.43
845.34	212.29
845.65	212.23
845.97	212.21
846.28	212.16
846.60	212.17
846.91	212.19
847.22	212.08
847.54	212.11
847.85	212.14
848.16	211.99
848.48	211.85
848.79	212.02
849.10	211.98
849.42	211.98
849.73	211.70
850.04	211.76
850.36	211.65
850.67	211.64
850.98	211.60
851.30	211.66
851.61	211.68
851.92	211.85
852.23	211.95
852.55	211.99
852.86	211.95
853.17	212.06
853.49	212.01
853.80	212.13
854.11	212.17
854.42	212.17
854.74	212.17
855.05	212.13
855.36	211.95
855.67	211.92
855.99	212.03
856.30	212.46
856.61	212.37
856.92	212.39
857.23	212.40
857.55	212.41
857.86	212.43
858.17	212.49
858.48	212.31
858.79	212.29
859.11	212.29
859.42	212.39
859.73	212.34
860.04	212.40
860.35	212.29
860.66	212.17
860.98	212.16
861.29	212.26
861.60	212.33
861.91	212.43
862.22	212.44
862.53	212.40
862.84	211.93
863.16	212.13
863.47	212.07
863.78	212.03
864.09	212.13
864.40	212.07
864.71	212.05
865.02	212.17
865.33	212.08
865.64	212.03
865.95	211.98
866.27	212.24
866.58	212.20
866.89	212.25
867.20	212.30
867.51	212.22
867.82	212.25
868.13	212.25
868.44	212.10
868.75	212.13
869.06	212.12
869.37	212.18
869.68	211.95
869.99	211.97
870.30	211.98
870.61	211.99
870.92	211.94
871.23	211.87
871.54	211.86
871.85	212.03
872.16	212.03
872.47	212.03
872.78	211.81
873.09	211.90
873.40	211.94
873.71	211.98
874.02	212.00
874.33	212.00
874.64	211.94
874.95	212.09
875.26	212.02
875.56	212.04
875.87	212.04
876.18	212.10
876.49	212.47
876.80	212.47
877.11	212.35
877.42	212.35
877.73	212.40
878.04	212.36
878.35	212.37
878.66	212.37
878.96	212.28
879.27	212.27
879.58	212.16
879.89	212.10
880.20	212.21
880.51	212.31
880.82	212.27
881.12	212.30
881.43	212.15
881.74	212.10
882.05	211.95
882.36	211.99
882.67	212.03
882.97	211.58
883.28	211.53
883.59	211.51
883.90	211.56
884.21	211.64
884.51	211.54
884.82	211.41
885.13	211.47
885.44	211.52
885.74	211.49
886.05	211.45
886.36	211.42
886.67	211.25
886.98	211.36
887.28	211.31
887.59	211.29
887.90	211.35
888.20	211.32
888.51	211.51
888.82	211.50
889.13	211.50
889.43	211.81
889.74	211.81
890.05	211.81
890.35	211.75
890.66	211.67
890.97	211.71
891.28	211.70
891.58	211.61
891.89	211.63
892.20	211.61
892.50	211.59
892.81	211.51
893.12	211.52
893.42	211.34
893.73	211.38
894.04	211.39
894.34	211.37
894.65	211.42
894.95	211.35
895.26	211.22
895.57	211.32
895.87	211.03
896.18	211.12
896.48	211.11
896.79	211.17
897.10	211.15
897.40	211.22
897.71	211.25
898.01	211.30
898.32	211.28
898.63	211.25
898.93	211.28
899.24	211.37
899.54	211.37
899.85	211.34
900.15	211.33
900.46	211.29
900.76	211.35
901.07	211.34
901.38	211.32
901.68	211.46
901.99	211.22
902.29	211.21
902.60	211.07
902.90	211.05
903.21	211.00
903.51	210.92
903.82	210.95
904.12	210.92
904.43	210.96
904.73	211.00
905.03	211.02
905.34	211.35
905.64	211.28
905.95	211.27
906.25	211.27
906.56	211.26
906.86	211.25
907.17	211.23
907.47	211.22
907.77	211.20
908.08	211.06
908.38	211.12
908.69	211.20
908.99	211.37
909.30	211.48
909.60	211.49
909.90	211.55
910.21	211.45
910.51	211.42
910.81	211.45
911.12	211.40
911.42	211.37
911.73	211.05
912.03	211.11
912.33	211.13
912.64	211.15
912.94	211.10
913.24	211.06
913.55	211.05
913.85	211.08
914.15	211.14
914.46	211.23
914.76	211.17
915.06	211.14
915.37	211.06
915.67	211.00
915.97	211.00
916.27	210.95
916.58	211.00
916.88	210.99
917.18	210.94
917.49	211.20
917.79	211.22
918.09	211.25
918.39	211.30
918.70	211.29
919.00	211.25
919.30	211.44
919.60	211.46
919.91	211.44
920.21	211.43
920.51	211.35
920.81	211.31
921.12	211.45
921.42	211.41
921.72	211.46
922.02	211.41
922.32	211.46
922.63	211.49
922.93	211.57
923.23	211.61
923.53	211.57
923.83	211.33
924.13	211.31
924.44	211.25
924.74	211.32
925.04	211.40
925.34	211.39
925.64	211.25
925.94	211.16
926.24	211.37
926.55	211.43
926.85	211.46
927.15	211.49
927.45	211.51
927.75	211.54
928.05	211.54
928.35	211.57
928.65	211.63
928.95	211.66
929.26	211.54
929.56	211.65
929.86	211.66
930.16	211.64
930.46	211.63
930.76	211.73
931.06	211.59
931.36	211.46
931.66	211.51
931.96	211.57
932.26	211.69
932.56	211.54
932.86	211.49
933.16	211.54
933.46	211.47
933.76	211.42
934.06	211.43
934.36	211.52
934.66	211.52
934.96	211.47
935.26	211.52
935.56	211.60
935.86	211.47
936.16	211.35
936.46	211.30
936.76	211.32
937.06	211.29
937.36	211.25
937.66	211.29
937.96	211.35
938.26	211.20
938.56	211.25
938.86	211.22
939.16	211.29
939.46	211.30
939.76	211.31
940.06	211.28
940.35	211.23
940.65	211.05
940.95	211.04
941.25	210.96
941.55	210.89
941.85	210.84
942.15	211.00
942.45	211.19
942.75	211.30
943.04	211.28
943.34	211.31
943.64	211.25
943.94	211.24
944.24	211.17
944.54	211.23
944.84	211.12
945.13	211.07
945.43	211.02
945.73	210.98
946.03	210.97
946.33	211.00
946.62	210.95
946.92	210.92
947.22	210.94
947.52	210.89
947.82	210.96
948.11	210.89
948.41	210.68
948.71	210.57
949.01	210.52
949.31	210.55
949.60	210.60
949.90	210.64
950.20	210.60
950.50	210.59
950.79	210.60
951.09	210.62
951.39	210.62
951.69	210.60
951.98	210.65
952.28	210.66
952.58	210.66
952.87	210.67
953.17	210.75
953.47	210.71
953.76	210.79
954.06	210.69
954.36	210.67
954.66	210.73
954.95	210.80
955.25	210.79
955.55	210.84
955.84	210.67
956.14	210.79
956.44	210.82
956.73	210.80
957.03	210.83
957.32	210.87
957.62	210.93
957.92	211.01
958.21	210.98
958.51	211.41
958.81	211.43
959.10	211.51
959.40	211.60
959.69	211.59
959.99	211.67
960.29	211.77
960.58	211.81
960.88	211.91
961.17	211.90
961.47	211.89
961.76	211.93
962.06	212.08
962.36	212.08
962.65	212.11
962.95	212.10
963.24	212.05
963.54	212.14
963.83	212.12
964.13	212.06
964.42	212.01
964.72	211.68
965.01	211.68
965.31	211.64
965.60	211.54
965.90	211.76
966.19	211.68
966.49	211.62
966.78	211.57
967.08	211.52
967.37	211.51
967.67	211.57
967.96	211.51
968.26	211.46
968.55	211.45
968.85	211.43
969.14	211.46
969.43	211.50
969.73	211.35
970.02	211.38
970.32	211.39
970.61	211.40
970.91	211.38
971.20	211.30
971.49	211.31
971.79	211.47
972.08	211.31
972.38	211.30
972.67	211.24
972.96	211.35
973.26	211.30
973.55	211.42
973.85	211.36
974.14	211.39
974.43	211.40
974.73	211.35
975.02	211.35
975.31	211.34
975.61	211.34
975.90	211.38
976.19	211.30
976.49	211.30
976.78	211.35
977.07	211.38
977.37	211.44
977.66	211.48
977.95	211.33
978.24	211.29
978.54	211.44
978.83	211.50
979.12	211.45
979.42	211.50
979.71	211.44
980.00	211.44
980.29	211.38
980.59	211.34
980.88	211.39
981.17	211.36
981.46	211.34
981.76	211.25
982.05	211.35
982.34	211.42
982.63	211.42
982.93	211.27
983.22	211.29
983.51	211.33
983.80	211.30
984.09	211.37
984.39	211.34
984.68	211.23
984.97	211.17
985.26	211.08
985.55	210.97
985.85	210.87
986.14	210.93
986.43	211.02
986.72	211.01
987.01	210.90
987.30	210.87
987.59	210.85
987.89	210.88
988.18	210.76
988.47	210.76
988.76	210.70
989.05	210.76
989.34	210.67
989.63	210.70
989.92	210.70
990.22	210.60
990.51	210.62
990.80	210.61
991.09	210.66
991.38	210.81
991.67	210.84
991.96	210.82
992.25	210.83
992.54	210.72
992.83	210.67
993.12	210.73
993.41	210.78
993.70	210.96
993.99	211.09
994.28	211.14
994.58	211.13
994.87	211.15
995.16	211.06
995.45	211.05
995.74	210.94
996.03	210.98
996.32	211.06
996.61	211.12
996.90	211.00
997.19	210.93
997.48	210.87
997.77	210.86
998.06	210.92
998.34	210.90
998.63	210.93
998.92	210.95
999.21	210.96
999.50	211.02
999.79	210.88
1000.08	210.80
1000.37	210.81
1000.66	210.75
1000.95	210.85
1001.24	210.93
1001.53	211.02
1001.82	211.00
1002.11	210.89
1002.40	210.91
1002.68	210.95
1002.97	211.33
1003.26	211.40
1003.55	211.35
1003.84	211.39
1004.13	211.44
1004.42	211.40
1004.71	211.36
1004.99	211.43
1005.28	211.44
1005.57	211.47
1005.86	211.43
1006.15	211.34
1006.44	211.30
1006.72	211.36
1007.01	211.30
1007.30	211.24
1007.59	211.17
1007.88	211.19
1008.17	211.24
1008.45	211.19
1008.74	211.07
1009.03	210.87
1009.32	210.87
1009.60	210.92
1009.89	210.86
1010.18	210.76
1010.47	210.75
1010.76	210.79
1011.04	210.78
1011.33	210.82
1011.62	210.84
1011.91	210.86
1012.19	210.95
1012.48	210.91
1012.77	210.94
1013.05	211.10
1013.34	211.15
1013.63	211.11
1013.92	211.11
1014.20	211.16
1014.49	211.15
1014.78	211.21
1015.06	211.11
1015.35	211.14
1015.64	211.19
1015.92	211.25
1016.21	211.30
1016.50	211.31
1016.78	211.34
1017.07	211.35
1017.36	211.30
1017.64	211.21
1017.93	211.34
1018.22	211.34
1018.50	211.38
1018.79	211.30
1019.08	211.12
1019.36	211.16
1019.65	211.24
1019.93	211.43
1020.22	211.38
1020.51	211.60
1020.79	211.57
1021.08	210.90
1021.36	210.90
1021.65	210.20
1021.94	210.70
1022.22	211.60
1022.51	211.60
1022.79	214.40
1023.08	210.70
1023.36	215.95
1023.65	210.50
>>>>>End Processed Spectral Data<<<<<
