SpectraSuite Data File
++++++++++++++++++++++++++++++++++++
Date: Mon Feb 25 16:59:29 EST 2013
User: group
Dark Spectrum Present: No
Reference Spectrum Present: No
Number of Sampled Component Spectra: 1
Spectrometers: USB2E7196
Integration Time (usec): 104000 (USB2E7196)
Spectra Averaged: 20 (USB2E7196)
Boxcar Smoothing: 10 (USB2E7196)
Correct for Electrical Dark: No (USB2E7196)
Strobe/Lamp Enabled: No (USB2E7196)
Correct for Detector Non-linearity: No (USB2E7196)
Correct for Stray Light: No (USB2E7196)
Number of Pixels in Processed Spectrum: 2048
>>>>>Begin Processed Spectral Data<<<<<
339.09	0.00
339.48	198.80
339.86	199.45
340.24	201.60
340.63	202.95
341.01	209.55
341.39	205.65
341.78	208.00
342.16	209.45
342.54	209.50
342.93	198.43
343.31	208.49
343.69	209.01
344.07	209.50
344.46	209.99
344.84	210.36
345.22	210.36
345.60	210.67
345.99	210.82
346.37	210.91
346.75	210.96
347.13	211.03
347.52	211.11
347.90	211.35
348.28	211.38
348.66	211.42
349.05	211.39
349.43	211.48
349.81	211.42
350.19	211.51
350.57	211.61
350.96	211.71
351.34	211.80
351.72	211.86
352.10	211.94
352.48	211.97
352.87	212.04
353.25	212.14
353.63	212.08
354.01	212.07
354.39	212.13
354.77	212.18
355.15	212.30
355.54	212.31
355.92	212.18
356.30	212.26
356.68	212.48
357.06	212.46
357.44	212.40
357.82	212.46
358.20	212.47
358.58	212.43
358.97	212.41
359.35	212.43
359.73	212.60
360.11	212.62
360.49	212.68
360.87	212.74
361.25	212.80
361.63	213.04
362.01	213.21
362.39	213.20
362.77	213.24
363.15	213.33
363.53	213.37
363.91	213.37
364.29	213.40
364.67	213.14
365.05	213.22
365.43	213.29
365.81	213.37
366.19	213.50
366.57	213.64
366.95	213.67
367.33	213.64
367.71	213.58
368.09	213.68
368.47	213.61
368.85	213.54
369.23	213.63
369.61	213.40
369.99	213.46
370.37	213.50
370.75	213.68
371.13	213.48
371.51	213.36
371.89	213.42
372.27	213.35
372.65	213.25
373.03	213.19
373.41	213.12
373.78	213.05
374.16	212.83
374.54	212.81
374.92	212.74
375.30	212.67
375.68	212.58
376.06	212.59
376.44	212.56
376.82	212.56
377.19	212.45
377.57	212.44
377.95	212.21
378.33	212.10
378.71	211.86
379.09	211.89
379.47	211.94
379.84	211.85
380.22	211.81
380.60	211.77
380.98	211.66
381.36	211.69
381.73	211.57
382.11	211.51
382.49	211.39
382.87	211.33
383.25	211.30
383.62	211.57
384.00	211.34
384.38	211.28
384.76	211.28
385.13	211.39
385.51	211.41
385.89	211.27
386.27	211.31
386.64	211.33
387.02	211.30
387.40	211.25
387.78	211.25
388.15	211.26
388.53	211.22
388.91	211.30
389.29	211.21
389.66	211.27
390.04	211.33
390.42	211.29
390.79	211.27
391.17	211.27
391.55	210.98
391.92	211.03
392.30	211.10
392.68	210.97
393.05	210.87
393.43	210.81
393.81	210.98
394.18	210.87
394.56	210.86
394.94	210.90
395.31	210.85
395.69	210.95
396.06	210.99
396.44	211.03
396.82	210.95
397.19	211.17
397.57	211.20
397.95	211.32
398.32	211.30
398.70	211.39
399.07	211.53
399.45	211.53
399.82	211.63
400.20	211.56
400.58	211.70
400.95	211.67
401.33	211.85
401.70	212.12
402.08	212.26
402.45	212.34
402.83	212.55
403.20	212.70
403.58	212.82
403.95	212.95
404.33	213.22
404.71	213.42
405.08	213.70
405.46	213.85
405.83	214.03
406.21	214.22
406.58	214.48
406.96	214.70
407.33	215.00
407.70	215.35
408.08	215.94
408.45	216.41
408.83	216.90
409.20	217.25
409.58	217.52
409.95	218.06
410.33	218.62
410.70	219.01
411.08	219.67
411.45	220.28
411.82	220.91
412.20	221.61
412.57	222.50
412.95	223.01
413.32	223.94
413.69	224.82
414.07	225.83
414.44	226.90
414.82	227.96
415.19	229.26
415.56	230.57
415.94	231.89
416.31	233.44
416.68	235.01
417.06	236.82
417.43	238.63
417.81	240.60
418.18	242.70
418.55	244.92
418.93	247.15
419.30	249.47
419.67	252.03
420.04	254.66
420.42	257.43
420.79	260.79
421.16	264.02
421.54	267.39
421.91	270.93
422.28	274.61
422.66	278.53
423.03	282.42
423.40	286.31
423.77	290.50
424.15	294.72
424.52	299.13
424.89	304.04
425.26	308.77
425.64	313.35
426.01	318.31
426.38	323.55
426.75	328.93
427.13	334.45
427.50	340.18
427.87	346.30
428.24	352.28
428.61	358.01
428.99	364.45
429.36	371.32
429.73	378.19
430.10	385.00
430.47	392.03
430.85	399.35
431.22	407.15
431.59	415.45
431.96	423.30
432.33	432.20
432.70	440.64
433.08	450.50
433.45	459.92
433.82	469.42
434.19	479.95
434.56	490.25
434.93	500.21
435.30	510.25
435.68	521.14
436.05	532.18
436.42	543.40
436.79	553.47
437.16	564.50
437.53	575.93
437.90	587.28
438.27	598.54
438.64	610.18
439.01	621.05
439.38	630.94
439.75	640.60
440.13	651.34
440.50	661.61
440.87	670.14
441.24	678.96
441.61	688.70
441.98	696.11
442.35	704.83
442.72	713.42
443.09	721.89
443.46	727.29
443.83	731.40
444.20	734.66
444.57	739.40
444.94	742.00
445.31	744.73
445.68	747.51
446.05	749.15
446.42	749.00
446.79	748.62
447.16	747.85
447.53	747.61
447.90	744.40
448.27	741.15
448.64	736.25
449.01	732.71
449.37	725.93
449.74	719.37
450.11	711.43
450.48	702.79
450.85	693.79
451.22	686.25
451.59	678.77
451.96	671.85
452.33	662.36
452.70	653.81
453.07	643.37
453.43	632.80
453.80	622.70
454.17	612.80
454.54	603.47
454.91	593.47
455.28	583.75
455.65	574.53
456.02	565.42
456.38	557.59
456.75	547.94
457.12	539.83
457.49	531.85
457.86	523.95
458.23	517.24
458.59	509.92
458.96	502.50
459.33	495.93
459.70	489.25
460.07	483.94
460.43	477.85
460.80	472.16
461.17	467.02
461.54	461.67
461.91	456.77
462.27	451.71
462.64	447.56
463.01	442.69
463.38	438.16
463.74	433.40
464.11	429.36
464.48	425.94
464.85	422.05
465.21	419.09
465.58	415.93
465.95	412.13
466.32	408.97
466.68	405.82
467.05	402.67
467.42	399.49
467.78	396.11
468.15	392.98
468.52	390.75
468.88	387.77
469.25	385.10
469.62	382.89
469.98	380.51
470.35	378.17
470.72	376.16
471.08	373.77
471.45	371.91
471.82	369.86
472.18	367.63
472.55	366.08
472.92	364.16
473.28	362.43
473.65	360.82
474.02	359.12
474.38	357.80
474.75	356.56
475.11	355.34
475.48	354.40
475.85	353.63
476.21	352.70
476.58	351.93
476.94	351.34
477.31	350.65
477.67	350.00
478.04	349.48
478.41	349.03
478.77	349.05
479.14	348.53
479.50	348.35
479.87	348.30
480.23	348.23
480.60	348.06
480.96	347.96
481.33	348.26
481.69	348.53
482.06	348.63
482.42	348.77
482.79	349.00
483.15	349.45
483.52	349.96
483.88	350.38
484.25	350.88
484.61	351.40
484.98	351.89
485.34	352.77
485.71	353.63
486.07	354.53
486.44	355.14
486.80	356.22
487.17	357.26
487.53	358.59
487.90	359.94
488.26	361.55
488.62	363.24
488.99	364.73
489.35	366.23
489.72	367.98
490.08	369.85
490.44	371.66
490.81	373.47
491.17	375.24
491.54	377.35
491.90	379.50
492.26	381.87
492.63	384.33
492.99	386.52
493.36	388.95
493.72	391.54
494.08	394.19
494.45	396.95
494.81	399.90
495.17	402.68
495.54	405.73
495.90	408.65
496.26	411.63
496.63	414.56
496.99	417.85
497.35	421.09
497.72	424.37
498.08	427.84
498.44	431.40
498.80	435.10
499.17	438.60
499.53	442.22
499.89	445.88
500.26	449.40
500.62	453.09
500.98	456.85
501.34	460.56
501.71	464.34
502.07	468.02
502.43	471.64
502.79	475.25
503.16	478.72
503.52	482.29
503.88	485.79
504.24	489.53
504.60	493.10
504.97	496.70
505.33	500.25
505.69	503.93
506.05	507.47
506.41	510.77
506.78	513.98
507.14	517.14
507.50	520.23
507.86	523.47
508.22	526.72
508.59	529.73
508.95	532.64
509.31	535.67
509.67	538.41
510.03	541.22
510.39	544.11
510.75	546.75
511.12	549.40
511.48	552.06
511.84	554.54
512.20	557.02
512.56	559.38
512.92	561.81
513.28	564.05
513.64	566.06
514.00	568.21
514.37	570.34
514.73	572.38
515.09	574.57
515.45	576.35
515.81	578.02
516.17	579.56
516.53	581.05
516.89	582.51
517.25	584.16
517.61	585.68
517.97	586.94
518.33	588.30
518.69	589.46
519.05	590.69
519.41	591.91
519.77	593.13
520.13	594.15
520.49	594.88
520.85	595.75
521.21	596.83
521.57	597.67
521.93	598.52
522.29	599.48
522.65	600.00
523.01	600.78
523.37	601.44
523.73	602.41
524.09	603.27
524.45	603.94
524.81	604.77
525.17	605.68
525.53	606.60
525.89	607.39
526.25	608.27
526.61	608.87
526.97	609.54
527.33	610.09
527.68	611.29
528.04	612.29
528.40	612.92
528.76	613.67
529.12	614.76
529.48	615.84
529.84	616.74
530.20	617.94
530.56	619.14
530.91	620.38
531.27	621.60
531.63	622.89
531.99	624.23
532.35	625.48
532.71	626.72
533.07	628.10
533.42	629.91
533.78	631.42
534.14	633.09
534.50	634.63
534.86	636.54
535.21	637.70
535.57	639.54
535.93	641.38
536.29	643.24
536.65	644.95
537.00	646.62
537.36	648.40
537.72	650.00
538.08	651.71
538.44	653.51
538.79	655.44
539.15	657.35
539.51	659.40
539.87	661.44
540.22	663.29
540.58	665.55
540.94	667.50
541.29	669.65
541.65	671.62
542.01	673.88
542.37	676.11
542.72	678.41
543.08	680.33
543.44	682.65
543.79	684.54
544.15	686.75
544.51	689.32
544.87	691.79
545.22	694.17
545.58	696.63
545.94	698.92
546.29	701.00
546.65	703.27
547.01	705.28
547.36	707.69
547.72	710.23
548.07	712.29
548.43	714.39
548.79	716.65
549.14	719.11
549.50	721.40
549.86	723.48
550.21	725.80
550.57	728.41
550.92	730.57
551.28	733.11
551.64	735.42
551.99	737.65
552.35	739.82
552.70	742.19
553.06	744.44
553.41	746.80
553.77	749.67
554.13	752.21
554.48	755.00
554.84	757.50
555.19	759.71
555.55	762.22
555.90	764.49
556.26	766.58
556.61	768.74
556.97	770.68
557.32	772.91
557.68	775.14
558.03	777.14
558.39	779.27
558.74	781.42
559.10	783.39
559.45	785.50
559.81	787.68
560.16	789.50
560.52	791.65
560.87	793.76
561.23	795.08
561.58	796.99
561.94	798.45
562.29	799.71
562.64	801.52
563.00	802.98
563.35	804.90
563.71	807.01
564.06	808.83
564.42	810.97
564.77	812.91
565.12	814.70
565.48	816.75
565.83	818.47
566.19	820.43
566.54	822.19
566.89	823.58
567.25	825.41
567.60	827.46
567.96	829.16
568.31	831.03
568.66	832.77
569.02	834.08
569.37	835.42
569.72	837.07
570.08	838.34
570.43	839.68
570.78	840.60
571.14	841.28
571.49	842.08
571.84	842.93
572.20	843.38
572.55	844.10
572.90	844.27
573.26	844.78
573.61	844.81
573.96	845.22
574.31	845.34
574.67	845.26
575.02	844.79
575.37	844.37
575.72	843.52
576.08	843.32
576.43	842.85
576.78	842.67
577.13	842.26
577.49	842.07
577.84	841.64
578.19	841.35
578.54	841.39
578.90	841.35
579.25	840.79
579.60	840.05
579.95	839.23
580.30	838.63
580.66	837.94
581.01	837.14
581.36	836.05
581.71	835.22
582.06	834.43
582.42	833.77
582.77	832.81
583.12	832.03
583.47	831.11
583.82	830.33
584.17	829.25
584.53	828.40
584.88	827.09
585.23	826.12
585.58	824.91
585.93	823.44
586.28	822.05
586.63	820.88
586.98	820.05
587.34	819.02
587.69	817.75
588.04	816.73
588.39	815.59
588.74	814.27
589.09	813.39
589.44	811.73
589.79	810.45
590.14	809.46
590.49	808.34
590.84	807.09
591.19	805.95
591.54	804.68
591.89	803.11
592.25	802.03
592.60	800.26
592.95	798.65
593.30	797.01
593.65	795.16
594.00	793.24
594.35	792.61
594.70	790.83
595.05	789.38
595.40	787.54
595.75	785.63
596.10	784.06
596.45	782.19
596.80	780.79
597.15	779.09
597.50	777.13
597.85	775.38
598.19	773.36
598.54	771.42
598.89	769.52
599.24	767.88
599.59	765.81
599.94	763.98
600.29	762.20
600.64	760.22
600.99	758.37
601.34	756.63
601.69	753.45
602.04	751.53
602.39	749.49
602.74	747.46
603.08	745.98
603.43	744.46
603.78	742.57
604.13	740.42
604.48	738.49
604.83	736.93
605.18	735.14
605.53	733.18
605.87	731.20
606.22	729.52
606.57	727.26
606.92	725.14
607.27	723.16
607.62	721.23
607.96	719.41
608.31	717.44
608.66	715.44
609.01	713.24
609.36	711.08
609.70	708.90
610.05	706.57
610.40	704.15
610.75	701.62
611.10	699.58
611.44	697.14
611.79	694.69
612.14	692.15
612.49	689.46
612.83	687.10
613.18	684.48
613.53	681.76
613.88	679.30
614.22	676.80
614.57	674.25
614.92	671.61
615.27	669.20
615.61	666.68
615.96	664.28
616.31	662.16
616.65	659.90
617.00	657.48
617.35	655.35
617.70	652.82
618.04	650.12
618.39	647.19
618.74	645.03
619.08	642.45
619.43	639.91
619.78	637.41
620.12	635.02
620.47	632.72
620.82	630.22
621.16	627.53
621.51	625.21
621.85	622.82
622.20	620.32
622.55	617.57
622.89	615.08
623.24	612.53
623.59	609.81
623.93	607.26
624.28	604.84
624.62	602.62
624.97	600.40
625.32	598.10
625.66	595.81
626.01	593.22
626.35	590.95
626.70	588.42
627.04	586.19
627.39	583.76
627.73	581.46
628.08	579.27
628.43	577.05
628.77	574.54
629.12	572.18
629.46	570.07
629.81	567.89
630.15	565.53
630.50	563.10
630.84	560.76
631.19	558.38
631.53	556.12
631.88	553.45
632.22	550.81
632.57	548.70
632.91	546.58
633.26	544.34
633.60	541.95
633.95	539.78
634.29	537.40
634.64	535.28
634.98	532.85
635.32	530.72
635.67	528.75
636.01	526.68
636.36	524.46
636.70	522.37
637.05	520.22
637.39	518.27
637.73	516.36
638.08	514.57
638.42	512.72
638.77	510.70
639.11	508.71
639.45	506.83
639.80	504.61
640.14	502.27
640.49	500.19
640.83	498.27
641.17	496.27
641.52	494.25
641.86	492.07
642.20	490.20
642.55	487.99
642.89	485.76
643.23	483.70
643.58	481.97
643.92	479.72
644.26	477.80
644.61	475.74
644.95	473.68
645.29	471.52
645.64	469.39
645.98	467.29
646.32	465.34
646.66	463.25
647.01	461.27
647.35	459.53
647.69	457.64
648.04	455.71
648.38	453.78
648.72	451.86
649.06	449.96
649.41	447.86
649.75	445.98
650.09	444.25
650.43	442.27
650.78	440.20
651.12	438.18
651.46	436.28
651.80	434.46
652.14	432.60
652.49	430.83
652.83	429.01
653.17	427.01
653.51	425.11
653.85	423.35
654.20	421.65
654.54	419.74
654.88	417.83
655.22	416.06
655.56	414.14
655.90	412.30
656.25	410.48
656.59	408.64
656.93	406.79
657.27	405.04
657.61	403.13
657.95	401.49
658.29	399.91
658.64	398.18
658.98	396.38
659.32	394.62
659.66	392.90
660.00	391.07
660.34	389.38
660.68	387.59
661.02	385.93
661.36	384.16
661.70	382.56
662.05	380.91
662.39	379.42
662.73	378.04
663.07	376.75
663.41	375.32
663.75	373.85
664.09	372.46
664.43	370.88
664.77	369.54
665.11	368.00
665.45	366.64
665.79	365.18
666.13	363.73
666.47	362.37
666.81	360.89
667.15	359.43
667.49	358.18
667.83	356.94
668.17	355.56
668.51	354.37
668.85	353.12
669.19	352.04
669.53	350.64
669.87	349.19
670.21	347.74
670.55	346.46
670.89	345.44
671.23	344.18
671.57	342.93
671.91	341.82
672.25	340.58
672.58	339.36
672.92	338.18
673.26	337.16
673.60	336.03
673.94	334.79
674.28	333.75
674.62	332.76
674.96	331.61
675.30	330.61
675.64	329.51
675.97	328.40
676.31	327.30
676.65	326.15
676.99	325.35
677.33	324.29
677.67	323.19
678.01	321.98
678.34	320.95
678.68	320.00
679.02	318.87
679.36	317.94
679.70	317.00
680.04	315.95
680.37	314.89
680.71	313.80
681.05	313.02
681.39	312.06
681.73	311.01
682.06	310.17
682.40	309.30
682.74	308.35
683.08	307.58
683.42	306.64
683.75	305.84
684.09	304.74
684.43	303.80
684.77	302.91
685.10	302.00
685.44	301.06
685.78	300.20
686.12	299.45
686.45	298.50
686.79	297.56
687.13	296.80
687.46	295.97
687.80	295.30
688.14	294.44
688.48	293.73
688.81	292.99
689.15	292.19
689.49	291.23
689.82	290.46
690.16	289.47
690.50	288.62
690.83	287.77
691.17	286.97
691.51	286.25
691.84	285.55
692.18	284.80
692.52	284.13
692.85	283.38
693.19	282.75
693.52	282.07
693.86	281.30
694.20	280.60
694.53	279.95
694.87	279.20
695.21	278.43
695.54	277.66
695.88	276.84
696.21	276.07
696.55	275.46
696.88	274.76
697.22	274.10
697.56	273.50
697.89	272.84
698.23	272.25
698.56	271.62
698.90	271.04
699.23	270.46
699.57	269.88
699.90	269.27
700.24	268.50
700.58	267.95
700.91	267.52
701.25	267.15
701.58	266.65
701.92	266.10
702.25	265.59
702.59	265.00
702.92	264.52
703.26	263.91
703.59	263.38
703.93	263.13
704.26	262.67
704.60	262.11
704.93	261.60
705.26	260.98
705.60	260.43
705.93	259.87
706.27	259.47
706.60	258.97
706.94	258.62
707.27	258.06
707.61	257.53
707.94	256.94
708.27	256.18
708.61	255.60
708.94	255.07
709.28	254.61
709.61	254.10
709.94	253.63
710.28	253.27
710.61	252.81
710.95	252.06
711.28	251.73
711.61	251.27
711.95	250.89
712.28	250.42
712.61	250.13
712.95	249.90
713.28	249.55
713.61	249.10
713.95	248.59
714.28	248.35
714.61	247.86
714.95	247.50
715.28	247.00
715.61	246.53
715.95	246.19
716.28	245.78
716.61	245.55
716.95	245.09
717.28	244.68
717.61	244.35
717.94	243.90
718.28	243.36
718.61	243.02
718.94	242.68
719.27	242.44
719.61	242.10
719.94	241.69
720.27	241.18
720.60	240.90
720.94	240.49
721.27	240.14
721.60	239.92
721.93	239.57
722.27	239.56
722.60	239.40
722.93	239.10
723.26	238.87
723.59	238.53
723.93	238.35
724.26	238.09
724.59	237.76
724.92	237.65
725.25	237.52
725.59	237.31
725.92	237.02
726.25	236.73
726.58	236.47
726.91	236.23
727.24	236.07
727.57	235.82
727.91	235.56
728.24	235.30
728.57	235.10
728.90	234.93
729.23	234.55
729.56	234.42
729.89	234.13
730.22	233.85
730.55	233.62
730.89	233.36
731.22	233.12
731.55	232.91
731.88	232.63
732.21	232.33
732.54	232.04
732.87	231.81
733.20	231.69
733.53	231.46
733.86	231.21
734.19	230.97
734.52	230.86
734.85	230.96
735.18	230.75
735.51	230.67
735.84	230.57
736.17	230.45
736.50	230.06
736.83	230.39
737.16	230.20
737.49	230.06
737.82	229.90
738.15	229.76
738.48	229.61
738.81	229.46
739.14	229.29
739.47	229.17
739.80	229.13
740.13	228.91
740.46	228.74
740.79	228.52
741.12	228.33
741.45	228.07
741.78	227.67
742.11	227.66
742.44	227.37
742.77	227.16
743.10	226.95
743.43	226.84
743.75	226.22
744.08	226.56
744.41	226.33
744.74	226.22
745.07	226.02
745.40	225.91
745.73	225.86
746.06	225.68
746.39	225.54
746.71	225.28
747.04	225.13
747.37	224.96
747.70	224.88
748.03	224.75
748.36	224.65
748.68	224.45
749.01	224.23
749.34	224.14
749.67	224.01
750.00	223.99
750.33	224.09
750.65	224.05
750.98	223.44
751.31	223.32
751.64	223.12
751.97	223.26
752.29	223.12
752.62	222.90
752.95	222.78
753.28	222.67
753.60	222.52
753.93	222.44
754.26	222.36
754.59	222.07
754.91	221.98
755.24	221.84
755.57	221.76
755.90	221.59
756.22	221.41
756.55	221.27
756.88	221.05
757.20	220.75
757.53	220.47
757.86	220.40
758.19	220.34
758.51	220.21
758.84	219.95
759.17	219.79
759.49	219.73
759.82	219.83
760.15	219.82
760.47	219.78
760.80	219.61
761.13	219.56
761.45	219.54
761.78	219.34
762.11	219.31
762.43	219.17
762.76	219.07
763.08	219.03
763.41	218.98
763.74	218.93
764.06	218.84
764.39	218.78
764.71	218.65
765.04	218.51
765.37	218.43
765.69	218.30
766.02	218.23
766.34	218.13
766.67	217.90
767.00	217.77
767.32	217.88
767.65	218.00
767.97	217.90
768.30	217.84
768.62	217.78
768.95	217.62
769.27	217.62
769.60	217.63
769.92	217.54
770.25	217.40
770.57	217.27
770.90	217.21
771.22	217.16
771.55	217.17
771.87	217.14
772.20	217.10
772.52	217.36
772.85	217.68
773.17	217.55
773.50	217.54
773.82	217.35
774.15	217.07
774.47	216.74
774.80	216.61
775.12	216.56
775.45	216.60
775.77	216.56
776.09	216.48
776.42	216.45
776.74	216.51
777.07	216.48
777.39	216.46
777.72	216.38
778.04	216.41
778.36	216.27
778.69	216.30
779.01	216.32
779.33	215.93
779.66	215.54
779.98	215.56
780.31	215.54
780.63	215.69
780.95	215.72
781.28	215.68
781.60	215.60
781.92	215.63
782.25	215.49
782.57	215.50
782.89	215.52
783.22	215.37
783.54	215.27
783.86	215.19
784.19	215.13
784.51	215.16
784.83	215.08
785.16	215.11
785.48	215.00
785.80	214.89
786.12	214.96
786.45	214.90
786.77	214.82
787.09	214.73
787.42	214.58
787.74	214.61
788.06	214.62
788.38	214.64
788.71	214.52
789.03	214.58
789.35	214.61
789.67	214.48
789.99	214.59
790.32	214.45
790.64	214.49
790.96	214.77
791.28	214.62
791.61	214.56
791.93	214.50
792.25	214.48
792.57	214.71
792.89	214.60
793.21	214.64
793.54	214.58
793.86	214.54
794.18	214.56
794.50	214.43
794.82	214.48
795.14	214.48
795.47	214.55
795.79	214.47
796.11	214.32
796.43	214.29
796.75	214.24
797.07	214.28
797.39	214.16
797.71	213.96
798.04	213.96
798.36	213.99
798.68	213.94
799.00	213.90
799.32	213.74
799.64	213.80
799.96	213.73
800.28	213.84
800.60	213.78
800.92	213.75
801.24	213.73
801.56	213.65
801.89	213.59
802.21	213.61
802.53	213.56
802.85	213.60
803.17	213.73
803.49	213.60
803.81	213.56
804.13	213.57
804.45	213.42
804.77	213.41
805.09	213.36
805.41	213.32
805.73	213.29
806.05	213.18
806.37	213.16
806.69	213.19
807.01	213.15
807.33	213.18
807.65	213.03
807.97	213.17
808.28	213.13
808.60	213.18
808.92	213.03
809.24	213.24
809.56	213.22
809.88	213.09
810.20	213.12
810.52	213.10
810.84	213.03
811.16	213.00
811.48	213.01
811.80	213.10
812.12	213.12
812.43	213.18
812.75	213.25
813.07	213.17
813.39	213.10
813.71	213.03
814.03	212.99
814.35	213.03
814.67	212.83
814.98	212.85
815.30	212.77
815.62	212.71
815.94	212.50
816.26	212.51
816.58	212.46
816.89	212.42
817.21	212.32
817.53	212.42
817.85	212.46
818.17	212.44
818.48	212.30
818.80	212.36
819.12	212.28
819.44	212.11
819.76	212.02
820.07	212.01
820.39	212.00
820.71	212.02
821.03	212.04
821.34	212.07
821.66	212.12
821.98	212.18
822.30	212.19
822.61	212.34
822.93	212.28
823.25	212.26
823.57	212.28
823.88	212.43
824.20	212.37
824.52	212.32
824.83	212.21
825.15	212.21
825.47	212.08
825.79	212.06
826.10	212.10
826.42	212.07
826.74	212.12
827.05	212.12
827.37	212.12
827.69	212.04
828.00	211.99
828.32	211.99
828.64	211.93
828.95	212.13
829.27	212.06
829.58	212.04
829.90	212.12
830.22	212.18
830.53	212.10
830.85	212.04
831.17	211.97
831.48	212.00
831.80	212.03
832.11	212.01
832.43	212.02
832.75	212.01
833.06	212.26
833.38	212.08
833.69	212.09
834.01	212.14
834.32	212.17
834.64	212.17
834.96	212.10
835.27	212.07
835.59	211.97
835.90	211.88
836.22	211.89
836.53	211.83
836.85	211.75
837.16	212.10
837.48	212.15
837.79	212.29
838.11	212.32
838.42	212.29
838.74	212.46
839.05	212.36
839.37	212.30
839.68	212.11
840.00	212.17
840.31	212.19
840.63	212.07
840.94	212.00
841.26	211.95
841.57	211.96
841.88	211.95
842.20	211.85
842.51	211.81
842.83	211.79
843.14	212.06
843.46	212.05
843.77	211.80
844.08	211.74
844.40	211.63
844.71	211.63
845.03	211.61
845.34	211.48
845.65	211.51
845.97	211.56
846.28	211.50
846.60	211.52
846.91	211.47
847.22	211.46
847.54	211.58
847.85	211.63
848.16	211.59
848.48	211.53
848.79	211.71
849.10	211.79
849.42	211.80
849.73	211.42
850.04	211.38
850.36	211.28
850.67	211.35
850.98	211.38
851.30	211.38
851.61	211.34
851.92	211.39
852.23	211.48
852.55	211.49
852.86	211.55
853.17	211.61
853.49	211.63
853.80	211.74
854.11	211.78
854.42	211.85
854.74	211.89
855.05	211.93
855.36	211.66
855.67	211.64
855.99	211.59
856.30	212.08
856.61	212.05
856.92	212.02
857.23	211.97
857.55	211.90
857.86	211.90
858.17	212.00
858.48	211.89
858.79	211.78
859.11	211.85
859.42	211.85
859.73	211.79
860.04	211.82
860.35	211.75
860.66	211.62
860.98	211.57
861.29	211.58
861.60	211.60
861.91	211.70
862.22	211.63
862.53	211.56
862.84	211.07
863.16	211.20
863.47	211.17
863.78	211.17
864.09	211.26
864.40	211.30
864.71	211.24
865.02	211.31
865.33	211.33
865.64	211.23
865.95	211.15
866.27	211.37
866.58	211.36
866.89	211.36
867.20	211.35
867.51	211.33
867.82	211.28
868.13	211.32
868.44	211.29
868.75	211.36
869.06	211.47
869.37	211.52
869.68	211.47
869.99	211.51
870.30	211.50
870.61	211.50
870.92	211.46
871.23	211.45
871.54	211.51
871.85	211.56
872.16	211.59
872.47	211.65
872.78	211.37
873.09	211.36
873.40	211.31
873.71	211.32
874.02	211.34
874.33	211.32
874.64	211.25
874.95	211.32
875.26	211.25
875.56	211.25
875.87	211.35
876.18	211.32
876.49	211.65
876.80	211.69
877.11	211.62
877.42	211.65
877.73	211.65
878.04	211.55
878.35	211.55
878.66	211.57
878.96	211.52
879.27	211.54
879.58	211.54
879.89	211.58
880.20	211.70
880.51	211.61
880.82	211.56
881.12	211.60
881.43	211.50
881.74	211.52
882.05	211.46
882.36	211.44
882.67	211.43
882.97	211.05
883.28	211.05
883.59	211.00
883.90	211.03
884.21	211.05
884.51	211.09
884.82	211.11
885.13	211.05
885.44	211.07
885.74	211.13
886.05	211.10
886.36	211.09
886.67	210.96
886.98	211.24
887.28	211.32
887.59	211.35
887.90	211.39
888.20	211.39
888.51	211.53
888.82	211.48
889.13	211.50
889.43	211.82
889.74	211.77
890.05	211.88
890.35	211.77
890.66	211.78
890.97	211.75
891.28	211.68
891.58	211.68
891.89	211.64
892.20	211.53
892.50	211.44
892.81	211.43
893.12	211.49
893.42	211.29
893.73	211.31
894.04	211.35
894.34	211.31
894.65	211.26
894.95	211.18
895.26	211.18
895.57	211.37
895.87	210.99
896.18	211.12
896.48	211.07
896.79	211.09
897.10	211.17
897.40	211.15
897.71	211.25
898.01	211.26
898.32	211.31
898.63	211.36
898.93	211.42
899.24	211.46
899.54	211.41
899.85	211.32
900.15	211.30
900.46	211.19
900.76	211.27
901.07	211.30
901.38	211.28
901.68	211.28
901.99	211.06
902.29	211.18
902.60	211.07
902.90	211.08
903.21	211.07
903.51	211.01
903.82	211.06
904.12	211.07
904.43	211.09
904.73	211.02
905.03	211.00
905.34	211.37
905.64	211.33
905.95	211.39
906.25	211.44
906.56	211.47
906.86	211.48
907.17	211.47
907.47	211.53
907.77	211.53
908.08	211.55
908.38	211.59
908.69	211.60
908.99	211.68
909.30	211.65
909.60	211.66
909.90	211.62
910.21	211.56
910.51	211.41
910.81	211.44
911.12	211.50
911.42	211.51
911.73	211.14
912.03	211.14
912.33	211.14
912.64	211.12
912.94	211.10
913.24	211.10
913.55	211.09
913.85	211.04
914.15	211.13
914.46	211.17
914.76	211.09
915.06	211.04
915.37	210.92
915.67	210.92
915.97	210.92
916.27	210.90
916.58	210.94
916.88	210.96
917.18	210.90
917.49	211.15
917.79	211.20
918.09	211.26
918.39	211.28
918.70	211.24
919.00	211.31
919.30	211.46
919.60	211.41
919.91	211.29
920.21	211.29
920.51	211.16
920.81	211.08
921.12	211.17
921.42	211.15
921.72	211.20
922.02	211.21
922.32	211.28
922.63	211.23
922.93	211.39
923.23	211.48
923.53	211.47
923.83	211.26
924.13	211.30
924.44	211.29
924.74	211.42
925.04	211.54
925.34	211.49
925.64	211.31
925.94	211.35
926.24	211.59
926.55	211.56
926.85	211.61
927.15	211.62
927.45	211.64
927.75	211.65
928.05	211.64
928.35	211.58
928.65	211.62
928.95	211.74
929.26	211.58
929.56	211.60
929.86	211.66
930.16	211.66
930.46	211.55
930.76	211.54
931.06	211.35
931.36	211.25
931.66	211.27
931.96	211.32
932.26	211.29
932.56	211.11
932.86	211.11
933.16	211.10
933.46	211.06
933.76	211.00
934.06	211.08
934.36	211.15
934.66	211.14
934.96	211.05
935.26	211.01
935.56	211.05
935.86	210.96
936.16	210.85
936.46	210.79
936.76	210.79
937.06	210.75
937.36	210.79
937.66	210.83
937.96	210.80
938.26	210.70
938.56	210.70
938.86	210.72
939.16	210.82
939.46	210.86
939.76	210.93
940.06	210.96
940.35	210.86
940.65	210.81
940.95	210.90
941.25	210.81
941.55	210.82
941.85	210.86
942.15	210.90
942.45	211.08
942.75	211.09
943.04	211.09
943.34	211.21
943.64	211.24
943.94	211.11
944.24	211.16
944.54	211.19
944.84	211.18
945.13	211.18
945.43	211.14
945.73	211.15
946.03	211.08
946.33	211.07
946.62	211.08
946.92	211.09
947.22	211.12
947.52	211.23
947.82	211.24
948.11	211.19
948.41	211.13
948.71	211.05
949.01	211.11
949.31	211.13
949.60	211.11
949.90	211.10
950.20	211.16
950.50	211.11
950.79	211.14
951.09	211.24
951.39	211.20
951.69	211.14
951.98	211.22
952.28	211.30
952.58	211.32
952.87	211.30
953.17	211.31
953.47	211.29
953.76	211.26
954.06	211.24
954.36	211.18
954.66	211.22
954.95	211.27
955.25	211.28
955.55	211.29
955.84	211.16
956.14	211.17
956.44	211.11
956.73	211.04
957.03	211.02
957.32	211.00
957.62	211.00
957.92	211.09
958.21	211.02
958.51	211.38
958.81	211.40
959.10	211.43
959.40	211.48
959.69	211.48
959.99	211.50
960.29	211.50
960.58	211.50
960.88	211.63
961.17	211.57
961.47	211.59
961.76	211.56
962.06	211.69
962.36	211.68
962.65	211.74
962.95	211.88
963.24	211.87
963.54	211.83
963.83	211.84
964.13	211.83
964.42	211.71
964.72	211.42
965.01	211.38
965.31	211.40
965.60	211.39
965.90	211.59
966.19	211.54
966.49	211.53
966.78	211.52
967.08	211.46
967.37	211.46
967.67	211.32
967.96	211.38
968.26	211.30
968.55	211.33
968.85	211.34
969.14	211.23
969.43	211.21
969.73	211.23
970.02	211.23
970.32	211.20
970.61	211.23
970.91	211.13
971.20	211.12
971.49	211.09
971.79	211.10
972.08	210.83
972.38	210.91
972.67	210.88
972.96	210.89
973.26	210.76
973.55	210.87
973.85	210.92
974.14	210.88
974.43	210.90
974.73	210.87
975.02	210.78
975.31	210.79
975.61	210.75
975.90	210.68
976.19	210.61
976.49	210.68
976.78	210.72
977.07	210.69
977.37	210.70
977.66	210.71
977.95	210.66
978.24	210.75
978.54	210.73
978.83	210.74
979.12	210.76
979.42	210.75
979.71	210.71
980.00	210.70
980.29	210.74
980.59	210.68
980.88	210.70
981.17	210.74
981.46	210.76
981.76	210.81
982.05	210.92
982.34	210.95
982.63	210.92
982.93	210.92
983.22	211.03
983.51	211.03
983.80	211.11
984.09	211.12
984.39	211.04
984.68	211.00
984.97	210.96
985.26	210.98
985.55	211.08
985.85	210.96
986.14	211.08
986.43	211.12
986.72	211.13
987.01	211.02
987.30	210.97
987.59	211.00
987.89	211.03
988.18	210.95
988.47	210.97
988.76	210.95
989.05	210.90
989.34	210.83
989.63	210.95
989.92	210.87
990.22	210.81
990.51	210.87
990.80	210.91
991.09	210.98
991.38	211.01
991.67	210.97
991.96	210.94
992.25	210.92
992.54	210.85
992.83	210.91
993.12	210.97
993.41	211.09
993.70	211.21
993.99	211.31
994.28	211.35
994.58	211.38
994.87	211.24
995.16	211.30
995.45	211.29
995.74	211.12
996.03	211.22
996.32	211.29
996.61	211.31
996.90	211.25
997.19	211.20
997.48	211.18
997.77	211.15
998.06	211.21
998.34	211.18
998.63	211.19
998.92	211.20
999.21	211.26
999.50	211.25
999.79	211.07
1000.08	210.98
1000.37	210.96
1000.66	211.00
1000.95	211.13
1001.24	211.09
1001.53	211.11
1001.82	211.17
1002.11	211.04
1002.40	211.08
1002.68	211.20
1002.97	211.46
1003.26	211.48
1003.55	211.40
1003.84	211.37
1004.13	211.50
1004.42	211.47
1004.71	211.49
1004.99	211.40
1005.28	211.41
1005.57	211.40
1005.86	211.47
1006.15	211.47
1006.44	211.43
1006.72	211.39
1007.01	211.33
1007.30	211.31
1007.59	211.32
1007.88	211.29
1008.17	211.34
1008.45	211.30
1008.74	211.15
1009.03	210.99
1009.32	210.90
1009.60	210.90
1009.89	210.86
1010.18	210.62
1010.47	210.56
1010.76	210.53
1011.04	210.50
1011.33	210.49
1011.62	210.45
1011.91	210.45
1012.19	210.45
1012.48	210.47
1012.77	210.49
1013.05	210.68
1013.34	210.70
1013.63	210.62
1013.92	210.58
1014.20	210.56
1014.49	210.56
1014.78	210.55
1015.06	210.43
1015.35	210.48
1015.64	210.49
1015.92	210.59
1016.21	210.72
1016.50	210.77
1016.78	210.84
1017.07	210.80
1017.36	210.79
1017.64	210.73
1017.93	210.67
1018.22	210.56
1018.50	210.53
1018.79	210.52
1019.08	210.31
1019.36	210.34
1019.65	210.36
1019.93	210.49
1020.22	210.52
1020.51	210.65
1020.79	210.69
1021.08	208.75
1021.36	209.75
1021.65	211.00
1021.94	209.60
1022.22	210.75
1022.51	210.80
1022.79	212.40
1023.08	211.35
1023.36	214.50
1023.65	211.65
>>>>>End Processed Spectral Data<<<<<
