SpectraSuite Data File
++++++++++++++++++++++++++++++++++++
Date: Mon Feb 25 17:00:59 EST 2013
User: group
Dark Spectrum Present: No
Reference Spectrum Present: No
Number of Sampled Component Spectra: 1
Spectrometers: USB2E7196
Integration Time (usec): 104000 (USB2E7196)
Spectra Averaged: 20 (USB2E7196)
Boxcar Smoothing: 10 (USB2E7196)
Correct for Electrical Dark: No (USB2E7196)
Strobe/Lamp Enabled: No (USB2E7196)
Correct for Detector Non-linearity: No (USB2E7196)
Correct for Stray Light: No (USB2E7196)
Number of Pixels in Processed Spectrum: 2048
>>>>>Begin Processed Spectral Data<<<<<
339.09	0.00
339.48	198.05
339.86	200.50
340.24	199.90
340.63	200.80
341.01	209.00
341.39	206.40
341.78	206.40
342.16	208.05
342.54	208.40
342.93	197.74
343.31	207.76
343.69	208.34
344.07	208.73
344.46	209.22
344.84	209.64
345.22	209.68
345.60	209.91
345.99	210.15
346.37	210.32
346.75	210.42
347.13	210.47
347.52	210.54
347.90	210.76
348.28	210.78
348.66	210.91
349.05	210.87
349.43	210.90
349.81	210.97
350.19	210.97
350.57	211.06
350.96	211.17
351.34	211.24
351.72	211.33
352.10	211.49
352.48	211.59
352.87	211.68
353.25	211.78
353.63	211.83
354.01	211.88
354.39	211.89
354.77	211.94
355.15	212.08
355.54	212.14
355.92	212.08
356.30	212.15
356.68	212.48
357.06	212.60
357.44	212.69
357.82	212.73
358.20	212.85
358.58	212.94
358.97	212.95
359.35	213.02
359.73	213.15
360.11	213.14
360.49	213.21
360.87	213.28
361.25	213.42
361.63	213.57
362.01	213.64
362.39	213.68
362.77	213.75
363.15	213.77
363.53	213.76
363.91	213.82
364.29	213.84
364.67	213.51
365.05	213.50
365.43	213.53
365.81	213.62
366.19	213.79
366.57	213.92
366.95	213.95
367.33	213.91
367.71	213.86
368.09	213.96
368.47	213.96
368.85	213.90
369.23	213.91
369.61	213.75
369.99	213.83
370.37	213.90
370.75	214.09
371.13	214.00
371.51	213.97
371.89	213.97
372.27	213.99
372.65	214.02
373.03	213.92
373.41	213.86
373.78	213.75
374.16	213.49
374.54	213.31
374.92	213.27
375.30	213.24
375.68	213.14
376.06	213.08
376.44	212.92
376.82	212.98
377.19	212.92
377.57	212.88
377.95	212.75
378.33	212.63
378.71	212.34
379.09	212.35
379.47	212.28
379.84	212.22
380.22	212.09
380.60	211.95
380.98	211.84
381.36	211.76
381.73	211.66
382.11	211.72
382.49	211.64
382.87	211.55
383.25	211.56
383.62	211.91
384.00	211.77
384.38	211.78
384.76	211.75
385.13	211.80
385.51	211.75
385.89	211.59
386.27	211.55
386.64	211.57
387.02	211.54
387.40	211.47
387.78	211.39
388.15	211.32
388.53	211.26
388.91	211.33
389.29	211.32
389.66	211.37
390.04	211.23
390.42	211.31
390.79	211.30
391.17	211.18
391.55	210.76
391.92	210.74
392.30	210.79
392.68	210.68
393.05	210.61
393.43	210.62
393.81	210.67
394.18	210.61
394.56	210.56
394.94	210.48
395.31	210.47
395.69	210.56
396.06	210.67
396.44	210.70
396.82	210.66
397.19	210.85
397.57	210.80
397.95	210.91
398.32	210.83
398.70	210.80
399.07	210.97
399.45	211.01
399.82	211.08
400.20	211.08
400.58	211.13
400.95	211.02
401.33	211.11
401.70	211.43
402.08	211.61
402.45	211.74
402.83	211.95
403.20	212.10
403.58	212.16
403.95	212.26
404.33	212.35
404.71	212.52
405.08	212.78
405.46	212.87
405.83	213.08
406.21	213.26
406.58	213.54
406.96	213.70
407.33	213.93
407.70	214.24
408.08	214.78
408.45	215.17
408.83	215.59
409.20	215.85
409.58	215.98
409.95	216.41
410.33	216.88
410.70	217.30
411.08	217.83
411.45	218.38
411.82	218.93
412.20	219.73
412.57	220.55
412.95	220.99
413.32	221.86
413.69	222.63
414.07	223.50
414.44	224.43
414.82	225.40
415.19	226.57
415.56	227.73
415.94	228.73
416.31	229.99
416.68	231.24
417.06	232.78
417.43	234.37
417.81	236.05
418.18	237.72
418.55	239.49
418.93	241.39
419.30	243.43
419.67	245.52
420.04	247.72
420.42	249.99
420.79	252.75
421.16	255.44
421.54	258.29
421.91	261.22
422.28	264.14
422.66	267.31
423.03	270.55
423.40	273.81
423.77	277.29
424.15	280.85
424.52	284.72
424.89	288.84
425.26	292.64
425.64	296.34
426.01	300.50
426.38	304.93
426.75	309.48
427.13	314.09
427.50	318.89
427.87	323.85
428.24	328.75
428.61	333.58
428.99	339.03
429.36	344.71
429.73	350.45
430.10	356.27
430.47	362.12
430.85	368.14
431.22	374.69
431.59	381.80
431.96	388.50
432.33	395.85
432.70	403.00
433.08	411.44
433.45	419.44
433.82	427.39
434.19	436.13
434.56	444.73
434.93	452.97
435.30	461.39
435.68	470.53
436.05	479.80
436.42	489.01
436.79	497.33
437.16	506.43
437.53	515.85
437.90	525.45
438.27	534.89
438.64	544.39
439.01	553.43
439.38	561.30
439.75	569.28
440.13	578.04
440.50	586.62
440.87	593.53
441.24	600.82
441.61	608.97
441.98	615.11
442.35	622.10
442.72	629.26
443.09	636.15
443.46	640.71
443.83	643.91
444.20	646.59
444.57	650.51
444.94	652.78
445.31	655.18
445.68	657.30
446.05	658.59
446.42	658.68
446.79	658.36
447.16	657.95
447.53	657.75
447.90	655.07
448.27	652.05
448.64	647.98
449.01	645.06
449.37	639.31
449.74	634.00
450.11	627.62
450.48	620.38
450.85	612.81
451.22	606.36
451.59	600.27
451.96	594.49
452.33	586.51
452.70	579.20
453.07	570.55
453.43	561.69
453.80	553.27
454.17	545.02
454.54	537.09
454.91	528.65
455.28	520.34
455.65	512.83
456.02	505.54
456.38	499.10
456.75	490.87
457.12	484.14
457.49	477.38
457.86	470.73
458.23	465.13
458.59	459.17
458.96	453.01
459.33	447.61
459.70	442.18
460.07	437.91
460.43	432.92
460.80	428.20
461.17	424.03
461.54	419.73
461.91	415.62
462.27	411.47
462.64	408.02
463.01	404.10
463.38	400.33
463.74	396.23
464.11	392.76
464.48	389.93
464.85	386.68
465.21	384.18
465.58	381.50
465.95	378.27
466.32	375.59
466.68	372.90
467.05	370.16
467.42	367.40
467.78	364.49
468.15	361.91
468.52	359.86
468.88	357.20
469.25	354.85
469.62	352.96
469.98	350.93
470.35	348.92
470.72	347.09
471.08	345.06
471.45	343.44
471.82	341.86
472.18	340.01
472.55	338.67
472.92	337.07
473.28	335.74
473.65	334.44
474.02	333.04
474.38	331.93
474.75	331.01
475.11	330.01
475.48	329.24
475.85	328.40
476.21	327.58
476.58	327.08
476.94	326.50
477.31	325.90
477.67	325.26
478.04	324.84
478.41	324.59
478.77	324.64
479.14	324.21
479.50	323.95
479.87	323.86
480.23	323.73
480.60	323.56
480.96	323.35
481.33	323.59
481.69	323.64
482.06	323.83
482.42	323.89
482.79	323.98
483.15	324.21
483.52	324.68
483.88	325.02
484.25	325.25
484.61	325.64
484.98	325.97
485.34	326.70
485.71	327.27
486.07	327.88
486.44	328.12
486.80	328.95
487.17	329.74
487.53	330.76
487.90	331.77
488.26	333.01
488.62	334.24
488.99	335.15
489.35	336.44
489.72	337.62
490.08	338.87
490.44	340.19
490.81	341.60
491.17	342.99
491.54	344.56
491.90	346.22
492.26	347.88
492.63	349.68
492.99	351.32
493.36	353.21
493.72	355.15
494.08	357.27
494.45	359.21
494.81	361.35
495.17	363.40
495.54	365.57
495.90	367.59
496.26	369.76
496.63	372.10
496.99	374.42
497.35	376.80
497.72	379.23
498.08	381.66
498.44	384.23
498.80	386.79
499.17	389.33
499.53	391.90
499.89	394.58
500.26	397.06
500.62	399.70
500.98	402.28
501.34	404.80
501.71	407.25
502.07	409.88
502.43	412.28
502.79	414.62
503.16	417.05
503.52	419.35
503.88	421.74
504.24	424.10
504.60	426.27
504.97	428.57
505.33	430.77
505.69	433.23
506.05	435.43
506.41	437.52
506.78	439.39
507.14	441.18
507.50	442.95
507.86	444.82
508.22	446.57
508.59	448.18
508.95	449.71
509.31	451.42
509.67	452.93
510.03	454.34
510.39	455.87
510.75	457.21
511.12	458.56
511.48	459.70
511.84	460.85
512.20	462.15
512.56	463.30
512.92	464.50
513.28	465.38
513.64	466.14
514.00	466.92
514.37	467.76
514.73	468.78
515.09	469.60
515.45	470.19
515.81	470.78
516.17	471.38
516.53	471.94
516.89	472.34
517.25	472.66
517.61	473.22
517.97	473.41
518.33	473.64
518.69	473.99
519.05	474.29
519.41	474.55
519.77	474.89
520.13	474.99
520.49	474.88
520.85	474.96
521.21	475.15
521.57	475.28
521.93	475.16
522.29	475.04
522.65	474.88
523.01	475.09
523.37	475.04
523.73	475.07
524.09	475.00
524.45	475.05
524.81	475.30
525.17	475.42
525.53	475.80
525.89	476.09
526.25	476.30
526.61	476.44
526.97	476.77
527.33	477.01
527.68	477.69
528.04	478.18
528.40	478.48
528.76	478.94
529.12	479.49
529.48	480.41
529.84	481.18
530.20	482.01
530.56	482.77
530.91	483.80
531.27	484.69
531.63	485.75
531.99	486.73
532.35	487.66
532.71	488.62
533.07	489.71
533.42	491.20
533.78	492.39
534.14	493.72
534.50	494.90
534.86	496.24
535.21	497.17
535.57	498.71
535.93	500.22
536.29	501.90
536.65	503.39
537.00	504.75
537.36	506.19
537.72	507.62
538.08	509.14
538.44	510.69
538.79	512.57
539.15	514.32
539.51	516.15
539.87	518.08
540.22	520.15
540.58	522.34
540.94	524.16
541.29	526.33
541.65	528.31
542.01	530.41
542.37	532.59
542.72	534.95
543.08	537.09
543.44	539.51
543.79	541.59
544.15	544.20
544.51	547.00
544.87	549.72
545.22	552.49
545.58	555.04
545.94	557.65
546.29	560.10
546.65	562.55
547.01	565.06
547.36	567.75
547.72	570.37
548.07	572.80
548.43	575.39
548.79	577.85
549.14	580.55
549.50	583.35
549.86	585.85
550.21	588.35
550.57	591.25
550.92	593.71
551.28	596.46
551.64	598.85
551.99	601.38
552.35	603.81
552.70	606.23
553.06	608.95
553.41	611.49
553.77	614.18
554.13	617.09
554.48	619.96
554.84	622.67
555.19	625.11
555.55	627.73
555.90	630.18
556.26	632.75
556.61	635.11
556.97	637.35
557.32	639.80
557.68	642.25
558.03	644.27
558.39	646.55
558.74	648.95
559.10	651.45
559.45	653.66
559.81	656.14
560.16	658.39
560.52	660.68
560.87	663.07
561.23	665.21
561.58	667.66
561.94	669.59
562.29	671.51
562.64	673.82
563.00	675.85
563.35	677.89
563.71	680.05
564.06	682.52
564.42	684.91
564.77	687.14
565.12	689.49
565.48	692.03
565.83	694.48
566.19	696.60
566.54	698.29
566.89	700.26
567.25	702.52
567.60	704.80
567.96	706.89
568.31	708.88
568.66	710.68
569.02	712.11
569.37	713.56
569.72	715.30
570.08	716.76
570.43	718.25
570.78	719.62
571.14	720.58
571.49	721.44
571.84	722.54
572.20	723.34
572.55	724.24
572.90	724.68
573.26	725.17
573.61	725.54
573.96	726.31
574.31	726.55
574.67	726.50
575.02	726.54
575.37	726.54
575.72	726.48
576.08	726.74
576.43	726.76
576.78	727.05
577.13	727.04
577.49	727.17
577.84	727.29
578.19	727.58
578.54	728.06
578.90	728.40
579.25	728.48
579.60	728.30
579.95	728.00
580.30	728.04
580.66	728.12
581.01	727.99
581.36	727.74
581.71	727.69
582.06	727.54
582.42	727.47
582.77	727.02
583.12	726.74
583.47	726.44
583.82	726.10
584.17	725.74
584.53	725.40
584.88	724.79
585.23	724.27
585.58	723.69
585.93	722.98
586.28	722.37
586.63	721.72
586.98	721.56
587.34	721.21
587.69	720.40
588.04	719.64
588.39	718.99
588.74	718.22
589.09	717.72
589.44	716.96
589.79	716.13
590.14	715.55
590.49	714.76
590.84	713.89
591.19	713.16
591.54	712.31
591.89	711.10
592.25	710.27
592.60	709.07
592.95	707.70
593.30	706.51
593.65	705.10
594.00	703.62
594.35	703.19
594.70	701.69
595.05	700.52
595.40	699.24
595.75	697.91
596.10	696.66
596.45	695.30
596.80	694.11
597.15	692.92
597.50	691.46
597.85	690.13
598.19	688.68
598.54	687.40
598.89	686.09
599.24	685.18
599.59	683.85
599.94	682.81
600.29	681.71
600.64	680.54
600.99	679.27
601.34	678.19
601.69	675.71
602.04	674.29
602.39	672.89
602.74	671.74
603.08	670.55
603.43	669.60
603.78	668.17
604.13	666.73
604.48	665.30
604.83	664.28
605.18	663.10
605.53	661.82
605.87	660.35
606.22	659.03
606.57	657.49
606.92	656.09
607.27	654.55
607.62	653.20
607.96	651.75
608.31	650.61
608.66	649.18
609.01	647.75
609.36	646.25
609.70	644.67
610.05	642.79
610.40	641.18
610.75	639.16
611.10	637.77
611.44	635.94
611.79	634.11
612.14	632.25
612.49	630.12
612.83	628.25
613.18	626.22
613.53	624.17
613.88	622.06
614.22	620.05
614.57	618.09
614.92	616.08
615.27	614.00
615.61	611.75
615.96	609.80
616.31	608.02
616.65	606.41
617.00	604.48
617.35	602.61
617.70	600.50
618.04	598.53
618.39	596.16
618.74	594.41
619.08	592.40
619.43	590.39
619.78	588.69
620.12	586.71
620.47	584.76
620.82	582.62
621.16	580.49
621.51	578.59
621.85	576.58
622.20	574.36
622.55	572.33
622.89	570.29
623.24	568.16
623.59	565.90
623.93	563.76
624.28	561.83
624.62	560.12
624.97	558.30
625.32	556.30
625.66	554.54
626.01	552.47
626.35	550.55
626.70	548.43
627.04	546.47
627.39	544.46
627.73	542.71
628.08	541.09
628.43	539.26
628.77	537.24
629.12	535.19
629.46	533.40
629.81	531.28
630.15	529.28
630.50	527.25
630.84	525.40
631.19	523.46
631.53	521.59
631.88	519.23
632.22	517.02
632.57	515.34
632.91	513.27
633.26	511.27
633.60	509.46
633.95	507.73
634.29	505.63
634.64	503.92
634.98	501.82
635.32	499.91
635.67	498.32
636.01	496.47
636.36	494.69
636.70	493.04
637.05	491.54
637.39	489.95
637.73	488.45
638.08	487.05
638.42	485.32
638.77	483.79
639.11	482.16
639.45	480.60
639.80	478.63
640.14	476.75
640.49	475.06
640.83	473.20
641.17	471.43
641.52	469.74
641.86	467.89
642.20	466.25
642.55	464.23
642.89	462.25
643.23	460.50
643.58	459.08
643.92	457.07
644.26	455.17
644.61	453.28
644.95	451.37
645.29	449.28
645.64	447.67
645.98	445.69
646.32	443.99
646.66	442.06
647.01	440.35
647.35	438.83
647.69	436.97
648.04	435.34
648.38	433.55
648.72	431.88
649.06	430.07
649.41	428.27
649.75	426.63
650.09	424.92
650.43	423.21
650.78	421.09
651.12	419.34
651.46	417.65
651.80	416.15
652.14	414.45
652.49	412.97
652.83	411.14
653.17	409.29
653.51	407.52
653.85	405.97
654.20	404.43
654.54	402.67
654.88	401.09
655.22	399.46
655.56	397.81
655.90	396.08
656.25	394.46
656.59	392.95
656.93	391.47
657.27	390.11
657.61	388.38
657.95	386.90
658.29	385.44
658.64	384.16
658.98	382.44
659.32	380.84
659.66	379.21
660.00	377.56
660.34	376.13
660.68	374.54
661.02	372.94
661.36	371.33
661.70	369.87
662.05	368.48
662.39	367.00
662.73	365.61
663.07	364.44
663.41	363.18
663.75	361.69
664.09	360.31
664.43	358.76
664.77	357.53
665.11	356.16
665.45	354.83
665.79	353.36
666.13	352.03
666.47	350.68
666.81	349.37
667.15	348.00
667.49	346.92
667.83	345.94
668.17	344.84
668.51	343.70
668.85	342.64
669.19	341.57
669.53	340.35
669.87	339.11
670.21	337.78
670.55	336.58
670.89	335.65
671.23	334.65
671.57	333.63
671.91	332.50
672.25	331.45
672.58	330.47
672.92	329.36
673.26	328.45
673.60	327.56
673.94	326.59
674.28	325.75
674.62	324.73
674.96	323.71
675.30	322.74
675.64	321.66
675.97	320.74
676.31	319.65
676.65	318.71
676.99	317.79
677.33	316.76
677.67	315.79
678.01	314.73
678.34	313.66
678.68	312.74
679.02	311.74
679.36	310.91
679.70	309.98
680.04	309.14
680.37	308.21
680.71	307.21
681.05	306.29
681.39	305.40
681.73	304.48
682.06	303.50
682.40	302.76
682.74	301.99
683.08	301.13
683.42	300.22
683.75	299.42
684.09	298.66
684.43	297.92
684.77	297.07
685.10	296.18
685.44	295.34
685.78	294.52
686.12	293.75
686.45	292.81
686.79	291.95
687.13	291.19
687.46	290.35
687.80	289.65
688.14	288.83
688.48	288.09
688.81	287.36
689.15	286.75
689.49	285.81
689.82	285.05
690.16	284.16
690.50	283.44
690.83	282.59
691.17	281.65
691.51	280.79
691.84	280.17
692.18	279.41
692.52	278.81
692.85	278.15
693.19	277.60
693.52	276.98
693.86	276.27
694.20	275.53
694.53	274.87
694.87	274.18
695.21	273.51
695.54	272.82
695.88	272.02
696.21	271.15
696.55	270.63
696.88	269.93
697.22	269.26
697.56	268.73
697.89	268.13
698.23	267.66
698.56	267.17
698.90	266.55
699.23	266.02
699.57	265.37
699.90	264.61
700.24	263.92
700.58	263.44
700.91	262.95
701.25	262.72
701.58	262.30
701.92	261.83
702.25	261.34
702.59	260.80
702.92	260.35
703.26	259.89
703.59	259.28
703.93	259.16
704.26	258.78
704.60	258.26
704.93	257.79
705.26	257.23
705.60	256.83
705.93	256.27
706.27	255.93
706.60	255.61
706.94	255.42
707.27	254.97
707.61	254.51
707.94	254.02
708.27	253.20
708.61	252.68
708.94	252.22
709.28	251.83
709.61	251.45
709.94	251.02
710.28	250.66
710.61	250.38
710.95	249.63
711.28	249.43
711.61	249.13
711.95	248.91
712.28	248.50
712.61	248.16
712.95	248.10
713.28	247.85
713.61	247.31
713.95	246.85
714.28	246.53
714.61	246.10
714.95	245.78
715.28	245.49
715.61	245.08
715.95	244.72
716.28	244.36
716.61	244.05
716.95	243.72
717.28	243.43
717.61	243.04
717.94	242.78
718.28	242.27
718.61	241.81
718.94	241.38
719.27	241.06
719.61	240.67
719.94	240.20
720.27	239.65
720.60	239.38
720.94	239.10
721.27	238.81
721.60	238.54
721.93	238.30
722.27	238.15
722.60	238.00
722.93	237.74
723.26	237.49
723.59	237.10
723.93	236.89
724.26	236.56
724.59	236.31
724.92	236.08
725.25	235.92
725.59	235.66
725.92	235.48
726.25	235.33
726.58	235.17
726.91	234.86
727.24	234.73
727.57	234.49
727.91	234.15
728.24	233.89
728.57	233.67
728.90	233.50
729.23	233.10
729.56	233.08
729.89	232.83
730.22	232.62
730.55	232.50
730.89	232.26
731.22	232.07
731.55	231.92
731.88	231.73
732.21	231.46
732.54	231.26
732.87	231.05
733.20	230.87
733.53	230.66
733.86	230.61
734.19	230.39
734.52	230.28
734.85	230.43
735.18	230.24
735.51	230.10
735.84	229.92
736.17	229.92
736.50	229.49
736.83	229.71
737.16	229.47
737.49	229.28
737.82	229.07
738.15	228.95
738.48	228.67
738.81	228.50
739.14	228.32
739.47	228.18
739.80	227.98
740.13	227.88
740.46	227.57
740.79	227.26
741.12	227.10
741.45	226.84
741.78	226.48
742.11	226.44
742.44	226.24
742.77	226.08
743.10	225.83
743.43	225.66
743.75	225.14
744.08	225.45
744.41	225.28
744.74	225.19
745.07	224.91
745.40	224.91
745.73	224.83
746.06	224.69
746.39	224.56
746.71	224.42
747.04	224.23
747.37	224.15
747.70	224.11
748.03	223.99
748.36	223.98
748.68	223.80
749.01	223.58
749.34	223.52
749.67	223.43
750.00	223.33
750.33	223.49
750.65	223.50
750.98	222.97
751.31	222.83
751.64	222.76
751.97	222.92
752.29	222.69
752.62	222.36
752.95	222.28
753.28	222.17
753.60	222.06
753.93	222.01
754.26	221.92
754.59	221.71
754.91	221.58
755.24	221.43
755.57	221.29
755.90	221.12
756.22	221.00
756.55	220.81
756.88	220.68
757.20	220.37
757.53	220.08
757.86	220.01
758.19	219.98
758.51	219.82
758.84	219.52
759.17	219.41
759.49	219.40
759.82	219.41
760.15	219.32
760.47	219.18
760.80	219.05
761.13	219.02
761.45	218.91
761.78	218.84
762.11	218.80
762.43	218.66
762.76	218.63
763.08	218.52
763.41	218.49
763.74	218.47
764.06	218.38
764.39	218.35
764.71	218.20
765.04	218.10
765.37	218.00
765.69	217.96
766.02	217.84
766.34	217.74
766.67	217.51
767.00	217.54
767.32	217.72
767.65	217.85
767.97	217.76
768.30	217.73
768.62	217.68
768.95	217.57
769.27	217.61
769.60	217.58
769.92	217.47
770.25	217.36
770.57	217.22
770.90	217.14
771.22	217.08
771.55	217.04
771.87	216.97
772.20	216.90
772.52	217.13
772.85	217.54
773.17	217.51
773.50	217.45
773.82	217.27
774.15	217.01
774.47	216.68
774.80	216.57
775.12	216.57
775.45	216.43
775.77	216.37
776.09	216.27
776.42	216.20
776.74	216.30
777.07	216.16
777.39	216.15
777.72	216.06
778.04	215.98
778.36	215.94
778.69	215.89
779.01	215.87
779.33	215.50
779.66	215.13
779.98	215.06
780.31	214.92
780.63	214.99
780.95	214.96
781.28	214.99
781.60	214.95
781.92	214.84
782.25	214.79
782.57	214.76
782.89	214.70
783.22	214.65
783.54	214.45
783.86	214.50
784.19	214.38
784.51	214.40
784.83	214.33
785.16	214.25
785.48	214.23
785.80	214.19
786.12	214.18
786.45	214.12
786.77	214.11
787.09	214.14
787.42	214.01
787.74	214.03
788.06	214.00
788.38	213.94
788.71	213.91
789.03	213.93
789.35	213.89
789.67	213.89
789.99	213.80
790.32	213.81
790.64	213.82
790.96	214.09
791.28	214.03
791.61	214.04
791.93	214.07
792.25	214.03
792.57	214.34
792.89	214.24
793.21	214.27
793.54	214.24
793.86	214.21
794.18	214.18
794.50	214.14
794.82	214.03
795.14	214.04
795.47	214.11
795.79	214.11
796.11	214.09
796.43	213.94
796.75	214.00
797.07	214.00
797.39	213.95
797.71	213.63
798.04	213.60
798.36	213.56
798.68	213.52
799.00	213.50
799.32	213.20
799.64	213.29
799.96	213.19
800.28	213.17
800.60	213.10
800.92	213.13
801.24	213.08
801.56	213.11
801.89	213.09
802.21	213.04
802.53	212.95
802.85	213.02
803.17	213.20
803.49	213.11
803.81	213.03
804.13	212.99
804.45	212.98
804.77	212.97
805.09	212.97
805.41	212.96
805.73	212.85
806.05	212.71
806.37	212.64
806.69	212.66
807.01	212.62
807.33	212.70
807.65	212.66
807.97	212.78
808.28	212.72
808.60	212.70
808.92	212.68
809.24	212.88
809.56	212.75
809.88	212.62
810.20	212.60
810.52	212.65
810.84	212.58
811.16	212.56
811.48	212.56
811.80	212.63
812.12	212.58
812.43	212.68
812.75	212.74
813.07	212.66
813.39	212.62
813.71	212.61
814.03	212.51
814.35	212.42
814.67	212.26
814.98	212.23
815.30	212.23
815.62	212.18
815.94	211.90
816.26	211.92
816.58	211.88
816.89	211.95
817.21	211.87
817.53	211.89
817.85	211.89
818.17	211.80
818.48	211.65
818.80	211.73
819.12	211.67
819.44	211.62
819.76	211.60
820.07	211.61
820.39	211.57
820.71	211.63
821.03	211.67
821.34	211.67
821.66	211.72
821.98	211.75
822.30	211.75
822.61	211.96
822.93	211.89
823.25	211.89
823.57	211.85
823.88	211.92
824.20	211.99
824.52	212.05
824.83	212.05
825.15	212.03
825.47	211.98
825.79	212.01
826.10	211.97
826.42	212.06
826.74	212.14
827.05	212.15
827.37	212.16
827.69	212.08
828.00	212.04
828.32	212.02
828.64	211.94
828.95	212.13
829.27	212.05
829.58	212.13
829.90	212.20
830.22	212.20
830.53	212.18
830.85	212.11
831.17	212.05
831.48	212.10
831.80	212.19
832.11	212.19
832.43	212.14
832.75	212.17
833.06	212.30
833.38	212.25
833.69	212.21
834.01	212.20
834.32	212.26
834.64	212.31
834.96	212.39
835.27	212.40
835.59	212.29
835.90	212.25
836.22	212.23
836.53	212.12
836.85	212.03
837.16	212.33
837.48	212.35
837.79	212.44
838.11	212.45
838.42	212.35
838.74	212.40
839.05	212.39
839.37	212.41
839.68	212.23
840.00	212.16
840.31	212.26
840.63	212.30
840.94	212.29
841.26	212.23
841.57	212.14
841.88	212.14
842.20	212.10
842.51	212.08
842.83	212.06
843.14	212.41
843.46	212.50
843.77	212.28
844.08	212.25
844.40	212.11
844.71	212.11
845.03	212.10
845.34	212.07
845.65	212.07
845.97	211.98
846.28	211.87
846.60	211.91
846.91	211.85
847.22	211.83
847.54	211.83
847.85	211.86
848.16	211.87
848.48	211.80
848.79	211.89
849.10	211.94
849.42	211.97
849.73	211.69
850.04	211.67
850.36	211.55
850.67	211.64
850.98	211.67
851.30	211.71
851.61	211.76
851.92	211.78
852.23	211.85
852.55	211.94
852.86	211.99
853.17	211.97
853.49	211.94
853.80	211.94
854.11	212.02
854.42	212.03
854.74	211.99
855.05	212.03
855.36	211.85
855.67	211.79
855.99	211.73
856.30	212.05
856.61	211.96
856.92	212.00
857.23	211.94
857.55	211.89
857.86	211.79
858.17	211.77
858.48	211.68
858.79	211.62
859.11	211.61
859.42	211.63
859.73	211.58
860.04	211.61
860.35	211.56
860.66	211.37
860.98	211.36
861.29	211.37
861.60	211.36
861.91	211.44
862.22	211.40
862.53	211.35
862.84	210.98
863.16	211.05
863.47	211.00
863.78	210.95
864.09	210.97
864.40	211.01
864.71	211.04
865.02	211.07
865.33	211.01
865.64	211.00
865.95	210.97
866.27	211.24
866.58	211.28
866.89	211.24
867.20	211.30
867.51	211.23
867.82	211.21
868.13	211.37
868.44	211.24
868.75	211.37
869.06	211.38
869.37	211.40
869.68	211.40
869.99	211.43
870.30	211.45
870.61	211.49
870.92	211.48
871.23	211.45
871.54	211.49
871.85	211.61
872.16	211.61
872.47	211.60
872.78	211.37
873.09	211.31
873.40	211.33
873.71	211.35
874.02	211.40
874.33	211.41
874.64	211.28
874.95	211.36
875.26	211.24
875.56	211.25
875.87	211.22
876.18	211.17
876.49	211.51
876.80	211.49
877.11	211.40
877.42	211.39
877.73	211.42
878.04	211.33
878.35	211.29
878.66	211.35
878.96	211.39
879.27	211.41
879.58	211.42
879.89	211.47
880.20	211.58
880.51	211.53
880.82	211.50
881.12	211.45
881.43	211.40
881.74	211.40
882.05	211.41
882.36	211.45
882.67	211.48
882.97	211.14
883.28	211.20
883.59	211.24
883.90	211.23
884.21	211.25
884.51	211.33
884.82	211.26
885.13	211.25
885.44	211.21
885.74	211.20
886.05	211.20
886.36	211.14
886.67	211.01
886.98	211.18
887.28	211.27
887.59	211.33
887.90	211.40
888.20	211.35
888.51	211.39
888.82	211.30
889.13	211.34
889.43	211.63
889.74	211.54
890.05	211.56
890.35	211.55
890.66	211.47
890.97	211.40
891.28	211.41
891.58	211.36
891.89	211.39
892.20	211.32
892.50	211.33
892.81	211.29
893.12	211.29
893.42	211.16
893.73	211.10
894.04	211.13
894.34	211.18
894.65	211.23
894.95	211.19
895.26	211.25
895.57	211.35
895.87	211.05
896.18	211.09
896.48	211.06
896.79	211.07
897.10	211.12
897.40	211.09
897.71	211.15
898.01	211.11
898.32	211.10
898.63	211.06
898.93	211.03
899.24	211.08
899.54	211.08
899.85	211.05
900.15	211.08
900.46	211.02
900.76	211.04
901.07	210.95
901.38	210.94
901.68	210.94
901.99	210.81
902.29	210.77
902.60	210.79
902.90	210.77
903.21	210.75
903.51	210.77
903.82	210.88
904.12	210.85
904.43	210.91
904.73	210.93
905.03	211.02
905.34	211.35
905.64	211.34
905.95	211.30
906.25	211.34
906.56	211.33
906.86	211.31
907.17	211.29
907.47	211.36
907.77	211.38
908.08	211.35
908.38	211.40
908.69	211.44
908.99	211.41
909.30	211.45
909.60	211.51
909.90	211.50
910.21	211.39
910.51	211.39
910.81	211.36
911.12	211.38
911.42	211.35
911.73	211.05
912.03	211.06
912.33	211.15
912.64	211.09
912.94	211.06
913.24	211.03
913.55	210.94
913.85	210.97
914.15	210.96
914.46	211.02
914.76	210.94
915.06	210.92
915.37	210.86
915.67	210.81
915.97	210.77
916.27	210.76
916.58	210.80
916.88	210.76
917.18	210.75
917.49	210.98
917.79	210.97
918.09	210.97
918.39	211.00
918.70	210.98
919.00	210.99
919.30	211.22
919.60	211.21
919.91	211.20
920.21	211.15
920.51	211.14
920.81	211.09
921.12	211.15
921.42	211.20
921.72	211.35
922.02	211.39
922.32	211.45
922.63	211.39
922.93	211.56
923.23	211.54
923.53	211.50
923.83	211.28
924.13	211.37
924.44	211.43
924.74	211.49
925.04	211.56
925.34	211.60
925.64	211.47
925.94	211.52
926.24	211.74
926.55	211.73
926.85	211.82
927.15	211.80
927.45	211.77
927.75	211.77
928.05	211.71
928.35	211.66
928.65	211.65
928.95	211.75
929.26	211.64
929.56	211.76
929.86	211.82
930.16	211.75
930.46	211.70
930.76	211.65
931.06	211.48
931.36	211.39
931.66	211.40
931.96	211.41
932.26	211.44
932.56	211.21
932.86	211.21
933.16	211.17
933.46	211.14
933.76	211.11
934.06	211.16
934.36	211.29
934.66	211.30
934.96	211.30
935.26	211.30
935.56	211.31
935.86	211.20
936.16	211.18
936.46	211.17
936.76	211.21
937.06	211.16
937.36	211.27
937.66	211.27
937.96	211.29
938.26	211.21
938.56	211.13
938.86	211.21
939.16	211.30
939.46	211.32
939.76	211.41
940.06	211.40
940.35	211.24
940.65	211.08
940.95	211.10
941.25	211.04
941.55	211.00
941.85	211.00
942.15	211.14
942.45	211.24
942.75	211.32
943.04	211.25
943.34	211.37
943.64	211.33
943.94	211.31
944.24	211.29
944.54	211.29
944.84	211.30
945.13	211.24
945.43	211.18
945.73	211.21
946.03	211.15
946.33	211.15
946.62	211.19
946.92	211.18
947.22	211.23
947.52	211.23
947.82	211.26
948.11	211.22
948.41	211.12
948.71	211.04
949.01	211.03
949.31	211.06
949.60	210.96
949.90	211.00
950.20	210.95
950.50	210.94
950.79	210.89
951.09	210.96
951.39	210.96
951.69	210.94
951.98	210.94
952.28	210.93
952.58	210.97
952.87	211.00
953.17	210.99
953.47	210.99
953.76	211.04
954.06	210.96
954.36	210.88
954.66	210.84
954.95	210.89
955.25	210.88
955.55	210.87
955.84	210.90
956.14	210.91
956.44	210.97
956.73	210.95
957.03	211.02
957.32	210.95
957.62	210.91
957.92	210.94
958.21	210.97
958.51	211.36
958.81	211.40
959.10	211.38
959.40	211.53
959.69	211.50
959.99	211.52
960.29	211.50
960.58	211.49
960.88	211.68
961.17	211.69
961.47	211.71
961.76	211.62
962.06	211.65
962.36	211.60
962.65	211.59
962.95	211.64
963.24	211.59
963.54	211.68
963.83	211.69
964.13	211.66
964.42	211.49
964.72	211.21
965.01	211.19
965.31	211.18
965.60	211.06
965.90	211.32
966.19	211.19
966.49	211.27
966.78	211.29
967.08	211.17
967.37	211.10
967.67	211.09
967.96	211.15
968.26	211.18
968.55	211.25
968.85	211.20
969.14	211.12
969.43	211.13
969.73	210.98
970.02	211.00
970.32	211.02
970.61	211.11
970.91	210.98
971.20	210.92
971.49	210.91
971.79	210.93
972.08	210.61
972.38	210.70
972.67	210.67
972.96	210.74
973.26	210.75
973.55	210.86
973.85	210.78
974.14	210.80
974.43	210.73
974.73	210.65
975.02	210.60
975.31	210.62
975.61	210.61
975.90	210.62
976.19	210.54
976.49	210.64
976.78	210.62
977.07	210.62
977.37	210.61
977.66	210.65
977.95	210.63
978.24	210.64
978.54	210.69
978.83	210.68
979.12	210.65
979.42	210.62
979.71	210.62
980.00	210.62
980.29	210.58
980.59	210.55
980.88	210.68
981.17	210.70
981.46	210.69
981.76	210.70
982.05	210.84
982.34	210.91
982.63	210.80
982.93	210.79
983.22	210.92
983.51	210.97
983.80	211.04
984.09	211.05
984.39	211.11
984.68	211.04
984.97	211.02
985.26	210.94
985.55	210.94
985.85	210.84
986.14	210.86
986.43	210.95
986.72	210.90
987.01	210.75
987.30	210.74
987.59	210.72
987.89	210.74
988.18	210.63
988.47	210.64
988.76	210.66
989.05	210.59
989.34	210.53
989.63	210.49
989.92	210.46
990.22	210.43
990.51	210.44
990.80	210.41
991.09	210.41
991.38	210.49
991.67	210.50
991.96	210.49
992.25	210.53
992.54	210.50
992.83	210.54
993.12	210.53
993.41	210.63
993.70	210.80
993.99	210.81
994.28	210.86
994.58	210.82
994.87	210.82
995.16	210.85
995.45	210.81
995.74	210.84
996.03	210.85
996.32	210.86
996.61	210.90
996.90	210.85
997.19	210.90
997.48	210.83
997.77	210.79
998.06	210.67
998.34	210.70
998.63	210.65
998.92	210.64
999.21	210.69
999.50	210.71
999.79	210.56
1000.08	210.56
1000.37	210.53
1000.66	210.48
1000.95	210.51
1001.24	210.58
1001.53	210.61
1001.82	210.57
1002.11	210.50
1002.40	210.57
1002.68	210.61
1002.97	210.93
1003.26	210.89
1003.55	210.88
1003.84	210.87
1004.13	211.07
1004.42	210.96
1004.71	211.00
1004.99	210.94
1005.28	210.98
1005.57	210.90
1005.86	210.87
1006.15	210.84
1006.44	210.81
1006.72	210.88
1007.01	210.87
1007.30	210.89
1007.59	210.84
1007.88	210.90
1008.17	210.90
1008.45	210.82
1008.74	210.70
1009.03	210.54
1009.32	210.50
1009.60	210.56
1009.89	210.58
1010.18	210.41
1010.47	210.47
1010.76	210.47
1011.04	210.50
1011.33	210.92
1011.62	210.99
1011.91	211.03
1012.19	211.09
1012.48	211.13
1012.77	211.12
1013.05	211.20
1013.34	211.14
1013.63	211.20
1013.92	211.18
1014.20	211.20
1014.49	211.20
1014.78	211.23
1015.06	211.10
1015.35	211.14
1015.64	211.11
1015.92	211.14
1016.21	211.20
1016.50	211.25
1016.78	211.22
1017.07	211.24
1017.36	210.77
1017.64	210.75
1017.93	210.78
1018.22	210.71
1018.50	210.70
1018.79	210.78
1019.08	210.62
1019.36	210.62
1019.65	210.54
1019.93	210.66
1020.22	210.69
1020.51	210.83
1020.79	210.75
1021.08	209.85
1021.36	210.75
1021.65	211.85
1021.94	209.95
1022.22	210.30
1022.51	209.80
1022.79	213.15
1023.08	211.30
1023.36	213.80
1023.65	209.10
>>>>>End Processed Spectral Data<<<<<
