SpectraSuite Data File
++++++++++++++++++++++++++++++++++++
Date: Mon Feb 25 17:10:57 EST 2013
User: group
Dark Spectrum Present: No
Reference Spectrum Present: No
Number of Sampled Component Spectra: 1
Spectrometers: USB2E7196
Integration Time (usec): 104000 (USB2E7196)
Spectra Averaged: 20 (USB2E7196)
Boxcar Smoothing: 10 (USB2E7196)
Correct for Electrical Dark: No (USB2E7196)
Strobe/Lamp Enabled: No (USB2E7196)
Correct for Detector Non-linearity: No (USB2E7196)
Correct for Stray Light: No (USB2E7196)
Number of Pixels in Processed Spectrum: 2048
>>>>>Begin Processed Spectral Data<<<<<
339.09	0.00
339.48	198.10
339.86	201.35
340.24	201.50
340.63	201.95
341.01	208.85
341.39	205.00
341.78	206.95
342.16	208.85
342.54	207.90
342.93	198.17
343.31	208.14
343.69	208.71
344.07	209.06
344.46	209.53
344.84	209.96
345.22	210.05
345.60	210.34
345.99	210.54
346.37	210.55
346.75	210.66
347.13	210.72
347.52	210.76
347.90	210.83
348.28	210.83
348.66	210.88
349.05	210.75
349.43	210.80
349.81	210.84
350.19	210.82
350.57	210.82
350.96	210.86
351.34	211.00
351.72	211.00
352.10	211.16
352.48	211.19
352.87	211.19
353.25	211.21
353.63	211.22
354.01	211.26
354.39	211.48
354.77	211.58
355.15	211.80
355.54	211.78
355.92	211.87
356.30	211.98
356.68	212.25
357.06	212.48
357.44	212.54
357.82	212.60
358.20	212.67
358.58	212.68
358.97	212.74
359.35	212.85
359.73	213.03
360.11	213.01
360.49	213.07
360.87	213.14
361.25	213.25
361.63	213.46
362.01	213.55
362.39	213.53
362.77	213.55
363.15	213.51
363.53	213.61
363.91	213.62
364.29	213.67
364.67	213.42
365.05	213.36
365.43	213.41
365.81	213.50
366.19	213.70
366.57	213.90
366.95	213.96
367.33	213.88
367.71	213.90
368.09	214.00
368.47	214.00
368.85	214.08
369.23	214.10
369.61	213.96
369.99	214.06
370.37	214.12
370.75	214.35
371.13	214.26
371.51	214.21
371.89	214.16
372.27	214.18
372.65	214.15
373.03	214.13
373.41	214.07
373.78	213.99
374.16	213.74
374.54	213.58
374.92	213.54
375.30	213.47
375.68	213.37
376.06	213.34
376.44	213.31
376.82	213.23
377.19	213.19
377.57	213.16
377.95	212.98
378.33	212.84
378.71	212.54
379.09	212.51
379.47	212.54
379.84	212.49
380.22	212.33
380.60	212.18
380.98	212.03
381.36	211.95
381.73	211.82
382.11	211.83
382.49	211.79
382.87	211.61
383.25	211.60
383.62	212.00
384.00	211.91
384.38	211.88
384.76	211.92
385.13	212.05
385.51	212.00
385.89	211.97
386.27	211.96
386.64	212.03
387.02	211.93
387.40	211.84
387.78	211.86
388.15	211.86
388.53	211.90
388.91	211.90
389.29	211.80
389.66	211.82
390.04	211.75
390.42	211.80
390.79	211.85
391.17	211.85
391.55	211.32
391.92	211.25
392.30	211.20
392.68	211.10
393.05	210.93
393.43	210.94
393.81	210.89
394.18	210.80
394.56	210.71
394.94	210.80
395.31	210.70
395.69	210.73
396.06	210.75
396.44	210.77
396.82	210.77
397.19	211.02
397.57	211.06
397.95	211.12
398.32	210.94
398.70	210.95
399.07	210.91
399.45	210.96
399.82	211.00
400.20	210.96
400.58	210.94
400.95	210.85
401.33	210.87
401.70	211.10
402.08	211.23
402.45	211.25
402.83	211.38
403.20	211.48
403.58	211.49
403.95	211.60
404.33	211.65
404.71	211.73
405.08	211.89
405.46	211.92
405.83	212.00
406.21	212.13
406.58	212.22
406.96	212.35
407.33	212.51
407.70	212.63
408.08	213.05
408.45	213.26
408.83	213.50
409.20	213.63
409.58	213.56
409.95	213.70
410.33	213.95
410.70	214.04
411.08	214.35
411.45	214.61
411.82	214.83
412.20	215.14
412.57	215.60
412.95	215.62
413.32	215.99
413.69	216.33
414.07	216.69
414.44	217.08
414.82	217.53
415.19	218.02
415.56	218.57
415.94	218.92
416.31	219.59
416.68	220.22
417.06	220.95
417.43	221.70
417.81	222.50
418.18	223.25
418.55	224.05
418.93	224.86
419.30	225.77
419.67	226.76
420.04	227.74
420.42	228.67
420.79	230.12
421.16	231.24
421.54	232.69
421.91	234.10
422.28	235.54
422.66	236.99
423.03	238.68
423.40	240.07
423.77	241.59
424.15	243.07
424.52	244.73
424.89	246.63
425.26	248.25
425.64	249.89
426.01	251.74
426.38	253.71
426.75	255.76
427.13	257.73
427.50	259.77
427.87	261.96
428.24	264.13
428.61	266.09
428.99	268.60
429.36	270.96
429.73	273.38
430.10	275.82
430.47	278.40
430.85	280.74
431.22	283.54
431.59	286.62
431.96	289.49
432.33	292.44
432.70	295.35
433.08	298.84
433.45	302.16
433.82	305.42
434.19	309.03
434.56	312.61
434.93	316.07
435.30	319.58
435.68	323.33
436.05	327.11
436.42	330.79
436.79	334.18
437.16	337.75
437.53	341.51
437.90	345.20
438.27	348.87
438.64	352.64
439.01	356.18
439.38	359.31
439.75	362.31
440.13	365.89
440.50	369.15
440.87	372.00
441.24	374.77
441.61	377.79
441.98	380.10
442.35	382.61
442.72	385.25
443.09	387.91
443.46	389.49
443.83	390.51
444.20	391.52
444.57	392.78
444.94	393.50
445.31	394.27
445.68	395.35
446.05	395.68
446.42	395.37
446.79	395.15
447.16	394.68
447.53	394.48
447.90	393.11
448.27	391.69
448.64	389.81
449.01	388.47
449.37	386.19
449.74	383.74
450.11	381.16
450.48	378.00
450.85	374.65
451.22	371.84
451.59	369.26
451.96	366.72
452.33	363.38
452.70	360.33
453.07	356.60
453.43	352.62
453.80	349.11
454.17	345.77
454.54	342.44
454.91	338.87
455.28	335.45
455.65	332.27
456.02	329.61
456.38	326.85
456.75	323.52
457.12	320.64
457.49	317.94
457.86	315.11
458.23	312.99
458.59	310.55
458.96	308.05
459.33	305.77
459.70	303.42
460.07	301.61
460.43	299.45
460.80	297.65
461.17	295.94
461.54	294.05
461.91	292.38
462.27	290.65
462.64	289.22
463.01	287.64
463.38	286.23
463.74	284.20
464.11	282.75
464.48	281.60
464.85	280.29
465.21	279.31
465.58	278.21
465.95	276.75
466.32	275.65
466.68	274.55
467.05	273.51
467.42	272.46
467.78	271.30
468.15	270.35
468.52	269.51
468.88	268.45
469.25	267.62
469.62	266.84
469.98	266.05
470.35	265.36
470.72	264.55
471.08	263.65
471.45	263.07
471.82	262.54
472.18	261.83
472.55	261.30
472.92	260.67
473.28	260.12
473.65	259.60
474.02	259.04
474.38	258.78
474.75	258.41
475.11	258.07
475.48	257.82
475.85	257.57
476.21	257.39
476.58	257.17
476.94	256.95
477.31	256.81
477.67	256.65
478.04	256.52
478.41	256.53
478.77	256.89
479.14	256.72
479.50	256.79
479.87	256.84
480.23	256.93
480.60	256.89
480.96	256.94
481.33	257.31
481.69	257.52
482.06	257.58
482.42	257.84
482.79	258.06
483.15	258.27
483.52	258.63
483.88	258.85
484.25	259.22
484.61	259.56
484.98	259.89
485.34	260.45
485.71	260.94
486.07	261.38
486.44	261.58
486.80	262.20
487.17	262.78
487.53	263.54
487.90	264.27
488.26	265.29
488.62	266.25
488.99	266.98
489.35	267.86
489.72	268.85
490.08	269.82
490.44	270.88
490.81	272.12
491.17	273.28
491.54	274.59
491.90	275.87
492.26	277.28
492.63	278.79
492.99	280.14
493.36	281.68
493.72	283.44
494.08	285.22
494.45	287.11
494.81	288.90
495.17	290.71
495.54	292.86
495.90	294.87
496.26	296.95
496.63	299.26
496.99	301.67
497.35	304.17
497.72	306.76
498.08	309.33
498.44	311.95
498.80	314.87
499.17	317.79
499.53	320.72
499.89	323.87
500.26	327.10
500.62	330.33
500.98	333.89
501.34	337.30
501.71	340.85
502.07	344.50
502.43	348.31
502.79	352.16
503.16	356.10
503.52	360.15
503.88	364.38
504.24	368.72
504.60	373.06
504.97	377.56
505.33	382.11
505.69	387.06
506.05	392.01
506.41	396.76
506.78	401.66
507.14	406.83
507.50	411.97
507.86	417.23
508.22	422.85
508.59	428.16
508.95	433.89
509.31	439.75
509.67	445.64
510.03	451.53
510.39	457.62
510.75	463.75
511.12	470.09
511.48	476.35
511.84	482.78
512.20	489.33
512.56	495.88
512.92	502.65
513.28	509.31
513.64	515.99
514.00	522.97
514.37	530.22
514.73	537.53
515.09	544.75
515.45	551.96
515.81	559.10
516.17	566.49
516.53	573.73
516.89	581.07
517.25	588.42
517.61	596.01
517.97	603.59
518.33	611.20
518.69	618.77
519.05	626.66
519.41	634.54
519.77	642.73
520.13	650.70
520.49	658.44
520.85	666.43
521.21	674.74
521.57	682.85
521.93	690.50
522.29	698.48
522.65	706.56
523.01	714.67
523.37	722.78
523.73	731.04
524.09	739.25
524.45	747.47
524.81	755.84
525.17	764.30
525.53	772.62
525.89	780.87
526.25	789.05
526.61	796.97
526.97	804.97
527.33	813.00
527.68	821.20
528.04	829.22
528.40	836.95
528.76	844.62
529.12	852.56
529.48	860.76
529.84	868.73
530.20	876.96
530.56	884.99
530.91	893.01
531.27	901.09
531.63	909.19
531.99	917.07
532.35	924.83
532.71	932.36
533.07	940.04
533.42	947.84
533.78	955.46
534.14	963.03
534.50	970.05
534.86	977.22
535.21	984.07
535.57	991.57
535.93	998.53
536.29	1005.73
536.65	1012.81
537.00	1019.43
537.36	1025.82
537.72	1032.07
538.08	1038.50
538.44	1044.89
538.79	1051.11
539.15	1057.18
539.51	1063.17
539.87	1069.45
540.22	1075.37
540.58	1081.69
540.94	1087.48
541.29	1093.02
541.65	1098.34
542.01	1104.23
542.37	1109.46
542.72	1114.92
543.08	1119.83
543.44	1125.49
543.79	1130.15
544.15	1134.67
544.51	1139.70
544.87	1144.72
545.22	1149.03
545.58	1153.24
545.94	1157.15
546.29	1160.65
546.65	1164.36
547.01	1167.86
547.36	1171.17
547.72	1174.59
548.07	1177.28
548.43	1180.14
548.79	1183.03
549.14	1185.99
549.50	1188.55
549.86	1190.83
550.21	1193.39
550.57	1195.78
550.92	1197.47
551.28	1199.74
551.64	1201.92
551.99	1203.80
552.35	1205.30
552.70	1207.11
553.06	1208.86
553.41	1210.53
553.77	1212.22
554.13	1213.66
554.48	1215.25
554.84	1216.84
555.19	1217.97
555.55	1219.16
555.90	1219.63
556.26	1220.51
556.61	1220.91
556.97	1221.00
557.32	1221.85
557.68	1221.90
558.03	1222.29
558.39	1222.67
558.74	1223.07
559.10	1223.57
559.45	1223.73
559.81	1224.19
560.16	1224.16
560.52	1224.25
560.87	1224.15
561.23	1223.88
561.58	1223.98
561.94	1223.46
562.29	1222.37
562.64	1222.03
563.00	1221.50
563.35	1221.52
563.71	1221.26
564.06	1221.34
564.42	1221.50
564.77	1221.11
565.12	1220.81
565.48	1220.65
565.83	1220.28
566.19	1219.73
566.54	1218.72
566.89	1217.75
567.25	1216.90
567.60	1216.25
567.96	1215.40
568.31	1214.64
568.66	1213.60
569.02	1211.88
569.37	1210.60
569.72	1209.60
570.08	1208.00
570.43	1206.39
570.78	1204.52
571.14	1202.75
571.49	1200.71
571.84	1198.98
572.20	1197.12
572.55	1195.36
572.90	1192.75
573.26	1190.54
573.61	1188.15
573.96	1185.70
574.31	1183.19
574.67	1180.36
575.02	1177.46
575.37	1174.45
575.72	1171.24
576.08	1168.70
576.43	1166.22
576.78	1163.44
577.13	1160.99
577.49	1158.31
577.84	1155.77
578.19	1153.54
578.54	1151.22
578.90	1149.12
579.25	1146.11
579.60	1143.01
579.95	1139.86
580.30	1137.34
580.66	1134.84
581.01	1131.94
581.36	1128.80
581.71	1125.86
582.06	1123.11
582.42	1120.69
582.77	1117.75
583.12	1115.11
583.47	1112.57
583.82	1109.82
584.17	1107.22
584.53	1104.36
584.88	1101.63
585.23	1098.85
585.58	1095.99
585.93	1092.82
586.28	1089.88
586.63	1087.32
586.98	1084.65
587.34	1082.36
587.69	1079.48
588.04	1076.37
588.39	1073.70
588.74	1070.99
589.09	1068.60
589.44	1065.70
589.79	1062.86
590.14	1060.33
590.49	1057.56
590.84	1054.44
591.19	1052.01
591.54	1049.20
591.89	1045.82
592.25	1043.09
592.60	1039.80
592.95	1036.20
593.30	1032.79
593.65	1029.41
594.00	1026.17
594.35	1023.95
594.70	1020.62
595.05	1017.63
595.40	1014.71
595.75	1011.31
596.10	1008.48
596.45	1005.49
596.80	1002.66
597.15	999.67
597.50	996.67
597.85	993.86
598.19	990.72
598.54	987.65
598.89	984.52
599.24	982.24
599.59	979.36
599.94	977.06
600.29	974.61
600.64	971.99
600.99	968.90
601.34	966.40
601.69	962.80
602.04	959.85
602.39	957.00
602.74	954.13
603.08	952.00
603.43	949.75
603.78	946.97
604.13	944.19
604.48	941.34
604.83	939.12
605.18	936.66
605.53	934.24
605.87	931.18
606.22	928.83
606.57	926.02
606.92	923.04
607.27	919.89
607.62	917.24
607.96	914.71
608.31	912.34
608.66	909.25
609.01	906.36
609.36	903.41
609.70	900.41
610.05	897.24
610.40	893.88
610.75	890.23
611.10	887.21
611.44	883.70
611.79	880.43
612.14	876.57
612.49	872.91
612.83	869.60
613.18	866.00
613.53	862.33
613.88	858.32
614.22	854.97
614.57	851.33
614.92	847.61
615.27	843.92
615.61	840.27
615.96	836.68
616.31	833.23
616.65	830.23
617.00	826.70
617.35	823.40
617.70	819.56
618.04	816.02
618.39	812.01
618.74	808.65
619.08	805.03
619.43	801.55
619.78	798.04
620.12	794.47
620.47	791.09
620.82	787.51
621.16	783.94
621.51	780.35
621.85	777.05
622.20	773.34
622.55	769.79
622.89	766.05
623.24	762.49
623.59	758.63
623.93	754.94
624.28	751.51
624.62	748.16
624.97	745.04
625.32	741.65
625.66	738.67
626.01	735.45
626.35	732.23
626.70	728.89
627.04	725.91
627.39	722.51
627.73	719.37
628.08	716.18
628.43	713.00
628.77	709.60
629.12	706.28
629.46	703.58
629.81	700.34
630.15	697.30
630.50	694.06
630.84	691.07
631.19	687.67
631.53	684.51
631.88	680.99
632.22	677.64
632.57	674.70
632.91	671.39
633.26	668.16
633.60	665.02
633.95	662.04
634.29	658.62
634.64	655.73
634.98	652.56
635.32	649.62
635.67	646.86
636.01	644.01
636.36	640.90
636.70	637.85
637.05	634.91
637.39	632.02
637.73	629.35
638.08	626.72
638.42	624.21
638.77	621.42
639.11	618.71
639.45	615.92
639.80	612.60
640.14	609.59
640.49	606.66
640.83	603.78
641.17	600.87
641.52	597.96
641.86	594.90
642.20	592.08
642.55	588.95
642.89	585.94
643.23	582.86
643.58	580.34
643.92	577.30
644.26	574.45
644.61	571.55
644.95	568.61
645.29	565.69
645.64	562.70
645.98	559.85
646.32	557.16
646.66	554.16
647.01	551.64
647.35	549.00
647.69	546.09
648.04	543.38
648.38	540.54
648.72	537.82
649.06	535.05
649.41	532.23
649.75	529.57
650.09	526.86
650.43	524.26
650.78	521.22
651.12	518.42
651.46	515.84
651.80	513.18
652.14	510.58
652.49	507.86
652.83	505.14
653.17	502.22
653.51	499.35
653.85	496.94
654.20	494.29
654.54	491.54
654.88	488.98
655.22	486.42
655.56	483.80
655.90	481.17
656.25	478.64
656.59	476.11
656.93	473.61
657.27	471.18
657.61	468.57
657.95	466.22
658.29	463.82
658.64	461.31
658.98	458.80
659.32	456.19
659.66	453.80
660.00	451.42
660.34	449.10
660.68	446.69
661.02	444.27
661.36	441.96
661.70	439.75
662.05	437.61
662.39	435.42
662.73	433.39
663.07	431.36
663.41	429.21
663.75	427.03
664.09	424.82
664.43	422.62
664.77	420.49
665.11	418.37
665.45	416.40
665.79	414.45
666.13	412.48
666.47	410.57
666.81	408.53
667.15	406.47
667.49	404.57
667.83	402.87
668.17	401.01
668.51	399.21
668.85	397.50
669.19	395.92
669.53	393.88
669.87	391.99
670.21	390.19
670.55	388.48
670.89	387.10
671.23	385.54
671.57	383.95
671.91	382.40
672.25	380.77
672.58	379.20
672.92	377.50
673.26	375.86
673.60	374.36
673.94	372.93
674.28	371.44
674.62	370.07
674.96	368.55
675.30	367.07
675.64	365.58
675.97	364.09
676.31	362.52
676.65	361.14
676.99	359.88
677.33	358.45
677.67	357.00
678.01	355.41
678.34	354.01
678.68	352.56
679.02	351.15
679.36	349.75
679.70	348.32
680.04	346.90
680.37	345.60
680.71	344.20
681.05	342.91
681.39	341.54
681.73	340.12
682.06	338.81
682.40	337.54
682.74	336.15
683.08	334.89
683.42	333.48
683.75	332.37
684.09	330.94
684.43	329.68
684.77	328.41
685.10	327.11
685.44	325.77
685.78	324.58
686.12	323.44
686.45	322.31
686.79	321.09
687.13	320.06
687.46	318.88
687.80	317.86
688.14	316.64
688.48	315.67
688.81	314.51
689.15	313.47
689.49	312.33
689.82	311.34
690.16	310.06
690.50	308.90
690.83	307.67
691.17	306.55
691.51	305.47
691.84	304.43
692.18	303.40
692.52	302.49
692.85	301.55
693.19	300.72
693.52	299.72
693.86	298.69
694.20	297.71
694.53	296.88
694.87	295.81
695.21	294.82
695.54	293.75
695.88	292.81
696.21	291.70
696.55	290.83
696.88	289.86
697.22	288.96
697.56	288.27
697.89	287.39
698.23	286.55
698.56	285.64
698.90	284.89
699.23	284.02
699.57	283.18
699.90	282.29
700.24	281.26
700.58	280.47
700.91	279.70
701.25	279.13
701.58	278.32
701.92	277.64
702.25	276.90
702.59	276.17
702.92	275.44
703.26	274.69
703.59	273.98
703.93	273.64
704.26	273.02
704.60	272.30
704.93	271.62
705.26	271.00
705.60	270.43
705.93	269.66
706.27	269.17
706.60	268.53
706.94	268.04
707.27	267.39
707.61	266.78
707.94	266.20
708.27	265.36
708.61	264.69
708.94	264.09
709.28	263.47
709.61	262.85
709.94	262.27
710.28	261.82
710.61	261.27
710.95	260.37
711.28	259.98
711.61	259.49
711.95	259.07
712.28	258.50
712.61	257.99
712.95	257.61
713.28	257.13
713.61	256.56
713.95	255.92
714.28	255.52
714.61	254.94
714.95	254.40
715.28	253.89
715.61	253.44
715.95	252.97
716.28	252.44
716.61	252.12
716.95	251.63
717.28	251.12
717.61	250.70
717.94	250.31
718.28	249.69
718.61	249.16
718.94	248.67
719.27	248.27
719.61	247.88
719.94	247.43
720.27	246.86
720.60	246.39
720.94	246.03
721.27	245.64
721.60	245.32
721.93	244.92
722.27	244.72
722.60	244.34
722.93	243.85
723.26	243.61
723.59	243.17
723.93	242.95
724.26	242.63
724.59	242.30
724.92	241.98
725.25	241.78
725.59	241.48
725.92	241.32
726.25	241.00
726.58	240.61
726.91	240.42
727.24	240.19
727.57	239.98
727.91	239.66
728.24	239.36
728.57	239.04
728.90	238.91
729.23	238.46
729.56	238.40
729.89	238.19
730.22	237.85
730.55	237.57
730.89	237.29
731.22	237.00
731.55	236.69
731.88	236.41
732.21	236.14
732.54	235.83
732.87	235.45
733.20	235.19
733.53	234.99
733.86	234.64
734.19	234.38
734.52	234.23
734.85	234.19
735.18	233.98
735.51	233.86
735.84	233.57
736.17	233.43
736.50	233.01
736.83	233.29
737.16	233.12
737.49	232.92
737.82	232.70
738.15	232.55
738.48	232.33
738.81	232.07
739.14	231.82
739.47	231.63
739.80	231.38
740.13	231.22
740.46	231.03
740.79	230.79
741.12	230.59
741.45	230.29
741.78	229.97
742.11	229.86
742.44	229.54
742.77	229.42
743.10	229.22
743.43	229.04
743.75	228.37
744.08	228.65
744.41	228.39
744.74	228.16
745.07	227.89
745.40	227.78
745.73	227.79
746.06	227.60
746.39	227.40
746.71	227.31
747.04	227.12
747.37	226.92
747.70	226.84
748.03	226.66
748.36	226.54
748.68	226.33
749.01	226.07
749.34	226.01
749.67	225.82
750.00	225.76
750.33	225.85
750.65	225.79
750.98	225.15
751.31	225.06
751.64	225.02
751.97	225.15
752.29	224.98
752.62	224.69
752.95	224.61
753.28	224.54
753.60	224.32
753.93	224.23
754.26	224.15
754.59	223.91
754.91	223.78
755.24	223.64
755.57	223.48
755.90	223.27
756.22	223.10
756.55	222.95
756.88	222.70
757.20	222.31
757.53	222.04
757.86	221.94
758.19	221.78
758.51	221.68
758.84	221.34
759.17	221.22
759.49	221.08
759.82	221.08
760.15	220.96
760.47	220.90
760.80	220.71
761.13	220.59
761.45	220.48
761.78	220.35
762.11	220.28
762.43	220.13
762.76	220.07
763.08	219.99
763.41	219.90
763.74	219.81
764.06	219.67
764.39	219.60
764.71	219.53
765.04	219.47
765.37	219.27
765.69	219.12
766.02	219.04
766.34	219.02
766.67	218.73
767.00	218.72
767.32	218.77
767.65	218.95
767.97	218.87
768.30	218.85
768.62	218.76
768.95	218.58
769.27	218.58
769.60	218.61
769.92	218.52
770.25	218.39
770.57	218.25
770.90	218.17
771.22	218.09
771.55	217.99
771.87	217.91
772.20	217.80
772.52	218.01
772.85	218.42
773.17	218.33
773.50	218.32
773.82	218.13
774.15	217.97
774.47	217.66
774.80	217.48
775.12	217.39
775.45	217.36
775.77	217.38
776.09	217.30
776.42	217.21
776.74	217.20
777.07	217.18
777.39	217.15
777.72	217.13
778.04	217.14
778.36	217.04
778.69	217.00
779.01	217.01
779.33	216.69
779.66	216.15
779.98	215.98
780.31	215.91
780.63	216.08
780.95	216.08
781.28	216.01
781.60	215.97
781.92	215.86
782.25	215.77
782.57	215.71
782.89	215.70
783.22	215.62
783.54	215.52
783.86	215.42
784.19	215.31
784.51	215.33
784.83	215.19
785.16	215.15
785.48	215.14
785.80	215.03
786.12	215.12
786.45	215.06
786.77	215.09
787.09	215.02
787.42	214.82
787.74	214.69
788.06	214.67
788.38	214.56
788.71	214.52
789.03	214.51
789.35	214.53
789.67	214.44
789.99	214.43
790.32	214.29
790.64	214.29
790.96	214.65
791.28	214.45
791.61	214.41
791.93	214.45
792.25	214.43
792.57	214.64
792.89	214.54
793.21	214.55
793.54	214.56
793.86	214.54
794.18	214.55
794.50	214.50
794.82	214.47
795.14	214.57
795.47	214.63
795.79	214.56
796.11	214.43
796.43	214.36
796.75	214.30
797.07	214.33
797.39	214.30
797.71	214.06
798.04	214.10
798.36	214.17
798.68	214.07
799.00	214.00
799.32	213.84
799.64	213.84
799.96	213.89
800.28	213.96
800.60	213.91
800.92	213.90
801.24	213.92
801.56	213.93
801.89	213.83
802.21	213.79
802.53	213.78
802.85	213.80
803.17	213.97
803.49	213.85
803.81	213.91
804.13	213.88
804.45	213.82
804.77	213.86
805.09	213.81
805.41	213.83
805.73	213.78
806.05	213.67
806.37	213.59
806.69	213.45
807.01	213.26
807.33	213.24
807.65	213.12
807.97	213.22
808.28	213.11
808.60	213.10
808.92	213.05
809.24	213.24
809.56	213.19
809.88	213.05
810.20	213.10
810.52	213.12
810.84	213.12
811.16	213.09
811.48	212.98
811.80	213.02
812.12	212.93
812.43	213.00
812.75	213.04
813.07	213.00
813.39	213.04
813.71	213.09
814.03	213.02
814.35	213.07
814.67	212.88
814.98	212.82
815.30	212.82
815.62	212.75
815.94	212.56
816.26	212.55
816.58	212.47
816.89	212.50
817.21	212.38
817.53	212.27
817.85	212.21
818.17	212.17
818.48	212.05
818.80	212.15
819.12	212.11
819.44	211.99
819.76	211.96
820.07	211.90
820.39	211.85
820.71	211.94
821.03	211.82
821.34	211.78
821.66	211.84
821.98	211.86
822.30	211.85
822.61	211.99
822.93	211.97
823.25	211.96
823.57	211.84
823.88	211.99
824.20	211.95
824.52	212.02
824.83	212.04
825.15	212.07
825.47	212.00
825.79	212.00
826.10	211.95
826.42	211.98
826.74	212.02
827.05	212.08
827.37	212.04
827.69	212.08
828.00	212.12
828.32	212.13
828.64	212.03
828.95	212.29
829.27	212.18
829.58	212.19
829.90	212.23
830.22	212.32
830.53	212.13
830.85	212.15
831.17	212.10
831.48	212.10
831.80	212.07
832.11	212.05
832.43	211.98
832.75	212.04
833.06	212.22
833.38	212.20
833.69	212.08
834.01	212.10
834.32	212.13
834.64	212.08
834.96	212.11
835.27	212.19
835.59	212.04
835.90	211.94
836.22	211.96
836.53	211.99
836.85	211.94
837.16	212.30
837.48	212.29
837.79	212.34
838.11	212.30
838.42	212.31
838.74	212.36
839.05	212.35
839.37	212.34
839.68	212.10
840.00	212.04
840.31	212.10
840.63	212.08
840.94	212.00
841.26	211.96
841.57	212.02
841.88	212.06
842.20	212.07
842.51	212.03
842.83	211.98
843.14	212.21
843.46	212.23
843.77	212.08
844.08	212.11
844.40	212.01
844.71	212.00
845.03	211.93
845.34	211.88
845.65	211.90
845.97	211.89
846.28	211.92
846.60	211.88
846.91	211.83
847.22	211.80
847.54	211.92
847.85	211.99
848.16	211.85
848.48	211.79
848.79	211.84
849.10	211.91
849.42	211.96
849.73	211.58
850.04	211.49
850.36	211.30
850.67	211.35
850.98	211.43
851.30	211.49
851.61	211.45
851.92	211.37
852.23	211.46
852.55	211.50
852.86	211.51
853.17	211.62
853.49	211.69
853.80	211.78
854.11	211.76
854.42	211.81
854.74	211.82
855.05	211.75
855.36	211.57
855.67	211.65
855.99	211.65
856.30	212.11
856.61	212.17
856.92	212.18
857.23	212.18
857.55	212.05
857.86	211.99
858.17	212.10
858.48	212.23
858.79	212.13
859.11	212.18
859.42	212.11
859.73	212.05
860.04	212.06
860.35	211.91
860.66	211.85
860.98	211.85
861.29	211.88
861.60	211.86
861.91	211.95
862.22	211.82
862.53	211.80
862.84	211.34
863.16	211.45
863.47	211.44
863.78	211.40
864.09	211.49
864.40	211.50
864.71	211.47
865.02	211.44
865.33	211.40
865.64	211.29
865.95	211.35
866.27	211.51
866.58	211.49
866.89	211.58
867.20	211.58
867.51	211.53
867.82	211.45
868.13	211.70
868.44	211.71
868.75	211.81
869.06	211.82
869.37	211.94
869.68	211.81
869.99	211.86
870.30	211.83
870.61	211.86
870.92	211.82
871.23	211.78
871.54	211.84
871.85	211.93
872.16	212.06
872.47	212.05
872.78	211.93
873.09	211.94
873.40	211.88
873.71	211.90
874.02	211.85
874.33	211.86
874.64	211.72
874.95	211.70
875.26	211.63
875.56	211.55
875.87	211.49
876.18	211.44
876.49	211.78
876.80	211.80
877.11	211.76
877.42	211.76
877.73	211.85
878.04	211.74
878.35	211.73
878.66	211.71
878.96	211.69
879.27	211.65
879.58	211.56
879.89	211.57
880.20	211.66
880.51	211.68
880.82	211.69
881.12	211.57
881.43	211.55
881.74	211.50
882.05	211.55
882.36	211.57
882.67	211.63
882.97	211.27
883.28	211.18
883.59	211.10
883.90	211.20
884.21	211.17
884.51	211.15
884.82	211.07
885.13	210.98
885.44	210.97
885.74	210.96
886.05	211.03
886.36	210.99
886.67	210.83
886.98	211.01
887.28	211.01
887.59	211.07
887.90	211.01
888.20	210.99
888.51	211.05
888.82	210.92
889.13	210.87
889.43	211.09
889.74	211.11
890.05	211.17
890.35	211.07
890.66	211.07
890.97	211.03
891.28	211.01
891.58	211.09
891.89	211.07
892.20	211.07
892.50	211.01
892.81	211.05
893.12	211.02
893.42	210.75
893.73	210.70
894.04	210.75
894.34	210.82
894.65	210.74
894.95	210.69
895.26	210.78
895.57	210.95
895.87	210.61
896.18	210.70
896.48	210.67
896.79	210.67
897.10	210.72
897.40	210.78
897.71	210.83
898.01	210.75
898.32	210.84
898.63	210.80
898.93	210.79
899.24	210.77
899.54	210.83
899.85	210.95
900.15	211.01
900.46	210.97
900.76	210.99
901.07	211.01
901.38	210.97
901.68	210.99
901.99	210.85
902.29	210.93
902.60	210.84
902.90	210.85
903.21	210.79
903.51	210.76
903.82	210.87
904.12	210.86
904.43	210.88
904.73	210.84
905.03	210.81
905.34	211.10
905.64	211.11
905.95	211.05
906.25	211.05
906.56	211.00
906.86	211.06
907.17	211.00
907.47	211.04
907.77	211.03
908.08	211.04
908.38	211.08
908.69	211.07
908.99	211.20
909.30	211.18
909.60	211.29
909.90	211.25
910.21	211.09
910.51	211.10
910.81	211.07
911.12	211.08
911.42	211.19
911.73	210.92
912.03	210.95
912.33	211.09
912.64	211.05
912.94	211.06
913.24	210.97
913.55	210.96
913.85	210.94
914.15	211.04
914.46	211.09
914.76	211.10
915.06	211.07
915.37	210.95
915.67	210.95
915.97	211.00
916.27	210.92
916.58	211.00
916.88	210.97
917.18	211.00
917.49	211.20
917.79	211.12
918.09	211.12
918.39	211.16
918.70	211.03
919.00	211.10
919.30	211.26
919.60	211.22
919.91	211.26
920.21	211.34
920.51	211.22
920.81	211.11
921.12	211.11
921.42	211.12
921.72	211.16
922.02	211.16
922.32	211.12
922.63	211.21
922.93	211.33
923.23	211.33
923.53	211.27
923.83	211.07
924.13	211.14
924.44	211.15
924.74	211.30
925.04	211.46
925.34	211.44
925.64	211.34
925.94	211.39
926.24	211.58
926.55	211.50
926.85	211.60
927.15	211.66
927.45	211.63
927.75	211.67
928.05	211.69
928.35	211.77
928.65	211.82
928.95	211.80
929.26	211.70
929.56	211.72
929.86	211.82
930.16	211.83
930.46	211.80
930.76	211.82
931.06	211.54
931.36	211.42
931.66	211.41
931.96	211.44
932.26	211.45
932.56	211.29
932.86	211.31
933.16	211.30
933.46	211.22
933.76	211.22
934.06	211.30
934.36	211.39
934.66	211.29
934.96	211.26
935.26	211.30
935.56	211.28
935.86	211.20
936.16	211.11
936.46	211.05
936.76	211.02
937.06	210.98
937.36	211.07
937.66	211.06
937.96	211.08
938.26	210.94
938.56	210.93
938.86	210.93
939.16	211.08
939.46	211.03
939.76	211.05
940.06	211.04
940.35	210.93
940.65	210.75
940.95	210.83
941.25	210.71
941.55	210.65
941.85	210.68
942.15	210.75
942.45	210.87
942.75	210.94
943.04	210.92
943.34	210.99
943.64	210.98
943.94	210.95
944.24	210.93
944.54	211.02
944.84	211.02
945.13	210.95
945.43	210.88
945.73	210.89
946.03	210.86
946.33	210.77
946.62	210.74
946.92	210.77
947.22	210.80
947.52	210.92
947.82	211.05
948.11	210.93
948.41	210.92
948.71	210.82
949.01	210.84
949.31	210.85
949.60	210.81
949.90	210.85
950.20	210.81
950.50	210.76
950.79	210.75
951.09	210.83
951.39	210.79
951.69	210.71
951.98	210.73
952.28	210.78
952.58	210.84
952.87	210.90
953.17	210.97
953.47	210.91
953.76	210.86
954.06	210.68
954.36	210.76
954.66	210.69
954.95	210.82
955.25	210.73
955.55	210.78
955.84	210.71
956.14	210.75
956.44	210.83
956.73	210.83
957.03	210.75
957.32	210.73
957.62	210.87
957.92	210.95
958.21	211.00
958.51	211.45
958.81	211.49
959.10	211.56
959.40	211.62
959.69	211.63
959.99	211.76
960.29	211.84
960.58	211.73
960.88	211.84
961.17	211.73
961.47	211.81
961.76	211.73
962.06	211.89
962.36	211.83
962.65	211.89
962.95	211.85
963.24	211.84
963.54	211.81
963.83	211.71
964.13	211.67
964.42	211.62
964.72	211.29
965.01	211.28
965.31	211.24
965.60	211.19
965.90	211.42
966.19	211.30
966.49	211.28
966.78	211.35
967.08	211.39
967.37	211.36
967.67	211.31
967.96	211.42
968.26	211.36
968.55	211.42
968.85	211.43
969.14	211.48
969.43	211.48
969.73	211.47
970.02	211.49
970.32	211.50
970.61	211.41
970.91	211.31
971.20	211.25
971.49	211.16
971.79	211.20
972.08	210.87
972.38	210.84
972.67	210.82
972.96	210.83
973.26	210.81
973.55	210.94
973.85	210.91
974.14	210.86
974.43	210.88
974.73	210.79
975.02	210.76
975.31	210.74
975.61	210.77
975.90	210.79
976.19	210.76
976.49	210.85
976.78	210.87
977.07	210.87
977.37	210.98
977.66	211.07
977.95	210.99
978.24	211.10
978.54	211.18
978.83	211.18
979.12	211.19
979.42	211.14
979.71	211.05
980.00	211.05
980.29	211.08
980.59	210.95
980.88	211.13
981.17	211.10
981.46	211.10
981.76	211.13
982.05	211.24
982.34	211.26
982.63	211.15
982.93	211.17
983.22	211.28
983.51	211.26
983.80	211.25
984.09	211.28
984.39	211.19
984.68	211.21
984.97	211.22
985.26	211.19
985.55	211.22
985.85	211.21
986.14	211.27
986.43	211.32
986.72	211.35
987.01	211.17
987.30	211.11
987.59	211.12
987.89	211.16
988.18	210.96
988.47	210.96
988.76	210.95
989.05	210.93
989.34	210.87
989.63	210.89
989.92	210.89
990.22	210.90
990.51	210.95
990.80	210.88
991.09	210.92
991.38	210.96
991.67	210.89
991.96	210.81
992.25	210.83
992.54	210.81
992.83	210.82
993.12	210.80
993.41	210.87
993.70	211.01
993.99	210.97
994.28	211.04
994.58	211.15
994.87	211.14
995.16	211.19
995.45	211.13
995.74	211.04
996.03	211.04
996.32	211.08
996.61	211.12
996.90	211.09
997.19	211.08
997.48	211.09
997.77	211.13
998.06	211.17
998.34	211.11
998.63	211.05
998.92	211.05
999.21	211.09
999.50	211.13
999.79	211.00
1000.08	210.97
1000.37	211.02
1000.66	210.95
1000.95	211.05
1001.24	211.03
1001.53	211.07
1001.82	211.05
1002.11	210.98
1002.40	210.96
1002.68	211.02
1002.97	211.20
1003.26	211.14
1003.55	211.08
1003.84	211.12
1004.13	211.31
1004.42	211.26
1004.71	211.23
1004.99	211.20
1005.28	211.31
1005.57	211.30
1005.86	211.24
1006.15	211.28
1006.44	211.18
1006.72	211.12
1007.01	211.05
1007.30	211.09
1007.59	211.06
1007.88	211.01
1008.17	211.04
1008.45	211.01
1008.74	210.87
1009.03	210.81
1009.32	210.78
1009.60	210.73
1009.89	210.65
1010.18	210.50
1010.47	210.53
1010.76	210.60
1011.04	210.62
1011.33	210.60
1011.62	210.54
1011.91	210.58
1012.19	210.58
1012.48	210.61
1012.77	210.67
1013.05	210.90
1013.34	210.85
1013.63	210.79
1013.92	210.86
1014.20	210.85
1014.49	210.83
1014.78	210.83
1015.06	210.74
1015.35	210.80
1015.64	210.90
1015.92	210.99
1016.21	210.96
1016.50	210.95
1016.78	211.00
1017.07	211.02
1017.36	210.92
1017.64	210.94
1017.93	211.00
1018.22	210.95
1018.50	210.99
1018.79	211.00
1019.08	210.77
1019.36	210.81
1019.65	210.86
1019.93	210.95
1020.22	211.05
1020.51	211.22
1020.79	211.26
1021.08	210.10
1021.36	211.15
1021.65	211.35
1021.94	210.65
1022.22	210.95
1022.51	210.75
1022.79	212.35
1023.08	212.50
1023.36	214.75
1023.65	210.80
>>>>>End Processed Spectral Data<<<<<
