SpectraSuite Data File
++++++++++++++++++++++++++++++++++++
Date: Mon Feb 25 16:57:36 EST 2013
User: group
Dark Spectrum Present: No
Reference Spectrum Present: No
Number of Sampled Component Spectra: 1
Spectrometers: USB2E7196
Integration Time (usec): 104000 (USB2E7196)
Spectra Averaged: 20 (USB2E7196)
Boxcar Smoothing: 10 (USB2E7196)
Correct for Electrical Dark: No (USB2E7196)
Strobe/Lamp Enabled: No (USB2E7196)
Correct for Detector Non-linearity: No (USB2E7196)
Correct for Stray Light: No (USB2E7196)
Number of Pixels in Processed Spectrum: 2048
>>>>>Begin Processed Spectral Data<<<<<
339.09	0.00
339.48	200.35
339.86	200.05
340.24	201.25
340.63	204.20
341.01	211.00
341.39	204.45
341.78	208.00
342.16	209.90
342.54	208.40
342.93	198.73
343.31	208.74
343.69	209.25
344.07	209.72
344.46	210.28
344.84	210.60
345.22	210.59
345.60	210.96
345.99	211.09
346.37	211.19
346.75	211.37
347.13	211.45
347.52	211.54
347.90	211.62
348.28	211.67
348.66	211.70
349.05	211.71
349.43	211.80
349.81	211.85
350.19	211.87
350.57	211.85
350.96	211.92
351.34	212.05
351.72	212.10
352.10	212.24
352.48	212.23
352.87	212.24
353.25	212.32
353.63	212.43
354.01	212.50
354.39	212.58
354.77	212.60
355.15	212.73
355.54	212.67
355.92	212.62
356.30	212.72
356.68	212.96
357.06	212.99
357.44	212.99
357.82	213.10
358.20	213.18
358.58	213.30
358.97	213.42
359.35	213.49
359.73	213.55
360.11	213.53
360.49	213.54
360.87	213.63
361.25	213.69
361.63	213.72
362.01	213.78
362.39	213.79
362.77	213.79
363.15	213.75
363.53	213.81
363.91	213.78
364.29	213.69
364.67	213.49
365.05	213.47
365.43	213.55
365.81	213.50
366.19	213.68
366.57	213.73
366.95	213.67
367.33	213.56
367.71	213.58
368.09	213.66
368.47	213.65
368.85	213.64
369.23	213.66
369.61	213.50
369.99	213.61
370.37	213.55
370.75	213.67
371.13	213.62
371.51	213.54
371.89	213.61
372.27	213.70
372.65	213.66
373.03	213.66
373.41	213.57
373.78	213.56
374.16	213.33
374.54	213.13
374.92	213.08
375.30	213.02
375.68	212.90
376.06	212.86
376.44	212.82
376.82	212.80
377.19	212.77
377.57	212.75
377.95	212.58
378.33	212.56
378.71	212.33
379.09	212.29
379.47	212.31
379.84	212.25
380.22	212.14
380.60	212.02
380.98	211.98
381.36	211.92
381.73	211.78
382.11	211.76
382.49	211.80
382.87	211.72
383.25	211.71
383.62	212.12
384.00	212.00
384.38	211.97
384.76	211.97
385.13	211.99
385.51	211.98
385.89	211.95
386.27	211.96
386.64	212.01
387.02	211.95
387.40	211.86
387.78	211.81
388.15	211.82
388.53	211.79
388.91	211.73
389.29	211.77
389.66	211.91
390.04	211.88
390.42	211.97
390.79	211.99
391.17	211.92
391.55	211.61
391.92	211.64
392.30	211.76
392.68	211.75
393.05	211.72
393.43	211.70
393.81	211.71
394.18	211.62
394.56	211.66
394.94	211.78
395.31	211.79
395.69	211.98
396.06	212.01
396.44	212.04
396.82	212.02
397.19	212.15
397.57	212.11
397.95	212.25
398.32	212.15
398.70	212.24
399.07	212.47
399.45	212.45
399.82	212.42
400.20	212.37
400.58	212.44
400.95	212.41
401.33	212.58
401.70	212.82
402.08	212.92
402.45	213.01
402.83	213.26
403.20	213.46
403.58	213.55
403.95	213.81
404.33	214.06
404.71	214.23
405.08	214.69
405.46	214.96
405.83	215.10
406.21	215.36
406.58	215.66
406.96	215.95
407.33	216.35
407.70	216.82
408.08	217.50
408.45	217.94
408.83	218.50
409.20	218.97
409.58	219.30
409.95	220.00
410.33	220.68
410.70	221.31
411.08	222.14
411.45	222.94
411.82	223.73
412.20	224.73
412.57	226.00
412.95	226.70
413.32	227.87
413.69	229.17
414.07	230.48
414.44	231.87
414.82	233.28
415.19	234.93
415.56	236.65
415.94	238.38
416.31	240.41
416.68	242.39
417.06	244.79
417.43	247.16
417.81	249.68
418.18	252.27
418.55	255.05
418.93	258.05
419.30	261.18
419.67	264.41
420.04	267.74
420.42	271.22
420.79	275.45
421.16	279.51
421.54	283.93
421.91	288.42
422.28	293.14
422.66	298.20
423.03	303.13
423.40	308.17
423.77	313.62
424.15	319.16
424.52	325.01
424.89	331.34
425.26	337.46
425.64	343.36
426.01	349.84
426.38	356.64
426.75	363.52
427.13	370.60
427.50	378.14
427.87	385.95
428.24	393.85
428.61	401.35
428.99	409.72
429.36	418.71
429.73	427.60
430.10	436.39
430.47	445.41
430.85	454.83
431.22	464.72
431.59	475.36
431.96	485.55
432.33	496.95
432.70	507.96
433.08	520.75
433.45	532.98
433.82	545.30
434.19	558.60
434.56	571.87
434.93	584.71
435.30	597.66
435.68	612.20
436.05	626.47
436.42	640.72
436.79	653.87
437.16	667.99
437.53	682.75
437.90	697.70
438.27	712.35
438.64	727.75
439.01	742.20
439.38	755.04
439.75	767.62
440.13	781.74
440.50	795.26
440.87	806.70
441.24	818.40
441.61	831.24
441.98	841.35
442.35	852.57
442.72	864.14
443.09	875.02
443.46	881.95
443.83	887.11
444.20	891.55
444.57	897.71
444.94	901.18
445.31	905.03
445.68	908.39
446.05	910.63
446.42	910.38
446.79	909.81
447.16	908.97
447.53	908.67
447.90	904.28
448.27	899.91
448.64	893.12
449.01	888.58
449.37	879.73
449.74	871.15
450.11	861.03
450.48	849.61
450.85	838.05
451.22	828.07
451.59	818.57
451.96	809.53
452.33	797.16
452.70	786.05
453.07	772.46
453.43	758.80
453.80	745.57
454.17	732.86
454.54	720.84
454.91	707.93
455.28	695.32
455.65	683.66
456.02	671.66
456.38	661.80
456.75	649.13
457.12	638.72
457.49	628.30
457.86	618.10
458.23	609.39
458.59	599.88
458.96	590.46
459.33	581.86
459.70	573.40
460.07	566.62
460.43	558.73
460.80	551.42
461.17	544.96
461.54	538.12
461.91	531.68
462.27	525.09
462.64	519.52
463.01	513.27
463.38	507.26
463.74	501.35
464.11	496.07
464.48	491.55
464.85	486.49
465.21	482.80
465.58	478.67
465.95	473.71
466.32	469.65
466.68	465.49
467.05	461.40
467.42	457.33
467.78	453.05
468.15	449.08
468.52	446.02
468.88	442.21
469.25	438.79
469.62	435.80
469.98	432.79
470.35	429.90
470.72	427.19
471.08	424.20
471.45	421.65
471.82	419.11
472.18	416.32
472.55	414.34
472.92	411.78
473.28	409.76
473.65	407.71
474.02	405.72
474.38	404.01
474.75	402.65
475.11	401.08
475.48	399.76
475.85	398.66
476.21	397.68
476.58	396.67
476.94	395.90
477.31	395.17
477.67	394.43
478.04	393.90
478.41	393.53
478.77	393.51
479.14	393.10
479.50	392.95
479.87	393.00
480.23	393.05
480.60	393.09
480.96	393.01
481.33	393.48
481.69	393.86
482.06	394.24
482.42	394.49
482.79	394.86
483.15	395.62
483.52	396.45
483.88	397.24
484.25	398.05
484.61	399.04
484.98	399.90
485.34	401.17
485.71	402.50
486.07	403.89
486.44	405.19
486.80	406.80
487.17	408.43
487.53	410.51
487.90	412.52
488.26	414.73
488.62	417.19
488.99	419.35
489.35	421.72
489.72	424.28
490.08	427.00
490.44	429.96
490.81	432.81
491.17	435.76
491.54	438.86
491.90	442.11
492.26	445.44
492.63	448.95
492.99	452.43
493.36	456.15
493.72	460.11
494.08	464.05
494.45	468.45
494.81	472.90
495.17	477.22
495.54	481.74
495.90	486.37
496.26	491.01
496.63	495.88
496.99	500.81
497.35	505.91
497.72	511.12
498.08	516.51
498.44	521.97
498.80	527.73
499.17	533.41
499.53	539.31
499.89	545.35
500.26	551.22
500.62	557.12
500.98	563.22
501.34	569.41
501.71	575.64
502.07	581.76
502.43	587.94
502.79	593.89
503.16	600.07
503.52	606.40
503.88	612.74
504.24	619.19
504.60	625.80
504.97	632.26
505.33	638.74
505.69	645.34
506.05	651.82
506.41	658.24
506.78	664.45
507.14	670.61
507.50	676.86
507.86	683.39
508.22	689.79
508.59	695.90
508.95	702.16
509.31	708.31
509.67	714.39
510.03	720.54
510.39	726.96
510.75	733.12
511.12	738.90
511.48	744.86
511.84	750.80
512.20	756.33
512.56	762.21
512.92	767.99
513.28	773.50
513.64	778.94
514.00	784.28
514.37	789.75
514.73	795.18
515.09	800.43
515.45	805.38
515.81	810.44
516.17	815.38
516.53	819.81
516.89	824.46
517.25	828.95
517.61	833.09
517.97	837.20
518.33	841.14
518.69	845.31
519.05	849.31
519.41	853.16
519.77	857.49
520.13	861.04
520.49	864.48
520.85	867.89
521.21	871.60
521.57	875.14
521.93	878.30
522.29	881.63
522.65	884.99
523.01	888.30
523.37	891.03
523.73	894.10
524.09	897.09
524.45	900.01
524.81	902.81
525.17	905.85
525.53	908.80
525.89	911.81
526.25	914.67
526.61	917.01
526.97	919.59
527.33	921.94
527.68	924.86
528.04	927.69
528.40	930.01
528.76	932.18
529.12	934.76
529.48	937.71
529.84	940.08
530.20	942.24
530.56	944.51
530.91	947.42
531.27	949.94
531.63	952.60
531.99	955.20
532.35	957.75
532.71	960.22
533.07	962.71
533.42	965.30
533.78	967.90
534.14	970.60
534.50	972.71
534.86	975.27
535.21	977.07
535.57	979.47
535.93	982.15
536.29	984.59
536.65	986.72
537.00	988.42
537.36	990.61
537.72	992.79
538.08	994.88
538.44	997.00
538.79	999.05
539.15	1001.12
539.51	1003.24
539.87	1005.66
540.22	1007.79
540.58	1010.20
540.94	1012.26
541.29	1013.98
541.65	1015.87
542.01	1018.15
542.37	1019.96
542.72	1022.13
543.08	1023.82
543.44	1025.84
543.79	1027.54
544.15	1029.34
544.51	1031.59
544.87	1033.83
545.22	1035.73
545.58	1037.57
545.94	1038.95
546.29	1040.36
546.65	1041.91
547.01	1043.23
547.36	1044.47
547.72	1045.92
548.07	1047.13
548.43	1048.03
548.79	1049.19
549.14	1050.49
549.50	1051.70
549.86	1052.62
550.21	1053.97
550.57	1055.28
550.92	1056.13
551.28	1057.42
551.64	1058.76
551.99	1060.12
552.35	1060.85
552.70	1061.86
553.06	1063.28
553.41	1064.67
553.77	1066.25
554.13	1067.42
554.48	1069.01
554.84	1070.50
555.19	1071.75
555.55	1073.10
555.90	1074.33
556.26	1075.37
556.61	1076.24
556.97	1077.13
557.32	1078.50
557.68	1079.23
558.03	1080.07
558.39	1080.80
558.74	1081.64
559.10	1082.11
559.45	1082.61
559.81	1083.70
560.16	1084.31
560.52	1084.96
560.87	1085.73
561.23	1086.00
561.58	1086.86
561.94	1086.96
562.29	1087.00
562.64	1087.71
563.00	1088.00
563.35	1088.70
563.71	1089.83
564.06	1090.50
564.42	1091.26
564.77	1091.90
565.12	1092.79
565.48	1093.69
565.83	1094.43
566.19	1095.37
566.54	1095.78
566.89	1096.25
567.25	1096.79
567.60	1097.57
567.96	1098.21
568.31	1099.07
568.66	1099.54
569.02	1099.57
569.37	1099.56
569.72	1099.90
570.08	1099.81
570.43	1099.85
570.78	1099.77
571.14	1099.22
571.49	1098.77
571.84	1098.51
572.20	1097.79
572.55	1097.09
572.90	1095.99
573.26	1094.97
573.61	1093.98
573.96	1093.33
574.31	1092.07
574.67	1090.72
575.02	1088.90
575.37	1087.08
575.72	1084.92
576.08	1083.38
576.43	1081.55
576.78	1080.24
577.13	1078.60
577.49	1076.78
577.84	1074.85
578.19	1073.39
578.54	1071.95
578.90	1070.62
579.25	1068.71
579.60	1066.70
579.95	1064.47
580.30	1062.57
580.66	1060.93
581.01	1058.73
581.36	1056.31
581.71	1054.25
582.06	1052.23
582.42	1050.48
582.77	1048.17
583.12	1045.85
583.47	1043.67
583.82	1041.53
584.17	1039.22
584.53	1037.08
584.88	1034.71
585.23	1032.49
585.58	1029.53
585.93	1026.76
586.28	1024.25
586.63	1021.98
586.98	1019.89
587.34	1017.78
587.69	1015.31
588.04	1012.72
588.39	1010.18
588.74	1007.66
589.09	1005.45
589.44	1002.37
589.79	999.95
590.14	997.54
590.49	995.20
590.84	992.46
591.19	990.08
591.54	987.32
591.89	984.15
592.25	981.55
592.60	978.55
592.95	975.60
593.30	972.45
593.65	969.20
594.00	965.74
594.35	963.47
594.70	960.12
595.05	957.40
595.40	954.44
595.75	951.33
596.10	948.65
596.45	945.51
596.80	942.94
597.15	940.05
597.50	936.70
597.85	933.62
598.19	930.63
598.54	927.53
598.89	924.61
599.24	922.24
599.59	918.99
599.94	916.01
600.29	913.28
600.64	910.48
600.99	907.36
601.34	904.73
601.69	900.56
602.04	897.54
602.39	894.06
602.74	891.11
603.08	888.21
603.43	885.22
603.78	881.97
604.13	878.73
604.48	875.56
604.83	873.14
605.18	870.32
605.53	867.18
605.87	864.12
606.22	861.21
606.57	857.70
606.92	854.68
607.27	851.51
607.62	848.36
607.96	845.32
608.31	842.52
608.66	839.12
609.01	836.00
609.36	832.71
609.70	829.28
610.05	825.79
610.40	822.40
610.75	818.95
611.10	815.90
611.44	812.14
611.79	808.47
612.14	804.69
612.49	800.77
612.83	797.26
613.18	793.57
613.53	789.81
613.88	786.12
614.22	782.44
614.57	778.77
614.92	775.13
615.27	771.37
615.61	767.72
615.96	764.30
616.31	761.09
616.65	757.99
617.00	754.83
617.35	751.36
617.70	747.89
618.04	744.04
618.39	740.10
618.74	736.75
619.08	733.26
619.43	729.78
619.78	726.53
620.12	723.30
620.47	719.95
620.82	716.24
621.16	712.48
621.51	709.21
621.85	705.83
622.20	702.27
622.55	698.98
622.89	695.50
623.24	692.10
623.59	688.34
623.93	684.81
624.28	681.51
624.62	678.44
624.97	675.14
625.32	671.88
625.66	668.68
626.01	665.56
626.35	662.30
626.70	659.10
627.04	656.01
627.39	652.78
627.73	649.70
628.08	647.05
628.43	644.22
628.77	641.01
629.12	637.97
629.46	635.29
629.81	632.38
630.15	629.28
630.50	626.11
630.84	623.18
631.19	620.19
631.53	617.16
631.88	613.91
632.22	610.89
632.57	608.32
632.91	605.56
633.26	602.71
633.60	599.81
633.95	596.95
634.29	593.97
634.64	591.39
634.98	588.36
635.32	585.57
635.67	582.96
636.01	580.37
636.36	577.64
636.70	575.04
637.05	572.29
637.39	569.83
637.73	567.57
638.08	565.40
638.42	563.03
638.77	560.66
639.11	558.30
639.45	555.78
639.80	553.10
640.14	550.49
640.49	547.95
640.83	545.40
641.17	542.92
641.52	540.35
641.86	537.39
642.20	535.10
642.55	532.32
642.89	529.73
643.23	527.07
643.58	524.76
643.92	522.00
644.26	519.54
644.61	517.15
644.95	514.54
645.29	511.73
645.64	509.20
645.98	506.40
646.32	503.90
646.66	501.36
647.01	498.91
647.35	496.50
647.69	493.97
648.04	491.78
648.38	489.33
648.72	487.03
649.06	484.77
649.41	482.35
649.75	480.11
650.09	477.89
650.43	475.52
650.78	473.03
651.12	470.65
651.46	468.25
651.80	465.94
652.14	463.70
652.49	461.55
652.83	459.24
653.17	457.05
653.51	454.83
653.85	452.83
654.20	450.70
654.54	448.47
654.88	446.25
655.22	444.06
655.56	441.86
655.90	439.59
656.25	437.44
656.59	435.32
656.93	433.19
657.27	431.17
657.61	429.20
657.95	427.34
658.29	425.53
658.64	423.64
658.98	421.71
659.32	419.50
659.66	417.45
660.00	415.31
660.34	413.40
660.68	411.37
661.02	409.19
661.36	407.22
661.70	405.36
662.05	403.61
662.39	401.96
662.73	400.37
663.07	398.94
663.41	397.20
663.75	395.33
664.09	393.63
664.43	391.72
664.77	390.00
665.11	388.11
665.45	386.24
665.79	384.64
666.13	382.80
666.47	381.28
666.81	379.74
667.15	378.21
667.49	376.75
667.83	375.33
668.17	373.90
668.51	372.49
668.85	371.12
669.19	369.80
669.53	368.02
669.87	366.26
670.21	364.71
670.55	363.34
670.89	362.11
671.23	360.72
671.57	359.38
671.91	357.99
672.25	356.66
672.58	355.51
672.92	354.02
673.26	352.83
673.60	351.45
673.94	350.06
674.28	348.78
674.62	347.58
674.96	346.27
675.30	345.11
675.64	343.80
675.97	342.48
676.31	341.18
676.65	340.06
676.99	339.18
677.33	337.92
677.67	336.74
678.01	335.40
678.34	334.17
678.68	333.05
679.02	331.85
679.36	330.65
679.70	329.53
680.04	328.51
680.37	327.21
680.71	326.19
681.05	325.20
681.39	324.16
681.73	322.93
682.06	321.77
682.40	320.66
682.74	319.57
683.08	318.67
683.42	317.50
683.75	316.41
684.09	315.15
684.43	314.10
684.77	312.95
685.10	311.99
685.44	310.96
685.78	309.87
686.12	309.00
686.45	308.16
686.79	306.97
687.13	306.02
687.46	305.24
687.80	304.38
688.14	303.36
688.48	302.48
688.81	301.55
689.15	300.76
689.49	299.75
689.82	298.94
690.16	297.77
690.50	296.84
690.83	295.99
691.17	295.06
691.51	294.11
691.84	293.35
692.18	292.42
692.52	291.66
692.85	290.92
693.19	290.23
693.52	289.36
693.86	288.60
694.20	287.77
694.53	286.99
694.87	286.22
695.21	285.37
695.54	284.47
695.88	283.65
696.21	282.72
696.55	282.02
696.88	281.19
697.22	280.48
697.56	279.94
697.89	279.15
698.23	278.49
698.56	277.77
698.90	277.07
699.23	276.40
699.57	275.65
699.90	274.96
700.24	274.05
700.58	273.30
700.91	272.71
701.25	272.31
701.58	271.69
701.92	271.04
702.25	270.45
702.59	269.93
702.92	269.30
703.26	268.72
703.59	268.13
703.93	267.81
704.26	267.30
704.60	266.60
704.93	266.06
705.26	265.44
705.60	264.97
705.93	264.31
706.27	263.89
706.60	263.43
706.94	263.05
707.27	262.43
707.61	261.91
707.94	261.38
708.27	260.52
708.61	259.82
708.94	259.22
709.28	258.77
709.61	258.20
709.94	257.78
710.28	257.31
710.61	256.89
710.95	256.11
711.28	255.89
711.61	255.42
711.95	255.01
712.28	254.55
712.61	254.10
712.95	253.85
713.28	253.50
713.61	253.06
713.95	252.48
714.28	252.15
714.61	251.73
714.95	251.31
715.28	250.85
715.61	250.51
715.95	250.16
716.28	249.56
716.61	249.19
716.95	248.70
717.28	248.29
717.61	247.90
717.94	247.57
718.28	246.90
718.61	246.52
718.94	246.09
719.27	245.80
719.61	245.47
719.94	245.04
720.27	244.51
720.60	244.11
720.94	243.78
721.27	243.44
721.60	243.20
721.93	242.79
722.27	242.66
722.60	242.36
722.93	241.94
723.26	241.76
723.59	241.42
723.93	241.21
724.26	240.89
724.59	240.50
724.92	240.15
725.25	239.96
725.59	239.67
725.92	239.43
726.25	239.11
726.58	238.81
726.91	238.53
727.24	238.36
727.57	238.05
727.91	237.70
728.24	237.50
728.57	237.15
728.90	236.94
729.23	236.60
729.56	236.46
729.89	236.26
730.22	236.06
730.55	235.78
730.89	235.50
731.22	235.27
731.55	235.07
731.88	234.84
732.21	234.56
732.54	234.28
732.87	234.01
733.20	233.78
733.53	233.52
733.86	233.33
734.19	232.99
734.52	232.89
734.85	232.97
735.18	232.70
735.51	232.58
735.84	232.48
736.17	232.36
736.50	232.02
736.83	232.14
737.16	231.98
737.49	231.83
737.82	231.63
738.15	231.50
738.48	231.35
738.81	231.16
739.14	230.90
739.47	230.81
739.80	230.64
740.13	230.42
740.46	230.16
740.79	229.87
741.12	229.68
741.45	229.40
741.78	229.00
742.11	228.82
742.44	228.55
742.77	228.38
743.10	228.09
743.43	227.93
743.75	227.50
744.08	227.69
744.41	227.38
744.74	227.23
745.07	227.06
745.40	226.94
745.73	227.00
746.06	226.87
746.39	226.72
746.71	226.50
747.04	226.35
747.37	226.20
747.70	226.15
748.03	226.06
748.36	225.97
748.68	225.79
749.01	225.63
749.34	225.52
749.67	225.33
750.00	225.27
750.33	225.32
750.65	225.16
750.98	224.59
751.31	224.53
751.64	224.42
751.97	224.41
752.29	224.19
752.62	223.88
752.95	223.71
753.28	223.54
753.60	223.48
753.93	223.43
754.26	223.35
754.59	223.13
754.91	222.96
755.24	222.80
755.57	222.66
755.90	222.47
756.22	222.31
756.55	222.10
756.88	221.93
757.20	221.62
757.53	221.33
757.86	221.22
758.19	221.11
758.51	220.92
758.84	220.52
759.17	220.40
759.49	220.19
759.82	220.26
760.15	220.11
760.47	219.97
760.80	219.81
761.13	219.82
761.45	219.66
761.78	219.65
762.11	219.51
762.43	219.44
762.76	219.30
763.08	219.29
763.41	219.29
763.74	219.18
764.06	219.09
764.39	219.05
764.71	218.97
765.04	218.88
765.37	218.76
765.69	218.80
766.02	218.66
766.34	218.61
766.67	218.40
767.00	218.45
767.32	218.56
767.65	218.61
767.97	218.37
768.30	218.38
768.62	218.25
768.95	218.17
769.27	218.07
769.60	218.14
769.92	218.02
770.25	217.83
770.57	217.71
770.90	217.65
771.22	217.55
771.55	217.50
771.87	217.46
772.20	217.45
772.52	217.60
772.85	218.01
773.17	218.00
773.50	217.87
773.82	217.66
774.15	217.43
774.47	217.17
774.80	217.15
775.12	217.08
775.45	217.05
775.77	217.02
776.09	217.03
776.42	216.97
776.74	217.01
777.07	216.99
777.39	217.01
777.72	216.96
778.04	217.01
778.36	216.99
778.69	216.95
779.01	216.91
779.33	216.56
779.66	216.12
779.98	215.99
780.31	216.02
780.63	216.19
780.95	216.26
781.28	216.23
781.60	216.14
781.92	216.12
782.25	216.04
782.57	216.01
782.89	215.89
783.22	215.81
783.54	215.68
783.86	215.65
784.19	215.51
784.51	215.51
784.83	215.41
785.16	215.30
785.48	215.18
785.80	215.20
786.12	215.26
786.45	215.24
786.77	215.28
787.09	215.19
787.42	215.03
787.74	214.98
788.06	215.02
788.38	215.07
788.71	215.02
789.03	215.06
789.35	215.05
789.67	214.98
789.99	214.94
790.32	214.87
790.64	214.87
790.96	215.10
791.28	214.91
791.61	214.90
791.93	214.84
792.25	214.91
792.57	215.10
792.89	214.95
793.21	214.94
793.54	214.84
793.86	214.77
794.18	214.77
794.50	214.63
794.82	214.56
795.14	214.55
795.47	214.52
795.79	214.50
796.11	214.47
796.43	214.46
796.75	214.46
797.07	214.45
797.39	214.42
797.71	214.20
798.04	214.23
798.36	214.15
798.68	214.14
799.00	214.11
799.32	213.89
799.64	214.01
799.96	213.90
800.28	213.99
800.60	214.01
800.92	214.00
801.24	214.00
801.56	213.95
801.89	213.87
802.21	213.90
802.53	213.79
802.85	213.84
803.17	213.95
803.49	213.86
803.81	213.84
804.13	213.83
804.45	213.77
804.77	213.88
805.09	213.91
805.41	213.83
805.73	213.70
806.05	213.65
806.37	213.61
806.69	213.66
807.01	213.55
807.33	213.59
807.65	213.40
807.97	213.54
808.28	213.59
808.60	213.59
808.92	213.50
809.24	213.66
809.56	213.54
809.88	213.41
810.20	213.46
810.52	213.53
810.84	213.44
811.16	213.41
811.48	213.36
811.80	213.45
812.12	213.49
812.43	213.58
812.75	213.57
813.07	213.43
813.39	213.38
813.71	213.37
814.03	213.25
814.35	213.35
814.67	213.20
814.98	213.15
815.30	213.09
815.62	213.00
815.94	212.78
816.26	212.78
816.58	212.71
816.89	212.68
817.21	212.56
817.53	212.55
817.85	212.57
818.17	212.50
818.48	212.37
818.80	212.42
819.12	212.33
819.44	212.27
819.76	212.30
820.07	212.28
820.39	212.25
820.71	212.30
821.03	212.22
821.34	212.16
821.66	212.22
821.98	212.22
822.30	212.17
822.61	212.40
822.93	212.34
823.25	212.34
823.57	212.29
823.88	212.38
824.20	212.34
824.52	212.31
824.83	212.25
825.15	212.17
825.47	212.12
825.79	212.18
826.10	212.16
826.42	212.15
826.74	212.18
827.05	212.18
827.37	212.16
827.69	212.22
828.00	212.22
828.32	212.13
828.64	212.12
828.95	212.33
829.27	212.20
829.58	212.22
829.90	212.29
830.22	212.31
830.53	212.23
830.85	212.27
831.17	212.21
831.48	212.24
831.80	212.28
832.11	212.24
832.43	212.16
832.75	212.11
833.06	212.29
833.38	212.15
833.69	212.15
834.01	212.21
834.32	212.18
834.64	212.16
834.96	212.14
835.27	212.11
835.59	212.00
835.90	211.89
836.22	211.83
836.53	211.75
836.85	211.73
837.16	212.05
837.48	212.00
837.79	212.13
838.11	212.22
838.42	212.27
838.74	212.33
839.05	212.30
839.37	212.40
839.68	212.19
840.00	212.22
840.31	212.25
840.63	212.13
840.94	212.07
841.26	211.99
841.57	211.97
841.88	212.02
842.20	212.01
842.51	212.02
842.83	212.09
843.14	212.36
843.46	212.36
843.77	212.21
844.08	212.27
844.40	212.13
844.71	212.08
845.03	212.01
845.34	211.95
845.65	211.99
845.97	211.92
846.28	211.95
846.60	211.96
846.91	211.95
847.22	211.98
847.54	212.08
847.85	212.13
848.16	212.18
848.48	212.13
848.79	212.24
849.10	212.25
849.42	212.21
849.73	211.89
850.04	211.82
850.36	211.66
850.67	211.65
850.98	211.70
851.30	211.61
851.61	211.63
851.92	211.65
852.23	211.73
852.55	211.78
852.86	211.80
853.17	211.87
853.49	211.90
853.80	211.92
854.11	211.94
854.42	212.01
854.74	211.91
855.05	211.90
855.36	211.70
855.67	211.70
855.99	211.75
856.30	212.14
856.61	212.14
856.92	212.16
857.23	212.18
857.55	212.13
857.86	212.12
858.17	212.08
858.48	212.04
858.79	211.99
859.11	212.00
859.42	211.91
859.73	211.86
860.04	211.87
860.35	211.77
860.66	211.68
860.98	211.67
861.29	211.76
861.60	211.75
861.91	211.82
862.22	211.79
862.53	211.70
862.84	211.38
863.16	211.48
863.47	211.44
863.78	211.41
864.09	211.49
864.40	211.58
864.71	211.62
865.02	211.67
865.33	211.61
865.64	211.54
865.95	211.64
866.27	211.82
866.58	211.78
866.89	211.89
867.20	211.82
867.51	211.73
867.82	211.76
868.13	211.85
868.44	211.82
868.75	211.90
869.06	211.91
869.37	211.89
869.68	211.86
869.99	211.92
870.30	211.96
870.61	211.98
870.92	211.86
871.23	211.81
871.54	211.81
871.85	211.92
872.16	211.90
872.47	211.88
872.78	211.66
873.09	211.69
873.40	211.66
873.71	211.72
874.02	211.73
874.33	211.59
874.64	211.50
874.95	211.54
875.26	211.49
875.56	211.49
875.87	211.52
876.18	211.44
876.49	211.78
876.80	211.72
877.11	211.59
877.42	211.66
877.73	211.66
878.04	211.64
878.35	211.65
878.66	211.69
878.96	211.63
879.27	211.64
879.58	211.66
879.89	211.63
880.20	211.73
880.51	211.73
880.82	211.76
881.12	211.81
881.43	211.80
881.74	211.74
882.05	211.73
882.36	211.74
882.67	211.78
882.97	211.41
883.28	211.43
883.59	211.42
883.90	211.40
884.21	211.48
884.51	211.41
884.82	211.32
885.13	211.36
885.44	211.33
885.74	211.38
886.05	211.39
886.36	211.34
886.67	211.24
886.98	211.42
887.28	211.47
887.59	211.46
887.90	211.37
888.20	211.33
888.51	211.38
888.82	211.26
889.13	211.28
889.43	211.48
889.74	211.43
890.05	211.48
890.35	211.42
890.66	211.35
890.97	211.39
891.28	211.33
891.58	211.32
891.89	211.44
892.20	211.37
892.50	211.28
892.81	211.37
893.12	211.38
893.42	211.22
893.73	211.25
894.04	211.20
894.34	211.34
894.65	211.32
894.95	211.40
895.26	211.47
895.57	211.63
895.87	211.35
896.18	211.50
896.48	211.49
896.79	211.55
897.10	211.66
897.40	211.64
897.71	211.70
898.01	211.66
898.32	211.65
898.63	211.60
898.93	211.64
899.24	211.59
899.54	211.55
899.85	211.50
900.15	211.49
900.46	211.53
900.76	211.51
901.07	211.59
901.38	211.48
901.68	211.55
901.99	211.38
902.29	211.44
902.60	211.28
902.90	211.34
903.21	211.34
903.51	211.24
903.82	211.30
904.12	211.31
904.43	211.30
904.73	211.20
905.03	211.25
905.34	211.53
905.64	211.47
905.95	211.48
906.25	211.50
906.56	211.43
906.86	211.42
907.17	211.41
907.47	211.45
907.77	211.47
908.08	211.38
908.38	211.40
908.69	211.40
908.99	211.54
909.30	211.43
909.60	211.38
909.90	211.38
910.21	211.26
910.51	211.19
910.81	211.20
911.12	211.26
911.42	211.34
911.73	211.00
912.03	211.08
912.33	211.10
912.64	211.08
912.94	211.03
913.24	210.99
913.55	210.87
913.85	210.78
914.15	210.84
914.46	210.88
914.76	210.85
915.06	210.79
915.37	210.67
915.67	210.75
915.97	210.80
916.27	210.69
916.58	210.74
916.88	210.75
917.18	210.78
917.49	211.00
917.79	210.93
918.09	211.04
918.39	211.07
918.70	211.08
919.00	211.10
919.30	211.26
919.60	211.25
919.91	211.25
920.21	211.26
920.51	211.15
920.81	211.11
921.12	211.11
921.42	211.16
921.72	211.23
922.02	211.20
922.32	211.24
922.63	211.32
922.93	211.46
923.23	211.47
923.53	211.39
923.83	211.15
924.13	211.20
924.44	211.12
924.74	211.18
925.04	211.19
925.34	211.25
925.64	211.15
925.94	211.08
926.24	211.22
926.55	211.18
926.85	211.23
927.15	211.18
927.45	211.22
927.75	211.14
928.05	211.06
928.35	211.00
928.65	211.06
928.95	211.07
929.26	210.97
929.56	210.99
929.86	211.08
930.16	210.98
930.46	210.90
930.76	210.91
931.06	210.72
931.36	210.69
931.66	210.68
931.96	210.69
932.26	210.74
932.56	210.69
932.86	210.76
933.16	210.81
933.46	210.81
933.76	210.74
934.06	210.80
934.36	210.99
934.66	210.98
934.96	210.89
935.26	210.87
935.56	210.91
935.86	210.91
936.16	210.80
936.46	210.84
936.76	210.84
937.06	210.84
937.36	210.87
937.66	210.91
937.96	210.91
938.26	210.76
938.56	210.72
938.86	210.74
939.16	210.80
939.46	210.75
939.76	210.80
940.06	210.77
940.35	210.79
940.65	210.58
940.95	210.64
941.25	210.62
941.55	210.63
941.85	210.59
942.15	210.65
942.45	210.75
942.75	210.81
943.04	210.82
943.34	210.89
943.64	210.87
943.94	210.76
944.24	210.76
944.54	210.91
944.84	210.97
945.13	210.86
945.43	210.80
945.73	210.83
946.03	210.78
946.33	210.80
946.62	210.76
946.92	210.79
947.22	210.87
947.52	210.94
947.82	211.00
948.11	211.00
948.41	210.90
948.71	210.85
949.01	210.79
949.31	210.74
949.60	210.71
949.90	210.78
950.20	210.79
950.50	210.83
950.79	210.73
951.09	210.78
951.39	210.81
951.69	210.78
951.98	210.82
952.28	210.89
952.58	210.83
952.87	210.85
953.17	210.89
953.47	210.79
953.76	210.72
954.06	210.61
954.36	210.53
954.66	210.52
954.95	210.67
955.25	210.72
955.55	210.85
955.84	210.81
956.14	210.91
956.44	210.95
956.73	210.89
957.03	210.96
957.32	210.98
957.62	211.05
957.92	211.14
958.21	211.10
958.51	211.48
958.81	211.55
959.10	211.61
959.40	211.66
959.69	211.65
959.99	211.67
960.29	211.70
960.58	211.74
960.88	211.93
961.17	211.82
961.47	211.79
961.76	211.76
962.06	211.80
962.36	211.68
962.65	211.72
962.95	211.72
963.24	211.70
963.54	211.69
963.83	211.70
964.13	211.67
964.42	211.58
964.72	211.22
965.01	211.22
965.31	211.15
965.60	211.08
965.90	211.38
966.19	211.34
966.49	211.36
966.78	211.31
967.08	211.24
967.37	211.20
967.67	211.23
967.96	211.24
968.26	211.23
968.55	211.24
968.85	211.21
969.14	211.17
969.43	211.14
969.73	211.13
970.02	211.08
970.32	211.11
970.61	211.15
970.91	211.10
971.20	211.12
971.49	211.10
971.79	211.11
972.08	210.83
972.38	210.92
972.67	210.98
972.96	211.06
973.26	210.99
973.55	211.08
973.85	211.03
974.14	210.99
974.43	211.00
974.73	211.03
975.02	211.00
975.31	211.07
975.61	211.10
975.90	211.05
976.19	211.00
976.49	211.01
976.78	210.99
977.07	210.97
977.37	210.95
977.66	210.99
977.95	211.02
978.24	211.08
978.54	211.19
978.83	211.15
979.12	211.15
979.42	211.13
979.71	211.07
980.00	211.13
980.29	211.15
980.59	211.07
980.88	211.15
981.17	211.16
981.46	211.15
981.76	211.13
982.05	211.24
982.34	211.26
982.63	211.20
982.93	211.16
983.22	211.28
983.51	211.32
983.80	211.39
984.09	211.44
984.39	211.39
984.68	211.25
984.97	211.22
985.26	211.18
985.55	211.29
985.85	211.30
986.14	211.31
986.43	211.35
986.72	211.38
987.01	211.32
987.30	211.29
987.59	211.27
987.89	211.35
988.18	211.23
988.47	211.18
988.76	211.15
989.05	211.19
989.34	211.05
989.63	211.11
989.92	211.04
990.22	210.97
990.51	210.91
990.80	210.85
991.09	210.88
991.38	210.88
991.67	210.80
991.96	210.72
992.25	210.77
992.54	210.73
992.83	210.75
993.12	210.63
993.41	210.64
993.70	210.75
993.99	210.81
994.28	210.88
994.58	210.99
994.87	210.95
995.16	210.97
995.45	210.99
995.74	210.87
996.03	210.92
996.32	210.98
996.61	211.10
996.90	211.13
997.19	211.10
997.48	211.08
997.77	211.02
998.06	211.04
998.34	210.96
998.63	210.89
998.92	210.85
999.21	210.96
999.50	211.03
999.79	210.90
1000.08	210.83
1000.37	210.81
1000.66	210.80
1000.95	210.93
1001.24	210.92
1001.53	210.96
1001.82	210.93
1002.11	210.82
1002.40	210.80
1002.68	210.82
1002.97	211.03
1003.26	210.99
1003.55	210.99
1003.84	211.00
1004.13	211.15
1004.42	211.11
1004.71	211.10
1004.99	211.09
1005.28	211.15
1005.57	211.13
1005.86	211.18
1006.15	211.16
1006.44	211.16
1006.72	211.14
1007.01	211.06
1007.30	211.08
1007.59	211.05
1007.88	211.03
1008.17	211.09
1008.45	211.05
1008.74	210.90
1009.03	210.75
1009.32	210.81
1009.60	210.78
1009.89	210.78
1010.18	210.63
1010.47	210.67
1010.76	210.68
1011.04	210.63
1011.33	210.66
1011.62	210.68
1011.91	210.63
1012.19	210.67
1012.48	210.64
1012.77	210.60
1013.05	210.74
1013.34	210.76
1013.63	210.72
1013.92	210.80
1014.20	210.75
1014.49	210.75
1014.78	210.82
1015.06	210.76
1015.35	210.76
1015.64	210.90
1015.92	210.99
1016.21	210.97
1016.50	210.97
1016.78	211.00
1017.07	211.11
1017.36	210.96
1017.64	210.88
1017.93	210.94
1018.22	210.88
1018.50	210.88
1018.79	210.95
1019.08	210.85
1019.36	210.88
1019.65	210.93
1019.93	211.02
1020.22	211.08
1020.51	211.25
1020.79	211.22
1021.08	210.25
1021.36	210.80
1021.65	211.45
1021.94	211.55
1022.22	211.55
1022.51	211.20
1022.79	213.15
1023.08	210.90
1023.36	214.80
1023.65	210.25
>>>>>End Processed Spectral Data<<<<<
