SpectraSuite Data File
++++++++++++++++++++++++++++++++++++
Date: Mon Feb 25 17:11:14 EST 2013
User: group
Dark Spectrum Present: No
Reference Spectrum Present: No
Number of Sampled Component Spectra: 1
Spectrometers: USB2E7196
Integration Time (usec): 104000 (USB2E7196)
Spectra Averaged: 20 (USB2E7196)
Boxcar Smoothing: 10 (USB2E7196)
Correct for Electrical Dark: No (USB2E7196)
Strobe/Lamp Enabled: No (USB2E7196)
Correct for Detector Non-linearity: No (USB2E7196)
Correct for Stray Light: No (USB2E7196)
Number of Pixels in Processed Spectrum: 2048
>>>>>Begin Processed Spectral Data<<<<<
339.09	0.00
339.48	198.30
339.86	200.35
340.24	201.15
340.63	202.30
341.01	209.10
341.39	204.50
341.78	208.55
342.16	208.10
342.54	207.95
342.93	197.93
343.31	207.93
343.69	208.50
344.07	208.95
344.46	209.43
344.84	209.83
345.22	209.86
345.60	210.18
345.99	210.28
346.37	210.39
346.75	210.54
347.13	210.60
347.52	210.68
347.90	210.84
348.28	210.89
348.66	211.03
349.05	210.91
349.43	210.91
349.81	210.95
350.19	210.99
350.57	211.03
350.96	211.16
351.34	211.26
351.72	211.27
352.10	211.33
352.48	211.36
352.87	211.40
353.25	211.44
353.63	211.46
354.01	211.50
354.39	211.62
354.77	211.61
355.15	211.73
355.54	211.72
355.92	211.61
356.30	211.61
356.68	211.85
357.06	211.96
357.44	212.00
357.82	212.08
358.20	212.13
358.58	212.09
358.97	212.14
359.35	212.25
359.73	212.44
360.11	212.58
360.49	212.65
360.87	212.73
361.25	212.87
361.63	212.99
362.01	213.11
362.39	213.10
362.77	213.22
363.15	213.27
363.53	213.32
363.91	213.44
364.29	213.53
364.67	213.24
365.05	213.23
365.43	213.29
365.81	213.35
366.19	213.54
366.57	213.76
366.95	213.76
367.33	213.74
367.71	213.69
368.09	213.68
368.47	213.67
368.85	213.63
369.23	213.68
369.61	213.52
369.99	213.58
370.37	213.63
370.75	213.69
371.13	213.64
371.51	213.59
371.89	213.51
372.27	213.45
372.65	213.46
373.03	213.48
373.41	213.37
373.78	213.34
374.16	213.15
374.54	213.04
374.92	212.94
375.30	212.85
375.68	212.78
376.06	212.78
376.44	212.65
376.82	212.58
377.19	212.50
377.57	212.54
377.95	212.37
378.33	212.29
378.71	212.12
379.09	212.04
379.47	212.05
379.84	211.98
380.22	211.94
380.60	211.79
380.98	211.70
381.36	211.65
381.73	211.47
382.11	211.47
382.49	211.42
382.87	211.38
383.25	211.30
383.62	211.63
384.00	211.45
384.38	211.42
384.76	211.53
385.13	211.62
385.51	211.53
385.89	211.39
386.27	211.37
386.64	211.31
387.02	211.30
387.40	211.21
387.78	211.20
388.15	211.15
388.53	211.09
388.91	211.13
389.29	211.10
389.66	211.17
390.04	211.15
390.42	211.11
390.79	211.02
391.17	211.02
391.55	210.54
391.92	210.58
392.30	210.54
392.68	210.37
393.05	210.25
393.43	210.28
393.81	210.32
394.18	210.26
394.56	210.36
394.94	210.30
395.31	210.32
395.69	210.45
396.06	210.57
396.44	210.62
396.82	210.52
397.19	210.69
397.57	210.65
397.95	210.62
398.32	210.56
398.70	210.69
399.07	210.76
399.45	210.83
399.82	210.82
400.20	210.89
400.58	211.01
400.95	210.96
401.33	211.02
401.70	211.29
402.08	211.30
402.45	211.29
402.83	211.41
403.20	211.38
403.58	211.33
403.95	211.42
404.33	211.57
404.71	211.70
405.08	211.97
405.46	212.07
405.83	212.20
406.21	212.33
406.58	212.37
406.96	212.45
407.33	212.59
407.70	212.74
408.08	213.14
408.45	213.33
408.83	213.57
409.20	213.67
409.58	213.70
409.95	214.00
410.33	214.20
410.70	214.39
411.08	214.70
411.45	214.94
411.82	215.10
412.20	215.44
412.57	215.83
412.95	215.81
413.32	216.18
413.69	216.53
414.07	216.96
414.44	217.34
414.82	217.88
415.19	218.34
415.56	218.80
415.94	219.12
416.31	219.71
416.68	220.36
417.06	221.13
417.43	221.85
417.81	222.57
418.18	223.42
418.55	224.18
418.93	225.09
419.30	226.06
419.67	227.10
420.04	228.08
420.42	229.09
420.79	230.49
421.16	231.74
421.54	233.08
421.91	234.32
422.28	235.70
422.66	237.04
423.03	238.70
423.40	240.21
423.77	241.74
424.15	243.26
424.52	244.84
424.89	246.67
425.26	248.27
425.64	249.92
426.01	251.62
426.38	253.59
426.75	255.61
427.13	257.60
427.50	259.66
427.87	261.80
428.24	263.87
428.61	265.84
428.99	268.21
429.36	270.63
429.73	273.09
430.10	275.66
430.47	278.25
430.85	280.69
431.22	283.42
431.59	286.65
431.96	289.37
432.33	292.50
432.70	295.40
433.08	298.93
433.45	302.20
433.82	305.46
434.19	309.10
434.56	312.63
434.93	316.11
435.30	319.43
435.68	323.16
436.05	327.00
436.42	330.67
436.79	334.15
437.16	337.74
437.53	341.55
437.90	345.32
438.27	348.93
438.64	352.78
439.01	356.38
439.38	359.33
439.75	362.48
440.13	365.95
440.50	369.25
440.87	372.00
441.24	374.82
441.61	377.98
441.98	380.27
442.35	382.88
442.72	385.46
443.09	388.27
443.46	389.85
443.83	390.94
444.20	391.86
444.57	393.04
444.94	393.73
445.31	394.55
445.68	395.50
446.05	395.92
446.42	395.54
446.79	395.32
447.16	394.75
447.53	394.46
447.90	393.06
448.27	391.60
448.64	389.64
449.01	388.28
449.37	385.89
449.74	383.46
450.11	380.82
450.48	377.68
450.85	374.36
451.22	371.67
451.59	369.02
451.96	366.57
452.33	363.21
452.70	360.05
453.07	356.20
453.43	352.11
453.80	348.45
454.17	345.02
454.54	341.66
454.91	338.25
455.28	334.80
455.65	331.64
456.02	329.04
456.38	326.32
456.75	323.02
457.12	320.14
457.49	317.45
457.86	314.50
458.23	312.35
458.59	309.77
458.96	307.21
459.33	304.92
459.70	302.68
460.07	300.92
460.43	298.91
460.80	297.08
461.17	295.55
461.54	293.79
461.91	292.11
462.27	290.32
462.64	288.87
463.01	287.29
463.38	285.87
463.74	283.82
464.11	282.46
464.48	281.17
464.85	279.85
465.21	278.83
465.58	277.81
465.95	276.42
466.32	275.42
466.68	274.38
467.05	273.37
467.42	272.30
467.78	271.17
468.15	270.20
468.52	269.48
468.88	268.31
469.25	267.45
469.62	266.82
469.98	266.08
470.35	265.33
470.72	264.69
471.08	263.84
471.45	263.35
471.82	262.75
472.18	262.13
472.55	261.74
472.92	261.07
473.28	260.50
473.65	260.00
474.02	259.52
474.38	259.16
474.75	258.85
475.11	258.42
475.48	258.19
475.85	257.87
476.21	257.67
476.58	257.51
476.94	257.44
477.31	257.29
477.67	257.14
478.04	257.01
478.41	256.98
478.77	257.33
479.14	257.16
479.50	257.19
479.87	257.22
480.23	257.26
480.60	257.41
480.96	257.51
481.33	257.75
481.69	257.92
482.06	258.08
482.42	258.28
482.79	258.55
483.15	258.77
483.52	259.16
483.88	259.38
484.25	259.75
484.61	260.02
484.98	260.35
485.34	260.91
485.71	261.52
486.07	262.06
486.44	262.27
486.80	262.93
487.17	263.55
487.53	264.37
487.90	265.15
488.26	266.02
488.62	267.04
488.99	267.86
489.35	268.75
489.72	269.80
490.08	270.79
490.44	271.82
490.81	273.08
491.17	274.38
491.54	275.75
491.90	277.01
492.26	278.45
492.63	279.96
492.99	281.46
493.36	283.01
493.72	284.77
494.08	286.56
494.45	288.52
494.81	290.56
495.17	292.50
495.54	294.64
495.90	296.79
496.26	298.89
496.63	301.20
496.99	303.66
497.35	306.06
497.72	308.78
498.08	311.56
498.44	314.28
498.80	317.22
499.17	320.11
499.53	323.35
499.89	326.63
500.26	329.97
500.62	333.35
500.98	337.09
501.34	340.75
501.71	344.60
502.07	348.42
502.43	352.33
502.79	356.40
503.16	360.55
503.52	364.87
503.88	369.33
504.24	373.86
504.60	378.53
504.97	383.44
505.33	388.27
505.69	393.37
506.05	398.64
506.41	403.83
506.78	409.23
507.14	414.58
507.50	420.08
507.86	425.74
508.22	431.61
508.59	437.21
508.95	443.13
509.31	449.17
509.67	455.34
510.03	461.69
510.39	468.21
510.75	474.74
511.12	481.30
511.48	488.09
511.84	494.80
512.20	501.67
512.56	508.74
512.92	516.08
513.28	523.38
513.64	530.54
514.00	537.90
514.37	545.42
514.73	553.24
515.09	561.09
515.45	568.82
515.81	576.56
516.17	584.50
516.53	592.30
516.89	600.14
517.25	608.20
517.61	616.17
517.97	624.09
518.33	632.12
518.69	640.53
519.05	648.97
519.41	657.63
519.77	666.36
520.13	674.60
520.49	682.73
520.85	691.01
521.21	699.51
521.57	708.13
521.93	716.48
522.29	725.10
522.65	733.57
523.01	742.20
523.37	750.53
523.73	759.13
524.09	767.84
524.45	776.53
524.81	785.06
525.17	794.00
525.53	802.89
525.89	811.70
526.25	820.28
526.61	828.45
526.97	836.98
527.33	845.29
527.68	854.24
528.04	862.76
528.40	871.07
528.76	879.61
529.12	888.01
529.48	896.96
529.84	905.23
530.20	913.52
530.56	921.92
530.91	930.68
531.27	939.34
531.63	947.80
531.99	956.09
532.35	964.22
532.71	972.11
533.07	980.50
533.42	988.77
533.78	996.74
534.14	1004.58
534.50	1011.93
534.86	1019.71
535.21	1026.80
535.57	1034.56
535.93	1041.89
536.29	1049.33
536.65	1056.50
537.00	1063.03
537.36	1070.07
537.72	1076.76
538.08	1083.50
538.44	1090.07
538.79	1096.59
539.15	1102.87
539.51	1109.24
539.87	1115.97
540.22	1122.24
540.58	1128.45
540.94	1134.48
541.29	1140.30
541.65	1146.01
542.01	1152.05
542.37	1157.48
542.72	1163.03
543.08	1168.11
543.44	1173.95
543.79	1178.66
544.15	1183.59
544.51	1189.00
544.87	1193.86
545.22	1198.49
545.58	1202.70
545.94	1206.58
546.29	1210.26
546.65	1214.20
547.01	1217.82
547.36	1221.37
547.72	1225.00
548.07	1227.79
548.43	1230.46
548.79	1233.43
549.14	1236.32
549.50	1238.93
549.86	1241.27
550.21	1243.70
550.57	1246.16
550.92	1247.83
551.28	1249.72
551.64	1251.76
551.99	1253.47
552.35	1254.94
552.70	1256.74
553.06	1258.47
553.41	1260.38
553.77	1261.90
554.13	1263.04
554.48	1264.51
554.84	1265.78
555.19	1266.57
555.55	1267.50
555.90	1268.21
556.26	1268.69
556.61	1269.22
556.97	1269.51
557.32	1270.10
557.68	1270.04
558.03	1270.23
558.39	1270.39
558.74	1271.16
559.10	1271.57
559.45	1271.68
559.81	1272.05
560.16	1271.65
560.52	1271.65
560.87	1271.41
561.23	1270.91
561.58	1271.09
561.94	1270.42
562.29	1269.45
562.64	1268.92
563.00	1268.47
563.35	1268.40
563.71	1268.51
564.06	1268.30
564.42	1268.06
564.77	1267.70
565.12	1267.64
565.48	1267.38
565.83	1267.05
566.19	1266.57
566.54	1265.28
566.89	1264.10
567.25	1263.25
567.60	1262.56
567.96	1261.62
568.31	1260.86
568.66	1259.82
569.02	1258.06
569.37	1256.36
569.72	1255.23
570.08	1253.70
570.43	1252.03
570.78	1250.23
571.14	1247.92
571.49	1245.70
571.84	1243.83
572.20	1241.55
572.55	1239.74
572.90	1236.97
573.26	1234.60
573.61	1231.64
573.96	1229.50
574.31	1226.75
574.67	1223.58
575.02	1220.51
575.37	1217.34
575.72	1213.84
576.08	1211.16
576.43	1208.17
576.78	1205.72
577.13	1202.98
577.49	1200.13
577.84	1197.05
578.19	1194.23
578.54	1191.68
578.90	1189.31
579.25	1186.10
579.60	1182.92
579.95	1179.27
580.30	1176.50
580.66	1173.58
581.01	1170.46
581.36	1167.03
581.71	1164.10
582.06	1161.25
582.42	1158.51
582.77	1155.18
583.12	1152.21
583.47	1149.46
583.82	1146.82
584.17	1143.75
584.53	1140.77
584.88	1137.85
585.23	1135.08
585.58	1131.90
585.93	1128.38
586.28	1125.38
586.63	1122.57
586.98	1119.79
587.34	1117.35
587.69	1114.37
588.04	1111.39
588.39	1108.88
588.74	1105.70
589.09	1102.90
589.44	1099.76
589.79	1096.86
590.14	1094.20
590.49	1091.29
590.84	1087.71
591.19	1084.77
591.54	1081.80
591.89	1078.33
592.25	1075.25
592.60	1072.00
592.95	1068.49
593.30	1065.01
593.65	1061.25
594.00	1057.85
594.35	1055.74
594.70	1052.02
595.05	1048.82
595.40	1045.31
595.75	1041.52
596.10	1038.79
596.45	1035.67
596.80	1032.76
597.15	1029.78
597.50	1026.56
597.85	1023.49
598.19	1020.63
598.54	1017.51
598.89	1014.48
599.24	1011.92
599.59	1008.88
599.94	1006.10
600.29	1003.42
600.64	1000.96
600.99	998.01
601.34	995.10
601.69	991.15
602.04	988.30
602.39	985.32
602.74	982.64
603.08	980.25
603.43	977.69
603.78	974.80
604.13	971.86
604.48	968.90
604.83	966.60
605.18	964.25
605.53	961.20
605.87	958.40
606.22	955.56
606.57	952.46
606.92	949.48
607.27	946.19
607.62	943.23
607.96	940.32
608.31	937.75
608.66	934.63
609.01	931.44
609.36	928.29
609.70	924.98
610.05	921.40
610.40	917.95
610.75	914.14
611.10	910.90
611.44	907.02
611.79	903.32
612.14	899.37
612.49	895.39
612.83	892.02
613.18	888.08
613.53	884.34
613.88	880.27
614.22	876.66
614.57	873.08
614.92	869.18
615.27	865.40
615.61	861.60
615.96	858.04
616.31	854.62
616.65	851.43
617.00	847.97
617.35	844.61
617.70	840.85
618.04	837.12
618.39	832.90
618.74	829.61
619.08	825.77
619.43	821.97
619.78	818.20
620.12	814.37
620.47	810.98
620.82	807.12
621.16	803.50
621.51	799.82
621.85	796.21
622.20	792.60
622.55	788.81
622.89	785.05
623.24	781.30
623.59	777.39
623.93	773.46
624.28	769.81
624.62	766.53
624.97	763.20
625.32	759.73
625.66	756.53
626.01	752.97
626.35	749.81
626.70	746.57
627.04	743.51
627.39	740.24
627.73	736.61
628.08	733.55
628.43	730.02
628.77	726.50
629.12	723.10
629.46	720.17
629.81	716.85
630.15	713.51
630.50	710.12
630.84	706.60
631.19	703.20
631.53	699.98
631.88	696.12
632.22	692.45
632.57	689.33
632.91	685.98
633.26	682.79
633.60	679.40
633.95	676.33
634.29	672.80
634.64	669.72
634.98	666.66
635.32	663.50
635.67	660.66
636.01	657.62
636.36	654.36
636.70	651.13
637.05	648.20
637.39	645.24
637.73	642.53
638.08	640.00
638.42	637.42
638.77	634.62
639.11	631.75
639.45	628.96
639.80	625.75
640.14	622.65
640.49	619.55
640.83	616.74
641.17	613.72
641.52	610.75
641.86	607.65
642.20	604.79
642.55	601.55
642.89	598.38
643.23	595.31
643.58	592.70
643.92	589.43
644.26	586.34
644.61	583.45
644.95	580.44
645.29	577.44
645.64	574.16
645.98	570.94
646.32	568.22
646.66	565.03
647.01	562.25
647.35	559.55
647.69	556.44
648.04	553.60
648.38	550.55
648.72	547.72
649.06	544.78
649.41	541.77
649.75	539.10
650.09	536.41
650.43	533.69
650.78	530.62
651.12	527.76
651.46	525.07
651.80	522.33
652.14	519.56
652.49	516.70
652.83	513.96
653.17	511.16
653.51	508.28
653.85	505.84
654.20	503.16
654.54	500.41
654.88	497.75
655.22	494.97
655.56	492.30
655.90	489.55
656.25	486.88
656.59	484.20
656.93	481.51
657.27	479.00
657.61	476.18
657.95	473.85
658.29	471.57
658.64	469.06
658.98	466.39
659.32	463.63
659.66	461.21
660.00	458.63
660.34	456.13
660.68	453.64
661.02	450.98
661.36	448.61
661.70	446.35
662.05	444.15
662.39	442.12
662.73	439.99
663.07	437.90
663.41	435.72
663.75	433.55
664.09	431.22
664.43	428.90
664.77	426.85
665.11	424.55
665.45	422.25
665.79	420.18
666.13	418.13
666.47	416.13
666.81	414.02
667.15	412.05
667.49	410.10
667.83	408.19
668.17	406.37
668.51	404.48
668.85	402.60
669.19	400.87
669.53	398.88
669.87	396.85
670.21	395.01
670.55	393.19
670.89	391.60
671.23	390.06
671.57	388.50
671.91	386.65
672.25	384.88
672.58	383.28
672.92	381.52
673.26	379.85
673.60	378.32
673.94	376.68
674.28	375.14
674.62	373.73
674.96	372.14
675.30	370.61
675.64	369.05
675.97	367.49
676.31	366.00
676.65	364.37
676.99	363.10
677.33	361.48
677.67	360.02
678.01	358.37
678.34	356.91
678.68	355.40
679.02	354.05
679.36	352.68
679.70	351.34
680.04	349.80
680.37	348.43
680.71	347.01
681.05	345.70
681.39	344.34
681.73	342.85
682.06	341.59
682.40	340.32
682.74	339.05
683.08	337.72
683.42	336.27
683.75	335.10
684.09	333.70
684.43	332.52
684.77	331.24
685.10	329.97
685.44	328.63
685.78	327.37
686.12	326.28
686.45	325.00
686.79	323.71
687.13	322.75
687.46	321.60
687.80	320.53
688.14	319.40
688.48	318.35
688.81	317.22
689.15	316.11
689.49	314.90
689.82	313.69
690.16	312.51
690.50	311.31
690.83	310.14
691.17	308.94
691.51	307.83
691.84	306.77
692.18	305.74
692.52	304.76
692.85	303.83
693.19	302.94
693.52	301.95
693.86	300.89
694.20	299.87
694.53	298.93
694.87	297.85
695.21	296.77
695.54	295.66
695.88	294.63
696.21	293.55
696.55	292.67
696.88	291.67
697.22	290.71
697.56	289.96
697.89	289.13
698.23	288.35
698.56	287.44
698.90	286.66
699.23	285.85
699.57	285.05
699.90	284.03
700.24	283.04
700.58	282.24
700.91	281.47
701.25	280.84
701.58	280.10
701.92	279.43
702.25	278.76
702.59	277.98
702.92	277.29
703.26	276.58
703.59	275.86
703.93	275.47
704.26	274.86
704.60	274.13
704.93	273.37
705.26	272.63
705.60	271.95
705.93	271.13
706.27	270.45
706.60	269.85
706.94	269.44
707.27	268.70
707.61	268.12
707.94	267.44
708.27	266.59
708.61	265.93
708.94	265.27
709.28	264.58
709.61	264.06
709.94	263.49
710.28	262.90
710.61	262.28
710.95	261.45
711.28	261.09
711.61	260.53
711.95	260.03
712.28	259.40
712.61	258.86
712.95	258.53
713.28	258.16
713.61	257.46
713.95	256.85
714.28	256.46
714.61	255.87
714.95	255.39
715.28	254.88
715.61	254.30
715.95	253.82
716.28	253.30
716.61	252.80
716.95	252.28
717.28	251.85
717.61	251.45
717.94	250.99
718.28	250.24
718.61	249.77
718.94	249.28
719.27	248.91
719.61	248.53
719.94	248.05
720.27	247.46
720.60	247.15
720.94	246.71
721.27	246.24
721.60	245.94
721.93	245.58
722.27	245.35
722.60	245.01
722.93	244.62
723.26	244.30
723.59	243.83
723.93	243.53
724.26	243.23
724.59	242.86
724.92	242.54
725.25	242.40
725.59	242.12
725.92	241.92
726.25	241.65
726.58	241.38
726.91	241.01
727.24	240.74
727.57	240.43
727.91	240.08
728.24	239.90
728.57	239.54
728.90	239.33
729.23	238.95
729.56	238.81
729.89	238.59
730.22	238.29
730.55	238.02
730.89	237.76
731.22	237.45
731.55	237.20
731.88	236.89
732.21	236.53
732.54	236.17
732.87	235.81
733.20	235.53
733.53	235.25
733.86	235.09
734.19	234.77
734.52	234.61
734.85	234.67
735.18	234.36
735.51	234.19
735.84	234.02
736.17	233.87
736.50	233.50
736.83	233.58
737.16	233.44
737.49	233.32
737.82	233.09
738.15	232.97
738.48	232.71
738.81	232.63
739.14	232.40
739.47	232.18
739.80	231.99
740.13	231.84
740.46	231.60
740.79	231.34
741.12	231.06
741.45	230.74
741.78	230.33
742.11	230.27
742.44	230.03
742.77	229.83
743.10	229.50
743.43	229.30
743.75	228.78
744.08	228.94
744.41	228.69
744.74	228.46
745.07	228.16
745.40	227.99
745.73	227.91
746.06	227.71
746.39	227.60
746.71	227.40
747.04	227.17
747.37	227.03
747.70	226.88
748.03	226.83
748.36	226.69
748.68	226.51
749.01	226.20
749.34	225.95
749.67	225.76
750.00	225.66
750.33	225.75
750.65	225.62
750.98	225.01
751.31	224.84
751.64	224.68
751.97	224.76
752.29	224.65
752.62	224.27
752.95	224.11
753.28	223.96
753.60	223.84
753.93	223.76
754.26	223.59
754.59	223.38
754.91	223.20
755.24	223.08
755.57	222.95
755.90	222.85
756.22	222.77
756.55	222.61
756.88	222.45
757.20	222.12
757.53	221.92
757.86	221.91
758.19	221.94
758.51	221.89
758.84	221.52
759.17	221.35
759.49	221.31
759.82	221.40
760.15	221.32
760.47	221.16
760.80	221.00
761.13	220.94
761.45	220.85
761.78	220.73
762.11	220.57
762.43	220.40
762.76	220.30
763.08	220.23
763.41	220.18
763.74	220.07
764.06	219.97
764.39	219.88
764.71	219.72
765.04	219.54
765.37	219.41
765.69	219.37
766.02	219.26
766.34	219.19
766.67	218.95
767.00	218.88
767.32	219.02
767.65	219.11
767.97	219.03
768.30	218.98
768.62	218.92
768.95	218.82
769.27	218.76
769.60	218.76
769.92	218.65
770.25	218.52
770.57	218.40
770.90	218.39
771.22	218.29
771.55	218.24
771.87	218.21
772.20	218.20
772.52	218.47
772.85	218.83
773.17	218.73
773.50	218.68
773.82	218.63
774.15	218.36
774.47	218.10
774.80	218.00
775.12	217.86
775.45	217.87
775.77	217.89
776.09	217.90
776.42	217.74
776.74	217.77
777.07	217.72
777.39	217.71
777.72	217.52
778.04	217.50
778.36	217.45
778.69	217.40
779.01	217.33
779.33	216.91
779.66	216.48
779.98	216.44
780.31	216.36
780.63	216.41
780.95	216.45
781.28	216.40
781.60	216.38
781.92	216.40
782.25	216.23
782.57	216.16
782.89	216.09
783.22	216.07
783.54	215.90
783.86	215.89
784.19	215.77
784.51	215.88
784.83	215.78
785.16	215.76
785.48	215.70
785.80	215.63
786.12	215.59
786.45	215.56
786.77	215.55
787.09	215.43
787.42	215.25
787.74	215.22
788.06	215.08
788.38	214.97
788.71	214.80
789.03	214.76
789.35	214.73
789.67	214.55
789.99	214.57
790.32	214.50
790.64	214.44
790.96	214.68
791.28	214.46
791.61	214.43
791.93	214.34
792.25	214.27
792.57	214.47
792.89	214.46
793.21	214.44
793.54	214.40
793.86	214.35
794.18	214.28
794.50	214.16
794.82	214.20
795.14	214.24
795.47	214.35
795.79	214.32
796.11	214.26
796.43	214.25
796.75	214.18
797.07	214.15
797.39	214.10
797.71	213.87
798.04	213.92
798.36	213.93
798.68	213.90
799.00	213.92
799.32	213.71
799.64	213.69
799.96	213.62
800.28	213.59
800.60	213.56
800.92	213.61
801.24	213.55
801.56	213.55
801.89	213.45
802.21	213.36
802.53	213.35
802.85	213.40
803.17	213.49
803.49	213.44
803.81	213.44
804.13	213.42
804.45	213.38
804.77	213.36
805.09	213.30
805.41	213.23
805.73	213.15
806.05	213.05
806.37	212.99
806.69	212.92
807.01	212.87
807.33	212.93
807.65	212.82
807.97	212.98
808.28	212.90
808.60	212.91
808.92	212.86
809.24	213.02
809.56	212.90
809.88	212.81
810.20	212.80
810.52	212.87
810.84	212.78
811.16	212.73
811.48	212.66
811.80	212.75
812.12	212.71
812.43	212.74
812.75	212.80
813.07	212.80
813.39	212.83
813.71	212.82
814.03	212.75
814.35	212.69
814.67	212.59
814.98	212.59
815.30	212.50
815.62	212.45
815.94	212.29
816.26	212.34
816.58	212.30
816.89	212.25
817.21	212.12
817.53	212.13
817.85	212.03
818.17	212.06
818.48	211.89
818.80	212.04
819.12	211.94
819.44	211.82
819.76	211.75
820.07	211.78
820.39	211.75
820.71	211.77
821.03	211.78
821.34	211.75
821.66	211.78
821.98	211.93
822.30	211.95
822.61	212.08
822.93	212.01
823.25	212.02
823.57	211.98
823.88	212.09
824.20	212.08
824.52	212.20
824.83	212.19
825.15	212.19
825.47	212.12
825.79	212.18
826.10	212.21
826.42	212.23
826.74	212.21
827.05	212.20
827.37	212.20
827.69	212.23
828.00	212.16
828.32	212.20
828.64	212.06
828.95	212.24
829.27	212.19
829.58	212.20
829.90	212.26
830.22	212.32
830.53	212.24
830.85	212.21
831.17	212.19
831.48	212.16
831.80	212.20
832.11	212.14
832.43	212.07
832.75	212.09
833.06	212.27
833.38	212.18
833.69	212.16
834.01	212.16
834.32	212.10
834.64	212.10
834.96	212.11
835.27	212.13
835.59	211.98
835.90	211.89
836.22	211.83
836.53	211.68
836.85	211.65
837.16	212.00
837.48	212.08
837.79	212.09
838.11	212.10
838.42	212.09
838.74	212.11
839.05	212.16
839.37	212.06
839.68	211.80
840.00	211.77
840.31	211.85
840.63	211.77
840.94	211.76
841.26	211.67
841.57	211.58
841.88	211.62
842.20	211.60
842.51	211.51
842.83	211.54
843.14	211.90
843.46	211.91
843.77	211.64
844.08	211.60
844.40	211.54
844.71	211.50
845.03	211.40
845.34	211.44
845.65	211.35
845.97	211.37
846.28	211.39
846.60	211.46
846.91	211.36
847.22	211.37
847.54	211.43
847.85	211.48
848.16	211.48
848.48	211.47
848.79	211.64
849.10	211.74
849.42	211.72
849.73	211.38
850.04	211.33
850.36	211.18
850.67	211.14
850.98	211.12
851.30	211.18
851.61	211.30
851.92	211.28
852.23	211.38
852.55	211.38
852.86	211.43
853.17	211.38
853.49	211.43
853.80	211.55
854.11	211.65
854.42	211.70
854.74	211.67
855.05	211.63
855.36	211.40
855.67	211.39
855.99	211.45
856.30	211.85
856.61	211.84
856.92	211.89
857.23	211.90
857.55	211.84
857.86	211.81
858.17	211.76
858.48	211.73
858.79	211.66
859.11	211.69
859.42	211.70
859.73	211.78
860.04	211.78
860.35	211.65
860.66	211.46
860.98	211.44
861.29	211.47
861.60	211.51
861.91	211.56
862.22	211.49
862.53	211.44
862.84	211.09
863.16	211.20
863.47	211.18
863.78	211.16
864.09	211.25
864.40	211.21
864.71	211.24
865.02	211.27
865.33	211.22
865.64	211.18
865.95	211.15
866.27	211.30
866.58	211.30
866.89	211.37
867.20	211.44
867.51	211.33
867.82	211.33
868.13	211.38
868.44	211.38
868.75	211.46
869.06	211.42
869.37	211.41
869.68	211.30
869.99	211.35
870.30	211.49
870.61	211.56
870.92	211.62
871.23	211.55
871.54	211.60
871.85	211.70
872.16	211.79
872.47	211.76
872.78	211.51
873.09	211.49
873.40	211.42
873.71	211.39
874.02	211.50
874.33	211.51
874.64	211.48
874.95	211.43
875.26	211.37
875.56	211.45
875.87	211.46
876.18	211.54
876.49	211.90
876.80	211.77
877.11	211.68
877.42	211.67
877.73	211.73
878.04	211.70
878.35	211.75
878.66	211.74
878.96	211.78
879.27	211.85
879.58	211.89
879.89	211.88
880.20	211.96
880.51	211.95
880.82	211.94
881.12	211.91
881.43	211.97
881.74	211.94
882.05	211.87
882.36	211.86
882.67	211.83
882.97	211.46
883.28	211.46
883.59	211.46
883.90	211.47
884.21	211.56
884.51	211.51
884.82	211.46
885.13	211.42
885.44	211.44
885.74	211.38
886.05	211.32
886.36	211.40
886.67	211.33
886.98	211.49
887.28	211.52
887.59	211.54
887.90	211.50
888.20	211.55
888.51	211.69
888.82	211.61
889.13	211.59
889.43	211.83
889.74	211.93
890.05	211.96
890.35	211.91
890.66	211.78
890.97	211.81
891.28	211.78
891.58	211.78
891.89	211.74
892.20	211.77
892.50	211.75
892.81	211.67
893.12	211.67
893.42	211.46
893.73	211.48
894.04	211.44
894.34	211.53
894.65	211.42
894.95	211.34
895.26	211.39
895.57	211.58
895.87	211.26
896.18	211.18
896.48	211.13
896.79	211.10
897.10	211.17
897.40	211.12
897.71	211.11
898.01	211.09
898.32	211.11
898.63	211.06
898.93	211.08
899.24	211.10
899.54	211.11
899.85	211.13
900.15	211.08
900.46	211.10
900.76	211.06
901.07	211.08
901.38	211.08
901.68	211.15
901.99	210.97
902.29	211.01
902.60	211.01
902.90	210.98
903.21	211.00
903.51	210.92
903.82	211.01
904.12	210.96
904.43	210.96
904.73	210.88
905.03	210.90
905.34	211.25
905.64	211.24
905.95	211.16
906.25	211.13
906.56	211.12
906.86	211.15
907.17	211.14
907.47	211.18
907.77	211.11
908.08	211.01
908.38	210.97
908.69	210.96
908.99	211.05
909.30	211.09
909.60	211.13
909.90	211.12
910.21	210.99
910.51	210.97
910.81	210.97
911.12	211.07
911.42	211.13
911.73	210.75
912.03	210.75
912.33	210.90
912.64	210.86
912.94	210.79
913.24	210.72
913.55	210.72
913.85	210.77
914.15	210.90
914.46	211.02
914.76	211.04
915.06	211.01
915.37	210.90
915.67	210.94
915.97	210.87
916.27	210.85
916.58	210.88
916.88	210.86
917.18	210.77
917.49	210.97
917.79	210.90
918.09	210.99
918.39	211.08
918.70	210.97
919.00	211.00
919.30	211.24
919.60	211.17
919.91	211.12
920.21	211.13
920.51	211.04
920.81	210.98
921.12	211.04
921.42	211.14
921.72	211.18
922.02	211.18
922.32	211.26
922.63	211.29
922.93	211.54
923.23	211.58
923.53	211.58
923.83	211.37
924.13	211.45
924.44	211.40
924.74	211.40
925.04	211.51
925.34	211.53
925.64	211.32
925.94	211.37
926.24	211.55
926.55	211.42
926.85	211.46
927.15	211.43
927.45	211.42
927.75	211.31
928.05	211.28
928.35	211.17
928.65	211.25
928.95	211.26
929.26	211.04
929.56	211.18
929.86	211.30
930.16	211.27
930.46	211.26
930.76	211.30
931.06	211.16
931.36	211.15
931.66	211.17
931.96	211.17
932.26	211.18
932.56	211.02
932.86	211.07
933.16	211.07
933.46	211.01
933.76	210.89
934.06	211.04
934.36	211.19
934.66	211.29
934.96	211.18
935.26	211.19
935.56	211.33
935.86	211.20
936.16	211.05
936.46	210.99
936.76	210.93
937.06	210.87
937.36	210.90
937.66	210.83
937.96	210.83
938.26	210.86
938.56	210.90
938.86	210.95
939.16	211.04
939.46	211.09
939.76	211.14
940.06	211.22
940.35	211.12
940.65	210.92
940.95	210.88
941.25	210.78
941.55	210.74
941.85	210.66
942.15	210.74
942.45	210.89
942.75	211.00
943.04	210.96
943.34	211.08
943.64	211.06
943.94	211.01
944.24	211.00
944.54	210.97
944.84	210.91
945.13	210.85
945.43	210.83
945.73	210.77
946.03	210.80
946.33	210.72
946.62	210.67
946.92	210.74
947.22	210.81
947.52	210.91
947.82	210.95
948.11	210.92
948.41	210.86
948.71	210.78
949.01	210.71
949.31	210.74
949.60	210.66
949.90	210.66
950.20	210.60
950.50	210.60
950.79	210.59
951.09	210.64
951.39	210.65
951.69	210.54
951.98	210.65
952.28	210.52
952.58	210.61
952.87	210.64
953.17	210.63
953.47	210.57
953.76	210.52
954.06	210.52
954.36	210.46
954.66	210.39
954.95	210.49
955.25	210.53
955.55	210.51
955.84	210.44
956.14	210.47
956.44	210.56
956.73	210.51
957.03	210.61
957.32	210.58
957.62	210.54
957.92	210.62
958.21	210.53
958.51	211.01
958.81	211.02
959.10	210.99
959.40	211.16
959.69	211.20
959.99	211.26
960.29	211.19
960.58	211.23
960.88	211.36
961.17	211.32
961.47	211.34
961.76	211.40
962.06	211.50
962.36	211.46
962.65	211.57
962.95	211.61
963.24	211.53
963.54	211.57
963.83	211.64
964.13	211.60
964.42	211.58
964.72	211.34
965.01	211.29
965.31	211.29
965.60	211.11
965.90	211.23
966.19	211.14
966.49	211.13
966.78	211.07
967.08	211.01
967.37	210.99
967.67	210.90
967.96	210.91
968.26	210.89
968.55	210.97
968.85	210.87
969.14	210.86
969.43	210.87
969.73	210.93
970.02	210.88
970.32	210.92
970.61	210.85
970.91	210.71
971.20	210.70
971.49	210.76
971.79	210.83
972.08	210.64
972.38	210.74
972.67	210.81
972.96	210.87
973.26	210.84
973.55	210.98
973.85	210.99
974.14	210.94
974.43	210.97
974.73	210.91
975.02	210.91
975.31	210.91
975.61	210.92
975.90	210.85
976.19	210.84
976.49	210.84
976.78	210.92
977.07	210.90
977.37	210.95
977.66	210.98
977.95	210.89
978.24	210.95
978.54	211.04
978.83	211.00
979.12	211.05
979.42	211.03
979.71	210.97
980.00	210.99
980.29	211.06
980.59	211.00
980.88	211.12
981.17	211.12
981.46	211.16
981.76	211.18
982.05	211.17
982.34	211.18
982.63	211.18
982.93	211.15
983.22	211.22
983.51	211.19
983.80	211.20
984.09	211.27
984.39	211.26
984.68	211.19
984.97	211.13
985.26	211.05
985.55	211.14
985.85	211.02
986.14	211.04
986.43	211.03
986.72	210.98
987.01	210.88
987.30	210.86
987.59	210.79
987.89	210.70
988.18	210.63
988.47	210.64
988.76	210.56
989.05	210.49
989.34	210.45
989.63	210.51
989.92	210.46
990.22	210.39
990.51	210.36
990.80	210.29
991.09	210.36
991.38	210.38
991.67	210.32
991.96	210.29
992.25	210.34
992.54	210.32
992.83	210.31
993.12	210.22
993.41	210.21
993.70	210.37
993.99	210.54
994.28	210.60
994.58	210.67
994.87	210.75
995.16	210.84
995.45	210.80
995.74	210.69
996.03	210.73
996.32	210.84
996.61	210.97
996.90	210.97
997.19	210.95
997.48	210.94
997.77	210.92
998.06	210.98
998.34	210.92
998.63	210.85
998.92	210.93
999.21	210.96
999.50	211.03
999.79	210.94
1000.08	210.90
1000.37	210.88
1000.66	210.80
1000.95	210.81
1001.24	210.77
1001.53	210.81
1001.82	210.85
1002.11	210.71
1002.40	210.78
1002.68	210.78
1002.97	211.04
1003.26	211.00
1003.55	210.93
1003.84	210.98
1004.13	211.09
1004.42	211.12
1004.71	211.20
1004.99	211.17
1005.28	211.35
1005.57	211.32
1005.86	211.25
1006.15	211.20
1006.44	211.15
1006.72	211.20
1007.01	211.14
1007.30	211.13
1007.59	211.14
1007.88	211.11
1008.17	211.18
1008.45	211.03
1008.74	210.92
1009.03	210.71
1009.32	210.82
1009.60	210.87
1009.89	210.81
1010.18	210.75
1010.47	210.72
1010.76	210.69
1011.04	210.64
1011.33	210.62
1011.62	210.62
1011.91	210.63
1012.19	210.65
1012.48	210.73
1012.77	210.74
1013.05	210.96
1013.34	211.01
1013.63	210.96
1013.92	210.98
1014.20	210.99
1014.49	211.03
1014.78	211.04
1015.06	210.94
1015.35	210.92
1015.64	211.00
1015.92	211.04
1016.21	210.97
1016.50	210.95
1016.78	210.97
1017.07	211.02
1017.36	210.93
1017.64	210.87
1017.93	210.94
1018.22	210.86
1018.50	210.79
1018.79	210.76
1019.08	210.49
1019.36	210.54
1019.65	210.50
1019.93	210.57
1020.22	210.56
1020.51	210.76
1020.79	210.72
1021.08	209.45
1021.36	209.15
1021.65	210.95
1021.94	209.70
1022.22	211.60
1022.51	209.70
1022.79	211.55
1023.08	210.45
1023.36	215.70
1023.65	210.00
>>>>>End Processed Spectral Data<<<<<
