SpectraSuite Data File
++++++++++++++++++++++++++++++++++++
Date: Mon Feb 25 17:05:52 EST 2013
User: group
Dark Spectrum Present: No
Reference Spectrum Present: No
Number of Sampled Component Spectra: 1
Spectrometers: USB2E7196
Integration Time (usec): 104000 (USB2E7196)
Spectra Averaged: 20 (USB2E7196)
Boxcar Smoothing: 10 (USB2E7196)
Correct for Electrical Dark: No (USB2E7196)
Strobe/Lamp Enabled: No (USB2E7196)
Correct for Detector Non-linearity: No (USB2E7196)
Correct for Stray Light: No (USB2E7196)
Number of Pixels in Processed Spectrum: 2048
>>>>>Begin Processed Spectral Data<<<<<
339.09	0.00
339.48	197.70
339.86	199.50
340.24	201.45
340.63	201.25
341.01	208.70
341.39	204.10
341.78	206.85
342.16	208.10
342.54	208.85
342.93	197.81
343.31	207.85
343.69	208.46
344.07	208.95
344.46	209.44
344.84	209.92
345.22	210.02
345.60	210.35
345.99	210.53
346.37	210.66
346.75	210.71
347.13	210.77
347.52	210.77
347.90	210.94
348.28	210.95
348.66	210.96
349.05	210.87
349.43	210.88
349.81	210.91
350.19	210.90
350.57	210.89
350.96	210.99
351.34	211.06
351.72	211.07
352.10	211.16
352.48	211.08
352.87	211.11
353.25	211.10
353.63	211.12
354.01	211.12
354.39	211.17
354.77	211.23
355.15	211.33
355.54	211.35
355.92	211.28
356.30	211.33
356.68	211.64
357.06	211.73
357.44	211.75
357.82	211.90
358.20	212.03
358.58	212.18
358.97	212.30
359.35	212.33
359.73	212.41
360.11	212.41
360.49	212.53
360.87	212.54
361.25	212.67
361.63	212.85
362.01	212.93
362.39	212.87
362.77	212.98
363.15	212.96
363.53	213.04
363.91	213.05
364.29	213.05
364.67	212.74
365.05	212.74
365.43	212.82
365.81	212.83
366.19	212.91
366.57	212.96
366.95	212.87
367.33	212.88
367.71	212.90
368.09	212.95
368.47	212.92
368.85	212.95
369.23	212.99
369.61	212.88
369.99	213.03
370.37	213.17
370.75	213.31
371.13	213.24
371.51	213.10
371.89	213.08
372.27	213.10
372.65	213.10
373.03	213.11
373.41	213.02
373.78	212.92
374.16	212.69
374.54	212.59
374.92	212.59
375.30	212.48
375.68	212.41
376.06	212.44
376.44	212.41
376.82	212.41
377.19	212.28
377.57	212.20
377.95	212.05
378.33	211.94
378.71	211.65
379.09	211.72
379.47	211.78
379.84	211.72
380.22	211.65
380.60	211.54
380.98	211.44
381.36	211.43
381.73	211.36
382.11	211.44
382.49	211.38
382.87	211.22
383.25	211.21
383.62	211.50
384.00	211.32
384.38	211.33
384.76	211.28
385.13	211.39
385.51	211.25
385.89	211.13
386.27	211.10
386.64	211.11
387.02	210.95
387.40	210.89
387.78	210.83
388.15	210.82
388.53	210.78
388.91	210.81
389.29	210.70
389.66	210.78
390.04	210.62
390.42	210.72
390.79	210.80
391.17	210.74
391.55	210.41
391.92	210.40
392.30	210.36
392.68	210.30
393.05	210.29
393.43	210.35
393.81	210.37
394.18	210.32
394.56	210.28
394.94	210.37
395.31	210.28
395.69	210.46
396.06	210.50
396.44	210.54
396.82	210.40
397.19	210.60
397.57	210.49
397.95	210.61
398.32	210.47
398.70	210.45
399.07	210.59
399.45	210.59
399.82	210.66
400.20	210.62
400.58	210.62
400.95	210.42
401.33	210.50
401.70	210.76
402.08	210.82
402.45	210.85
402.83	211.01
403.20	211.08
403.58	211.02
403.95	211.07
404.33	211.17
404.71	211.30
405.08	211.48
405.46	211.60
405.83	211.65
406.21	211.75
406.58	211.95
406.96	212.06
407.33	212.21
407.70	212.40
408.08	212.84
408.45	213.04
408.83	213.34
409.20	213.45
409.58	213.45
409.95	213.67
410.33	214.01
410.70	214.14
411.08	214.46
411.45	214.78
411.82	215.09
412.20	215.45
412.57	216.04
412.95	216.22
413.32	216.72
413.69	217.10
414.07	217.61
414.44	218.15
414.82	218.58
415.19	219.24
415.56	219.89
415.94	220.37
416.31	221.14
416.68	221.95
417.06	222.95
417.43	223.94
417.81	224.93
418.18	225.87
418.55	226.90
418.93	228.12
419.30	229.22
419.67	230.38
420.04	231.61
420.42	232.85
420.79	234.63
421.16	236.02
421.54	237.87
421.91	239.51
422.28	241.21
422.66	243.12
423.03	245.09
423.40	246.87
423.77	248.92
424.15	250.89
424.52	253.02
424.89	255.31
425.26	257.42
425.64	259.50
426.01	261.81
426.38	264.27
426.75	266.77
427.13	269.45
427.50	272.19
427.87	275.13
428.24	277.92
428.61	280.48
428.99	283.73
429.36	286.77
429.73	290.01
430.10	293.24
430.47	296.57
430.85	299.76
431.22	303.45
431.59	307.49
431.96	311.17
432.33	315.30
432.70	319.26
433.08	323.84
433.45	328.24
433.82	332.72
434.19	337.65
434.56	342.43
434.93	347.01
435.30	351.71
435.68	356.85
436.05	361.93
436.42	366.98
436.79	371.56
437.16	376.67
437.53	381.99
437.90	387.20
438.27	392.29
438.64	397.66
439.01	402.76
439.38	406.98
439.75	411.29
440.13	416.16
440.50	420.84
440.87	424.76
441.24	428.88
441.61	433.19
441.98	436.50
442.35	440.30
442.72	444.03
443.09	447.88
443.46	450.15
443.83	451.81
444.20	453.25
444.57	455.19
444.94	456.22
445.31	457.24
445.68	458.55
446.05	459.23
446.42	459.00
446.79	458.63
447.16	458.30
447.53	458.28
447.90	456.59
448.27	454.88
448.64	452.43
449.01	450.76
449.37	447.67
449.74	444.57
450.11	441.14
450.48	437.23
450.85	432.84
451.22	429.25
451.59	425.82
451.96	422.48
452.33	418.15
452.70	414.13
453.07	409.27
453.43	404.10
453.80	399.34
454.17	394.74
454.54	390.35
454.91	385.68
455.28	380.99
455.65	376.68
456.02	372.88
456.38	369.25
456.75	364.67
457.12	360.92
457.49	357.17
457.86	353.19
458.23	350.17
458.59	346.79
458.96	343.40
459.33	340.39
459.70	337.46
460.07	335.03
460.43	332.20
460.80	329.68
461.17	327.51
461.54	325.13
461.91	322.85
462.27	320.47
462.64	318.39
463.01	316.27
463.38	314.23
463.74	311.58
464.11	309.65
464.48	307.97
464.85	306.14
465.21	304.82
465.58	303.48
465.95	301.59
466.32	300.12
466.68	298.59
467.05	297.12
467.42	295.53
467.78	293.90
468.15	292.42
468.52	291.37
468.88	289.83
469.25	288.50
469.62	287.55
469.98	286.48
470.35	285.45
470.72	284.43
471.08	283.17
471.45	282.42
471.82	281.68
472.18	280.72
472.55	279.94
472.92	279.01
473.28	278.15
473.65	277.37
474.02	276.55
474.38	276.01
474.75	275.45
475.11	274.84
475.48	274.44
475.85	274.07
476.21	273.64
476.58	273.27
476.94	272.99
477.31	272.62
477.67	272.26
478.04	271.92
478.41	271.65
478.77	271.90
479.14	271.49
479.50	271.34
479.87	271.23
480.23	271.11
480.60	270.96
480.96	270.82
481.33	270.92
481.69	271.02
482.06	270.95
482.42	270.95
482.79	271.06
483.15	271.07
483.52	271.26
483.88	271.32
484.25	271.46
484.61	271.59
484.98	271.67
485.34	272.03
485.71	272.36
486.07	272.73
486.44	272.76
486.80	273.24
487.17	273.62
487.53	274.18
487.90	274.73
488.26	275.38
488.62	276.15
488.99	276.64
489.35	277.22
489.72	277.91
490.08	278.55
490.44	279.19
490.81	279.98
491.17	280.73
491.54	281.58
491.90	282.40
492.26	283.24
492.63	284.20
492.99	285.01
493.36	286.08
493.72	287.05
494.08	288.08
494.45	289.10
494.81	290.21
495.17	291.23
495.54	292.37
495.90	293.43
496.26	294.53
496.63	295.82
496.99	297.00
497.35	298.21
497.72	299.56
498.08	300.87
498.44	302.12
498.80	303.52
499.17	304.87
499.53	306.31
499.89	307.85
500.26	309.22
500.62	310.60
500.98	312.03
501.34	313.47
501.71	314.91
502.07	316.39
502.43	317.69
502.79	319.02
503.16	320.36
503.52	321.72
503.88	322.97
504.24	324.33
504.60	325.76
504.97	327.24
505.33	328.57
505.69	330.09
506.05	331.54
506.41	332.80
506.78	334.05
507.14	335.27
507.50	336.41
507.86	337.79
508.22	339.03
508.59	340.28
508.95	341.46
509.31	342.81
509.67	344.06
510.03	345.37
510.39	346.75
510.75	348.07
511.12	349.37
511.48	350.70
511.84	351.84
512.20	353.04
512.56	354.24
512.92	355.45
513.28	356.57
513.64	357.70
514.00	358.99
514.37	360.33
514.73	361.51
515.09	362.79
515.45	363.90
515.81	365.17
516.17	366.26
516.53	367.54
516.89	368.58
517.25	369.73
517.61	370.93
517.97	372.00
518.33	373.23
518.69	374.57
519.05	375.85
519.41	377.29
519.77	378.87
520.13	380.21
520.49	381.43
520.85	382.75
521.21	384.21
521.57	385.62
521.93	386.89
522.29	388.29
522.65	389.76
523.01	391.27
523.37	392.59
523.73	394.21
524.09	395.75
524.45	397.42
524.81	399.01
525.17	400.69
525.53	402.45
525.89	404.22
526.25	405.95
526.61	407.68
526.97	409.39
527.33	411.10
527.68	413.29
528.04	415.31
528.40	417.18
528.76	419.21
529.12	421.13
529.48	423.34
529.84	425.54
530.20	427.81
530.56	430.05
530.91	432.58
531.27	434.94
531.63	437.27
531.99	439.56
532.35	442.11
532.71	444.50
533.07	446.94
533.42	449.73
533.78	452.25
534.14	454.72
534.50	457.27
534.86	459.91
535.21	462.08
535.57	464.82
535.93	467.52
536.29	470.51
536.65	473.36
537.00	475.91
537.36	478.67
537.72	481.30
538.08	484.09
538.44	486.77
538.79	489.63
539.15	492.44
539.51	495.32
539.87	498.16
540.22	501.08
540.58	504.20
540.94	506.79
541.29	509.77
541.65	512.65
542.01	515.61
542.37	518.46
542.72	521.42
543.08	524.25
543.44	527.31
543.79	529.58
544.15	532.50
544.51	535.64
544.87	538.71
545.22	541.58
545.58	544.42
545.94	547.28
546.29	549.93
546.65	552.70
547.01	555.55
547.36	558.35
547.72	561.02
548.07	563.58
548.43	566.17
548.79	568.67
549.14	571.31
549.50	574.03
549.86	576.51
550.21	579.10
550.57	581.80
550.92	584.22
551.28	586.89
551.64	589.22
551.99	591.66
552.35	593.73
552.70	596.16
553.06	598.51
553.41	600.75
553.77	603.23
554.13	605.64
554.48	608.05
554.84	610.36
555.19	612.65
555.55	615.08
555.90	617.23
556.26	619.29
556.61	621.29
556.97	623.05
557.32	625.02
557.68	626.83
558.03	628.58
558.39	630.38
558.74	632.48
559.10	634.42
559.45	636.34
559.81	638.50
560.16	640.26
560.52	642.12
560.87	644.00
561.23	645.52
561.58	647.29
561.94	648.66
562.29	649.85
562.64	651.50
563.00	652.87
563.35	654.49
563.71	656.18
564.06	657.88
564.42	659.59
564.77	661.15
565.12	662.99
565.48	664.81
565.83	666.43
566.19	667.79
566.54	669.04
566.89	669.91
567.25	671.19
567.60	672.60
567.96	673.97
568.31	675.35
568.66	676.49
569.02	677.25
569.37	678.14
569.72	679.29
570.08	680.05
570.43	680.69
570.78	681.29
571.14	681.70
571.49	682.12
571.84	682.63
572.20	683.06
572.55	683.32
572.90	683.21
573.26	683.26
573.61	683.26
573.96	683.43
574.31	683.61
574.67	683.48
575.02	683.20
575.37	682.73
575.72	682.24
576.08	682.17
576.43	682.16
576.78	681.90
577.13	681.78
577.49	681.44
577.84	681.38
578.19	681.20
578.54	681.26
578.90	681.26
579.25	680.95
579.60	680.56
579.95	680.04
580.30	679.85
580.66	679.80
581.01	679.46
581.36	678.91
581.71	678.48
582.06	678.08
582.42	677.67
582.77	677.23
583.12	676.91
583.47	676.55
583.82	676.00
584.17	675.80
584.53	675.43
584.88	675.19
585.23	674.76
585.58	674.31
585.93	673.72
586.28	673.23
586.63	672.74
586.98	672.36
587.34	672.05
587.69	671.45
588.04	670.82
588.39	670.34
588.74	669.66
589.09	669.22
589.44	668.46
589.79	668.05
590.14	667.46
590.49	666.81
590.84	665.92
591.19	665.50
591.54	664.69
591.89	663.63
592.25	663.03
592.60	661.97
592.95	661.00
593.30	659.93
593.65	658.70
594.00	657.65
594.35	657.48
594.70	656.25
595.05	655.20
595.40	654.09
595.75	652.75
596.10	651.94
596.45	650.98
596.80	650.12
597.15	649.08
597.50	648.07
597.85	647.06
598.19	646.04
598.54	644.94
598.89	643.88
599.24	643.20
599.59	641.94
599.94	641.05
600.29	640.15
600.64	639.09
600.99	638.22
601.34	637.35
601.69	635.53
602.04	634.57
602.39	633.60
602.74	632.78
603.08	632.24
603.43	631.55
603.78	630.56
604.13	629.47
604.48	628.36
604.83	627.56
605.18	626.66
605.53	625.68
605.87	624.55
606.22	623.75
606.57	622.57
606.92	621.36
607.27	620.23
607.62	619.12
607.96	618.25
608.31	617.39
608.66	616.13
609.01	614.96
609.36	613.75
609.70	612.51
610.05	611.05
610.40	609.70
610.75	608.08
611.10	606.80
611.44	605.29
611.79	603.83
612.14	602.18
612.49	600.48
612.83	599.03
613.18	597.33
613.53	595.48
613.88	593.62
614.22	592.12
614.57	590.58
614.92	588.99
615.27	587.12
615.61	585.19
615.96	583.77
616.31	582.18
616.65	580.66
617.00	579.14
617.35	577.53
617.70	575.56
618.04	573.63
618.39	571.65
618.74	570.00
619.08	568.26
619.43	566.63
619.78	564.99
620.12	563.16
620.47	561.53
620.82	559.56
621.16	557.78
621.51	556.20
621.85	554.36
622.20	552.39
622.55	550.68
622.89	548.87
623.24	546.94
623.59	544.94
623.93	543.08
624.28	541.16
624.62	539.53
624.97	538.00
625.32	536.34
625.66	534.79
626.01	533.02
626.35	531.37
626.70	529.54
627.04	527.93
627.39	526.18
627.73	524.51
628.08	523.15
628.43	521.50
628.77	519.61
629.12	517.79
629.46	516.38
629.81	514.64
630.15	512.89
630.50	511.12
630.84	509.38
631.19	507.73
631.53	506.05
631.88	504.14
632.22	502.26
632.57	500.83
632.91	499.06
633.26	497.51
633.60	495.78
633.95	494.19
634.29	492.35
634.64	490.88
634.98	489.04
635.32	487.43
635.67	485.90
636.01	484.26
636.36	482.61
636.70	480.92
637.05	479.38
637.39	477.79
637.73	476.25
638.08	474.90
638.42	473.42
638.77	471.90
639.11	470.34
639.45	468.73
639.80	466.89
640.14	465.13
640.49	463.50
640.83	461.83
641.17	460.17
641.52	458.40
641.86	456.56
642.20	455.10
642.55	453.24
642.89	451.53
643.23	449.76
643.58	448.37
643.92	446.46
644.26	444.71
644.61	443.21
644.95	441.46
645.29	439.78
645.64	438.09
645.98	436.34
646.32	434.78
646.66	433.10
647.01	431.58
647.35	430.02
647.69	428.31
648.04	426.69
648.38	425.08
648.72	423.62
649.06	422.04
649.41	420.32
649.75	418.69
650.09	417.11
650.43	415.57
650.78	413.67
651.12	412.08
651.46	410.57
651.80	409.00
652.14	407.47
652.49	405.96
652.83	404.30
653.17	402.67
653.51	400.93
653.85	399.52
654.20	398.04
654.54	396.37
654.88	394.75
655.22	393.18
655.56	391.57
655.90	390.00
656.25	388.43
656.59	386.91
656.93	385.43
657.27	384.07
657.61	382.41
657.95	381.11
658.29	379.65
658.64	378.22
658.98	376.69
659.32	375.15
659.66	373.51
660.00	372.01
660.34	370.46
660.68	369.02
661.02	367.37
661.36	365.86
661.70	364.59
662.05	363.20
662.39	361.91
662.73	360.68
663.07	359.51
663.41	358.22
663.75	356.89
664.09	355.62
664.43	354.19
664.77	352.93
665.11	351.56
665.45	350.43
665.79	349.16
666.13	347.85
666.47	346.53
666.81	345.34
667.15	344.06
667.49	343.15
667.83	342.10
668.17	340.95
668.51	339.83
668.85	338.74
669.19	337.86
669.53	336.64
669.87	335.44
670.21	334.13
670.55	333.05
670.89	332.17
671.23	331.15
671.57	330.05
671.91	329.10
672.25	328.06
672.58	327.04
672.92	325.91
673.26	324.89
673.60	323.92
673.94	322.92
674.28	321.97
674.62	320.90
674.96	319.88
675.30	319.02
675.64	317.98
675.97	317.04
676.31	315.98
676.65	315.06
676.99	314.30
677.33	313.29
677.67	312.31
678.01	311.08
678.34	310.25
678.68	309.46
679.02	308.47
679.36	307.59
679.70	306.60
680.04	305.80
680.37	304.90
680.71	304.07
681.05	303.34
681.39	302.55
681.73	301.71
682.06	300.89
682.40	300.03
682.74	299.20
683.08	298.38
683.42	297.48
683.75	296.78
684.09	295.78
684.43	295.06
684.77	294.23
685.10	293.59
685.44	292.65
685.78	291.74
686.12	291.06
686.45	290.23
686.79	289.43
687.13	288.63
687.46	287.93
687.80	287.29
688.14	286.40
688.48	285.68
688.81	284.87
689.15	284.16
689.49	283.34
689.82	282.60
690.16	281.68
690.50	280.96
690.83	280.08
691.17	279.29
691.51	278.58
691.84	277.90
692.18	277.18
692.52	276.57
692.85	275.96
693.19	275.37
693.52	274.69
693.86	274.04
694.20	273.48
694.53	272.85
694.87	272.10
695.21	271.44
695.54	270.73
695.88	270.05
696.21	269.30
696.55	268.79
696.88	268.11
697.22	267.51
697.56	267.03
697.89	266.41
698.23	265.98
698.56	265.39
698.90	264.89
699.23	264.18
699.57	263.59
699.90	262.98
700.24	262.28
700.58	261.79
700.91	261.27
701.25	260.86
701.58	260.34
701.92	259.82
702.25	259.29
702.59	258.80
702.92	258.32
703.26	257.87
703.59	257.47
703.93	257.33
704.26	256.95
704.60	256.45
704.93	255.98
705.26	255.42
705.60	254.98
705.93	254.48
706.27	254.24
706.60	253.87
706.94	253.55
707.27	253.09
707.61	252.64
707.94	252.20
708.27	251.54
708.61	251.00
708.94	250.57
709.28	250.13
709.61	249.71
709.94	249.33
710.28	248.96
710.61	248.54
710.95	247.86
711.28	247.67
711.61	247.22
711.95	246.92
712.28	246.51
712.61	246.16
712.95	246.02
713.28	245.62
713.61	245.21
713.95	244.82
714.28	244.58
714.61	244.19
714.95	243.84
715.28	243.49
715.61	243.19
715.95	242.90
716.28	242.57
716.61	242.27
716.95	241.86
717.28	241.51
717.61	241.10
717.94	240.88
718.28	240.30
718.61	239.98
718.94	239.61
719.27	239.34
719.61	239.01
719.94	238.52
720.27	238.14
720.60	237.82
720.94	237.46
721.27	237.20
721.60	237.00
721.93	236.76
722.27	236.60
722.60	236.46
722.93	236.18
723.26	236.05
723.59	235.78
723.93	235.70
724.26	235.45
724.59	235.28
724.92	234.98
725.25	234.88
725.59	234.64
725.92	234.50
726.25	234.20
726.58	233.99
726.91	233.88
727.24	233.76
727.57	233.55
727.91	233.29
728.24	233.05
728.57	232.86
728.90	232.68
729.23	232.37
729.56	232.24
729.89	232.08
730.22	231.72
730.55	231.48
730.89	231.19
731.22	231.00
731.55	230.70
731.88	230.53
732.21	230.28
732.54	230.04
732.87	229.81
733.20	229.71
733.53	229.61
733.86	229.45
734.19	229.14
734.52	229.01
734.85	229.08
735.18	228.88
735.51	228.75
735.84	228.57
736.17	228.44
736.50	228.06
736.83	228.24
737.16	228.18
737.49	228.03
737.82	227.87
738.15	227.72
738.48	227.66
738.81	227.47
739.14	227.32
739.47	227.20
739.80	227.09
740.13	226.95
740.46	226.67
740.79	226.42
741.12	226.31
741.45	226.16
741.78	225.85
742.11	225.75
742.44	225.46
742.77	225.39
743.10	225.22
743.43	225.09
743.75	224.53
744.08	224.80
744.41	224.65
744.74	224.47
745.07	224.30
745.40	224.18
745.73	224.28
746.06	224.12
746.39	223.94
746.71	223.77
747.04	223.66
747.37	223.55
747.70	223.55
748.03	223.45
748.36	223.38
748.68	223.24
749.01	223.04
749.34	222.95
749.67	222.88
750.00	222.78
750.33	222.95
750.65	222.93
750.98	222.43
751.31	222.34
751.64	222.25
751.97	222.32
752.29	222.19
752.62	221.85
752.95	221.74
753.28	221.68
753.60	221.58
753.93	221.51
754.26	221.46
754.59	221.22
754.91	221.09
755.24	220.94
755.57	220.79
755.90	220.72
756.22	220.64
756.55	220.42
756.88	220.26
757.20	219.93
757.53	219.78
757.86	219.64
758.19	219.61
758.51	219.59
758.84	219.35
759.17	219.25
759.49	219.21
759.82	219.31
760.15	219.30
760.47	219.22
760.80	219.04
761.13	218.98
761.45	218.83
761.78	218.79
762.11	218.75
762.43	218.66
762.76	218.58
763.08	218.57
763.41	218.53
763.74	218.57
764.06	218.54
764.39	218.49
764.71	218.43
765.04	218.24
765.37	218.11
765.69	218.00
766.02	217.94
766.34	217.78
766.67	217.49
767.00	217.45
767.32	217.55
767.65	217.74
767.97	217.72
768.30	217.68
768.62	217.65
768.95	217.52
769.27	217.52
769.60	217.49
769.92	217.38
770.25	217.27
770.57	217.14
770.90	217.02
771.22	216.85
771.55	216.74
771.87	216.69
772.20	216.63
772.52	216.87
772.85	217.25
773.17	217.24
773.50	217.26
773.82	217.15
774.15	216.90
774.47	216.60
774.80	216.45
775.12	216.38
775.45	216.27
775.77	216.21
776.09	216.21
776.42	216.20
776.74	216.22
777.07	216.09
777.39	216.07
777.72	216.01
778.04	216.07
778.36	216.00
778.69	216.02
779.01	215.98
779.33	215.60
779.66	215.10
779.98	214.99
780.31	214.99
780.63	215.06
780.95	215.10
781.28	215.05
781.60	214.99
781.92	215.01
782.25	214.98
782.57	214.97
782.89	214.88
783.22	214.74
783.54	214.64
783.86	214.70
784.19	214.60
784.51	214.69
784.83	214.67
785.16	214.66
785.48	214.64
785.80	214.61
786.12	214.65
786.45	214.59
786.77	214.61
787.09	214.52
787.42	214.36
787.74	214.40
788.06	214.43
788.38	214.36
788.71	214.30
789.03	214.22
789.35	214.22
789.67	214.12
789.99	214.19
790.32	214.11
790.64	214.07
790.96	214.35
791.28	214.20
791.61	214.09
791.93	214.06
792.25	214.00
792.57	214.25
792.89	214.18
793.21	214.20
793.54	214.20
793.86	214.16
794.18	214.16
794.50	214.01
794.82	213.91
795.14	213.91
795.47	214.00
795.79	214.05
796.11	213.96
796.43	213.99
796.75	213.94
797.07	213.97
797.39	213.92
797.71	213.63
798.04	213.58
798.36	213.57
798.68	213.56
799.00	213.54
799.32	213.35
799.64	213.36
799.96	213.36
800.28	213.40
800.60	213.37
800.92	213.37
801.24	213.35
801.56	213.34
801.89	213.39
802.21	213.30
802.53	213.18
802.85	213.23
803.17	213.34
803.49	213.35
803.81	213.27
804.13	213.24
804.45	213.21
804.77	213.34
805.09	213.41
805.41	213.38
805.73	213.35
806.05	213.25
806.37	213.23
806.69	213.12
807.01	213.04
807.33	212.96
807.65	212.84
807.97	213.00
808.28	212.97
808.60	212.95
808.92	212.89
809.24	213.14
809.56	213.04
809.88	212.89
810.20	212.81
810.52	212.88
810.84	212.93
811.16	212.83
811.48	212.70
811.80	212.71
812.12	212.65
812.43	212.71
812.75	212.61
813.07	212.58
813.39	212.69
813.71	212.67
814.03	212.69
814.35	212.72
814.67	212.58
814.98	212.55
815.30	212.47
815.62	212.43
815.94	212.16
816.26	212.10
816.58	212.05
816.89	212.05
817.21	211.93
817.53	211.86
817.85	211.95
818.17	211.92
818.48	211.80
818.80	211.85
819.12	211.76
819.44	211.73
819.76	211.72
820.07	211.68
820.39	211.65
820.71	211.71
821.03	211.69
821.34	211.65
821.66	211.68
821.98	211.78
822.30	211.77
822.61	212.05
822.93	212.10
823.25	212.05
823.57	212.04
823.88	212.13
824.20	212.11
824.52	212.06
824.83	212.06
825.15	212.04
825.47	212.02
825.79	212.05
826.10	212.02
826.42	211.97
826.74	211.93
827.05	211.93
827.37	211.92
827.69	211.88
828.00	211.90
828.32	211.86
828.64	211.78
828.95	211.92
829.27	211.79
829.58	211.76
829.90	211.83
830.22	211.80
830.53	211.75
830.85	211.74
831.17	211.72
831.48	211.76
831.80	211.78
832.11	211.75
832.43	211.66
832.75	211.77
833.06	212.09
833.38	212.05
833.69	212.07
834.01	212.07
834.32	212.11
834.64	212.06
834.96	212.11
835.27	212.10
835.59	212.05
835.90	211.94
836.22	211.95
836.53	211.93
836.85	211.93
837.16	212.15
837.48	212.16
837.79	212.28
838.11	212.24
838.42	212.25
838.74	212.40
839.05	212.43
839.37	212.34
839.68	212.06
840.00	212.06
840.31	212.06
840.63	212.07
840.94	212.01
841.26	211.97
841.57	211.93
841.88	212.00
842.20	211.92
842.51	211.87
842.83	211.87
843.14	212.18
843.46	212.23
843.77	212.04
844.08	212.05
844.40	211.90
844.71	211.90
845.03	211.85
845.34	211.74
845.65	211.68
845.97	211.73
846.28	211.69
846.60	211.71
846.91	211.59
847.22	211.55
847.54	211.63
847.85	211.65
848.16	211.68
848.48	211.56
848.79	211.69
849.10	211.79
849.42	211.79
849.73	211.45
850.04	211.40
850.36	211.37
850.67	211.35
850.98	211.38
851.30	211.42
851.61	211.33
851.92	211.34
852.23	211.42
852.55	211.46
852.86	211.48
853.17	211.45
853.49	211.53
853.80	211.52
854.11	211.50
854.42	211.55
854.74	211.42
855.05	211.46
855.36	211.24
855.67	211.16
855.99	211.16
856.30	211.55
856.61	211.48
856.92	211.43
857.23	211.49
857.55	211.44
857.86	211.38
858.17	211.45
858.48	211.34
858.79	211.37
859.11	211.34
859.42	211.28
859.73	211.22
860.04	211.21
860.35	211.13
860.66	211.04
860.98	211.00
861.29	211.11
861.60	211.07
861.91	211.18
862.22	211.18
862.53	211.11
862.84	210.68
863.16	210.83
863.47	210.77
863.78	210.70
864.09	210.75
864.40	210.82
864.71	210.88
865.02	210.91
865.33	210.78
865.64	210.69
865.95	210.77
866.27	210.96
866.58	210.95
866.89	211.07
867.20	211.05
867.51	211.01
867.82	210.94
868.13	211.04
868.44	210.96
868.75	211.02
869.06	210.99
869.37	211.03
869.68	210.95
869.99	211.09
870.30	211.12
870.61	211.07
870.92	210.98
871.23	210.96
871.54	211.04
871.85	211.15
872.16	211.19
872.47	211.14
872.78	211.06
873.09	211.06
873.40	210.99
873.71	211.05
874.02	211.07
874.33	211.05
874.64	210.97
874.95	211.05
875.26	210.98
875.56	211.02
875.87	211.01
876.18	210.93
876.49	211.26
876.80	211.26
877.11	211.21
877.42	211.25
877.73	211.25
878.04	211.18
878.35	211.24
878.66	211.31
878.96	211.27
879.27	211.18
879.58	211.22
879.89	211.19
880.20	211.30
880.51	211.26
880.82	211.30
881.12	211.35
881.43	211.30
881.74	211.27
882.05	211.29
882.36	211.26
882.67	211.30
882.97	210.86
883.28	210.88
883.59	211.00
883.90	211.02
884.21	211.08
884.51	211.08
884.82	211.00
885.13	210.98
885.44	211.03
885.74	211.05
886.05	211.00
886.36	211.00
886.67	210.85
886.98	211.02
887.28	211.04
887.59	211.03
887.90	211.03
888.20	211.05
888.51	211.07
888.82	211.08
889.13	211.16
889.43	211.47
889.74	211.40
890.05	211.32
890.35	211.24
890.66	211.22
890.97	211.23
891.28	211.21
891.58	211.20
891.89	211.22
892.20	211.20
892.50	211.18
892.81	211.16
893.12	211.21
893.42	211.08
893.73	211.10
894.04	211.14
894.34	211.12
894.65	211.08
894.95	211.09
895.26	211.12
895.57	211.24
895.87	210.93
896.18	210.99
896.48	211.03
896.79	211.05
897.10	211.03
897.40	211.01
897.71	211.07
898.01	211.03
898.32	211.06
898.63	211.02
898.93	211.02
899.24	211.00
899.54	211.10
899.85	211.15
900.15	211.09
900.46	211.12
900.76	211.19
901.07	211.16
901.38	211.17
901.68	211.24
901.99	211.02
902.29	211.03
902.60	210.96
902.90	210.95
903.21	210.92
903.51	210.89
903.82	210.98
904.12	210.96
904.43	211.05
904.73	210.98
905.03	211.07
905.34	211.38
905.64	211.39
905.95	211.22
906.25	211.15
906.56	211.07
906.86	210.95
907.17	210.84
907.47	210.92
907.77	210.86
908.08	210.75
908.38	210.80
908.69	210.81
908.99	210.90
909.30	210.95
909.60	211.02
909.90	211.00
910.21	210.91
910.51	210.84
910.81	210.75
911.12	210.78
911.42	210.75
911.73	210.48
912.03	210.47
912.33	210.57
912.64	210.60
912.94	210.61
913.24	210.61
913.55	210.62
913.85	210.62
914.15	210.71
914.46	210.76
914.76	210.78
915.06	210.84
915.37	210.74
915.67	210.76
915.97	210.75
916.27	210.67
916.58	210.72
916.88	210.75
917.18	210.76
917.49	210.98
917.79	210.94
918.09	210.96
918.39	211.15
918.70	211.13
919.00	211.14
919.30	211.35
919.60	211.36
919.91	211.31
920.21	211.25
920.51	211.17
920.81	211.14
921.12	211.15
921.42	211.11
921.72	211.25
922.02	211.20
922.32	211.22
922.63	211.28
922.93	211.49
923.23	211.52
923.53	211.52
923.83	211.32
924.13	211.36
924.44	211.39
924.74	211.39
925.04	211.50
925.34	211.49
925.64	211.38
925.94	211.35
926.24	211.58
926.55	211.61
926.85	211.66
927.15	211.61
927.45	211.62
927.75	211.60
928.05	211.49
928.35	211.43
928.65	211.56
928.95	211.58
929.26	211.35
929.56	211.35
929.86	211.41
930.16	211.41
930.46	211.38
930.76	211.41
931.06	211.24
931.36	211.08
931.66	211.03
931.96	211.08
932.26	211.11
932.56	211.04
932.86	211.08
933.16	211.06
933.46	211.07
933.76	211.00
934.06	211.07
934.36	211.22
934.66	211.28
934.96	211.14
935.26	211.18
935.56	211.23
935.86	211.11
936.16	210.95
936.46	210.92
936.76	210.98
937.06	210.78
937.36	210.81
937.66	210.82
937.96	210.90
938.26	210.76
938.56	210.73
938.86	210.71
939.16	210.71
939.46	210.75
939.76	210.79
940.06	210.85
940.35	210.85
940.65	210.70
940.95	210.70
941.25	210.69
941.55	210.58
941.85	210.59
942.15	210.70
942.45	210.90
942.75	210.93
943.04	210.90
943.34	211.05
943.64	210.99
943.94	210.91
944.24	210.92
944.54	210.97
944.84	210.96
945.13	210.84
945.43	210.89
945.73	210.80
946.03	210.77
946.33	210.68
946.62	210.60
946.92	210.60
947.22	210.63
947.52	210.60
947.82	210.72
948.11	210.67
948.41	210.62
948.71	210.49
949.01	210.47
949.31	210.41
949.60	210.45
949.90	210.61
950.20	210.62
950.50	210.53
950.79	210.42
951.09	210.47
951.39	210.50
951.69	210.39
951.98	210.56
952.28	210.56
952.58	210.66
952.87	210.63
953.17	210.73
953.47	210.66
953.76	210.67
954.06	210.60
954.36	210.56
954.66	210.52
954.95	210.67
955.25	210.66
955.55	210.76
955.84	210.67
956.14	210.62
956.44	210.71
956.73	210.75
957.03	210.77
957.32	210.81
957.62	210.79
957.92	210.89
958.21	210.79
958.51	211.20
958.81	211.24
959.10	211.35
959.40	211.38
959.69	211.44
959.99	211.56
960.29	211.53
960.58	211.56
960.88	211.68
961.17	211.62
961.47	211.65
961.76	211.59
962.06	211.66
962.36	211.61
962.65	211.57
962.95	211.60
963.24	211.67
963.54	211.73
963.83	211.78
964.13	211.79
964.42	211.74
964.72	211.44
965.01	211.38
965.31	211.27
965.60	211.10
965.90	211.29
966.19	211.17
966.49	211.24
966.78	211.20
967.08	211.28
967.37	211.26
967.67	211.24
967.96	211.32
968.26	211.33
968.55	211.43
968.85	211.42
969.14	211.43
969.43	211.45
969.73	211.39
970.02	211.34
970.32	211.35
970.61	211.32
970.91	211.22
971.20	211.13
971.49	211.30
971.79	211.41
972.08	211.17
972.38	211.26
972.67	211.20
972.96	211.25
973.26	211.14
973.55	211.23
973.85	211.30
974.14	211.25
974.43	211.24
974.73	211.11
975.02	211.10
975.31	211.09
975.61	211.04
975.90	211.03
976.19	211.05
976.49	210.96
976.78	211.08
977.07	211.12
977.37	211.20
977.66	211.18
977.95	211.17
978.24	211.22
978.54	211.21
978.83	211.23
979.12	211.21
979.42	211.29
979.71	211.26
980.00	211.24
980.29	211.22
980.59	211.21
980.88	211.32
981.17	211.25
981.46	211.22
981.76	211.24
982.05	211.36
982.34	211.40
982.63	211.49
982.93	211.43
983.22	211.54
983.51	211.57
983.80	211.59
984.09	211.59
984.39	211.50
984.68	211.47
984.97	211.45
985.26	211.38
985.55	211.30
985.85	211.21
986.14	211.22
986.43	211.25
986.72	211.23
987.01	211.19
987.30	211.19
987.59	211.15
987.89	211.19
988.18	211.02
988.47	210.95
988.76	210.89
989.05	210.90
989.34	210.74
989.63	210.81
989.92	210.72
990.22	210.71
990.51	210.71
990.80	210.65
991.09	210.74
991.38	210.82
991.67	210.81
991.96	210.77
992.25	210.74
992.54	210.70
992.83	210.72
993.12	210.66
993.41	210.79
993.70	210.97
993.99	210.98
994.28	211.10
994.58	211.24
994.87	211.23
995.16	211.17
995.45	211.21
995.74	211.06
996.03	211.15
996.32	211.19
996.61	211.37
996.90	211.34
997.19	211.24
997.48	211.22
997.77	211.21
998.06	211.21
998.34	211.22
998.63	211.22
998.92	211.10
999.21	211.21
999.50	211.21
999.79	210.98
1000.08	210.95
1000.37	210.94
1000.66	210.83
1000.95	210.91
1001.24	210.89
1001.53	210.88
1001.82	210.88
1002.11	210.75
1002.40	210.76
1002.68	210.75
1002.97	211.00
1003.26	210.99
1003.55	210.98
1003.84	210.98
1004.13	211.12
1004.42	211.07
1004.71	211.02
1004.99	211.09
1005.28	211.08
1005.57	210.97
1005.86	211.02
1006.15	210.95
1006.44	210.87
1006.72	210.89
1007.01	210.85
1007.30	210.92
1007.59	210.90
1007.88	210.87
1008.17	210.89
1008.45	210.73
1008.74	210.63
1009.03	210.47
1009.32	210.50
1009.60	210.48
1009.89	210.41
1010.18	210.20
1010.47	210.16
1010.76	210.17
1011.04	210.14
1011.33	210.50
1011.62	210.58
1011.91	210.64
1012.19	210.77
1012.48	210.76
1012.77	210.70
1013.05	210.87
1013.34	210.82
1013.63	210.75
1013.92	210.82
1014.20	210.78
1014.49	210.85
1014.78	210.87
1015.06	210.81
1015.35	210.82
1015.64	210.93
1015.92	211.01
1016.21	211.15
1016.50	211.19
1016.78	211.28
1017.07	211.30
1017.36	210.86
1017.64	210.84
1017.93	210.89
1018.22	210.78
1018.50	210.79
1018.79	210.88
1019.08	210.74
1019.36	210.75
1019.65	210.76
1019.93	210.84
1020.22	210.92
1020.51	211.12
1020.79	211.10
1021.08	209.60
1021.36	210.05
1021.65	211.45
1021.94	212.25
1022.22	210.05
1022.51	209.70
1022.79	212.30
1023.08	211.45
1023.36	215.30
1023.65	210.45
>>>>>End Processed Spectral Data<<<<<
