SpectraSuite Data File
++++++++++++++++++++++++++++++++++++
Date: Mon Feb 25 17:17:16 EST 2013
User: group
Dark Spectrum Present: No
Reference Spectrum Present: No
Number of Sampled Component Spectra: 1
Spectrometers: USB2E7196
Integration Time (usec): 104000 (USB2E7196)
Spectra Averaged: 20 (USB2E7196)
Boxcar Smoothing: 10 (USB2E7196)
Correct for Electrical Dark: No (USB2E7196)
Strobe/Lamp Enabled: No (USB2E7196)
Correct for Detector Non-linearity: No (USB2E7196)
Correct for Stray Light: No (USB2E7196)
Number of Pixels in Processed Spectrum: 2048
>>>>>Begin Processed Spectral Data<<<<<
339.09	0.00
339.48	199.30
339.86	200.75
340.24	202.75
340.63	204.05
341.01	210.00
341.39	206.10
341.78	207.20
342.16	209.85
342.54	208.15
342.93	198.49
343.31	208.50
343.69	209.01
344.07	209.48
344.46	209.90
344.84	210.20
345.22	210.25
345.60	210.51
345.99	210.74
346.37	210.86
346.75	210.95
347.13	211.06
347.52	211.14
347.90	211.34
348.28	211.34
348.66	211.41
349.05	211.34
349.43	211.40
349.81	211.52
350.19	211.54
350.57	211.72
350.96	211.81
351.34	211.88
351.72	212.01
352.10	212.09
352.48	212.06
352.87	212.16
353.25	212.19
353.63	212.23
354.01	212.24
354.39	212.27
354.77	212.44
355.15	212.60
355.54	212.64
355.92	212.52
356.30	212.66
356.68	212.95
357.06	213.07
357.44	213.12
357.82	213.13
358.20	213.22
358.58	213.25
358.97	213.28
359.35	213.39
359.73	213.54
360.11	213.53
360.49	213.68
360.87	213.75
361.25	213.88
361.63	214.13
362.01	214.22
362.39	214.19
362.77	214.24
363.15	214.29
363.53	214.35
363.91	214.41
364.29	214.40
364.67	214.07
365.05	214.09
365.43	214.09
365.81	214.22
366.19	214.38
366.57	214.48
366.95	214.47
367.33	214.37
367.71	214.31
368.09	214.40
368.47	214.41
368.85	214.41
369.23	214.49
369.61	214.24
369.99	214.39
370.37	214.50
370.75	214.61
371.13	214.57
371.51	214.54
371.89	214.55
372.27	214.58
372.65	214.69
373.03	214.66
373.41	214.69
373.78	214.65
374.16	214.48
374.54	214.40
374.92	214.33
375.30	214.35
375.68	214.25
376.06	214.24
376.44	214.17
376.82	214.16
377.19	214.09
377.57	214.04
377.95	213.79
378.33	213.72
378.71	213.47
379.09	213.42
379.47	213.41
379.84	213.40
380.22	213.30
380.60	213.14
380.98	213.05
381.36	213.04
381.73	212.93
382.11	212.94
382.49	212.98
382.87	212.93
383.25	212.93
383.62	213.35
384.00	213.23
384.38	213.17
384.76	213.23
385.13	213.30
385.51	213.31
385.89	213.34
386.27	213.31
386.64	213.33
387.02	213.27
387.40	213.25
387.78	213.16
388.15	213.15
388.53	213.12
388.91	213.10
389.29	213.03
389.66	213.05
390.04	212.97
390.42	212.95
390.79	212.97
391.17	212.93
391.55	212.47
391.92	212.49
392.30	212.58
392.68	212.47
393.05	212.38
393.43	212.36
393.81	212.35
394.18	212.28
394.56	212.24
394.94	212.29
395.31	212.23
395.69	212.39
396.06	212.50
396.44	212.50
396.82	212.48
397.19	212.65
397.57	212.59
397.95	212.65
398.32	212.52
398.70	212.56
399.07	212.66
399.45	212.73
399.82	212.75
400.20	212.70
400.58	212.68
400.95	212.67
401.33	212.84
401.70	213.09
402.08	213.16
402.45	213.28
402.83	213.46
403.20	213.50
403.58	213.49
403.95	213.56
404.33	213.71
404.71	213.89
405.08	214.10
405.46	214.26
405.83	214.40
406.21	214.51
406.58	214.70
406.96	214.86
407.33	215.01
407.70	215.16
408.08	215.63
408.45	215.93
408.83	216.20
409.20	216.38
409.58	216.46
409.95	216.86
410.33	217.22
410.70	217.36
411.08	217.78
411.45	218.15
411.82	218.57
412.20	219.05
412.57	219.64
412.95	219.85
413.32	220.43
413.69	221.03
414.07	221.72
414.44	222.31
414.82	222.98
415.19	223.85
415.56	224.70
415.94	225.40
416.31	226.33
416.68	227.20
417.06	228.26
417.43	229.33
417.81	230.53
418.18	231.67
418.55	233.05
418.93	234.43
419.30	235.89
419.67	237.40
420.04	238.88
420.42	240.40
420.79	242.53
421.16	244.35
421.54	246.40
421.91	248.41
422.28	250.48
422.66	252.65
423.03	254.88
423.40	257.11
423.77	259.42
424.15	261.85
424.52	264.37
424.89	267.05
425.26	269.74
425.64	272.16
426.01	274.99
426.38	277.76
426.75	280.69
427.13	283.62
427.50	286.79
427.87	290.19
428.24	293.48
428.61	296.47
428.99	300.00
429.36	303.68
429.73	307.39
430.10	311.05
430.47	314.89
430.85	318.67
431.22	322.82
431.59	327.39
431.96	331.47
432.33	336.10
432.70	340.63
433.08	345.76
433.45	350.62
433.82	355.56
434.19	361.01
434.56	366.43
434.93	371.47
435.30	376.51
435.68	382.01
436.05	387.57
436.42	393.07
436.79	398.01
437.16	403.30
437.53	408.95
437.90	414.62
438.27	420.11
438.64	425.95
439.01	431.30
439.38	435.98
439.75	440.65
440.13	445.83
440.50	450.72
440.87	454.64
441.24	458.83
441.61	463.27
441.98	466.55
442.35	470.25
442.72	474.23
443.09	478.13
443.46	480.35
443.83	481.76
444.20	483.14
444.57	485.04
444.94	485.80
445.31	486.63
445.68	487.74
446.05	487.94
446.42	487.17
446.79	486.43
447.16	485.44
447.53	484.70
447.90	482.50
448.27	480.25
448.64	477.26
449.01	475.08
449.37	471.28
449.74	467.60
450.11	463.47
450.48	458.76
450.85	453.70
451.22	449.49
451.59	445.58
451.96	441.64
452.33	436.58
452.70	432.10
453.07	426.59
453.43	420.81
453.80	415.53
454.17	410.44
454.54	405.55
454.91	400.40
455.28	395.39
455.65	390.70
456.02	386.47
456.38	382.53
456.75	377.55
457.12	373.49
457.49	369.52
457.86	365.37
458.23	362.02
458.59	358.31
458.96	354.59
459.33	351.21
459.70	347.85
460.07	345.17
460.43	342.10
460.80	339.23
461.17	336.69
461.54	334.09
461.91	331.61
462.27	329.10
462.64	326.98
463.01	324.63
463.38	322.48
463.74	319.77
464.11	317.74
464.48	316.04
464.85	314.11
465.21	312.67
465.58	311.12
465.95	309.28
466.32	307.87
466.68	306.30
467.05	304.90
467.42	303.57
467.78	302.00
468.15	300.57
468.52	299.63
468.88	298.26
469.25	296.98
469.62	296.06
469.98	295.01
470.35	294.05
470.72	293.17
471.08	292.10
471.45	291.37
471.82	290.59
472.18	289.70
472.55	289.12
472.92	288.35
473.28	287.76
473.65	287.02
474.02	286.49
474.38	286.24
474.75	285.95
475.11	285.50
475.48	285.33
475.85	285.18
476.21	285.06
476.58	284.97
476.94	285.05
477.31	285.01
477.67	285.03
478.04	285.03
478.41	285.20
478.77	285.70
479.14	285.86
479.50	286.20
479.87	286.59
480.23	286.93
480.60	287.29
480.96	287.69
481.33	288.48
481.69	289.05
482.06	289.71
482.42	290.26
482.79	291.04
483.15	291.86
483.52	292.90
483.88	293.80
484.25	294.79
484.61	295.85
484.98	296.95
485.34	298.37
485.71	299.83
486.07	301.40
486.44	302.71
486.80	304.34
487.17	305.99
487.53	307.97
487.90	310.12
488.26	312.45
488.62	314.88
488.99	317.10
489.35	319.53
489.72	322.13
490.08	325.04
490.44	327.90
490.81	331.00
491.17	334.12
491.54	337.60
491.90	341.25
492.26	345.02
492.63	349.02
492.99	353.05
493.36	357.42
493.72	361.94
494.08	366.60
494.45	371.70
494.81	377.06
495.17	382.41
495.54	388.15
495.90	394.07
496.26	400.18
496.63	406.81
496.99	413.67
497.35	420.68
497.72	427.86
498.08	435.37
498.44	443.16
498.80	451.56
499.17	459.99
499.53	468.78
499.89	477.98
500.26	487.33
500.62	496.94
500.98	507.09
501.34	517.43
501.71	528.35
502.07	539.27
502.43	550.47
502.79	562.06
503.16	574.03
503.52	586.35
503.88	599.21
504.24	612.19
504.60	625.62
504.97	639.48
505.33	653.56
505.69	668.68
506.05	683.96
506.41	699.22
506.78	714.91
507.14	730.93
507.50	747.33
507.86	764.21
508.22	781.41
508.59	798.76
508.95	816.63
509.31	834.87
509.67	853.67
510.03	872.88
510.39	892.53
510.75	912.32
511.12	932.26
511.48	952.58
511.84	973.38
512.20	994.01
512.56	1015.44
512.92	1037.38
513.28	1059.13
513.64	1081.06
514.00	1103.14
514.37	1125.28
514.73	1148.34
515.09	1171.43
515.45	1194.46
515.81	1217.68
516.17	1241.25
516.53	1264.82
516.89	1288.58
517.25	1312.41
517.61	1336.03
517.97	1359.83
518.33	1383.63
518.69	1407.83
519.05	1432.02
519.41	1456.33
519.77	1481.50
520.13	1505.77
520.49	1529.44
520.85	1553.81
521.21	1578.40
521.57	1603.06
521.93	1627.30
522.29	1651.87
522.65	1676.41
523.01	1700.69
523.37	1724.37
523.73	1748.15
524.09	1771.99
524.45	1795.90
524.81	1819.58
525.17	1843.94
525.53	1867.79
525.89	1891.64
526.25	1914.87
526.61	1937.46
526.97	1960.34
527.33	1982.54
527.68	2005.65
528.04	2028.00
528.40	2049.27
528.76	2070.87
529.12	2092.85
529.48	2115.46
529.84	2137.17
530.20	2158.44
530.56	2179.87
530.91	2202.32
531.27	2224.10
531.63	2244.99
531.99	2265.35
532.35	2285.42
532.71	2304.73
533.07	2325.16
533.42	2344.40
533.78	2364.00
534.14	2382.97
534.50	2400.86
534.86	2419.84
535.21	2436.80
535.57	2455.30
535.93	2473.14
536.29	2490.14
536.65	2507.15
537.00	2522.69
537.36	2537.66
537.72	2552.54
538.08	2567.24
538.44	2582.02
538.79	2596.20
539.15	2610.99
539.51	2625.51
539.87	2640.54
540.22	2654.68
540.58	2668.35
540.94	2681.73
541.29	2693.91
541.65	2705.75
542.01	2717.87
542.37	2728.80
542.72	2740.64
543.08	2750.78
543.44	2762.03
543.79	2772.00
544.15	2781.07
544.51	2791.13
544.87	2801.36
545.22	2810.65
545.58	2818.93
545.94	2825.51
546.29	2832.30
546.65	2838.55
547.01	2844.51
547.36	2849.86
547.72	2855.23
548.07	2859.15
548.43	2863.16
548.79	2867.12
549.14	2871.62
549.50	2875.66
549.86	2878.59
550.21	2881.06
550.57	2884.61
550.92	2885.96
551.28	2887.51
551.64	2889.73
551.99	2891.79
552.35	2892.41
552.70	2893.35
553.06	2895.02
553.41	2896.50
553.77	2897.49
554.13	2898.05
554.48	2898.87
554.84	2899.25
555.19	2898.64
555.55	2897.80
555.90	2896.76
556.26	2895.66
556.61	2894.12
556.97	2891.73
557.32	2890.59
557.68	2888.13
558.03	2885.52
558.39	2883.73
558.74	2882.91
559.10	2880.90
559.45	2878.05
559.81	2875.98
560.16	2872.84
560.52	2869.81
560.87	2866.40
561.23	2862.55
561.58	2859.39
561.94	2854.87
562.29	2849.70
562.64	2845.94
563.00	2842.66
563.35	2839.73
563.71	2837.26
564.06	2833.63
564.42	2830.78
564.77	2827.39
565.12	2824.44
565.48	2820.52
565.83	2816.57
566.19	2812.42
566.54	2807.18
566.89	2802.10
567.25	2797.13
567.60	2792.95
567.96	2787.69
568.31	2782.93
568.66	2777.50
569.02	2771.64
569.37	2765.82
569.72	2760.84
570.08	2754.89
570.43	2748.39
570.78	2741.15
571.14	2733.43
571.49	2726.58
571.84	2720.16
572.20	2712.33
572.55	2705.19
572.90	2697.19
573.26	2688.90
573.61	2680.44
573.96	2672.48
574.31	2663.78
574.67	2654.62
575.02	2645.03
575.37	2635.85
575.72	2626.11
576.08	2617.83
576.43	2608.57
576.78	2599.63
577.13	2591.17
577.49	2582.53
577.84	2573.62
578.19	2565.52
578.54	2557.67
578.90	2549.78
579.25	2540.38
579.60	2530.96
579.95	2521.45
580.30	2513.13
580.66	2505.07
581.01	2495.55
581.36	2486.18
581.71	2477.14
582.06	2468.30
582.42	2459.63
582.77	2450.22
583.12	2441.25
583.47	2432.54
583.82	2424.45
584.17	2415.78
584.53	2406.78
584.88	2398.08
585.23	2389.01
585.58	2379.91
585.93	2370.30
586.28	2361.11
586.63	2351.89
586.98	2343.18
587.34	2335.03
587.69	2325.95
588.04	2316.75
588.39	2308.54
588.74	2299.48
589.09	2291.61
589.44	2282.77
589.79	2274.38
590.14	2266.47
590.49	2258.01
590.84	2249.26
591.19	2241.19
591.54	2232.60
591.89	2222.46
592.25	2213.08
592.60	2203.65
592.95	2193.86
593.30	2183.93
593.65	2174.29
594.00	2165.09
594.35	2157.66
594.70	2148.27
595.05	2139.64
595.40	2130.88
595.75	2121.19
596.10	2113.25
596.45	2104.44
596.80	2096.67
597.15	2088.54
597.50	2079.52
597.85	2071.34
598.19	2062.65
598.54	2053.77
598.89	2046.00
599.24	2039.42
599.59	2031.83
599.94	2025.28
600.29	2017.89
600.64	2010.52
600.99	2002.37
601.34	1994.95
601.69	1985.43
602.04	1977.02
602.39	1968.89
602.74	1960.99
603.08	1954.39
603.43	1947.19
603.78	1939.50
604.13	1931.53
604.48	1923.55
604.83	1917.30
605.18	1910.85
605.53	1903.26
605.87	1895.04
606.22	1887.26
606.57	1879.06
606.92	1871.20
607.27	1862.79
607.62	1854.90
607.96	1847.67
608.31	1840.89
608.66	1832.91
609.01	1825.08
609.36	1817.22
609.70	1808.82
610.05	1800.41
610.40	1791.98
610.75	1783.04
611.10	1775.05
611.44	1765.37
611.79	1756.23
612.14	1746.33
612.49	1736.31
612.83	1727.28
613.18	1718.04
613.53	1708.58
613.88	1698.95
614.22	1690.10
614.57	1680.63
614.92	1671.59
615.27	1662.15
615.61	1652.44
615.96	1643.66
616.31	1635.24
616.65	1627.16
617.00	1618.88
617.35	1610.28
617.70	1601.01
618.04	1591.37
618.39	1581.54
618.74	1573.38
619.08	1564.61
619.43	1556.00
619.78	1547.28
620.12	1538.70
620.47	1530.45
620.82	1521.29
621.16	1512.22
621.51	1503.03
621.85	1494.65
622.20	1485.67
622.55	1476.67
622.89	1467.99
623.24	1459.23
623.59	1449.95
623.93	1440.95
624.28	1432.23
624.62	1423.66
624.97	1415.19
625.32	1407.54
625.66	1399.73
626.01	1391.39
626.35	1383.47
626.70	1375.27
627.04	1367.64
627.39	1359.76
627.73	1351.69
628.08	1344.33
628.43	1336.45
628.77	1328.35
629.12	1320.02
629.46	1312.99
629.81	1305.46
630.15	1297.67
630.50	1289.65
630.84	1281.87
631.19	1273.94
631.53	1266.30
631.88	1258.11
632.22	1250.24
632.57	1242.39
632.91	1234.55
633.26	1226.89
633.60	1219.18
633.95	1212.00
634.29	1204.08
634.64	1196.78
634.98	1189.29
635.32	1181.89
635.67	1175.14
636.01	1168.20
636.36	1161.18
636.70	1153.90
637.05	1146.89
637.39	1139.95
637.73	1133.34
638.08	1127.09
638.42	1120.82
638.77	1114.09
639.11	1107.48
639.45	1100.80
639.80	1093.84
640.14	1086.78
640.49	1080.04
640.83	1073.23
641.17	1066.42
641.52	1059.49
641.86	1052.11
642.20	1045.26
642.55	1038.25
642.89	1031.14
643.23	1024.18
643.58	1017.56
643.92	1010.30
644.26	1003.51
644.61	996.67
644.95	989.65
645.29	982.80
645.64	975.57
645.98	968.63
646.32	962.21
646.66	955.52
647.01	948.98
647.35	942.71
647.69	935.77
648.04	929.35
648.38	922.56
648.72	916.21
649.06	909.96
649.41	903.45
649.75	896.84
650.09	890.58
650.43	884.17
650.78	877.64
651.12	871.28
651.46	864.80
651.80	858.65
652.14	852.65
652.49	846.25
652.83	839.96
653.17	833.47
653.51	827.05
653.85	821.03
654.20	814.84
654.54	808.58
654.88	802.80
655.22	796.53
655.56	790.50
655.90	784.50
656.25	778.52
656.59	772.59
656.93	767.05
657.27	761.28
657.61	755.30
657.95	749.71
658.29	744.12
658.64	738.91
658.98	733.22
659.32	727.32
659.66	721.85
660.00	716.32
660.34	711.00
660.68	705.57
661.02	700.03
661.36	694.75
661.70	689.65
662.05	684.70
662.39	679.98
662.73	675.07
663.07	670.18
663.41	665.41
663.75	660.64
664.09	655.70
664.43	650.82
664.77	646.24
665.11	641.27
665.45	636.80
665.79	632.03
666.13	627.51
666.47	622.95
666.81	618.43
667.15	614.05
667.49	610.00
667.83	605.86
668.17	601.72
668.51	597.92
668.85	593.91
669.19	589.86
669.53	585.67
669.87	581.52
670.21	577.55
670.55	573.42
670.89	569.88
671.23	566.26
671.57	562.59
671.91	558.88
672.25	555.35
672.58	551.71
672.92	548.03
673.26	544.52
673.60	541.27
673.94	537.95
674.28	534.63
674.62	531.28
674.96	527.97
675.30	524.76
675.64	521.30
675.97	517.95
676.31	514.81
676.65	511.67
676.99	508.87
677.33	505.76
677.67	502.70
678.01	499.25
678.34	496.10
678.68	493.09
679.02	490.00
679.36	487.11
679.70	484.01
680.04	481.10
680.37	478.05
680.71	475.04
681.05	472.20
681.39	469.40
681.73	466.51
682.06	463.73
682.40	460.97
682.74	458.38
683.08	455.61
683.42	452.74
683.75	450.12
684.09	447.27
684.43	444.60
684.77	441.85
685.10	439.29
685.44	436.51
685.78	433.90
686.12	431.56
686.45	429.03
686.79	426.58
687.13	424.20
687.46	421.95
687.80	419.69
688.14	417.08
688.48	414.80
688.81	412.41
689.15	410.02
689.49	407.57
689.82	405.20
690.16	402.73
690.50	400.33
690.83	397.99
691.17	395.73
691.51	393.48
691.84	391.47
692.18	389.32
692.52	387.45
692.85	385.47
693.19	383.32
693.52	381.23
693.86	379.12
694.20	377.08
694.53	375.06
694.87	372.99
695.21	371.08
695.54	368.99
695.88	366.91
696.21	364.92
696.55	363.13
696.88	361.20
697.22	359.49
697.56	357.90
697.89	356.12
698.23	354.25
698.56	352.59
698.90	350.92
699.23	349.23
699.57	347.42
699.90	345.60
700.24	343.95
700.58	342.36
700.91	340.89
701.25	339.54
701.58	338.09
701.92	336.57
702.25	335.10
702.59	333.50
702.92	332.09
703.26	330.62
703.59	329.19
703.93	328.03
704.26	326.71
704.60	325.16
704.93	323.64
705.26	322.31
705.60	320.95
705.93	319.55
706.27	318.35
706.60	317.15
706.94	316.11
707.27	314.76
707.61	313.53
707.94	312.23
708.27	310.67
708.61	309.30
708.94	308.02
709.28	306.83
709.61	305.75
709.94	304.69
710.28	303.67
710.61	302.62
710.95	301.23
711.28	300.37
711.61	299.32
711.95	298.40
712.28	297.31
712.61	296.28
712.95	295.52
713.28	294.57
713.61	293.57
713.95	292.48
714.28	291.59
714.61	290.56
714.95	289.69
715.28	288.81
715.61	287.88
715.95	287.03
716.28	286.03
716.61	285.08
716.95	284.17
717.28	283.28
717.61	282.34
717.94	281.45
718.28	280.37
718.61	279.52
718.94	278.63
719.27	277.88
719.61	277.17
719.94	276.14
720.27	275.23
720.60	274.38
720.94	273.70
721.27	272.95
721.60	272.35
721.93	271.62
722.27	270.96
722.60	270.39
722.93	269.70
723.26	269.20
723.59	268.62
723.93	267.93
724.26	267.36
724.59	266.64
724.92	266.08
725.25	265.50
725.59	264.95
725.92	264.44
726.25	263.87
726.58	263.25
726.91	262.75
727.24	262.20
727.57	261.67
727.91	260.97
728.24	260.56
728.57	259.85
728.90	259.37
729.23	258.85
729.56	258.47
729.89	257.94
730.22	257.34
730.55	256.70
730.89	256.21
731.22	255.61
731.55	255.18
731.88	254.70
732.21	254.14
732.54	253.56
732.87	253.00
733.20	252.50
733.53	252.04
733.86	251.54
734.19	251.09
734.52	250.75
734.85	250.64
735.18	250.05
735.51	249.80
735.84	249.29
736.17	248.90
736.50	248.23
736.83	248.26
737.16	247.80
737.49	247.47
737.82	247.09
738.15	246.73
738.48	246.30
738.81	245.83
739.14	245.50
739.47	245.09
739.80	244.79
740.13	244.49
740.46	244.08
740.79	243.64
741.12	243.20
741.45	242.71
741.78	242.08
742.11	241.89
742.44	241.44
742.77	241.19
743.10	240.80
743.43	240.43
743.75	239.65
744.08	239.83
744.41	239.43
744.74	239.07
745.07	238.65
745.40	238.42
745.73	238.38
746.06	238.03
746.39	237.79
746.71	237.43
747.04	237.03
747.37	236.72
747.70	236.55
748.03	236.42
748.36	236.16
748.68	235.88
749.01	235.45
749.34	235.17
749.67	234.90
750.00	234.67
750.33	234.75
750.65	234.61
750.98	233.94
751.31	233.72
751.64	233.47
751.97	233.52
752.29	233.29
752.62	232.83
752.95	232.55
753.28	232.28
753.60	232.09
753.93	231.98
754.26	231.78
754.59	231.47
754.91	231.20
755.24	231.08
755.57	230.91
755.90	230.68
756.22	230.49
756.55	230.22
756.88	230.00
757.20	229.50
757.53	229.17
757.86	228.91
758.19	228.76
758.51	228.54
758.84	228.16
759.17	227.92
759.49	227.70
759.82	227.69
760.15	227.49
760.47	227.26
760.80	226.99
761.13	226.86
761.45	226.65
761.78	226.43
762.11	226.20
762.43	226.03
762.76	225.91
763.08	225.80
763.41	225.65
763.74	225.46
764.06	225.27
764.39	225.10
764.71	224.96
765.04	224.76
765.37	224.60
765.69	224.35
766.02	224.15
766.34	223.96
766.67	223.65
767.00	223.61
767.32	223.67
767.65	223.73
767.97	223.54
768.30	223.40
768.62	223.27
768.95	223.13
769.27	222.97
769.60	222.87
769.92	222.68
770.25	222.53
770.57	222.39
770.90	222.28
771.22	222.17
771.55	222.14
771.87	222.01
772.20	221.92
772.52	222.12
772.85	222.49
773.17	222.50
773.50	222.40
773.82	222.27
774.15	221.97
774.47	221.63
774.80	221.47
775.12	221.36
775.45	221.26
775.77	221.12
776.09	220.99
776.42	220.92
776.74	220.99
777.07	220.83
777.39	220.76
777.72	220.63
778.04	220.53
778.36	220.30
778.69	220.23
779.01	220.19
779.33	219.83
779.66	219.37
779.98	219.27
780.31	219.21
780.63	219.25
780.95	219.26
781.28	219.20
781.60	219.12
781.92	219.11
782.25	218.91
782.57	218.89
782.89	218.88
783.22	218.70
783.54	218.52
783.86	218.50
784.19	218.39
784.51	218.41
784.83	218.32
785.16	218.23
785.48	218.20
785.80	218.10
786.12	218.05
786.45	217.95
786.77	217.91
787.09	217.82
787.42	217.61
787.74	217.54
788.06	217.49
788.38	217.49
788.71	217.34
789.03	217.39
789.35	217.33
789.67	217.19
789.99	217.20
790.32	217.03
790.64	217.00
790.96	217.19
791.28	217.01
791.61	216.96
791.93	216.98
792.25	216.88
792.57	217.10
792.89	217.02
793.21	216.98
793.54	216.90
793.86	216.81
794.18	216.85
794.50	216.72
794.82	216.65
795.14	216.61
795.47	216.66
795.79	216.59
796.11	216.45
796.43	216.38
796.75	216.35
797.07	216.34
797.39	216.31
797.71	216.11
798.04	216.09
798.36	216.07
798.68	215.94
799.00	215.95
799.32	215.62
799.64	215.59
799.96	215.57
800.28	215.55
800.60	215.46
800.92	215.44
801.24	215.42
801.56	215.42
801.89	215.31
802.21	215.31
802.53	215.25
802.85	215.30
803.17	215.49
803.49	215.39
803.81	215.38
804.13	215.27
804.45	215.13
804.77	215.16
805.09	215.09
805.41	215.07
805.73	215.05
806.05	214.98
806.37	214.98
806.69	214.83
807.01	214.78
807.33	214.84
807.65	214.65
807.97	214.75
808.28	214.75
808.60	214.70
808.92	214.65
809.24	214.85
809.56	214.69
809.88	214.50
810.20	214.57
810.52	214.57
810.84	214.54
811.16	214.50
811.48	214.40
811.80	214.50
812.12	214.49
812.43	214.50
812.75	214.50
813.07	214.40
813.39	214.49
813.71	214.39
814.03	214.36
814.35	214.38
814.67	214.26
814.98	214.21
815.30	214.29
815.62	214.20
815.94	213.95
816.26	214.06
816.58	213.97
816.89	213.94
817.21	213.81
817.53	213.79
817.85	213.79
818.17	213.80
818.48	213.69
818.80	213.73
819.12	213.67
819.44	213.59
819.76	213.58
820.07	213.54
820.39	213.59
820.71	213.58
821.03	213.55
821.34	213.43
821.66	213.45
821.98	213.35
822.30	213.33
822.61	213.53
822.93	213.44
823.25	213.44
823.57	213.35
823.88	213.48
824.20	213.52
824.52	213.57
824.83	213.56
825.15	213.50
825.47	213.49
825.79	213.41
826.10	213.44
826.42	213.43
826.74	213.45
827.05	213.43
827.37	213.41
827.69	213.39
828.00	213.43
828.32	213.43
828.64	213.43
828.95	213.56
829.27	213.41
829.58	213.34
829.90	213.33
830.22	213.35
830.53	213.22
830.85	213.11
831.17	213.02
831.48	212.98
831.80	213.00
832.11	212.97
832.43	212.92
832.75	212.85
833.06	213.03
833.38	212.91
833.69	212.85
834.01	212.85
834.32	212.76
834.64	212.72
834.96	212.72
835.27	212.72
835.59	212.65
835.90	212.61
836.22	212.74
836.53	212.66
836.85	212.63
837.16	213.01
837.48	213.03
837.79	213.17
838.11	213.20
838.42	213.17
838.74	213.14
839.05	213.14
839.37	213.21
839.68	213.02
840.00	213.00
840.31	213.03
840.63	212.98
840.94	213.00
841.26	212.99
841.57	212.94
841.88	212.94
842.20	212.84
842.51	212.76
842.83	212.73
843.14	213.04
843.46	213.03
843.77	212.82
844.08	212.81
844.40	212.65
844.71	212.60
845.03	212.51
845.34	212.54
845.65	212.53
845.97	212.50
846.28	212.46
846.60	212.48
846.91	212.44
847.22	212.42
847.54	212.48
847.85	212.53
848.16	212.58
848.48	212.51
848.79	212.68
849.10	212.79
849.42	212.77
849.73	212.46
850.04	212.37
850.36	212.24
850.67	212.34
850.98	212.38
851.30	212.38
851.61	212.40
851.92	212.38
852.23	212.46
852.55	212.45
852.86	212.50
853.17	212.51
853.49	212.57
853.80	212.61
854.11	212.64
854.42	212.61
854.74	212.52
855.05	212.55
855.36	212.28
855.67	212.27
855.99	212.27
856.30	212.70
856.61	212.78
856.92	212.77
857.23	212.67
857.55	212.61
857.86	212.55
858.17	212.65
858.48	212.53
858.79	212.44
859.11	212.48
859.42	212.42
859.73	212.40
860.04	212.34
860.35	212.26
860.66	212.14
860.98	212.16
861.29	212.15
861.60	212.15
861.91	212.33
862.22	212.21
862.53	212.10
862.84	211.66
863.16	211.68
863.47	211.61
863.78	211.61
864.09	211.61
864.40	211.71
864.71	211.67
865.02	211.71
865.33	211.73
865.64	211.63
865.95	211.65
866.27	211.82
866.58	211.88
866.89	211.92
867.20	211.91
867.51	211.88
867.82	211.89
868.13	211.90
868.44	211.74
868.75	211.81
869.06	211.84
869.37	211.89
869.68	211.83
869.99	211.81
870.30	211.82
870.61	211.90
870.92	211.83
871.23	211.77
871.54	211.74
871.85	211.85
872.16	211.88
872.47	211.83
872.78	211.69
873.09	211.64
873.40	211.62
873.71	211.70
874.02	211.69
874.33	211.63
874.64	211.64
874.95	211.67
875.26	211.64
875.56	211.69
875.87	211.64
876.18	211.64
876.49	212.07
876.80	212.09
877.11	212.00
877.42	212.00
877.73	212.05
878.04	212.09
878.35	212.04
878.66	212.20
878.96	212.15
879.27	212.09
879.58	212.09
879.89	212.05
880.20	212.13
880.51	212.07
880.82	212.06
881.12	212.04
881.43	212.02
881.74	212.00
882.05	211.90
882.36	211.94
882.67	212.00
882.97	211.61
883.28	211.50
883.59	211.53
883.90	211.60
884.21	211.61
884.51	211.64
884.82	211.55
885.13	211.45
885.44	211.49
885.74	211.54
886.05	211.57
886.36	211.61
886.67	211.42
886.98	211.59
887.28	211.63
887.59	211.63
887.90	211.65
888.20	211.59
888.51	211.72
888.82	211.72
889.13	211.70
889.43	211.98
889.74	212.04
890.05	212.00
890.35	211.90
890.66	211.82
890.97	211.77
891.28	211.77
891.58	211.78
891.89	211.84
892.20	211.77
892.50	211.71
892.81	211.73
893.12	211.77
893.42	211.58
893.73	211.67
894.04	211.72
894.34	211.79
894.65	211.80
894.95	211.76
895.26	211.66
895.57	211.79
895.87	211.43
896.18	211.47
896.48	211.52
896.79	211.50
897.10	211.60
897.40	211.62
897.71	211.70
898.01	211.65
898.32	211.66
898.63	211.63
898.93	211.69
899.24	211.64
899.54	211.62
899.85	211.73
900.15	211.69
900.46	211.62
900.76	211.58
901.07	211.64
901.38	211.58
901.68	211.71
901.99	211.59
902.29	211.70
902.60	211.72
902.90	211.66
903.21	211.77
903.51	211.79
903.82	211.90
904.12	211.83
904.43	211.93
904.73	211.90
905.03	211.91
905.34	212.15
905.64	212.16
905.95	212.20
906.25	212.14
906.56	212.05
906.86	212.09
907.17	212.11
907.47	212.13
907.77	212.20
908.08	212.09
908.38	212.06
908.69	212.10
908.99	212.16
909.30	212.27
909.60	212.21
909.90	212.22
910.21	212.05
910.51	212.01
910.81	211.97
911.12	212.00
911.42	212.09
911.73	211.76
912.03	211.70
912.33	211.80
912.64	211.75
912.94	211.79
913.24	211.75
913.55	211.72
913.85	211.59
914.15	211.64
914.46	211.72
914.76	211.66
915.06	211.65
915.37	211.53
915.67	211.47
915.97	211.51
916.27	211.40
916.58	211.47
916.88	211.51
917.18	211.49
917.49	211.75
917.79	211.73
918.09	211.82
918.39	212.02
918.70	211.95
919.00	211.98
919.30	212.15
919.60	212.13
919.91	212.09
920.21	212.22
920.51	212.10
920.81	212.10
921.12	212.22
921.42	212.14
921.72	212.20
922.02	212.27
922.32	212.24
922.63	212.27
922.93	212.46
923.23	212.45
923.53	212.38
923.83	212.14
924.13	212.12
924.44	212.17
924.74	212.13
925.04	212.19
925.34	212.21
925.64	212.10
925.94	212.11
926.24	212.31
926.55	212.26
926.85	212.32
927.15	212.32
927.45	212.22
927.75	212.26
928.05	212.20
928.35	212.13
928.65	212.23
928.95	212.25
929.26	212.12
929.56	212.15
929.86	212.19
930.16	212.15
930.46	212.09
930.76	212.05
931.06	211.87
931.36	211.85
931.66	211.91
931.96	211.86
932.26	211.84
932.56	211.63
932.86	211.65
933.16	211.69
933.46	211.65
933.76	211.68
934.06	211.72
934.36	211.86
934.66	211.79
934.96	211.70
935.26	211.70
935.56	211.70
935.86	211.63
936.16	211.54
936.46	211.49
936.76	211.45
937.06	211.37
937.36	211.46
937.66	211.44
937.96	211.42
938.26	211.39
938.56	211.30
938.86	211.41
939.16	211.51
939.46	211.53
939.76	211.51
940.06	211.44
940.35	211.35
940.65	211.18
940.95	211.24
941.25	211.26
941.55	211.15
941.85	211.09
942.15	211.16
942.45	211.29
942.75	211.32
943.04	211.36
943.34	211.46
943.64	211.45
943.94	211.31
944.24	211.32
944.54	211.33
944.84	211.39
945.13	211.29
945.43	211.12
945.73	211.10
946.03	211.08
946.33	211.11
946.62	211.11
946.92	211.14
947.22	211.19
947.52	211.16
947.82	211.24
948.11	211.19
948.41	211.14
948.71	211.05
949.01	211.08
949.31	211.13
949.60	211.08
949.90	211.08
950.20	211.13
950.50	211.09
950.79	211.05
951.09	211.16
951.39	211.07
951.69	211.12
951.98	211.17
952.28	211.08
952.58	211.01
952.87	211.05
953.17	211.15
953.47	211.09
953.76	211.01
954.06	210.99
954.36	211.02
954.66	211.03
954.95	211.13
955.25	211.20
955.55	211.09
955.84	211.03
956.14	211.03
956.44	211.10
956.73	211.05
957.03	211.08
957.32	211.01
957.62	211.11
957.92	211.20
958.21	211.15
958.51	211.74
958.81	211.86
959.10	211.84
959.40	211.83
959.69	211.88
959.99	212.02
960.29	212.02
960.58	212.05
960.88	212.16
961.17	212.11
961.47	212.10
961.76	212.19
962.06	212.23
962.36	212.23
962.65	212.22
962.95	212.27
963.24	212.29
963.54	212.33
963.83	212.30
964.13	212.26
964.42	212.13
964.72	211.78
965.01	211.75
965.31	211.73
965.60	211.61
965.90	211.74
966.19	211.66
966.49	211.69
966.78	211.62
967.08	211.56
967.37	211.57
967.67	211.45
967.96	211.49
968.26	211.50
968.55	211.55
968.85	211.57
969.14	211.54
969.43	211.55
969.73	211.57
970.02	211.56
970.32	211.48
970.61	211.50
970.91	211.39
971.20	211.33
971.49	211.35
971.79	211.43
972.08	211.21
972.38	211.27
972.67	211.28
972.96	211.32
973.26	211.23
973.55	211.33
973.85	211.33
974.14	211.25
974.43	211.29
974.73	211.20
975.02	211.12
975.31	211.08
975.61	211.05
975.90	210.95
976.19	210.87
976.49	210.95
976.78	211.02
977.07	211.01
977.37	211.05
977.66	211.05
977.95	211.05
978.24	211.08
978.54	211.11
978.83	211.05
979.12	211.11
979.42	211.08
979.71	211.03
980.00	211.03
980.29	211.05
980.59	211.03
980.88	211.18
981.17	211.20
981.46	211.16
981.76	211.09
982.05	211.24
982.34	211.34
982.63	211.22
982.93	211.15
983.22	211.27
983.51	211.25
983.80	211.34
984.09	211.38
984.39	211.35
984.68	211.29
984.97	211.27
985.26	211.18
985.55	211.24
985.85	211.15
986.14	211.18
986.43	211.23
986.72	211.16
987.01	211.01
987.30	211.02
987.59	211.05
987.89	211.17
988.18	211.08
988.47	211.09
988.76	211.14
989.05	211.14
989.34	211.01
989.63	211.10
989.92	210.98
990.22	210.85
990.51	210.88
990.80	210.85
991.09	210.91
991.38	211.00
991.67	211.03
991.96	211.02
992.25	211.00
992.54	210.95
992.83	210.97
993.12	210.99
993.41	211.05
993.70	211.22
993.99	211.26
994.28	211.23
994.58	211.23
994.87	211.23
995.16	211.23
995.45	211.22
995.74	211.08
996.03	211.19
996.32	211.26
996.61	211.30
996.90	211.35
997.19	211.33
997.48	211.29
997.77	211.22
998.06	211.26
998.34	211.22
998.63	211.20
998.92	211.18
999.21	211.20
999.50	211.18
999.79	211.11
1000.08	211.02
1000.37	211.06
1000.66	210.97
1000.95	211.05
1001.24	211.10
1001.53	211.26
1001.82	211.27
1002.11	211.17
1002.40	211.23
1002.68	211.32
1002.97	211.55
1003.26	211.48
1003.55	211.45
1003.84	211.54
1004.13	211.61
1004.42	211.68
1004.71	211.67
1004.99	211.65
1005.28	211.70
1005.57	211.70
1005.86	211.61
1006.15	211.62
1006.44	211.54
1006.72	211.61
1007.01	211.59
1007.30	211.53
1007.59	211.44
1007.88	211.48
1008.17	211.61
1008.45	211.50
1008.74	211.33
1009.03	211.08
1009.32	211.15
1009.60	211.16
1009.89	211.09
1010.18	211.00
1010.47	211.02
1010.76	211.07
1011.04	211.06
1011.33	211.11
1011.62	211.16
1011.91	211.18
1012.19	211.21
1012.48	211.28
1012.77	211.27
1013.05	211.42
1013.34	211.48
1013.63	211.45
1013.92	211.36
1014.20	211.27
1014.49	211.30
1014.78	211.34
1015.06	211.30
1015.35	211.29
1015.64	211.29
1015.92	211.34
1016.21	211.27
1016.50	211.20
1016.78	211.23
1017.07	211.33
1017.36	211.22
1017.64	211.04
1017.93	211.06
1018.22	210.98
1018.50	210.96
1018.79	210.95
1019.08	210.79
1019.36	210.75
1019.65	210.75
1019.93	210.87
1020.22	210.89
1020.51	211.08
1020.79	211.09
1021.08	210.25
1021.36	210.70
1021.65	211.00
1021.94	211.00
1022.22	210.60
1022.51	210.95
1022.79	212.05
1023.08	211.30
1023.36	215.00
1023.65	211.10
>>>>>End Processed Spectral Data<<<<<
