SpectraSuite Data File
++++++++++++++++++++++++++++++++++++
Date: Mon Feb 25 17:04:47 EST 2013
User: group
Dark Spectrum Present: No
Reference Spectrum Present: No
Number of Sampled Component Spectra: 1
Spectrometers: USB2E7196
Integration Time (usec): 104000 (USB2E7196)
Spectra Averaged: 20 (USB2E7196)
Boxcar Smoothing: 10 (USB2E7196)
Correct for Electrical Dark: No (USB2E7196)
Strobe/Lamp Enabled: No (USB2E7196)
Correct for Detector Non-linearity: No (USB2E7196)
Correct for Stray Light: No (USB2E7196)
Number of Pixels in Processed Spectrum: 2048
>>>>>Begin Processed Spectral Data<<<<<
339.09	0.00
339.48	198.15
339.86	200.50
340.24	202.05
340.63	202.65
341.01	209.40
341.39	205.70
341.78	208.10
342.16	209.15
342.54	209.40
342.93	198.25
343.31	208.30
343.69	208.88
344.07	209.32
344.46	209.73
344.84	210.14
345.22	210.16
345.60	210.43
345.99	210.54
346.37	210.62
346.75	210.68
347.13	210.76
347.52	210.87
347.90	211.06
348.28	211.01
348.66	211.11
349.05	211.06
349.43	211.16
349.81	211.19
350.19	211.17
350.57	211.19
350.96	211.25
351.34	211.28
351.72	211.28
352.10	211.38
352.48	211.45
352.87	211.43
353.25	211.54
353.63	211.56
354.01	211.60
354.39	211.68
354.77	211.80
355.15	211.95
355.54	211.98
355.92	211.87
356.30	211.97
356.68	212.23
357.06	212.35
357.44	212.29
357.82	212.31
358.20	212.40
358.58	212.41
358.97	212.49
359.35	212.56
359.73	212.79
360.11	212.84
360.49	212.86
360.87	212.95
361.25	213.01
361.63	213.18
362.01	213.22
362.39	213.21
362.77	213.22
363.15	213.21
363.53	213.24
363.91	213.28
364.29	213.27
364.67	212.92
365.05	212.83
365.43	212.88
365.81	213.02
366.19	213.12
366.57	213.30
366.95	213.31
367.33	213.28
367.71	213.15
368.09	213.13
368.47	213.08
368.85	213.02
369.23	213.06
369.61	212.85
369.99	213.00
370.37	213.08
370.75	213.20
371.13	213.10
371.51	213.02
371.89	213.01
372.27	213.00
372.65	213.09
373.03	213.08
373.41	213.01
373.78	212.90
374.16	212.71
374.54	212.60
374.92	212.45
375.30	212.38
375.68	212.32
376.06	212.30
376.44	212.24
376.82	212.29
377.19	212.20
377.57	212.12
377.95	211.94
378.33	211.82
378.71	211.57
379.09	211.62
379.47	211.65
379.84	211.60
380.22	211.58
380.60	211.51
380.98	211.37
381.36	211.41
381.73	211.32
382.11	211.38
382.49	211.35
382.87	211.30
383.25	211.28
383.62	211.67
384.00	211.55
384.38	211.57
384.76	211.53
385.13	211.67
385.51	211.67
385.89	211.59
386.27	211.53
386.64	211.56
387.02	211.48
387.40	211.40
387.78	211.38
388.15	211.36
388.53	211.23
388.91	211.24
389.29	211.09
389.66	211.11
390.04	211.02
390.42	211.03
390.79	211.06
391.17	211.00
391.55	210.52
391.92	210.52
392.30	210.53
392.68	210.42
393.05	210.30
393.43	210.38
393.81	210.37
394.18	210.29
394.56	210.29
394.94	210.30
395.31	210.32
395.69	210.40
396.06	210.43
396.44	210.45
396.82	210.50
397.19	210.65
397.57	210.62
397.95	210.70
398.32	210.54
398.70	210.58
399.07	210.72
399.45	210.75
399.82	210.76
400.20	210.70
400.58	210.80
400.95	210.73
401.33	210.72
401.70	211.02
402.08	211.09
402.45	211.14
402.83	211.32
403.20	211.35
403.58	211.35
403.95	211.43
404.33	211.60
404.71	211.68
405.08	211.95
405.46	212.05
405.83	212.14
406.21	212.26
406.58	212.43
406.96	212.50
407.33	212.66
407.70	212.82
408.08	213.31
408.45	213.46
408.83	213.73
409.20	213.91
409.58	213.96
409.95	214.25
410.33	214.61
410.70	214.75
411.08	215.04
411.45	215.38
411.82	215.68
412.20	216.11
412.57	216.72
412.95	216.92
413.32	217.41
413.69	217.87
414.07	218.45
414.44	219.00
414.82	219.60
415.19	220.21
415.56	220.96
415.94	221.52
416.31	222.45
416.68	223.28
417.06	224.30
417.43	225.23
417.81	226.35
418.18	227.39
418.55	228.58
418.93	229.86
419.30	231.13
419.67	232.47
420.04	233.82
420.42	235.14
420.79	237.05
421.16	238.86
421.54	240.75
421.91	242.61
422.28	244.44
422.66	246.48
423.03	248.79
423.40	250.78
423.77	252.91
424.15	255.11
424.52	257.44
424.89	260.04
425.26	262.46
425.64	264.83
426.01	267.44
426.38	270.13
426.75	273.02
427.13	275.98
427.50	278.87
427.87	282.06
428.24	285.22
428.61	288.06
428.99	291.41
429.36	294.86
429.73	298.39
430.10	302.06
430.47	305.73
430.85	309.35
431.22	313.43
431.59	317.98
431.96	322.02
432.33	326.63
432.70	331.00
433.08	336.16
433.45	341.02
433.82	345.81
434.19	351.16
434.56	356.41
434.93	361.52
435.30	366.76
435.68	372.32
436.05	378.00
436.42	383.66
436.79	388.85
437.16	394.58
437.53	400.51
437.90	406.27
438.27	412.12
438.64	418.13
439.01	423.81
439.38	428.56
439.75	433.53
440.13	438.93
440.50	444.17
440.87	448.47
441.24	453.03
441.61	458.06
441.98	461.93
442.35	466.31
442.72	470.58
443.09	474.85
443.46	477.62
443.83	479.57
444.20	481.15
444.57	483.36
444.94	484.62
445.31	485.98
445.68	487.54
446.05	488.11
446.42	487.75
446.79	487.46
447.16	487.16
447.53	486.89
447.90	485.11
448.27	483.21
448.64	480.54
449.01	478.60
449.37	475.10
449.74	471.66
450.11	467.74
450.48	463.18
450.85	458.48
451.22	454.45
451.59	450.70
451.96	447.14
452.33	442.17
452.70	437.53
453.07	432.06
453.43	426.30
453.80	421.17
454.17	416.13
454.54	411.20
454.91	405.95
455.28	400.93
455.65	396.26
456.02	392.04
456.38	388.11
456.75	383.10
457.12	378.82
457.49	374.66
457.86	370.41
458.23	367.15
458.59	363.42
458.96	359.61
459.33	356.12
459.70	352.70
460.07	350.02
460.43	347.11
460.80	344.18
461.17	341.68
461.54	338.98
461.91	336.50
462.27	333.86
462.64	331.56
463.01	329.08
463.38	326.79
463.74	323.83
464.11	321.79
464.48	319.99
464.85	318.00
465.21	316.50
465.58	314.76
465.95	312.62
466.32	310.90
466.68	309.20
467.05	307.52
467.42	305.90
467.78	304.19
468.15	302.49
468.52	301.40
468.88	299.80
469.25	298.31
469.62	297.05
469.98	295.83
470.35	294.74
470.72	293.58
471.08	292.24
471.45	291.25
471.82	290.18
472.18	289.02
472.55	288.20
472.92	287.11
473.28	286.30
473.65	285.41
474.02	284.66
474.38	284.07
474.75	283.51
475.11	282.86
475.48	282.25
475.85	281.77
476.21	281.18
476.58	280.76
476.94	280.41
477.31	280.11
477.67	279.80
478.04	279.49
478.41	279.33
478.77	279.50
479.14	279.30
479.50	279.06
479.87	279.00
480.23	278.95
480.60	278.84
480.96	278.67
481.33	278.91
481.69	278.96
482.06	278.99
482.42	278.98
482.79	278.94
483.15	279.05
483.52	279.12
483.88	279.28
484.25	279.48
484.61	279.67
484.98	279.75
485.34	280.10
485.71	280.36
486.07	280.71
486.44	280.66
486.80	281.03
487.17	281.48
487.53	282.03
487.90	282.52
488.26	283.21
488.62	283.83
488.99	284.25
489.35	284.79
489.72	285.40
490.08	286.06
490.44	286.82
490.81	287.55
491.17	288.39
491.54	289.24
491.90	290.11
492.26	291.00
492.63	292.04
492.99	292.91
493.36	293.94
493.72	294.98
494.08	296.12
494.45	297.25
494.81	298.41
495.17	299.59
495.54	300.81
495.90	301.86
496.26	303.05
496.63	304.38
496.99	305.55
497.35	306.79
497.72	308.19
498.08	309.37
498.44	310.80
498.80	312.15
499.17	313.40
499.53	314.64
499.89	316.08
500.26	317.40
500.62	318.73
500.98	320.08
501.34	321.31
501.71	322.67
502.07	323.86
502.43	325.17
502.79	326.38
503.16	327.56
503.52	328.95
503.88	330.15
504.24	331.28
504.60	332.59
504.97	333.89
505.33	334.94
505.69	336.41
506.05	337.61
506.41	338.71
506.78	339.80
507.14	340.74
507.50	341.78
507.86	342.86
508.22	343.86
508.59	344.71
508.95	345.67
509.31	346.75
509.67	347.76
510.03	348.63
510.39	349.48
510.75	350.24
511.12	350.94
511.48	351.78
511.84	352.55
512.20	353.34
512.56	353.99
512.92	354.85
513.28	355.40
513.64	356.02
514.00	356.71
514.37	357.35
514.73	358.10
515.09	358.62
515.45	359.04
515.81	359.61
516.17	360.21
516.53	360.68
516.89	360.95
517.25	361.44
517.61	362.01
517.97	362.44
518.33	362.99
518.69	363.56
519.05	364.10
519.41	364.67
519.77	365.32
520.13	365.91
520.49	366.35
520.85	366.87
521.21	367.53
521.57	368.13
521.93	368.75
522.29	369.45
522.65	370.07
523.01	370.88
523.37	371.50
523.73	372.42
524.09	373.31
524.45	374.30
524.81	375.20
525.17	376.18
525.53	377.26
525.89	378.30
526.25	379.33
526.61	380.24
526.97	381.47
527.33	382.61
527.68	384.00
528.04	385.28
528.40	386.46
528.76	387.74
529.12	389.10
529.48	390.62
529.84	392.02
530.20	393.48
530.56	395.14
530.91	396.96
531.27	398.60
531.63	400.39
531.99	402.10
532.35	403.88
532.71	405.59
533.07	407.41
533.42	409.72
533.78	411.76
534.14	413.85
534.50	415.59
534.86	417.57
535.21	419.35
535.57	421.54
535.93	423.87
536.29	426.25
536.65	428.54
537.00	430.67
537.36	432.90
537.72	435.15
538.08	437.40
538.44	439.70
538.79	442.14
539.15	444.38
539.51	446.87
539.87	449.32
540.22	451.87
540.58	454.58
540.94	456.81
541.29	459.33
541.65	461.88
542.01	464.62
542.37	467.31
542.72	470.01
543.08	472.60
543.44	475.52
543.79	477.83
544.15	480.55
544.51	483.57
544.87	486.56
545.22	489.50
545.58	492.26
545.94	494.99
546.29	497.74
546.65	500.44
547.01	503.00
547.36	505.82
547.72	508.65
548.07	511.25
548.43	513.97
548.79	516.61
549.14	519.19
549.50	521.88
549.86	524.20
550.21	526.84
550.57	529.41
550.92	531.66
551.28	534.40
551.64	536.95
551.99	539.44
552.35	541.69
552.70	544.08
553.06	546.58
553.41	549.01
553.77	551.47
554.13	554.08
554.48	556.73
554.84	559.29
555.19	561.55
555.55	564.09
555.90	566.37
556.26	568.60
556.61	570.83
556.97	572.84
557.32	575.15
557.68	577.27
558.03	579.43
558.39	581.45
558.74	583.62
559.10	585.80
559.45	587.81
559.81	590.15
560.16	592.19
560.52	594.27
560.87	596.37
561.23	598.14
561.58	600.29
561.94	602.00
562.29	603.59
562.64	605.49
563.00	607.09
563.35	608.92
563.71	610.94
564.06	612.89
564.42	614.73
564.77	616.59
565.12	618.58
565.48	620.64
565.83	622.50
566.19	624.11
566.54	625.46
566.89	626.92
567.25	628.34
567.60	630.11
567.96	631.79
568.31	633.22
568.66	634.75
569.02	635.70
569.37	636.88
569.72	638.21
570.08	639.19
570.43	640.37
570.78	641.29
571.14	641.89
571.49	642.63
571.84	643.60
572.20	644.30
572.55	644.87
572.90	645.18
573.26	645.54
573.61	645.87
573.96	646.28
574.31	646.60
574.67	646.78
575.02	646.64
575.37	646.45
575.72	646.29
576.08	646.30
576.43	646.33
576.78	646.44
577.13	646.54
577.49	646.64
577.84	646.54
578.19	646.66
578.54	646.80
578.90	647.09
579.25	647.14
579.60	647.02
579.95	646.71
580.30	646.69
580.66	646.86
581.01	646.70
581.36	646.52
581.71	646.29
582.06	646.33
582.42	646.34
582.77	646.18
583.12	646.03
583.47	645.94
583.82	645.91
584.17	645.74
584.53	645.66
584.88	645.53
585.23	645.37
585.58	645.10
585.93	644.92
586.28	644.61
586.63	644.11
586.98	643.97
587.34	643.98
587.69	643.66
588.04	643.14
588.39	642.90
588.74	642.62
589.09	642.33
589.44	641.77
589.79	641.52
590.14	641.15
590.49	640.55
590.84	639.96
591.19	639.56
591.54	639.26
591.89	638.37
592.25	637.72
592.60	636.75
592.95	635.85
593.30	634.87
593.65	633.85
594.00	633.01
594.35	632.91
594.70	631.83
595.05	631.05
595.40	630.34
595.75	629.39
596.10	628.60
596.45	627.91
596.80	627.11
597.15	626.15
597.50	625.12
597.85	624.51
598.19	623.63
598.54	622.61
598.89	621.42
599.24	620.72
599.59	619.72
599.94	619.06
600.29	618.32
600.64	617.57
600.99	616.68
601.34	615.92
601.69	614.19
602.04	613.20
602.39	612.01
602.74	611.15
603.08	610.41
603.43	609.74
603.78	608.71
604.13	607.87
604.48	606.97
604.83	606.27
605.18	605.46
605.53	604.65
605.87	603.75
606.22	602.91
606.57	601.92
606.92	600.98
607.27	600.04
607.62	599.03
607.96	598.18
608.31	597.43
608.66	596.41
609.01	595.40
609.36	594.38
609.70	593.40
610.05	592.20
610.40	591.10
610.75	589.66
611.10	588.68
611.44	587.19
611.79	585.76
612.14	584.37
612.49	582.72
612.83	581.15
613.18	579.71
613.53	578.25
613.88	576.60
614.22	575.13
614.57	573.50
614.92	571.92
615.27	570.29
615.61	568.67
615.96	567.25
616.31	565.84
616.65	564.51
617.00	562.91
617.35	561.22
617.70	559.60
618.04	557.96
618.39	556.02
618.74	554.44
619.08	552.63
619.43	550.98
619.78	549.50
620.12	547.96
620.47	546.40
620.82	544.68
621.16	542.96
621.51	541.41
621.85	539.94
622.20	538.26
622.55	536.56
622.89	534.77
623.24	533.00
623.59	531.20
623.93	529.45
624.28	527.84
624.62	526.59
624.97	524.91
625.32	523.23
625.66	521.68
626.01	519.96
626.35	518.56
626.70	516.91
627.04	515.50
627.39	513.92
627.73	512.45
628.08	511.00
628.43	509.35
628.77	507.65
629.12	505.90
629.46	504.44
629.81	502.86
630.15	501.37
630.50	499.60
630.84	497.86
631.19	496.16
631.53	494.62
631.88	492.51
632.22	490.77
632.57	489.34
632.91	487.69
633.26	486.25
633.60	484.60
633.95	483.00
634.29	481.14
634.64	479.66
634.98	477.76
635.32	476.19
635.67	474.89
636.01	473.41
636.36	471.81
636.70	470.30
637.05	468.75
637.39	467.20
637.73	465.90
638.08	464.70
638.42	463.34
638.77	461.79
639.11	460.45
639.45	459.00
639.80	457.18
640.14	455.65
640.49	454.01
640.83	452.39
641.17	450.97
641.52	449.45
641.86	447.71
642.20	446.30
642.55	444.46
642.89	442.68
643.23	440.92
643.58	439.63
643.92	438.00
644.26	436.35
644.61	434.69
644.95	432.94
645.29	431.15
645.64	429.68
645.98	427.96
646.32	426.38
646.66	424.79
647.01	423.32
647.35	421.84
647.69	420.25
648.04	418.79
648.38	417.29
648.72	415.72
649.06	414.10
649.41	412.55
649.75	411.19
650.09	409.83
650.43	408.37
650.78	406.54
651.12	405.00
651.46	403.47
651.80	402.03
652.14	400.62
652.49	399.19
652.83	397.48
653.17	396.04
653.51	394.53
653.85	393.17
654.20	391.66
654.54	390.10
654.88	388.60
655.22	387.13
655.56	385.47
655.90	384.05
656.25	382.60
656.59	380.92
656.93	379.45
657.27	378.08
657.61	376.60
657.95	375.28
658.29	373.74
658.64	372.33
658.98	370.80
659.32	369.36
659.66	367.95
660.00	366.57
660.34	365.20
660.68	363.68
661.02	362.13
661.36	360.81
661.70	359.47
662.05	358.15
662.39	357.00
662.73	355.90
663.07	354.76
663.41	353.55
663.75	352.42
664.09	351.15
664.43	349.71
664.77	348.54
665.11	347.21
665.45	346.10
665.79	344.95
666.13	343.83
666.47	342.64
666.81	341.46
667.15	340.13
667.49	338.97
667.83	338.09
668.17	337.01
668.51	335.95
668.85	334.92
669.19	334.07
669.53	332.77
669.87	331.48
670.21	330.26
670.55	329.13
670.89	328.25
671.23	327.30
671.57	326.43
671.91	325.36
672.25	324.45
672.58	323.45
672.92	322.38
673.26	321.55
673.60	320.56
673.94	319.46
674.28	318.57
674.62	317.68
674.96	316.66
675.30	315.67
675.64	314.76
675.97	313.73
676.31	312.65
676.65	311.83
676.99	311.13
677.33	310.22
677.67	309.41
678.01	308.37
678.34	307.45
678.68	306.60
679.02	305.72
679.36	304.79
679.70	304.01
680.04	303.21
680.37	302.20
680.71	301.37
681.05	300.67
681.39	299.96
681.73	299.17
682.06	298.28
682.40	297.53
682.74	296.75
683.08	296.10
683.42	295.35
683.75	294.58
684.09	293.70
684.43	292.86
684.77	292.06
685.10	291.35
685.44	290.54
685.78	289.70
686.12	288.86
686.45	288.11
686.79	287.17
687.13	286.51
687.46	285.77
687.80	285.15
688.14	284.41
688.48	283.74
688.81	282.96
689.15	282.35
689.49	281.59
689.82	280.88
690.16	279.93
690.50	279.09
690.83	278.46
691.17	277.68
691.51	277.03
691.84	276.44
692.18	275.76
692.52	275.16
692.85	274.62
693.19	274.21
693.52	273.60
693.86	272.95
694.20	272.35
694.53	271.75
694.87	271.02
695.21	270.41
695.54	269.72
695.88	269.01
696.21	268.37
696.55	267.83
696.88	267.15
697.22	266.68
697.56	266.27
697.89	265.56
698.23	265.04
698.56	264.46
698.90	263.98
699.23	263.35
699.57	262.77
699.90	262.14
700.24	261.50
700.58	261.02
700.91	260.64
701.25	260.25
701.58	259.86
701.92	259.38
702.25	258.85
702.59	258.25
702.92	257.81
703.26	257.30
703.59	256.82
703.93	256.75
704.26	256.28
704.60	255.83
704.93	255.36
705.26	254.88
705.60	254.50
705.93	253.91
706.27	253.61
706.60	253.26
706.94	252.95
707.27	252.45
707.61	251.97
707.94	251.37
708.27	250.74
708.61	250.20
708.94	249.79
709.28	249.41
709.61	249.09
709.94	248.72
710.28	248.36
710.61	247.94
710.95	247.17
711.28	247.01
711.61	246.58
711.95	246.34
712.28	245.94
712.61	245.58
712.95	245.40
713.28	245.14
713.61	244.75
713.95	244.31
714.28	244.02
714.61	243.63
714.95	243.33
715.28	242.97
715.61	242.62
715.95	242.25
716.28	241.89
716.61	241.56
716.95	241.23
717.28	240.93
717.61	240.63
717.94	240.26
718.28	239.72
718.61	239.39
718.94	238.95
719.27	238.68
719.61	238.39
719.94	237.98
720.27	237.50
720.60	237.14
720.94	236.84
721.27	236.56
721.60	236.40
721.93	236.21
722.27	236.09
722.60	235.90
722.93	235.66
723.26	235.43
723.59	235.15
723.93	234.86
724.26	234.66
724.59	234.44
724.92	234.32
725.25	234.28
725.59	234.04
725.92	233.94
726.25	233.72
726.58	233.50
726.91	233.26
727.24	233.10
727.57	232.92
727.91	232.67
728.24	232.58
728.57	232.35
728.90	232.17
729.23	231.89
729.56	231.88
729.89	231.68
730.22	231.47
730.55	231.25
730.89	231.09
731.22	230.85
731.55	230.63
731.88	230.49
732.21	230.17
732.54	229.97
732.87	229.70
733.20	229.55
733.53	229.34
733.86	229.21
734.19	228.98
734.52	228.89
734.85	229.06
735.18	228.77
735.51	228.69
735.84	228.54
736.17	228.45
736.50	228.11
736.83	228.43
737.16	228.27
737.49	228.25
737.82	228.11
738.15	228.04
738.48	227.91
738.81	227.75
739.14	227.58
739.47	227.45
739.80	227.35
740.13	227.32
740.46	227.10
740.79	226.89
741.12	226.80
741.45	226.57
741.78	226.16
742.11	226.14
742.44	225.90
742.77	225.78
743.10	225.61
743.43	225.43
743.75	224.90
744.08	225.20
744.41	225.00
744.74	224.83
745.07	224.52
745.40	224.44
745.73	224.44
746.06	224.27
746.39	224.11
746.71	223.96
747.04	223.70
747.37	223.67
747.70	223.50
748.03	223.36
748.36	223.30
748.68	223.22
749.01	222.96
749.34	222.82
749.67	222.67
750.00	222.62
750.33	222.73
750.65	222.62
750.98	222.09
751.31	221.97
751.64	221.93
751.97	222.11
752.29	221.93
752.62	221.63
752.95	221.43
753.28	221.31
753.60	221.19
753.93	221.18
754.26	221.10
754.59	221.00
754.91	220.88
755.24	220.72
755.57	220.50
755.90	220.34
756.22	220.25
756.55	220.10
756.88	219.92
757.20	219.56
757.53	219.39
757.86	219.27
758.19	219.21
758.51	219.09
758.84	218.76
759.17	218.67
759.49	218.64
759.82	218.78
760.15	218.78
760.47	218.63
760.80	218.41
761.13	218.29
761.45	218.23
761.78	218.11
762.11	218.01
762.43	217.95
762.76	217.98
763.08	217.91
763.41	217.85
763.74	217.76
764.06	217.74
764.39	217.57
764.71	217.44
765.04	217.33
765.37	217.23
765.69	217.17
766.02	217.06
766.34	216.93
766.67	216.79
767.00	216.79
767.32	216.85
767.65	217.00
767.97	216.89
768.30	216.87
768.62	216.85
768.95	216.76
769.27	216.70
769.60	216.66
769.92	216.56
770.25	216.55
770.57	216.42
770.90	216.30
771.22	216.33
771.55	216.33
771.87	216.27
772.20	216.20
772.52	216.43
772.85	216.76
773.17	216.77
773.50	216.69
773.82	216.58
774.15	216.46
774.47	216.18
774.80	216.11
775.12	216.00
775.45	215.90
775.77	215.93
776.09	215.94
776.42	215.81
776.74	215.78
777.07	215.62
777.39	215.62
777.72	215.59
778.04	215.56
778.36	215.44
778.69	215.42
779.01	215.41
779.33	215.09
779.66	214.70
779.98	214.67
780.31	214.63
780.63	214.71
780.95	214.76
781.28	214.76
781.60	214.76
781.92	214.75
782.25	214.73
782.57	214.71
782.89	214.58
783.22	214.59
783.54	214.59
783.86	214.67
784.19	214.62
784.51	214.70
784.83	214.65
785.16	214.64
785.48	214.62
785.80	214.61
786.12	214.60
786.45	214.62
786.77	214.56
787.09	214.56
787.42	214.42
787.74	214.37
788.06	214.39
788.38	214.35
788.71	214.29
789.03	214.23
789.35	214.17
789.67	214.10
789.99	214.08
790.32	214.06
790.64	214.01
790.96	214.28
791.28	214.18
791.61	214.17
791.93	214.20
792.25	214.18
792.57	214.38
792.89	214.30
793.21	214.29
793.54	214.26
793.86	214.24
794.18	214.30
794.50	214.24
794.82	214.16
795.14	214.20
795.47	214.26
795.79	214.25
796.11	214.15
796.43	214.17
796.75	214.14
797.07	214.06
797.39	214.09
797.71	213.79
798.04	213.81
798.36	213.76
798.68	213.73
799.00	213.66
799.32	213.47
799.64	213.55
799.96	213.55
800.28	213.57
800.60	213.40
800.92	213.31
801.24	213.21
801.56	213.30
801.89	213.24
802.21	213.18
802.53	213.16
802.85	213.20
803.17	213.33
803.49	213.24
803.81	213.19
804.13	213.11
804.45	213.04
804.77	213.02
805.09	213.00
805.41	212.98
805.73	212.99
806.05	212.89
806.37	212.83
806.69	212.78
807.01	212.68
807.33	212.74
807.65	212.59
807.97	212.80
808.28	212.76
808.60	212.74
808.92	212.68
809.24	212.84
809.56	212.85
809.88	212.77
810.20	212.84
810.52	212.94
810.84	212.88
811.16	212.91
811.48	212.79
811.80	212.95
812.12	212.92
812.43	212.95
812.75	212.98
813.07	212.97
813.39	212.97
813.71	212.98
814.03	212.97
814.35	213.04
814.67	212.93
814.98	212.78
815.30	212.74
815.62	212.71
815.94	212.49
816.26	212.48
816.58	212.36
816.89	212.40
817.21	212.30
817.53	212.32
817.85	212.31
818.17	212.38
818.48	212.23
818.80	212.33
819.12	212.26
819.44	212.24
819.76	212.19
820.07	212.21
820.39	212.15
820.71	212.14
821.03	212.17
821.34	212.13
821.66	212.26
821.98	212.29
822.30	212.31
822.61	212.55
822.93	212.50
823.25	212.53
823.57	212.41
823.88	212.49
824.20	212.44
824.52	212.53
824.83	212.43
825.15	212.37
825.47	212.25
825.79	212.40
826.10	212.33
826.42	212.33
826.74	212.37
827.05	212.39
827.37	212.44
827.69	212.29
828.00	212.31
828.32	212.19
828.64	212.22
828.95	212.34
829.27	212.29
829.58	212.29
829.90	212.38
830.22	212.43
830.53	212.27
830.85	212.26
831.17	212.15
831.48	212.15
831.80	212.12
832.11	212.10
832.43	211.86
832.75	211.87
833.06	212.07
833.38	211.92
833.69	211.92
834.01	211.96
834.32	212.00
834.64	211.91
834.96	211.99
835.27	211.97
835.59	211.84
835.90	211.68
836.22	211.62
836.53	211.55
836.85	211.45
837.16	211.90
837.48	211.94
837.79	212.04
838.11	212.10
838.42	212.15
838.74	212.22
839.05	212.25
839.37	212.25
839.68	212.03
840.00	212.00
840.31	212.08
840.63	212.03
840.94	211.98
841.26	211.95
841.57	211.89
841.88	211.90
842.20	211.95
842.51	211.93
842.83	211.95
843.14	212.26
843.46	212.29
843.77	212.09
844.08	212.01
844.40	211.88
844.71	211.81
845.03	211.78
845.34	211.79
845.65	211.85
845.97	211.84
846.28	211.87
846.60	211.99
846.91	211.95
847.22	211.87
847.54	212.01
847.85	212.00
848.16	212.00
848.48	211.96
848.79	212.04
849.10	212.15
849.42	212.16
849.73	211.83
850.04	211.89
850.36	211.81
850.67	211.93
850.98	211.95
851.30	212.00
851.61	211.90
851.92	211.91
852.23	211.96
852.55	211.97
852.86	211.96
853.17	211.88
853.49	211.87
853.80	212.00
854.11	211.94
854.42	212.05
854.74	211.96
855.05	211.91
855.36	211.70
855.67	211.67
855.99	211.65
856.30	212.15
856.61	212.08
856.92	212.05
857.23	212.00
857.55	211.99
857.86	211.95
858.17	212.13
858.48	211.99
858.79	211.93
859.11	211.91
859.42	211.95
859.73	211.94
860.04	211.92
860.35	211.71
860.66	211.65
860.98	211.61
861.29	211.63
861.60	211.55
861.91	211.67
862.22	211.57
862.53	211.51
862.84	210.95
863.16	211.03
863.47	210.91
863.78	210.85
864.09	210.84
864.40	210.89
864.71	210.88
865.02	211.01
865.33	210.91
865.64	210.91
865.95	210.79
866.27	211.02
866.58	211.02
866.89	211.17
867.20	211.20
867.51	211.11
867.82	211.18
868.13	211.36
868.44	211.29
868.75	211.37
869.06	211.43
869.37	211.53
869.68	211.39
869.99	211.47
870.30	211.51
870.61	211.52
870.92	211.44
871.23	211.39
871.54	211.41
871.85	211.55
872.16	211.57
872.47	211.59
872.78	211.34
873.09	211.36
873.40	211.29
873.71	211.31
874.02	211.39
874.33	211.35
874.64	211.25
874.95	211.28
875.26	211.20
875.56	211.16
875.87	211.20
876.18	211.25
876.49	211.57
876.80	211.48
877.11	211.46
877.42	211.50
877.73	211.46
878.04	211.38
878.35	211.32
878.66	211.33
878.96	211.27
879.27	211.28
879.58	211.25
879.89	211.18
880.20	211.27
880.51	211.20
880.82	211.18
881.12	211.18
881.43	211.12
881.74	211.12
882.05	211.10
882.36	211.02
882.67	211.03
882.97	210.66
883.28	210.67
883.59	210.68
883.90	210.65
884.21	210.75
884.51	210.70
884.82	210.68
885.13	210.70
885.44	210.74
885.74	210.75
886.05	210.74
886.36	210.83
886.67	210.69
886.98	210.88
887.28	210.92
887.59	210.96
887.90	210.95
888.20	210.96
888.51	211.02
888.82	211.01
889.13	211.03
889.43	211.31
889.74	211.26
890.05	211.21
890.35	211.24
890.66	211.10
890.97	211.14
891.28	211.08
891.58	211.10
891.89	211.10
892.20	211.04
892.50	210.99
892.81	210.90
893.12	210.91
893.42	210.78
893.73	210.70
894.04	210.72
894.34	210.74
894.65	210.71
894.95	210.66
895.26	210.68
895.57	210.86
895.87	210.53
896.18	210.66
896.48	210.66
896.79	210.68
897.10	210.75
897.40	210.72
897.71	210.79
898.01	210.71
898.32	210.74
898.63	210.72
898.93	210.75
899.24	210.78
899.54	210.75
899.85	210.67
900.15	210.78
900.46	210.69
900.76	210.74
901.07	210.76
901.38	210.68
901.68	210.70
901.99	210.50
902.29	210.54
902.60	210.50
902.90	210.53
903.21	210.47
903.51	210.45
903.82	210.54
904.12	210.52
904.43	210.49
904.73	210.45
905.03	210.46
905.34	210.77
905.64	210.73
905.95	210.73
906.25	210.75
906.56	210.70
906.86	210.72
907.17	210.66
907.47	210.66
907.77	210.67
908.08	210.61
908.38	210.67
908.69	210.66
908.99	210.71
909.30	210.69
909.60	210.69
909.90	210.68
910.21	210.59
910.51	210.54
910.81	210.58
911.12	210.63
911.42	210.71
911.73	210.32
912.03	210.46
912.33	210.60
912.64	210.62
912.94	210.58
913.24	210.57
913.55	210.52
913.85	210.45
914.15	210.54
914.46	210.66
914.76	210.59
915.06	210.65
915.37	210.63
915.67	210.63
915.97	210.68
916.27	210.69
916.58	210.77
916.88	210.82
917.18	210.82
917.49	211.01
917.79	210.96
918.09	211.08
918.39	211.10
918.70	210.98
919.00	210.95
919.30	211.20
919.60	211.18
919.91	211.29
920.21	211.40
920.51	211.40
920.81	211.35
921.12	211.41
921.42	211.39
921.72	211.41
922.02	211.49
922.32	211.57
922.63	211.54
922.93	211.69
923.23	211.65
923.53	211.68
923.83	211.51
924.13	211.55
924.44	211.54
924.74	211.59
925.04	211.70
925.34	211.73
925.64	211.57
925.94	211.59
926.24	211.67
926.55	211.65
926.85	211.74
927.15	211.71
927.45	211.75
927.75	211.82
928.05	211.85
928.35	211.80
928.65	211.81
928.95	211.80
929.26	211.68
929.56	211.78
929.86	211.76
930.16	211.71
930.46	211.70
930.76	211.75
931.06	211.62
931.36	211.55
931.66	211.63
931.96	211.71
932.26	211.75
932.56	211.62
932.86	211.66
933.16	211.60
933.46	211.56
933.76	211.51
934.06	211.57
934.36	211.65
934.66	211.67
934.96	211.66
935.26	211.77
935.56	211.83
935.86	211.77
936.16	211.74
936.46	211.65
936.76	211.68
937.06	211.64
937.36	211.72
937.66	211.73
937.96	211.68
938.26	211.52
938.56	211.51
938.86	211.57
939.16	211.67
939.46	211.74
939.76	211.78
940.06	211.73
940.35	211.58
940.65	211.45
940.95	211.42
941.25	211.31
941.55	211.26
941.85	211.23
942.15	211.29
942.45	211.38
942.75	211.49
943.04	211.44
943.34	211.49
943.64	211.41
943.94	211.33
944.24	211.39
944.54	211.42
944.84	211.39
945.13	211.33
945.43	211.18
945.73	211.07
946.03	211.00
946.33	210.97
946.62	210.98
946.92	210.94
947.22	211.01
947.52	210.98
947.82	210.92
948.11	210.81
948.41	210.72
948.71	210.63
949.01	210.65
949.31	210.65
949.60	210.58
949.90	210.62
950.20	210.62
950.50	210.55
950.79	210.52
951.09	210.50
951.39	210.51
951.69	210.46
951.98	210.54
952.28	210.52
952.58	210.57
952.87	210.63
953.17	210.60
953.47	210.53
953.76	210.55
954.06	210.52
954.36	210.50
954.66	210.48
954.95	210.55
955.25	210.48
955.55	210.51
955.84	210.45
956.14	210.45
956.44	210.46
956.73	210.40
957.03	210.41
957.32	210.43
957.62	210.40
957.92	210.58
958.21	210.58
958.51	211.08
958.81	211.04
959.10	210.96
959.40	211.05
959.69	211.09
959.99	211.11
960.29	211.12
960.58	211.07
960.88	211.25
961.17	211.15
961.47	211.15
961.76	211.12
962.06	211.15
962.36	211.10
962.65	211.11
962.95	211.12
963.24	211.14
963.54	211.13
963.83	211.17
964.13	211.01
964.42	210.93
964.72	210.58
965.01	210.63
965.31	210.62
965.60	210.63
965.90	210.85
966.19	210.83
966.49	210.91
966.78	210.96
967.08	210.88
967.37	210.99
967.67	210.99
967.96	211.08
968.26	211.09
968.55	211.18
968.85	211.20
969.14	211.21
969.43	211.18
969.73	211.18
970.02	211.17
970.32	211.22
970.61	211.22
970.91	211.12
971.20	211.08
971.49	211.05
971.79	211.02
972.08	210.80
972.38	210.83
972.67	210.75
972.96	210.80
973.26	210.82
973.55	210.88
973.85	210.90
974.14	210.81
974.43	210.85
974.73	210.77
975.02	210.70
975.31	210.76
975.61	210.79
975.90	210.77
976.19	210.72
976.49	210.72
976.78	210.71
977.07	210.73
977.37	210.73
977.66	210.79
977.95	210.72
978.24	210.75
978.54	210.76
978.83	210.76
979.12	210.70
979.42	210.65
979.71	210.56
980.00	210.56
980.29	210.60
980.59	210.56
980.88	210.66
981.17	210.65
981.46	210.63
981.76	210.63
982.05	210.79
982.34	210.83
982.63	210.85
982.93	210.85
983.22	210.96
983.51	211.01
983.80	211.07
984.09	211.14
984.39	211.06
984.68	211.04
984.97	211.10
985.26	211.12
985.55	211.19
985.85	211.17
986.14	211.18
986.43	211.18
986.72	211.13
987.01	211.05
987.30	211.06
987.59	211.00
987.89	210.99
988.18	210.84
988.47	210.78
988.76	210.67
989.05	210.69
989.34	210.55
989.63	210.66
989.92	210.59
990.22	210.51
990.51	210.51
990.80	210.54
991.09	210.55
991.38	210.51
991.67	210.38
991.96	210.36
992.25	210.37
992.54	210.35
992.83	210.40
993.12	210.43
993.41	210.57
993.70	210.82
993.99	210.89
994.28	211.01
994.58	211.11
994.87	211.17
995.16	211.13
995.45	211.12
995.74	210.92
996.03	211.04
996.32	211.13
996.61	211.23
996.90	211.23
997.19	211.20
997.48	211.25
997.77	211.23
998.06	211.22
998.34	211.25
998.63	211.28
998.92	211.25
999.21	211.25
999.50	211.19
999.79	211.01
1000.08	210.94
1000.37	210.88
1000.66	210.81
1000.95	210.94
1001.24	211.00
1001.53	211.15
1001.82	211.19
1002.11	211.08
1002.40	211.14
1002.68	211.20
1002.97	211.36
1003.26	211.32
1003.55	211.32
1003.84	211.41
1004.13	211.58
1004.42	211.53
1004.71	211.46
1004.99	211.48
1005.28	211.59
1005.57	211.61
1005.86	211.57
1006.15	211.61
1006.44	211.61
1006.72	211.64
1007.01	211.60
1007.30	211.60
1007.59	211.59
1007.88	211.59
1008.17	211.59
1008.45	211.55
1008.74	211.46
1009.03	211.35
1009.32	211.35
1009.60	211.36
1009.89	211.33
1010.18	211.10
1010.47	211.07
1010.76	211.15
1011.04	211.19
1011.33	211.48
1011.62	211.45
1011.91	211.47
1012.19	211.46
1012.48	211.43
1012.77	211.45
1013.05	211.51
1013.34	211.51
1013.63	211.37
1013.92	211.44
1014.20	211.41
1014.49	211.42
1014.78	211.40
1015.06	211.34
1015.35	211.33
1015.64	211.31
1015.92	211.35
1016.21	211.38
1016.50	211.41
1016.78	211.36
1017.07	211.32
1017.36	210.93
1017.64	210.91
1017.93	210.97
1018.22	210.92
1018.50	210.85
1018.79	210.81
1019.08	210.70
1019.36	210.62
1019.65	210.70
1019.93	210.77
1020.22	210.80
1020.51	210.91
1020.79	210.87
1021.08	209.85
1021.36	209.20
1021.65	210.65
1021.94	210.80
1022.22	209.55
1022.51	211.45
1022.79	212.95
1023.08	211.20
1023.36	214.50
1023.65	209.90
>>>>>End Processed Spectral Data<<<<<
