SpectraSuite Data File
++++++++++++++++++++++++++++++++++++
Date: Mon Feb 25 16:59:56 EST 2013
User: group
Dark Spectrum Present: No
Reference Spectrum Present: No
Number of Sampled Component Spectra: 1
Spectrometers: USB2E7196
Integration Time (usec): 104000 (USB2E7196)
Spectra Averaged: 20 (USB2E7196)
Boxcar Smoothing: 10 (USB2E7196)
Correct for Electrical Dark: No (USB2E7196)
Strobe/Lamp Enabled: No (USB2E7196)
Correct for Detector Non-linearity: No (USB2E7196)
Correct for Stray Light: No (USB2E7196)
Number of Pixels in Processed Spectrum: 2048
>>>>>Begin Processed Spectral Data<<<<<
339.09	0.00
339.48	198.95
339.86	200.55
340.24	201.60
340.63	201.90
341.01	210.10
341.39	205.55
341.78	206.85
342.16	209.40
342.54	209.35
342.93	198.40
343.31	208.46
343.69	209.01
344.07	209.52
344.46	210.03
344.84	210.50
345.22	210.50
345.60	210.75
345.99	210.95
346.37	211.07
346.75	211.09
347.13	211.10
347.52	211.28
347.90	211.42
348.28	211.48
348.66	211.57
349.05	211.43
349.43	211.43
349.81	211.48
350.19	211.55
350.57	211.60
350.96	211.67
351.34	211.66
351.72	211.77
352.10	211.80
352.48	211.83
352.87	211.84
353.25	211.88
353.63	211.92
354.01	212.01
354.39	211.97
354.77	212.07
355.15	212.29
355.54	212.23
355.92	212.16
356.30	212.21
356.68	212.54
357.06	212.66
357.44	212.60
357.82	212.69
358.20	212.78
358.58	212.74
358.97	212.78
359.35	212.90
359.73	212.98
360.11	213.01
360.49	213.06
360.87	213.08
361.25	213.19
361.63	213.37
362.01	213.41
362.39	213.50
362.77	213.58
363.15	213.49
363.53	213.50
363.91	213.55
364.29	213.52
364.67	213.21
365.05	213.17
365.43	213.27
365.81	213.34
366.19	213.41
366.57	213.64
366.95	213.63
367.33	213.55
367.71	213.55
368.09	213.67
368.47	213.57
368.85	213.56
369.23	213.63
369.61	213.46
369.99	213.53
370.37	213.57
370.75	213.71
371.13	213.66
371.51	213.56
371.89	213.58
372.27	213.61
372.65	213.60
373.03	213.59
373.41	213.49
373.78	213.41
374.16	213.25
374.54	213.06
374.92	213.00
375.30	213.00
375.68	212.82
376.06	212.71
376.44	212.70
376.82	212.67
377.19	212.56
377.57	212.49
377.95	212.34
378.33	212.25
378.71	211.95
379.09	211.95
379.47	212.00
379.84	211.87
380.22	211.79
380.60	211.68
380.98	211.61
381.36	211.62
381.73	211.50
382.11	211.51
382.49	211.51
382.87	211.44
383.25	211.40
383.62	211.75
384.00	211.67
384.38	211.66
384.76	211.66
385.13	211.81
385.51	211.80
385.89	211.71
386.27	211.66
386.64	211.74
387.02	211.66
387.40	211.60
387.78	211.60
388.15	211.59
388.53	211.52
388.91	211.47
389.29	211.40
389.66	211.42
390.04	211.38
390.42	211.41
390.79	211.37
391.17	211.33
391.55	210.98
391.92	210.95
392.30	210.91
392.68	210.84
393.05	210.77
393.43	210.80
393.81	210.83
394.18	210.82
394.56	210.78
394.94	210.84
395.31	210.80
395.69	210.90
396.06	210.94
396.44	211.07
396.82	211.09
397.19	211.35
397.57	211.35
397.95	211.40
398.32	211.30
398.70	211.40
399.07	211.56
399.45	211.58
399.82	211.63
400.20	211.68
400.58	211.74
400.95	211.63
401.33	211.74
401.70	212.10
402.08	212.15
402.45	212.25
402.83	212.41
403.20	212.57
403.58	212.60
403.95	212.86
404.33	212.99
404.71	213.13
405.08	213.38
405.46	213.58
405.83	213.76
406.21	214.00
406.58	214.24
406.96	214.48
407.33	214.79
407.70	215.13
408.08	215.72
408.45	216.13
408.83	216.60
409.20	216.97
409.58	217.09
409.95	217.67
410.33	218.22
410.70	218.63
411.08	219.26
411.45	219.95
411.82	220.39
412.20	221.14
412.57	222.12
412.95	222.57
413.32	223.43
413.69	224.31
414.07	225.28
414.44	226.27
414.82	227.35
415.19	228.66
415.56	229.95
415.94	231.15
416.31	232.71
416.68	234.23
417.06	236.03
417.43	237.81
417.81	239.58
418.18	241.53
418.55	243.75
418.93	245.88
419.30	248.17
419.67	250.66
420.04	253.18
420.42	255.71
420.79	258.99
421.16	261.98
421.54	265.28
421.91	268.60
422.28	272.14
422.66	275.75
423.03	279.37
423.40	283.02
423.77	287.00
424.15	290.98
424.52	295.14
424.89	299.80
425.26	304.25
425.64	308.60
426.01	313.36
426.38	318.31
426.75	323.43
427.13	328.66
427.50	334.28
427.87	340.08
428.24	345.91
428.61	351.32
428.99	357.42
429.36	363.90
429.73	370.43
430.10	376.91
430.47	383.67
430.85	390.41
431.22	398.00
431.59	405.80
431.96	413.34
432.33	421.75
432.70	429.77
433.08	439.19
433.45	448.22
433.82	457.26
434.19	467.18
434.56	476.95
434.93	486.48
435.30	495.75
435.68	506.27
436.05	516.70
436.42	527.18
436.79	536.93
437.16	547.47
437.53	558.30
437.90	569.10
438.27	579.80
438.64	591.22
439.01	601.47
439.38	610.83
439.75	619.94
440.13	630.21
440.50	640.04
440.87	648.36
441.24	656.76
441.61	666.03
441.98	673.21
442.35	681.55
442.72	689.68
443.09	697.78
443.46	702.79
443.83	706.41
444.20	709.68
444.57	714.10
444.94	716.44
445.31	719.15
445.68	721.94
446.05	723.55
446.42	723.19
446.79	722.71
447.16	722.13
447.53	721.97
447.90	718.86
448.27	715.68
448.64	710.82
449.01	707.45
449.37	701.03
449.74	694.87
450.11	687.44
450.48	679.19
450.85	670.65
451.22	663.38
451.59	656.51
451.96	649.89
452.33	640.81
452.70	632.65
453.07	622.73
453.43	612.44
453.80	602.72
454.17	593.40
454.54	584.64
454.91	575.16
455.28	565.84
455.65	557.21
456.02	548.65
456.38	541.33
456.75	532.12
457.12	524.47
457.49	516.72
457.86	509.00
458.23	502.74
458.59	495.77
458.96	488.75
459.33	482.41
459.70	476.08
460.07	471.11
460.43	465.40
460.80	460.06
461.17	455.25
461.54	450.24
461.91	445.58
462.27	440.69
462.64	436.56
463.01	432.00
463.38	427.68
463.74	423.10
464.11	419.14
464.48	415.76
464.85	411.95
465.21	409.26
465.58	406.34
465.95	402.63
466.32	399.57
466.68	396.54
467.05	393.60
467.42	390.59
467.78	387.44
468.15	384.52
468.52	382.19
468.88	379.35
469.25	376.71
469.62	374.67
469.98	372.27
470.35	370.17
470.72	368.10
471.08	365.80
471.45	363.93
471.82	361.97
472.18	359.99
472.55	358.53
472.92	356.63
473.28	354.92
473.65	353.20
474.02	351.68
474.38	350.49
474.75	349.46
475.11	348.32
475.48	347.43
475.85	346.49
476.21	345.62
476.58	344.90
476.94	344.33
477.31	343.54
477.67	343.10
478.04	342.48
478.41	342.22
478.77	342.20
479.14	341.74
479.50	341.52
479.87	341.41
480.23	341.27
480.60	341.06
480.96	341.06
481.33	341.43
481.69	341.71
482.06	341.83
482.42	341.83
482.79	341.98
483.15	342.25
483.52	342.83
483.88	343.17
484.25	343.69
484.61	344.21
484.98	344.74
485.34	345.59
485.71	346.57
486.07	347.43
486.44	348.01
486.80	349.10
487.17	350.17
487.53	351.50
487.90	352.74
488.26	354.28
488.62	355.67
488.99	356.97
489.35	358.33
489.72	359.94
490.08	361.64
490.44	363.28
490.81	365.10
491.17	366.85
491.54	368.82
491.90	370.70
492.26	372.74
492.63	374.85
492.99	376.91
493.36	379.07
493.72	381.31
494.08	383.79
494.45	386.31
494.81	389.01
495.17	391.44
495.54	394.23
495.90	396.81
496.26	399.48
496.63	402.40
496.99	405.34
497.35	408.20
497.72	411.23
498.08	414.30
498.44	417.37
498.80	420.68
499.17	423.98
499.53	427.33
499.89	430.68
500.26	433.96
500.62	437.23
500.98	440.49
501.34	443.84
501.71	447.14
502.07	450.46
502.43	453.74
502.79	456.92
503.16	459.98
503.52	463.15
503.88	466.44
504.24	469.67
504.60	472.85
504.97	476.11
505.33	479.17
505.69	482.62
506.05	485.84
506.41	488.72
506.78	491.50
507.14	494.18
507.50	496.95
507.86	499.74
508.22	502.43
508.59	504.93
508.95	507.41
509.31	509.99
509.67	512.31
510.03	514.53
510.39	517.06
510.75	519.48
511.12	521.80
511.48	524.02
511.84	525.94
512.20	527.93
512.56	530.01
512.92	532.06
513.28	533.69
513.64	535.28
514.00	537.02
514.37	538.76
514.73	540.54
515.09	542.25
515.45	543.64
515.81	544.97
516.17	546.36
516.53	547.64
516.89	548.77
517.25	549.86
517.61	550.94
517.97	551.79
518.33	552.68
518.69	553.52
519.05	554.46
519.41	555.37
519.77	556.45
520.13	556.97
520.49	557.42
520.85	558.12
521.21	558.86
521.57	559.42
521.93	559.81
522.29	560.55
522.65	561.02
523.01	561.71
523.37	562.14
523.73	562.80
524.09	563.32
524.45	563.83
524.81	564.50
525.17	565.28
525.53	566.04
525.89	566.63
526.25	567.24
526.61	567.47
526.97	567.99
527.33	568.39
527.68	569.37
528.04	570.12
528.40	570.66
528.76	571.26
529.12	571.98
529.48	573.09
529.84	573.70
530.20	574.44
530.56	575.36
530.91	576.62
531.27	577.73
531.63	578.91
531.99	580.01
532.35	581.04
532.71	582.15
533.07	583.55
533.42	585.25
533.78	586.76
534.14	588.38
534.50	589.88
534.86	591.53
535.21	592.72
535.57	594.56
535.93	596.13
536.29	598.05
536.65	599.88
537.00	601.35
537.36	603.07
537.72	604.89
538.08	606.90
538.44	608.52
538.79	610.40
539.15	612.32
539.51	614.25
539.87	616.44
540.22	618.56
540.58	620.46
540.94	622.28
541.29	624.26
541.65	626.38
542.01	628.57
542.37	630.62
542.72	632.80
543.08	634.85
543.44	637.27
543.79	639.21
544.15	641.47
544.51	644.14
544.87	646.61
545.22	649.09
545.58	651.22
545.94	653.57
546.29	655.70
546.65	658.06
547.01	660.48
547.36	662.93
547.72	665.33
548.07	667.98
548.43	670.27
548.79	672.58
549.14	674.90
549.50	677.30
549.86	679.62
550.21	682.18
550.57	684.80
550.92	687.15
551.28	689.78
551.64	692.30
551.99	694.87
552.35	697.28
552.70	699.61
553.06	702.16
553.41	704.69
553.77	707.52
554.13	710.07
554.48	712.56
554.84	715.20
555.19	717.53
555.55	719.98
555.90	722.36
556.26	724.75
556.61	726.96
556.97	729.05
557.32	731.41
557.68	733.58
558.03	735.70
558.39	737.81
558.74	739.88
559.10	741.77
559.45	743.73
559.81	746.04
560.16	748.05
560.52	750.11
560.87	752.15
561.23	754.01
561.58	756.07
561.94	757.90
562.29	759.45
562.64	761.43
563.00	763.10
563.35	765.08
563.71	767.16
564.06	769.14
564.42	771.29
564.77	773.24
565.12	775.29
565.48	777.35
565.83	779.29
566.19	781.31
566.54	783.15
566.89	784.71
567.25	786.38
567.60	788.55
567.96	790.42
568.31	792.47
568.66	794.06
569.02	795.29
569.37	796.81
569.72	798.30
570.08	799.64
570.43	800.95
570.78	802.11
571.14	803.06
571.49	804.07
571.84	805.02
572.20	805.77
572.55	806.56
572.90	806.87
573.26	807.39
573.61	807.62
573.96	808.11
574.31	808.51
574.67	808.63
575.02	808.30
575.37	807.95
575.72	807.53
576.08	807.50
576.43	807.33
576.78	807.12
577.13	806.96
577.49	806.86
577.84	806.67
578.19	806.35
578.54	806.40
578.90	806.50
579.25	806.15
579.60	805.65
579.95	804.86
580.30	804.48
580.66	804.20
581.01	803.57
581.36	802.75
581.71	802.14
582.06	801.53
582.42	801.15
582.77	800.40
583.12	799.70
583.47	798.80
583.82	798.11
584.17	797.24
584.53	796.68
584.88	795.67
585.23	794.57
585.58	793.70
585.93	792.56
586.28	791.47
586.63	790.47
586.98	789.70
587.34	789.06
587.69	787.95
588.04	786.68
588.39	786.00
588.74	785.09
589.09	784.19
589.44	782.80
589.79	781.49
590.14	780.59
590.49	779.32
590.84	778.25
591.19	777.32
591.54	776.34
591.89	774.54
592.25	773.41
592.60	772.09
592.95	770.53
593.30	768.85
593.65	767.07
594.00	765.36
594.35	764.67
594.70	762.93
595.05	761.61
595.40	760.28
595.75	758.56
596.10	757.05
596.45	755.40
596.80	754.31
597.15	752.91
597.50	751.03
597.85	749.59
598.19	747.91
598.54	746.08
598.89	744.38
599.24	743.17
599.59	741.28
599.94	739.72
600.29	738.14
600.64	736.41
600.99	734.85
601.34	733.44
601.69	730.80
602.04	728.90
602.39	726.98
602.74	725.13
603.08	723.37
603.43	721.86
603.78	720.05
604.13	717.95
604.48	716.11
604.83	714.82
605.18	713.35
605.53	711.50
605.87	709.66
606.22	707.94
606.57	705.87
606.92	703.97
607.27	701.97
607.62	700.03
607.96	698.30
608.31	696.68
608.66	694.59
609.01	692.66
609.36	690.80
609.70	688.84
610.05	686.74
610.40	684.80
610.75	682.40
611.10	680.47
611.44	678.33
611.79	676.11
612.14	673.80
612.49	671.13
612.83	668.99
613.18	666.68
613.53	664.28
613.88	661.79
614.22	659.55
614.57	657.40
614.92	655.22
615.27	652.96
615.61	650.51
615.96	648.29
616.31	646.05
616.65	644.05
617.00	641.68
617.35	639.48
617.70	637.00
618.04	634.62
618.39	632.01
618.74	629.59
619.08	627.04
619.43	624.60
619.78	622.40
620.12	620.12
620.47	617.89
620.82	615.35
621.16	612.98
621.51	610.69
621.85	608.25
622.20	605.89
622.55	603.24
622.89	600.68
623.24	598.18
623.59	595.61
623.93	593.11
624.28	590.89
624.62	588.92
624.97	586.76
625.32	584.61
625.66	582.31
626.01	579.99
626.35	577.89
626.70	575.54
627.04	573.45
627.39	571.28
627.73	569.22
628.08	567.32
628.43	565.17
628.77	562.88
629.12	560.60
629.46	558.59
629.81	556.58
630.15	554.35
630.50	552.18
630.84	550.02
631.19	547.80
631.53	545.69
631.88	542.98
632.22	540.50
632.57	538.38
632.91	536.23
633.26	534.02
633.60	531.87
633.95	529.68
634.29	527.49
634.64	525.38
634.98	522.98
635.32	520.83
635.67	519.04
636.01	517.01
636.36	514.86
636.70	512.86
637.05	510.82
637.39	508.97
637.73	507.36
638.08	505.84
638.42	504.05
638.77	502.11
639.11	500.28
639.45	498.57
639.80	496.49
640.14	494.57
640.49	492.91
640.83	490.98
641.17	489.16
641.52	487.11
641.86	485.08
642.20	483.31
642.55	481.15
642.89	478.91
643.23	477.06
643.58	475.43
643.92	473.22
644.26	471.33
644.61	469.39
644.95	467.22
645.29	465.07
645.64	463.01
645.98	461.05
646.32	459.22
646.66	457.21
647.01	455.26
647.35	453.33
647.69	451.23
648.04	449.29
648.38	447.43
648.72	445.46
649.06	443.45
649.41	441.48
649.75	439.68
650.09	438.02
650.43	436.09
650.78	433.97
651.12	432.12
651.46	430.35
651.80	428.60
652.14	426.77
652.49	425.06
652.83	423.25
653.17	421.43
653.51	419.49
653.85	417.85
654.20	416.27
654.54	414.54
654.88	412.75
655.22	411.06
655.56	409.28
655.90	407.70
656.25	406.00
656.59	404.25
656.93	402.67
657.27	401.09
657.61	399.35
657.95	397.90
658.29	396.21
658.64	394.68
658.98	392.97
659.32	391.35
659.66	389.58
660.00	387.90
660.34	386.21
660.68	384.65
661.02	382.82
661.36	381.17
661.70	379.62
662.05	378.13
662.39	376.72
662.73	375.31
663.07	373.93
663.41	372.52
663.75	371.00
664.09	369.55
664.43	367.89
664.77	366.49
665.11	364.88
665.45	363.60
665.79	362.23
666.13	360.93
666.47	359.48
666.81	358.11
667.15	356.82
667.49	355.62
667.83	354.33
668.17	353.13
668.51	351.82
668.85	350.59
669.19	349.52
669.53	348.05
669.87	346.65
670.21	345.30
670.55	344.09
670.89	343.07
671.23	341.88
671.57	340.79
671.91	339.60
672.25	338.51
672.58	337.30
672.92	336.03
673.26	334.86
673.60	333.75
673.94	332.71
674.28	331.57
674.62	330.47
674.96	329.36
675.30	328.27
675.64	327.18
675.97	326.07
676.31	325.03
676.65	324.03
676.99	323.13
677.33	321.99
677.67	321.01
678.01	319.92
678.34	319.00
678.68	318.02
679.02	316.99
679.36	316.01
679.70	315.02
680.04	314.04
680.37	313.00
680.71	312.02
681.05	311.00
681.39	310.07
681.73	309.10
682.06	308.30
682.40	307.49
682.74	306.61
683.08	305.85
683.42	304.89
683.75	304.08
684.09	303.19
684.43	302.38
684.77	301.42
685.10	300.48
685.44	299.44
685.78	298.50
686.12	297.69
686.45	296.70
686.79	295.85
687.13	295.07
687.46	294.27
687.80	293.61
688.14	292.77
688.48	292.03
688.81	291.23
689.15	290.41
689.49	289.55
689.82	288.83
690.16	287.90
690.50	287.05
690.83	286.20
691.17	285.30
691.51	284.52
691.84	283.78
692.18	283.04
692.52	282.34
692.85	281.74
693.19	281.21
693.52	280.61
693.86	279.85
694.20	279.19
694.53	278.49
694.87	277.64
695.21	276.94
695.54	276.20
695.88	275.50
696.21	274.70
696.55	274.06
696.88	273.36
697.22	272.65
697.56	272.02
697.89	271.41
698.23	270.81
698.56	270.15
698.90	269.54
699.23	268.90
699.57	268.28
699.90	267.60
700.24	266.76
700.58	266.17
700.91	265.71
701.25	265.33
701.58	264.90
701.92	264.41
702.25	263.82
702.59	263.27
702.92	262.70
703.26	262.23
703.59	261.66
703.93	261.45
704.26	260.93
704.60	260.44
704.93	259.87
705.26	259.33
705.60	258.91
705.93	258.38
706.27	258.01
706.60	257.59
706.94	257.22
707.27	256.75
707.61	256.29
707.94	255.82
708.27	255.06
708.61	254.46
708.94	254.00
709.28	253.60
709.61	253.16
709.94	252.77
710.28	252.36
710.61	251.92
710.95	251.13
711.28	250.99
711.61	250.60
711.95	250.34
712.28	249.97
712.61	249.47
712.95	249.25
713.28	248.99
713.61	248.63
713.95	248.16
714.28	247.92
714.61	247.47
714.95	246.97
715.28	246.56
715.61	246.11
715.95	245.76
716.28	245.36
716.61	245.04
716.95	244.69
717.28	244.30
717.61	243.94
717.94	243.70
718.28	243.10
718.61	242.72
718.94	242.31
719.27	242.01
719.61	241.80
719.94	241.42
720.27	240.98
720.60	240.66
720.94	240.30
721.27	239.98
721.60	239.80
721.93	239.59
722.27	239.45
722.60	239.31
722.93	239.09
723.26	238.86
723.59	238.51
723.93	238.20
724.26	237.93
724.59	237.77
724.92	237.48
725.25	237.32
725.59	237.10
725.92	236.98
726.25	236.70
726.58	236.43
726.91	236.19
727.24	235.93
727.57	235.70
727.91	235.51
728.24	235.29
728.57	235.00
728.90	234.82
729.23	234.51
729.56	234.35
729.89	234.07
730.22	233.76
730.55	233.61
730.89	233.43
731.22	233.22
731.55	232.99
731.88	232.76
732.21	232.52
732.54	232.31
732.87	231.97
733.20	231.81
733.53	231.61
733.86	231.48
734.19	231.24
734.52	231.09
734.85	231.16
735.18	230.92
735.51	230.90
735.84	230.69
736.17	230.64
736.50	230.32
736.83	230.54
737.16	230.46
737.49	230.28
737.82	230.04
738.15	229.91
738.48	229.66
738.81	229.49
739.14	229.24
739.47	229.01
739.80	228.88
740.13	228.68
740.46	228.41
740.79	228.11
741.12	227.99
741.45	227.69
741.78	227.29
742.11	227.21
742.44	226.87
742.77	226.77
743.10	226.55
743.43	226.37
743.75	225.85
744.08	226.15
744.41	225.92
744.74	225.74
745.07	225.52
745.40	225.46
745.73	225.41
746.06	225.33
746.39	225.25
746.71	225.07
747.04	224.92
747.37	224.85
747.70	224.75
748.03	224.65
748.36	224.57
748.68	224.40
749.01	224.19
749.34	224.05
749.67	223.86
750.00	223.74
750.33	223.90
750.65	223.84
750.98	223.28
751.31	223.20
751.64	223.15
751.97	223.20
752.29	223.01
752.62	222.74
752.95	222.59
753.28	222.42
753.60	222.30
753.93	222.25
754.26	222.17
754.59	221.95
754.91	221.72
755.24	221.63
755.57	221.51
755.90	221.38
756.22	221.27
756.55	221.12
756.88	220.94
757.20	220.63
757.53	220.43
757.86	220.28
758.19	220.17
758.51	220.05
758.84	219.74
759.17	219.64
759.49	219.49
759.82	219.50
760.15	219.41
760.47	219.35
760.80	219.21
761.13	219.12
761.45	218.98
761.78	218.91
762.11	218.79
762.43	218.70
762.76	218.63
763.08	218.57
763.41	218.55
763.74	218.49
764.06	218.36
764.39	218.26
764.71	218.16
765.04	218.07
765.37	217.96
765.69	217.90
766.02	217.79
766.34	217.77
766.67	217.53
767.00	217.59
767.32	217.66
767.65	217.79
767.97	217.70
768.30	217.72
768.62	217.69
768.95	217.57
769.27	217.52
769.60	217.49
769.92	217.38
770.25	217.25
770.57	217.14
770.90	217.02
771.22	216.91
771.55	216.88
771.87	216.85
772.20	216.85
772.52	217.10
772.85	217.47
773.17	217.47
773.50	217.50
773.82	217.27
774.15	217.03
774.47	216.70
774.80	216.62
775.12	216.55
775.45	216.47
775.77	216.52
776.09	216.42
776.42	216.40
776.74	216.57
777.07	216.52
777.39	216.49
777.72	216.54
778.04	216.60
778.36	216.55
778.69	216.55
779.01	216.48
779.33	216.15
779.66	215.67
779.98	215.59
780.31	215.60
780.63	215.81
780.95	215.87
781.28	215.90
781.60	215.82
781.92	215.76
782.25	215.67
782.57	215.58
782.89	215.52
783.22	215.46
783.54	215.21
783.86	215.17
784.19	215.13
784.51	215.14
784.83	214.99
785.16	214.94
785.48	214.81
785.80	214.83
786.12	214.82
786.45	214.83
786.77	214.83
787.09	214.72
787.42	214.57
787.74	214.58
788.06	214.49
788.38	214.49
788.71	214.49
789.03	214.52
789.35	214.55
789.67	214.49
789.99	214.41
790.32	214.41
790.64	214.39
790.96	214.62
791.28	214.42
791.61	214.29
791.93	214.26
792.25	214.23
792.57	214.35
792.89	214.25
793.21	214.25
793.54	214.13
793.86	214.00
794.18	213.96
794.50	213.80
794.82	213.84
795.14	213.90
795.47	213.87
795.79	213.89
796.11	213.78
796.43	213.76
796.75	213.77
797.07	213.78
797.39	213.72
797.71	213.50
798.04	213.60
798.36	213.65
798.68	213.56
799.00	213.55
799.32	213.31
799.64	213.36
799.96	213.30
800.28	213.40
800.60	213.41
800.92	213.40
801.24	213.38
801.56	213.37
801.89	213.23
802.21	213.24
802.53	213.15
802.85	213.19
803.17	213.35
803.49	213.26
803.81	213.22
804.13	213.22
804.45	213.19
804.77	213.21
805.09	213.29
805.41	213.29
805.73	213.31
806.05	213.26
806.37	213.22
806.69	213.17
807.01	213.04
807.33	213.09
807.65	212.94
807.97	213.08
808.28	213.02
808.60	213.04
808.92	212.96
809.24	213.16
809.56	213.14
809.88	212.97
810.20	212.97
810.52	213.04
810.84	212.97
811.16	212.88
811.48	212.80
811.80	212.83
812.12	212.85
812.43	212.91
812.75	212.92
813.07	212.85
813.39	212.90
813.71	212.89
814.03	212.85
814.35	212.86
814.67	212.70
814.98	212.66
815.30	212.61
815.62	212.65
815.94	212.42
816.26	212.35
816.58	212.32
816.89	212.37
817.21	212.24
817.53	212.27
817.85	212.29
818.17	212.25
818.48	212.12
818.80	212.21
819.12	212.09
819.44	212.04
819.76	212.05
820.07	212.10
820.39	212.12
820.71	212.12
821.03	212.10
821.34	212.02
821.66	212.11
821.98	212.10
822.30	212.05
822.61	212.18
822.93	212.15
823.25	212.11
823.57	212.05
823.88	212.15
824.20	212.12
824.52	212.10
824.83	212.08
825.15	212.08
825.47	212.01
825.79	212.04
826.10	212.07
826.42	212.04
826.74	212.04
827.05	211.98
827.37	212.01
827.69	212.08
828.00	212.06
828.32	212.06
828.64	212.09
828.95	212.27
829.27	212.24
829.58	212.29
829.90	212.33
830.22	212.33
830.53	212.18
830.85	212.13
831.17	212.01
831.48	212.02
831.80	212.02
832.11	211.85
832.43	211.78
832.75	211.76
833.06	211.95
833.38	211.77
833.69	211.74
834.01	211.70
834.32	211.60
834.64	211.61
834.96	211.59
835.27	211.57
835.59	211.44
835.90	211.34
836.22	211.25
836.53	211.20
836.85	211.18
837.16	211.61
837.48	211.67
837.79	211.92
838.11	211.90
838.42	211.87
838.74	212.01
839.05	212.01
839.37	211.96
839.68	211.72
840.00	211.76
840.31	211.84
840.63	211.78
840.94	211.79
841.26	211.76
841.57	211.75
841.88	211.72
842.20	211.65
842.51	211.59
842.83	211.68
843.14	211.96
843.46	211.92
843.77	211.66
844.08	211.67
844.40	211.52
844.71	211.46
845.03	211.44
845.34	211.42
845.65	211.47
845.97	211.45
846.28	211.45
846.60	211.50
846.91	211.40
847.22	211.39
847.54	211.40
847.85	211.51
848.16	211.35
848.48	211.30
848.79	211.47
849.10	211.52
849.42	211.45
849.73	211.11
850.04	211.12
850.36	211.02
850.67	210.99
850.98	210.96
851.30	211.03
851.61	211.02
851.92	211.00
852.23	211.03
852.55	211.09
852.86	211.12
853.17	211.14
853.49	211.33
853.80	211.49
854.11	211.59
854.42	211.56
854.74	211.61
855.05	211.62
855.36	211.40
855.67	211.44
855.99	211.44
856.30	211.90
856.61	211.95
856.92	211.93
857.23	212.06
857.55	212.04
857.86	212.03
858.17	212.08
858.48	212.04
858.79	211.97
859.11	211.98
859.42	211.97
859.73	211.91
860.04	211.88
860.35	211.72
860.66	211.62
860.98	211.58
861.29	211.68
861.60	211.68
861.91	211.80
862.22	211.69
862.53	211.72
862.84	211.29
863.16	211.36
863.47	211.33
863.78	211.14
864.09	211.18
864.40	211.20
864.71	211.23
865.02	211.17
865.33	211.20
865.64	211.19
865.95	211.20
866.27	211.39
866.58	211.31
866.89	211.38
867.20	211.35
867.51	211.30
867.82	211.29
868.13	211.44
868.44	211.37
868.75	211.53
869.06	211.50
869.37	211.67
869.68	211.55
869.99	211.65
870.30	211.74
870.61	211.80
870.92	211.78
871.23	211.75
871.54	211.90
871.85	211.90
872.16	211.91
872.47	211.83
872.78	211.62
873.09	211.65
873.40	211.59
873.71	211.65
874.02	211.67
874.33	211.54
874.64	211.40
874.95	211.49
875.26	211.39
875.56	211.35
875.87	211.22
876.18	211.28
876.49	211.60
876.80	211.53
877.11	211.47
877.42	211.44
877.73	211.40
878.04	211.37
878.35	211.44
878.66	211.49
878.96	211.54
879.27	211.53
879.58	211.51
879.89	211.54
880.20	211.58
880.51	211.52
880.82	211.56
881.12	211.62
881.43	211.49
881.74	211.45
882.05	211.39
882.36	211.43
882.67	211.40
882.97	211.04
883.28	211.02
883.59	210.93
883.90	210.99
884.21	211.12
884.51	211.00
884.82	210.87
885.13	210.80
885.44	210.84
885.74	210.81
886.05	210.78
886.36	210.74
886.67	210.63
886.98	210.87
887.28	210.91
887.59	210.89
887.90	210.89
888.20	210.94
888.51	211.10
888.82	211.05
889.13	211.04
889.43	211.27
889.74	211.28
890.05	211.34
890.35	211.33
890.66	211.21
890.97	211.21
891.28	211.21
891.58	211.26
891.89	211.25
892.20	211.26
892.50	211.28
892.81	211.28
893.12	211.36
893.42	211.21
893.73	211.20
894.04	211.20
894.34	211.24
894.65	211.16
894.95	211.09
895.26	211.08
895.57	211.17
895.87	210.85
896.18	210.93
896.48	210.96
896.79	210.94
897.10	210.99
897.40	211.03
897.71	211.07
898.01	211.00
898.32	211.02
898.63	211.05
898.93	211.05
899.24	211.04
899.54	210.94
899.85	210.97
900.15	211.05
900.46	211.05
900.76	211.11
901.07	211.06
901.38	211.10
901.68	211.12
901.99	211.01
902.29	211.09
902.60	211.08
902.90	211.04
903.21	210.97
903.51	210.90
903.82	210.92
904.12	210.88
904.43	210.99
904.73	210.89
905.03	210.84
905.34	211.13
905.64	211.12
905.95	211.16
906.25	211.11
906.56	211.05
906.86	211.08
907.17	211.03
907.47	211.09
907.77	210.98
908.08	210.96
908.38	211.02
908.69	211.05
908.99	211.07
909.30	211.08
909.60	211.20
909.90	211.27
910.21	211.23
910.51	211.21
910.81	211.13
911.12	211.23
911.42	211.31
911.73	210.95
912.03	211.00
912.33	211.04
912.64	210.98
912.94	210.96
913.24	210.88
913.55	210.84
913.85	210.84
914.15	211.02
914.46	211.00
914.76	210.94
915.06	210.86
915.37	210.74
915.67	210.75
915.97	210.64
916.27	210.55
916.58	210.57
916.88	210.58
917.18	210.59
917.49	210.83
917.79	210.81
918.09	210.88
918.39	210.97
918.70	210.95
919.00	211.04
919.30	211.20
919.60	211.20
919.91	211.19
920.21	211.18
920.51	211.05
920.81	211.10
921.12	211.19
921.42	211.15
921.72	211.25
922.02	211.30
922.32	211.45
922.63	211.52
922.93	211.77
923.23	211.78
923.53	211.73
923.83	211.52
924.13	211.54
924.44	211.69
924.74	211.68
925.04	211.77
925.34	211.73
925.64	211.56
925.94	211.52
926.24	211.68
926.55	211.65
926.85	211.74
927.15	211.68
927.45	211.65
927.75	211.68
928.05	211.71
928.35	211.66
928.65	211.66
928.95	211.72
929.26	211.51
929.56	211.59
929.86	211.67
930.16	211.61
930.46	211.63
930.76	211.55
931.06	211.39
931.36	211.30
931.66	211.40
931.96	211.43
932.26	211.54
932.56	211.44
932.86	211.46
933.16	211.46
933.46	211.41
933.76	211.38
934.06	211.44
934.36	211.48
934.66	211.48
934.96	211.46
935.26	211.40
935.56	211.45
935.86	211.33
936.16	211.19
936.46	211.17
936.76	211.13
937.06	211.05
937.36	211.07
937.66	211.02
937.96	210.93
938.26	210.92
938.56	210.95
938.86	211.02
939.16	211.15
939.46	211.09
939.76	211.19
940.06	211.17
940.35	211.16
940.65	211.05
940.95	211.03
941.25	210.96
941.55	210.92
941.85	210.87
942.15	210.96
942.45	211.10
942.75	211.12
943.04	211.14
943.34	211.23
943.64	211.21
943.94	211.20
944.24	211.28
944.54	211.23
944.84	211.19
945.13	211.08
945.43	210.96
945.73	210.99
946.03	210.93
946.33	210.91
946.62	210.87
946.92	210.92
947.22	211.00
947.52	211.00
947.82	211.04
948.11	211.08
948.41	211.02
948.71	210.90
949.01	210.85
949.31	210.84
949.60	210.71
949.90	210.81
950.20	210.82
950.50	210.74
950.79	210.79
951.09	210.74
951.39	210.73
951.69	210.65
951.98	210.70
952.28	210.68
952.58	210.71
952.87	210.72
953.17	210.69
953.47	210.63
953.76	210.66
954.06	210.65
954.36	210.60
954.66	210.63
954.95	210.72
955.25	210.80
955.55	210.78
955.84	210.80
956.14	210.79
956.44	210.78
956.73	210.79
957.03	210.79
957.32	210.81
957.62	210.81
957.92	210.94
958.21	210.97
958.51	211.45
958.81	211.51
959.10	211.60
959.40	211.63
959.69	211.65
959.99	211.75
960.29	211.69
960.58	211.66
960.88	211.76
961.17	211.82
961.47	211.84
961.76	211.86
962.06	211.99
962.36	211.97
962.65	212.04
962.95	212.06
963.24	212.07
963.54	212.08
963.83	212.13
964.13	212.12
964.42	211.99
964.72	211.65
965.01	211.62
965.31	211.53
965.60	211.50
965.90	211.69
966.19	211.51
966.49	211.56
966.78	211.50
967.08	211.50
967.37	211.41
967.67	211.29
967.96	211.30
968.26	211.20
968.55	211.18
968.85	211.18
969.14	211.13
969.43	211.12
969.73	211.12
970.02	211.07
970.32	211.10
970.61	211.06
970.91	210.92
971.20	210.85
971.49	210.82
971.79	210.80
972.08	210.55
972.38	210.55
972.67	210.54
972.96	210.61
973.26	210.52
973.55	210.65
973.85	210.67
974.14	210.60
974.43	210.68
974.73	210.63
975.02	210.57
975.31	210.56
975.61	210.50
975.90	210.47
976.19	210.43
976.49	210.38
976.78	210.41
977.07	210.43
977.37	210.49
977.66	210.52
977.95	210.56
978.24	210.55
978.54	210.65
978.83	210.64
979.12	210.61
979.42	210.60
979.71	210.58
980.00	210.60
980.29	210.63
980.59	210.60
980.88	210.71
981.17	210.74
981.46	210.79
981.76	210.76
982.05	210.85
982.34	210.87
982.63	210.83
982.93	210.87
983.22	211.02
983.51	211.00
983.80	211.04
984.09	211.00
984.39	211.01
984.68	210.95
984.97	210.93
985.26	210.89
985.55	210.94
985.85	210.80
986.14	210.89
986.43	211.00
986.72	210.97
987.01	210.85
987.30	210.90
987.59	210.85
987.89	210.81
988.18	210.71
988.47	210.70
988.76	210.64
989.05	210.61
989.34	210.52
989.63	210.55
989.92	210.45
990.22	210.48
990.51	210.51
990.80	210.53
991.09	210.53
991.38	210.63
991.67	210.60
991.96	210.64
992.25	210.55
992.54	210.47
992.83	210.44
993.12	210.45
993.41	210.47
993.70	210.64
993.99	210.81
994.28	210.89
994.58	210.92
994.87	210.92
995.16	210.93
995.45	210.86
995.74	210.79
996.03	210.89
996.32	210.91
996.61	210.92
996.90	210.91
997.19	210.95
997.48	210.92
997.77	210.86
998.06	210.87
998.34	210.92
998.63	210.86
998.92	210.93
999.21	210.94
999.50	210.93
999.79	210.81
1000.08	210.80
1000.37	210.75
1000.66	210.74
1000.95	210.87
1001.24	210.90
1001.53	211.04
1001.82	211.03
1002.11	210.96
1002.40	211.00
1002.68	211.05
1002.97	211.32
1003.26	211.31
1003.55	211.28
1003.84	211.33
1004.13	211.49
1004.42	211.42
1004.71	211.48
1004.99	211.39
1005.28	211.53
1005.57	211.48
1005.86	211.43
1006.15	211.39
1006.44	211.34
1006.72	211.44
1007.01	211.41
1007.30	211.37
1007.59	211.31
1007.88	211.31
1008.17	211.38
1008.45	211.20
1008.74	211.23
1009.03	211.08
1009.32	211.09
1009.60	211.06
1009.89	211.00
1010.18	210.80
1010.47	210.87
1010.76	210.88
1011.04	210.94
1011.33	210.95
1011.62	210.99
1011.91	211.01
1012.19	211.05
1012.48	211.10
1012.77	211.10
1013.05	211.22
1013.34	211.25
1013.63	211.25
1013.92	211.28
1014.20	211.23
1014.49	211.37
1014.78	211.36
1015.06	211.20
1015.35	211.18
1015.64	211.25
1015.92	211.29
1016.21	211.35
1016.50	211.30
1016.78	211.28
1017.07	211.30
1017.36	211.20
1017.64	211.19
1017.93	211.19
1018.22	211.11
1018.50	211.07
1018.79	211.02
1019.08	210.86
1019.36	210.82
1019.65	210.73
1019.93	210.82
1020.22	210.94
1020.51	211.08
1020.79	211.01
1021.08	210.40
1021.36	210.00
1021.65	210.85
1021.94	210.55
1022.22	210.35
1022.51	209.15
1022.79	212.90
1023.08	212.70
1023.36	215.05
1023.65	210.50
>>>>>End Processed Spectral Data<<<<<
