SpectraSuite Data File
++++++++++++++++++++++++++++++++++++
Date: Mon Feb 25 17:05:56 EST 2013
User: group
Dark Spectrum Present: No
Reference Spectrum Present: No
Number of Sampled Component Spectra: 1
Spectrometers: USB2E7196
Integration Time (usec): 104000 (USB2E7196)
Spectra Averaged: 20 (USB2E7196)
Boxcar Smoothing: 10 (USB2E7196)
Correct for Electrical Dark: No (USB2E7196)
Strobe/Lamp Enabled: No (USB2E7196)
Correct for Detector Non-linearity: No (USB2E7196)
Correct for Stray Light: No (USB2E7196)
Number of Pixels in Processed Spectrum: 2048
>>>>>Begin Processed Spectral Data<<<<<
339.09	0.00
339.48	197.75
339.86	200.30
340.24	200.10
340.63	204.05
341.01	209.50
341.39	205.25
341.78	206.80
342.16	208.55
342.54	207.25
342.93	198.19
343.31	208.22
343.69	208.84
344.07	209.33
344.46	209.87
344.84	210.18
345.22	210.23
345.60	210.52
345.99	210.64
346.37	210.80
346.75	210.94
347.13	210.93
347.52	210.98
347.90	211.07
348.28	211.05
348.66	211.11
349.05	210.96
349.43	210.99
349.81	211.08
350.19	211.09
350.57	211.06
350.96	211.03
351.34	211.03
351.72	211.07
352.10	211.11
352.48	211.15
352.87	211.21
353.25	211.27
353.63	211.30
354.01	211.39
354.39	211.43
354.77	211.49
355.15	211.62
355.54	211.64
355.92	211.51
356.30	211.61
356.68	211.90
357.06	211.99
357.44	212.05
357.82	212.10
358.20	212.18
358.58	212.29
358.97	212.39
359.35	212.58
359.73	212.71
360.11	212.72
360.49	212.76
360.87	212.77
361.25	212.81
361.63	212.95
362.01	213.03
362.39	213.03
362.77	213.07
363.15	213.11
363.53	213.13
363.91	213.26
364.29	213.30
364.67	212.99
365.05	213.01
365.43	213.03
365.81	213.11
366.19	213.28
366.57	213.40
366.95	213.41
367.33	213.25
367.71	213.16
368.09	213.25
368.47	213.15
368.85	213.18
369.23	213.24
369.61	213.12
369.99	213.22
370.37	213.26
370.75	213.43
371.13	213.35
371.51	213.25
371.89	213.24
372.27	213.24
372.65	213.18
373.03	213.19
373.41	213.20
373.78	213.09
374.16	212.91
374.54	212.75
374.92	212.72
375.30	212.73
375.68	212.69
376.06	212.67
376.44	212.69
376.82	212.65
377.19	212.60
377.57	212.50
377.95	212.29
378.33	212.24
378.71	211.96
379.09	211.98
379.47	212.02
379.84	211.89
380.22	211.85
380.60	211.75
380.98	211.64
381.36	211.52
381.73	211.46
382.11	211.43
382.49	211.42
382.87	211.31
383.25	211.25
383.62	211.58
384.00	211.50
384.38	211.46
384.76	211.48
385.13	211.55
385.51	211.52
385.89	211.48
386.27	211.42
386.64	211.50
387.02	211.43
387.40	211.42
387.78	211.39
388.15	211.31
388.53	211.25
388.91	211.18
389.29	211.18
389.66	211.22
390.04	211.17
390.42	211.13
390.79	211.11
391.17	211.12
391.55	210.70
391.92	210.65
392.30	210.69
392.68	210.56
393.05	210.48
393.43	210.47
393.81	210.44
394.18	210.38
394.56	210.41
394.94	210.46
395.31	210.38
395.69	210.48
396.06	210.51
396.44	210.63
396.82	210.67
397.19	210.83
397.57	210.79
397.95	210.86
398.32	210.78
398.70	210.85
399.07	210.94
399.45	210.99
399.82	210.95
400.20	210.91
400.58	210.94
400.95	210.90
401.33	211.00
401.70	211.32
402.08	211.37
402.45	211.36
402.83	211.53
403.20	211.57
403.58	211.59
403.95	211.71
404.33	211.82
404.71	211.87
405.08	212.15
405.46	212.26
405.83	212.30
406.21	212.45
406.58	212.49
406.96	212.50
407.33	212.65
407.70	212.87
408.08	213.36
408.45	213.62
408.83	213.82
409.20	213.96
409.58	213.91
409.95	214.13
410.33	214.39
410.70	214.46
411.08	214.78
411.45	215.05
411.82	215.30
412.20	215.65
412.57	216.23
412.95	216.31
413.32	216.70
413.69	217.05
414.07	217.48
414.44	218.05
414.82	218.60
415.19	219.23
415.56	219.85
415.94	220.31
416.31	221.02
416.68	221.74
417.06	222.59
417.43	223.52
417.81	224.46
418.18	225.53
418.55	226.59
418.93	227.75
419.30	228.91
419.67	230.15
420.04	231.38
420.42	232.68
420.79	234.40
421.16	236.00
421.54	237.79
421.91	239.52
422.28	241.22
422.66	243.01
423.03	244.97
423.40	246.80
423.77	248.71
424.15	250.76
424.52	252.92
424.89	255.30
425.26	257.48
425.64	259.58
426.01	261.82
426.38	264.39
426.75	266.92
427.13	269.46
427.50	272.06
427.87	274.87
428.24	277.56
428.61	280.16
428.99	283.28
429.36	286.36
429.73	289.52
430.10	292.73
430.47	296.12
430.85	299.31
431.22	302.95
431.59	307.01
431.96	310.61
432.33	314.72
432.70	318.68
433.08	323.41
433.45	327.89
433.82	332.27
434.19	337.08
434.56	341.83
434.93	346.51
435.30	351.19
435.68	356.31
436.05	361.39
436.42	366.36
436.79	370.91
437.16	375.92
437.53	381.15
437.90	386.37
438.27	391.55
438.64	396.80
439.01	401.89
439.38	406.07
439.75	410.42
440.13	415.27
440.50	419.89
440.87	423.49
441.24	427.39
441.61	431.73
441.98	434.89
442.35	438.63
442.72	442.36
443.09	446.14
443.46	448.42
443.83	450.12
444.20	451.57
444.57	453.46
444.94	454.64
445.31	455.82
445.68	457.13
446.05	457.72
446.42	457.60
446.79	457.27
447.16	456.98
447.53	456.81
447.90	455.24
448.27	453.53
448.64	451.35
449.01	449.66
449.37	446.40
449.74	443.47
450.11	439.99
450.48	435.80
450.85	431.60
451.22	428.07
451.59	424.61
451.96	421.30
452.33	416.85
452.70	412.77
453.07	407.94
453.43	402.83
453.80	398.12
454.17	393.57
454.54	389.18
454.91	384.49
455.28	379.82
455.65	375.50
456.02	371.66
456.38	367.94
456.75	363.55
457.12	359.91
457.49	356.03
457.86	352.28
458.23	349.49
458.59	346.03
458.96	342.62
459.33	339.62
459.70	336.65
460.07	334.34
460.43	331.51
460.80	328.89
461.17	326.64
461.54	324.16
461.91	321.93
462.27	319.63
462.64	317.63
463.01	315.51
463.38	313.59
463.74	311.14
464.11	309.12
464.48	307.39
464.85	305.58
465.21	304.36
465.58	302.85
465.95	300.86
466.32	299.34
466.68	297.82
467.05	296.38
467.42	294.87
467.78	293.30
468.15	291.87
468.52	290.84
468.88	289.31
469.25	288.17
469.62	287.09
469.98	285.89
470.35	284.82
470.72	283.86
471.08	282.66
471.45	281.73
471.82	281.04
472.18	280.11
472.55	279.41
472.92	278.52
473.28	277.74
473.65	277.10
474.02	276.49
474.38	275.87
474.75	275.31
475.11	274.71
475.48	274.31
475.85	273.88
476.21	273.33
476.58	273.01
476.94	272.64
477.31	272.33
477.67	272.07
478.04	271.80
478.41	271.61
478.77	271.73
479.14	271.39
479.50	271.18
479.87	271.08
480.23	271.04
480.60	270.90
480.96	270.74
481.33	270.83
481.69	270.80
482.06	270.91
482.42	270.86
482.79	270.98
483.15	271.09
483.52	271.35
483.88	271.50
484.25	271.63
484.61	271.79
484.98	271.97
485.34	272.31
485.71	272.66
486.07	272.97
486.44	272.99
486.80	273.46
487.17	273.85
487.53	274.40
487.90	274.89
488.26	275.63
488.62	276.29
488.99	276.79
489.35	277.46
489.72	278.02
490.08	278.64
490.44	279.31
490.81	280.04
491.17	280.75
491.54	281.60
491.90	282.50
492.26	283.27
492.63	284.15
492.99	284.99
493.36	285.93
493.72	286.94
494.08	287.90
494.45	289.05
494.81	290.16
495.17	291.20
495.54	292.38
495.90	293.37
496.26	294.53
496.63	295.80
496.99	296.95
497.35	298.19
497.72	299.64
498.08	300.88
498.44	302.14
498.80	303.51
499.17	304.92
499.53	306.27
499.89	307.84
500.26	309.20
500.62	310.52
500.98	312.07
501.34	313.44
501.71	314.89
502.07	316.19
502.43	317.55
502.79	318.91
503.16	320.18
503.52	321.57
503.88	322.90
504.24	324.24
504.60	325.64
504.97	327.03
505.33	328.37
505.69	329.98
506.05	331.44
506.41	332.81
506.78	334.05
507.14	335.28
507.50	336.52
507.86	337.83
508.22	339.25
508.59	340.47
508.95	341.83
509.31	343.44
509.67	344.80
510.03	346.13
510.39	347.39
510.75	348.83
511.12	350.16
511.48	351.47
511.84	352.77
512.20	353.98
512.56	355.38
512.92	356.69
513.28	358.00
513.64	359.14
514.00	360.22
514.37	361.58
514.73	362.96
515.09	364.29
515.45	365.45
515.81	366.63
516.17	367.76
516.53	368.98
516.89	370.07
517.25	371.34
517.61	372.63
517.97	373.97
518.33	375.26
518.69	376.51
519.05	377.81
519.41	379.09
519.77	380.71
520.13	382.00
520.49	383.22
520.85	384.40
521.21	385.95
521.57	387.52
521.93	388.81
522.29	390.22
522.65	391.59
523.01	393.25
523.37	394.78
523.73	396.46
524.09	398.00
524.45	399.47
524.81	401.10
525.17	402.81
525.53	404.56
525.89	406.25
526.25	408.04
526.61	409.85
526.97	411.73
527.33	413.60
527.68	415.84
528.04	417.88
528.40	419.94
528.76	421.95
529.12	424.05
529.48	426.42
529.84	428.60
530.20	430.86
530.56	433.20
530.91	435.71
531.27	438.11
531.63	440.60
531.99	443.00
532.35	445.44
532.71	447.94
533.07	450.49
533.42	453.43
533.78	456.19
534.14	458.87
534.50	461.31
534.86	463.99
535.21	466.36
535.57	469.13
535.93	471.84
536.29	474.71
536.65	477.57
537.00	480.07
537.36	482.93
537.72	485.67
538.08	488.35
538.44	491.01
538.79	493.80
539.15	496.51
539.51	499.37
539.87	502.18
540.22	505.00
540.58	507.81
540.94	510.30
541.29	513.06
541.65	515.78
542.01	518.96
542.37	521.75
542.72	524.70
543.08	527.47
543.44	530.35
543.79	532.96
544.15	535.85
544.51	538.93
544.87	541.91
545.22	544.89
545.58	547.94
545.94	550.74
546.29	553.51
546.65	556.37
547.01	559.28
547.36	562.10
547.72	564.83
548.07	567.70
548.43	570.33
548.79	572.76
549.14	575.49
549.50	578.15
549.86	580.51
550.21	582.90
550.57	585.59
550.92	588.08
551.28	590.65
551.64	592.94
551.99	595.50
552.35	597.53
552.70	599.87
553.06	602.10
553.41	604.37
553.77	606.71
554.13	608.86
554.48	611.17
554.84	613.60
555.19	615.92
555.55	618.16
555.90	620.31
556.26	622.49
556.61	624.30
556.97	626.06
557.32	628.19
557.68	630.08
558.03	631.97
558.39	633.74
558.74	635.52
559.10	637.42
559.45	639.08
559.81	641.22
560.16	642.85
560.52	644.69
560.87	646.49
561.23	648.09
561.58	650.18
561.94	651.68
562.29	653.01
562.64	654.50
563.00	655.89
563.35	657.55
563.71	659.15
564.06	660.93
564.42	662.63
564.77	664.19
565.12	665.96
565.48	667.66
565.83	669.23
566.19	670.84
566.54	672.00
566.89	673.37
567.25	674.54
567.60	676.07
567.96	677.38
568.31	678.63
568.66	679.75
569.02	680.28
569.37	681.13
569.72	682.14
570.08	683.00
570.43	683.89
570.78	684.53
571.14	685.12
571.49	685.50
571.84	685.91
572.20	686.24
572.55	686.58
572.90	686.51
573.26	686.69
573.61	686.67
573.96	687.01
574.31	686.87
574.67	686.83
575.02	686.45
575.37	686.17
575.72	685.80
576.08	685.73
576.43	685.59
576.78	685.38
577.13	685.26
577.49	684.98
577.84	684.50
578.19	684.27
578.54	684.21
578.90	684.23
579.25	683.96
579.60	683.56
579.95	682.97
580.30	682.64
580.66	682.53
581.01	682.13
581.36	681.56
581.71	681.07
582.06	680.91
582.42	680.47
582.77	679.82
583.12	679.52
583.47	679.01
583.82	678.72
584.17	678.26
584.53	677.94
584.88	677.45
585.23	677.14
585.58	676.61
585.93	675.94
586.28	675.50
586.63	675.08
586.98	674.76
587.34	674.39
587.69	673.82
588.04	673.08
588.39	672.72
588.74	671.99
589.09	671.77
589.44	670.90
589.79	670.48
590.14	669.87
590.49	669.05
590.84	668.22
591.19	667.71
591.54	667.06
591.89	665.79
592.25	665.17
592.60	664.06
592.95	662.98
593.30	661.87
593.65	660.62
594.00	659.38
594.35	659.29
594.70	658.19
595.05	657.25
595.40	656.18
595.75	654.90
596.10	654.07
596.45	652.79
596.80	651.94
597.15	650.99
597.50	649.97
597.85	649.05
598.19	648.09
598.54	646.85
598.89	645.76
599.24	645.07
599.59	643.89
599.94	643.12
600.29	642.18
600.64	641.23
600.99	640.21
601.34	639.46
601.69	637.39
602.04	636.35
602.39	635.41
602.74	634.40
603.08	633.60
603.43	632.83
603.78	632.07
604.13	630.94
604.48	629.96
604.83	629.11
605.18	628.32
605.53	627.20
605.87	626.08
606.22	625.35
606.57	624.12
606.92	622.95
607.27	621.74
607.62	620.73
607.96	619.92
608.31	619.01
608.66	617.67
609.01	616.41
609.36	615.32
609.70	613.94
610.05	612.55
610.40	611.11
610.75	609.61
611.10	608.20
611.44	606.73
611.79	605.11
612.14	603.54
612.49	601.71
612.83	600.39
613.18	598.84
613.53	596.98
613.88	595.34
614.22	593.87
614.57	592.28
614.92	590.61
615.27	588.90
615.61	587.17
615.96	585.61
616.31	584.21
616.65	582.62
617.00	581.05
617.35	579.67
617.70	578.01
618.04	576.22
618.39	574.15
618.74	572.36
619.08	570.56
619.43	568.84
619.78	567.19
620.12	565.39
620.47	563.65
620.82	561.68
621.16	559.81
621.51	558.04
621.85	556.21
622.20	554.36
622.55	552.31
622.89	550.40
623.24	548.57
623.59	546.61
623.93	544.74
624.28	542.90
624.62	541.28
624.97	539.68
625.32	537.96
625.66	536.37
626.01	534.65
626.35	532.96
626.70	531.05
627.04	529.57
627.39	527.85
627.73	526.15
628.08	524.82
628.43	523.11
628.77	521.31
629.12	519.54
629.46	518.06
629.81	516.52
630.15	514.80
630.50	512.88
630.84	511.10
631.19	509.33
631.53	507.65
631.88	505.52
632.22	503.50
632.57	501.91
632.91	500.18
633.26	498.66
633.60	496.95
633.95	495.58
634.29	493.63
634.64	492.07
634.98	490.32
635.32	488.62
635.67	487.08
636.01	485.48
636.36	483.75
636.70	481.98
637.05	480.28
637.39	478.65
637.73	477.41
638.08	476.09
638.42	474.59
638.77	473.12
639.11	471.56
639.45	470.02
639.80	468.09
640.14	466.55
640.49	464.65
640.83	462.95
641.17	461.14
641.52	459.41
641.86	457.54
642.20	455.99
642.55	454.01
642.89	452.30
643.23	450.61
643.58	449.27
643.92	447.51
644.26	445.84
644.61	444.34
644.95	442.45
645.29	440.66
645.64	438.97
645.98	437.05
646.32	435.42
646.66	433.68
647.01	432.04
647.35	430.29
647.69	428.64
648.04	427.10
648.38	425.48
648.72	423.78
649.06	422.22
649.41	420.47
649.75	418.95
650.09	417.45
650.43	415.74
650.78	414.00
651.12	412.41
651.46	410.77
651.80	409.13
652.14	407.68
652.49	406.13
652.83	404.53
653.17	402.98
653.51	401.27
653.85	399.83
654.20	398.45
654.54	396.96
654.88	395.33
655.22	393.73
655.56	392.14
655.90	390.78
656.25	389.15
656.59	387.65
656.93	386.14
657.27	384.69
657.61	383.13
657.95	381.53
658.29	380.05
658.64	378.74
658.98	377.20
659.32	375.51
659.66	373.92
660.00	372.41
660.34	370.98
660.68	369.58
661.02	367.97
661.36	366.43
661.70	364.97
662.05	363.75
662.39	362.47
662.73	361.25
663.07	359.99
663.41	358.85
663.75	357.56
664.09	356.24
664.43	354.72
664.77	353.52
665.11	352.25
665.45	351.01
665.79	349.70
666.13	348.38
666.47	347.14
666.81	346.00
667.15	344.61
667.49	343.52
667.83	342.46
668.17	341.34
668.51	340.22
668.85	339.17
669.19	338.17
669.53	336.91
669.87	335.65
670.21	334.45
670.55	333.20
670.89	332.30
671.23	331.21
671.57	330.28
671.91	329.27
672.25	328.21
672.58	327.14
672.92	325.97
673.26	325.07
673.60	324.14
673.94	323.03
674.28	322.10
674.62	321.10
674.96	320.09
675.30	319.12
675.64	318.17
675.97	317.12
676.31	316.06
676.65	315.13
676.99	314.38
677.33	313.43
677.67	312.49
678.01	311.32
678.34	310.43
678.68	309.61
679.02	308.58
679.36	307.71
679.70	306.80
680.04	305.97
680.37	304.95
680.71	304.10
681.05	303.35
681.39	302.62
681.73	301.82
682.06	300.89
682.40	300.07
682.74	299.22
683.08	298.57
683.42	297.64
683.75	296.83
684.09	295.84
684.43	295.07
684.77	294.25
685.10	293.46
685.44	292.76
685.78	291.83
686.12	291.15
686.45	290.44
686.79	289.62
687.13	288.91
687.46	288.20
687.80	287.40
688.14	286.54
688.48	285.75
688.81	284.90
689.15	284.28
689.49	283.60
689.82	282.90
690.16	281.95
690.50	281.22
690.83	280.47
691.17	279.74
691.51	278.87
691.84	278.20
692.18	277.46
692.52	276.64
692.85	276.01
693.19	275.42
693.52	274.65
693.86	273.99
694.20	273.29
694.53	272.62
694.87	271.90
695.21	271.23
695.54	270.58
695.88	269.99
696.21	269.29
696.55	268.66
696.88	268.01
697.22	267.41
697.56	266.93
697.89	266.37
698.23	265.77
698.56	265.23
698.90	264.71
699.23	264.22
699.57	263.68
699.90	263.11
700.24	262.47
700.58	261.95
700.91	261.45
701.25	261.14
701.58	260.71
701.92	260.31
702.25	259.89
702.59	259.38
702.92	258.78
703.26	258.23
703.59	257.76
703.93	257.54
704.26	257.09
704.60	256.56
704.93	255.98
705.26	255.48
705.60	255.15
705.93	254.59
706.27	254.20
706.60	253.86
706.94	253.49
707.27	252.91
707.61	252.46
707.94	252.00
708.27	251.31
708.61	250.85
708.94	250.39
709.28	249.96
709.61	249.50
709.94	249.15
710.28	248.73
710.61	248.35
710.95	247.65
711.28	247.51
711.61	247.12
711.95	246.92
712.28	246.61
712.61	246.16
712.95	246.05
713.28	245.80
713.61	245.25
713.95	244.81
714.28	244.55
714.61	244.30
714.95	243.96
715.28	243.61
715.61	243.22
715.95	242.93
716.28	242.50
716.61	242.12
716.95	241.76
717.28	241.45
717.61	241.11
717.94	240.80
718.28	240.24
718.61	239.90
718.94	239.50
719.27	239.10
719.61	238.87
719.94	238.42
720.27	237.89
720.60	237.74
720.94	237.55
721.27	237.21
721.60	236.96
721.93	236.68
722.27	236.51
722.60	236.33
722.93	236.00
723.26	235.87
723.59	235.68
723.93	235.52
724.26	235.37
724.59	235.13
724.92	234.99
725.25	234.83
725.59	234.65
725.92	234.46
726.25	234.32
726.58	234.03
726.91	233.79
727.24	233.72
727.57	233.36
727.91	233.01
728.24	232.90
728.57	232.56
728.90	232.45
729.23	232.11
729.56	232.01
729.89	231.86
730.22	231.55
730.55	231.31
730.89	230.96
731.22	230.72
731.55	230.47
731.88	230.26
732.21	230.02
732.54	229.83
732.87	229.71
733.20	229.53
733.53	229.37
733.86	229.22
734.19	228.95
734.52	228.89
734.85	229.01
735.18	228.73
735.51	228.67
735.84	228.50
736.17	228.41
736.50	228.09
736.83	228.38
737.16	228.27
737.49	228.10
737.82	228.00
738.15	227.84
738.48	227.70
738.81	227.48
739.14	227.28
739.47	227.09
739.80	226.83
740.13	226.68
740.46	226.45
740.79	226.28
741.12	226.08
741.45	225.84
741.78	225.49
742.11	225.50
742.44	225.29
742.77	225.16
743.10	225.04
743.43	224.92
743.75	224.41
744.08	224.67
744.41	224.54
744.74	224.43
745.07	224.27
745.40	224.23
745.73	224.30
746.06	224.18
746.39	224.10
746.71	223.86
747.04	223.71
747.37	223.68
747.70	223.58
748.03	223.56
748.36	223.50
748.68	223.33
749.01	223.12
749.34	222.97
749.67	222.84
750.00	222.78
750.33	222.86
750.65	222.70
750.98	222.15
751.31	222.14
751.64	221.98
751.97	222.11
752.29	221.95
752.62	221.63
752.95	221.57
753.28	221.39
753.60	221.44
753.93	221.43
754.26	221.27
754.59	221.06
754.91	220.89
755.24	220.83
755.57	220.78
755.90	220.65
756.22	220.53
756.55	220.34
756.88	220.15
757.20	219.85
757.53	219.63
757.86	219.59
758.19	219.50
758.51	219.43
758.84	219.16
759.17	219.02
759.49	219.03
759.82	219.05
760.15	219.08
760.47	218.86
760.80	218.59
761.13	218.55
761.45	218.55
761.78	218.49
762.11	218.41
762.43	218.29
762.76	218.27
763.08	218.28
763.41	218.25
763.74	218.19
764.06	218.07
764.39	218.13
764.71	218.06
765.04	217.88
765.37	217.83
765.69	217.68
766.02	217.68
766.34	217.56
766.67	217.31
767.00	217.23
767.32	217.40
767.65	217.69
767.97	217.56
768.30	217.50
768.62	217.45
768.95	217.36
769.27	217.30
769.60	217.26
769.92	217.13
770.25	217.04
770.57	216.93
770.90	216.90
771.22	216.73
771.55	216.66
771.87	216.68
772.20	216.58
772.52	216.85
772.85	217.17
773.17	217.10
773.50	217.09
773.82	216.98
774.15	216.80
774.47	216.47
774.80	216.44
775.12	216.33
775.45	216.27
775.77	216.18
776.09	216.14
776.42	216.06
776.74	216.18
777.07	216.10
777.39	216.07
777.72	216.00
778.04	216.06
778.36	215.94
778.69	215.90
779.01	215.85
779.33	215.55
779.66	215.13
779.98	215.04
780.31	215.05
780.63	215.15
780.95	215.15
781.28	215.07
781.60	214.98
781.92	214.95
782.25	214.88
782.57	214.89
782.89	214.86
783.22	214.83
783.54	214.63
783.86	214.59
784.19	214.57
784.51	214.64
784.83	214.54
785.16	214.58
785.48	214.48
785.80	214.53
786.12	214.53
786.45	214.46
786.77	214.58
787.09	214.44
787.42	214.24
787.74	214.18
788.06	214.17
788.38	214.12
788.71	214.18
789.03	214.22
789.35	214.27
789.67	214.15
789.99	214.19
790.32	214.18
790.64	214.18
790.96	214.48
791.28	214.34
791.61	214.32
791.93	214.27
792.25	214.31
792.57	214.52
792.89	214.37
793.21	214.32
793.54	214.13
793.86	214.17
794.18	214.17
794.50	214.15
794.82	214.19
795.14	214.21
795.47	214.23
795.79	214.14
796.11	214.08
796.43	214.10
796.75	214.04
797.07	214.07
797.39	214.10
797.71	213.79
798.04	213.80
798.36	213.75
798.68	213.71
799.00	213.68
799.32	213.44
799.64	213.49
799.96	213.55
800.28	213.60
800.60	213.52
800.92	213.54
801.24	213.50
801.56	213.51
801.89	213.53
802.21	213.45
802.53	213.40
802.85	213.39
803.17	213.54
803.49	213.47
803.81	213.37
804.13	213.29
804.45	213.27
804.77	213.32
805.09	213.35
805.41	213.28
805.73	213.20
806.05	213.13
806.37	213.15
806.69	213.09
807.01	213.08
807.33	213.07
807.65	213.01
807.97	213.12
808.28	213.06
808.60	213.03
808.92	213.00
809.24	213.20
809.56	213.17
809.88	213.02
810.20	213.05
810.52	213.15
810.84	213.09
811.16	213.04
811.48	212.91
811.80	213.04
812.12	213.06
812.43	213.12
812.75	213.12
813.07	213.10
813.39	213.14
813.71	213.09
814.03	213.01
814.35	213.00
814.67	212.87
814.98	212.84
815.30	212.82
815.62	212.75
815.94	212.55
816.26	212.55
816.58	212.50
816.89	212.50
817.21	212.44
817.53	212.51
817.85	212.53
818.17	212.57
818.48	212.43
818.80	212.46
819.12	212.31
819.44	212.30
819.76	212.25
820.07	212.17
820.39	212.26
820.71	212.31
821.03	212.25
821.34	212.24
821.66	212.27
821.98	212.30
822.30	212.32
822.61	212.49
822.93	212.35
823.25	212.33
823.57	212.29
823.88	212.28
824.20	212.22
824.52	212.28
824.83	212.28
825.15	212.21
825.47	212.23
825.79	212.28
826.10	212.25
826.42	212.19
826.74	212.27
827.05	212.23
827.37	212.26
827.69	212.30
828.00	212.24
828.32	212.20
828.64	212.19
828.95	212.32
829.27	212.14
829.58	212.16
829.90	212.15
830.22	212.19
830.53	212.14
830.85	212.11
831.17	211.97
831.48	211.97
831.80	211.95
832.11	211.93
832.43	211.93
832.75	211.93
833.06	212.26
833.38	212.14
833.69	212.03
834.01	212.03
834.32	212.03
834.64	212.00
834.96	211.99
835.27	211.95
835.59	211.85
835.90	211.90
836.22	211.89
836.53	211.83
836.85	211.80
837.16	212.20
837.48	212.23
837.79	212.35
838.11	212.34
838.42	212.40
838.74	212.44
839.05	212.44
839.37	212.37
839.68	212.05
840.00	212.03
840.31	212.10
840.63	212.08
840.94	212.06
841.26	212.00
841.57	212.11
841.88	212.13
842.20	212.07
842.51	211.97
842.83	211.98
843.14	212.29
843.46	212.29
843.77	212.01
844.08	211.98
844.40	211.92
844.71	211.90
845.03	211.90
845.34	211.84
845.65	211.80
845.97	211.84
846.28	211.88
846.60	211.91
846.91	211.85
847.22	211.81
847.54	211.87
847.85	211.93
848.16	211.87
848.48	211.81
848.79	212.01
849.10	212.06
849.42	212.10
849.73	211.77
850.04	211.66
850.36	211.54
850.67	211.61
850.98	211.56
851.30	211.60
851.61	211.46
851.92	211.50
852.23	211.58
852.55	211.54
852.86	211.55
853.17	211.57
853.49	211.58
853.80	211.65
854.11	211.63
854.42	211.61
854.74	211.57
855.05	211.56
855.36	211.31
855.67	211.25
855.99	211.34
856.30	211.75
856.61	211.81
856.92	211.92
857.23	211.84
857.55	211.81
857.86	211.68
858.17	211.78
858.48	211.70
858.79	211.65
859.11	211.72
859.42	211.70
859.73	211.63
860.04	211.67
860.35	211.56
860.66	211.49
860.98	211.48
861.29	211.49
861.60	211.46
861.91	211.52
862.22	211.46
862.53	211.31
862.84	210.92
863.16	210.97
863.47	210.82
863.78	210.87
864.09	210.89
864.40	210.87
864.71	210.86
865.02	210.82
865.33	210.78
865.64	210.71
865.95	210.70
866.27	210.94
866.58	210.87
866.89	210.88
867.20	210.94
867.51	210.92
867.82	210.87
868.13	210.96
868.44	210.88
868.75	210.99
869.06	211.02
869.37	211.00
869.68	210.89
869.99	210.97
870.30	210.93
870.61	210.96
870.92	210.94
871.23	210.93
871.54	210.97
871.85	211.02
872.16	211.04
872.47	211.01
872.78	210.75
873.09	210.87
873.40	210.81
873.71	210.77
874.02	210.78
874.33	210.75
874.64	210.70
874.95	210.78
875.26	210.77
875.56	210.74
875.87	210.84
876.18	210.82
876.49	211.11
876.80	211.08
877.11	211.06
877.42	211.05
877.73	211.10
878.04	211.09
878.35	211.09
878.66	211.01
878.96	211.11
879.27	211.16
879.58	211.01
879.89	211.08
880.20	211.17
880.51	211.26
880.82	211.32
881.12	211.27
881.43	211.18
881.74	211.08
882.05	211.10
882.36	211.03
882.67	211.09
882.97	210.79
883.28	210.82
883.59	210.83
883.90	210.90
884.21	210.97
884.51	210.99
884.82	210.97
885.13	211.01
885.44	210.96
885.74	210.97
886.05	211.00
886.36	210.99
886.67	210.86
886.98	211.00
887.28	210.97
887.59	211.05
887.90	211.07
888.20	211.10
888.51	211.15
888.82	211.14
889.13	211.21
889.43	211.44
889.74	211.41
890.05	211.38
890.35	211.43
890.66	211.33
890.97	211.22
891.28	211.25
891.58	211.22
891.89	211.24
892.20	211.23
892.50	211.26
892.81	211.24
893.12	211.26
893.42	211.14
893.73	211.11
894.04	211.10
894.34	211.17
894.65	211.20
894.95	211.15
895.26	211.20
895.57	211.30
895.87	210.98
896.18	211.09
896.48	211.17
896.79	211.10
897.10	211.08
897.40	211.12
897.71	211.13
898.01	211.16
898.32	211.17
898.63	211.17
898.93	211.18
899.24	211.20
899.54	211.17
899.85	211.10
900.15	211.18
900.46	211.16
900.76	211.16
901.07	211.18
901.38	211.10
901.68	211.08
901.99	210.97
902.29	211.05
902.60	210.99
902.90	210.96
903.21	211.05
903.51	211.11
903.82	211.25
904.12	211.21
904.43	211.27
904.73	211.21
905.03	211.18
905.34	211.45
905.64	211.43
905.95	211.46
906.25	211.46
906.56	211.40
906.86	211.43
907.17	211.43
907.47	211.40
907.77	211.40
908.08	211.39
908.38	211.38
908.69	211.38
908.99	211.44
909.30	211.40
909.60	211.35
909.90	211.36
910.21	211.21
910.51	211.18
910.81	211.21
911.12	211.26
911.42	211.27
911.73	210.97
912.03	210.98
912.33	211.00
912.64	210.95
912.94	210.94
913.24	210.83
913.55	210.75
913.85	210.72
914.15	210.87
914.46	210.92
914.76	210.88
915.06	210.81
915.37	210.78
915.67	210.72
915.97	210.66
916.27	210.61
916.58	210.64
916.88	210.57
917.18	210.57
917.49	210.76
917.79	210.80
918.09	210.87
918.39	210.99
918.70	210.99
919.00	211.01
919.30	211.22
919.60	211.23
919.91	211.25
920.21	211.27
920.51	211.13
920.81	211.09
921.12	211.10
921.42	211.15
921.72	211.12
922.02	211.17
922.32	211.23
922.63	211.25
922.93	211.41
923.23	211.52
923.53	211.41
923.83	211.16
924.13	211.21
924.44	211.15
924.74	211.15
925.04	211.28
925.34	211.26
925.64	211.05
925.94	211.03
926.24	211.20
926.55	211.20
926.85	211.30
927.15	211.37
927.45	211.33
927.75	211.28
928.05	211.28
928.35	211.28
928.65	211.35
928.95	211.37
929.26	211.17
929.56	211.14
929.86	211.26
930.16	211.32
930.46	211.32
930.76	211.39
931.06	211.28
931.36	211.14
931.66	211.30
931.96	211.37
932.26	211.41
932.56	211.31
932.86	211.31
933.16	211.30
933.46	211.19
933.76	211.18
934.06	211.23
934.36	211.32
934.66	211.30
934.96	211.27
935.26	211.29
935.56	211.51
935.86	211.52
936.16	211.44
936.46	211.44
936.76	211.40
937.06	211.25
937.36	211.31
937.66	211.34
937.96	211.22
938.26	211.22
938.56	211.22
938.86	211.31
939.16	211.41
939.46	211.51
939.76	211.55
940.06	211.63
940.35	211.69
940.65	211.58
940.95	211.59
941.25	211.56
941.55	211.59
941.85	211.54
942.15	211.62
942.45	211.71
942.75	211.67
943.04	211.71
943.34	211.87
943.64	211.75
943.94	211.73
944.24	211.77
944.54	211.72
944.84	211.74
945.13	211.66
945.43	211.57
945.73	211.48
946.03	211.41
946.33	211.34
946.62	211.23
946.92	211.13
947.22	211.27
947.52	211.25
947.82	211.22
948.11	211.18
948.41	211.07
948.71	210.96
949.01	210.95
949.31	210.86
949.60	210.82
949.90	210.92
950.20	210.91
950.50	210.87
950.79	210.87
951.09	210.90
951.39	210.87
951.69	210.83
951.98	210.84
952.28	210.95
952.58	210.94
952.87	210.90
953.17	211.05
953.47	210.89
953.76	210.87
954.06	210.80
954.36	210.70
954.66	210.70
954.95	210.87
955.25	210.90
955.55	210.91
955.84	210.90
956.14	210.91
956.44	210.91
956.73	210.90
957.03	210.91
957.32	210.89
957.62	210.88
957.92	210.95
958.21	210.96
958.51	211.24
958.81	211.24
959.10	211.31
959.40	211.37
959.69	211.43
959.99	211.55
960.29	211.59
960.58	211.60
960.88	211.77
961.17	211.67
961.47	211.76
961.76	211.73
962.06	211.81
962.36	211.78
962.65	211.78
962.95	211.82
963.24	211.78
963.54	211.80
963.83	211.78
964.13	211.78
964.42	211.72
964.72	211.42
965.01	211.47
965.31	211.50
965.60	211.33
965.90	211.48
966.19	211.40
966.49	211.40
966.78	211.46
967.08	211.37
967.37	211.33
967.67	211.23
967.96	211.36
968.26	211.18
968.55	211.23
968.85	211.27
969.14	211.27
969.43	211.28
969.73	211.27
970.02	211.30
970.32	211.32
970.61	211.30
970.91	211.32
971.20	211.21
971.49	211.18
971.79	211.25
972.08	211.00
972.38	210.98
972.67	210.99
972.96	210.97
973.26	210.87
973.55	211.00
973.85	210.98
974.14	210.88
974.43	211.06
974.73	211.01
975.02	210.94
975.31	210.88
975.61	210.95
975.90	210.91
976.19	210.86
976.49	210.86
976.78	210.92
977.07	210.89
977.37	210.97
977.66	211.00
977.95	210.95
978.24	211.09
978.54	211.18
978.83	211.14
979.12	211.17
979.42	211.25
979.71	211.16
980.00	211.19
980.29	211.22
980.59	211.09
980.88	211.08
981.17	211.08
981.46	211.07
981.76	211.06
982.05	211.15
982.34	211.14
982.63	211.07
982.93	211.01
983.22	211.10
983.51	211.05
983.80	211.14
984.09	211.22
984.39	211.14
984.68	211.04
984.97	211.02
985.26	210.92
985.55	210.97
985.85	210.91
986.14	210.92
986.43	211.00
986.72	211.01
987.01	210.95
987.30	210.90
987.59	210.92
987.89	210.87
988.18	210.74
988.47	210.70
988.76	210.73
989.05	210.70
989.34	210.60
989.63	210.68
989.92	210.56
990.22	210.45
990.51	210.45
990.80	210.37
991.09	210.37
991.38	210.45
991.67	210.35
991.96	210.32
992.25	210.36
992.54	210.18
992.83	210.09
993.12	210.09
993.41	210.19
993.70	210.30
993.99	210.37
994.28	210.42
994.58	210.45
994.87	210.40
995.16	210.38
995.45	210.40
995.74	210.28
996.03	210.35
996.32	210.49
996.61	210.53
996.90	210.64
997.19	210.67
997.48	210.63
997.77	210.62
998.06	210.64
998.34	210.53
998.63	210.64
998.92	210.68
999.21	210.72
999.50	210.65
999.79	210.52
1000.08	210.41
1000.37	210.46
1000.66	210.48
1000.95	210.56
1001.24	210.55
1001.53	210.60
1001.82	210.72
1002.11	210.61
1002.40	210.58
1002.68	210.68
1002.97	210.88
1003.26	210.87
1003.55	210.80
1003.84	210.82
1004.13	210.95
1004.42	210.93
1004.71	210.81
1004.99	210.86
1005.28	210.99
1005.57	211.05
1005.86	211.04
1006.15	211.13
1006.44	211.04
1006.72	211.15
1007.01	211.13
1007.30	211.25
1007.59	211.20
1007.88	211.15
1008.17	211.23
1008.45	211.19
1008.74	211.02
1009.03	210.90
1009.32	210.87
1009.60	210.95
1009.89	210.92
1010.18	210.80
1010.47	210.84
1010.76	210.95
1011.04	210.92
1011.33	211.27
1011.62	211.22
1011.91	211.32
1012.19	211.40
1012.48	211.43
1012.77	211.41
1013.05	211.52
1013.34	211.50
1013.63	211.46
1013.92	211.49
1014.20	211.43
1014.49	211.44
1014.78	211.49
1015.06	211.36
1015.35	211.41
1015.64	211.46
1015.92	211.46
1016.21	211.47
1016.50	211.52
1016.78	211.59
1017.07	211.67
1017.36	211.29
1017.64	211.26
1017.93	211.23
1018.22	211.18
1018.50	211.23
1018.79	211.19
1019.08	211.08
1019.36	211.10
1019.65	211.09
1019.93	211.19
1020.22	211.20
1020.51	211.42
1020.79	211.34
1021.08	211.40
1021.36	211.60
1021.65	210.90
1021.94	211.15
1022.22	211.85
1022.51	210.15
1022.79	212.95
1023.08	210.70
1023.36	215.75
1023.65	209.05
>>>>>End Processed Spectral Data<<<<<
