SpectraSuite Data File
++++++++++++++++++++++++++++++++++++
Date: Mon Feb 25 17:03:49 EST 2013
User: group
Dark Spectrum Present: No
Reference Spectrum Present: No
Number of Sampled Component Spectra: 1
Spectrometers: USB2E7196
Integration Time (usec): 104000 (USB2E7196)
Spectra Averaged: 20 (USB2E7196)
Boxcar Smoothing: 10 (USB2E7196)
Correct for Electrical Dark: No (USB2E7196)
Strobe/Lamp Enabled: No (USB2E7196)
Correct for Detector Non-linearity: No (USB2E7196)
Correct for Stray Light: No (USB2E7196)
Number of Pixels in Processed Spectrum: 2048
>>>>>Begin Processed Spectral Data<<<<<
339.09	0.00
339.48	198.00
339.86	200.20
340.24	201.80
340.63	202.20
341.01	209.25
341.39	205.45
341.78	206.75
342.16	209.50
342.54	209.55
342.93	198.31
343.31	208.30
343.69	208.84
344.07	209.26
344.46	209.61
344.84	209.99
345.22	210.00
345.60	210.12
345.99	210.26
346.37	210.25
346.75	210.30
347.13	210.29
347.52	210.35
347.90	210.49
348.28	210.52
348.66	210.57
349.05	210.47
349.43	210.48
349.81	210.47
350.19	210.44
350.57	210.42
350.96	210.53
351.34	210.63
351.72	210.73
352.10	210.83
352.48	210.95
352.87	211.01
353.25	211.05
353.63	211.16
354.01	211.24
354.39	211.31
354.77	211.37
355.15	211.56
355.54	211.50
355.92	211.42
356.30	211.36
356.68	211.59
357.06	211.65
357.44	211.67
357.82	211.70
358.20	211.81
358.58	211.91
358.97	211.91
359.35	212.03
359.73	212.13
360.11	212.11
360.49	212.19
360.87	212.25
361.25	212.35
361.63	212.58
362.01	212.72
362.39	212.79
362.77	212.81
363.15	212.78
363.53	212.83
363.91	212.90
364.29	213.03
364.67	212.80
365.05	212.77
365.43	212.84
365.81	212.90
366.19	213.00
366.57	213.11
366.95	213.11
367.33	212.99
367.71	212.98
368.09	213.10
368.47	213.04
368.85	212.97
369.23	213.06
369.61	212.94
369.99	212.95
370.37	213.00
370.75	213.15
371.13	213.02
371.51	212.97
371.89	212.96
372.27	212.91
372.65	212.89
373.03	212.91
373.41	212.86
373.78	212.83
374.16	212.66
374.54	212.57
374.92	212.50
375.30	212.48
375.68	212.40
376.06	212.38
376.44	212.39
376.82	212.43
377.19	212.35
377.57	212.26
377.95	212.07
378.33	211.96
378.71	211.72
379.09	211.76
379.47	211.75
379.84	211.68
380.22	211.61
380.60	211.51
380.98	211.42
381.36	211.36
381.73	211.22
382.11	211.31
382.49	211.26
382.87	211.18
383.25	211.16
383.62	211.48
384.00	211.32
384.38	211.23
384.76	211.29
385.13	211.43
385.51	211.37
385.89	211.41
386.27	211.37
386.64	211.38
387.02	211.36
387.40	211.27
387.78	211.29
388.15	211.32
388.53	211.25
388.91	211.20
389.29	211.15
389.66	211.21
390.04	211.11
390.42	211.15
390.79	211.20
391.17	211.15
391.55	210.78
391.92	210.78
392.30	210.79
392.68	210.64
393.05	210.54
393.43	210.60
393.81	210.55
394.18	210.48
394.56	210.54
394.94	210.57
395.31	210.56
395.69	210.62
396.06	210.67
396.44	210.68
396.82	210.72
397.19	210.95
397.57	210.90
397.95	210.93
398.32	210.79
398.70	210.80
399.07	210.84
399.45	210.85
399.82	210.83
400.20	210.85
400.58	210.81
400.95	210.73
401.33	210.75
401.70	210.99
402.08	211.07
402.45	211.01
402.83	211.12
403.20	211.21
403.58	211.16
403.95	211.23
404.33	211.34
404.71	211.48
405.08	211.69
405.46	211.81
405.83	211.92
406.21	212.09
406.58	212.25
406.96	212.37
407.33	212.57
407.70	212.88
408.08	213.31
408.45	213.66
408.83	213.95
409.20	214.16
409.58	214.21
409.95	214.58
410.33	214.94
410.70	215.17
411.08	215.51
411.45	215.93
411.82	216.25
412.20	216.77
412.57	217.40
412.95	217.53
413.32	218.18
413.69	218.71
414.07	219.27
414.44	219.85
414.82	220.52
415.19	221.29
415.56	222.03
415.94	222.68
416.31	223.55
416.68	224.39
417.06	225.46
417.43	226.57
417.81	227.72
418.18	229.01
418.55	230.28
418.93	231.68
419.30	233.17
419.67	234.69
420.04	236.30
420.42	237.85
420.79	239.99
421.16	241.72
421.54	243.85
421.91	245.90
422.28	248.15
422.66	250.47
423.03	252.81
423.40	255.19
423.77	257.59
424.15	260.09
424.52	262.83
424.89	265.71
425.26	268.42
425.64	271.13
426.01	273.88
426.38	276.98
426.75	280.21
427.13	283.41
427.50	286.91
427.87	290.34
428.24	293.93
428.61	297.17
428.99	301.03
429.36	305.00
429.73	308.99
430.10	312.93
430.47	317.10
430.85	321.34
431.22	325.86
431.59	330.76
431.96	335.34
432.33	340.44
432.70	345.32
433.08	351.18
433.45	356.58
433.82	362.20
434.19	368.27
434.56	374.25
434.93	379.97
435.30	385.78
435.68	392.16
436.05	398.44
436.42	404.68
436.79	410.55
437.16	416.77
437.53	423.51
437.90	430.07
438.27	436.53
438.64	443.10
439.01	449.38
439.38	455.06
439.75	460.68
440.13	466.91
440.50	472.79
440.87	477.73
441.24	482.78
441.61	488.27
441.98	492.58
442.35	497.42
442.72	502.41
443.09	507.11
443.46	510.25
443.83	512.51
444.20	514.53
444.57	517.11
444.94	518.60
445.31	520.11
445.68	521.92
446.05	522.81
446.42	522.70
446.79	522.31
447.16	521.81
447.53	521.50
447.90	519.46
448.27	517.60
448.64	514.66
449.01	512.75
449.37	508.88
449.74	505.04
450.11	500.65
450.48	495.51
450.85	490.22
451.22	485.73
451.59	481.44
451.96	477.38
452.33	471.81
452.70	466.83
453.07	460.69
453.43	454.20
453.80	448.26
454.17	442.57
454.54	437.28
454.91	431.48
455.28	425.77
455.65	420.44
456.02	415.50
456.38	410.86
456.75	405.13
457.12	400.43
457.49	395.77
457.86	390.98
458.23	387.19
458.59	382.92
458.96	378.64
459.33	374.73
459.70	370.88
460.07	367.91
460.43	364.35
460.80	361.02
461.17	358.27
461.54	355.27
461.91	352.35
462.27	349.31
462.64	346.84
463.01	344.18
463.38	341.64
463.74	338.51
464.11	336.20
464.48	334.22
464.85	331.95
465.21	330.21
465.58	328.37
465.95	326.02
466.32	324.25
466.68	322.25
467.05	320.41
467.42	318.53
467.78	316.48
468.15	314.70
468.52	313.41
468.88	311.53
469.25	309.87
469.62	308.68
469.98	307.31
470.35	305.91
470.72	304.64
471.08	303.12
471.45	302.03
471.82	300.91
472.18	299.55
472.55	298.63
472.92	297.51
473.28	296.57
473.65	295.67
474.02	294.69
474.38	293.92
474.75	293.23
475.11	292.54
475.48	292.04
475.85	291.46
476.21	290.85
476.58	290.31
476.94	289.88
477.31	289.32
477.67	288.92
478.04	288.62
478.41	288.33
478.77	288.42
479.14	288.10
479.50	287.85
479.87	287.76
480.23	287.67
480.60	287.43
480.96	287.14
481.33	287.36
481.69	287.36
482.06	287.44
482.42	287.47
482.79	287.56
483.15	287.62
483.52	287.88
483.88	288.04
484.25	288.21
484.61	288.45
484.98	288.67
485.34	289.11
485.71	289.41
486.07	289.78
486.44	289.84
486.80	290.29
487.17	290.71
487.53	291.34
487.90	291.85
488.26	292.67
488.62	293.55
488.99	293.98
489.35	294.75
489.72	295.49
490.08	296.34
490.44	297.03
490.81	297.93
491.17	298.72
491.54	299.72
491.90	300.74
492.26	301.65
492.63	302.67
492.99	303.59
493.36	304.68
493.72	305.80
494.08	306.99
494.45	308.20
494.81	309.50
495.17	310.71
495.54	312.13
495.90	313.36
496.26	314.54
496.63	315.93
496.99	317.36
497.35	318.76
497.72	320.17
498.08	321.62
498.44	323.03
498.80	324.59
499.17	325.95
499.53	327.40
499.89	329.03
500.26	330.58
500.62	332.00
500.98	333.58
501.34	334.99
501.71	336.52
502.07	337.88
502.43	339.17
502.79	340.40
503.16	341.61
503.52	342.82
503.88	344.03
504.24	345.30
504.60	346.36
504.97	347.56
505.33	348.58
505.69	349.93
506.05	351.06
506.41	351.95
506.78	352.90
507.14	353.79
507.50	354.67
507.86	355.55
508.22	356.45
508.59	357.06
508.95	357.86
509.31	358.71
509.67	359.42
510.03	360.19
510.39	360.85
510.75	361.50
511.12	362.07
511.48	362.64
511.84	363.08
512.20	363.62
512.56	364.07
512.92	364.60
513.28	364.85
513.64	365.13
514.00	365.47
514.37	365.86
514.73	366.22
515.09	366.46
515.45	366.57
515.81	366.71
516.17	366.96
516.53	367.09
516.89	366.97
517.25	367.09
517.61	367.21
517.97	367.25
518.33	367.22
518.69	367.30
519.05	367.44
519.41	367.55
519.77	367.75
520.13	367.80
520.49	367.70
520.85	367.81
521.21	367.98
521.57	368.04
521.93	368.01
522.29	368.06
522.65	368.11
523.01	368.41
523.37	368.65
523.73	368.89
524.09	369.16
524.45	369.56
524.81	369.86
525.17	370.26
525.53	370.80
525.89	371.31
526.25	371.99
526.61	372.40
526.97	373.01
527.33	373.64
527.68	374.64
528.04	375.48
528.40	376.20
528.76	376.97
529.12	377.88
529.48	378.97
529.84	380.06
530.20	381.16
530.56	382.21
530.91	383.49
531.27	384.68
531.63	385.98
531.99	387.20
532.35	388.64
532.71	389.96
533.07	391.41
533.42	393.24
533.78	394.76
534.14	396.56
534.50	398.01
534.86	399.68
535.21	401.09
535.57	402.96
535.93	404.69
536.29	406.80
536.65	408.80
537.00	410.63
537.36	412.53
537.72	414.50
538.08	416.56
538.44	418.45
538.79	420.61
539.15	422.78
539.51	425.00
539.87	427.18
540.22	429.55
540.58	431.91
540.94	433.99
541.29	436.31
541.65	438.47
542.01	441.04
542.37	443.60
542.72	446.20
543.08	448.58
543.44	451.13
543.79	453.33
544.15	455.95
544.51	458.78
544.87	461.60
545.22	464.36
545.58	467.10
545.94	469.91
546.29	472.50
546.65	475.14
547.01	477.83
547.36	480.64
547.72	483.34
548.07	486.00
548.43	488.57
548.79	490.98
549.14	493.77
549.50	496.50
549.86	498.86
550.21	501.48
550.57	504.22
550.92	506.85
551.28	509.67
551.64	512.24
551.99	514.81
552.35	517.10
552.70	519.54
553.06	522.08
553.41	524.60
553.77	527.42
554.13	530.03
554.48	532.78
554.84	535.47
555.19	537.91
555.55	540.55
555.90	543.05
556.26	545.68
556.61	548.02
556.97	550.26
557.32	552.76
557.68	554.92
558.03	557.21
558.39	559.54
558.74	561.80
559.10	564.05
559.45	566.29
559.81	568.80
560.16	570.93
560.52	573.11
560.87	575.41
561.23	577.26
561.58	579.75
561.94	581.75
562.29	583.45
562.64	585.56
563.00	587.41
563.35	589.58
563.71	591.62
564.06	593.64
564.42	595.78
564.77	597.87
565.12	600.01
565.48	602.11
565.83	604.05
566.19	605.97
566.54	607.71
566.89	609.46
567.25	611.47
567.60	613.52
567.96	615.39
568.31	617.08
568.66	618.92
569.02	620.03
569.37	621.17
569.72	622.60
570.08	624.01
570.43	625.35
570.78	626.53
571.14	627.51
571.49	628.45
571.84	629.47
572.20	630.34
572.55	631.22
572.90	631.71
573.26	632.46
573.61	633.04
573.96	633.60
574.31	634.11
574.67	634.17
575.02	634.17
575.37	634.22
575.72	634.31
576.08	634.40
576.43	634.51
576.78	634.90
577.13	635.20
577.49	635.23
577.84	635.34
578.19	635.60
578.54	636.06
578.90	636.63
579.25	636.72
579.60	636.69
579.95	636.64
580.30	636.88
580.66	637.07
581.01	637.09
581.36	637.19
581.71	637.20
582.06	637.40
582.42	637.48
582.77	637.56
583.12	637.47
583.47	637.48
583.82	637.65
584.17	637.64
584.53	637.77
584.88	637.71
585.23	637.80
585.58	637.43
585.93	637.15
586.28	636.80
586.63	636.62
586.98	636.50
587.34	636.47
587.69	636.12
588.04	635.80
588.39	635.53
588.74	635.08
589.09	634.75
589.44	634.11
589.79	634.02
590.14	633.58
590.49	633.19
590.84	632.64
591.19	632.16
591.54	631.73
591.89	630.68
592.25	630.14
592.60	629.20
592.95	628.43
593.30	627.53
593.65	626.79
594.00	625.79
594.35	626.03
594.70	625.01
595.05	624.20
595.40	623.21
595.75	622.32
596.10	621.68
596.45	620.93
596.80	620.36
597.15	619.47
597.50	618.53
597.85	617.71
598.19	616.84
598.54	616.02
598.89	615.32
599.24	614.93
599.59	614.17
599.94	613.50
600.29	612.89
600.64	612.21
600.99	611.28
601.34	610.55
601.69	608.69
602.04	607.83
602.39	606.96
602.74	606.27
603.08	605.71
603.43	605.09
603.78	604.09
604.13	603.11
604.48	602.20
604.83	601.63
605.18	601.13
605.53	600.28
605.87	599.36
606.22	598.28
606.57	597.22
606.92	596.03
607.27	595.02
607.62	594.03
607.96	593.14
608.31	592.30
608.66	591.40
609.01	590.26
609.36	589.22
609.70	588.12
610.05	586.81
610.40	585.48
610.75	584.12
611.10	583.20
611.44	581.70
611.79	580.36
612.14	578.88
612.49	577.07
612.83	575.73
613.18	574.24
613.53	572.72
613.88	571.10
614.22	569.71
614.57	568.20
614.92	566.60
615.27	565.12
615.61	563.56
615.96	562.04
616.31	560.65
616.65	559.31
617.00	557.76
617.35	556.31
617.70	554.72
618.04	552.86
618.39	550.99
618.74	549.64
619.08	548.11
619.43	546.56
619.78	545.21
620.12	543.78
620.47	542.24
620.82	540.59
621.16	538.89
621.51	537.35
621.85	535.74
622.20	534.10
622.55	532.37
622.89	530.60
623.24	528.98
623.59	527.21
623.93	525.57
624.28	523.97
624.62	522.63
624.97	521.10
625.32	519.75
625.66	518.30
626.01	516.76
626.35	515.15
626.70	513.47
627.04	511.95
627.39	510.30
627.73	508.69
628.08	507.26
628.43	505.80
628.77	504.19
629.12	502.63
629.46	501.15
629.81	499.43
630.15	497.87
630.50	496.13
630.84	494.50
631.19	492.80
631.53	491.18
631.88	489.22
632.22	487.47
632.57	485.95
632.91	484.30
633.26	482.70
633.60	481.12
633.95	479.51
634.29	477.71
634.64	476.19
634.98	474.46
635.32	473.01
635.67	471.59
636.01	469.99
636.36	468.44
636.70	466.95
637.05	465.48
637.39	464.09
637.73	462.66
638.08	461.43
638.42	459.96
638.77	458.61
639.11	457.19
639.45	455.71
639.80	453.93
640.14	452.35
640.49	450.74
640.83	448.98
641.17	447.50
641.52	445.99
641.86	444.35
642.20	442.95
642.55	441.07
642.89	439.38
643.23	437.80
643.58	436.42
643.92	434.75
644.26	433.17
644.61	431.62
644.95	430.04
645.29	428.29
645.64	426.75
645.98	425.08
646.32	423.55
646.66	421.81
647.01	420.36
647.35	418.87
647.69	417.31
648.04	416.14
648.38	414.61
648.72	413.05
649.06	411.46
649.41	409.91
649.75	408.50
650.09	407.05
650.43	405.54
650.78	403.74
651.12	402.17
651.46	400.67
651.80	399.16
652.14	397.72
652.49	396.44
652.83	394.88
653.17	393.37
653.51	391.85
653.85	390.60
654.20	389.16
654.54	387.65
654.88	386.16
655.22	384.54
655.56	383.00
655.90	381.57
656.25	380.05
656.59	378.60
656.93	377.13
657.27	375.79
657.61	374.24
657.95	372.95
658.29	371.55
658.64	370.33
658.98	369.01
659.32	367.51
659.66	365.98
660.00	364.59
660.34	363.15
660.68	361.76
661.02	360.32
661.36	358.89
661.70	357.55
662.05	356.26
662.39	355.16
662.73	354.09
663.07	353.01
663.41	351.86
663.75	350.51
664.09	349.28
664.43	347.88
664.77	346.74
665.11	345.49
665.45	344.34
665.79	343.16
666.13	341.87
666.47	340.76
666.81	339.60
667.15	338.46
667.49	337.45
667.83	336.42
668.17	335.29
668.51	334.30
668.85	333.18
669.19	332.30
669.53	331.05
669.87	329.89
670.21	328.70
670.55	327.65
670.89	326.80
671.23	325.91
671.57	325.05
671.91	324.10
672.25	323.18
672.58	322.28
672.92	321.18
673.26	320.15
673.60	319.21
673.94	318.21
674.28	317.34
674.62	316.51
674.96	315.52
675.30	314.71
675.64	313.73
675.97	312.88
676.31	311.86
676.65	311.05
676.99	310.20
677.33	309.30
677.67	308.40
678.01	307.41
678.34	306.39
678.68	305.59
679.02	304.68
679.36	303.79
679.70	302.94
680.04	302.10
680.37	301.32
680.71	300.42
681.05	299.72
681.39	298.93
681.73	298.00
682.06	297.27
682.40	296.50
682.74	295.73
683.08	295.03
683.42	294.18
683.75	293.47
684.09	292.63
684.43	291.83
684.77	290.98
685.10	290.21
685.44	289.44
685.78	288.53
686.12	287.91
686.45	287.12
686.79	286.35
687.13	285.72
687.46	284.97
687.80	284.42
688.14	283.51
688.48	282.81
688.81	282.15
689.15	281.59
689.49	280.77
689.82	280.17
690.16	279.38
690.50	278.66
690.83	277.79
691.17	277.01
691.51	276.29
691.84	275.68
692.18	275.05
692.52	274.45
692.85	273.95
693.19	273.29
693.52	272.64
693.86	271.95
694.20	271.25
694.53	270.66
694.87	269.88
695.21	269.34
695.54	268.69
695.88	268.03
696.21	267.24
696.55	266.68
696.88	266.02
697.22	265.35
697.56	264.91
697.89	264.39
698.23	263.96
698.56	263.38
698.90	262.90
699.23	262.37
699.57	261.84
699.90	261.19
700.24	260.55
700.58	260.14
700.91	259.72
701.25	259.55
701.58	259.09
701.92	258.71
702.25	258.22
702.59	257.69
702.92	257.28
703.26	256.85
703.59	256.48
703.93	256.26
704.26	255.90
704.60	255.34
704.93	254.82
705.26	254.33
705.60	253.98
705.93	253.45
706.27	253.11
706.60	252.86
706.94	252.62
707.27	252.24
707.61	251.81
707.94	251.31
708.27	250.52
708.61	250.08
708.94	249.65
709.28	249.27
709.61	248.85
709.94	248.45
710.28	248.04
710.61	247.59
710.95	246.92
711.28	246.74
711.61	246.48
711.95	246.22
712.28	245.82
712.61	245.49
712.95	245.32
713.28	245.14
713.61	244.74
713.95	244.31
714.28	244.02
714.61	243.58
714.95	243.34
715.28	242.99
715.61	242.64
715.95	242.30
716.28	241.90
716.61	241.63
716.95	241.20
717.28	240.89
717.61	240.56
717.94	240.28
718.28	239.79
718.61	239.39
718.94	239.09
719.27	238.78
719.61	238.52
719.94	238.03
720.27	237.50
720.60	237.14
720.94	236.84
721.27	236.59
721.60	236.49
721.93	236.16
722.27	236.07
722.60	235.85
722.93	235.61
723.26	235.40
723.59	235.13
723.93	235.01
724.26	234.76
724.59	234.51
724.92	234.31
725.25	234.20
725.59	234.04
725.92	233.81
726.25	233.67
726.58	233.35
726.91	233.29
727.24	233.11
727.57	232.83
727.91	232.58
728.24	232.39
728.57	232.10
728.90	231.92
729.23	231.59
729.56	231.56
729.89	231.42
730.22	231.22
730.55	231.04
730.89	230.78
731.22	230.56
731.55	230.43
731.88	230.21
732.21	229.85
732.54	229.56
732.87	229.41
733.20	229.19
733.53	229.07
733.86	228.89
734.19	228.63
734.52	228.62
734.85	228.77
735.18	228.51
735.51	228.41
735.84	228.24
736.17	228.19
736.50	227.77
736.83	227.92
737.16	227.75
737.49	227.59
737.82	227.40
738.15	227.35
738.48	227.17
738.81	227.03
739.14	226.87
739.47	226.76
739.80	226.55
740.13	226.50
740.46	226.29
740.79	226.03
741.12	225.97
741.45	225.68
741.78	225.29
742.11	225.32
742.44	225.18
742.77	225.14
743.10	224.88
743.43	224.78
743.75	224.29
744.08	224.62
744.41	224.43
744.74	224.35
745.07	224.12
745.40	223.99
745.73	223.95
746.06	223.86
746.39	223.75
746.71	223.69
747.04	223.47
747.37	223.31
747.70	223.32
748.03	223.21
748.36	223.22
748.68	223.05
749.01	222.72
749.34	222.55
749.67	222.39
750.00	222.39
750.33	222.55
750.65	222.50
750.98	221.93
751.31	221.88
751.64	221.78
751.97	221.93
752.29	221.90
752.62	221.64
752.95	221.49
753.28	221.35
753.60	221.17
753.93	221.14
754.26	221.11
754.59	220.85
754.91	220.72
755.24	220.61
755.57	220.51
755.90	220.44
756.22	220.29
756.55	220.14
756.88	219.95
757.20	219.60
757.53	219.48
757.86	219.35
758.19	219.28
758.51	219.14
758.84	218.82
759.17	218.65
759.49	218.68
759.82	218.81
760.15	218.79
760.47	218.70
760.80	218.50
761.13	218.44
761.45	218.37
761.78	218.23
762.11	218.08
762.43	217.98
762.76	217.92
763.08	217.97
763.41	217.91
763.74	217.90
764.06	217.80
764.39	217.68
764.71	217.66
765.04	217.52
765.37	217.42
765.69	217.34
766.02	217.26
766.34	217.12
766.67	216.88
767.00	216.84
767.32	216.97
767.65	217.11
767.97	217.05
768.30	216.99
768.62	216.95
768.95	216.86
769.27	216.80
769.60	216.81
769.92	216.62
770.25	216.43
770.57	216.34
770.90	216.39
771.22	216.35
771.55	216.33
771.87	216.29
772.20	216.21
772.52	216.47
772.85	216.82
773.17	216.76
773.50	216.76
773.82	216.65
774.15	216.39
774.47	216.18
774.80	216.09
775.12	216.07
775.45	216.02
775.77	216.06
776.09	216.09
776.42	216.07
776.74	216.16
777.07	216.22
777.39	216.12
777.72	215.98
778.04	215.98
778.36	215.83
778.69	215.87
779.01	215.96
779.33	215.62
779.66	215.19
779.98	215.16
780.31	215.09
780.63	215.19
780.95	215.25
781.28	215.28
781.60	215.28
781.92	215.29
782.25	215.27
782.57	215.17
782.89	215.07
783.22	214.96
783.54	214.90
783.86	214.84
784.19	214.80
784.51	214.86
784.83	214.78
785.16	214.80
785.48	214.79
785.80	214.72
786.12	214.79
786.45	214.80
786.77	214.83
787.09	214.83
787.42	214.70
787.74	214.70
788.06	214.65
788.38	214.60
788.71	214.53
789.03	214.50
789.35	214.55
789.67	214.48
789.99	214.50
790.32	214.42
790.64	214.51
790.96	214.92
791.28	214.83
791.61	214.78
791.93	214.73
792.25	214.69
792.57	214.95
792.89	214.79
793.21	214.86
793.54	214.77
793.86	214.70
794.18	214.68
794.50	214.56
794.82	214.51
795.14	214.55
795.47	214.60
795.79	214.61
796.11	214.53
796.43	214.54
796.75	214.48
797.07	214.39
797.39	214.29
797.71	213.88
798.04	213.84
798.36	213.87
798.68	213.87
799.00	213.88
799.32	213.66
799.64	213.70
799.96	213.58
800.28	213.55
800.60	213.53
800.92	213.59
801.24	213.59
801.56	213.56
801.89	213.55
802.21	213.46
802.53	213.44
802.85	213.50
803.17	213.57
803.49	213.48
803.81	213.45
804.13	213.42
804.45	213.40
804.77	213.39
805.09	213.33
805.41	213.15
805.73	212.99
806.05	212.89
806.37	212.84
806.69	212.82
807.01	212.84
807.33	212.77
807.65	212.57
807.97	212.70
808.28	212.70
808.60	212.59
808.92	212.56
809.24	212.72
809.56	212.65
809.88	212.50
810.20	212.54
810.52	212.58
810.84	212.59
811.16	212.47
811.48	212.44
811.80	212.55
812.12	212.68
812.43	212.69
812.75	212.71
813.07	212.66
813.39	212.65
813.71	212.56
814.03	212.52
814.35	212.55
814.67	212.33
814.98	212.25
815.30	212.18
815.62	212.18
815.94	211.87
816.26	211.87
816.58	211.85
816.89	211.83
817.21	211.81
817.53	211.74
817.85	211.81
818.17	211.83
818.48	211.65
818.80	211.71
819.12	211.66
819.44	211.60
819.76	211.56
820.07	211.50
820.39	211.51
820.71	211.56
821.03	211.60
821.34	211.58
821.66	211.65
821.98	211.78
822.30	211.70
822.61	212.00
822.93	211.96
823.25	211.94
823.57	211.95
823.88	211.99
824.20	212.03
824.52	212.10
824.83	212.02
825.15	212.03
825.47	212.05
825.79	212.09
826.10	212.03
826.42	212.06
826.74	212.15
827.05	212.08
827.37	212.07
827.69	211.98
828.00	211.99
828.32	211.92
828.64	211.82
828.95	211.96
829.27	211.74
829.58	211.72
829.90	211.74
830.22	211.78
830.53	211.71
830.85	211.65
831.17	211.50
831.48	211.54
831.80	211.51
832.11	211.41
832.43	211.35
832.75	211.34
833.06	211.51
833.38	211.38
833.69	211.40
834.01	211.45
834.32	211.48
834.64	211.49
834.96	211.51
835.27	211.49
835.59	211.37
835.90	211.33
836.22	211.33
836.53	211.30
836.85	211.21
837.16	211.58
837.48	211.64
837.79	211.79
838.11	211.77
838.42	211.72
838.74	211.81
839.05	211.79
839.37	211.80
839.68	211.63
840.00	211.60
840.31	211.70
840.63	211.75
840.94	211.75
841.26	211.65
841.57	211.64
841.88	211.68
842.20	211.68
842.51	211.65
842.83	211.69
843.14	211.93
843.46	211.90
843.77	211.68
844.08	211.55
844.40	211.38
844.71	211.35
845.03	211.34
845.34	211.28
845.65	211.28
845.97	211.30
846.28	211.26
846.60	211.28
846.91	211.18
847.22	211.10
847.54	211.18
847.85	211.22
848.16	211.25
848.48	211.20
848.79	211.34
849.10	211.39
849.42	211.40
849.73	211.14
850.04	211.17
850.36	211.04
850.67	211.17
850.98	211.29
851.30	211.34
851.61	211.39
851.92	211.41
852.23	211.53
852.55	211.56
852.86	211.63
853.17	211.63
853.49	211.70
853.80	211.69
854.11	211.64
854.42	211.74
854.74	211.66
855.05	211.69
855.36	211.50
855.67	211.50
855.99	211.46
856.30	211.92
856.61	211.88
856.92	211.90
857.23	211.86
857.55	211.79
857.86	211.76
858.17	211.85
858.48	211.75
858.79	211.72
859.11	211.68
859.42	211.57
859.73	211.58
860.04	211.58
860.35	211.52
860.66	211.45
860.98	211.41
861.29	211.40
861.60	211.38
861.91	211.53
862.22	211.50
862.53	211.45
862.84	211.07
863.16	211.28
863.47	211.23
863.78	211.24
864.09	211.27
864.40	211.34
864.71	211.26
865.02	211.28
865.33	211.23
865.64	211.21
865.95	211.32
866.27	211.54
866.58	211.53
866.89	211.59
867.20	211.61
867.51	211.54
867.82	211.60
868.13	211.77
868.44	211.65
868.75	211.71
869.06	211.69
869.37	211.66
869.68	211.40
869.99	211.41
870.30	211.40
870.61	211.44
870.92	211.34
871.23	211.37
871.54	211.50
871.85	211.57
872.16	211.64
872.47	211.55
872.78	211.31
873.09	211.32
873.40	211.29
873.71	211.31
874.02	211.37
874.33	211.35
874.64	211.18
874.95	211.27
875.26	211.16
875.56	211.28
875.87	211.29
876.18	211.39
876.49	211.75
876.80	211.76
877.11	211.68
877.42	211.70
877.73	211.66
878.04	211.57
878.35	211.56
878.66	211.54
878.96	211.56
879.27	211.54
879.58	211.46
879.89	211.46
880.20	211.58
880.51	211.55
880.82	211.54
881.12	211.55
881.43	211.43
881.74	211.42
882.05	211.32
882.36	211.35
882.67	211.31
882.97	210.93
883.28	210.84
883.59	210.81
883.90	210.86
884.21	210.87
884.51	210.79
884.82	210.70
885.13	210.71
885.44	210.71
885.74	210.78
886.05	210.79
886.36	210.79
886.67	210.60
886.98	210.75
887.28	210.81
887.59	210.78
887.90	210.84
888.20	210.83
888.51	210.87
888.82	210.76
889.13	210.82
889.43	211.15
889.74	211.20
890.05	211.19
890.35	211.12
890.66	211.11
890.97	211.15
891.28	211.16
891.58	211.19
891.89	211.25
892.20	211.15
892.50	211.15
892.81	211.20
893.12	211.20
893.42	211.00
893.73	211.04
894.04	211.09
894.34	211.10
894.65	211.07
894.95	211.04
895.26	211.08
895.57	211.21
895.87	210.84
896.18	210.89
896.48	211.04
896.79	211.00
897.10	211.03
897.40	211.01
897.71	211.08
898.01	211.04
898.32	210.99
898.63	211.04
898.93	211.06
899.24	210.98
899.54	211.02
899.85	211.06
900.15	210.98
900.46	210.98
900.76	210.98
901.07	210.98
901.38	211.02
901.68	211.10
901.99	210.83
902.29	210.90
902.60	210.82
902.90	210.71
903.21	210.73
903.51	210.70
903.82	210.82
904.12	210.78
904.43	210.80
904.73	210.82
905.03	210.85
905.34	211.18
905.64	211.11
905.95	211.11
906.25	211.14
906.56	211.08
906.86	211.02
907.17	210.97
907.47	211.09
907.77	210.99
908.08	210.96
908.38	211.03
908.69	211.02
908.99	211.14
909.30	211.19
909.60	211.27
909.90	211.29
910.21	211.20
910.51	211.15
910.81	211.11
911.12	211.10
911.42	211.08
911.73	210.72
912.03	210.85
912.33	210.93
912.64	210.93
912.94	210.89
913.24	210.85
913.55	210.85
913.85	210.77
914.15	210.88
914.46	210.89
914.76	210.95
915.06	210.89
915.37	210.80
915.67	210.79
915.97	210.73
916.27	210.67
916.58	210.63
916.88	210.67
917.18	210.69
917.49	210.89
917.79	210.93
918.09	210.91
918.39	211.03
918.70	210.99
919.00	210.95
919.30	211.07
919.60	211.06
919.91	211.01
920.21	211.07
920.51	211.00
920.81	210.95
921.12	210.95
921.42	210.96
921.72	211.00
922.02	210.95
922.32	211.01
922.63	211.01
922.93	211.20
923.23	211.19
923.53	211.09
923.83	210.90
924.13	210.90
924.44	210.92
924.74	210.81
925.04	210.85
925.34	210.82
925.64	210.80
925.94	210.96
926.24	211.18
926.55	211.14
926.85	211.23
927.15	211.23
927.45	211.31
927.75	211.34
928.05	211.32
928.35	211.33
928.65	211.31
928.95	211.33
929.26	211.25
929.56	211.30
929.86	211.39
930.16	211.35
930.46	211.29
930.76	211.31
931.06	211.26
931.36	211.17
931.66	211.29
931.96	211.32
932.26	211.29
932.56	211.10
932.86	211.08
933.16	211.02
933.46	211.06
933.76	210.94
934.06	210.99
934.36	211.15
934.66	211.23
934.96	211.18
935.26	211.29
935.56	211.26
935.86	211.19
936.16	211.16
936.46	211.13
936.76	211.17
937.06	211.10
937.36	211.15
937.66	211.18
937.96	211.15
938.26	211.12
938.56	211.07
938.86	211.15
939.16	211.15
939.46	211.13
939.76	211.09
940.06	211.11
940.35	211.00
940.65	210.77
940.95	210.70
941.25	210.73
941.55	210.60
941.85	210.62
942.15	210.72
942.45	210.82
942.75	210.81
943.04	210.80
943.34	210.92
943.64	210.76
943.94	210.71
944.24	210.66
944.54	210.60
944.84	210.57
945.13	210.43
945.43	210.48
945.73	210.49
946.03	210.47
946.33	210.44
946.62	210.41
946.92	210.45
947.22	210.46
947.52	210.43
947.82	210.52
948.11	210.46
948.41	210.31
948.71	210.18
949.01	210.23
949.31	210.20
949.60	210.14
949.90	210.28
950.20	210.30
950.50	210.32
950.79	210.31
951.09	210.32
951.39	210.39
951.69	210.34
951.98	210.44
952.28	210.46
952.58	210.48
952.87	210.51
953.17	210.58
953.47	210.59
953.76	210.56
954.06	210.48
954.36	210.45
954.66	210.55
954.95	210.69
955.25	210.73
955.55	210.75
955.84	210.73
956.14	210.79
956.44	210.81
956.73	210.80
957.03	210.85
957.32	210.91
957.62	210.90
957.92	210.97
958.21	210.89
958.51	211.33
958.81	211.37
959.10	211.43
959.40	211.50
959.69	211.53
959.99	211.61
960.29	211.62
960.58	211.60
960.88	211.76
961.17	211.71
961.47	211.74
961.76	211.72
962.06	211.78
962.36	211.68
962.65	211.68
962.95	211.71
963.24	211.73
963.54	211.71
963.83	211.69
964.13	211.68
964.42	211.60
964.72	211.32
965.01	211.28
965.31	211.32
965.60	211.20
965.90	211.43
966.19	211.40
966.49	211.39
966.78	211.41
967.08	211.28
967.37	211.23
967.67	211.13
967.96	211.23
968.26	211.20
968.55	211.27
968.85	211.23
969.14	211.20
969.43	211.13
969.73	211.05
970.02	211.10
970.32	211.09
970.61	211.12
970.91	210.98
971.20	211.00
971.49	210.90
971.79	210.95
972.08	210.66
972.38	210.67
972.67	210.69
972.96	210.75
973.26	210.70
973.55	210.85
973.85	210.88
974.14	210.86
974.43	210.90
974.73	210.87
975.02	210.89
975.31	210.90
975.61	210.95
975.90	210.95
976.19	210.91
976.49	210.97
976.78	210.95
977.07	210.97
977.37	210.90
977.66	210.88
977.95	210.82
978.24	210.80
978.54	210.82
978.83	210.71
979.12	210.69
979.42	210.74
979.71	210.65
980.00	210.55
980.29	210.52
980.59	210.39
980.88	210.47
981.17	210.44
981.46	210.39
981.76	210.38
982.05	210.57
982.34	210.61
982.63	210.59
982.93	210.59
983.22	210.64
983.51	210.68
983.80	210.80
984.09	210.91
984.39	210.90
984.68	210.87
984.97	211.01
985.26	210.96
985.55	210.93
985.85	210.86
986.14	210.93
986.43	211.05
986.72	211.18
987.01	211.04
987.30	211.05
987.59	211.02
987.89	211.08
988.18	210.85
988.47	210.83
988.76	210.71
989.05	210.67
989.34	210.62
989.63	210.79
989.92	210.75
990.22	210.65
990.51	210.59
990.80	210.62
991.09	210.53
991.38	210.62
991.67	210.62
991.96	210.55
992.25	210.56
992.54	210.45
992.83	210.38
993.12	210.36
993.41	210.44
993.70	210.64
993.99	210.61
994.28	210.72
994.58	210.78
994.87	210.80
995.16	210.84
995.45	210.84
995.74	210.58
996.03	210.60
996.32	210.68
996.61	210.80
996.90	210.80
997.19	210.79
997.48	210.78
997.77	210.75
998.06	210.85
998.34	210.87
998.63	210.81
998.92	210.89
999.21	210.95
999.50	210.90
999.79	210.76
1000.08	210.80
1000.37	210.77
1000.66	210.68
1000.95	210.79
1001.24	210.74
1001.53	210.77
1001.82	210.78
1002.11	210.70
1002.40	210.79
1002.68	210.84
1002.97	211.09
1003.26	211.03
1003.55	210.94
1003.84	210.96
1004.13	211.06
1004.42	211.01
1004.71	211.00
1004.99	210.92
1005.28	211.02
1005.57	211.05
1005.86	211.04
1006.15	210.92
1006.44	210.91
1006.72	210.95
1007.01	210.86
1007.30	210.92
1007.59	210.90
1007.88	210.90
1008.17	211.00
1008.45	210.78
1008.74	210.69
1009.03	210.45
1009.32	210.46
1009.60	210.43
1009.89	210.38
1010.18	210.26
1010.47	210.30
1010.76	210.32
1011.04	210.29
1011.33	210.26
1011.62	210.20
1011.91	210.22
1012.19	210.26
1012.48	210.31
1012.77	210.22
1013.05	210.37
1013.34	210.40
1013.63	210.42
1013.92	210.48
1014.20	210.39
1014.49	210.42
1014.78	210.40
1015.06	210.31
1015.35	210.33
1015.64	210.47
1015.92	210.52
1016.21	210.51
1016.50	210.47
1016.78	210.58
1017.07	210.60
1017.36	210.55
1017.64	210.51
1017.93	210.55
1018.22	210.52
1018.50	210.45
1018.79	210.49
1019.08	210.30
1019.36	210.30
1019.65	210.16
1019.93	210.28
1020.22	210.32
1020.51	210.53
1020.79	210.60
1021.08	209.75
1021.36	209.10
1021.65	210.20
1021.94	209.20
1022.22	211.00
1022.51	208.80
1022.79	212.80
1023.08	210.70
1023.36	214.30
1023.65	211.40
>>>>>End Processed Spectral Data<<<<<
