SpectraSuite Data File
++++++++++++++++++++++++++++++++++++
Date: Mon Feb 25 17:17:22 EST 2013
User: group
Dark Spectrum Present: No
Reference Spectrum Present: No
Number of Sampled Component Spectra: 1
Spectrometers: USB2E7196
Integration Time (usec): 104000 (USB2E7196)
Spectra Averaged: 20 (USB2E7196)
Boxcar Smoothing: 10 (USB2E7196)
Correct for Electrical Dark: No (USB2E7196)
Strobe/Lamp Enabled: No (USB2E7196)
Correct for Detector Non-linearity: No (USB2E7196)
Correct for Stray Light: No (USB2E7196)
Number of Pixels in Processed Spectrum: 2048
>>>>>Begin Processed Spectral Data<<<<<
339.09	0.00
339.48	198.10
339.86	199.20
340.24	201.05
340.63	202.45
341.01	210.15
341.39	206.55
341.78	207.55
342.16	209.85
342.54	210.15
342.93	198.72
343.31	208.75
343.69	209.36
344.07	209.81
344.46	210.30
344.84	210.75
345.22	210.78
345.60	211.01
345.99	211.28
346.37	211.39
346.75	211.46
347.13	211.50
347.52	211.53
347.90	211.68
348.28	211.74
348.66	211.88
349.05	211.80
349.43	211.85
349.81	211.90
350.19	211.99
350.57	212.14
350.96	212.21
351.34	212.31
351.72	212.39
352.10	212.57
352.48	212.55
352.87	212.59
353.25	212.66
353.63	212.67
354.01	212.70
354.39	212.79
354.77	212.84
355.15	213.01
355.54	212.97
355.92	212.89
356.30	212.99
356.68	213.20
357.06	213.31
357.44	213.30
357.82	213.35
358.20	213.39
358.58	213.34
358.97	213.42
359.35	213.52
359.73	213.60
360.11	213.64
360.49	213.77
360.87	213.83
361.25	213.95
361.63	214.18
362.01	214.18
362.39	214.10
362.77	214.19
363.15	214.16
363.53	214.22
363.91	214.27
364.29	214.24
364.67	214.00
365.05	213.99
365.43	214.12
365.81	214.14
366.19	214.29
366.57	214.36
366.95	214.37
367.33	214.34
367.71	214.35
368.09	214.47
368.47	214.44
368.85	214.40
369.23	214.44
369.61	214.22
369.99	214.26
370.37	214.31
370.75	214.41
371.13	214.33
371.51	214.29
371.89	214.30
372.27	214.31
372.65	214.32
373.03	214.29
373.41	214.16
373.78	214.20
374.16	213.97
374.54	213.96
374.92	213.90
375.30	213.81
375.68	213.72
376.06	213.61
376.44	213.60
376.82	213.59
377.19	213.50
377.57	213.57
377.95	213.50
378.33	213.47
378.71	213.25
379.09	213.26
379.47	213.25
379.84	213.10
380.22	212.97
380.60	212.91
380.98	212.81
381.36	212.76
381.73	212.54
382.11	212.65
382.49	212.53
382.87	212.42
383.25	212.41
383.62	212.78
384.00	212.66
384.38	212.65
384.76	212.68
385.13	212.79
385.51	212.69
385.89	212.56
386.27	212.60
386.64	212.66
387.02	212.59
387.40	212.52
387.78	212.56
388.15	212.60
388.53	212.56
388.91	212.57
389.29	212.54
389.66	212.68
390.04	212.51
390.42	212.59
390.79	212.63
391.17	212.65
391.55	212.26
391.92	212.31
392.30	212.32
392.68	212.28
393.05	212.22
393.43	212.25
393.81	212.31
394.18	212.17
394.56	212.05
394.94	212.18
395.31	212.16
395.69	212.29
396.06	212.37
396.44	212.38
396.82	212.39
397.19	212.63
397.57	212.61
397.95	212.75
398.32	212.68
398.70	212.68
399.07	212.75
399.45	212.71
399.82	212.74
400.20	212.74
400.58	212.73
400.95	212.65
401.33	212.72
401.70	213.00
402.08	213.09
402.45	213.22
402.83	213.27
403.20	213.37
403.58	213.36
403.95	213.39
404.33	213.55
404.71	213.65
405.08	213.90
405.46	214.00
405.83	214.14
406.21	214.27
406.58	214.54
406.96	214.66
407.33	214.89
407.70	215.14
408.08	215.69
408.45	215.98
408.83	216.25
409.20	216.52
409.58	216.60
409.95	216.92
410.33	217.28
410.70	217.58
411.08	217.97
411.45	218.43
411.82	218.83
412.20	219.37
412.57	220.05
412.95	220.26
413.32	220.89
413.69	221.39
414.07	222.11
414.44	222.69
414.82	223.40
415.19	224.26
415.56	225.02
415.94	225.70
416.31	226.67
416.68	227.70
417.06	228.87
417.43	230.03
417.81	231.33
418.18	232.55
418.55	233.80
418.93	235.20
419.30	236.54
419.67	238.02
420.04	239.52
420.42	241.10
420.79	243.26
421.16	245.03
421.54	247.11
421.91	248.98
422.28	251.12
422.66	253.40
423.03	255.71
423.40	257.93
423.77	260.27
424.15	262.62
424.52	265.10
424.89	267.81
425.26	270.41
425.64	272.85
426.01	275.61
426.38	278.62
426.75	281.59
427.13	284.65
427.50	287.88
427.87	291.16
428.24	294.42
428.61	297.39
428.99	301.00
429.36	304.68
429.73	308.47
430.10	312.17
430.47	315.93
430.85	319.61
431.22	323.75
431.59	328.28
431.96	332.49
432.33	337.25
432.70	341.69
433.08	346.89
433.45	351.84
433.82	356.73
434.19	362.08
434.56	367.47
434.93	372.64
435.30	377.75
435.68	383.34
436.05	388.87
436.42	394.39
436.79	399.51
437.16	405.05
437.53	410.85
437.90	416.51
438.27	422.05
438.64	427.95
439.01	433.53
439.38	438.24
439.75	442.85
440.13	447.95
440.50	452.85
440.87	456.94
441.24	461.19
441.61	465.81
441.98	469.20
442.35	473.07
442.72	477.02
443.09	480.91
443.46	483.35
443.83	484.93
444.20	486.33
444.57	488.13
444.94	488.98
445.31	489.80
445.68	490.97
446.05	491.20
446.42	490.57
446.79	489.71
447.16	488.68
447.53	488.20
447.90	485.92
448.27	483.65
448.64	480.62
449.01	478.35
449.37	474.49
449.74	470.78
450.11	466.57
450.48	461.65
450.85	456.51
451.22	452.12
451.59	448.02
451.96	443.94
452.33	438.85
452.70	434.11
453.07	428.56
453.43	422.70
453.80	417.44
454.17	412.28
454.54	407.36
454.91	402.24
455.28	397.09
455.65	392.46
456.02	388.18
456.38	384.11
456.75	379.10
457.12	374.86
457.49	370.78
457.86	366.51
458.23	363.27
458.59	359.64
458.96	355.92
459.33	352.67
459.70	349.45
460.07	346.87
460.43	343.81
460.80	340.94
461.17	338.36
461.54	335.68
461.91	333.14
462.27	330.68
462.64	328.50
463.01	326.03
463.38	323.88
463.74	321.27
464.11	319.25
464.48	317.48
464.85	315.69
465.21	314.28
465.58	312.84
465.95	310.92
466.32	309.52
466.68	308.11
467.05	306.56
467.42	305.06
467.78	303.49
468.15	301.98
468.52	300.98
468.88	299.54
469.25	298.26
469.62	297.29
469.98	296.22
470.35	295.26
470.72	294.43
471.08	293.34
471.45	292.53
471.82	291.80
472.18	290.99
472.55	290.39
472.92	289.69
473.28	289.04
473.65	288.42
474.02	287.78
474.38	287.30
474.75	287.01
475.11	286.63
475.48	286.35
475.85	286.19
476.21	286.00
476.58	285.99
476.94	285.98
477.31	285.94
477.67	285.87
478.04	285.97
478.41	286.15
478.77	286.66
479.14	286.72
479.50	287.03
479.87	287.46
480.23	287.81
480.60	288.15
480.96	288.51
481.33	289.21
481.69	289.83
482.06	290.51
482.42	291.18
482.79	291.98
483.15	292.86
483.52	293.95
483.88	294.87
484.25	295.92
484.61	297.15
484.98	298.34
485.34	299.71
485.71	301.28
486.07	302.79
486.44	304.03
486.80	305.86
487.17	307.68
487.53	309.75
487.90	311.83
488.26	314.10
488.62	316.49
488.99	318.85
489.35	321.43
489.72	324.10
490.08	326.92
490.44	329.80
490.81	332.95
491.17	336.11
491.54	339.70
491.90	343.28
492.26	346.99
492.63	351.03
492.99	355.22
493.36	359.55
493.72	364.20
494.08	369.10
494.45	374.14
494.81	379.43
495.17	384.75
495.54	390.67
495.90	396.50
496.26	402.78
496.63	409.33
496.99	415.92
497.35	422.93
497.72	430.41
498.08	438.00
498.44	445.85
498.80	454.30
499.17	462.95
499.53	471.83
499.89	481.16
500.26	490.59
500.62	500.22
500.98	510.35
501.34	520.84
501.71	531.69
502.07	542.75
502.43	554.06
502.79	565.83
503.16	577.90
503.52	590.65
503.88	603.48
504.24	616.67
504.60	630.51
504.97	644.76
505.33	658.81
505.69	674.06
506.05	689.40
506.41	704.95
506.78	720.57
507.14	736.80
507.50	753.38
507.86	770.57
508.22	788.36
508.59	806.01
508.95	824.16
509.31	842.46
509.67	861.45
510.03	880.86
510.39	900.74
510.75	921.05
511.12	941.36
511.48	962.19
511.84	983.41
512.20	1004.45
512.56	1025.96
512.92	1048.14
513.28	1070.02
513.64	1092.40
514.00	1114.72
514.37	1137.63
514.73	1160.95
515.09	1184.32
515.45	1207.57
515.81	1230.83
516.17	1254.46
516.53	1278.34
516.89	1302.51
517.25	1326.58
517.61	1350.73
517.97	1374.55
518.33	1398.43
518.69	1422.67
519.05	1447.03
519.41	1471.42
519.77	1496.59
520.13	1520.80
520.49	1545.01
520.85	1569.83
521.21	1594.58
521.57	1619.65
521.93	1643.67
522.29	1668.54
522.65	1693.35
523.01	1717.99
523.37	1741.92
523.73	1766.42
524.09	1790.60
524.45	1814.85
524.81	1839.07
525.17	1863.64
525.53	1887.90
525.89	1911.98
526.25	1936.00
526.61	1959.04
526.97	1982.05
527.33	2004.73
527.68	2028.37
528.04	2050.62
528.40	2072.40
528.76	2093.92
529.12	2116.15
529.48	2139.31
529.84	2161.00
530.20	2182.34
530.56	2203.73
530.91	2226.19
531.27	2247.93
531.63	2268.90
531.99	2289.69
532.35	2309.88
532.71	2329.09
533.07	2349.74
533.42	2369.32
533.78	2388.46
534.14	2407.95
534.50	2425.95
534.86	2444.89
535.21	2461.89
535.57	2480.73
535.93	2498.31
536.29	2515.82
536.65	2532.99
537.00	2548.58
537.36	2564.00
537.72	2579.36
538.08	2594.56
538.44	2609.54
538.79	2624.29
539.15	2639.17
539.51	2653.21
539.87	2668.10
540.22	2682.78
540.58	2696.65
540.94	2709.97
541.29	2722.34
541.65	2734.09
542.01	2746.47
542.37	2757.67
542.72	2769.65
543.08	2779.96
543.44	2791.41
543.79	2801.55
544.15	2810.92
544.51	2821.26
544.87	2831.52
545.22	2840.29
545.58	2848.60
545.94	2855.34
546.29	2861.72
546.65	2867.58
547.01	2873.88
547.36	2879.57
547.72	2884.92
548.07	2889.10
548.43	2893.14
548.79	2897.51
549.14	2901.58
549.50	2905.70
549.86	2908.68
550.21	2911.51
550.57	2914.88
550.92	2916.40
551.28	2918.05
551.64	2919.92
551.99	2921.85
552.35	2923.02
552.70	2924.64
553.06	2925.90
553.41	2927.55
553.77	2928.44
554.13	2929.20
554.48	2930.10
554.84	2930.47
555.19	2929.60
555.55	2928.45
555.90	2927.29
556.26	2925.96
556.61	2924.67
556.97	2922.68
557.32	2921.12
557.68	2918.46
558.03	2916.02
558.39	2913.97
558.74	2912.99
559.10	2910.74
559.45	2907.51
559.81	2905.02
560.16	2901.33
560.52	2898.34
560.87	2894.92
561.23	2891.11
561.58	2888.21
561.94	2883.51
562.29	2878.35
562.64	2874.90
563.00	2871.14
563.35	2868.27
563.71	2865.42
564.06	2862.06
564.42	2859.10
564.77	2856.08
565.12	2853.21
565.48	2849.30
565.83	2845.62
566.19	2841.63
566.54	2836.62
566.89	2831.76
567.25	2826.48
567.60	2822.18
567.96	2817.10
568.31	2812.14
568.66	2806.76
569.02	2800.21
569.37	2794.24
569.72	2788.93
570.08	2782.35
570.43	2776.28
570.78	2769.14
571.14	2761.38
571.49	2753.90
571.84	2746.85
572.20	2738.49
572.55	2731.09
572.90	2722.90
573.26	2714.44
573.61	2705.72
573.96	2697.36
574.31	2688.20
574.67	2678.93
575.02	2669.22
575.37	2660.12
575.72	2650.14
576.08	2642.07
576.43	2632.92
576.78	2624.45
577.13	2616.03
577.49	2607.39
577.84	2598.33
578.19	2590.11
578.54	2582.54
578.90	2574.68
579.25	2565.20
579.60	2555.42
579.95	2545.80
580.30	2537.38
580.66	2529.21
581.01	2519.83
581.36	2510.45
581.71	2501.37
582.06	2492.54
582.42	2484.25
582.77	2474.48
583.12	2465.60
583.47	2456.43
583.82	2448.58
584.17	2439.32
584.53	2430.13
584.88	2420.99
585.23	2411.89
585.58	2402.31
585.93	2392.37
586.28	2383.34
586.63	2374.18
586.98	2366.13
587.34	2357.72
587.69	2348.39
588.04	2339.02
588.39	2330.51
588.74	2321.35
589.09	2313.43
589.44	2304.36
589.79	2295.84
590.14	2287.78
590.49	2279.18
590.84	2270.45
591.19	2262.04
591.54	2253.64
591.89	2243.60
592.25	2234.81
592.60	2225.46
592.95	2215.98
593.30	2206.20
593.65	2195.91
594.00	2186.79
594.35	2179.16
594.70	2169.97
595.05	2161.46
595.40	2152.41
595.75	2142.44
596.10	2134.27
596.45	2125.50
596.80	2117.39
597.15	2109.08
597.50	2100.27
597.85	2091.95
598.19	2083.05
598.54	2074.29
598.89	2066.04
599.24	2059.14
599.59	2051.07
599.94	2044.28
600.29	2036.83
600.64	2029.51
600.99	2021.24
601.34	2013.60
601.69	2003.88
602.04	1995.23
602.39	1987.01
602.74	1979.23
603.08	1972.61
603.43	1965.52
603.78	1957.80
604.13	1950.18
604.48	1942.47
604.83	1936.12
605.18	1929.31
605.53	1921.46
605.87	1913.32
606.22	1906.02
606.57	1897.80
606.92	1889.79
607.27	1881.17
607.62	1873.15
607.96	1865.73
608.31	1858.99
608.66	1850.76
609.01	1843.10
609.36	1835.31
609.70	1826.69
610.05	1818.18
610.40	1809.65
610.75	1800.76
611.10	1792.70
611.44	1783.12
611.79	1773.54
612.14	1763.19
612.49	1753.12
612.83	1744.56
613.18	1735.08
613.53	1725.41
613.88	1715.61
614.22	1706.60
614.57	1697.13
614.92	1687.85
615.27	1678.10
615.61	1668.50
615.96	1659.52
616.31	1650.98
616.65	1642.72
617.00	1634.35
617.35	1625.56
617.70	1616.33
618.04	1606.60
618.39	1596.60
618.74	1588.00
619.08	1579.07
619.43	1570.59
619.78	1562.23
620.12	1553.23
620.47	1544.84
620.82	1535.24
621.16	1526.30
621.51	1517.16
621.85	1508.63
622.20	1499.52
622.55	1490.52
622.89	1481.36
623.24	1472.71
623.59	1463.10
623.93	1454.04
624.28	1445.32
624.62	1436.70
624.97	1428.01
625.32	1419.95
625.66	1412.23
626.01	1404.08
626.35	1396.13
626.70	1387.88
627.04	1379.84
627.39	1371.74
627.73	1363.68
628.08	1356.54
628.43	1348.39
628.77	1340.38
629.12	1332.15
629.46	1325.10
629.81	1317.59
630.15	1310.04
630.50	1302.03
630.84	1293.95
631.19	1286.28
631.53	1278.54
631.88	1270.39
632.22	1262.49
632.57	1254.83
632.91	1246.62
633.26	1238.81
633.60	1231.14
633.95	1223.76
634.29	1215.88
634.64	1208.63
634.98	1200.76
635.32	1193.21
635.67	1186.54
636.01	1179.46
636.36	1171.94
636.70	1164.57
637.05	1157.25
637.39	1150.25
637.73	1143.66
638.08	1137.81
638.42	1131.10
638.77	1124.24
639.11	1117.69
639.45	1110.88
639.80	1103.65
640.14	1096.51
640.49	1089.38
640.83	1082.42
641.17	1075.47
641.52	1068.45
641.86	1061.11
642.20	1054.41
642.55	1047.17
642.89	1039.80
643.23	1032.70
643.58	1026.41
643.92	1018.91
644.26	1011.95
644.61	1005.15
644.95	998.04
645.29	990.94
645.64	983.84
645.98	977.08
646.32	970.43
646.66	963.55
647.01	957.07
647.35	950.88
647.69	944.16
648.04	937.65
648.38	930.88
648.72	924.52
649.06	917.96
649.41	911.42
649.75	904.89
650.09	898.66
650.43	892.28
650.78	885.43
651.12	879.05
651.46	872.75
651.80	866.55
652.14	860.35
652.49	853.85
652.83	847.25
653.17	840.35
653.51	834.05
653.85	828.13
654.20	822.03
654.54	815.78
654.88	809.76
655.22	803.57
655.56	797.23
655.90	791.11
656.25	785.12
656.59	779.05
656.93	773.41
657.27	767.68
657.61	761.52
657.95	755.97
658.29	750.49
658.64	745.08
658.98	739.24
659.32	733.25
659.66	727.76
660.00	722.40
660.34	716.98
660.68	711.00
661.02	705.32
661.36	699.97
661.70	694.74
662.05	689.69
662.39	684.70
662.73	680.10
663.07	675.21
663.41	670.35
663.75	665.41
664.09	660.20
664.43	654.98
664.77	650.42
665.11	645.57
665.45	640.92
665.79	636.15
666.13	631.62
666.47	627.16
666.81	622.60
667.15	617.99
667.49	613.90
667.83	610.01
668.17	605.90
668.51	601.90
668.85	597.65
669.19	593.65
669.53	589.47
669.87	585.19
670.21	581.11
670.55	577.03
670.89	573.48
671.23	570.09
671.57	566.54
671.91	562.80
672.25	559.02
672.58	555.44
672.92	551.61
673.26	548.04
673.60	544.59
673.94	541.05
674.28	537.64
674.62	534.37
674.96	530.92
675.30	527.50
675.64	524.05
675.97	520.82
676.31	517.59
676.65	514.46
676.99	511.52
677.33	508.32
677.67	505.25
678.01	502.01
678.34	498.80
678.68	495.70
679.02	492.60
679.36	489.69
679.70	486.53
680.04	483.62
680.37	480.63
680.71	477.65
681.05	474.93
681.39	472.14
681.73	469.22
682.06	466.61
682.40	463.94
682.74	461.22
683.08	458.51
683.42	455.65
683.75	452.92
684.09	449.91
684.43	447.25
684.77	444.50
685.10	441.74
685.44	438.94
685.78	436.25
686.12	433.92
686.45	431.43
686.79	429.02
687.13	426.73
687.46	424.28
687.80	421.94
688.14	419.30
688.48	416.92
688.81	414.43
689.15	411.96
689.49	409.50
689.82	407.11
690.16	404.70
690.50	402.29
690.83	399.97
691.17	397.75
691.51	395.47
691.84	393.40
692.18	391.25
692.52	389.27
692.85	387.41
693.19	385.34
693.52	383.22
693.86	381.00
694.20	378.91
694.53	376.89
694.87	374.89
695.21	372.96
695.54	370.87
695.88	368.78
696.21	366.75
696.55	364.98
696.88	363.04
697.22	361.09
697.56	359.52
697.89	357.68
698.23	355.95
698.56	354.19
698.90	352.52
699.23	350.81
699.57	349.00
699.90	347.14
700.24	345.33
700.58	343.63
700.91	342.14
701.25	340.71
701.58	339.23
701.92	337.57
702.25	336.08
702.59	334.58
702.92	333.21
703.26	331.66
703.59	330.13
703.93	329.02
704.26	327.65
704.60	326.17
704.93	324.75
705.26	323.30
705.60	322.05
705.93	320.56
706.27	319.32
706.60	318.15
706.94	317.02
707.27	315.73
707.61	314.46
707.94	313.12
708.27	311.64
708.61	310.33
708.94	309.08
709.28	307.80
709.61	306.66
709.94	305.52
710.28	304.43
710.61	303.32
710.95	301.80
711.28	300.93
711.61	299.84
711.95	298.87
712.28	297.82
712.61	296.77
712.95	295.84
713.28	294.88
713.61	293.84
713.95	292.81
714.28	291.85
714.61	290.85
714.95	289.95
715.28	288.94
715.61	287.95
715.95	287.11
716.28	286.21
716.61	285.38
716.95	284.45
717.28	283.67
717.61	282.82
717.94	282.05
718.28	281.06
718.61	280.24
718.94	279.37
719.27	278.57
719.61	277.78
719.94	277.03
720.27	276.16
720.60	275.37
720.94	274.65
721.27	273.89
721.60	273.24
721.93	272.49
722.27	272.00
722.60	271.37
722.93	270.74
723.26	270.18
723.59	269.40
723.93	268.79
724.26	268.16
724.59	267.53
724.92	266.99
725.25	266.47
725.59	265.86
725.92	265.35
726.25	264.78
726.58	264.23
726.91	263.60
727.24	263.06
727.57	262.52
727.91	261.87
728.24	261.34
728.57	260.83
728.90	260.36
729.23	259.65
729.56	259.30
729.89	258.65
730.22	258.07
730.55	257.60
730.89	257.04
731.22	256.55
731.55	256.06
731.88	255.55
732.21	254.94
732.54	254.41
732.87	253.88
733.20	253.42
733.53	252.94
733.86	252.51
734.19	251.96
734.52	251.55
734.85	251.47
735.18	251.03
735.51	250.69
735.84	250.20
736.17	249.90
736.50	249.37
736.83	249.43
737.16	249.05
737.49	248.66
737.82	248.30
738.15	247.86
738.48	247.52
738.81	247.11
739.14	246.68
739.47	246.20
739.80	245.81
740.13	245.48
740.46	245.02
740.79	244.59
741.12	244.20
741.45	243.74
741.78	243.08
742.11	242.86
742.44	242.38
742.77	242.13
743.10	241.68
743.43	241.30
743.75	240.56
744.08	240.60
744.41	240.20
744.74	239.83
745.07	239.42
745.40	239.09
745.73	238.84
746.06	238.52
746.39	238.32
746.71	237.94
747.04	237.64
747.37	237.38
747.70	237.20
748.03	236.99
748.36	236.83
748.68	236.57
749.01	236.06
749.34	235.81
749.67	235.50
750.00	235.34
750.33	235.28
750.65	235.00
750.98	234.38
751.31	234.18
751.64	233.88
751.97	233.90
752.29	233.58
752.62	233.24
752.95	232.97
753.28	232.75
753.60	232.53
753.93	232.28
754.26	232.01
754.59	231.54
754.91	231.24
755.24	230.94
755.57	230.75
755.90	230.58
756.22	230.33
756.55	230.09
756.88	229.75
757.20	229.31
757.53	229.02
757.86	228.71
758.19	228.53
758.51	228.40
758.84	227.99
759.17	227.69
759.49	227.52
759.82	227.49
760.15	227.20
760.47	226.95
760.80	226.66
761.13	226.58
761.45	226.50
761.78	226.36
762.11	226.23
762.43	225.87
762.76	225.70
763.08	225.60
763.41	225.43
763.74	225.30
764.06	225.11
764.39	225.00
764.71	224.89
765.04	224.68
765.37	224.49
765.69	224.32
766.02	224.26
766.34	224.07
766.67	223.84
767.00	223.81
767.32	223.90
767.65	224.07
767.97	223.88
768.30	223.72
768.62	223.61
768.95	223.36
769.27	223.35
769.60	223.26
769.92	223.08
770.25	222.85
770.57	222.65
770.90	222.55
771.22	222.39
771.55	222.26
771.87	222.15
772.20	222.01
772.52	222.20
772.85	222.48
773.17	222.44
773.50	222.26
773.82	222.09
774.15	221.83
774.47	221.37
774.80	221.19
775.12	221.10
775.45	220.92
775.77	220.85
776.09	220.78
776.42	220.63
776.74	220.55
777.07	220.60
777.39	220.55
777.72	220.43
778.04	220.45
778.36	220.31
778.69	220.19
779.01	220.15
779.33	219.81
779.66	219.36
779.98	219.18
780.31	219.13
780.63	219.16
780.95	219.13
781.28	219.08
781.60	219.01
781.92	218.92
782.25	218.85
782.57	218.84
782.89	218.72
783.22	218.54
783.54	218.45
783.86	218.37
784.19	218.28
784.51	218.28
784.83	218.09
785.16	218.04
785.48	218.00
785.80	217.95
786.12	217.81
786.45	217.79
786.77	217.70
787.09	217.63
787.42	217.48
787.74	217.37
788.06	217.29
788.38	217.19
788.71	217.15
789.03	217.08
789.35	216.96
789.67	216.88
789.99	216.95
790.32	216.81
790.64	216.75
790.96	216.99
791.28	216.84
791.61	216.77
791.93	216.74
792.25	216.71
792.57	216.89
792.89	216.80
793.21	216.71
793.54	216.67
793.86	216.61
794.18	216.54
794.50	216.51
794.82	216.52
795.14	216.55
795.47	216.58
795.79	216.55
796.11	216.48
796.43	216.40
796.75	216.36
797.07	216.35
797.39	216.29
797.71	215.99
798.04	216.00
798.36	216.02
798.68	215.97
799.00	215.95
799.32	215.72
799.64	215.78
799.96	215.73
800.28	215.82
800.60	215.82
800.92	215.79
801.24	215.72
801.56	215.71
801.89	215.64
802.21	215.54
802.53	215.54
802.85	215.60
803.17	215.78
803.49	215.64
803.81	215.63
804.13	215.59
804.45	215.56
804.77	215.49
805.09	215.49
805.41	215.43
805.73	215.35
806.05	215.26
806.37	215.20
806.69	215.22
807.01	215.16
807.33	215.13
807.65	215.04
807.97	215.19
808.28	215.12
808.60	215.11
808.92	215.16
809.24	215.35
809.56	215.27
809.88	215.12
810.20	215.19
810.52	215.18
810.84	215.10
811.16	215.01
811.48	215.03
811.80	215.07
812.12	215.05
812.43	215.05
812.75	215.09
813.07	215.04
813.39	215.00
813.71	214.92
814.03	214.79
814.35	214.82
814.67	214.60
814.98	214.60
815.30	214.62
815.62	214.50
815.94	214.26
816.26	214.21
816.58	214.07
816.89	214.16
817.21	214.06
817.53	214.12
817.85	214.18
818.17	214.17
818.48	214.03
818.80	214.06
819.12	214.00
819.44	213.89
819.76	213.78
820.07	213.74
820.39	213.70
820.71	213.80
821.03	213.71
821.34	213.61
821.66	213.63
821.98	213.57
822.30	213.54
822.61	213.71
822.93	213.65
823.25	213.66
823.57	213.50
823.88	213.62
824.20	213.56
824.52	213.57
824.83	213.49
825.15	213.38
825.47	213.35
825.79	213.40
826.10	213.31
826.42	213.31
826.74	213.41
827.05	213.40
827.37	213.41
827.69	213.40
828.00	213.43
828.32	213.40
828.64	213.36
828.95	213.51
829.27	213.35
829.58	213.37
829.90	213.41
830.22	213.42
830.53	213.24
830.85	213.22
831.17	213.10
831.48	213.12
831.80	213.26
832.11	213.28
832.43	213.22
832.75	213.25
833.06	213.47
833.38	213.23
833.69	213.23
834.01	213.22
834.32	213.19
834.64	213.22
834.96	213.21
835.27	213.22
835.59	213.15
835.90	213.04
836.22	212.96
836.53	212.90
836.85	212.87
837.16	213.22
837.48	213.27
837.79	213.40
838.11	213.41
838.42	213.34
838.74	213.30
839.05	213.30
839.37	213.28
839.68	213.07
840.00	213.10
840.31	213.14
840.63	213.09
840.94	213.05
841.26	213.03
841.57	213.03
841.88	213.02
842.20	212.92
842.51	212.92
842.83	212.98
843.14	213.30
843.46	213.34
843.77	213.15
844.08	213.10
844.40	212.93
844.71	212.87
845.03	212.83
845.34	212.80
845.65	212.69
845.97	212.67
846.28	212.66
846.60	212.66
846.91	212.54
847.22	212.47
847.54	212.54
847.85	212.59
848.16	212.58
848.48	212.54
848.79	212.64
849.10	212.69
849.42	212.75
849.73	212.45
850.04	212.41
850.36	212.32
850.67	212.27
850.98	212.33
851.30	212.40
851.61	212.37
851.92	212.35
852.23	212.54
852.55	212.56
852.86	212.58
853.17	212.65
853.49	212.78
853.80	212.88
854.11	212.89
854.42	212.92
854.74	212.82
855.05	212.82
855.36	212.67
855.67	212.67
855.99	212.62
856.30	212.96
856.61	212.93
856.92	212.95
857.23	213.00
857.55	212.89
857.86	212.85
858.17	212.94
858.48	212.93
858.79	212.83
859.11	212.85
859.42	212.79
859.73	212.72
860.04	212.67
860.35	212.56
860.66	212.48
860.98	212.46
861.29	212.50
861.60	212.53
861.91	212.59
862.22	212.53
862.53	212.40
862.84	212.00
863.16	212.06
863.47	212.02
863.78	211.94
864.09	211.94
864.40	211.95
864.71	211.92
865.02	211.96
865.33	211.97
865.64	211.93
865.95	211.94
866.27	212.12
866.58	212.17
866.89	212.27
867.20	212.25
867.51	212.16
867.82	212.14
868.13	212.21
868.44	212.16
868.75	212.29
869.06	212.38
869.37	212.38
869.68	212.35
869.99	212.31
870.30	212.38
870.61	212.49
870.92	212.41
871.23	212.40
871.54	212.41
871.85	212.45
872.16	212.49
872.47	212.52
872.78	212.25
873.09	212.20
873.40	212.09
873.71	212.16
874.02	212.15
874.33	212.15
874.64	212.04
874.95	212.11
875.26	212.01
875.56	211.95
875.87	211.96
876.18	211.92
876.49	212.30
876.80	212.29
877.11	212.15
877.42	212.18
877.73	212.13
878.04	212.10
878.35	212.11
878.66	212.09
878.96	211.99
879.27	212.06
879.58	212.06
879.89	212.12
880.20	212.10
880.51	212.11
880.82	212.09
881.12	212.10
881.43	211.98
881.74	211.86
882.05	211.90
882.36	211.92
882.67	211.89
882.97	211.51
883.28	211.42
883.59	211.43
883.90	211.44
884.21	211.52
884.51	211.43
884.82	211.31
885.13	211.30
885.44	211.38
885.74	211.30
886.05	211.29
886.36	211.18
886.67	211.11
886.98	211.32
887.28	211.40
887.59	211.39
887.90	211.51
888.20	211.55
888.51	211.58
888.82	211.50
889.13	211.61
889.43	211.83
889.74	211.85
890.05	211.86
890.35	211.89
890.66	211.83
890.97	211.85
891.28	211.87
891.58	211.90
891.89	211.90
892.20	211.94
892.50	211.87
892.81	211.85
893.12	211.77
893.42	211.55
893.73	211.48
894.04	211.46
894.34	211.38
894.65	211.39
894.95	211.33
895.26	211.35
895.57	211.47
895.87	211.14
896.18	211.16
896.48	211.20
896.79	211.11
897.10	211.10
897.40	211.19
897.71	211.11
898.01	211.05
898.32	211.13
898.63	211.19
898.93	211.23
899.24	211.30
899.54	211.39
899.85	211.42
900.15	211.43
900.46	211.45
900.76	211.49
901.07	211.45
901.38	211.43
901.68	211.47
901.99	211.30
902.29	211.37
902.60	211.42
902.90	211.42
903.21	211.47
903.51	211.54
903.82	211.58
904.12	211.63
904.43	211.73
904.73	211.73
905.03	211.71
905.34	212.05
905.64	212.03
905.95	212.06
906.25	212.07
906.56	212.07
906.86	212.04
907.17	211.99
907.47	212.02
907.77	211.98
908.08	211.97
908.38	212.04
908.69	212.05
908.99	212.10
909.30	212.12
909.60	212.08
909.90	212.07
910.21	212.00
910.51	212.00
910.81	211.93
911.12	211.90
911.42	211.90
911.73	211.57
912.03	211.60
912.33	211.63
912.64	211.66
912.94	211.63
913.24	211.70
913.55	211.75
913.85	211.70
914.15	211.82
914.46	211.79
914.76	211.67
915.06	211.72
915.37	211.69
915.67	211.63
915.97	211.70
916.27	211.62
916.58	211.61
916.88	211.65
917.18	211.62
917.49	211.81
917.79	211.75
918.09	211.80
918.39	211.91
918.70	211.92
919.00	211.94
919.30	212.10
919.60	212.03
919.91	211.97
920.21	212.01
920.51	211.97
920.81	211.97
921.12	212.14
921.42	212.11
921.72	212.00
922.02	212.07
922.32	212.10
922.63	212.12
922.93	212.27
923.23	212.26
923.53	212.31
923.83	212.12
924.13	212.21
924.44	212.18
924.74	212.18
925.04	212.26
925.34	212.22
925.64	212.20
925.94	212.17
926.24	212.39
926.55	212.43
926.85	212.47
927.15	212.52
927.45	212.50
927.75	212.47
928.05	212.59
928.35	212.57
928.65	212.65
928.95	212.73
929.26	212.55
929.56	212.64
929.86	212.64
930.16	212.57
930.46	212.53
930.76	212.50
931.06	212.35
931.36	212.26
931.66	212.27
931.96	212.25
932.26	212.36
932.56	212.20
932.86	212.18
933.16	212.16
933.46	212.06
933.76	211.96
934.06	212.06
934.36	212.20
934.66	212.19
934.96	212.11
935.26	212.03
935.56	212.12
935.86	212.01
936.16	211.99
936.46	211.97
936.76	211.94
937.06	212.00
937.36	212.00
937.66	211.97
937.96	211.94
938.26	211.87
938.56	211.75
938.86	211.83
939.16	211.91
939.46	211.97
939.76	212.08
940.06	212.13
940.35	212.02
940.65	211.87
940.95	211.85
941.25	211.77
941.55	211.81
941.85	211.77
942.15	211.90
942.45	211.91
942.75	211.90
943.04	211.92
943.34	211.92
943.64	211.91
943.94	211.90
944.24	211.90
944.54	211.87
944.84	211.91
945.13	211.79
945.43	211.70
945.73	211.63
946.03	211.53
946.33	211.44
946.62	211.36
946.92	211.29
947.22	211.25
947.52	211.26
947.82	211.24
948.11	211.20
948.41	211.08
948.71	211.03
949.01	211.07
949.31	211.01
949.60	210.96
949.90	211.04
950.20	210.99
950.50	211.00
950.79	211.06
951.09	211.02
951.39	211.07
951.69	211.08
951.98	211.13
952.28	211.17
952.58	211.13
952.87	211.19
953.17	211.20
953.47	211.20
953.76	211.20
954.06	211.08
954.36	211.09
954.66	211.05
954.95	211.15
955.25	211.19
955.55	211.28
955.84	211.26
956.14	211.29
956.44	211.26
956.73	211.29
957.03	211.27
957.32	211.28
957.62	211.18
957.92	211.22
958.21	211.15
958.51	211.59
958.81	211.67
959.10	211.66
959.40	211.81
959.69	211.85
959.99	211.93
960.29	211.99
960.58	211.94
960.88	212.06
961.17	212.04
961.47	212.02
961.76	211.91
962.06	211.98
962.36	211.90
962.65	212.00
962.95	211.97
963.24	211.90
963.54	212.01
963.83	212.07
964.13	212.08
964.42	212.06
964.72	211.75
965.01	211.75
965.31	211.78
965.60	211.70
965.90	211.90
966.19	211.80
966.49	211.85
966.78	211.88
967.08	211.85
967.37	211.84
967.67	211.82
967.96	211.99
968.26	211.99
968.55	212.06
968.85	212.00
969.14	212.00
969.43	212.02
969.73	211.94
970.02	211.98
970.32	211.94
970.61	211.93
970.91	211.82
971.20	211.77
971.49	211.78
971.79	211.85
972.08	211.63
972.38	211.63
972.67	211.59
972.96	211.66
973.26	211.56
973.55	211.63
973.85	211.64
974.14	211.56
974.43	211.49
974.73	211.40
975.02	211.44
975.31	211.37
975.61	211.33
975.90	211.26
976.19	211.15
976.49	211.19
976.78	211.23
977.07	211.24
977.37	211.27
977.66	211.21
977.95	211.09
978.24	211.13
978.54	211.25
978.83	211.16
979.12	211.13
979.42	211.20
979.71	211.11
980.00	211.05
980.29	211.03
980.59	211.05
980.88	211.18
981.17	211.18
981.46	211.20
981.76	211.20
982.05	211.37
982.34	211.47
982.63	211.33
982.93	211.29
983.22	211.32
983.51	211.33
983.80	211.46
984.09	211.57
984.39	211.54
984.68	211.41
984.97	211.52
985.26	211.51
985.55	211.54
985.85	211.55
986.14	211.60
986.43	211.66
986.72	211.64
987.01	211.46
987.30	211.32
987.59	211.27
987.89	211.33
988.18	211.24
988.47	211.17
988.76	211.27
989.05	211.25
989.34	211.13
989.63	211.22
989.92	211.06
990.22	210.97
990.51	210.92
990.80	210.94
991.09	210.97
991.38	211.00
991.67	210.85
991.96	210.81
992.25	210.87
992.54	210.77
992.83	210.75
993.12	210.75
993.41	210.96
993.70	211.16
993.99	211.20
994.28	211.15
994.58	211.19
994.87	211.17
995.16	211.14
995.45	211.16
995.74	211.05
996.03	211.13
996.32	211.16
996.61	211.30
996.90	211.33
997.19	211.27
997.48	211.27
997.77	211.34
998.06	211.34
998.34	211.29
998.63	211.37
998.92	211.41
999.21	211.52
999.50	211.51
999.79	211.37
1000.08	211.32
1000.37	211.34
1000.66	211.35
1000.95	211.35
1001.24	211.38
1001.53	211.45
1001.82	211.38
1002.11	211.40
1002.40	211.42
1002.68	211.48
1002.97	211.68
1003.26	211.62
1003.55	211.59
1003.84	211.57
1004.13	211.64
1004.42	211.60
1004.71	211.49
1004.99	211.47
1005.28	211.52
1005.57	211.46
1005.86	211.41
1006.15	211.41
1006.44	211.38
1006.72	211.38
1007.01	211.30
1007.30	211.29
1007.59	211.24
1007.88	211.29
1008.17	211.20
1008.45	211.07
1008.74	210.91
1009.03	210.74
1009.32	210.73
1009.60	210.69
1009.89	210.67
1010.18	210.55
1010.47	210.56
1010.76	210.58
1011.04	210.53
1011.33	210.54
1011.62	210.50
1011.91	210.54
1012.19	210.51
1012.48	210.50
1012.77	210.47
1013.05	210.63
1013.34	210.71
1013.63	210.75
1013.92	210.80
1014.20	210.81
1014.49	210.90
1014.78	210.95
1015.06	210.79
1015.35	210.78
1015.64	210.83
1015.92	210.87
1016.21	210.88
1016.50	210.80
1016.78	210.86
1017.07	210.84
1017.36	210.75
1017.64	210.73
1017.93	210.74
1018.22	210.77
1018.50	210.81
1018.79	210.83
1019.08	210.73
1019.36	210.71
1019.65	210.60
1019.93	210.64
1020.22	210.70
1020.51	210.84
1020.79	210.82
1021.08	211.30
1021.36	211.00
1021.65	210.65
1021.94	210.95
1022.22	211.30
1022.51	209.30
1022.79	212.30
1023.08	211.65
1023.36	214.75
1023.65	210.85
>>>>>End Processed Spectral Data<<<<<
