SpectraSuite Data File
++++++++++++++++++++++++++++++++++++
Date: Mon Feb 25 17:06:45 EST 2013
User: group
Dark Spectrum Present: No
Reference Spectrum Present: No
Number of Sampled Component Spectra: 1
Spectrometers: USB2E7196
Integration Time (usec): 104000 (USB2E7196)
Spectra Averaged: 20 (USB2E7196)
Boxcar Smoothing: 10 (USB2E7196)
Correct for Electrical Dark: No (USB2E7196)
Strobe/Lamp Enabled: No (USB2E7196)
Correct for Detector Non-linearity: No (USB2E7196)
Correct for Stray Light: No (USB2E7196)
Number of Pixels in Processed Spectrum: 2048
>>>>>Begin Processed Spectral Data<<<<<
339.09	0.00
339.48	197.85
339.86	199.70
340.24	201.70
340.63	201.95
341.01	209.15
341.39	205.30
341.78	206.15
342.16	209.10
342.54	208.25
342.93	197.83
343.31	207.86
343.69	208.39
344.07	208.86
344.46	209.29
344.84	209.67
345.22	209.71
345.60	210.01
345.99	210.20
346.37	210.23
346.75	210.30
347.13	210.32
347.52	210.42
347.90	210.54
348.28	210.48
348.66	210.56
349.05	210.48
349.43	210.52
349.81	210.58
350.19	210.66
350.57	210.57
350.96	210.60
351.34	210.65
351.72	210.77
352.10	210.86
352.48	210.91
352.87	210.97
353.25	211.02
353.63	210.95
354.01	211.07
354.39	211.19
354.77	211.24
355.15	211.47
355.54	211.42
355.92	211.40
356.30	211.51
356.68	211.74
357.06	211.83
357.44	211.78
357.82	211.82
358.20	211.88
358.58	212.04
358.97	212.14
359.35	212.21
359.73	212.32
360.11	212.36
360.49	212.42
360.87	212.37
361.25	212.48
361.63	212.71
362.01	212.69
362.39	212.64
362.77	212.71
363.15	212.66
363.53	212.75
363.91	212.76
364.29	212.75
364.67	212.52
365.05	212.51
365.43	212.65
365.81	212.74
366.19	212.89
366.57	213.01
366.95	212.96
367.33	212.90
367.71	212.85
368.09	212.88
368.47	212.79
368.85	212.83
369.23	212.90
369.61	212.67
369.99	212.82
370.37	212.83
370.75	213.03
371.13	212.92
371.51	212.83
371.89	212.79
372.27	212.75
372.65	212.65
373.03	212.69
373.41	212.59
373.78	212.48
374.16	212.28
374.54	212.13
374.92	212.12
375.30	212.08
375.68	212.03
376.06	212.01
376.44	212.02
376.82	212.02
377.19	211.94
377.57	211.92
377.95	211.73
378.33	211.76
378.71	211.45
379.09	211.50
379.47	211.54
379.84	211.52
380.22	211.47
380.60	211.48
380.98	211.41
381.36	211.35
381.73	211.32
382.11	211.37
382.49	211.32
382.87	211.25
383.25	211.24
383.62	211.57
384.00	211.45
384.38	211.42
384.76	211.47
385.13	211.53
385.51	211.50
385.89	211.41
386.27	211.33
386.64	211.39
387.02	211.32
387.40	211.23
387.78	211.17
388.15	211.19
388.53	211.03
388.91	211.03
389.29	210.98
389.66	210.99
390.04	210.90
390.42	210.93
390.79	210.91
391.17	210.87
391.55	210.45
391.92	210.42
392.30	210.43
392.68	210.27
393.05	210.22
393.43	210.25
393.81	210.24
394.18	210.12
394.56	210.12
394.94	210.14
395.31	210.12
395.69	210.24
396.06	210.25
396.44	210.34
396.82	210.19
397.19	210.38
397.57	210.28
397.95	210.31
398.32	210.18
398.70	210.20
399.07	210.29
399.45	210.31
399.82	210.30
400.20	210.32
400.58	210.34
400.95	210.23
401.33	210.27
401.70	210.63
402.08	210.68
402.45	210.69
402.83	210.84
403.20	210.87
403.58	210.84
403.95	210.97
404.33	211.05
404.71	211.18
405.08	211.42
405.46	211.56
405.83	211.67
406.21	211.85
406.58	211.92
406.96	212.02
407.33	212.15
407.70	212.37
408.08	212.75
408.45	213.05
408.83	213.31
409.20	213.50
409.58	213.45
409.95	213.80
410.33	214.05
410.70	214.25
411.08	214.57
411.45	214.87
411.82	215.09
412.20	215.49
412.57	216.05
412.95	216.09
413.32	216.56
413.69	216.95
414.07	217.51
414.44	218.06
414.82	218.51
415.19	219.09
415.56	219.73
415.94	220.19
416.31	220.83
416.68	221.55
417.06	222.42
417.43	223.33
417.81	224.25
418.18	225.14
418.55	226.09
418.93	227.20
419.30	228.33
419.67	229.48
420.04	230.69
420.42	231.93
420.79	233.60
421.16	234.98
421.54	236.67
421.91	238.16
422.28	239.79
422.66	241.51
423.03	243.51
423.40	245.21
423.77	247.02
424.15	248.88
424.52	250.90
424.89	253.00
425.26	255.03
425.64	257.03
426.01	259.22
426.38	261.46
426.75	263.75
427.13	266.08
427.50	268.68
427.87	271.19
428.24	273.64
428.61	276.02
428.99	278.90
429.36	281.80
429.73	284.75
430.10	287.72
430.47	290.89
430.85	293.76
431.22	297.16
431.59	300.98
431.96	304.42
432.33	308.05
432.70	311.75
433.08	315.96
433.45	319.97
433.82	324.08
434.19	328.58
434.56	333.01
434.93	337.34
435.30	341.49
435.68	346.18
436.05	350.80
436.42	355.31
436.79	359.51
437.16	364.00
437.53	368.79
437.90	373.50
438.27	378.08
438.64	383.04
439.01	387.47
439.38	391.41
439.75	395.38
440.13	399.83
440.50	403.97
440.87	407.54
441.24	411.24
441.61	415.25
441.98	418.19
442.35	421.61
442.72	425.11
443.09	428.63
443.46	430.86
443.83	432.42
444.20	433.80
444.57	435.65
444.94	436.74
445.31	437.81
445.68	439.14
446.05	439.70
446.42	439.28
446.79	439.08
447.16	438.56
447.53	438.38
447.90	436.86
448.27	435.33
448.64	433.05
449.01	431.30
449.37	428.30
449.74	425.52
450.11	422.30
450.48	418.43
450.85	414.43
451.22	410.98
451.59	407.91
451.96	404.87
452.33	400.69
452.70	396.93
453.07	392.40
453.43	387.53
453.80	383.18
454.17	379.15
454.54	375.09
454.91	370.84
455.28	366.56
455.65	362.80
456.02	359.40
456.38	356.09
456.75	351.97
457.12	348.46
457.49	345.04
457.86	341.47
458.23	338.74
458.59	335.56
458.96	332.50
459.33	329.63
459.70	326.88
460.07	324.80
460.43	322.19
460.80	319.86
461.17	317.83
461.54	315.59
461.91	313.56
462.27	311.48
462.64	309.54
463.01	307.54
463.38	305.64
463.74	303.23
464.11	301.41
464.48	299.95
464.85	298.32
465.21	297.12
465.58	295.74
465.95	293.97
466.32	292.71
466.68	291.30
467.05	289.88
467.42	288.51
467.78	287.01
468.15	285.69
468.52	284.67
468.88	283.33
469.25	282.10
469.62	281.11
469.98	280.03
470.35	279.22
470.72	278.26
471.08	277.07
471.45	276.28
471.82	275.57
472.18	274.57
472.55	273.89
472.92	273.04
473.28	272.43
473.65	271.80
474.02	271.17
474.38	270.65
474.75	270.27
475.11	269.72
475.48	269.30
475.85	268.91
476.21	268.52
476.58	268.19
476.94	267.97
477.31	267.50
477.67	267.27
478.04	266.96
478.41	266.82
478.77	267.04
479.14	266.68
479.50	266.44
479.87	266.45
480.23	266.35
480.60	266.19
480.96	266.10
481.33	266.23
481.69	266.17
482.06	266.20
482.42	266.23
482.79	266.32
483.15	266.33
483.52	266.58
483.88	266.66
484.25	266.85
484.61	267.00
484.98	267.21
485.34	267.55
485.71	267.85
486.07	268.19
486.44	268.20
486.80	268.67
487.17	269.08
487.53	269.66
487.90	270.24
488.26	270.93
488.62	271.48
488.99	271.97
489.35	272.64
489.72	273.25
490.08	273.85
490.44	274.42
490.81	275.24
491.17	275.90
491.54	276.79
491.90	277.66
492.26	278.56
492.63	279.52
492.99	280.26
493.36	281.22
493.72	282.30
494.08	283.31
494.45	284.40
494.81	285.59
495.17	286.63
495.54	287.86
495.90	289.00
496.26	290.28
496.63	291.56
496.99	292.76
497.35	294.02
497.72	295.37
498.08	296.82
498.44	298.25
498.80	299.81
499.17	301.23
499.53	302.58
499.89	304.14
500.26	305.56
500.62	307.08
500.98	308.70
501.34	310.05
501.71	311.75
502.07	313.27
502.43	314.79
502.79	316.40
503.16	318.00
503.52	319.46
503.88	321.10
504.24	322.70
504.60	324.41
504.97	326.25
505.33	327.92
505.69	329.72
506.05	331.38
506.41	332.86
506.78	334.55
507.14	336.26
507.50	337.92
507.86	339.71
508.22	341.54
508.59	343.25
508.95	345.19
509.31	347.02
509.67	348.91
510.03	350.70
510.39	352.47
510.75	354.30
511.12	356.28
511.48	358.01
511.84	359.80
512.20	361.61
512.56	363.38
512.92	365.24
513.28	367.12
513.64	369.02
514.00	370.96
514.37	372.76
514.73	374.74
515.09	376.68
515.45	378.59
515.81	380.36
516.17	382.20
516.53	383.99
516.89	385.74
517.25	387.58
517.61	389.61
517.97	391.49
518.33	393.30
518.69	395.26
519.05	397.30
519.41	399.55
519.77	401.79
520.13	403.87
520.49	405.91
520.85	407.94
521.21	410.16
521.57	412.40
521.93	414.45
522.29	416.75
522.65	419.01
523.01	421.42
523.37	423.73
523.73	426.08
524.09	428.56
524.45	431.01
524.81	433.43
525.17	435.89
525.53	438.41
525.89	441.01
526.25	443.73
526.61	446.21
526.97	448.56
527.33	451.03
527.68	454.10
528.04	456.86
528.40	459.57
528.76	462.35
529.12	465.26
529.48	468.44
529.84	471.20
530.20	474.12
530.56	476.90
530.91	479.99
531.27	483.07
531.63	486.15
531.99	489.15
532.35	492.19
532.71	495.29
533.07	498.49
533.42	501.99
533.78	505.04
534.14	508.21
534.50	511.43
534.86	514.72
535.21	517.46
535.57	520.74
535.93	523.98
536.29	527.22
536.65	530.27
537.00	533.25
537.36	536.31
537.72	539.38
538.08	542.60
538.44	545.72
538.79	548.99
539.15	552.03
539.51	555.35
539.87	558.65
540.22	561.90
540.58	565.20
540.94	568.20
541.29	571.37
541.65	574.46
542.01	577.71
542.37	580.90
542.72	583.97
543.08	586.95
543.44	590.01
543.79	592.83
544.15	595.95
544.51	599.32
544.87	602.78
545.22	605.86
545.58	608.99
545.94	612.10
546.29	614.93
546.65	617.67
547.01	620.35
547.36	623.18
547.72	625.95
548.07	628.63
548.43	631.11
548.79	633.62
549.14	636.24
549.50	638.78
549.86	641.05
550.21	643.68
550.57	646.36
550.92	648.79
551.28	651.21
551.64	653.54
551.99	655.72
552.35	657.57
552.70	659.79
553.06	661.94
553.41	664.02
553.77	666.30
554.13	668.60
554.48	670.84
554.84	673.07
555.19	675.01
555.55	677.17
555.90	679.00
556.26	681.03
556.61	682.91
556.97	684.59
557.32	686.47
557.68	688.14
558.03	689.82
558.39	691.41
558.74	693.20
559.10	694.93
559.45	696.47
559.81	698.30
560.16	699.75
560.52	701.39
560.87	702.93
561.23	704.14
561.58	705.91
561.94	707.11
562.29	708.11
562.64	709.49
563.00	710.55
563.35	712.02
563.71	713.52
564.06	714.79
564.42	716.17
564.77	717.60
565.12	718.99
565.48	720.32
565.83	721.68
566.19	723.00
566.54	724.01
566.89	725.07
567.25	726.23
567.60	727.55
567.96	728.64
568.31	729.70
568.66	730.59
569.02	730.88
569.37	731.47
569.72	732.25
570.08	732.72
570.43	733.20
570.78	733.50
571.14	733.67
571.49	733.99
571.84	734.35
572.20	734.38
572.55	734.49
572.90	734.20
573.26	734.03
573.61	733.66
573.96	733.65
574.31	733.47
574.67	732.78
575.02	732.07
575.37	731.28
575.72	730.40
576.08	730.09
576.43	729.74
576.78	729.48
577.13	729.05
577.49	728.35
577.84	727.92
578.19	727.65
578.54	727.19
578.90	726.80
579.25	726.33
579.60	725.63
579.95	724.77
580.30	724.20
580.66	723.70
581.01	723.19
581.36	722.28
581.71	721.55
582.06	721.19
582.42	720.63
582.77	719.99
583.12	719.41
583.47	718.73
583.82	718.03
584.17	717.31
584.53	716.71
584.88	716.17
585.23	715.46
585.58	714.59
585.93	713.71
586.28	713.03
586.63	712.10
586.98	711.52
587.34	711.03
587.69	710.27
588.04	709.44
588.39	708.65
588.74	707.72
589.09	706.88
589.44	705.73
589.79	704.82
590.14	704.11
590.49	703.31
590.84	702.25
591.19	701.54
591.54	700.53
591.89	699.19
592.25	698.43
592.60	697.17
592.95	695.95
593.30	694.71
593.65	693.20
594.00	692.00
594.35	691.42
594.70	690.04
595.05	689.00
595.40	687.75
595.75	686.17
596.10	685.07
596.45	683.95
596.80	682.96
597.15	681.90
597.50	680.49
597.85	679.32
598.19	678.12
598.54	676.80
598.89	675.63
599.24	674.70
599.59	673.29
599.94	672.33
600.29	671.33
600.64	670.26
600.99	669.26
601.34	668.20
601.69	666.43
602.04	665.22
602.39	663.89
602.74	662.72
603.08	661.88
603.43	661.15
603.78	659.97
604.13	658.75
604.48	657.59
604.83	656.67
605.18	655.61
605.53	654.41
605.87	653.20
606.22	652.15
606.57	650.88
606.92	649.65
607.27	648.36
607.62	647.05
607.96	646.05
608.31	644.98
608.66	643.55
609.01	641.88
609.36	640.52
609.70	639.12
610.05	637.67
610.40	636.22
610.75	634.36
611.10	632.96
611.44	631.11
611.79	629.42
612.14	627.69
612.49	625.75
612.83	624.15
613.18	622.37
613.53	620.48
613.88	618.62
614.22	616.93
614.57	615.06
614.92	613.20
615.27	611.18
615.61	609.17
615.96	607.32
616.31	605.91
616.65	604.25
617.00	602.47
617.35	600.67
617.70	598.71
618.04	596.66
618.39	594.56
618.74	592.95
619.08	591.14
619.43	589.17
619.78	587.36
620.12	585.43
620.47	583.56
620.82	581.53
621.16	579.55
621.51	577.61
621.85	575.65
622.20	573.64
622.55	571.71
622.89	569.65
623.24	567.78
623.59	565.56
623.93	563.58
624.28	561.70
624.62	559.99
624.97	558.31
625.32	556.65
625.66	554.83
626.01	552.90
626.35	550.85
626.70	548.99
627.04	547.46
627.39	545.60
627.73	543.79
628.08	542.21
628.43	540.41
628.77	538.44
629.12	536.54
629.46	534.89
629.81	532.99
630.15	531.32
630.50	529.34
630.84	527.46
631.19	525.63
631.53	523.85
631.88	521.65
632.22	519.64
632.57	517.88
632.91	515.90
633.26	514.10
633.60	512.40
633.95	510.56
634.29	508.45
634.64	506.75
634.98	504.71
635.32	502.93
635.67	501.29
636.01	499.59
636.36	497.92
636.70	496.17
637.05	494.45
637.39	492.59
637.73	491.07
638.08	489.55
638.42	487.90
638.77	486.12
639.11	484.57
639.45	482.86
639.80	480.91
640.14	479.11
640.49	477.42
640.83	475.51
641.17	473.80
641.52	472.02
641.86	470.18
642.20	468.66
642.55	466.61
642.89	464.72
643.23	462.73
643.58	461.09
643.92	459.04
644.26	457.22
644.61	455.55
644.95	453.79
645.29	452.03
645.64	450.25
645.98	448.48
646.32	446.74
646.66	444.80
647.01	443.04
647.35	441.51
647.69	439.65
648.04	438.06
648.38	436.45
648.72	434.82
649.06	433.07
649.41	431.10
649.75	429.48
650.09	427.80
650.43	426.23
650.78	424.33
651.12	422.70
651.46	421.05
651.80	419.45
652.14	417.60
652.49	416.01
652.83	414.28
653.17	412.47
653.51	410.68
653.85	409.15
654.20	407.48
654.54	405.68
654.88	403.97
655.22	402.36
655.56	400.46
655.90	398.75
656.25	396.91
656.59	395.41
656.93	393.77
657.27	392.26
657.61	390.58
657.95	389.11
658.29	387.58
658.64	386.12
658.98	384.33
659.32	382.67
659.66	380.93
660.00	379.31
660.34	377.71
660.68	376.09
661.02	374.53
661.36	373.11
661.70	371.69
662.05	370.31
662.39	368.88
662.73	367.65
663.07	366.39
663.41	365.16
663.75	363.77
664.09	362.45
664.43	360.90
664.77	359.60
665.11	358.18
665.45	356.85
665.79	355.52
666.13	354.34
666.47	353.11
666.81	351.90
667.15	350.59
667.49	349.57
667.83	348.56
668.17	347.33
668.51	346.05
668.85	344.85
669.19	343.79
669.53	342.48
669.87	341.16
670.21	339.78
670.55	338.53
670.89	337.56
671.23	336.44
671.57	335.40
671.91	334.24
672.25	333.16
672.58	332.11
672.92	330.92
673.26	329.83
673.60	328.80
673.94	327.63
674.28	326.56
674.62	325.46
674.96	324.26
675.30	323.29
675.64	322.28
675.97	321.21
676.31	320.18
676.65	319.21
676.99	318.41
677.33	317.51
677.67	316.53
678.01	315.44
678.34	314.48
678.68	313.60
679.02	312.74
679.36	311.79
679.70	310.82
680.04	309.91
680.37	308.97
680.71	308.04
681.05	307.27
681.39	306.41
681.73	305.38
682.06	304.60
682.40	303.67
682.74	302.86
683.08	302.16
683.42	301.16
683.75	300.43
684.09	299.41
684.43	298.56
684.77	297.69
685.10	296.70
685.44	295.74
685.78	294.87
686.12	293.96
686.45	293.08
686.79	292.28
687.13	291.55
687.46	290.76
687.80	289.98
688.14	289.14
688.48	288.39
688.81	287.69
689.15	286.90
689.49	286.09
689.82	285.28
690.16	284.32
690.50	283.52
690.83	282.58
691.17	281.83
691.51	281.09
691.84	280.48
692.18	279.90
692.52	279.19
692.85	278.54
693.19	277.98
693.52	277.34
693.86	276.56
694.20	275.88
694.53	275.18
694.87	274.46
695.21	273.71
695.54	273.00
695.88	272.25
696.21	271.50
696.55	270.92
696.88	270.29
697.22	269.63
697.56	269.16
697.89	268.54
698.23	267.96
698.56	267.24
698.90	266.60
699.23	265.94
699.57	265.43
699.90	264.74
700.24	263.98
700.58	263.40
700.91	262.87
701.25	262.50
701.58	262.01
701.92	261.48
702.25	260.94
702.59	260.29
702.92	259.85
703.26	259.28
703.59	258.77
703.93	258.52
704.26	258.10
704.60	257.57
704.93	257.09
705.26	256.55
705.60	256.21
705.93	255.65
706.27	255.29
706.60	254.84
706.94	254.57
707.27	254.15
707.61	253.68
707.94	253.21
708.27	252.46
708.61	251.97
708.94	251.64
709.28	251.28
709.61	251.03
709.94	250.60
710.28	250.24
710.61	249.90
710.95	249.21
711.28	249.10
711.61	248.67
711.95	248.46
712.28	248.03
712.61	247.65
712.95	247.53
713.28	247.24
713.61	246.91
713.95	246.39
714.28	246.10
714.61	245.76
714.95	245.45
715.28	245.09
715.61	244.66
715.95	244.25
716.28	243.75
716.61	243.41
716.95	243.08
717.28	242.75
717.61	242.37
717.94	242.04
718.28	241.41
718.61	241.14
718.94	240.72
719.27	240.42
719.61	240.13
719.94	239.75
720.27	239.24
720.60	238.87
720.94	238.61
721.27	238.29
721.60	238.10
721.93	237.79
722.27	237.63
722.60	237.48
722.93	237.16
723.26	237.09
723.59	236.69
723.93	236.43
724.26	236.26
724.59	235.94
724.92	235.78
725.25	235.62
725.59	235.29
725.92	235.07
726.25	234.81
726.58	234.61
726.91	234.31
727.24	234.16
727.57	233.95
727.91	233.61
728.24	233.45
728.57	233.08
728.90	232.88
729.23	232.54
729.56	232.45
729.89	232.31
730.22	231.98
730.55	231.87
730.89	231.67
731.22	231.41
731.55	231.22
731.88	231.01
732.21	230.83
732.54	230.63
732.87	230.44
733.20	230.38
733.53	230.15
733.86	229.98
734.19	229.74
734.52	229.59
734.85	229.68
735.18	229.41
735.51	229.38
735.84	229.27
736.17	229.26
736.50	228.92
736.83	229.07
737.16	228.94
737.49	228.77
737.82	228.51
738.15	228.32
738.48	228.15
738.81	227.92
739.14	227.64
739.47	227.44
739.80	227.27
740.13	227.05
740.46	226.81
740.79	226.60
741.12	226.41
741.45	226.22
741.78	225.87
742.11	225.88
742.44	225.66
742.77	225.54
743.10	225.26
743.43	225.12
743.75	224.66
744.08	224.99
744.41	224.81
744.74	224.68
745.07	224.49
745.40	224.44
745.73	224.44
746.06	224.32
746.39	224.27
746.71	224.07
747.04	223.92
747.37	223.83
747.70	223.75
748.03	223.71
748.36	223.64
748.68	223.57
749.01	223.25
749.34	223.13
749.67	222.97
750.00	222.90
750.33	222.97
750.65	222.90
750.98	222.39
751.31	222.24
751.64	222.17
751.97	222.26
752.29	222.04
752.62	221.77
752.95	221.76
753.28	221.61
753.60	221.51
753.93	221.56
754.26	221.45
754.59	221.28
754.91	221.12
755.24	221.02
755.57	220.81
755.90	220.77
756.22	220.64
756.55	220.51
756.88	220.34
757.20	220.09
757.53	219.91
757.86	219.72
758.19	219.71
758.51	219.59
758.84	219.37
759.17	219.34
759.49	219.35
759.82	219.36
760.15	219.28
760.47	219.27
760.80	219.00
761.13	218.96
761.45	218.83
761.78	218.79
762.11	218.73
762.43	218.69
762.76	218.58
763.08	218.58
763.41	218.56
763.74	218.54
764.06	218.42
764.39	218.37
764.71	218.35
765.04	218.27
765.37	218.21
765.69	218.09
766.02	218.06
766.34	217.94
766.67	217.75
767.00	217.73
767.32	217.82
767.65	218.02
767.97	217.92
768.30	217.92
768.62	217.84
768.95	217.66
769.27	217.54
769.60	217.57
769.92	217.41
770.25	217.22
770.57	217.11
770.90	217.08
771.22	216.99
771.55	216.96
771.87	216.86
772.20	216.84
772.52	217.15
772.85	217.46
773.17	217.38
773.50	217.32
773.82	217.20
774.15	217.00
774.47	216.65
774.80	216.59
775.12	216.53
775.45	216.44
775.77	216.43
776.09	216.48
776.42	216.34
776.74	216.42
777.07	216.37
777.39	216.32
777.72	216.25
778.04	216.20
778.36	216.09
778.69	216.01
779.01	215.89
779.33	215.51
779.66	215.09
779.98	214.95
780.31	214.86
780.63	215.00
780.95	215.00
781.28	214.98
781.60	214.90
781.92	214.88
782.25	214.81
782.57	214.74
782.89	214.65
783.22	214.68
783.54	214.56
783.86	214.62
784.19	214.58
784.51	214.55
784.83	214.49
785.16	214.40
785.48	214.38
785.80	214.42
786.12	214.41
786.45	214.33
786.77	214.43
787.09	214.40
787.42	214.25
787.74	214.17
788.06	214.18
788.38	214.13
788.71	214.10
789.03	214.11
789.35	214.15
789.67	214.14
789.99	214.10
790.32	214.00
790.64	213.97
790.96	214.28
791.28	214.16
791.61	214.12
791.93	214.16
792.25	214.18
792.57	214.28
792.89	214.20
793.21	214.22
793.54	214.16
793.86	214.05
794.18	214.06
794.50	214.05
794.82	214.02
795.14	214.05
795.47	214.10
795.79	214.11
796.11	214.02
796.43	213.94
796.75	213.93
797.07	213.97
797.39	213.92
797.71	213.64
798.04	213.69
798.36	213.60
798.68	213.56
799.00	213.49
799.32	213.33
799.64	213.36
799.96	213.30
800.28	213.33
800.60	213.36
800.92	213.31
801.24	213.28
801.56	213.25
801.89	213.29
802.21	213.22
802.53	213.13
802.85	213.15
803.17	213.34
803.49	213.27
803.81	213.21
804.13	213.17
804.45	213.06
804.77	213.03
805.09	213.13
805.41	213.11
805.73	213.10
806.05	213.05
806.37	213.00
806.69	212.98
807.01	212.99
807.33	212.97
807.65	212.89
807.97	213.06
808.28	213.03
808.60	212.88
808.92	212.87
809.24	213.02
809.56	212.96
809.88	212.75
810.20	212.85
810.52	212.93
810.84	212.87
811.16	212.85
811.48	212.80
811.80	212.88
812.12	212.88
812.43	212.90
812.75	212.90
813.07	212.92
813.39	212.90
813.71	212.79
814.03	212.81
814.35	212.72
814.67	212.55
814.98	212.54
815.30	212.64
815.62	212.56
815.94	212.35
816.26	212.40
816.58	212.38
816.89	212.25
817.21	212.12
817.53	212.15
817.85	212.18
818.17	212.23
818.48	212.09
818.80	212.12
819.12	212.16
819.44	212.08
819.76	212.06
820.07	212.04
820.39	211.97
820.71	211.98
821.03	212.05
821.34	212.07
821.66	212.10
821.98	212.07
822.30	212.05
822.61	212.28
822.93	212.20
823.25	212.20
823.57	212.17
823.88	212.26
824.20	212.23
824.52	212.33
824.83	212.25
825.15	212.23
825.47	212.17
825.79	212.08
826.10	212.12
826.42	212.13
826.74	212.23
827.05	212.32
827.37	212.36
827.69	212.41
828.00	212.33
828.32	212.38
828.64	212.41
828.95	212.65
829.27	212.61
829.58	212.59
829.90	212.66
830.22	212.79
830.53	212.74
830.85	212.68
831.17	212.53
831.48	212.58
831.80	212.56
832.11	212.60
832.43	212.63
832.75	212.64
833.06	212.79
833.38	212.72
833.69	212.65
834.01	212.61
834.32	212.54
834.64	212.53
834.96	212.43
835.27	212.37
835.59	212.19
835.90	212.00
836.22	212.07
836.53	211.93
836.85	211.81
837.16	212.14
837.48	212.25
837.79	212.37
838.11	212.37
838.42	212.38
838.74	212.43
839.05	212.35
839.37	212.23
839.68	212.00
840.00	211.94
840.31	212.04
840.63	212.00
840.94	211.91
841.26	211.90
841.57	211.91
841.88	211.95
842.20	211.91
842.51	211.96
842.83	211.95
843.14	212.27
843.46	212.30
843.77	212.11
844.08	212.03
844.40	211.94
844.71	211.87
845.03	211.90
845.34	211.84
845.65	211.89
845.97	212.00
846.28	212.04
846.60	212.00
846.91	211.92
847.22	211.95
847.54	212.06
847.85	212.00
848.16	211.90
848.48	211.82
848.79	211.94
849.10	211.97
849.42	211.96
849.73	211.66
850.04	211.58
850.36	211.42
850.67	211.50
850.98	211.45
851.30	211.53
851.61	211.50
851.92	211.43
852.23	211.46
852.55	211.35
852.86	211.35
853.17	211.46
853.49	211.55
853.80	211.55
854.11	211.60
854.42	211.66
854.74	211.73
855.05	211.69
855.36	211.46
855.67	211.47
855.99	211.42
856.30	211.80
856.61	211.82
856.92	211.83
857.23	211.84
857.55	211.79
857.86	211.75
858.17	211.76
858.48	211.74
858.79	211.70
859.11	211.79
859.42	211.73
859.73	211.68
860.04	211.62
860.35	211.56
860.66	211.40
860.98	211.41
861.29	211.43
861.60	211.46
861.91	211.60
862.22	211.47
862.53	211.40
862.84	211.03
863.16	211.13
863.47	211.04
863.78	210.94
864.09	210.96
864.40	210.98
864.71	210.96
865.02	211.00
865.33	210.89
865.64	210.80
865.95	210.93
866.27	211.11
866.58	211.06
866.89	211.07
867.20	211.10
867.51	211.06
867.82	211.01
868.13	211.13
868.44	211.10
868.75	211.25
869.06	211.33
869.37	211.39
869.68	211.29
869.99	211.40
870.30	211.41
870.61	211.51
870.92	211.46
871.23	211.42
871.54	211.46
871.85	211.56
872.16	211.62
872.47	211.48
872.78	211.29
873.09	211.31
873.40	211.26
873.71	211.23
874.02	211.25
874.33	211.27
874.64	211.18
874.95	211.25
875.26	211.12
875.56	211.05
875.87	211.07
876.18	211.05
876.49	211.40
876.80	211.45
877.11	211.29
877.42	211.37
877.73	211.44
878.04	211.43
878.35	211.44
878.66	211.45
878.96	211.44
879.27	211.42
879.58	211.46
879.89	211.39
880.20	211.52
880.51	211.48
880.82	211.56
881.12	211.54
881.43	211.43
881.74	211.41
882.05	211.41
882.36	211.41
882.67	211.44
882.97	211.08
883.28	211.02
883.59	211.15
883.90	211.18
884.21	211.22
884.51	211.19
884.82	211.18
885.13	211.24
885.44	211.23
885.74	211.28
886.05	211.23
886.36	211.37
886.67	211.23
886.98	211.44
887.28	211.37
887.59	211.42
887.90	211.44
888.20	211.38
888.51	211.48
888.82	211.40
889.13	211.41
889.43	211.67
889.74	211.67
890.05	211.62
890.35	211.54
890.66	211.40
890.97	211.33
891.28	211.25
891.58	211.13
891.89	211.13
892.20	211.12
892.50	211.08
892.81	211.01
893.12	211.00
893.42	210.80
893.73	210.80
894.04	210.80
894.34	210.83
894.65	210.86
894.95	210.84
895.26	210.92
895.57	211.14
895.87	210.82
896.18	210.89
896.48	210.86
896.79	210.83
897.10	210.92
897.40	211.00
897.71	211.13
898.01	211.16
898.32	211.25
898.63	211.12
898.93	211.13
899.24	211.14
899.54	211.13
899.85	211.11
900.15	211.10
900.46	211.14
900.76	211.14
901.07	211.12
901.38	211.04
901.68	211.04
901.99	210.82
902.29	210.84
902.60	210.81
902.90	210.81
903.21	210.85
903.51	210.87
903.82	210.88
904.12	210.85
904.43	210.83
904.73	210.80
905.03	210.92
905.34	211.30
905.64	211.30
905.95	211.39
906.25	211.40
906.56	211.40
906.86	211.30
907.17	211.25
907.47	211.35
907.77	211.40
908.08	211.31
908.38	211.34
908.69	211.38
908.99	211.46
909.30	211.45
909.60	211.42
909.90	211.47
910.21	211.47
910.51	211.40
910.81	211.45
911.12	211.44
911.42	211.44
911.73	211.06
912.03	211.12
912.33	211.07
912.64	211.05
912.94	211.00
913.24	210.97
913.55	210.93
913.85	210.91
914.15	211.02
914.46	211.08
914.76	211.01
915.06	211.01
915.37	210.87
915.67	210.91
915.97	210.92
916.27	210.79
916.58	210.82
916.88	210.85
917.18	210.81
917.49	211.11
917.79	211.13
918.09	211.20
918.39	211.24
918.70	211.24
919.00	211.27
919.30	211.51
919.60	211.59
919.91	211.61
920.21	211.60
920.51	211.45
920.81	211.40
921.12	211.45
921.42	211.43
921.72	211.60
922.02	211.60
922.32	211.69
922.63	211.73
922.93	211.87
923.23	211.92
923.53	211.90
923.83	211.60
924.13	211.59
924.44	211.61
924.74	211.72
925.04	211.90
925.34	211.91
925.64	211.77
925.94	211.77
926.24	211.99
926.55	212.00
926.85	212.00
927.15	212.09
927.45	212.14
927.75	212.09
928.05	212.05
928.35	212.03
928.65	212.01
928.95	212.05
929.26	211.92
929.56	211.93
929.86	211.99
930.16	212.00
930.46	212.01
930.76	212.02
931.06	211.78
931.36	211.56
931.66	211.57
931.96	211.59
932.26	211.53
932.56	211.41
932.86	211.42
933.16	211.45
933.46	211.38
933.76	211.32
934.06	211.47
934.36	211.52
934.66	211.52
934.96	211.45
935.26	211.41
935.56	211.40
935.86	211.35
936.16	211.25
936.46	211.25
936.76	211.15
937.06	211.03
937.36	211.10
937.66	211.15
937.96	211.14
938.26	211.05
938.56	211.05
938.86	211.00
939.16	211.01
939.46	211.06
939.76	210.98
940.06	210.92
940.35	210.77
940.65	210.55
940.95	210.59
941.25	210.55
941.55	210.52
941.85	210.51
942.15	210.61
942.45	210.73
942.75	210.66
943.04	210.71
943.34	210.87
943.64	210.85
943.94	210.79
944.24	210.86
944.54	210.87
944.84	210.81
945.13	210.83
945.43	210.78
945.73	210.75
946.03	210.85
946.33	210.82
946.62	210.79
946.92	210.78
947.22	210.75
947.52	210.73
947.82	210.78
948.11	210.73
948.41	210.61
948.71	210.51
949.01	210.51
949.31	210.54
949.60	210.44
949.90	210.45
950.20	210.50
950.50	210.40
950.79	210.43
951.09	210.50
951.39	210.47
951.69	210.46
951.98	210.54
952.28	210.57
952.58	210.64
952.87	210.65
953.17	210.66
953.47	210.67
953.76	210.76
954.06	210.73
954.36	210.72
954.66	210.74
954.95	210.82
955.25	210.94
955.55	210.91
955.84	210.84
956.14	210.87
956.44	210.83
956.73	210.77
957.03	210.73
957.32	210.75
957.62	210.71
957.92	210.83
958.21	210.79
958.51	211.14
958.81	211.14
959.10	211.15
959.40	211.31
959.69	211.34
959.99	211.31
960.29	211.30
960.58	211.27
960.88	211.36
961.17	211.37
961.47	211.35
961.76	211.37
962.06	211.50
962.36	211.46
962.65	211.58
962.95	211.66
963.24	211.71
963.54	211.74
963.83	211.83
964.13	211.75
964.42	211.58
964.72	211.30
965.01	211.41
965.31	211.44
965.60	211.38
965.90	211.60
966.19	211.63
966.49	211.63
966.78	211.64
967.08	211.62
967.37	211.66
967.67	211.60
967.96	211.66
968.26	211.68
968.55	211.68
968.85	211.63
969.14	211.61
969.43	211.53
969.73	211.49
970.02	211.41
970.32	211.47
970.61	211.51
970.91	211.44
971.20	211.27
971.49	211.20
971.79	211.23
972.08	210.98
972.38	210.90
972.67	210.81
972.96	210.86
973.26	210.75
973.55	210.84
973.85	210.87
974.14	210.76
974.43	210.72
974.73	210.69
975.02	210.67
975.31	210.71
975.61	210.72
975.90	210.66
976.19	210.61
976.49	210.60
976.78	210.65
977.07	210.57
977.37	210.55
977.66	210.68
977.95	210.60
978.24	210.53
978.54	210.57
978.83	210.63
979.12	210.54
979.42	210.54
979.71	210.41
980.00	210.33
980.29	210.38
980.59	210.30
980.88	210.31
981.17	210.22
981.46	210.20
981.76	210.23
982.05	210.35
982.34	210.37
982.63	210.34
982.93	210.37
983.22	210.49
983.51	210.60
983.80	210.59
984.09	210.64
984.39	210.73
984.68	210.80
984.97	210.86
985.26	210.90
985.55	210.92
985.85	210.87
986.14	210.93
986.43	211.00
986.72	210.97
987.01	210.92
987.30	210.97
987.59	210.94
987.89	210.93
988.18	210.85
988.47	210.77
988.76	210.74
989.05	210.68
989.34	210.63
989.63	210.67
989.92	210.55
990.22	210.49
990.51	210.43
990.80	210.35
991.09	210.40
991.38	210.44
991.67	210.48
991.96	210.43
992.25	210.50
992.54	210.37
992.83	210.40
993.12	210.46
993.41	210.58
993.70	210.70
993.99	210.81
994.28	210.87
994.58	210.98
994.87	210.94
995.16	210.92
995.45	210.92
995.74	210.80
996.03	210.94
996.32	211.02
996.61	211.10
996.90	211.04
997.19	210.96
997.48	210.96
997.77	210.93
998.06	211.02
998.34	210.96
998.63	210.98
998.92	211.00
999.21	210.99
999.50	210.93
999.79	210.82
1000.08	210.69
1000.37	210.72
1000.66	210.70
1000.95	210.84
1001.24	210.90
1001.53	210.91
1001.82	210.89
1002.11	210.77
1002.40	210.81
1002.68	210.88
1002.97	211.16
1003.26	211.11
1003.55	211.04
1003.84	211.04
1004.13	211.12
1004.42	211.05
1004.71	211.06
1004.99	211.07
1005.28	211.12
1005.57	211.14
1005.86	211.17
1006.15	211.18
1006.44	211.01
1006.72	211.01
1007.01	210.97
1007.30	211.00
1007.59	211.01
1007.88	211.05
1008.17	211.05
1008.45	210.94
1008.74	210.84
1009.03	210.66
1009.32	210.71
1009.60	210.68
1009.89	210.66
1010.18	210.50
1010.47	210.56
1010.76	210.59
1011.04	210.51
1011.33	210.51
1011.62	210.48
1011.91	210.45
1012.19	210.52
1012.48	210.60
1012.77	210.67
1013.05	210.78
1013.34	210.78
1013.63	210.77
1013.92	210.79
1014.20	210.76
1014.49	210.81
1014.78	210.84
1015.06	210.72
1015.35	210.73
1015.64	210.76
1015.92	210.82
1016.21	210.84
1016.50	210.87
1016.78	210.90
1017.07	210.94
1017.36	210.85
1017.64	210.83
1017.93	210.82
1018.22	210.70
1018.50	210.76
1018.79	210.74
1019.08	210.58
1019.36	210.45
1019.65	210.34
1019.93	210.39
1020.22	210.50
1020.51	210.70
1020.79	210.63
1021.08	208.95
1021.36	211.75
1021.65	211.45
1021.94	210.25
1022.22	209.00
1022.51	208.85
1022.79	211.70
1023.08	211.80
1023.36	215.40
1023.65	209.75
>>>>>End Processed Spectral Data<<<<<
