SpectraSuite Data File
++++++++++++++++++++++++++++++++++++
Date: Mon Feb 25 17:11:17 EST 2013
User: group
Dark Spectrum Present: No
Reference Spectrum Present: No
Number of Sampled Component Spectra: 1
Spectrometers: USB2E7196
Integration Time (usec): 104000 (USB2E7196)
Spectra Averaged: 20 (USB2E7196)
Boxcar Smoothing: 10 (USB2E7196)
Correct for Electrical Dark: No (USB2E7196)
Strobe/Lamp Enabled: No (USB2E7196)
Correct for Detector Non-linearity: No (USB2E7196)
Correct for Stray Light: No (USB2E7196)
Number of Pixels in Processed Spectrum: 2048
>>>>>Begin Processed Spectral Data<<<<<
339.09	0.00
339.48	198.25
339.86	200.15
340.24	200.20
340.63	202.25
341.01	208.05
341.39	205.55
341.78	208.25
342.16	208.10
342.54	209.20
342.93	198.43
343.31	208.45
343.69	209.09
344.07	209.52
344.46	210.04
344.84	210.49
345.22	210.62
345.60	210.90
345.99	211.06
346.37	211.23
346.75	211.29
347.13	211.28
347.52	211.25
347.90	211.41
348.28	211.45
348.66	211.46
349.05	211.31
349.43	211.34
349.81	211.39
350.19	211.43
350.57	211.44
350.96	211.45
351.34	211.54
351.72	211.56
352.10	211.70
352.48	211.72
352.87	211.67
353.25	211.75
353.63	211.74
354.01	211.78
354.39	211.83
354.77	211.90
355.15	212.00
355.54	212.07
355.92	211.97
356.30	212.01
356.68	212.24
357.06	212.30
357.44	212.30
357.82	212.37
358.20	212.44
358.58	212.50
358.97	212.63
359.35	212.74
359.73	212.82
360.11	212.86
360.49	212.98
360.87	213.05
361.25	213.11
361.63	213.27
362.01	213.26
362.39	213.35
362.77	213.40
363.15	213.41
363.53	213.47
363.91	213.51
364.29	213.46
364.67	213.25
365.05	213.27
365.43	213.36
365.81	213.42
366.19	213.54
366.57	213.66
366.95	213.59
367.33	213.47
367.71	213.50
368.09	213.48
368.47	213.36
368.85	213.40
369.23	213.41
369.61	213.28
369.99	213.38
370.37	213.30
370.75	213.47
371.13	213.41
371.51	213.24
371.89	213.27
372.27	213.30
372.65	213.34
373.03	213.34
373.41	213.22
373.78	213.21
374.16	213.00
374.54	212.87
374.92	212.78
375.30	212.77
375.68	212.60
376.06	212.58
376.44	212.60
376.82	212.52
377.19	212.47
377.57	212.44
377.95	212.38
378.33	212.26
378.71	211.99
379.09	212.04
379.47	212.10
379.84	211.99
380.22	211.96
380.60	211.78
380.98	211.72
381.36	211.68
381.73	211.51
382.11	211.59
382.49	211.54
382.87	211.49
383.25	211.39
383.62	211.75
384.00	211.70
384.38	211.67
384.76	211.73
385.13	211.85
385.51	211.80
385.89	211.59
386.27	211.56
386.64	211.56
387.02	211.44
387.40	211.36
387.78	211.32
388.15	211.34
388.53	211.29
388.91	211.20
389.29	211.18
389.66	211.25
390.04	211.16
390.42	211.19
390.79	211.15
391.17	211.20
391.55	210.83
391.92	210.85
392.30	210.80
392.68	210.72
393.05	210.60
393.43	210.62
393.81	210.62
394.18	210.67
394.56	210.66
394.94	210.75
395.31	210.75
395.69	210.85
396.06	210.81
396.44	210.87
396.82	210.90
397.19	211.11
397.57	211.07
397.95	211.12
398.32	211.04
398.70	211.14
399.07	211.20
399.45	211.24
399.82	211.18
400.20	211.17
400.58	211.19
400.95	211.06
401.33	211.12
401.70	211.49
402.08	211.49
402.45	211.55
402.83	211.64
403.20	211.70
403.58	211.71
403.95	211.86
404.33	211.90
404.71	212.02
405.08	212.20
405.46	212.21
405.83	212.30
406.21	212.47
406.58	212.58
406.96	212.62
407.33	212.71
407.70	212.89
408.08	213.37
408.45	213.53
408.83	213.74
409.20	213.90
409.58	213.82
409.95	214.11
410.33	214.33
410.70	214.44
411.08	214.72
411.45	214.99
411.82	215.14
412.20	215.51
412.57	215.96
412.95	215.98
413.32	216.46
413.69	216.78
414.07	217.05
414.44	217.47
414.82	217.92
415.19	218.50
415.56	219.06
415.94	219.41
416.31	220.02
416.68	220.75
417.06	221.45
417.43	222.23
417.81	223.02
418.18	223.83
418.55	224.63
418.93	225.51
419.30	226.40
419.67	227.38
420.04	228.36
420.42	229.35
420.79	230.85
421.16	232.06
421.54	233.48
421.91	234.82
422.28	236.14
422.66	237.60
423.03	239.17
423.40	240.61
423.77	242.10
424.15	243.60
424.52	245.13
424.89	246.94
425.26	248.61
425.64	250.12
426.01	251.89
426.38	253.82
426.75	255.80
427.13	257.79
427.50	260.00
427.87	262.21
428.24	264.33
428.61	266.25
428.99	268.68
429.36	271.00
429.73	273.40
430.10	275.90
430.47	278.47
430.85	280.80
431.22	283.50
431.59	286.56
431.96	289.45
432.33	292.61
432.70	295.51
433.08	299.00
433.45	302.35
433.82	305.69
434.19	309.30
434.56	312.88
434.93	316.33
435.30	319.62
435.68	323.33
436.05	327.02
436.42	330.65
436.79	333.94
437.16	337.60
437.53	341.53
437.90	345.22
438.27	348.96
438.64	352.87
439.01	356.53
439.38	359.58
439.75	362.72
440.13	366.17
440.50	369.55
440.87	372.26
441.24	375.02
441.61	378.07
441.98	380.36
442.35	382.97
442.72	385.71
443.09	388.47
443.46	390.05
443.83	391.12
444.20	392.14
444.57	393.37
444.94	394.05
445.31	394.64
445.68	395.79
446.05	395.92
446.42	395.58
446.79	395.26
447.16	394.77
447.53	394.41
447.90	392.99
448.27	391.52
448.64	389.69
449.01	388.34
449.37	385.90
449.74	383.52
450.11	380.87
450.48	377.59
450.85	374.11
451.22	371.35
451.59	368.82
451.96	366.28
452.33	362.96
452.70	359.96
453.07	356.33
453.43	352.18
453.80	348.76
454.17	345.41
454.54	342.01
454.91	338.62
455.28	335.18
455.65	332.02
456.02	329.44
456.38	326.61
456.75	323.33
457.12	320.52
457.49	317.74
457.86	314.84
458.23	312.64
458.59	310.23
458.96	307.78
459.33	305.41
459.70	303.05
460.07	301.27
460.43	299.19
460.80	297.31
461.17	295.72
461.54	293.97
461.91	292.18
462.27	290.54
462.64	289.04
463.01	287.43
463.38	286.09
463.74	283.96
464.11	282.60
464.48	281.36
464.85	279.97
465.21	279.05
465.58	278.06
465.95	276.69
466.32	275.73
466.68	274.64
467.05	273.60
467.42	272.65
467.78	271.44
468.15	270.44
468.52	269.68
468.88	268.56
469.25	267.58
469.62	266.95
469.98	266.18
470.35	265.41
470.72	264.76
471.08	263.81
471.45	263.29
471.82	262.78
472.18	262.14
472.55	261.79
472.92	261.13
473.28	260.52
473.65	260.08
474.02	259.47
474.38	259.06
474.75	258.90
475.11	258.59
475.48	258.47
475.85	258.19
476.21	257.90
476.58	257.79
476.94	257.64
477.31	257.38
477.67	257.15
478.04	257.05
478.41	256.99
478.77	257.41
479.14	257.27
479.50	257.16
479.87	257.21
480.23	257.17
480.60	257.20
480.96	257.26
481.33	257.61
481.69	257.87
482.06	258.03
482.42	258.14
482.79	258.32
483.15	258.51
483.52	258.85
483.88	259.17
484.25	259.43
484.61	259.81
484.98	260.22
485.34	260.82
485.71	261.31
486.07	261.84
486.44	262.06
486.80	262.75
487.17	263.46
487.53	264.31
487.90	265.15
488.26	266.12
488.62	267.13
488.99	267.87
489.35	268.81
489.72	269.82
490.08	270.82
490.44	271.94
490.81	273.16
491.17	274.37
491.54	275.67
491.90	277.19
492.26	278.63
492.63	280.22
492.99	281.71
493.36	283.40
493.72	285.16
494.08	286.92
494.45	288.85
494.81	290.83
495.17	292.82
495.54	295.05
495.90	297.26
496.26	299.51
496.63	301.90
496.99	304.30
497.35	306.90
497.72	309.59
498.08	312.32
498.44	315.18
498.80	318.25
499.17	321.30
499.53	324.47
499.89	327.78
500.26	331.16
500.62	334.57
500.98	338.29
501.34	341.94
501.71	345.81
502.07	349.57
502.43	353.45
502.79	357.47
503.16	361.54
503.52	365.73
503.88	370.19
504.24	374.85
504.60	379.53
504.97	384.36
505.33	389.19
505.69	394.46
506.05	399.68
506.41	404.99
506.78	410.30
507.14	415.60
507.50	421.25
507.86	426.90
508.22	432.85
508.59	438.59
508.95	444.66
509.31	450.84
509.67	457.28
510.03	463.86
510.39	470.37
510.75	477.10
511.12	483.91
511.48	490.64
511.84	497.41
512.20	504.44
512.56	511.57
512.92	519.10
513.28	526.27
513.64	533.66
514.00	540.99
514.37	548.77
514.73	556.65
515.09	564.45
515.45	572.35
515.81	580.20
516.17	588.12
516.53	596.17
516.89	604.03
517.25	611.99
517.61	620.13
517.97	628.30
518.33	636.48
518.69	644.85
519.05	653.22
519.41	661.83
519.77	670.56
520.13	678.91
520.49	687.18
520.85	695.74
521.21	704.53
521.57	713.38
521.93	721.68
522.29	730.37
522.65	738.92
523.01	747.57
523.37	756.16
523.73	764.90
524.09	773.57
524.45	782.33
524.81	791.18
525.17	799.95
525.53	808.88
525.89	817.70
526.25	826.33
526.61	834.86
526.97	843.38
527.33	851.95
527.68	861.01
528.04	869.51
528.40	877.75
528.76	885.80
529.12	894.37
529.48	903.34
529.84	911.85
530.20	920.51
530.56	928.93
530.91	937.73
531.27	946.32
531.63	954.70
531.99	963.30
532.35	971.44
532.71	979.55
533.07	987.92
533.42	996.27
533.78	1004.51
534.14	1012.55
534.50	1019.99
534.86	1027.71
535.21	1034.73
535.57	1042.72
535.93	1050.22
536.29	1058.00
536.65	1065.08
537.00	1071.83
537.36	1078.49
537.72	1085.29
538.08	1092.10
538.44	1098.69
538.79	1105.45
539.15	1112.00
539.51	1118.25
539.87	1124.91
540.22	1131.42
540.58	1137.61
540.94	1143.53
541.29	1149.19
541.65	1154.84
542.01	1160.77
542.37	1166.38
542.72	1172.30
543.08	1177.33
543.44	1183.22
543.79	1187.74
544.15	1192.76
544.51	1197.91
544.87	1203.11
545.22	1207.51
545.58	1211.92
545.94	1215.64
546.29	1219.26
546.65	1222.86
547.01	1226.76
547.36	1230.25
547.72	1233.51
548.07	1236.37
548.43	1239.10
548.79	1241.87
549.14	1244.72
549.50	1247.72
549.86	1249.84
550.21	1251.93
550.57	1254.33
550.92	1255.72
551.28	1258.07
551.64	1259.85
551.99	1262.00
552.35	1263.35
552.70	1265.13
553.06	1266.45
553.41	1268.19
553.77	1269.97
554.13	1271.50
554.48	1272.77
554.84	1274.10
555.19	1275.11
555.55	1276.15
555.90	1276.87
556.26	1277.45
556.61	1277.96
556.97	1278.05
557.32	1278.77
557.68	1278.83
558.03	1279.00
558.39	1279.46
558.74	1279.87
559.10	1280.29
559.45	1280.30
559.81	1280.84
560.16	1280.72
560.52	1280.89
560.87	1280.67
561.23	1280.03
561.58	1280.02
561.94	1279.38
562.29	1278.36
562.64	1278.05
563.00	1277.61
563.35	1277.54
563.71	1277.40
564.06	1277.12
564.42	1276.90
564.77	1276.65
565.12	1276.76
565.48	1276.46
565.83	1275.98
566.19	1275.36
566.54	1274.15
566.89	1272.73
567.25	1271.75
567.60	1271.01
567.96	1270.07
568.31	1269.39
568.66	1268.33
569.02	1266.82
569.37	1265.20
569.72	1263.96
570.08	1262.03
570.43	1260.44
570.78	1258.61
571.14	1256.39
571.49	1254.06
571.84	1252.35
572.20	1249.99
572.55	1247.91
572.90	1245.30
573.26	1242.68
573.61	1240.00
573.96	1237.74
574.31	1235.00
574.67	1231.73
575.02	1228.46
575.37	1225.27
575.72	1221.83
576.08	1219.01
576.43	1215.78
576.78	1213.13
577.13	1210.33
577.49	1207.63
577.84	1204.41
578.19	1201.63
578.54	1199.33
578.90	1196.96
579.25	1193.85
579.60	1190.58
579.95	1187.04
580.30	1184.34
580.66	1181.90
581.01	1178.74
581.36	1175.36
581.71	1172.35
582.06	1169.51
582.42	1166.51
582.77	1163.54
583.12	1160.66
583.47	1157.87
583.82	1155.17
584.17	1151.97
584.53	1149.01
584.88	1146.03
585.23	1143.02
585.58	1139.82
585.93	1136.48
586.28	1133.30
586.63	1130.02
586.98	1127.10
587.34	1124.46
587.69	1121.29
588.04	1117.95
588.39	1115.14
588.74	1111.91
589.09	1109.30
589.44	1105.87
589.79	1102.89
590.14	1100.09
590.49	1096.96
590.84	1093.57
591.19	1090.72
591.54	1087.75
591.89	1084.17
592.25	1080.93
592.60	1077.52
592.95	1073.88
593.30	1070.18
593.65	1066.61
594.00	1063.34
594.35	1061.05
594.70	1057.30
595.05	1054.10
595.40	1050.71
595.75	1046.93
596.10	1044.00
596.45	1040.86
596.80	1038.22
597.15	1035.50
597.50	1032.13
597.85	1028.90
598.19	1025.80
598.54	1022.52
598.89	1019.56
599.24	1017.28
599.59	1014.28
599.94	1011.76
600.29	1009.07
600.64	1006.42
600.99	1003.51
601.34	1000.79
601.69	996.82
602.04	993.85
602.39	990.54
602.74	987.74
603.08	985.63
603.43	983.16
603.78	980.11
604.13	977.18
604.48	974.21
604.83	971.68
605.18	969.41
605.53	966.34
605.87	963.31
606.22	960.47
606.57	957.11
606.92	954.10
607.27	950.65
607.62	947.65
607.96	944.95
608.31	942.42
608.66	939.13
609.01	936.06
609.36	933.09
609.70	929.84
610.05	926.37
610.40	922.82
610.75	919.12
611.10	915.97
611.44	912.12
611.79	908.16
612.14	904.24
612.49	900.06
612.83	896.67
613.18	892.85
613.53	889.22
613.88	885.23
614.22	881.61
614.57	877.95
614.92	874.26
615.27	870.19
615.61	866.32
615.96	862.61
616.31	859.04
616.65	855.61
617.00	852.31
617.35	848.83
617.70	844.92
618.04	841.12
618.39	836.84
618.74	833.38
619.08	829.67
619.43	825.86
619.78	822.38
620.12	818.48
620.47	814.95
620.82	810.79
621.16	806.98
621.51	803.19
621.85	799.56
622.20	795.87
622.55	792.12
622.89	788.20
623.24	784.55
623.59	780.69
623.93	776.89
624.28	773.06
624.62	769.71
624.97	766.36
625.32	762.76
625.66	759.52
626.01	756.17
626.35	752.98
626.70	749.79
627.04	746.56
627.39	743.34
627.73	740.13
628.08	737.00
628.43	733.70
628.77	730.26
629.12	726.87
629.46	723.65
629.81	720.46
630.15	717.18
630.50	713.71
630.84	710.35
631.19	706.95
631.53	703.71
631.88	699.80
632.22	696.06
632.57	692.98
632.91	689.52
633.26	686.18
633.60	682.81
633.95	679.54
634.29	676.00
634.64	672.81
634.98	669.44
635.32	666.43
635.67	663.40
636.01	660.27
636.36	656.95
636.70	653.85
637.05	650.73
637.39	647.78
637.73	644.87
638.08	642.22
638.42	639.58
638.77	636.72
639.11	633.99
639.45	631.22
639.80	628.04
640.14	625.04
640.49	621.91
640.83	618.91
641.17	616.05
641.52	612.96
641.86	609.78
642.20	606.76
642.55	603.41
642.89	600.39
643.23	597.43
643.58	594.88
643.92	591.63
644.26	588.79
644.61	585.69
644.95	582.79
645.29	579.52
645.64	576.29
645.98	573.33
646.32	570.35
646.66	567.15
647.01	564.33
647.35	561.61
647.69	558.57
648.04	555.78
648.38	552.70
648.72	549.95
649.06	547.20
649.41	544.34
649.75	541.60
650.09	538.95
650.43	536.12
650.78	533.00
651.12	530.14
651.46	527.26
651.80	524.57
652.14	521.77
652.49	519.32
652.83	516.48
653.17	513.33
653.51	510.46
653.85	508.05
654.20	505.33
654.54	502.32
654.88	499.66
655.22	496.90
655.56	494.12
655.90	491.42
656.25	488.70
656.59	486.15
656.93	483.66
657.27	480.91
657.61	478.21
657.95	475.68
658.29	473.22
658.64	470.80
658.98	468.12
659.32	465.51
659.66	462.86
660.00	460.29
660.34	457.92
660.68	455.49
661.02	452.76
661.36	450.41
661.70	448.21
662.05	445.90
662.39	443.71
662.73	441.55
663.07	439.36
663.41	437.09
663.75	434.58
664.09	432.12
664.43	429.83
664.77	427.63
665.11	425.43
665.45	423.30
665.79	421.16
666.13	419.14
666.47	417.05
666.81	414.90
667.15	412.84
667.49	410.99
667.83	409.03
668.17	407.12
668.51	405.10
668.85	403.22
669.19	401.43
669.53	399.36
669.87	397.40
670.21	395.51
670.55	393.70
670.89	392.20
671.23	390.50
671.57	388.74
671.91	387.05
672.25	385.39
672.58	383.73
672.92	381.85
673.26	380.27
673.60	378.67
673.94	377.10
674.28	375.67
674.62	374.11
674.96	372.54
675.30	371.01
675.64	369.42
675.97	367.92
676.31	366.34
676.65	364.86
676.99	363.53
677.33	361.98
677.67	360.60
678.01	358.95
678.34	357.51
678.68	356.20
679.02	354.56
679.36	353.17
679.70	351.71
680.04	350.38
680.37	348.83
680.71	347.35
681.05	346.00
681.39	344.57
681.73	343.25
682.06	341.97
682.40	340.75
682.74	339.50
683.08	338.28
683.42	336.91
683.75	335.72
684.09	334.24
684.43	333.06
684.77	331.66
685.10	330.47
685.44	329.06
685.78	327.76
686.12	326.70
686.45	325.37
686.79	324.08
687.13	323.00
687.46	321.84
687.80	320.77
688.14	319.54
688.48	318.33
688.81	317.04
689.15	315.88
689.49	314.63
689.82	313.45
690.16	312.04
690.50	310.87
690.83	309.68
691.17	308.60
691.51	307.57
691.84	306.60
692.18	305.52
692.52	304.57
692.85	303.65
693.19	302.82
693.52	301.92
693.86	300.92
694.20	299.92
694.53	298.99
694.87	298.00
695.21	297.02
695.54	296.12
695.88	295.10
696.21	294.11
696.55	293.25
696.88	292.35
697.22	291.51
697.56	290.77
697.89	289.78
698.23	288.95
698.56	287.98
698.90	287.09
699.23	286.13
699.57	285.32
699.90	284.34
700.24	283.34
700.58	282.50
700.91	281.78
701.25	281.22
701.58	280.51
701.92	279.75
702.25	278.97
702.59	278.13
702.92	277.44
703.26	276.63
703.59	275.92
703.93	275.48
704.26	274.74
704.60	273.99
704.93	273.36
705.26	272.55
705.60	271.83
705.93	271.02
706.27	270.57
706.60	269.99
706.94	269.60
707.27	268.95
707.61	268.26
707.94	267.58
708.27	266.64
708.61	265.86
708.94	265.28
709.28	264.75
709.61	264.18
709.94	263.67
710.28	263.23
710.61	262.70
710.95	261.88
711.28	261.51
711.61	260.95
711.95	260.45
712.28	259.98
712.61	259.52
712.95	259.28
713.28	258.82
713.61	258.25
713.95	257.57
714.28	257.05
714.61	256.50
714.95	256.00
715.28	255.40
715.61	254.95
715.95	254.45
716.28	253.85
716.61	253.43
716.95	252.83
717.28	252.29
717.61	251.75
717.94	251.21
718.28	250.51
718.61	250.11
718.94	249.54
719.27	249.11
719.61	248.61
719.94	248.02
720.27	247.43
720.60	247.01
720.94	246.57
721.27	246.14
721.60	245.86
721.93	245.46
722.27	245.27
722.60	244.94
722.93	244.49
723.26	244.21
723.59	243.84
723.93	243.57
724.26	243.32
724.59	242.97
724.92	242.78
725.25	242.60
725.59	242.25
725.92	242.08
726.25	241.77
726.58	241.53
726.91	241.23
727.24	240.99
727.57	240.66
727.91	240.36
728.24	240.14
728.57	239.82
728.90	239.53
729.23	239.16
729.56	239.09
729.89	238.82
730.22	238.49
730.55	238.18
730.89	237.93
731.22	237.59
731.55	237.36
731.88	237.00
732.21	236.69
732.54	236.33
732.87	236.00
733.20	235.73
733.53	235.42
733.86	235.22
734.19	234.84
734.52	234.69
734.85	234.68
735.18	234.38
735.51	234.21
735.84	234.01
736.17	233.86
736.50	233.28
736.83	233.42
737.16	233.16
737.49	232.95
737.82	232.63
738.15	232.47
738.48	232.14
738.81	231.92
739.14	231.65
739.47	231.48
739.80	231.33
740.13	231.17
740.46	230.95
740.79	230.69
741.12	230.51
741.45	230.23
741.78	229.82
742.11	229.71
742.44	229.45
742.77	229.39
743.10	229.14
743.43	229.04
743.75	228.50
744.08	228.73
744.41	228.49
744.74	228.31
745.07	228.05
745.40	227.99
745.73	227.96
746.06	227.81
746.39	227.70
746.71	227.45
747.04	227.25
747.37	227.15
747.70	227.08
748.03	227.00
748.36	226.87
748.68	226.72
749.01	226.42
749.34	226.27
749.67	226.04
750.00	225.90
750.33	225.98
750.65	225.81
750.98	225.30
751.31	225.20
751.64	225.10
751.97	225.09
752.29	224.93
752.62	224.71
752.95	224.57
753.28	224.39
753.60	224.27
753.93	224.23
754.26	224.10
754.59	223.73
754.91	223.56
755.24	223.38
755.57	223.17
755.90	223.06
756.22	222.88
756.55	222.68
756.88	222.50
757.20	222.14
757.53	221.94
757.86	221.85
758.19	221.71
758.51	221.64
758.84	221.41
759.17	221.29
759.49	221.16
759.82	221.17
760.15	221.05
760.47	220.85
760.80	220.64
761.13	220.60
761.45	220.52
761.78	220.39
762.11	220.33
762.43	220.25
762.76	220.16
763.08	220.14
763.41	220.06
763.74	219.96
764.06	219.87
764.39	219.89
764.71	219.76
765.04	219.61
765.37	219.41
765.69	219.28
766.02	219.15
766.34	219.10
766.67	218.90
767.00	218.89
767.32	219.14
767.65	219.26
767.97	219.11
768.30	219.15
768.62	219.05
768.95	218.89
769.27	218.85
769.60	218.81
769.92	218.68
770.25	218.59
770.57	218.46
770.90	218.38
771.22	218.23
771.55	218.17
771.87	218.14
772.20	218.05
772.52	218.36
772.85	218.70
773.17	218.56
773.50	218.52
773.82	218.36
774.15	218.02
774.47	217.74
774.80	217.64
775.12	217.55
775.45	217.47
775.77	217.54
776.09	217.47
776.42	217.37
776.74	217.40
777.07	217.34
777.39	217.36
777.72	217.30
778.04	217.27
778.36	217.19
778.69	217.17
779.01	217.13
779.33	216.73
779.66	216.30
779.98	216.20
780.31	216.10
780.63	216.19
780.95	216.26
781.28	216.20
781.60	216.11
781.92	215.97
782.25	215.93
782.57	215.86
782.89	215.79
783.22	215.76
783.54	215.61
783.86	215.52
784.19	215.45
784.51	215.46
784.83	215.34
785.16	215.34
785.48	215.32
785.80	215.33
786.12	215.31
786.45	215.27
786.77	215.31
787.09	215.26
787.42	215.10
787.74	215.00
788.06	214.94
788.38	214.94
788.71	215.00
789.03	214.97
789.35	214.89
789.67	214.76
789.99	214.72
790.32	214.71
790.64	214.72
790.96	214.94
791.28	214.81
791.61	214.79
791.93	214.69
792.25	214.65
792.57	214.86
792.89	214.79
793.21	214.80
793.54	214.72
793.86	214.74
794.18	214.77
794.50	214.74
794.82	214.74
795.14	214.77
795.47	214.76
795.79	214.70
796.11	214.66
796.43	214.79
796.75	214.76
797.07	214.69
797.39	214.69
797.71	214.44
798.04	214.45
798.36	214.50
798.68	214.51
799.00	214.41
799.32	214.19
799.64	214.25
799.96	214.22
800.28	214.35
800.60	214.28
800.92	214.24
801.24	214.19
801.56	214.19
801.89	214.12
802.21	214.10
802.53	214.04
802.85	214.07
803.17	214.11
803.49	214.03
803.81	213.98
804.13	213.90
804.45	213.82
804.77	213.83
805.09	213.78
805.41	213.72
805.73	213.71
806.05	213.61
806.37	213.55
806.69	213.43
807.01	213.31
807.33	213.32
807.65	213.20
807.97	213.42
808.28	213.36
808.60	213.33
808.92	213.32
809.24	213.55
809.56	213.51
809.88	213.34
810.20	213.40
810.52	213.55
810.84	213.55
811.16	213.47
811.48	213.46
811.80	213.56
812.12	213.58
812.43	213.63
812.75	213.65
813.07	213.56
813.39	213.63
813.71	213.56
814.03	213.52
814.35	213.55
814.67	213.32
814.98	213.30
815.30	213.31
815.62	213.20
815.94	212.98
816.26	212.87
816.58	212.86
816.89	212.78
817.21	212.62
817.53	212.59
817.85	212.66
818.17	212.60
818.48	212.45
818.80	212.45
819.12	212.47
819.44	212.35
819.76	212.30
820.07	212.25
820.39	212.16
820.71	212.12
821.03	212.11
821.34	212.09
821.66	212.07
821.98	212.09
822.30	212.07
822.61	212.25
822.93	212.27
823.25	212.27
823.57	212.29
823.88	212.41
824.20	212.36
824.52	212.39
824.83	212.39
825.15	212.38
825.47	212.33
825.79	212.30
826.10	212.31
826.42	212.27
826.74	212.30
827.05	212.41
827.37	212.42
827.69	212.36
828.00	212.40
828.32	212.43
828.64	212.37
828.95	212.54
829.27	212.48
829.58	212.45
829.90	212.44
830.22	212.48
830.53	212.28
830.85	212.27
831.17	212.16
831.48	212.19
831.80	212.21
832.11	212.21
832.43	212.14
832.75	212.14
833.06	212.41
833.38	212.32
833.69	212.25
834.01	212.26
834.32	212.24
834.64	212.23
834.96	212.27
835.27	212.23
835.59	212.11
835.90	211.99
836.22	212.04
836.53	212.02
836.85	211.92
837.16	212.38
837.48	212.39
837.79	212.58
838.11	212.62
838.42	212.64
838.74	212.62
839.05	212.61
839.37	212.58
839.68	212.31
840.00	212.25
840.31	212.34
840.63	212.33
840.94	212.30
841.26	212.23
841.57	212.20
841.88	212.25
842.20	212.23
842.51	212.15
842.83	212.18
843.14	212.56
843.46	212.55
843.77	212.28
844.08	212.29
844.40	212.12
844.71	212.03
845.03	211.95
845.34	211.93
845.65	211.91
845.97	211.95
846.28	211.99
846.60	212.06
846.91	212.00
847.22	211.94
847.54	212.10
847.85	212.15
848.16	212.09
848.48	212.02
848.79	212.22
849.10	212.33
849.42	212.32
849.73	211.93
850.04	212.02
850.36	211.91
850.67	211.97
850.98	211.93
851.30	211.97
851.61	212.01
851.92	212.05
852.23	212.17
852.55	212.20
852.86	212.23
853.17	212.32
853.49	212.29
853.80	212.39
854.11	212.31
854.42	212.33
854.74	212.35
855.05	212.36
855.36	212.08
855.67	212.06
855.99	212.09
856.30	212.45
856.61	212.42
856.92	212.45
857.23	212.37
857.55	212.44
857.86	212.38
858.17	212.37
858.48	212.30
858.79	212.20
859.11	212.24
859.42	212.21
859.73	212.05
860.04	212.13
860.35	212.08
860.66	211.95
860.98	211.91
861.29	211.93
861.60	211.91
861.91	211.93
862.22	211.80
862.53	211.70
862.84	211.31
863.16	211.31
863.47	211.21
863.78	211.20
864.09	211.18
864.40	211.25
864.71	211.29
865.02	211.35
865.33	211.31
865.64	211.22
865.95	211.15
866.27	211.44
866.58	211.41
866.89	211.38
867.20	211.40
867.51	211.36
867.82	211.28
868.13	211.41
868.44	211.45
868.75	211.60
869.06	211.63
869.37	211.65
869.68	211.59
869.99	211.66
870.30	211.82
870.61	211.82
870.92	211.72
871.23	211.70
871.54	211.74
871.85	211.85
872.16	211.85
872.47	211.90
872.78	211.64
873.09	211.63
873.40	211.53
873.71	211.60
874.02	211.61
874.33	211.52
874.64	211.44
874.95	211.44
875.26	211.39
875.56	211.38
875.87	211.35
876.18	211.36
876.49	211.70
876.80	211.51
877.11	211.44
877.42	211.44
877.73	211.33
878.04	211.25
878.35	211.21
878.66	211.21
878.96	211.21
879.27	211.20
879.58	211.14
879.89	211.22
880.20	211.28
880.51	211.26
880.82	211.39
881.12	211.35
881.43	211.33
881.74	211.26
882.05	211.23
882.36	211.28
882.67	211.24
882.97	210.90
883.28	210.94
883.59	210.93
883.90	210.92
884.21	211.01
884.51	210.99
884.82	210.91
885.13	210.97
885.44	210.91
885.74	210.95
886.05	210.93
886.36	210.90
886.67	210.81
886.98	210.99
887.28	210.99
887.59	211.02
887.90	210.98
888.20	210.94
888.51	210.98
888.82	210.91
889.13	210.98
889.43	211.23
889.74	211.19
890.05	211.24
890.35	211.31
890.66	211.26
890.97	211.27
891.28	211.31
891.58	211.29
891.89	211.25
892.20	211.25
892.50	211.30
892.81	211.35
893.12	211.29
893.42	211.05
893.73	211.05
894.04	211.04
894.34	211.11
894.65	211.14
894.95	211.16
895.26	211.16
895.57	211.36
895.87	211.09
896.18	211.11
896.48	211.14
896.79	211.10
897.10	211.17
897.40	211.20
897.71	211.23
898.01	211.14
898.32	211.15
898.63	211.08
898.93	211.06
899.24	211.08
899.54	211.17
899.85	211.22
900.15	211.23
900.46	211.20
900.76	211.17
901.07	211.22
901.38	211.20
901.68	211.25
901.99	211.05
902.29	211.10
902.60	211.16
902.90	211.12
903.21	211.08
903.51	211.00
903.82	210.97
904.12	211.00
904.43	211.09
904.73	211.06
905.03	211.11
905.34	211.37
905.64	211.34
905.95	211.26
906.25	211.24
906.56	211.25
906.86	211.26
907.17	211.33
907.47	211.37
907.77	211.31
908.08	211.24
908.38	211.16
908.69	211.12
908.99	211.16
909.30	211.18
909.60	211.20
909.90	211.27
910.21	211.22
910.51	211.11
910.81	211.08
911.12	211.19
911.42	211.25
911.73	210.97
912.03	211.00
912.33	211.14
912.64	211.18
912.94	211.09
913.24	211.06
913.55	211.06
913.85	210.98
914.15	211.03
914.46	211.10
914.76	211.17
915.06	211.08
915.37	211.02
915.67	211.00
915.97	210.98
916.27	210.88
916.58	210.98
916.88	210.97
917.18	210.98
917.49	211.19
917.79	211.10
918.09	211.16
918.39	211.24
918.70	211.12
919.00	211.12
919.30	211.32
919.60	211.30
919.91	211.20
920.21	211.23
920.51	211.16
920.81	211.14
921.12	211.17
921.42	211.26
921.72	211.22
922.02	211.24
922.32	211.24
922.63	211.34
922.93	211.48
923.23	211.51
923.53	211.42
923.83	211.27
924.13	211.43
924.44	211.42
924.74	211.40
925.04	211.57
925.34	211.55
925.64	211.46
925.94	211.52
926.24	211.71
926.55	211.61
926.85	211.74
927.15	211.70
927.45	211.73
927.75	211.69
928.05	211.67
928.35	211.59
928.65	211.72
928.95	211.75
929.26	211.58
929.56	211.59
929.86	211.74
930.16	211.69
930.46	211.58
930.76	211.58
931.06	211.49
931.36	211.33
931.66	211.35
931.96	211.29
932.26	211.28
932.56	211.11
932.86	211.17
933.16	211.13
933.46	211.13
933.76	211.07
934.06	211.16
934.36	211.32
934.66	211.35
934.96	211.29
935.26	211.22
935.56	211.32
935.86	211.30
936.16	211.20
936.46	211.13
936.76	211.10
937.06	211.06
937.36	211.15
937.66	211.16
937.96	211.13
938.26	211.12
938.56	211.07
938.86	211.07
939.16	211.14
939.46	211.13
939.76	211.13
940.06	211.11
940.35	211.08
940.65	210.87
940.95	210.92
941.25	210.83
941.55	210.80
941.85	210.69
942.15	210.73
942.45	210.78
942.75	210.79
943.04	210.77
943.34	210.78
943.64	210.60
943.94	210.56
944.24	210.55
944.54	210.60
944.84	210.63
945.13	210.58
945.43	210.53
945.73	210.49
946.03	210.49
946.33	210.47
946.62	210.41
946.92	210.51
947.22	210.47
947.52	210.49
947.82	210.59
948.11	210.59
948.41	210.53
948.71	210.45
949.01	210.47
949.31	210.48
949.60	210.56
949.90	210.73
950.20	210.73
950.50	210.81
950.79	210.79
951.09	210.87
951.39	210.96
951.69	210.93
951.98	211.02
952.28	211.01
952.58	211.05
952.87	211.08
953.17	211.09
953.47	211.11
953.76	211.15
954.06	211.08
954.36	211.06
954.66	211.10
954.95	211.29
955.25	211.34
955.55	211.44
955.84	211.30
956.14	211.30
956.44	211.35
956.73	211.28
957.03	211.26
957.32	211.20
957.62	211.19
957.92	211.25
958.21	211.27
958.51	211.68
958.81	211.73
959.10	211.74
959.40	211.82
959.69	211.85
959.99	211.90
960.29	211.94
960.58	211.95
960.88	212.03
961.17	211.91
961.47	211.98
961.76	211.91
962.06	212.00
962.36	212.01
962.65	212.04
962.95	212.05
963.24	212.05
963.54	212.10
963.83	212.15
964.13	212.20
964.42	212.04
964.72	211.79
965.01	211.73
965.31	211.73
965.60	211.67
965.90	211.88
966.19	211.76
966.49	211.73
966.78	211.70
967.08	211.66
967.37	211.65
967.67	211.56
967.96	211.62
968.26	211.59
968.55	211.55
968.85	211.51
969.14	211.51
969.43	211.50
969.73	211.49
970.02	211.48
970.32	211.42
970.61	211.43
970.91	211.38
971.20	211.40
971.49	211.31
971.79	211.33
972.08	211.05
972.38	211.07
972.67	211.05
972.96	211.07
973.26	211.05
973.55	211.17
973.85	211.16
974.14	211.14
974.43	211.16
974.73	211.15
975.02	211.12
975.31	211.12
975.61	211.09
975.90	211.06
976.19	210.98
976.49	211.01
976.78	211.05
977.07	211.05
977.37	211.07
977.66	211.14
977.95	211.11
978.24	211.17
978.54	211.32
978.83	211.29
979.12	211.33
979.42	211.32
979.71	211.25
980.00	211.23
980.29	211.23
980.59	211.23
980.88	211.32
981.17	211.35
981.46	211.37
981.76	211.35
982.05	211.41
982.34	211.40
982.63	211.38
982.93	211.40
983.22	211.43
983.51	211.40
983.80	211.46
984.09	211.44
984.39	211.43
984.68	211.34
984.97	211.35
985.26	211.29
985.55	211.31
985.85	211.25
986.14	211.27
986.43	211.32
986.72	211.29
987.01	211.16
987.30	211.06
987.59	210.99
987.89	211.04
988.18	210.92
988.47	210.90
988.76	210.86
989.05	210.84
989.34	210.77
989.63	210.85
989.92	210.77
990.22	210.70
990.51	210.64
990.80	210.55
991.09	210.58
991.38	210.62
991.67	210.55
991.96	210.48
992.25	210.50
992.54	210.40
992.83	210.36
993.12	210.35
993.41	210.44
993.70	210.59
993.99	210.61
994.28	210.63
994.58	210.68
994.87	210.66
995.16	210.69
995.45	210.65
995.74	210.50
996.03	210.58
996.32	210.65
996.61	210.71
996.90	210.77
997.19	210.79
997.48	210.81
997.77	210.80
998.06	210.85
998.34	210.80
998.63	210.76
998.92	210.78
999.21	210.83
999.50	210.87
999.79	210.84
1000.08	210.85
1000.37	210.91
1000.66	210.86
1000.95	211.00
1001.24	210.91
1001.53	210.96
1001.82	211.00
1002.11	210.92
1002.40	210.96
1002.68	211.00
1002.97	211.27
1003.26	211.25
1003.55	211.16
1003.84	211.25
1004.13	211.35
1004.42	211.41
1004.71	211.40
1004.99	211.40
1005.28	211.52
1005.57	211.44
1005.86	211.28
1006.15	211.26
1006.44	211.18
1006.72	211.16
1007.01	211.07
1007.30	211.13
1007.59	211.12
1007.88	211.14
1008.17	211.13
1008.45	211.02
1008.74	210.88
1009.03	210.70
1009.32	210.68
1009.60	210.71
1009.89	210.66
1010.18	210.57
1010.47	210.51
1010.76	210.53
1011.04	210.53
1011.33	210.51
1011.62	210.54
1011.91	210.64
1012.19	210.61
1012.48	210.64
1012.77	210.66
1013.05	210.87
1013.34	210.92
1013.63	210.88
1013.92	210.84
1014.20	210.91
1014.49	210.99
1014.78	211.13
1015.06	211.01
1015.35	210.98
1015.64	211.04
1015.92	211.04
1016.21	211.06
1016.50	211.04
1016.78	211.09
1017.07	211.15
1017.36	211.02
1017.64	211.01
1017.93	211.00
1018.22	210.99
1018.50	210.93
1018.79	210.96
1019.08	210.80
1019.36	210.80
1019.65	210.77
1019.93	210.90
1020.22	210.86
1020.51	211.05
1020.79	210.90
1021.08	210.25
1021.36	209.30
1021.65	211.20
1021.94	212.00
1022.22	211.10
1022.51	210.35
1022.79	212.50
1023.08	210.75
1023.36	215.30
1023.65	209.50
>>>>>End Processed Spectral Data<<<<<
