SpectraSuite Data File
++++++++++++++++++++++++++++++++++++
Date: Mon Feb 25 17:05:41 EST 2013
User: group
Dark Spectrum Present: No
Reference Spectrum Present: No
Number of Sampled Component Spectra: 1
Spectrometers: USB2E7196
Integration Time (usec): 104000 (USB2E7196)
Spectra Averaged: 20 (USB2E7196)
Boxcar Smoothing: 10 (USB2E7196)
Correct for Electrical Dark: No (USB2E7196)
Strobe/Lamp Enabled: No (USB2E7196)
Correct for Detector Non-linearity: No (USB2E7196)
Correct for Stray Light: No (USB2E7196)
Number of Pixels in Processed Spectrum: 2048
>>>>>Begin Processed Spectral Data<<<<<
339.09	0.00
339.48	199.95
339.86	201.20
340.24	201.60
340.63	204.45
341.01	209.40
341.39	205.55
341.78	208.20
342.16	210.35
342.54	209.80
342.93	198.73
343.31	208.70
343.69	209.26
344.07	209.70
344.46	210.16
344.84	210.47
345.22	210.48
345.60	210.69
345.99	210.81
346.37	210.80
346.75	210.83
347.13	210.89
347.52	210.90
347.90	211.00
348.28	210.85
348.66	210.89
349.05	210.74
349.43	210.73
349.81	210.72
350.19	210.76
350.57	210.78
350.96	210.84
351.34	210.91
351.72	210.91
352.10	210.93
352.48	210.92
352.87	210.93
353.25	211.02
353.63	211.11
354.01	211.13
354.39	211.18
354.77	211.19
355.15	211.36
355.54	211.41
355.92	211.39
356.30	211.48
356.68	211.71
357.06	211.80
357.44	211.86
357.82	211.84
358.20	211.92
358.58	211.97
358.97	212.07
359.35	212.20
359.73	212.32
360.11	212.36
360.49	212.38
360.87	212.39
361.25	212.46
361.63	212.56
362.01	212.61
362.39	212.61
362.77	212.68
363.15	212.65
363.53	212.66
363.91	212.74
364.29	212.77
364.67	212.48
365.05	212.48
365.43	212.48
365.81	212.56
366.19	212.70
366.57	212.86
366.95	212.82
367.33	212.77
367.71	212.70
368.09	212.77
368.47	212.85
368.85	212.90
369.23	212.95
369.61	212.87
369.99	212.99
370.37	213.08
370.75	213.23
371.13	213.18
371.51	213.09
371.89	213.08
372.27	213.12
372.65	213.12
373.03	213.15
373.41	213.09
373.78	213.04
374.16	212.87
374.54	212.68
374.92	212.57
375.30	212.51
375.68	212.50
376.06	212.45
376.44	212.33
376.82	212.28
377.19	212.22
377.57	212.19
377.95	212.00
378.33	211.97
378.71	211.66
379.09	211.61
379.47	211.65
379.84	211.53
380.22	211.50
380.60	211.46
380.98	211.36
381.36	211.30
381.73	211.25
382.11	211.20
382.49	211.11
382.87	211.06
383.25	211.04
383.62	211.30
384.00	211.26
384.38	211.17
384.76	211.22
385.13	211.28
385.51	211.17
385.89	211.10
386.27	210.95
386.64	211.05
387.02	211.07
387.40	211.02
387.78	211.04
388.15	210.95
388.53	210.81
388.91	210.75
389.29	210.73
389.66	210.76
390.04	210.74
390.42	210.84
390.79	210.79
391.17	210.67
391.55	210.31
391.92	210.17
392.30	210.31
392.68	210.18
393.05	210.10
393.43	210.13
393.81	210.09
394.18	210.10
394.56	210.04
394.94	210.02
395.31	209.95
395.69	210.00
396.06	210.03
396.44	210.09
396.82	210.07
397.19	210.24
397.57	210.12
397.95	210.13
398.32	210.03
398.70	210.07
399.07	210.18
399.45	210.16
399.82	210.23
400.20	210.13
400.58	210.22
400.95	210.12
401.33	210.20
401.70	210.49
402.08	210.56
402.45	210.60
402.83	210.72
403.20	210.77
403.58	210.79
403.95	210.93
404.33	211.10
404.71	211.21
405.08	211.45
405.46	211.56
405.83	211.66
406.21	211.70
406.58	211.87
406.96	211.97
407.33	212.18
407.70	212.38
408.08	212.81
408.45	213.01
408.83	213.31
409.20	213.45
409.58	213.52
409.95	213.75
410.33	214.00
410.70	214.20
411.08	214.58
411.45	214.86
411.82	215.08
412.20	215.42
412.57	216.10
412.95	216.20
413.32	216.72
413.69	217.17
414.07	217.67
414.44	218.17
414.82	218.78
415.19	219.37
415.56	220.02
415.94	220.50
416.31	221.35
416.68	222.05
417.06	222.99
417.43	223.84
417.81	224.81
418.18	225.84
418.55	226.85
418.93	228.04
419.30	229.27
419.67	230.52
420.04	231.75
420.42	232.84
420.79	234.66
421.16	236.24
421.54	238.01
421.91	239.80
422.28	241.51
422.66	243.34
423.03	245.38
423.40	247.24
423.77	249.32
424.15	251.28
424.52	253.51
424.89	255.85
425.26	258.17
425.64	260.43
426.01	262.85
426.38	265.36
426.75	267.83
427.13	270.40
427.50	273.13
427.87	276.08
428.24	279.03
428.61	281.66
428.99	284.80
429.36	288.03
429.73	291.31
430.10	294.66
430.47	298.09
430.85	301.38
431.22	305.03
431.59	309.10
431.96	312.74
432.33	316.82
432.70	320.89
433.08	325.69
433.45	330.19
433.82	334.55
434.19	339.50
434.56	344.35
434.93	349.07
435.30	353.84
435.68	358.95
436.05	364.11
436.42	369.14
436.79	373.88
437.16	378.95
437.53	384.24
437.90	389.54
438.27	394.79
438.64	400.20
439.01	405.50
439.38	409.87
439.75	414.30
440.13	419.33
440.50	424.02
440.87	427.93
441.24	431.94
441.61	436.49
441.98	439.87
442.35	443.83
442.72	447.80
443.09	451.80
443.46	454.27
443.83	455.97
444.20	457.55
444.57	459.54
444.94	460.64
445.31	461.86
445.68	463.24
446.05	463.90
446.42	463.63
446.79	463.15
447.16	462.70
447.53	462.68
447.90	461.10
448.27	459.43
448.64	456.88
449.01	455.10
449.37	451.89
449.74	448.73
450.11	445.12
450.48	440.93
450.85	436.45
451.22	432.70
451.59	429.30
451.96	425.86
452.33	421.30
452.70	417.31
453.07	412.34
453.43	407.05
453.80	402.17
454.17	397.61
454.54	393.19
454.91	388.53
455.28	383.73
455.65	379.31
456.02	375.38
456.38	371.50
456.75	367.01
457.12	363.08
457.49	359.30
457.86	355.42
458.23	352.32
458.59	348.80
458.96	345.36
459.33	342.16
459.70	339.12
460.07	336.74
460.43	333.79
460.80	331.09
461.17	328.85
461.54	326.33
461.91	324.01
462.27	321.67
462.64	319.58
463.01	317.43
463.38	315.44
463.74	312.72
464.11	311.04
464.48	309.36
464.85	307.61
465.21	306.43
465.58	305.04
465.95	303.20
466.32	301.81
466.68	300.31
467.05	298.89
467.42	297.33
467.78	295.75
468.15	294.33
468.52	293.23
468.88	291.67
469.25	290.49
469.62	289.41
469.98	288.18
470.35	287.12
470.72	286.06
471.08	284.80
471.45	284.07
471.82	283.16
472.18	282.11
472.55	281.38
472.92	280.29
473.28	279.40
473.65	278.62
474.02	277.82
474.38	277.28
474.75	276.70
475.11	276.19
475.48	275.68
475.85	275.15
476.21	274.76
476.58	274.47
476.94	274.14
477.31	273.76
477.67	273.53
478.04	273.30
478.41	273.13
478.77	273.30
479.14	272.98
479.50	272.76
479.87	272.70
480.23	272.60
480.60	272.43
480.96	272.33
481.33	272.47
481.69	272.41
482.06	272.32
482.42	272.31
482.79	272.32
483.15	272.46
483.52	272.76
483.88	272.76
484.25	272.83
484.61	272.99
484.98	273.12
485.34	273.42
485.71	273.72
486.07	274.03
486.44	274.00
486.80	274.43
487.17	274.81
487.53	275.33
487.90	275.80
488.26	276.53
488.62	277.14
488.99	277.63
489.35	278.35
489.72	279.01
490.08	279.70
490.44	280.35
490.81	281.13
491.17	281.77
491.54	282.71
491.90	283.59
492.26	284.38
492.63	285.31
492.99	286.22
493.36	287.25
493.72	288.25
494.08	289.30
494.45	290.41
494.81	291.62
495.17	292.72
495.54	293.90
495.90	295.04
496.26	296.20
496.63	297.44
496.99	298.60
497.35	299.87
497.72	301.15
498.08	302.49
498.44	303.76
498.80	305.13
499.17	306.47
499.53	307.79
499.89	309.25
500.26	310.71
500.62	312.04
500.98	313.43
501.34	314.73
501.71	316.17
502.07	317.63
502.43	318.84
502.79	320.09
503.16	321.51
503.52	322.87
503.88	324.17
504.24	325.48
504.60	326.88
504.97	328.27
505.33	329.58
505.69	331.07
506.05	332.36
506.41	333.76
506.78	335.06
507.14	336.26
507.50	337.52
507.86	338.76
508.22	340.07
508.59	341.19
508.95	342.50
509.31	343.86
509.67	344.91
510.03	346.20
510.39	347.51
510.75	348.69
511.12	349.80
511.48	351.05
511.84	352.20
512.20	353.23
512.56	354.28
512.92	355.48
513.28	356.53
513.64	357.60
514.00	358.57
514.37	359.54
514.73	360.66
515.09	361.75
515.45	362.74
515.81	363.67
516.17	364.68
516.53	365.69
516.89	366.52
517.25	367.60
517.61	368.70
517.97	369.63
518.33	370.60
518.69	371.62
519.05	372.73
519.41	373.85
519.77	375.18
520.13	376.36
520.49	377.51
520.85	378.58
521.21	379.90
521.57	381.25
521.93	382.37
522.29	383.70
522.65	384.91
523.01	386.32
523.37	387.67
523.73	389.18
524.09	390.62
524.45	392.18
524.81	393.67
525.17	395.24
525.53	396.88
525.89	398.54
526.25	400.36
526.61	401.94
526.97	403.67
527.33	405.49
527.68	407.61
528.04	409.45
528.40	411.29
528.76	413.16
529.12	415.04
529.48	417.21
529.84	419.18
530.20	421.41
530.56	423.52
530.91	425.90
531.27	428.14
531.63	430.52
531.99	432.81
532.35	435.05
532.71	437.24
533.07	439.66
533.42	442.47
533.78	444.71
534.14	447.24
534.50	449.55
534.86	452.06
535.21	454.25
535.57	456.75
535.93	459.33
536.29	462.02
536.65	464.63
537.00	467.22
537.36	469.83
537.72	472.34
538.08	474.97
538.44	477.55
538.79	480.22
539.15	482.75
539.51	485.34
539.87	488.24
540.22	491.05
540.58	493.98
540.94	496.44
541.29	499.23
541.65	501.88
542.01	504.90
542.37	507.74
542.72	510.57
543.08	513.35
543.44	516.47
543.79	519.08
544.15	522.03
544.51	525.16
544.87	528.25
545.22	531.19
545.58	534.11
545.94	536.78
546.29	539.60
546.65	542.47
547.01	545.28
547.36	548.15
547.72	551.05
548.07	553.62
548.43	556.18
548.79	558.79
549.14	561.59
549.50	564.15
549.86	566.45
550.21	569.10
550.57	571.84
550.92	574.13
551.28	576.73
551.64	579.19
551.99	581.43
552.35	583.62
552.70	586.05
553.06	588.36
553.41	590.72
553.77	593.21
554.13	595.53
554.48	597.93
554.84	600.18
555.19	602.27
555.55	604.68
555.90	606.77
556.26	608.92
556.61	610.93
556.97	612.87
557.32	615.02
557.68	616.95
558.03	618.75
558.39	620.58
558.74	622.70
559.10	624.53
559.45	626.45
559.81	628.44
560.16	630.02
560.52	631.92
560.87	633.82
561.23	635.32
561.58	637.15
561.94	638.74
562.29	640.20
562.64	641.85
563.00	643.36
563.35	645.31
563.71	647.19
564.06	648.78
564.42	650.42
564.77	652.18
565.12	653.83
565.48	655.51
565.83	657.14
566.19	658.58
566.54	659.99
566.89	661.31
567.25	662.85
567.60	664.35
567.96	665.83
568.31	667.30
568.66	668.56
569.02	669.40
569.37	670.30
569.72	671.43
570.08	672.32
570.43	673.31
570.78	673.91
571.14	674.41
571.49	674.95
571.84	675.74
572.20	676.13
572.55	676.51
572.90	676.62
573.26	676.85
573.61	676.97
573.96	677.22
574.31	677.31
574.67	677.16
575.02	677.01
575.37	676.74
575.72	676.31
576.08	676.06
576.43	676.03
576.78	675.93
577.13	675.77
577.49	675.70
577.84	675.29
578.19	675.27
578.54	675.33
578.90	675.42
579.25	675.04
579.60	674.58
579.95	674.04
580.30	673.84
580.66	673.78
581.01	673.32
581.36	672.74
581.71	672.33
582.06	672.00
582.42	671.76
582.77	671.23
583.12	671.03
583.47	670.82
583.82	670.27
584.17	669.93
584.53	669.61
584.88	669.27
585.23	668.85
585.58	668.17
585.93	667.56
586.28	667.09
586.63	666.76
586.98	666.36
587.34	666.17
587.69	665.58
588.04	664.93
588.39	664.46
588.74	663.90
589.09	663.53
589.44	662.80
589.79	662.22
590.14	661.75
590.49	660.98
590.84	660.30
591.19	660.01
591.54	659.34
591.89	658.24
592.25	657.51
592.60	656.50
592.95	655.47
593.30	654.36
593.65	653.17
594.00	651.91
594.35	651.93
594.70	650.83
595.05	650.08
595.40	649.06
595.75	647.99
596.10	647.18
596.45	646.15
596.80	645.30
597.15	644.39
597.50	643.17
597.85	642.10
598.19	641.00
598.54	639.94
598.89	638.86
599.24	638.16
599.59	637.13
599.94	636.46
600.29	635.62
600.64	634.80
600.99	633.73
601.34	632.81
601.69	630.90
602.04	629.90
602.39	628.72
602.74	627.90
603.08	627.16
603.43	626.39
603.78	625.43
604.13	624.48
604.48	623.44
604.83	622.84
605.18	622.07
605.53	621.13
605.87	619.90
606.22	619.11
606.57	618.04
606.92	616.88
607.27	615.60
607.62	614.70
607.96	613.64
608.31	612.82
608.66	611.65
609.01	610.56
609.36	609.28
609.70	608.13
610.05	606.63
610.40	605.19
610.75	603.67
611.10	602.46
611.44	600.90
611.79	599.38
612.14	597.81
612.49	596.15
612.83	594.69
613.18	593.05
613.53	591.35
613.88	589.54
614.22	587.93
614.57	586.43
614.92	584.69
615.27	583.16
615.61	581.45
615.96	579.95
616.31	578.26
616.65	576.91
617.00	575.42
617.35	573.87
617.70	572.28
618.04	570.44
618.39	568.42
618.74	566.95
619.08	565.34
619.43	563.61
619.78	561.96
620.12	560.27
620.47	558.73
620.82	556.81
621.16	555.00
621.51	553.42
621.85	551.69
622.20	549.86
622.55	547.83
622.89	545.91
623.24	544.12
623.59	542.29
623.93	540.52
624.28	538.80
624.62	537.26
624.97	535.52
625.32	533.97
625.66	532.41
626.01	530.51
626.35	528.73
626.70	527.03
627.04	525.47
627.39	523.69
627.73	522.20
628.08	520.81
628.43	519.22
628.77	517.35
629.12	515.51
629.46	514.04
629.81	512.51
630.15	510.86
630.50	509.15
630.84	507.41
631.19	505.59
631.53	503.77
631.88	501.87
632.22	500.11
632.57	498.55
632.91	496.73
633.26	495.15
633.60	493.60
633.95	491.92
634.29	490.20
634.64	488.65
634.98	486.73
635.32	485.10
635.67	483.66
636.01	482.07
636.36	480.46
636.70	478.82
637.05	477.19
637.39	475.71
637.73	474.35
638.08	473.15
638.42	471.78
638.77	470.37
639.11	468.85
639.45	467.20
639.80	465.37
640.14	463.80
640.49	462.19
640.83	460.35
641.17	458.83
641.52	457.20
641.86	455.40
642.20	453.85
642.55	451.96
642.89	450.12
643.23	448.40
643.58	447.01
643.92	445.27
644.26	443.60
644.61	441.82
644.95	439.98
645.29	438.07
645.64	436.28
645.98	434.52
646.32	432.95
646.66	431.14
647.01	429.60
647.35	428.06
647.69	426.38
648.04	424.96
648.38	423.27
648.72	421.64
649.06	420.09
649.41	418.40
649.75	416.86
650.09	415.47
650.43	413.96
650.78	412.18
651.12	410.54
651.46	408.94
651.80	407.54
652.14	406.00
652.49	404.58
652.83	402.91
653.17	401.20
653.51	399.52
653.85	398.24
654.20	396.80
654.54	395.19
654.88	393.63
655.22	392.06
655.56	390.37
655.90	388.76
656.25	387.19
656.59	385.73
656.93	384.33
657.27	382.87
657.61	381.21
657.95	379.77
658.29	378.34
658.64	377.07
658.98	375.55
659.32	374.01
659.66	372.47
660.00	370.99
660.34	369.58
660.68	368.03
661.02	366.29
661.36	364.74
661.70	363.42
662.05	362.08
662.39	360.83
662.73	359.69
663.07	358.56
663.41	357.32
663.75	355.96
664.09	354.54
664.43	353.15
664.77	352.00
665.11	350.71
665.45	349.45
665.79	348.18
666.13	346.93
666.47	345.70
666.81	344.43
667.15	343.20
667.49	342.13
667.83	341.14
668.17	340.17
668.51	339.11
668.85	337.81
669.19	336.82
669.53	335.56
669.87	334.27
670.21	333.01
670.55	331.84
670.89	330.97
671.23	329.98
671.57	328.93
671.91	327.89
672.25	326.68
672.58	325.77
672.92	324.58
673.26	323.63
673.60	322.62
673.94	321.62
674.28	320.80
674.62	319.80
674.96	318.75
675.30	317.81
675.64	316.75
675.97	315.96
676.31	314.92
676.65	314.03
676.99	313.33
677.33	312.39
677.67	311.59
678.01	310.56
678.34	309.63
678.68	308.73
679.02	307.73
679.36	306.96
679.70	305.90
680.04	305.06
680.37	304.18
680.71	303.32
681.05	302.61
681.39	301.65
681.73	300.73
682.06	299.96
682.40	299.22
682.74	298.44
683.08	297.68
683.42	296.77
683.75	295.92
684.09	294.97
684.43	294.19
684.77	293.29
685.10	292.41
685.44	291.59
685.78	290.86
686.12	290.15
686.45	289.29
686.79	288.52
687.13	287.79
687.46	287.04
687.80	286.37
688.14	285.53
688.48	284.87
688.81	284.24
689.15	283.52
689.49	282.63
689.82	281.85
690.16	281.04
690.50	280.27
690.83	279.57
691.17	278.80
691.51	278.05
691.84	277.44
692.18	276.73
692.52	276.00
692.85	275.30
693.19	274.76
693.52	274.16
693.86	273.50
694.20	272.89
694.53	272.29
694.87	271.61
695.21	270.94
695.54	270.22
695.88	269.44
696.21	268.71
696.55	268.24
696.88	267.68
697.22	267.02
697.56	266.59
697.89	265.94
698.23	265.44
698.56	264.87
698.90	264.41
699.23	263.88
699.57	263.39
699.90	262.82
700.24	262.16
700.58	261.57
700.91	261.13
701.25	260.88
701.58	260.44
701.92	259.91
702.25	259.44
702.59	258.96
702.92	258.58
703.26	258.13
703.59	257.61
703.93	257.40
704.26	256.98
704.60	256.49
704.93	256.02
705.26	255.45
705.60	255.11
705.93	254.57
706.27	254.23
706.60	253.89
706.94	253.49
707.27	253.08
707.61	252.68
707.94	252.26
708.27	251.56
708.61	251.01
708.94	250.64
709.28	250.25
709.61	249.92
709.94	249.49
710.28	249.13
710.61	248.74
710.95	248.08
711.28	247.95
711.61	247.55
711.95	247.30
712.28	246.97
712.61	246.55
712.95	246.36
713.28	246.11
713.61	245.73
713.95	245.35
714.28	245.03
714.61	244.69
714.95	244.33
715.28	243.96
715.61	243.59
715.95	243.31
716.28	242.96
716.61	242.65
716.95	242.31
717.28	242.04
717.61	241.79
717.94	241.48
718.28	240.91
718.61	240.59
718.94	240.22
719.27	239.94
719.61	239.60
719.94	239.15
720.27	238.67
720.60	238.36
720.94	238.14
721.27	237.80
721.60	237.61
721.93	237.35
722.27	237.21
722.60	237.04
722.93	236.69
723.26	236.55
723.59	236.28
723.93	236.07
724.26	235.84
724.59	235.55
724.92	235.39
725.25	235.24
725.59	235.07
725.92	234.89
726.25	234.67
726.58	234.58
726.91	234.35
727.24	234.18
727.57	233.96
727.91	233.64
728.24	233.55
728.57	233.31
728.90	233.15
729.23	232.77
729.56	232.72
729.89	232.60
730.22	232.27
730.55	232.01
730.89	231.92
731.22	231.64
731.55	231.45
731.88	231.25
732.21	231.08
732.54	230.88
732.87	230.72
733.20	230.49
733.53	230.22
733.86	230.08
734.19	229.79
734.52	229.65
734.85	229.78
735.18	229.50
735.51	229.43
735.84	229.20
736.17	229.17
736.50	228.79
736.83	228.95
737.16	228.85
737.49	228.71
737.82	228.38
738.15	228.25
738.48	228.05
738.81	227.85
739.14	227.57
739.47	227.31
739.80	227.15
740.13	227.11
740.46	226.91
740.79	226.76
741.12	226.72
741.45	226.46
741.78	226.11
742.11	226.08
742.44	225.90
742.77	225.85
743.10	225.69
743.43	225.52
743.75	224.98
744.08	225.31
744.41	225.10
744.74	225.00
745.07	224.82
745.40	224.77
745.73	224.81
746.06	224.72
746.39	224.64
746.71	224.40
747.04	224.15
747.37	223.96
747.70	223.83
748.03	223.66
748.36	223.65
748.68	223.50
749.01	223.18
749.34	223.04
749.67	222.89
750.00	222.75
750.33	222.88
750.65	222.83
750.98	222.23
751.31	222.13
751.64	222.06
751.97	222.16
752.29	222.07
752.62	221.75
752.95	221.62
753.28	221.50
753.60	221.47
753.93	221.51
754.26	221.42
754.59	221.23
754.91	221.11
755.24	220.95
755.57	220.82
755.90	220.76
756.22	220.59
756.55	220.46
756.88	220.30
757.20	219.97
757.53	219.76
757.86	219.76
758.19	219.75
758.51	219.63
758.84	219.34
759.17	219.18
759.49	219.09
759.82	219.14
760.15	219.06
760.47	218.94
760.80	218.84
761.13	218.82
761.45	218.71
761.78	218.63
762.11	218.52
762.43	218.37
762.76	218.30
763.08	218.26
763.41	218.26
763.74	218.21
764.06	218.15
764.39	218.05
764.71	217.85
765.04	217.72
765.37	217.58
765.69	217.49
766.02	217.39
766.34	217.28
766.67	217.13
767.00	217.10
767.32	217.27
767.65	217.34
767.97	217.26
768.30	217.31
768.62	217.21
768.95	217.17
769.27	217.15
769.60	217.15
769.92	216.97
770.25	216.80
770.57	216.64
770.90	216.51
771.22	216.43
771.55	216.39
771.87	216.34
772.20	216.29
772.52	216.54
772.85	216.84
773.17	216.82
773.50	216.67
773.82	216.61
774.15	216.34
774.47	216.04
774.80	216.01
775.12	215.91
775.45	215.85
775.77	215.81
776.09	215.75
776.42	215.60
776.74	215.70
777.07	215.63
777.39	215.67
777.72	215.70
778.04	215.70
778.36	215.66
778.69	215.60
779.01	215.59
779.33	215.20
779.66	214.85
779.98	214.81
780.31	214.81
780.63	214.82
780.95	214.84
781.28	214.78
781.60	214.70
781.92	214.64
782.25	214.63
782.57	214.60
782.89	214.55
783.22	214.45
783.54	214.36
783.86	214.37
784.19	214.34
784.51	214.38
784.83	214.31
785.16	214.20
785.48	214.18
785.80	214.14
786.12	214.12
786.45	214.02
786.77	213.92
787.09	213.94
787.42	213.88
787.74	213.80
788.06	213.82
788.38	213.78
788.71	213.70
789.03	213.62
789.35	213.61
789.67	213.57
789.99	213.65
790.32	213.56
790.64	213.55
790.96	213.75
791.28	213.64
791.61	213.59
791.93	213.68
792.25	213.67
792.57	213.88
792.89	213.93
793.21	213.97
793.54	213.99
793.86	213.84
794.18	213.85
794.50	213.82
794.82	213.81
795.14	213.83
795.47	213.94
795.79	214.00
796.11	213.87
796.43	213.90
796.75	213.86
797.07	213.90
797.39	213.85
797.71	213.56
798.04	213.55
798.36	213.54
798.68	213.47
799.00	213.43
799.32	213.35
799.64	213.32
799.96	213.31
800.28	213.43
800.60	213.46
800.92	213.52
801.24	213.47
801.56	213.45
801.89	213.37
802.21	213.38
802.53	213.36
802.85	213.42
803.17	213.52
803.49	213.46
803.81	213.45
804.13	213.38
804.45	213.35
804.77	213.37
805.09	213.37
805.41	213.38
805.73	213.36
806.05	213.20
806.37	213.17
806.69	213.08
807.01	213.00
807.33	213.00
807.65	212.82
807.97	213.01
808.28	212.94
808.60	212.97
808.92	212.88
809.24	212.99
809.56	212.95
809.88	212.81
810.20	212.83
810.52	212.82
810.84	212.91
811.16	212.90
811.48	212.85
811.80	212.97
812.12	212.88
812.43	212.90
812.75	212.88
813.07	212.81
813.39	212.85
813.71	212.77
814.03	212.75
814.35	212.73
814.67	212.51
814.98	212.45
815.30	212.41
815.62	212.37
815.94	212.17
816.26	212.18
816.58	212.07
816.89	212.15
817.21	212.12
817.53	212.05
817.85	212.07
818.17	211.99
818.48	211.81
818.80	211.86
819.12	211.80
819.44	211.76
819.76	211.64
820.07	211.61
820.39	211.59
820.71	211.60
821.03	211.59
821.34	211.53
821.66	211.53
821.98	211.64
822.30	211.58
822.61	211.79
822.93	211.69
823.25	211.71
823.57	211.57
823.88	211.55
824.20	211.54
824.52	211.55
824.83	211.58
825.15	211.56
825.47	211.56
825.79	211.60
826.10	211.53
826.42	211.60
826.74	211.64
827.05	211.68
827.37	211.61
827.69	211.61
828.00	211.68
828.32	211.69
828.64	211.58
828.95	211.73
829.27	211.61
829.58	211.65
829.90	211.72
830.22	211.77
830.53	211.73
830.85	211.66
831.17	211.52
831.48	211.53
831.80	211.57
832.11	211.59
832.43	211.59
832.75	211.65
833.06	211.82
833.38	211.70
833.69	211.69
834.01	211.70
834.32	211.72
834.64	211.73
834.96	211.79
835.27	211.74
835.59	211.65
835.90	211.56
836.22	211.61
836.53	211.57
836.85	211.58
837.16	211.86
837.48	211.85
837.79	212.03
838.11	212.02
838.42	212.04
838.74	212.04
839.05	212.00
839.37	212.00
839.68	211.79
840.00	211.82
840.31	211.77
840.63	211.82
840.94	211.78
841.26	211.71
841.57	211.67
841.88	211.75
842.20	211.75
842.51	211.72
842.83	211.66
843.14	211.92
843.46	211.95
843.77	211.85
844.08	211.84
844.40	211.74
844.71	211.76
845.03	211.69
845.34	211.62
845.65	211.61
845.97	211.54
846.28	211.56
846.60	211.57
846.91	211.61
847.22	211.49
847.54	211.59
847.85	211.63
848.16	211.68
848.48	211.59
848.79	211.69
849.10	211.71
849.42	211.75
849.73	211.49
850.04	211.38
850.36	211.28
850.67	211.34
850.98	211.32
851.30	211.31
851.61	211.32
851.92	211.38
852.23	211.49
852.55	211.55
852.86	211.61
853.17	211.64
853.49	211.65
853.80	211.78
854.11	211.75
854.42	211.77
854.74	211.68
855.05	211.60
855.36	211.46
855.67	211.48
855.99	211.40
856.30	211.77
856.61	211.83
856.92	211.80
857.23	211.83
857.55	211.80
857.86	211.76
858.17	211.82
858.48	211.76
858.79	211.66
859.11	211.74
859.42	211.71
859.73	211.68
860.04	211.69
860.35	211.58
860.66	211.48
860.98	211.42
861.29	211.53
861.60	211.60
861.91	211.62
862.22	211.64
862.53	211.56
862.84	211.11
863.16	211.16
863.47	211.03
863.78	210.98
864.09	211.03
864.40	211.09
864.71	211.07
865.02	211.03
865.33	211.00
865.64	210.91
865.95	210.91
866.27	211.05
866.58	211.00
866.89	211.06
867.20	211.02
867.51	211.03
867.82	210.91
868.13	211.04
868.44	211.03
868.75	211.03
869.06	211.04
869.37	211.19
869.68	211.07
869.99	211.21
870.30	211.24
870.61	211.30
870.92	211.20
871.23	211.11
871.54	211.24
871.85	211.28
872.16	211.30
872.47	211.28
872.78	211.12
873.09	211.17
873.40	211.16
873.71	211.27
874.02	211.22
874.33	211.21
874.64	211.12
874.95	211.18
875.26	211.13
875.56	211.19
875.87	211.06
876.18	211.13
876.49	211.51
876.80	211.48
877.11	211.36
877.42	211.38
877.73	211.45
878.04	211.27
878.35	211.30
878.66	211.28
878.96	211.30
879.27	211.27
879.58	211.27
879.89	211.17
880.20	211.25
880.51	211.22
880.82	211.20
881.12	211.24
881.43	211.14
881.74	211.07
882.05	211.14
882.36	211.20
882.67	211.22
882.97	210.82
883.28	210.77
883.59	210.76
883.90	210.81
884.21	210.89
884.51	210.95
884.82	210.98
885.13	211.01
885.44	210.99
885.74	211.00
886.05	210.95
886.36	210.98
886.67	210.83
886.98	211.06
887.28	211.12
887.59	211.02
887.90	211.06
888.20	211.07
888.51	211.09
888.82	211.05
889.13	211.01
889.43	211.28
889.74	211.28
890.05	211.28
890.35	211.26
890.66	211.15
890.97	211.16
891.28	210.96
891.58	210.95
891.89	210.89
892.20	210.86
892.50	210.82
892.81	210.87
893.12	210.86
893.42	210.65
893.73	210.63
894.04	210.71
894.34	210.72
894.65	210.70
894.95	210.62
895.26	210.61
895.57	210.72
895.87	210.40
896.18	210.44
896.48	210.45
896.79	210.40
897.10	210.46
897.40	210.42
897.71	210.51
898.01	210.47
898.32	210.55
898.63	210.55
898.93	210.56
899.24	210.54
899.54	210.59
899.85	210.62
900.15	210.62
900.46	210.58
900.76	210.58
901.07	210.58
901.38	210.55
901.68	210.57
901.99	210.46
902.29	210.55
902.60	210.57
902.90	210.54
903.21	210.56
903.51	210.55
903.82	210.68
904.12	210.71
904.43	210.68
904.73	210.67
905.03	210.75
905.34	211.09
905.64	211.10
905.95	211.03
906.25	211.04
906.56	211.14
906.86	211.18
907.17	211.15
907.47	211.19
907.77	211.20
908.08	211.18
908.38	211.19
908.69	211.13
908.99	211.16
909.30	211.26
909.60	211.26
909.90	211.27
910.21	211.18
910.51	211.06
910.81	211.16
911.12	211.16
911.42	211.16
911.73	210.80
912.03	210.78
912.33	210.86
912.64	210.81
912.94	210.67
913.24	210.67
913.55	210.67
913.85	210.69
914.15	210.81
914.46	210.82
914.76	210.76
915.06	210.82
915.37	210.75
915.67	210.71
915.97	210.70
916.27	210.65
916.58	210.67
916.88	210.63
917.18	210.54
917.49	210.77
917.79	210.72
918.09	210.82
918.39	211.00
918.70	210.99
919.00	211.05
919.30	211.25
919.60	211.25
919.91	211.24
920.21	211.24
920.51	211.15
920.81	211.14
921.12	211.22
921.42	211.15
921.72	211.15
922.02	211.20
922.32	211.25
922.63	211.26
922.93	211.42
923.23	211.53
923.53	211.51
923.83	211.27
924.13	211.28
924.44	211.28
924.74	211.29
925.04	211.41
925.34	211.36
925.64	211.26
925.94	211.21
926.24	211.47
926.55	211.46
926.85	211.50
927.15	211.50
927.45	211.54
927.75	211.54
928.05	211.62
928.35	211.60
928.65	211.70
928.95	211.66
929.26	211.50
929.56	211.60
929.86	211.66
930.16	211.68
930.46	211.74
930.76	211.75
931.06	211.56
931.36	211.40
931.66	211.50
931.96	211.48
932.26	211.50
932.56	211.28
932.86	211.25
933.16	211.20
933.46	211.18
933.76	211.09
934.06	211.17
934.36	211.21
934.66	211.16
934.96	211.07
935.26	211.07
935.56	211.18
935.86	211.04
936.16	211.06
936.46	210.98
936.76	210.92
937.06	210.84
937.36	210.81
937.66	210.86
937.96	210.76
938.26	210.68
938.56	210.65
938.86	210.70
939.16	210.84
939.46	210.84
939.76	210.81
940.06	210.80
940.35	210.74
940.65	210.53
940.95	210.55
941.25	210.44
941.55	210.47
941.85	210.46
942.15	210.53
942.45	210.57
942.75	210.64
943.04	210.57
943.34	210.68
943.64	210.67
943.94	210.59
944.24	210.62
944.54	210.68
944.84	210.60
945.13	210.53
945.43	210.41
945.73	210.43
946.03	210.45
946.33	210.41
946.62	210.36
946.92	210.39
947.22	210.38
947.52	210.51
947.82	210.53
948.11	210.43
948.41	210.38
948.71	210.27
949.01	210.28
949.31	210.40
949.60	210.31
949.90	210.39
950.20	210.39
950.50	210.40
950.79	210.38
951.09	210.47
951.39	210.52
951.69	210.50
951.98	210.68
952.28	210.72
952.58	210.73
952.87	210.74
953.17	210.87
953.47	210.85
953.76	210.80
954.06	210.72
954.36	210.70
954.66	210.72
954.95	210.82
955.25	210.80
955.55	210.73
955.84	210.71
956.14	210.73
956.44	210.86
956.73	210.80
957.03	210.84
957.32	210.85
957.62	210.78
957.92	210.90
958.21	210.74
958.51	211.22
958.81	211.30
959.10	211.37
959.40	211.36
959.69	211.43
959.99	211.46
960.29	211.53
960.58	211.54
960.88	211.62
961.17	211.58
961.47	211.65
961.76	211.65
962.06	211.69
962.36	211.66
962.65	211.57
962.95	211.60
963.24	211.58
963.54	211.58
963.83	211.62
964.13	211.57
964.42	211.50
964.72	211.20
965.01	211.12
965.31	211.06
965.60	211.05
965.90	211.25
966.19	211.18
966.49	211.18
966.78	211.21
967.08	211.27
967.37	211.28
967.67	211.18
967.96	211.22
968.26	211.25
968.55	211.29
968.85	211.34
969.14	211.28
969.43	211.20
969.73	211.24
970.02	211.20
970.32	211.23
970.61	211.27
970.91	211.06
971.20	211.12
971.49	211.07
971.79	211.14
972.08	210.84
972.38	210.90
972.67	210.88
972.96	210.86
973.26	210.82
973.55	210.94
973.85	210.92
974.14	210.94
974.43	210.96
974.73	210.88
975.02	210.83
975.31	210.85
975.61	210.94
975.90	210.84
976.19	210.87
976.49	210.85
976.78	210.82
977.07	210.88
977.37	210.82
977.66	210.84
977.95	210.72
978.24	210.81
978.54	210.88
978.83	210.85
979.12	210.85
979.42	210.71
979.71	210.60
980.00	210.53
980.29	210.52
980.59	210.44
980.88	210.62
981.17	210.59
981.46	210.62
981.76	210.60
982.05	210.74
982.34	210.75
982.63	210.74
982.93	210.79
983.22	210.87
983.51	210.90
983.80	210.99
984.09	210.99
984.39	210.94
984.68	210.88
984.97	210.89
985.26	210.85
985.55	210.91
985.85	210.86
986.14	210.96
986.43	210.98
986.72	210.96
987.01	210.76
987.30	210.80
987.59	210.77
987.89	210.75
988.18	210.61
988.47	210.55
988.76	210.48
989.05	210.43
989.34	210.34
989.63	210.40
989.92	210.39
990.22	210.39
990.51	210.30
990.80	210.25
991.09	210.24
991.38	210.29
991.67	210.29
991.96	210.22
992.25	210.25
992.54	210.19
992.83	210.24
993.12	210.21
993.41	210.19
993.70	210.36
993.99	210.46
994.28	210.59
994.58	210.65
994.87	210.63
995.16	210.60
995.45	210.61
995.74	210.52
996.03	210.53
996.32	210.57
996.61	210.68
996.90	210.71
997.19	210.73
997.48	210.70
997.77	210.67
998.06	210.78
998.34	210.77
998.63	210.78
998.92	210.74
999.21	210.83
999.50	210.85
999.79	210.70
1000.08	210.69
1000.37	210.57
1000.66	210.56
1000.95	210.65
1001.24	210.70
1001.53	210.67
1001.82	210.75
1002.11	210.67
1002.40	210.69
1002.68	210.82
1002.97	211.05
1003.26	211.05
1003.55	211.08
1003.84	211.10
1004.13	211.15
1004.42	211.13
1004.71	211.14
1004.99	211.10
1005.28	211.15
1005.57	211.19
1005.86	211.18
1006.15	211.14
1006.44	211.17
1006.72	211.20
1007.01	211.21
1007.30	211.17
1007.59	211.14
1007.88	211.06
1008.17	211.08
1008.45	211.07
1008.74	210.88
1009.03	210.77
1009.32	210.70
1009.60	210.69
1009.89	210.70
1010.18	210.57
1010.47	210.58
1010.76	210.58
1011.04	210.66
1011.33	210.75
1011.62	210.78
1011.91	210.78
1012.19	210.87
1012.48	210.90
1012.77	210.88
1013.05	210.98
1013.34	211.02
1013.63	211.07
1013.92	211.13
1014.20	211.10
1014.49	211.09
1014.78	211.14
1015.06	210.96
1015.35	210.99
1015.64	211.02
1015.92	211.07
1016.21	211.09
1016.50	211.10
1016.78	211.06
1017.07	211.06
1017.36	210.93
1017.64	210.78
1017.93	210.80
1018.22	210.75
1018.50	210.71
1018.79	210.74
1019.08	210.58
1019.36	210.64
1019.65	210.64
1019.93	210.76
1020.22	210.82
1020.51	211.00
1020.79	210.98
1021.08	211.40
1021.36	210.25
1021.65	211.50
1021.94	210.65
1022.22	211.25
1022.51	211.30
1022.79	213.65
1023.08	211.25
1023.36	214.95
1023.65	210.10
>>>>>End Processed Spectral Data<<<<<
