SpectraSuite Data File
++++++++++++++++++++++++++++++++++++
Date: Mon Feb 25 17:19:15 EST 2013
User: group
Dark Spectrum Present: No
Reference Spectrum Present: No
Number of Sampled Component Spectra: 1
Spectrometers: USB2E7196
Integration Time (usec): 104000 (USB2E7196)
Spectra Averaged: 20 (USB2E7196)
Boxcar Smoothing: 10 (USB2E7196)
Correct for Electrical Dark: No (USB2E7196)
Strobe/Lamp Enabled: No (USB2E7196)
Correct for Detector Non-linearity: No (USB2E7196)
Correct for Stray Light: No (USB2E7196)
Number of Pixels in Processed Spectrum: 2048
>>>>>Begin Processed Spectral Data<<<<<
339.09	0.00
339.48	197.70
339.86	200.55
340.24	200.70
340.63	203.20
341.01	210.00
341.39	205.85
341.78	208.60
342.16	210.00
342.54	208.50
342.93	198.46
343.31	208.47
343.69	209.04
344.07	209.50
344.46	210.07
344.84	210.47
345.22	210.55
345.60	210.77
345.99	210.91
346.37	211.01
346.75	211.15
347.13	211.22
347.52	211.21
347.90	211.38
348.28	211.46
348.66	211.44
349.05	211.49
349.43	211.58
349.81	211.74
350.19	211.77
350.57	211.83
350.96	211.98
351.34	212.07
351.72	212.17
352.10	212.24
352.48	212.22
352.87	212.26
353.25	212.33
353.63	212.50
354.01	212.55
354.39	212.56
354.77	212.63
355.15	212.81
355.54	212.92
355.92	212.77
356.30	212.79
356.68	213.16
357.06	213.22
357.44	213.19
357.82	213.14
358.20	213.29
358.58	213.33
358.97	213.40
359.35	213.53
359.73	213.66
360.11	213.72
360.49	213.77
360.87	213.80
361.25	213.83
361.63	213.93
362.01	213.98
362.39	214.09
362.77	214.17
363.15	214.13
363.53	214.15
363.91	214.29
364.29	214.26
364.67	213.98
365.05	213.96
365.43	214.05
365.81	214.12
366.19	214.31
366.57	214.39
366.95	214.37
367.33	214.30
367.71	214.29
368.09	214.40
368.47	214.45
368.85	214.44
369.23	214.55
369.61	214.39
369.99	214.47
370.37	214.50
370.75	214.66
371.13	214.60
371.51	214.55
371.89	214.59
372.27	214.69
372.65	214.64
373.03	214.62
373.41	214.53
373.78	214.55
374.16	214.31
374.54	214.28
374.92	214.22
375.30	214.17
375.68	214.07
376.06	214.03
376.44	213.93
376.82	213.92
377.19	213.84
377.57	213.79
377.95	213.70
378.33	213.63
378.71	213.42
379.09	213.44
379.47	213.45
379.84	213.26
380.22	213.17
380.60	213.15
380.98	213.14
381.36	213.10
381.73	212.99
382.11	212.97
382.49	212.93
382.87	212.84
383.25	212.87
383.62	213.28
384.00	213.21
384.38	213.24
384.76	213.28
385.13	213.41
385.51	213.34
385.89	213.28
386.27	213.20
386.64	213.20
387.02	213.13
387.40	213.09
387.78	213.20
388.15	213.19
388.53	213.10
388.91	213.05
389.29	213.05
389.66	213.10
390.04	213.09
390.42	213.08
390.79	213.13
391.17	213.11
391.55	212.76
391.92	212.71
392.30	212.68
392.68	212.61
393.05	212.54
393.43	212.55
393.81	212.51
394.18	212.52
394.56	212.45
394.94	212.60
395.31	212.60
395.69	212.67
396.06	212.74
396.44	212.78
396.82	212.80
397.19	212.90
397.57	212.89
397.95	212.97
398.32	212.97
398.70	213.05
399.07	213.19
399.45	213.14
399.82	213.18
400.20	213.21
400.58	213.28
400.95	213.19
401.33	213.45
401.70	213.77
402.08	213.90
402.45	214.05
402.83	214.13
403.20	214.21
403.58	214.23
403.95	214.33
404.33	214.53
404.71	214.64
405.08	215.01
405.46	215.25
405.83	215.35
406.21	215.46
406.58	215.62
406.96	215.72
407.33	215.97
407.70	216.27
408.08	216.80
408.45	217.08
408.83	217.55
409.20	217.79
409.58	217.93
409.95	218.30
410.33	218.72
410.70	219.07
411.08	219.56
411.45	220.14
411.82	220.70
412.20	221.37
412.57	222.09
412.95	222.46
413.32	223.06
413.69	223.79
414.07	224.57
414.44	225.36
414.82	226.28
415.19	227.33
415.56	228.35
415.94	229.23
416.31	230.53
416.68	231.66
417.06	233.01
417.43	234.44
417.81	235.92
418.18	237.50
418.55	239.10
418.93	240.79
419.30	242.49
419.67	244.35
420.04	246.22
420.42	248.16
420.79	250.64
421.16	252.99
421.54	255.55
421.91	258.06
422.28	260.68
422.66	263.39
423.03	266.15
423.40	268.85
423.77	271.82
424.15	274.77
424.52	277.83
424.89	281.22
425.26	284.43
425.64	287.55
426.01	290.96
426.38	294.50
426.75	298.26
427.13	301.98
427.50	305.99
427.87	310.18
428.24	314.44
428.61	318.25
428.99	322.61
429.36	327.11
429.73	331.79
430.10	336.40
430.47	341.09
430.85	345.76
431.22	350.96
431.59	356.60
431.96	361.69
432.33	367.42
432.70	372.95
433.08	379.52
433.45	385.64
433.82	391.72
434.19	398.66
434.56	405.26
434.93	411.65
435.30	417.91
435.68	424.86
436.05	431.65
436.42	438.52
436.79	444.92
437.16	451.71
437.53	458.74
437.90	465.94
438.27	472.98
438.64	480.30
439.01	487.01
439.38	492.85
439.75	498.66
440.13	505.20
440.50	511.46
440.87	516.45
441.24	521.64
441.61	527.30
441.98	531.40
442.35	536.24
442.72	541.29
443.09	546.08
443.46	548.75
443.83	550.68
444.20	552.34
444.57	554.62
444.94	555.80
445.31	556.90
445.68	557.98
446.05	558.19
446.42	557.46
446.79	556.53
447.16	555.39
447.53	554.69
447.90	552.02
448.27	549.15
448.64	545.40
449.01	542.67
449.37	537.77
449.74	533.02
450.11	527.66
450.48	521.53
450.85	515.37
451.22	510.16
451.59	505.12
451.96	500.28
452.33	493.95
452.70	488.11
453.07	481.30
453.43	474.19
453.80	467.66
454.17	461.11
454.54	455.02
454.91	448.65
455.28	442.30
455.65	436.41
456.02	430.88
456.38	425.88
456.75	419.73
457.12	414.75
457.49	409.80
457.86	404.70
458.23	400.56
458.59	395.97
458.96	391.37
459.33	387.26
459.70	383.15
460.07	379.89
460.43	376.13
460.80	372.68
461.17	369.60
461.54	366.35
461.91	363.35
462.27	360.28
462.64	357.53
463.01	354.60
463.38	351.91
463.74	348.80
464.11	346.20
464.48	344.09
464.85	341.71
465.21	340.11
465.58	338.34
465.95	336.00
466.32	334.08
466.68	332.28
467.05	330.45
467.42	328.63
467.78	326.69
468.15	324.93
468.52	323.61
468.88	321.81
469.25	320.27
469.62	319.03
469.98	317.74
470.35	316.57
470.72	315.42
471.08	314.05
471.45	313.15
471.82	312.29
472.18	311.24
472.55	310.54
472.92	309.40
473.28	308.56
473.65	307.86
474.02	307.19
474.38	306.69
474.75	306.28
475.11	305.82
475.48	305.48
475.85	305.32
476.21	305.12
476.58	305.10
476.94	305.18
477.31	305.20
477.67	305.21
478.04	305.37
478.41	305.69
478.77	306.39
479.14	306.54
479.50	306.87
479.87	307.29
480.23	307.83
480.60	308.36
480.96	309.03
481.33	310.03
481.69	310.89
482.06	311.71
482.42	312.63
482.79	313.65
483.15	314.84
483.52	316.14
483.88	317.38
484.25	318.76
484.61	320.20
484.98	321.78
485.34	323.68
485.71	325.50
486.07	327.49
486.44	329.19
486.80	331.42
487.17	333.69
487.53	336.31
487.90	338.93
488.26	341.95
488.62	345.03
488.99	348.07
489.35	351.31
489.72	354.83
490.08	358.57
490.44	362.39
490.81	366.40
491.17	370.45
491.54	374.97
491.90	379.63
492.26	384.57
492.63	389.70
492.99	394.93
493.36	400.56
493.72	406.62
494.08	412.82
494.45	419.42
494.81	426.44
495.17	433.44
495.54	440.87
495.90	448.50
496.26	456.45
496.63	464.70
496.99	473.58
497.35	482.67
497.72	492.22
498.08	501.97
498.44	512.18
498.80	523.12
499.17	534.20
499.53	545.67
499.89	557.70
500.26	569.80
500.62	582.35
500.98	595.67
501.34	609.37
501.71	623.53
502.07	637.91
502.43	652.82
502.79	668.22
503.16	684.28
503.52	700.73
503.88	717.59
504.24	734.93
504.60	752.49
504.97	770.72
505.33	789.29
505.69	809.04
506.05	829.11
506.41	849.06
506.78	869.65
507.14	890.61
507.50	912.27
507.86	934.26
508.22	957.09
508.59	979.76
508.95	1003.02
509.31	1026.73
509.67	1051.31
510.03	1076.17
510.39	1101.95
510.75	1127.66
511.12	1153.89
511.48	1180.44
511.84	1207.43
512.20	1234.57
512.56	1262.57
512.92	1290.78
513.28	1319.17
513.64	1347.79
514.00	1376.73
514.37	1405.65
514.73	1435.33
515.09	1464.72
515.45	1495.00
515.81	1524.78
516.17	1555.00
516.53	1585.49
516.89	1616.36
517.25	1646.78
517.61	1677.31
517.97	1707.62
518.33	1737.90
518.69	1768.35
519.05	1799.30
519.41	1830.54
519.77	1862.13
520.13	1892.65
520.49	1922.96
520.85	1953.55
521.21	1984.34
521.57	2015.95
521.93	2046.37
522.29	2077.85
522.65	2108.91
523.01	2139.28
523.37	2169.50
523.73	2200.23
524.09	2230.36
524.45	2260.53
524.81	2290.73
525.17	2321.02
525.53	2351.25
525.89	2381.63
526.25	2411.42
526.61	2439.86
526.97	2468.37
527.33	2496.59
527.68	2525.65
528.04	2553.61
528.40	2580.81
528.76	2608.08
529.12	2635.42
529.48	2663.93
529.84	2690.45
530.20	2717.13
530.56	2744.19
530.91	2771.94
531.27	2798.75
531.63	2824.65
531.99	2850.09
532.35	2875.13
532.71	2899.78
533.07	2924.81
533.42	2948.44
533.78	2972.44
534.14	2996.21
534.50	3018.07
534.86	3041.22
535.21	3062.40
535.57	3085.39
535.93	3107.18
536.29	3128.19
536.65	3148.85
537.00	3168.19
537.36	3187.12
537.72	3205.62
538.08	3223.56
538.44	3241.72
538.79	3259.59
539.15	3277.70
539.51	3295.55
539.87	3313.65
540.22	3330.35
540.58	3347.48
540.94	3364.04
541.29	3378.97
541.65	3393.53
542.01	3409.07
542.37	3422.80
542.72	3437.22
543.08	3449.77
543.44	3463.97
543.79	3476.02
544.15	3486.92
544.51	3498.96
544.87	3511.22
545.22	3522.15
545.58	3532.38
545.94	3540.79
546.29	3548.34
546.65	3555.30
547.01	3562.16
547.36	3568.50
547.72	3575.13
548.07	3579.45
548.43	3584.09
548.79	3588.57
549.14	3593.27
549.50	3597.55
549.86	3600.53
550.21	3603.09
550.57	3606.88
550.92	3607.86
551.28	3610.03
551.64	3612.20
551.99	3614.50
552.35	3615.24
552.70	3616.50
553.06	3617.94
553.41	3618.95
553.77	3619.86
554.13	3620.58
554.48	3620.92
554.84	3621.48
555.19	3620.85
555.55	3619.77
555.90	3618.10
556.26	3616.39
556.61	3614.21
556.97	3611.24
557.32	3609.56
557.68	3606.77
558.03	3603.04
558.39	3600.34
558.74	3598.32
559.10	3596.11
559.45	3592.17
559.81	3589.35
560.16	3585.10
560.52	3581.10
560.87	3576.78
561.23	3571.34
561.58	3567.10
561.94	3561.51
562.29	3554.99
562.64	3549.78
563.00	3545.44
563.35	3541.66
563.71	3538.44
564.06	3534.24
564.42	3530.52
564.77	3526.35
565.12	3522.19
565.48	3517.66
565.83	3513.00
566.19	3508.40
566.54	3501.60
566.89	3495.22
567.25	3489.33
567.60	3483.83
567.96	3477.39
568.31	3471.27
568.66	3465.10
569.02	3457.80
569.37	3450.05
569.72	3443.26
570.08	3435.59
570.43	3427.44
570.78	3418.58
571.14	3408.83
571.49	3399.77
571.84	3391.57
572.20	3381.39
572.55	3372.53
572.90	3362.26
573.26	3351.65
573.61	3340.57
573.96	3330.43
574.31	3319.20
574.67	3307.17
575.02	3294.99
575.37	3283.33
575.72	3270.80
576.08	3260.22
576.43	3248.31
576.78	3237.64
577.13	3226.85
577.49	3215.74
577.84	3204.16
578.19	3194.04
578.54	3184.26
578.90	3174.53
579.25	3162.77
579.60	3150.95
579.95	3138.27
580.30	3127.39
580.66	3116.95
581.01	3104.97
581.36	3093.05
581.71	3081.75
582.06	3070.77
582.42	3059.76
582.77	3047.97
583.12	3036.64
583.47	3025.38
583.82	3014.67
584.17	3003.65
584.53	2992.35
584.88	2981.04
585.23	2969.58
585.58	2957.16
585.93	2944.50
586.28	2932.52
586.63	2920.75
586.98	2909.75
587.34	2899.58
587.69	2887.99
588.04	2876.09
588.39	2865.41
588.74	2853.74
589.09	2843.21
589.44	2831.54
589.79	2821.01
590.14	2810.58
590.49	2799.56
590.84	2788.30
591.19	2778.17
591.54	2766.94
591.89	2754.12
592.25	2742.48
592.60	2730.35
592.95	2718.26
593.30	2705.58
593.65	2692.88
594.00	2680.62
594.35	2670.59
594.70	2658.68
595.05	2647.91
595.40	2636.70
595.75	2624.39
596.10	2613.88
596.45	2602.80
596.80	2592.65
597.15	2581.82
597.50	2570.23
597.85	2559.72
598.19	2548.45
598.54	2537.25
598.89	2526.59
599.24	2517.77
599.59	2507.63
599.94	2498.76
600.29	2489.20
600.64	2480.13
600.99	2469.56
601.34	2460.48
601.69	2448.97
602.04	2438.14
602.39	2427.65
602.74	2417.65
603.08	2409.15
603.43	2400.32
603.78	2390.46
604.13	2380.46
604.48	2370.71
604.83	2362.65
605.18	2354.37
605.53	2344.74
605.87	2334.51
606.22	2325.40
606.57	2315.15
606.92	2305.21
607.27	2294.45
607.62	2284.42
607.96	2275.23
608.31	2266.97
608.66	2256.34
609.01	2246.06
609.36	2236.34
609.70	2225.51
610.05	2214.62
610.40	2203.45
610.75	2191.85
611.10	2181.72
611.44	2169.71
611.79	2157.91
612.14	2145.34
612.49	2132.20
612.83	2121.01
613.18	2108.98
613.53	2096.86
613.88	2084.31
614.22	2072.93
614.57	2061.46
614.92	2049.81
615.27	2037.28
615.61	2024.95
615.96	2013.73
616.31	2003.25
616.65	1992.80
617.00	1982.33
617.35	1971.90
617.70	1960.60
618.04	1949.05
618.39	1936.77
618.74	1926.25
619.08	1914.89
619.43	1904.03
619.78	1893.87
620.12	1883.21
620.47	1873.23
620.82	1861.76
621.16	1850.84
621.51	1839.62
621.85	1828.88
622.20	1817.82
622.55	1807.05
622.89	1796.02
623.24	1784.96
623.59	1773.46
623.93	1761.93
624.28	1751.06
624.62	1740.11
624.97	1729.43
625.32	1719.20
625.66	1709.22
626.01	1698.94
626.35	1689.37
626.70	1679.26
627.04	1669.39
627.39	1659.30
627.73	1648.95
628.08	1639.77
628.43	1629.54
628.77	1619.65
629.12	1609.39
629.46	1600.44
629.81	1591.10
630.15	1581.41
630.50	1571.88
630.84	1562.07
631.19	1552.59
631.53	1542.91
631.88	1532.61
632.22	1522.82
632.57	1513.43
632.91	1503.60
633.26	1493.83
633.60	1484.10
633.95	1474.79
634.29	1465.01
634.64	1455.76
634.98	1445.80
635.32	1436.59
635.67	1428.29
636.01	1419.32
636.36	1410.30
636.70	1401.11
637.05	1391.85
637.39	1383.35
637.73	1374.84
638.08	1366.94
638.42	1358.89
638.77	1350.53
639.11	1342.28
639.45	1333.82
639.80	1324.78
640.14	1315.91
640.49	1307.33
640.83	1298.86
641.17	1290.24
641.52	1281.48
641.86	1272.39
642.20	1264.33
642.55	1254.96
642.89	1245.90
643.23	1236.98
643.58	1228.71
643.92	1219.41
644.26	1210.92
644.61	1202.32
644.95	1193.30
645.29	1184.39
645.64	1175.37
645.98	1166.69
646.32	1158.46
646.66	1149.93
647.01	1141.91
647.35	1133.96
647.69	1125.24
648.04	1116.97
648.38	1108.68
648.72	1100.43
649.06	1092.15
649.41	1083.88
649.75	1076.04
650.09	1068.29
650.43	1060.26
650.78	1051.70
651.12	1043.72
651.46	1035.68
651.80	1027.75
652.14	1020.07
652.49	1012.04
652.83	1004.04
653.17	995.39
653.51	987.31
653.85	979.56
654.20	971.71
654.54	963.67
654.88	956.11
655.22	948.19
655.56	940.30
655.90	932.63
656.25	925.21
656.59	917.65
656.93	910.26
657.27	902.78
657.61	894.92
657.95	887.95
658.29	880.95
658.64	874.03
658.98	866.75
659.32	859.27
659.66	852.40
660.00	845.23
660.34	838.56
660.68	831.50
661.02	824.33
661.36	817.61
661.70	811.20
662.05	804.76
662.39	798.72
662.73	792.61
663.07	786.70
663.41	780.48
663.75	774.39
664.09	768.15
664.43	761.80
664.77	756.25
665.11	750.16
665.45	744.32
665.79	738.42
666.13	732.63
666.47	727.08
666.81	721.42
667.15	715.91
667.49	710.74
667.83	705.58
668.17	700.45
668.51	695.38
668.85	690.26
669.19	685.31
669.53	679.94
669.87	674.87
670.21	669.68
670.55	664.59
670.89	660.03
671.23	655.57
671.57	651.01
671.91	646.22
672.25	641.57
672.58	636.91
672.92	632.29
673.26	628.00
673.60	623.63
673.94	619.20
674.28	614.85
674.62	610.67
674.96	606.31
675.30	602.20
675.64	597.87
675.97	593.57
676.31	589.58
676.65	585.69
676.99	581.80
677.33	577.69
677.67	573.82
678.01	569.52
678.34	565.42
678.68	561.59
679.02	557.74
679.36	553.99
679.70	550.22
680.04	546.45
680.37	542.48
680.71	538.86
681.05	535.42
681.39	531.83
681.73	528.17
682.06	524.84
682.40	521.44
682.74	517.95
683.08	514.75
683.42	511.11
683.75	507.70
684.09	504.11
684.43	500.87
684.77	497.42
685.10	494.31
685.44	491.00
685.78	487.74
686.12	484.80
686.45	481.70
686.79	478.61
687.13	475.63
687.46	472.77
687.80	469.78
688.14	466.60
688.48	463.68
688.81	460.65
689.15	457.65
689.49	454.64
689.82	451.83
690.16	448.52
690.50	445.57
690.83	442.68
691.17	439.81
691.51	436.94
691.84	434.36
692.18	431.65
692.52	429.08
692.85	426.64
693.19	424.14
693.52	421.59
693.86	418.95
694.20	416.42
694.53	413.91
694.87	411.38
695.21	408.82
695.54	406.18
695.88	403.60
696.21	401.08
696.55	398.80
696.88	396.41
697.22	394.17
697.56	392.17
697.89	389.88
698.23	387.71
698.56	385.53
698.90	383.53
699.23	381.30
699.57	379.15
699.90	376.96
700.24	374.67
700.58	372.57
700.91	370.66
701.25	368.83
701.58	366.80
701.92	364.77
702.25	362.81
702.59	361.06
702.92	359.34
703.26	357.65
703.59	355.80
703.93	354.37
704.26	352.72
704.60	350.86
704.93	349.07
705.26	347.26
705.60	345.73
705.93	343.84
706.27	342.26
706.60	340.77
706.94	339.21
707.27	337.60
707.61	336.00
707.94	334.38
708.27	332.65
708.61	331.13
708.94	329.72
709.28	328.27
709.61	326.87
709.94	325.41
710.28	324.03
710.61	322.66
710.95	320.92
711.28	319.75
711.61	318.43
711.95	317.27
712.28	316.02
712.61	314.67
712.95	313.69
713.28	312.58
713.61	311.27
713.95	309.92
714.28	308.75
714.61	307.70
714.95	306.52
715.28	305.32
715.61	304.22
715.95	303.19
716.28	302.06
716.61	300.94
716.95	299.81
717.28	298.73
717.61	297.68
717.94	296.60
718.28	295.40
718.61	294.39
718.94	293.29
719.27	292.35
719.61	291.36
719.94	290.20
720.27	289.00
720.60	288.00
720.94	287.15
721.27	286.45
721.60	285.50
721.93	284.70
722.27	284.03
722.60	283.23
722.93	282.23
723.26	281.60
723.59	280.78
723.93	280.09
724.26	279.28
724.59	278.54
724.92	277.88
725.25	277.17
725.59	276.43
725.92	275.75
726.25	275.05
726.58	274.37
726.91	273.65
727.24	273.08
727.57	272.45
727.91	271.73
728.24	271.00
728.57	270.42
728.90	269.78
729.23	269.01
729.56	268.54
729.89	267.94
730.22	267.15
730.55	266.55
730.89	265.91
731.22	265.32
731.55	264.67
731.88	264.06
732.21	263.56
732.54	262.91
732.87	262.32
733.20	261.75
733.53	261.21
733.86	260.70
734.19	260.10
734.52	259.62
734.85	259.35
735.18	258.70
735.51	258.22
735.84	257.67
736.17	257.24
736.50	256.50
736.83	256.46
737.16	256.06
737.49	255.53
737.82	254.94
738.15	254.39
738.48	253.82
738.81	253.33
739.14	252.71
739.47	252.21
739.80	251.77
740.13	251.25
740.46	250.71
740.79	250.20
741.12	249.78
741.45	249.29
741.78	248.64
742.11	248.31
742.44	247.82
742.77	247.44
743.10	246.95
743.43	246.54
743.75	245.68
744.08	245.75
744.41	245.32
744.74	245.03
745.07	244.58
745.40	244.40
745.73	244.16
746.06	243.79
746.39	243.48
746.71	243.06
747.04	242.67
747.37	242.25
747.70	242.00
748.03	241.59
748.36	241.32
748.68	241.09
749.01	240.62
749.34	240.27
749.67	239.98
750.00	239.69
750.33	239.64
750.65	239.39
750.98	238.60
751.31	238.35
751.64	237.99
751.97	237.91
752.29	237.52
752.62	237.03
752.95	236.70
753.28	236.33
753.60	236.09
753.93	235.98
754.26	235.77
754.59	235.37
754.91	235.11
755.24	234.77
755.57	234.38
755.90	234.19
756.22	233.91
756.55	233.54
756.88	233.24
757.20	232.75
757.53	232.40
757.86	232.11
758.19	231.85
758.51	231.70
758.84	231.22
759.17	230.90
759.49	230.71
759.82	230.68
760.15	230.56
760.47	230.32
760.80	229.90
761.13	229.70
761.45	229.47
761.78	229.29
762.11	229.05
762.43	228.81
762.76	228.52
763.08	228.33
763.41	228.23
763.74	228.00
764.06	227.76
764.39	227.52
764.71	227.34
765.04	227.18
765.37	226.90
765.69	226.80
766.02	226.72
766.34	226.45
766.67	226.13
767.00	226.04
767.32	225.99
767.65	226.05
767.97	225.88
768.30	225.75
768.62	225.56
768.95	225.40
769.27	225.26
769.60	225.20
769.92	224.99
770.25	224.70
770.57	224.51
770.90	224.39
771.22	224.22
771.55	224.10
771.87	223.92
772.20	223.83
772.52	224.00
772.85	224.18
773.17	224.12
773.50	223.99
773.82	223.75
774.15	223.48
774.47	223.16
774.80	222.95
775.12	222.86
775.45	222.74
775.77	222.60
776.09	222.53
776.42	222.39
776.74	222.36
777.07	222.28
777.39	222.24
777.72	222.12
778.04	222.15
778.36	221.99
778.69	221.94
779.01	221.78
779.33	221.34
779.66	220.85
779.98	220.76
780.31	220.66
780.63	220.65
780.95	220.59
781.28	220.49
781.60	220.46
781.92	220.30
782.25	220.21
782.57	220.19
782.89	220.02
783.22	219.91
783.54	219.70
783.86	219.65
784.19	219.45
784.51	219.45
784.83	219.23
785.16	219.14
785.48	219.04
785.80	218.99
786.12	218.92
786.45	218.92
786.77	218.92
787.09	218.82
787.42	218.69
787.74	218.71
788.06	218.65
788.38	218.50
788.71	218.46
789.03	218.44
789.35	218.39
789.67	218.32
789.99	218.22
790.32	218.20
790.64	218.12
790.96	218.45
791.28	218.32
791.61	218.34
791.93	218.36
792.25	218.28
792.57	218.45
792.89	218.33
793.21	218.27
793.54	218.11
793.86	217.98
794.18	217.89
794.50	217.75
794.82	217.73
795.14	217.83
795.47	217.76
795.79	217.65
796.11	217.53
796.43	217.43
796.75	217.43
797.07	217.34
797.39	217.32
797.71	217.02
798.04	216.94
798.36	216.85
798.68	216.78
799.00	216.70
799.32	216.50
799.64	216.54
799.96	216.51
800.28	216.49
800.60	216.50
800.92	216.55
801.24	216.47
801.56	216.48
801.89	216.38
802.21	216.39
802.53	216.31
802.85	216.36
803.17	216.57
803.49	216.48
803.81	216.45
804.13	216.38
804.45	216.30
804.77	216.30
805.09	216.33
805.41	216.30
805.73	216.29
806.05	216.17
806.37	216.14
806.69	215.96
807.01	215.97
807.33	215.90
807.65	215.72
807.97	215.85
808.28	215.76
808.60	215.67
808.92	215.59
809.24	215.82
809.56	215.67
809.88	215.42
810.20	215.40
810.52	215.34
810.84	215.24
811.16	215.11
811.48	215.06
811.80	215.06
812.12	214.92
812.43	214.91
812.75	214.90
813.07	214.82
813.39	214.90
813.71	214.79
814.03	214.77
814.35	214.77
814.67	214.63
814.98	214.52
815.30	214.48
815.62	214.41
815.94	214.10
816.26	214.10
816.58	214.04
816.89	214.06
817.21	213.98
817.53	213.98
817.85	213.96
818.17	213.97
818.48	213.87
818.80	213.90
819.12	213.80
819.44	213.65
819.76	213.58
820.07	213.56
820.39	213.57
820.71	213.56
821.03	213.55
821.34	213.50
821.66	213.51
821.98	213.57
822.30	213.58
822.61	213.80
822.93	213.75
823.25	213.76
823.57	213.66
823.88	213.79
824.20	213.81
824.52	213.86
824.83	213.80
825.15	213.69
825.47	213.71
825.79	213.72
826.10	213.79
826.42	213.77
826.74	213.77
827.05	213.76
827.37	213.75
827.69	213.65
828.00	213.67
828.32	213.71
828.64	213.65
828.95	213.80
829.27	213.63
829.58	213.64
829.90	213.63
830.22	213.73
830.53	213.60
830.85	213.55
831.17	213.55
831.48	213.46
831.80	213.50
832.11	213.48
832.43	213.45
832.75	213.34
833.06	213.59
833.38	213.43
833.69	213.34
834.01	213.35
834.32	213.38
834.64	213.36
834.96	213.35
835.27	213.37
835.59	213.24
835.90	213.24
836.22	213.14
836.53	213.07
836.85	212.95
837.16	213.27
837.48	213.27
837.79	213.33
838.11	213.35
838.42	213.41
838.74	213.44
839.05	213.43
839.37	213.45
839.68	213.28
840.00	213.30
840.31	213.28
840.63	213.26
840.94	213.27
841.26	213.17
841.57	213.08
841.88	213.06
842.20	213.02
842.51	212.87
842.83	212.89
843.14	213.19
843.46	213.25
843.77	213.04
844.08	212.95
844.40	212.85
844.71	212.82
845.03	212.75
845.34	212.65
845.65	212.63
845.97	212.65
846.28	212.55
846.60	212.58
846.91	212.56
847.22	212.56
847.54	212.55
847.85	212.60
848.16	212.65
848.48	212.57
848.79	212.63
849.10	212.78
849.42	212.83
849.73	212.55
850.04	212.58
850.36	212.51
850.67	212.66
850.98	212.68
851.30	212.72
851.61	212.70
851.92	212.70
852.23	212.77
852.55	212.80
852.86	212.85
853.17	212.83
853.49	212.95
853.80	213.03
854.11	213.05
854.42	213.10
854.74	213.05
855.05	213.08
855.36	212.94
855.67	212.91
855.99	212.89
856.30	213.22
856.61	213.15
856.92	213.14
857.23	213.11
857.55	213.08
857.86	213.03
858.17	213.09
858.48	212.99
858.79	212.96
859.11	212.95
859.42	212.92
859.73	212.91
860.04	212.82
860.35	212.71
860.66	212.62
860.98	212.61
861.29	212.63
861.60	212.58
861.91	212.68
862.22	212.59
862.53	212.56
862.84	212.18
863.16	212.25
863.47	212.18
863.78	212.14
864.09	212.13
864.40	212.21
864.71	212.16
865.02	212.30
865.33	212.23
865.64	212.18
865.95	212.17
866.27	212.40
866.58	212.42
866.89	212.45
867.20	212.45
867.51	212.34
867.82	212.36
868.13	212.44
868.44	212.31
868.75	212.38
869.06	212.36
869.37	212.43
869.68	212.31
869.99	212.31
870.30	212.34
870.61	212.43
870.92	212.36
871.23	212.32
871.54	212.30
871.85	212.39
872.16	212.43
872.47	212.42
872.78	212.14
873.09	212.17
873.40	212.15
873.71	212.21
874.02	212.22
874.33	212.13
874.64	212.04
874.95	212.14
875.26	212.11
875.56	212.10
875.87	212.06
876.18	212.06
876.49	212.39
876.80	212.32
877.11	212.21
877.42	212.22
877.73	212.23
878.04	212.19
878.35	212.10
878.66	212.10
878.96	212.06
879.27	212.10
879.58	212.04
879.89	212.03
880.20	212.11
880.51	212.05
880.82	212.10
881.12	212.15
881.43	212.10
881.74	212.03
882.05	211.98
882.36	211.95
882.67	212.02
882.97	211.78
883.28	211.72
883.59	211.65
883.90	211.72
884.21	211.82
884.51	211.81
884.82	211.85
885.13	211.79
885.44	211.77
885.74	211.80
886.05	211.78
886.36	211.75
886.67	211.57
886.98	211.75
887.28	211.77
887.59	211.76
887.90	211.68
888.20	211.69
888.51	211.82
888.82	211.79
889.13	211.74
889.43	211.91
889.74	211.90
890.05	211.93
890.35	211.91
890.66	211.84
890.97	211.77
891.28	211.76
891.58	211.81
891.89	211.83
892.20	211.77
892.50	211.73
892.81	211.77
893.12	211.79
893.42	211.75
893.73	211.77
894.04	211.81
894.34	211.89
894.65	211.96
894.95	211.89
895.26	211.94
895.57	212.14
895.87	211.86
896.18	211.93
896.48	211.99
896.79	211.98
897.10	212.05
897.40	212.09
897.71	212.06
898.01	212.00
898.32	212.00
898.63	211.99
898.93	212.03
899.24	212.04
899.54	212.05
899.85	211.93
900.15	211.84
900.46	211.84
900.76	211.87
901.07	211.82
901.38	211.81
901.68	211.87
901.99	211.66
902.29	211.71
902.60	211.77
902.90	211.73
903.21	211.63
903.51	211.61
903.82	211.66
904.12	211.71
904.43	211.77
904.73	211.78
905.03	211.84
905.34	212.19
905.64	212.11
905.95	212.16
906.25	212.16
906.56	212.18
906.86	212.17
907.17	212.14
907.47	212.15
907.77	212.19
908.08	212.08
908.38	212.11
908.69	212.12
908.99	212.17
909.30	212.14
909.60	212.22
909.90	212.15
910.21	212.03
910.51	212.00
910.81	211.97
911.12	211.95
911.42	211.88
911.73	211.48
912.03	211.60
912.33	211.60
912.64	211.58
912.94	211.52
913.24	211.41
913.55	211.36
913.85	211.37
914.15	211.40
914.46	211.51
914.76	211.48
915.06	211.47
915.37	211.43
915.67	211.50
915.97	211.46
916.27	211.41
916.58	211.52
916.88	211.43
917.18	211.43
917.49	211.72
917.79	211.70
918.09	211.80
918.39	211.84
918.70	211.82
919.00	211.87
919.30	212.08
919.60	212.13
919.91	212.09
920.21	212.04
920.51	211.93
920.81	211.91
921.12	211.95
921.42	211.95
921.72	211.94
922.02	211.91
922.32	212.03
922.63	212.08
922.93	212.18
923.23	212.24
923.53	212.20
923.83	211.99
924.13	212.10
924.44	212.00
924.74	212.04
925.04	212.09
925.34	212.04
925.64	211.89
925.94	211.81
926.24	212.05
926.55	212.04
926.85	212.13
927.15	212.11
927.45	212.07
927.75	212.00
928.05	211.96
928.35	211.87
928.65	211.86
928.95	211.92
929.26	211.85
929.56	211.92
929.86	211.98
930.16	211.94
930.46	211.90
930.76	211.95
931.06	211.76
931.36	211.74
931.66	211.83
931.96	211.87
932.26	211.96
932.56	211.79
932.86	211.79
933.16	211.72
933.46	211.65
933.76	211.61
934.06	211.75
934.36	211.85
934.66	211.90
934.96	211.89
935.26	211.79
935.56	211.78
935.86	211.63
936.16	211.54
936.46	211.55
936.76	211.59
937.06	211.60
937.36	211.67
937.66	211.67
937.96	211.66
938.26	211.64
938.56	211.65
938.86	211.65
939.16	211.86
939.46	211.92
939.76	211.98
940.06	212.02
940.35	211.91
940.65	211.80
940.95	211.83
941.25	211.69
941.55	211.68
941.85	211.65
942.15	211.72
942.45	211.87
942.75	211.74
943.04	211.67
943.34	211.74
943.64	211.68
943.94	211.65
944.24	211.69
944.54	211.70
944.84	211.69
945.13	211.66
945.43	211.43
945.73	211.42
946.03	211.40
946.33	211.36
946.62	211.36
946.92	211.38
947.22	211.35
947.52	211.38
947.82	211.46
948.11	211.43
948.41	211.43
948.71	211.23
949.01	211.38
949.31	211.40
949.60	211.35
949.90	211.42
950.20	211.35
950.50	211.28
950.79	211.24
951.09	211.22
951.39	211.20
951.69	211.22
951.98	211.30
952.28	211.32
952.58	211.29
952.87	211.25
953.17	211.28
953.47	211.25
953.76	211.25
954.06	211.20
954.36	211.23
954.66	211.22
954.95	211.43
955.25	211.40
955.55	211.34
955.84	211.26
956.14	211.29
956.44	211.32
956.73	211.26
957.03	211.26
957.32	211.26
957.62	211.26
957.92	211.34
958.21	211.25
958.51	211.63
958.81	211.72
959.10	211.74
959.40	211.78
959.69	211.86
959.99	211.94
960.29	211.95
960.58	211.90
960.88	212.07
961.17	212.00
961.47	212.08
961.76	212.06
962.06	212.10
962.36	212.01
962.65	212.03
962.95	212.03
963.24	212.00
963.54	212.08
963.83	212.11
964.13	212.05
964.42	212.00
964.72	211.73
965.01	211.69
965.31	211.69
965.60	211.52
965.90	211.70
966.19	211.61
966.49	211.64
966.78	211.67
967.08	211.52
967.37	211.44
967.67	211.33
967.96	211.44
968.26	211.49
968.55	211.52
968.85	211.61
969.14	211.67
969.43	211.70
969.73	211.66
970.02	211.62
970.32	211.68
970.61	211.65
970.91	211.49
971.20	211.49
971.49	211.45
971.79	211.63
972.08	211.37
972.38	211.39
972.67	211.37
972.96	211.45
973.26	211.47
973.55	211.59
973.85	211.58
974.14	211.52
974.43	211.49
974.73	211.44
975.02	211.33
975.31	211.35
975.61	211.34
975.90	211.31
976.19	211.31
976.49	211.28
976.78	211.29
977.07	211.35
977.37	211.37
977.66	211.49
977.95	211.38
978.24	211.50
978.54	211.59
978.83	211.58
979.12	211.48
979.42	211.46
979.71	211.42
980.00	211.40
980.29	211.40
980.59	211.41
980.88	211.52
981.17	211.50
981.46	211.46
981.76	211.41
982.05	211.50
982.34	211.56
982.63	211.57
982.93	211.60
983.22	211.71
983.51	211.67
983.80	211.64
984.09	211.68
984.39	211.64
984.68	211.61
984.97	211.62
985.26	211.62
985.55	211.69
985.85	211.61
986.14	211.66
986.43	211.70
986.72	211.64
987.01	211.48
987.30	211.54
987.59	211.54
987.89	211.61
988.18	211.49
988.47	211.42
988.76	211.39
989.05	211.37
989.34	211.26
989.63	211.34
989.92	211.35
990.22	211.28
990.51	211.21
990.80	211.17
991.09	211.24
991.38	211.25
991.67	211.18
991.96	211.28
992.25	211.24
992.54	211.20
992.83	211.12
993.12	211.12
993.41	211.13
993.70	211.24
993.99	211.23
994.28	211.28
994.58	211.39
994.87	211.37
995.16	211.36
995.45	211.35
995.74	211.27
996.03	211.27
996.32	211.33
996.61	211.40
996.90	211.38
997.19	211.29
997.48	211.30
997.77	211.26
998.06	211.19
998.34	211.23
998.63	211.23
998.92	211.36
999.21	211.41
999.50	211.45
999.79	211.31
1000.08	211.31
1000.37	211.32
1000.66	211.23
1000.95	211.34
1001.24	211.39
1001.53	211.45
1001.82	211.48
1002.11	211.39
1002.40	211.43
1002.68	211.49
1002.97	211.68
1003.26	211.67
1003.55	211.61
1003.84	211.62
1004.13	211.70
1004.42	211.67
1004.71	211.65
1004.99	211.59
1005.28	211.68
1005.57	211.57
1005.86	211.60
1006.15	211.58
1006.44	211.54
1006.72	211.52
1007.01	211.48
1007.30	211.53
1007.59	211.49
1007.88	211.48
1008.17	211.52
1008.45	211.49
1008.74	211.39
1009.03	211.25
1009.32	211.22
1009.60	211.24
1009.89	211.20
1010.18	211.03
1010.47	211.02
1010.76	210.97
1011.04	210.97
1011.33	210.99
1011.62	210.99
1011.91	210.97
1012.19	210.99
1012.48	210.98
1012.77	210.96
1013.05	211.04
1013.34	210.98
1013.63	210.95
1013.92	210.99
1014.20	210.95
1014.49	210.97
1014.78	210.91
1015.06	210.74
1015.35	210.79
1015.64	210.78
1015.92	210.85
1016.21	210.94
1016.50	210.96
1016.78	211.12
1017.07	211.17
1017.36	211.08
1017.64	211.06
1017.93	211.11
1018.22	211.06
1018.50	211.03
1018.79	211.03
1019.08	210.89
1019.36	210.88
1019.65	210.81
1019.93	210.86
1020.22	210.95
1020.51	211.08
1020.79	211.08
1021.08	210.55
1021.36	209.75
1021.65	210.35
1021.94	210.65
1022.22	210.50
1022.51	210.00
1022.79	213.15
1023.08	212.05
1023.36	215.35
1023.65	209.85
>>>>>End Processed Spectral Data<<<<<
