SpectraSuite Data File
++++++++++++++++++++++++++++++++++++
Date: Mon Feb 25 17:17:31 EST 2013
User: group
Dark Spectrum Present: No
Reference Spectrum Present: No
Number of Sampled Component Spectra: 1
Spectrometers: USB2E7196
Integration Time (usec): 104000 (USB2E7196)
Spectra Averaged: 20 (USB2E7196)
Boxcar Smoothing: 10 (USB2E7196)
Correct for Electrical Dark: No (USB2E7196)
Strobe/Lamp Enabled: No (USB2E7196)
Correct for Detector Non-linearity: No (USB2E7196)
Correct for Stray Light: No (USB2E7196)
Number of Pixels in Processed Spectrum: 2048
>>>>>Begin Processed Spectral Data<<<<<
339.09	0.00
339.48	198.40
339.86	199.80
340.24	201.45
340.63	203.95
341.01	210.10
341.39	204.85
341.78	207.70
342.16	209.00
342.54	209.55
342.93	198.52
343.31	208.56
343.69	209.15
344.07	209.68
344.46	210.17
344.84	210.53
345.22	210.61
345.60	210.98
345.99	211.21
346.37	211.38
346.75	211.48
347.13	211.58
347.52	211.61
347.90	211.77
348.28	211.81
348.66	211.91
349.05	211.92
349.43	212.10
349.81	212.25
350.19	212.29
350.57	212.33
350.96	212.45
351.34	212.51
351.72	212.62
352.10	212.70
352.48	212.77
352.87	212.83
353.25	212.85
353.63	212.90
354.01	212.97
354.39	212.99
354.77	213.01
355.15	213.10
355.54	213.17
355.92	213.12
356.30	213.15
356.68	213.43
357.06	213.44
357.44	213.39
357.82	213.41
358.20	213.58
358.58	213.62
358.97	213.66
359.35	213.83
359.73	213.90
360.11	213.91
360.49	213.91
360.87	213.96
361.25	214.12
361.63	214.25
362.01	214.32
362.39	214.37
362.77	214.48
363.15	214.57
363.53	214.57
363.91	214.57
364.29	214.61
364.67	214.26
365.05	214.31
365.43	214.35
365.81	214.36
366.19	214.50
366.57	214.61
366.95	214.65
367.33	214.52
367.71	214.56
368.09	214.63
368.47	214.68
368.85	214.68
369.23	214.68
369.61	214.52
369.99	214.61
370.37	214.63
370.75	214.80
371.13	214.65
371.51	214.69
371.89	214.71
372.27	214.68
372.65	214.72
373.03	214.69
373.41	214.65
373.78	214.57
374.16	214.36
374.54	214.23
374.92	214.18
375.30	214.19
375.68	214.01
376.06	214.05
376.44	213.95
376.82	214.00
377.19	213.96
377.57	213.96
377.95	213.81
378.33	213.72
378.71	213.42
379.09	213.45
379.47	213.39
379.84	213.30
380.22	213.27
380.60	213.19
380.98	213.11
381.36	213.06
381.73	213.00
382.11	213.00
382.49	213.04
382.87	212.96
383.25	212.89
383.62	213.26
384.00	213.15
384.38	213.16
384.76	213.09
385.13	213.25
385.51	213.15
385.89	213.03
386.27	213.00
386.64	213.05
387.02	213.00
387.40	213.01
387.78	212.98
388.15	212.96
388.53	212.95
388.91	212.93
389.29	212.88
389.66	212.96
390.04	212.84
390.42	212.91
390.79	212.85
391.17	212.91
391.55	212.58
391.92	212.50
392.30	212.48
392.68	212.37
393.05	212.20
393.43	212.27
393.81	212.30
394.18	212.24
394.56	212.24
394.94	212.31
395.31	212.25
395.69	212.42
396.06	212.50
396.44	212.46
396.82	212.47
397.19	212.68
397.57	212.68
397.95	212.82
398.32	212.71
398.70	212.80
399.07	212.91
399.45	212.84
399.82	212.87
400.20	212.88
400.58	212.90
400.95	212.76
401.33	212.88
401.70	213.25
402.08	213.33
402.45	213.35
402.83	213.52
403.20	213.57
403.58	213.56
403.95	213.69
404.33	213.83
404.71	213.90
405.08	214.12
405.46	214.29
405.83	214.36
406.21	214.51
406.58	214.66
406.96	214.75
407.33	215.01
407.70	215.25
408.08	215.73
408.45	216.06
408.83	216.49
409.20	216.66
409.58	216.62
409.95	217.04
410.33	217.39
410.70	217.61
411.08	218.07
411.45	218.54
411.82	218.85
412.20	219.40
412.57	220.11
412.95	220.31
413.32	220.81
413.69	221.45
414.07	222.04
414.44	222.64
414.82	223.32
415.19	224.23
415.56	225.08
415.94	225.76
416.31	226.79
416.68	227.67
417.06	228.78
417.43	229.89
417.81	231.03
418.18	232.27
418.55	233.57
418.93	234.91
419.30	236.34
419.67	237.80
420.04	239.34
420.42	240.89
420.79	243.04
421.16	244.88
421.54	246.97
421.91	248.98
422.28	251.09
422.66	253.32
423.03	255.61
423.40	257.93
423.77	260.38
424.15	262.75
424.52	265.32
424.89	268.12
425.26	270.76
425.64	273.30
426.01	276.09
426.38	279.06
426.75	282.15
427.13	285.20
427.50	288.52
427.87	291.90
428.24	295.28
428.61	298.44
428.99	302.15
429.36	305.84
429.73	309.63
430.10	313.46
430.47	317.34
430.85	321.26
431.22	325.40
431.59	329.95
431.96	334.21
432.33	339.07
432.70	343.70
433.08	349.16
433.45	354.24
433.82	359.33
434.19	365.00
434.56	370.52
434.93	375.75
435.30	380.99
435.68	386.70
436.05	392.39
436.42	397.81
436.79	402.98
437.16	408.48
437.53	414.58
437.90	420.31
438.27	426.07
438.64	431.93
439.01	437.36
439.38	442.19
439.75	447.02
440.13	452.18
440.50	457.09
440.87	461.11
441.24	465.34
441.61	470.04
441.98	473.33
442.35	477.23
442.72	481.22
443.09	485.21
443.46	487.61
443.83	489.10
444.20	490.60
444.57	492.56
444.94	493.50
445.31	494.08
445.68	495.40
446.05	495.67
446.42	495.03
446.79	494.30
447.16	493.38
447.53	492.75
447.90	490.65
448.27	488.40
448.64	485.24
449.01	482.98
449.37	479.00
449.74	475.16
450.11	470.89
450.48	465.92
450.85	460.73
451.22	456.31
451.59	452.21
451.96	448.16
452.33	442.93
452.70	438.14
453.07	432.60
453.43	426.53
453.80	421.12
454.17	415.84
454.54	410.98
454.91	405.70
455.28	400.38
455.65	395.50
456.02	391.01
456.38	386.98
456.75	381.89
457.12	377.73
457.49	373.62
457.86	369.34
458.23	366.03
458.59	362.16
458.96	358.39
459.33	354.99
459.70	351.67
460.07	348.89
460.43	345.77
460.80	342.85
461.17	340.27
461.54	337.53
461.91	334.99
462.27	332.33
462.64	330.13
463.01	327.74
463.38	325.52
463.74	322.90
464.11	320.87
464.48	319.16
464.85	317.15
465.21	315.84
465.58	314.35
465.95	312.41
466.32	311.01
466.68	309.47
467.05	307.94
467.42	306.44
467.78	304.81
468.15	303.51
468.52	302.51
468.88	301.06
469.25	299.78
469.62	298.82
469.98	297.80
470.35	296.83
470.72	295.93
471.08	294.80
471.45	294.11
471.82	293.39
472.18	292.50
472.55	291.97
472.92	291.10
473.28	290.36
473.65	289.70
474.02	289.18
474.38	288.74
474.75	288.49
475.11	288.11
475.48	287.89
475.85	287.64
476.21	287.44
476.58	287.39
476.94	287.42
477.31	287.30
477.67	287.26
478.04	287.35
478.41	287.46
478.77	288.06
479.14	288.10
479.50	288.36
479.87	288.71
480.23	289.07
480.60	289.40
480.96	289.91
481.33	290.71
481.69	291.32
482.06	291.98
482.42	292.64
482.79	293.40
483.15	294.33
483.52	295.36
483.88	296.31
484.25	297.44
484.61	298.58
484.98	299.80
485.34	301.31
485.71	302.75
486.07	304.39
486.44	305.74
486.80	307.63
487.17	309.47
487.53	311.59
487.90	313.78
488.26	316.25
488.62	318.64
488.99	321.10
489.35	323.62
489.72	326.39
490.08	329.21
490.44	332.26
490.81	335.45
491.17	338.64
491.54	342.31
491.90	345.92
492.26	349.81
492.63	353.91
492.99	358.00
493.36	362.57
493.72	367.27
494.08	372.13
494.45	377.31
494.81	382.76
495.17	388.22
495.54	394.10
495.90	400.20
496.26	406.57
496.63	413.03
496.99	419.97
497.35	427.15
497.72	434.71
498.08	442.45
498.44	450.52
498.80	459.14
499.17	467.79
499.53	476.94
499.89	486.47
500.26	496.20
500.62	506.30
500.98	516.80
501.34	527.51
501.71	538.60
502.07	549.97
502.43	561.56
502.79	573.59
503.16	586.06
503.52	598.98
503.88	612.28
504.24	625.99
504.60	639.78
504.97	654.31
505.33	668.86
505.69	684.46
506.05	700.20
506.41	716.09
506.78	732.35
507.14	748.80
507.50	765.85
507.86	783.19
508.22	801.07
508.59	818.90
508.95	837.63
509.31	856.73
509.67	876.00
510.03	895.67
510.39	916.34
510.75	936.88
511.12	957.44
511.48	978.64
511.84	1000.18
512.20	1022.06
512.56	1044.14
512.92	1066.96
513.28	1089.44
513.64	1112.23
514.00	1135.22
514.37	1158.40
514.73	1182.24
515.09	1205.87
515.45	1229.72
515.81	1253.94
516.17	1278.45
516.53	1302.82
516.89	1327.08
517.25	1351.80
517.61	1376.69
517.97	1400.94
518.33	1425.56
518.69	1450.32
519.05	1475.03
519.41	1500.34
519.77	1525.85
520.13	1550.63
520.49	1575.14
520.85	1600.35
521.21	1625.41
521.57	1650.77
521.93	1675.40
522.29	1700.79
522.65	1726.13
523.01	1751.23
523.37	1775.53
523.73	1800.43
524.09	1824.94
524.45	1849.87
524.81	1874.42
525.17	1899.07
525.53	1923.83
525.89	1948.29
526.25	1972.58
526.61	1996.30
526.97	2019.50
527.33	2042.70
527.68	2066.49
528.04	2089.56
528.40	2111.37
528.76	2133.75
529.12	2156.55
529.48	2180.19
529.84	2202.72
530.20	2224.61
530.56	2246.79
530.91	2269.67
531.27	2291.68
531.63	2313.16
531.99	2334.71
532.35	2355.20
532.71	2375.44
533.07	2396.14
533.42	2416.26
533.78	2436.23
534.14	2455.90
534.50	2474.16
534.86	2493.15
535.21	2510.72
535.57	2529.69
535.93	2548.06
536.29	2565.85
536.65	2583.14
537.00	2599.04
537.36	2614.43
537.72	2629.99
538.08	2645.15
538.44	2660.10
538.79	2675.02
539.15	2689.73
539.51	2703.87
539.87	2719.36
540.22	2733.70
540.58	2748.37
540.94	2761.96
541.29	2774.33
541.65	2786.31
542.01	2799.14
542.37	2810.95
542.72	2823.56
543.08	2834.00
543.44	2845.98
543.79	2856.32
544.15	2865.80
544.51	2876.36
544.87	2886.84
545.22	2896.02
545.58	2904.64
545.94	2912.00
546.29	2918.67
546.65	2925.44
547.01	2931.76
547.36	2936.99
547.72	2942.75
548.07	2946.28
548.43	2950.47
548.79	2954.89
549.14	2959.34
549.50	2963.46
549.86	2966.43
550.21	2968.54
550.57	2972.23
550.92	2973.14
551.28	2975.03
551.64	2977.14
551.99	2979.04
552.35	2979.54
552.70	2980.66
553.06	2981.83
553.41	2982.76
553.77	2983.61
554.13	2983.88
554.48	2984.60
554.84	2985.18
555.19	2984.57
555.55	2984.15
555.90	2982.97
556.26	2981.48
556.61	2979.75
556.97	2977.30
557.32	2975.67
557.68	2973.38
558.03	2970.40
558.39	2968.79
558.74	2967.25
559.10	2965.45
559.45	2962.46
559.81	2960.54
560.16	2957.32
560.52	2954.73
560.87	2951.78
561.23	2948.09
561.58	2945.36
561.94	2940.42
562.29	2935.17
562.64	2931.48
563.00	2927.77
563.35	2924.65
563.71	2922.11
564.06	2918.49
564.42	2915.37
564.77	2912.38
565.12	2909.06
565.48	2905.37
565.83	2901.45
566.19	2897.51
566.54	2891.73
566.89	2886.23
567.25	2881.02
567.60	2876.36
567.96	2870.97
568.31	2866.01
568.66	2860.72
569.02	2854.51
569.37	2848.36
569.72	2843.13
570.08	2836.66
570.43	2829.80
570.78	2822.63
571.14	2814.76
571.49	2807.44
571.84	2800.66
572.20	2791.90
572.55	2784.90
572.90	2776.42
573.26	2767.63
573.61	2758.29
573.96	2750.05
574.31	2741.34
574.67	2731.50
575.02	2721.98
575.37	2712.47
575.72	2702.47
576.08	2693.48
576.43	2683.60
576.78	2674.98
577.13	2666.07
577.49	2657.00
577.84	2647.91
578.19	2639.52
578.54	2631.50
578.90	2623.67
579.25	2614.00
579.60	2604.37
579.95	2594.21
580.30	2585.66
580.66	2577.40
581.01	2568.16
581.36	2558.48
581.71	2549.27
582.06	2540.69
582.42	2531.60
582.77	2521.72
583.12	2512.20
583.47	2503.32
583.82	2494.95
584.17	2485.43
584.53	2476.26
584.88	2467.17
585.23	2457.70
585.58	2447.82
585.93	2437.76
586.28	2428.03
586.63	2418.77
586.98	2410.20
587.34	2401.70
587.69	2392.20
588.04	2382.59
588.39	2373.85
588.74	2364.52
589.09	2355.81
589.44	2346.34
589.79	2337.78
590.14	2329.69
590.49	2320.83
590.84	2311.63
591.19	2303.39
591.54	2294.92
591.89	2284.77
592.25	2275.14
592.60	2265.66
592.95	2256.04
593.30	2245.75
593.65	2235.55
594.00	2225.90
594.35	2217.86
594.70	2208.20
595.05	2199.50
595.40	2190.35
595.75	2180.50
596.10	2172.13
596.45	2163.12
596.80	2155.32
597.15	2147.21
597.50	2138.11
597.85	2129.80
598.19	2120.52
598.54	2111.25
598.89	2102.93
599.24	2096.01
599.59	2088.31
599.94	2081.44
600.29	2073.75
600.64	2066.54
600.99	2058.24
601.34	2050.80
601.69	2041.62
602.04	2033.12
602.39	2024.43
602.74	2016.50
603.08	2009.82
603.43	2002.74
603.78	1995.07
604.13	1986.90
604.48	1978.53
604.83	1971.60
605.18	1964.79
605.53	1957.37
605.87	1949.18
606.22	1941.45
606.57	1932.88
606.92	1924.62
607.27	1915.68
607.62	1907.29
607.96	1899.50
608.31	1892.45
608.66	1883.85
609.01	1875.33
609.36	1867.41
609.70	1858.97
610.05	1850.05
610.40	1841.23
610.75	1832.09
611.10	1823.96
611.44	1814.04
611.79	1804.60
612.14	1794.65
612.49	1783.86
612.83	1774.45
613.18	1764.85
613.53	1755.11
613.88	1745.15
614.22	1735.47
614.57	1725.95
614.92	1716.64
615.27	1706.77
615.61	1697.07
615.96	1688.12
616.31	1679.36
616.65	1670.83
617.00	1662.23
617.35	1653.11
617.70	1643.31
618.04	1633.25
618.39	1622.84
618.74	1614.29
619.08	1604.85
619.43	1595.69
619.78	1587.44
620.12	1578.40
620.47	1569.94
620.82	1560.52
621.16	1551.31
621.51	1542.28
621.85	1533.61
622.20	1524.42
622.55	1515.55
622.89	1506.35
623.24	1497.21
623.59	1487.69
623.93	1478.28
624.28	1469.27
624.62	1460.81
624.97	1452.23
625.32	1444.14
625.66	1436.05
626.01	1427.61
626.35	1419.52
626.70	1411.32
627.04	1403.07
627.39	1395.26
627.73	1386.96
628.08	1379.31
628.43	1370.95
628.77	1362.62
629.12	1354.26
629.46	1346.93
629.81	1338.99
630.15	1331.12
630.50	1323.09
630.84	1315.04
631.19	1307.08
631.53	1299.08
631.88	1290.78
632.22	1282.52
632.57	1274.64
632.91	1266.65
633.26	1258.46
633.60	1250.85
633.95	1243.35
634.29	1235.42
634.64	1227.69
634.98	1219.53
635.32	1211.87
635.67	1204.99
636.01	1198.19
636.36	1190.47
636.70	1182.87
637.05	1175.61
637.39	1168.56
637.73	1161.78
638.08	1155.49
638.42	1149.03
638.77	1142.17
639.11	1135.28
639.45	1128.47
639.80	1121.08
640.14	1113.80
640.49	1106.98
640.83	1099.72
641.17	1092.48
641.52	1085.54
641.86	1078.03
642.20	1071.30
642.55	1064.10
642.89	1056.70
643.23	1049.15
643.58	1042.80
643.92	1035.33
644.26	1028.06
644.61	1020.95
644.95	1013.68
645.29	1006.54
645.64	999.01
645.98	991.92
646.32	985.25
646.66	978.20
647.01	971.70
647.35	965.29
647.69	958.18
648.04	951.59
648.38	944.72
648.72	937.80
649.06	931.20
649.41	924.46
649.75	917.82
650.09	911.51
650.43	905.04
650.78	897.90
651.12	891.50
651.46	885.18
651.80	878.87
652.14	872.41
652.49	865.78
652.83	859.29
653.17	852.41
653.51	845.73
653.85	839.75
654.20	833.43
654.54	826.77
654.88	820.57
655.22	814.16
655.56	807.87
655.90	801.64
656.25	795.40
656.59	789.28
656.93	783.27
657.27	777.47
657.61	771.11
657.95	765.34
658.29	759.59
658.64	753.86
658.98	747.90
659.32	741.79
659.66	736.35
660.00	730.75
660.34	725.09
660.68	719.28
661.02	713.37
661.36	707.88
661.70	702.70
662.05	697.55
662.39	692.52
662.73	687.62
663.07	682.71
663.41	677.89
663.75	672.85
664.09	667.83
664.43	662.52
664.77	657.98
665.11	653.13
665.45	648.33
665.79	643.71
666.13	639.05
666.47	634.60
666.81	629.78
667.15	625.29
667.49	621.30
667.83	617.29
668.17	613.13
668.51	608.94
668.85	604.98
669.19	600.83
669.53	596.60
669.87	592.34
670.21	588.27
670.55	584.19
670.89	580.63
671.23	576.92
671.57	573.20
671.91	569.33
672.25	565.52
672.58	561.76
672.92	557.84
673.26	554.32
673.60	550.88
673.94	547.33
674.28	543.79
674.62	540.29
674.96	536.75
675.30	533.44
675.64	530.04
675.97	526.52
676.31	523.32
676.65	520.03
676.99	517.04
677.33	513.71
677.67	510.62
678.01	507.08
678.34	503.85
678.68	500.73
679.02	497.64
679.36	494.56
679.70	491.52
680.04	488.56
680.37	485.49
680.71	482.34
681.05	479.66
681.39	476.70
681.73	473.76
682.06	471.03
682.40	468.29
682.74	465.48
683.08	462.66
683.42	459.77
683.75	457.13
684.09	454.15
684.43	451.43
684.77	448.32
685.10	445.70
685.44	442.88
685.78	440.20
686.12	437.61
686.45	435.09
686.79	432.46
687.13	430.12
687.46	427.74
687.80	425.38
688.14	422.67
688.48	420.30
688.81	417.83
689.15	415.44
689.49	412.78
689.82	410.49
690.16	407.89
690.50	405.46
690.83	403.01
691.17	400.60
691.51	398.26
691.84	396.23
692.18	394.02
692.52	392.00
692.85	390.05
693.19	388.00
693.52	385.90
693.86	383.80
694.20	381.64
694.53	379.46
694.87	377.33
695.21	375.32
695.54	373.22
695.88	371.11
696.21	369.01
696.55	367.20
696.88	365.14
697.22	363.35
697.56	361.62
697.89	359.76
698.23	357.95
698.56	356.18
698.90	354.56
699.23	352.79
699.57	351.00
699.90	349.03
700.24	347.32
700.58	345.65
700.91	343.98
701.25	342.48
701.58	340.86
701.92	339.33
702.25	337.71
702.59	336.14
702.92	334.58
703.26	333.07
703.59	331.57
703.93	330.50
704.26	329.06
704.60	327.52
704.93	326.00
705.26	324.57
705.60	323.20
705.93	321.69
706.27	320.40
706.60	319.18
706.94	318.01
707.27	316.65
707.61	315.25
707.94	314.04
708.27	312.53
708.61	311.22
708.94	309.96
709.28	308.79
709.61	307.63
709.94	306.59
710.28	305.48
710.61	304.35
710.95	302.80
711.28	301.90
711.61	300.84
711.95	299.97
712.28	299.00
712.61	298.01
712.95	297.13
713.28	296.27
713.61	295.14
713.95	294.12
714.28	293.24
714.61	292.33
714.95	291.32
715.28	290.39
715.61	289.40
715.95	288.50
716.28	287.56
716.61	286.72
716.95	285.74
717.28	284.79
717.61	283.98
717.94	283.11
718.28	282.14
718.61	281.33
718.94	280.41
719.27	279.58
719.61	278.84
719.94	278.05
720.27	276.97
720.60	276.24
720.94	275.45
721.27	274.65
721.60	274.03
721.93	273.32
722.27	272.66
722.60	272.05
722.93	271.26
723.26	270.70
723.59	269.87
723.93	269.24
724.26	268.68
724.59	268.02
724.92	267.44
725.25	266.87
725.59	266.27
725.92	265.79
726.25	265.19
726.58	264.56
726.91	263.92
727.24	263.54
727.57	263.00
727.91	262.36
728.24	261.86
728.57	261.31
728.90	260.79
729.23	260.25
729.56	259.90
729.89	259.45
730.22	258.82
730.55	258.39
730.89	257.90
731.22	257.40
731.55	256.88
731.88	256.37
732.21	255.80
732.54	255.22
732.87	254.68
733.20	254.24
733.53	253.70
733.86	253.23
734.19	252.70
734.52	252.34
734.85	252.29
735.18	251.68
735.51	251.24
735.84	250.79
736.17	250.40
736.50	249.75
736.83	249.82
737.16	249.44
737.49	249.03
737.82	248.60
738.15	248.22
738.48	247.81
738.81	247.43
739.14	247.02
739.47	246.59
739.80	246.18
740.13	245.74
740.46	245.34
740.79	244.87
741.12	244.42
741.45	243.96
741.78	243.26
742.11	243.10
742.44	242.65
742.77	242.30
743.10	241.95
743.43	241.64
743.75	240.85
744.08	240.95
744.41	240.55
744.74	240.22
745.07	239.80
745.40	239.52
745.73	239.32
746.06	238.96
746.39	238.70
746.71	238.32
747.04	238.03
747.37	237.78
747.70	237.57
748.03	237.28
748.36	237.00
748.68	236.77
749.01	236.33
749.34	236.06
749.67	235.87
750.00	235.61
750.33	235.50
750.65	235.23
750.98	234.51
751.31	234.27
751.64	233.91
751.97	233.85
752.29	233.58
752.62	233.20
752.95	232.99
753.28	232.66
753.60	232.46
753.93	232.30
754.26	232.12
754.59	231.81
754.91	231.58
755.24	231.35
755.57	231.08
755.90	230.87
756.22	230.64
756.55	230.38
756.88	230.07
757.20	229.75
757.53	229.50
757.86	229.26
758.19	228.99
758.51	228.89
758.84	228.45
759.17	228.16
759.49	227.97
759.82	227.93
760.15	227.81
760.47	227.53
760.80	227.20
761.13	226.99
761.45	226.81
761.78	226.64
762.11	226.41
762.43	226.16
762.76	226.00
763.08	225.85
763.41	225.70
763.74	225.50
764.06	225.27
764.39	225.09
764.71	225.01
765.04	224.96
765.37	224.78
765.69	224.70
766.02	224.64
766.34	224.46
766.67	224.16
767.00	224.19
767.32	224.37
767.65	224.44
767.97	224.21
768.30	224.16
768.62	224.08
768.95	223.91
769.27	223.84
769.60	223.80
769.92	223.59
770.25	223.40
770.57	223.29
770.90	223.11
771.22	222.93
771.55	222.73
771.87	222.56
772.20	222.39
772.52	222.48
772.85	222.73
773.17	222.62
773.50	222.48
773.82	222.25
774.15	221.90
774.47	221.60
774.80	221.51
775.12	221.30
775.45	221.14
775.77	221.10
776.09	221.02
776.42	220.76
776.74	220.75
777.07	220.61
777.39	220.55
777.72	220.48
778.04	220.47
778.36	220.33
778.69	220.31
779.01	220.29
779.33	219.93
779.66	219.49
779.98	219.38
780.31	219.37
780.63	219.37
780.95	219.39
781.28	219.27
781.60	219.15
781.92	219.09
782.25	219.00
782.57	218.91
782.89	218.84
783.22	218.87
783.54	218.76
783.86	218.78
784.19	218.65
784.51	218.68
784.83	218.56
785.16	218.54
785.48	218.40
785.80	218.27
786.12	218.23
786.45	218.15
786.77	218.21
787.09	218.11
787.42	217.93
787.74	217.81
788.06	217.81
788.38	217.79
788.71	217.67
789.03	217.65
789.35	217.59
789.67	217.45
789.99	217.47
790.32	217.40
790.64	217.34
790.96	217.54
791.28	217.42
791.61	217.37
791.93	217.24
792.25	217.23
792.57	217.47
792.89	217.38
793.21	217.31
793.54	217.15
793.86	217.03
794.18	217.01
794.50	216.92
794.82	216.86
795.14	216.85
795.47	216.89
795.79	216.82
796.11	216.76
796.43	216.76
796.75	216.61
797.07	216.55
797.39	216.45
797.71	216.20
798.04	216.15
798.36	216.11
798.68	216.14
799.00	216.13
799.32	215.89
799.64	215.99
799.96	215.93
800.28	215.95
800.60	215.90
800.92	215.90
801.24	215.88
801.56	215.88
801.89	215.78
802.21	215.81
802.53	215.72
802.85	215.75
803.17	215.90
803.49	215.83
803.81	215.85
804.13	215.81
804.45	215.72
804.77	215.80
805.09	215.75
805.41	215.64
805.73	215.48
806.05	215.39
806.37	215.31
806.69	215.30
807.01	215.30
807.33	215.34
807.65	215.16
807.97	215.22
808.28	215.20
808.60	215.21
808.92	215.19
809.24	215.40
809.56	215.29
809.88	215.10
810.20	215.06
810.52	215.11
810.84	215.05
811.16	214.97
811.48	214.88
811.80	215.00
812.12	215.03
812.43	215.05
812.75	215.08
813.07	214.96
813.39	214.89
813.71	214.79
814.03	214.71
814.35	214.83
814.67	214.71
814.98	214.63
815.30	214.62
815.62	214.44
815.94	214.19
816.26	214.16
816.58	214.11
816.89	214.15
817.21	213.96
817.53	213.93
817.85	214.00
818.17	213.89
818.48	213.66
818.80	213.74
819.12	213.78
819.44	213.70
819.76	213.69
820.07	213.73
820.39	213.70
820.71	213.78
821.03	213.64
821.34	213.55
821.66	213.60
821.98	213.56
822.30	213.56
822.61	213.71
822.93	213.66
823.25	213.64
823.57	213.60
823.88	213.71
824.20	213.68
824.52	213.61
824.83	213.63
825.15	213.68
825.47	213.55
825.79	213.53
826.10	213.49
826.42	213.50
826.74	213.48
827.05	213.45
827.37	213.36
827.69	213.30
828.00	213.37
828.32	213.29
828.64	213.25
828.95	213.43
829.27	213.34
829.58	213.32
829.90	213.31
830.22	213.31
830.53	213.18
830.85	213.15
831.17	213.04
831.48	213.03
831.80	212.95
832.11	212.93
832.43	212.84
832.75	212.89
833.06	213.00
833.38	212.90
833.69	212.84
834.01	212.81
834.32	212.84
834.64	212.76
834.96	212.72
835.27	212.65
835.59	212.50
835.90	212.46
836.22	212.46
836.53	212.41
836.85	212.39
837.16	212.72
837.48	212.70
837.79	212.85
838.11	212.81
838.42	212.85
838.74	212.91
839.05	212.87
839.37	212.79
839.68	212.61
840.00	212.60
840.31	212.67
840.63	212.65
840.94	212.63
841.26	212.61
841.57	212.59
841.88	212.67
842.20	212.61
842.51	212.51
842.83	212.55
843.14	212.86
843.46	212.81
843.77	212.60
844.08	212.60
844.40	212.56
844.71	212.53
845.03	212.51
845.34	212.51
845.65	212.51
845.97	212.54
846.28	212.54
846.60	212.53
846.91	212.43
847.22	212.40
847.54	212.48
847.85	212.45
848.16	212.46
848.48	212.41
848.79	212.59
849.10	212.72
849.42	212.68
849.73	212.37
850.04	212.34
850.36	212.23
850.67	212.30
850.98	212.22
851.30	212.24
851.61	212.25
851.92	212.21
852.23	212.28
852.55	212.25
852.86	212.26
853.17	212.28
853.49	212.41
853.80	212.53
854.11	212.48
854.42	212.60
854.74	212.56
855.05	212.59
855.36	212.38
855.67	212.28
855.99	212.22
856.30	212.56
856.61	212.58
856.92	212.63
857.23	212.60
857.55	212.58
857.86	212.55
858.17	212.52
858.48	212.49
858.79	212.46
859.11	212.50
859.42	212.46
859.73	212.47
860.04	212.43
860.35	212.34
860.66	212.23
860.98	212.15
861.29	212.20
861.60	212.09
861.91	212.12
862.22	212.12
862.53	212.11
862.84	211.77
863.16	211.87
863.47	211.77
863.78	211.77
864.09	211.88
864.40	211.94
864.71	211.99
865.02	211.93
865.33	211.92
865.64	211.90
865.95	211.93
866.27	212.11
866.58	212.06
866.89	212.00
867.20	212.06
867.51	212.00
867.82	212.00
868.13	212.12
868.44	212.03
868.75	212.06
869.06	212.03
869.37	212.07
869.68	211.95
869.99	212.02
870.30	212.01
870.61	211.99
870.92	211.93
871.23	211.91
871.54	212.06
871.85	212.07
872.16	212.12
872.47	212.06
872.78	211.80
873.09	211.85
873.40	211.92
873.71	211.85
874.02	211.87
874.33	211.85
874.64	211.75
874.95	211.91
875.26	211.81
875.56	211.85
875.87	211.80
876.18	211.80
876.49	212.13
876.80	212.10
877.11	211.98
877.42	212.00
877.73	211.96
878.04	211.85
878.35	211.84
878.66	211.77
878.96	211.72
879.27	211.78
879.58	211.75
879.89	211.64
880.20	211.85
880.51	211.82
880.82	211.69
881.12	211.76
881.43	211.66
881.74	211.70
882.05	211.65
882.36	211.69
882.67	211.67
882.97	211.25
883.28	211.25
883.59	211.26
883.90	211.25
884.21	211.39
884.51	211.38
884.82	211.34
885.13	211.37
885.44	211.38
885.74	211.40
886.05	211.42
886.36	211.52
886.67	211.35
886.98	211.55
887.28	211.74
887.59	211.72
887.90	211.72
888.20	211.66
888.51	211.75
888.82	211.65
889.13	211.76
889.43	212.12
889.74	212.04
890.05	212.02
890.35	212.02
890.66	211.86
890.97	211.85
891.28	211.77
891.58	211.80
891.89	211.82
892.20	211.77
892.50	211.67
892.81	211.62
893.12	211.61
893.42	211.44
893.73	211.35
894.04	211.33
894.34	211.33
894.65	211.37
894.95	211.29
895.26	211.35
895.57	211.43
895.87	211.05
896.18	211.18
896.48	211.20
896.79	211.20
897.10	211.23
897.40	211.26
897.71	211.32
898.01	211.30
898.32	211.34
898.63	211.35
898.93	211.37
899.24	211.37
899.54	211.38
899.85	211.39
900.15	211.43
900.46	211.49
900.76	211.52
901.07	211.47
901.38	211.48
901.68	211.53
901.99	211.39
902.29	211.45
902.60	211.35
902.90	211.31
903.21	211.33
903.51	211.29
903.82	211.34
904.12	211.33
904.43	211.28
904.73	211.26
905.03	211.27
905.34	211.65
905.64	211.61
905.95	211.60
906.25	211.55
906.56	211.54
906.86	211.45
907.17	211.49
907.47	211.53
907.77	211.51
908.08	211.40
908.38	211.42
908.69	211.44
908.99	211.50
909.30	211.60
909.60	211.53
909.90	211.55
910.21	211.48
910.51	211.48
910.81	211.51
911.12	211.53
911.42	211.53
911.73	211.11
912.03	211.15
912.33	211.25
912.64	211.28
912.94	211.28
913.24	211.28
913.55	211.17
913.85	211.12
914.15	211.26
914.46	211.30
914.76	211.28
915.06	211.26
915.37	211.23
915.67	211.13
915.97	211.19
916.27	211.15
916.58	211.15
916.88	211.14
917.18	211.16
917.49	211.40
917.79	211.35
918.09	211.45
918.39	211.56
918.70	211.49
919.00	211.56
919.30	211.69
919.60	211.73
919.91	211.72
920.21	211.81
920.51	211.70
920.81	211.68
921.12	211.75
921.42	211.75
921.72	211.77
922.02	211.83
922.32	211.93
922.63	211.88
922.93	212.04
923.23	212.04
923.53	211.97
923.83	211.79
924.13	211.87
924.44	211.87
924.74	211.90
925.04	211.97
925.34	211.89
925.64	211.73
925.94	211.68
926.24	211.92
926.55	211.86
926.85	211.92
927.15	211.98
927.45	211.94
927.75	211.90
928.05	211.87
928.35	211.91
928.65	211.95
928.95	212.11
929.26	211.93
929.56	211.99
929.86	212.07
930.16	212.01
930.46	211.94
930.76	211.88
931.06	211.75
931.36	211.65
931.66	211.75
931.96	211.75
932.26	211.85
932.56	211.72
932.86	211.71
933.16	211.67
933.46	211.63
933.76	211.61
934.06	211.75
934.36	211.91
934.66	211.87
934.96	211.79
935.26	211.77
935.56	211.81
935.86	211.70
936.16	211.65
936.46	211.60
936.76	211.70
937.06	211.72
937.36	211.70
937.66	211.79
937.96	211.65
938.26	211.61
938.56	211.53
938.86	211.50
939.16	211.67
939.46	211.65
939.76	211.65
940.06	211.67
940.35	211.54
940.65	211.35
940.95	211.39
941.25	211.29
941.55	211.29
941.85	211.25
942.15	211.41
942.45	211.48
942.75	211.48
943.04	211.42
943.34	211.45
943.64	211.43
943.94	211.35
944.24	211.49
944.54	211.51
944.84	211.46
945.13	211.41
945.43	211.24
945.73	211.32
946.03	211.25
946.33	211.16
946.62	211.10
946.92	211.07
947.22	211.10
947.52	211.14
947.82	211.12
948.11	211.11
948.41	210.96
948.71	210.91
949.01	210.94
949.31	210.82
949.60	210.80
949.90	210.89
950.20	210.89
950.50	210.81
950.79	210.79
951.09	210.92
951.39	210.93
951.69	210.87
951.98	210.90
952.28	210.97
952.58	211.01
952.87	211.09
953.17	211.14
953.47	211.03
953.76	211.03
954.06	211.00
954.36	210.95
954.66	211.00
954.95	211.15
955.25	211.21
955.55	211.30
955.84	211.30
956.14	211.32
956.44	211.30
956.73	211.26
957.03	211.33
957.32	211.27
957.62	211.30
957.92	211.48
958.21	211.36
958.51	211.75
958.81	211.80
959.10	211.79
959.40	211.86
959.69	211.90
959.99	211.93
960.29	211.88
960.58	211.91
960.88	212.03
961.17	211.92
961.47	211.92
961.76	211.92
962.06	211.91
962.36	211.89
962.65	211.93
962.95	211.96
963.24	211.91
963.54	211.95
963.83	211.90
964.13	211.86
964.42	211.83
964.72	211.53
965.01	211.55
965.31	211.53
965.60	211.46
965.90	211.67
966.19	211.64
966.49	211.69
966.78	211.64
967.08	211.61
967.37	211.57
967.67	211.46
967.96	211.50
968.26	211.53
968.55	211.52
968.85	211.52
969.14	211.50
969.43	211.50
969.73	211.44
970.02	211.42
970.32	211.40
970.61	211.44
970.91	211.37
971.20	211.34
971.49	211.29
971.79	211.27
972.08	211.05
972.38	211.05
972.67	211.03
972.96	211.13
973.26	211.05
973.55	211.17
973.85	211.18
974.14	211.16
974.43	211.15
974.73	211.03
975.02	210.98
975.31	210.96
975.61	210.89
975.90	210.88
976.19	210.81
976.49	210.83
976.78	210.84
977.07	210.83
977.37	210.83
977.66	210.80
977.95	210.84
978.24	210.85
978.54	210.90
978.83	210.83
979.12	210.78
979.42	210.77
979.71	210.64
980.00	210.67
980.29	210.69
980.59	210.64
980.88	210.81
981.17	210.83
981.46	210.89
981.76	210.96
982.05	211.05
982.34	211.08
982.63	211.06
982.93	211.03
983.22	211.06
983.51	211.05
983.80	211.23
984.09	211.20
984.39	211.17
984.68	211.15
984.97	211.25
985.26	211.24
985.55	211.27
985.85	211.22
986.14	211.26
986.43	211.30
986.72	211.24
987.01	211.15
987.30	211.12
987.59	211.04
987.89	211.00
988.18	210.88
988.47	210.87
988.76	210.84
989.05	210.82
989.34	210.76
989.63	210.81
989.92	210.78
990.22	210.75
990.51	210.77
990.80	210.78
991.09	210.71
991.38	210.77
991.67	210.79
991.96	210.76
992.25	210.72
992.54	210.64
992.83	210.65
993.12	210.66
993.41	210.75
993.70	210.90
993.99	210.96
994.28	211.05
994.58	211.10
994.87	211.06
995.16	211.08
995.45	211.09
995.74	211.07
996.03	211.09
996.32	211.15
996.61	211.24
996.90	211.16
997.19	211.19
997.48	211.18
997.77	211.14
998.06	211.17
998.34	211.16
998.63	211.18
998.92	211.21
999.21	211.22
999.50	211.22
999.79	211.08
1000.08	211.01
1000.37	211.00
1000.66	210.95
1000.95	211.07
1001.24	211.10
1001.53	211.17
1001.82	211.11
1002.11	211.01
1002.40	211.01
1002.68	211.09
1002.97	211.32
1003.26	211.29
1003.55	211.29
1003.84	211.26
1004.13	211.40
1004.42	211.44
1004.71	211.41
1004.99	211.37
1005.28	211.47
1005.57	211.43
1005.86	211.47
1006.15	211.52
1006.44	211.44
1006.72	211.52
1007.01	211.47
1007.30	211.42
1007.59	211.32
1007.88	211.36
1008.17	211.41
1008.45	211.40
1008.74	211.20
1009.03	211.10
1009.32	211.08
1009.60	211.00
1009.89	210.96
1010.18	210.83
1010.47	210.77
1010.76	210.77
1011.04	210.78
1011.33	210.78
1011.62	210.83
1011.91	210.88
1012.19	210.94
1012.48	211.01
1012.77	211.04
1013.05	211.21
1013.34	211.29
1013.63	211.27
1013.92	211.25
1014.20	211.19
1014.49	211.18
1014.78	211.28
1015.06	211.14
1015.35	211.18
1015.64	211.31
1015.92	211.36
1016.21	211.36
1016.50	211.36
1016.78	211.43
1017.07	211.49
1017.36	211.42
1017.64	211.32
1017.93	211.30
1018.22	211.29
1018.50	211.26
1018.79	211.21
1019.08	211.00
1019.36	211.02
1019.65	211.06
1019.93	211.14
1020.22	211.24
1020.51	211.51
1020.79	211.38
1021.08	211.75
1021.36	210.65
1021.65	210.55
1021.94	210.75
1022.22	212.75
1022.51	210.70
1022.79	212.45
1023.08	212.25
1023.36	217.00
1023.65	209.30
>>>>>End Processed Spectral Data<<<<<
