SpectraSuite Data File
++++++++++++++++++++++++++++++++++++
Date: Mon Feb 25 16:56:29 EST 2013
User: group
Dark Spectrum Present: No
Reference Spectrum Present: No
Number of Sampled Component Spectra: 1
Spectrometers: USB2E7196
Integration Time (usec): 104000 (USB2E7196)
Spectra Averaged: 20 (USB2E7196)
Boxcar Smoothing: 10 (USB2E7196)
Correct for Electrical Dark: No (USB2E7196)
Strobe/Lamp Enabled: No (USB2E7196)
Correct for Detector Non-linearity: No (USB2E7196)
Correct for Stray Light: No (USB2E7196)
Number of Pixels in Processed Spectrum: 2048
>>>>>Begin Processed Spectral Data<<<<<
339.09	0.00
339.48	198.30
339.86	198.90
340.24	201.25
340.63	203.15
341.01	208.25
341.39	205.90
341.78	207.75
342.16	207.85
342.54	208.20
342.93	197.62
343.31	207.57
343.69	208.06
344.07	208.51
344.46	208.94
344.84	209.28
345.22	209.34
345.60	209.59
345.99	209.71
346.37	209.89
346.75	210.00
347.13	210.11
347.52	210.21
347.90	210.39
348.28	210.34
348.66	210.47
349.05	210.40
349.43	210.45
349.81	210.57
350.19	210.65
350.57	210.65
350.96	210.81
351.34	210.97
351.72	211.09
352.10	211.25
352.48	211.31
352.87	211.40
353.25	211.51
353.63	211.53
354.01	211.65
354.39	211.70
354.77	211.81
355.15	211.95
355.54	211.96
355.92	211.96
356.30	212.08
356.68	212.40
357.06	212.55
357.44	212.57
357.82	212.62
358.20	212.75
358.58	212.91
358.97	212.96
359.35	213.10
359.73	213.24
360.11	213.36
360.49	213.51
360.87	213.60
361.25	213.76
361.63	213.99
362.01	214.03
362.39	214.08
362.77	214.15
363.15	214.21
363.53	214.25
363.91	214.32
364.29	214.41
364.67	214.07
365.05	214.08
365.43	214.25
365.81	214.35
366.19	214.54
366.57	214.67
366.95	214.69
367.33	214.65
367.71	214.68
368.09	214.74
368.47	214.78
368.85	214.78
369.23	214.78
369.61	214.69
369.99	214.80
370.37	214.85
370.75	215.05
371.13	214.99
371.51	214.98
371.89	214.98
372.27	215.02
372.65	215.12
373.03	215.15
373.41	215.09
373.78	215.04
374.16	214.84
374.54	214.76
374.92	214.63
375.30	214.60
375.68	214.49
376.06	214.43
376.44	214.31
376.82	214.28
377.19	214.21
377.57	214.16
377.95	213.94
378.33	213.90
378.71	213.63
379.09	213.58
379.47	213.59
379.84	213.47
380.22	213.34
380.60	213.19
380.98	213.11
381.36	213.03
381.73	212.93
382.11	212.94
382.49	212.91
382.87	212.89
383.25	212.86
383.62	213.27
384.00	213.16
384.38	213.11
384.76	213.19
385.13	213.27
385.51	213.22
385.89	213.24
386.27	213.12
386.64	213.10
387.02	213.09
387.40	213.06
387.78	213.06
388.15	213.08
388.53	213.05
388.91	213.01
389.29	212.90
389.66	212.95
390.04	212.89
390.42	212.86
390.79	212.82
391.17	212.77
391.55	212.40
391.92	212.41
392.30	212.45
392.68	212.31
393.05	212.30
393.43	212.28
393.81	212.27
394.18	212.23
394.56	212.21
394.94	212.21
395.31	212.19
395.69	212.32
396.06	212.32
396.44	212.38
396.82	212.34
397.19	212.67
397.57	212.68
397.95	212.77
398.32	212.74
398.70	212.85
399.07	213.05
399.45	213.07
399.82	213.14
400.20	213.17
400.58	213.27
400.95	213.21
401.33	213.40
401.70	213.82
402.08	214.02
402.45	214.21
402.83	214.45
403.20	214.64
403.58	214.75
403.95	215.03
404.33	215.26
404.71	215.50
405.08	215.87
405.46	216.11
405.83	216.44
406.21	216.72
406.58	217.10
406.96	217.35
407.33	217.78
407.70	218.26
408.08	219.00
408.45	219.54
408.83	220.20
409.20	220.77
409.58	221.20
409.95	222.02
410.33	222.76
410.70	223.47
411.08	224.37
411.45	225.38
411.82	226.40
412.20	227.54
412.57	229.00
412.95	229.94
413.32	231.34
413.69	232.70
414.07	234.24
414.44	235.87
414.82	237.69
415.19	239.60
415.56	241.56
415.94	243.48
416.31	245.90
416.68	248.31
417.06	251.00
417.43	253.60
417.81	256.47
418.18	259.66
418.55	262.99
418.93	266.44
419.30	269.99
419.67	273.73
420.04	277.66
420.42	281.71
420.79	286.58
421.16	291.42
421.54	296.50
421.91	301.71
422.28	307.17
422.66	312.91
423.03	318.66
423.40	324.64
423.77	331.14
424.15	337.58
424.52	344.26
424.89	351.55
425.26	358.80
425.64	365.72
426.01	373.21
426.38	381.17
426.75	389.19
427.13	397.49
427.50	406.35
427.87	415.46
428.24	424.66
428.61	433.40
428.99	442.99
429.36	453.56
429.73	464.03
430.10	474.43
430.47	484.96
430.85	496.01
431.22	507.67
431.59	519.93
431.96	531.75
432.33	545.01
432.70	557.90
433.08	572.91
433.45	587.17
433.82	601.30
434.19	617.10
434.56	632.67
434.93	647.80
435.30	662.91
435.68	679.66
436.05	696.33
436.42	713.06
436.79	728.36
437.16	744.85
437.53	762.05
437.90	779.35
438.27	796.50
438.64	814.32
439.01	831.26
439.38	846.55
439.75	861.20
440.13	877.81
440.50	893.53
440.87	906.67
441.24	920.13
441.61	935.07
441.98	946.59
442.35	959.87
442.72	972.95
443.09	985.57
443.46	993.60
443.83	999.56
444.20	1004.77
444.57	1012.10
444.94	1016.16
445.31	1020.52
445.68	1024.40
446.05	1026.90
446.42	1026.67
446.79	1025.68
447.16	1024.52
447.53	1024.48
447.90	1019.23
448.27	1014.21
448.64	1006.29
449.01	1001.14
449.37	990.94
449.74	980.96
450.11	968.92
450.48	956.05
450.85	942.61
451.22	931.32
451.59	920.17
451.96	909.68
452.33	895.22
452.70	882.20
453.07	866.64
453.43	850.86
453.80	835.63
454.17	820.64
454.54	806.81
454.91	791.78
455.28	776.80
455.65	763.26
456.02	749.31
456.38	737.87
456.75	723.16
457.12	711.03
457.49	698.85
457.86	686.96
458.23	676.64
458.59	665.53
458.96	654.28
459.33	644.38
459.70	634.48
460.07	626.53
460.43	617.45
460.80	608.73
461.17	601.01
461.54	593.00
461.91	585.54
462.27	577.62
462.64	571.13
463.01	563.89
463.38	556.86
463.74	549.95
464.11	543.75
464.48	538.54
464.85	532.65
465.21	528.31
465.58	523.55
465.95	517.86
466.32	513.15
466.68	508.50
467.05	503.85
467.42	499.07
467.78	494.15
468.15	489.38
468.52	485.92
468.88	481.54
469.25	477.48
469.62	474.28
469.98	470.90
470.35	467.55
470.72	464.36
471.08	460.99
471.45	458.13
471.82	455.11
472.18	451.78
472.55	449.52
472.92	446.48
473.28	444.06
473.65	441.66
474.02	439.20
474.38	437.34
474.75	435.73
475.11	433.98
475.48	432.63
475.85	431.55
476.21	430.23
476.58	429.12
476.94	428.33
477.31	427.37
477.67	426.51
478.04	425.97
478.41	425.55
478.77	425.44
479.14	425.01
479.50	425.08
479.87	425.20
480.23	425.35
480.60	425.55
480.96	425.70
481.33	426.39
481.69	427.19
482.06	427.52
482.42	427.85
482.79	428.39
483.15	429.23
483.52	430.43
483.88	431.55
484.25	432.69
484.61	433.96
484.98	435.20
485.34	436.88
485.71	438.64
486.07	440.50
486.44	442.16
486.80	444.25
487.17	446.22
487.53	448.71
487.90	451.22
488.26	454.06
488.62	456.92
488.99	459.61
489.35	462.37
489.72	465.72
490.08	469.18
490.44	472.68
490.81	476.34
491.17	479.77
491.54	483.70
491.90	487.64
492.26	491.89
492.63	496.42
492.99	500.88
493.36	505.46
493.72	510.56
494.08	515.71
494.45	521.17
494.81	526.99
495.17	532.48
495.54	538.35
495.90	544.25
496.26	550.45
496.63	556.81
496.99	563.38
497.35	570.09
497.72	577.00
498.08	584.04
498.44	591.19
498.80	598.75
499.17	606.50
499.53	614.33
499.89	622.28
500.26	630.15
500.62	637.95
500.98	646.26
501.34	654.42
501.71	662.89
502.07	671.27
502.43	679.73
502.79	688.25
503.16	697.02
503.52	705.65
503.88	714.45
504.24	723.17
504.60	731.99
504.97	740.95
505.33	749.80
505.69	759.54
506.05	768.91
506.41	778.11
506.78	786.90
507.14	795.86
507.50	804.80
507.86	813.69
508.22	823.11
508.59	831.98
508.95	840.98
509.31	849.91
509.67	858.73
510.03	867.58
510.39	876.80
510.75	885.52
511.12	894.48
511.48	903.16
511.84	912.16
512.20	920.90
512.56	929.72
512.92	938.70
513.28	946.83
513.64	955.14
514.00	963.17
514.37	971.39
514.73	979.60
515.09	987.84
515.45	995.90
515.81	1003.65
516.17	1011.54
516.53	1019.11
516.89	1026.76
517.25	1034.34
517.61	1041.54
517.97	1048.59
518.33	1055.30
518.69	1062.08
519.05	1068.94
519.41	1075.66
519.77	1082.39
520.13	1088.51
520.49	1094.17
520.85	1100.32
521.21	1106.56
521.57	1112.80
521.93	1118.28
522.29	1124.42
522.65	1130.09
523.01	1135.82
523.37	1140.95
523.73	1146.23
524.09	1151.26
524.45	1156.38
524.81	1161.21
525.17	1166.54
525.53	1171.41
525.89	1176.56
526.25	1181.24
526.61	1185.45
526.97	1189.59
527.33	1194.03
527.68	1198.69
528.04	1203.13
528.40	1206.84
528.76	1210.47
529.12	1214.59
529.48	1219.22
529.84	1222.87
530.20	1226.48
530.56	1230.18
530.91	1234.45
531.27	1238.30
531.63	1241.95
531.99	1245.35
532.35	1248.85
532.71	1251.73
533.07	1255.52
533.42	1258.78
533.78	1262.38
534.14	1265.92
534.50	1268.74
534.86	1271.92
535.21	1274.12
535.57	1277.23
535.93	1280.15
536.29	1283.08
536.65	1285.49
537.00	1287.69
537.36	1289.89
537.72	1292.16
538.08	1294.34
538.44	1296.25
538.79	1298.43
539.15	1301.10
539.51	1303.55
539.87	1306.13
540.22	1308.58
540.58	1311.00
540.94	1313.28
541.29	1314.96
541.65	1316.28
542.01	1318.35
542.37	1320.10
542.72	1322.16
543.08	1323.92
543.44	1326.14
543.79	1327.20
544.15	1328.59
544.51	1330.22
544.87	1332.33
545.22	1333.64
545.58	1334.96
545.94	1336.23
546.29	1336.94
546.65	1337.30
547.01	1337.61
547.36	1338.05
547.72	1338.57
548.07	1338.51
548.43	1338.67
548.79	1338.68
549.14	1339.30
549.50	1339.80
549.86	1339.68
550.21	1339.86
550.57	1340.02
550.92	1339.21
551.28	1339.52
551.64	1339.63
551.99	1339.86
552.35	1339.33
552.70	1339.48
553.06	1339.65
553.41	1339.29
553.77	1339.44
554.13	1339.53
554.48	1340.13
554.84	1340.31
555.19	1340.46
555.55	1340.56
555.90	1340.11
556.26	1340.07
556.61	1339.75
556.97	1339.17
557.32	1339.13
557.68	1338.67
558.03	1337.76
558.39	1337.44
558.74	1337.04
559.10	1336.53
559.45	1336.04
559.81	1335.84
560.16	1334.96
560.52	1334.25
560.87	1333.87
561.23	1332.91
561.58	1332.45
561.94	1331.24
562.29	1329.90
562.64	1328.92
563.00	1327.84
563.35	1327.25
563.71	1327.03
564.06	1326.44
564.42	1326.25
564.77	1325.92
565.12	1325.60
565.48	1325.55
565.83	1325.25
566.19	1325.10
566.54	1324.20
566.89	1323.17
567.25	1322.61
567.60	1322.25
567.96	1321.71
568.31	1321.25
568.66	1320.76
569.02	1319.61
569.37	1318.41
569.72	1317.75
570.08	1316.57
570.43	1315.30
570.78	1314.06
571.14	1312.22
571.49	1310.57
571.84	1308.82
572.20	1306.45
572.55	1304.60
572.90	1302.11
573.26	1299.99
573.61	1297.33
573.96	1295.27
574.31	1292.75
574.67	1289.77
575.02	1286.49
575.37	1283.50
575.72	1279.97
576.08	1277.07
576.43	1273.93
576.78	1271.05
577.13	1268.20
577.49	1265.34
577.84	1262.41
578.19	1259.62
578.54	1257.31
578.90	1254.88
579.25	1251.83
579.60	1248.62
579.95	1245.08
580.30	1242.40
580.66	1239.33
581.01	1236.08
581.36	1232.60
581.71	1229.23
582.06	1225.87
582.42	1222.88
582.77	1219.13
583.12	1215.91
583.47	1212.45
583.82	1209.25
584.17	1205.65
584.53	1202.27
584.88	1198.53
585.23	1195.07
585.58	1191.34
585.93	1187.23
586.28	1183.44
586.63	1180.01
586.98	1176.70
587.34	1173.58
587.69	1169.65
588.04	1165.84
588.39	1162.50
588.74	1158.78
589.09	1155.36
589.44	1151.53
589.79	1148.28
590.14	1144.93
590.49	1141.27
590.84	1137.40
591.19	1134.18
591.54	1130.63
591.89	1126.28
592.25	1122.72
592.60	1118.73
592.95	1114.60
593.30	1110.02
593.65	1105.43
594.00	1100.78
594.35	1097.63
594.70	1093.18
595.05	1089.27
595.40	1085.12
595.75	1080.57
596.10	1076.76
596.45	1072.82
596.80	1069.35
597.15	1065.44
597.50	1061.00
597.85	1057.18
598.19	1053.07
598.54	1048.66
598.89	1044.64
599.24	1041.32
599.59	1037.18
599.94	1033.30
600.29	1029.52
600.64	1025.84
600.99	1022.00
601.34	1018.34
601.69	1013.14
602.04	1009.03
602.39	1004.64
602.74	1000.87
603.08	997.33
603.43	993.92
603.78	989.84
604.13	985.64
604.48	981.60
604.83	978.29
605.18	974.76
605.53	971.06
605.87	966.93
606.22	963.05
606.57	958.58
606.92	954.38
607.27	950.14
607.62	946.04
607.96	942.24
608.31	938.74
608.66	934.75
609.01	930.81
609.36	926.79
609.70	922.87
610.05	918.44
610.40	914.25
610.75	909.47
611.10	905.38
611.44	900.70
611.79	896.03
612.14	891.60
612.49	886.72
612.83	882.22
613.18	877.92
613.53	873.63
613.88	869.05
614.22	864.94
614.57	860.43
614.92	856.15
615.27	851.70
615.61	846.97
615.96	842.76
616.31	838.57
616.65	834.75
617.00	830.66
617.35	826.62
617.70	822.26
618.04	817.92
618.39	813.41
618.74	809.42
619.08	805.36
619.43	801.32
619.78	797.53
620.12	793.64
620.47	789.59
620.82	785.25
621.16	781.14
621.51	777.10
621.85	773.19
622.20	769.10
622.55	765.01
622.89	760.90
623.24	756.74
623.59	752.75
623.93	748.54
624.28	744.46
624.62	740.89
624.97	736.81
625.32	732.85
625.66	729.14
626.01	725.20
626.35	721.31
626.70	717.19
627.04	713.25
627.39	709.38
627.73	705.74
628.08	702.44
628.43	698.91
628.77	695.17
629.12	691.32
629.46	687.73
629.81	684.24
630.15	680.81
630.50	677.25
630.84	673.49
631.19	670.08
631.53	666.66
631.88	662.65
632.22	659.27
632.57	656.25
632.91	652.77
633.26	649.50
633.60	646.09
633.95	642.98
634.29	639.42
634.64	636.23
634.98	632.74
635.32	629.49
635.67	626.45
636.01	623.18
636.36	620.02
636.70	617.08
637.05	614.10
637.39	610.98
637.73	608.13
638.08	605.65
638.42	602.75
638.77	599.92
639.11	597.24
639.45	594.47
639.80	591.27
640.14	588.28
640.49	585.33
640.83	582.36
641.17	579.39
641.52	576.53
641.86	573.48
642.20	570.78
642.55	567.56
642.89	564.51
643.23	561.68
643.58	559.23
643.92	556.24
644.26	553.24
644.61	550.54
644.95	547.43
645.29	544.26
645.64	541.23
645.98	538.44
646.32	535.44
646.66	532.33
647.01	529.46
647.35	526.87
647.69	524.09
648.04	521.61
648.38	518.84
648.72	516.25
649.06	513.53
649.41	510.85
649.75	508.28
650.09	505.81
650.43	503.10
650.78	500.16
651.12	497.38
651.46	494.80
651.80	492.30
652.14	490.00
652.49	487.62
652.83	485.13
653.17	482.37
653.51	479.91
653.85	477.79
654.20	475.51
654.54	472.95
654.88	470.50
655.22	467.97
655.56	465.35
655.90	462.85
656.25	460.46
656.59	457.96
656.93	455.61
657.27	453.23
657.61	450.70
657.95	448.45
658.29	446.23
658.64	444.18
658.98	441.75
659.32	439.26
659.66	437.00
660.00	434.77
660.34	432.59
660.68	430.31
661.02	427.91
661.36	425.67
661.70	423.62
662.05	421.52
662.39	419.59
662.73	417.82
663.07	415.96
663.41	414.07
663.75	412.09
664.09	410.07
664.43	408.00
664.77	406.30
665.11	404.44
665.45	402.66
665.79	400.70
666.13	399.04
666.47	397.27
666.81	395.44
667.15	393.60
667.49	391.89
667.83	390.31
668.17	388.64
668.51	387.08
668.85	385.46
669.19	384.10
669.53	382.25
669.87	380.52
670.21	378.91
670.55	377.21
670.89	375.87
671.23	374.37
671.57	372.90
671.91	371.31
672.25	369.71
672.58	368.14
672.92	366.52
673.26	365.00
673.60	363.53
673.94	362.08
674.28	360.66
674.62	359.32
674.96	357.97
675.30	356.60
675.64	355.19
675.97	353.72
676.31	352.15
676.65	350.87
676.99	349.71
677.33	348.35
677.67	347.14
678.01	345.50
678.34	344.29
678.68	343.02
679.02	341.82
679.36	340.66
679.70	339.52
680.04	338.33
680.37	336.98
680.71	335.76
681.05	334.60
681.39	333.35
681.73	332.13
682.06	330.96
682.40	329.82
682.74	328.68
683.08	327.64
683.42	326.47
683.75	325.30
684.09	324.00
684.43	322.81
684.77	321.55
685.10	320.56
685.44	319.40
685.78	318.25
686.12	317.13
686.45	316.07
686.79	314.93
687.13	314.01
687.46	313.00
687.80	312.02
688.14	310.95
688.48	310.03
688.81	308.97
689.15	307.99
689.49	306.98
689.82	306.02
690.16	304.84
690.50	303.88
690.83	302.86
691.17	301.86
691.51	300.98
691.84	300.16
692.18	299.23
692.52	298.27
692.85	297.49
693.19	296.77
693.52	295.87
693.86	294.89
694.20	293.99
694.53	293.10
694.87	292.17
695.21	291.30
695.54	290.32
695.88	289.43
696.21	288.39
696.55	287.57
696.88	286.60
697.22	285.80
697.56	285.03
697.89	284.21
698.23	283.40
698.56	282.48
698.90	281.67
699.23	280.89
699.57	280.17
699.90	279.26
700.24	278.38
700.58	277.54
700.91	276.87
701.25	276.27
701.58	275.66
701.92	275.01
702.25	274.29
702.59	273.64
702.92	272.99
703.26	272.37
703.59	271.60
703.93	271.26
704.26	270.72
704.60	270.05
704.93	269.44
705.26	268.80
705.60	268.30
705.93	267.66
706.27	267.18
706.60	266.64
706.94	266.24
707.27	265.65
707.61	265.14
707.94	264.49
708.27	263.63
708.61	263.00
708.94	262.43
709.28	261.84
709.61	261.30
709.94	260.78
710.28	260.24
710.61	259.79
710.95	259.01
711.28	258.65
711.61	258.14
711.95	257.72
712.28	257.33
712.61	256.90
712.95	256.62
713.28	256.23
713.61	255.69
713.95	255.07
714.28	254.61
714.61	254.14
714.95	253.72
715.28	253.27
715.61	252.78
715.95	252.30
716.28	251.94
716.61	251.57
716.95	251.11
717.28	250.72
717.61	250.33
717.94	249.98
718.28	249.33
718.61	248.91
718.94	248.43
719.27	248.07
719.61	247.56
719.94	247.05
720.27	246.46
720.60	246.10
720.94	245.80
721.27	245.43
721.60	245.10
721.93	244.76
722.27	244.60
722.60	244.37
722.93	243.98
723.26	243.59
723.59	243.17
723.93	242.99
724.26	242.70
724.59	242.39
724.92	242.05
725.25	241.91
725.59	241.64
725.92	241.47
726.25	241.15
726.58	240.95
726.91	240.65
727.24	240.47
727.57	240.22
727.91	239.90
728.24	239.72
728.57	239.49
728.90	239.25
729.23	238.80
729.56	238.69
729.89	238.53
730.22	238.29
730.55	237.99
730.89	237.64
731.22	237.31
731.55	237.05
731.88	236.74
732.21	236.36
732.54	236.08
732.87	235.77
733.20	235.50
733.53	235.28
733.86	235.04
734.19	234.71
734.52	234.44
734.85	234.50
735.18	234.13
735.51	233.88
735.84	233.68
736.17	233.69
736.50	233.24
736.83	233.40
737.16	233.20
737.49	233.07
737.82	232.84
738.15	232.72
738.48	232.45
738.81	232.24
739.14	231.97
739.47	231.79
739.80	231.67
740.13	231.49
740.46	231.22
740.79	231.00
741.12	230.71
741.45	230.46
741.78	229.97
742.11	229.92
742.44	229.69
742.77	229.48
743.10	229.09
743.43	228.91
743.75	228.37
744.08	228.61
744.41	228.41
744.74	228.27
745.07	227.97
745.40	227.84
745.73	227.86
746.06	227.74
746.39	227.63
746.71	227.29
747.04	227.04
747.37	226.86
747.70	226.71
748.03	226.63
748.36	226.58
748.68	226.47
749.01	226.23
749.34	226.10
749.67	225.94
750.00	225.90
750.33	225.98
750.65	225.81
750.98	225.23
751.31	225.10
751.64	224.91
751.97	225.03
752.29	224.90
752.62	224.53
752.95	224.34
753.28	224.09
753.60	223.93
753.93	223.84
754.26	223.75
754.59	223.53
754.91	223.42
755.24	223.26
755.57	223.09
755.90	222.86
756.22	222.69
756.55	222.52
756.88	222.33
757.20	222.00
757.53	221.81
757.86	221.65
758.19	221.53
758.51	221.44
758.84	221.14
759.17	221.00
759.49	220.95
759.82	221.01
760.15	220.96
760.47	220.88
760.80	220.74
761.13	220.67
761.45	220.59
761.78	220.49
762.11	220.35
762.43	220.24
762.76	220.15
763.08	220.17
763.41	220.14
763.74	220.07
764.06	220.00
764.39	219.91
764.71	219.89
765.04	219.76
765.37	219.63
765.69	219.53
766.02	219.50
766.34	219.36
766.67	219.19
767.00	219.15
767.32	219.33
767.65	219.46
767.97	219.30
768.30	219.23
768.62	219.22
768.95	219.11
769.27	218.98
769.60	219.05
769.92	218.90
770.25	218.75
770.57	218.68
770.90	218.62
771.22	218.54
771.55	218.45
771.87	218.39
772.20	218.34
772.52	218.57
772.85	218.91
773.17	218.88
773.50	218.79
773.82	218.69
774.15	218.47
774.47	218.23
774.80	218.14
775.12	218.10
775.45	218.04
775.77	218.00
776.09	217.99
776.42	217.96
776.74	217.98
777.07	217.90
777.39	217.82
777.72	217.72
778.04	217.70
778.36	217.59
778.69	217.54
779.01	217.55
779.33	217.17
779.66	216.72
779.98	216.62
780.31	216.55
780.63	216.59
780.95	216.54
781.28	216.46
781.60	216.43
781.92	216.35
782.25	216.21
782.57	216.15
782.89	216.14
783.22	215.98
783.54	215.87
783.86	215.85
784.19	215.80
784.51	215.90
784.83	215.86
785.16	215.88
785.48	215.91
785.80	215.83
786.12	215.81
786.45	215.71
786.77	215.75
787.09	215.67
787.42	215.49
787.74	215.40
788.06	215.44
788.38	215.38
788.71	215.31
789.03	215.29
789.35	215.30
789.67	215.18
789.99	215.14
790.32	215.11
790.64	215.17
790.96	215.39
791.28	215.20
791.61	215.09
791.93	215.01
792.25	214.91
792.57	215.14
792.89	215.07
793.21	215.07
793.54	214.90
793.86	214.90
794.18	214.89
794.50	214.86
794.82	214.78
795.14	214.81
795.47	214.84
795.79	214.80
796.11	214.71
796.43	214.56
796.75	214.51
797.07	214.39
797.39	214.31
797.71	214.00
798.04	213.98
798.36	213.96
798.68	213.94
799.00	213.93
799.32	213.66
799.64	213.72
799.96	213.64
800.28	213.74
800.60	213.71
800.92	213.72
801.24	213.69
801.56	213.74
801.89	213.69
802.21	213.73
802.53	213.64
802.85	213.73
803.17	213.92
803.49	213.87
803.81	213.87
804.13	213.82
804.45	213.80
804.77	213.77
805.09	213.80
805.41	213.71
805.73	213.62
806.05	213.56
806.37	213.53
806.69	213.49
807.01	213.46
807.33	213.49
807.65	213.37
807.97	213.45
808.28	213.36
808.60	213.32
808.92	213.25
809.24	213.45
809.56	213.39
809.88	213.28
810.20	213.28
810.52	213.35
810.84	213.25
811.16	213.17
811.48	213.10
811.80	213.14
812.12	213.13
812.43	213.17
812.75	213.13
813.07	213.08
813.39	213.08
813.71	212.98
814.03	212.91
814.35	212.90
814.67	212.80
814.98	212.79
815.30	212.73
815.62	212.68
815.94	212.49
816.26	212.44
816.58	212.39
816.89	212.36
817.21	212.24
817.53	212.29
817.85	212.36
818.17	212.32
818.48	212.21
818.80	212.29
819.12	212.21
819.44	212.21
819.76	212.13
820.07	212.10
820.39	212.12
820.71	212.12
821.03	212.13
821.34	212.06
821.66	212.13
821.98	212.17
822.30	212.10
822.61	212.28
822.93	212.26
823.25	212.19
823.57	212.22
823.88	212.29
824.20	212.30
824.52	212.35
824.83	212.37
825.15	212.34
825.47	212.29
825.79	212.30
826.10	212.18
826.42	212.20
826.74	212.27
827.05	212.20
827.37	212.20
827.69	212.13
828.00	212.14
828.32	212.05
828.64	211.99
828.95	212.17
829.27	212.09
829.58	212.10
829.90	212.20
830.22	212.23
830.53	212.13
830.85	212.08
831.17	211.96
831.48	211.90
831.80	211.88
832.11	211.81
832.43	211.80
832.75	211.90
833.06	212.19
833.38	212.04
833.69	212.10
834.01	212.08
834.32	212.06
834.64	212.11
834.96	212.07
835.27	212.09
835.59	211.96
835.90	211.85
836.22	211.82
836.53	211.72
836.85	211.60
837.16	211.93
837.48	211.93
837.79	212.05
838.11	212.08
838.42	212.15
838.74	212.20
839.05	212.18
839.37	212.10
839.68	211.76
840.00	211.74
840.31	211.74
840.63	211.75
840.94	211.78
841.26	211.69
841.57	211.73
841.88	211.80
842.20	211.75
842.51	211.68
842.83	211.69
843.14	211.95
843.46	212.00
843.77	211.87
844.08	211.86
844.40	211.72
844.71	211.73
845.03	211.61
845.34	211.63
845.65	211.61
845.97	211.65
846.28	211.70
846.60	211.78
846.91	211.80
847.22	211.81
847.54	211.87
847.85	211.92
848.16	211.95
848.48	211.83
848.79	211.94
849.10	212.00
849.42	212.02
849.73	211.75
850.04	211.71
850.36	211.54
850.67	211.60
850.98	211.62
851.30	211.64
851.61	211.70
851.92	211.71
852.23	211.85
852.55	211.89
852.86	211.91
853.17	211.89
853.49	211.92
853.80	211.93
854.11	211.98
854.42	212.03
854.74	211.87
855.05	211.93
855.36	211.77
855.67	211.77
855.99	211.82
856.30	212.24
856.61	212.27
856.92	212.30
857.23	212.25
857.55	212.22
857.86	212.23
858.17	212.23
858.48	212.13
858.79	212.02
859.11	211.98
859.42	211.94
859.73	211.94
860.04	211.87
860.35	211.78
860.66	211.67
860.98	211.63
861.29	211.72
861.60	211.66
861.91	211.76
862.22	211.70
862.53	211.59
862.84	211.24
863.16	211.38
863.47	211.30
863.78	211.30
864.09	211.32
864.40	211.33
864.71	211.34
865.02	211.44
865.33	211.42
865.64	211.42
865.95	211.45
866.27	211.69
866.58	211.70
866.89	211.72
867.20	211.70
867.51	211.69
867.82	211.67
868.13	211.75
868.44	211.58
868.75	211.64
869.06	211.66
869.37	211.60
869.68	211.39
869.99	211.58
870.30	211.62
870.61	211.64
870.92	211.55
871.23	211.60
871.54	211.64
871.85	211.70
872.16	211.71
872.47	211.67
872.78	211.40
873.09	211.45
873.40	211.46
873.71	211.43
874.02	211.45
874.33	211.52
874.64	211.52
874.95	211.68
875.26	211.60
875.56	211.60
875.87	211.61
876.18	211.65
876.49	211.88
876.80	211.72
877.11	211.70
877.42	211.68
877.73	211.62
878.04	211.51
878.35	211.47
878.66	211.49
878.96	211.48
879.27	211.54
879.58	211.45
879.89	211.35
880.20	211.54
880.51	211.51
880.82	211.45
881.12	211.46
881.43	211.39
881.74	211.36
882.05	211.37
882.36	211.39
882.67	211.43
882.97	211.04
883.28	211.11
883.59	211.14
883.90	211.15
884.21	211.14
884.51	211.14
884.82	211.10
885.13	211.07
885.44	211.06
885.74	211.03
886.05	211.01
886.36	211.08
886.67	210.88
886.98	211.03
887.28	211.08
887.59	211.02
887.90	211.06
888.20	211.11
888.51	211.18
888.82	211.12
889.13	211.07
889.43	211.44
889.74	211.43
890.05	211.35
890.35	211.37
890.66	211.37
890.97	211.39
891.28	211.35
891.58	211.37
891.89	211.33
892.20	211.30
892.50	211.31
892.81	211.26
893.12	211.22
893.42	211.05
893.73	211.00
894.04	211.01
894.34	211.00
894.65	211.00
894.95	210.96
895.26	210.95
895.57	211.14
895.87	210.75
896.18	210.79
896.48	210.83
896.79	210.88
897.10	210.93
897.40	210.88
897.71	210.93
898.01	210.85
898.32	210.95
898.63	210.96
898.93	211.04
899.24	211.10
899.54	211.15
899.85	211.19
900.15	211.18
900.46	211.15
900.76	211.19
901.07	211.13
901.38	211.11
901.68	211.19
901.99	211.04
902.29	211.05
902.60	211.01
902.90	210.96
903.21	210.97
903.51	210.95
903.82	211.06
904.12	211.06
904.43	211.10
904.73	211.06
905.03	211.10
905.34	211.37
905.64	211.27
905.95	211.28
906.25	211.24
906.56	211.31
906.86	211.37
907.17	211.38
907.47	211.49
907.77	211.47
908.08	211.44
908.38	211.41
908.69	211.47
908.99	211.55
909.30	211.57
909.60	211.52
909.90	211.59
910.21	211.49
910.51	211.46
910.81	211.56
911.12	211.61
911.42	211.59
911.73	211.25
912.03	211.34
912.33	211.44
912.64	211.47
912.94	211.35
913.24	211.24
913.55	211.22
913.85	211.14
914.15	211.16
914.46	211.15
914.76	211.14
915.06	211.10
915.37	211.06
915.67	211.07
915.97	211.06
916.27	210.98
916.58	211.01
916.88	211.03
917.18	210.96
917.49	211.17
917.79	211.21
918.09	211.27
918.39	211.33
918.70	211.27
919.00	211.23
919.30	211.45
919.60	211.45
919.91	211.36
920.21	211.40
920.51	211.36
920.81	211.37
921.12	211.43
921.42	211.49
921.72	211.47
922.02	211.54
922.32	211.65
922.63	211.66
922.93	211.80
923.23	211.76
923.53	211.74
923.83	211.50
924.13	211.53
924.44	211.50
924.74	211.55
925.04	211.64
925.34	211.62
925.64	211.40
925.94	211.38
926.24	211.61
926.55	211.56
926.85	211.63
927.15	211.60
927.45	211.59
927.75	211.55
928.05	211.58
928.35	211.51
928.65	211.55
928.95	211.60
929.26	211.50
929.56	211.61
929.86	211.61
930.16	211.66
930.46	211.59
930.76	211.59
931.06	211.46
931.36	211.39
931.66	211.52
931.96	211.64
932.26	211.73
932.56	211.57
932.86	211.64
933.16	211.68
933.46	211.62
933.76	211.54
934.06	211.63
934.36	211.83
934.66	211.83
934.96	211.77
935.26	211.69
935.56	211.73
935.86	211.69
936.16	211.65
936.46	211.52
936.76	211.50
937.06	211.46
937.36	211.56
937.66	211.50
937.96	211.46
938.26	211.38
938.56	211.30
938.86	211.36
939.16	211.45
939.46	211.43
939.76	211.51
940.06	211.59
940.35	211.44
940.65	211.16
940.95	211.16
941.25	211.06
941.55	211.07
941.85	211.00
942.15	210.98
942.45	211.04
942.75	211.09
943.04	211.12
943.34	211.23
943.64	211.07
943.94	211.03
944.24	211.00
944.54	211.05
944.84	211.05
945.13	210.98
945.43	211.01
945.73	210.94
946.03	210.91
946.33	210.83
946.62	210.92
946.92	210.98
947.22	211.04
947.52	211.11
947.82	211.07
948.11	211.12
948.41	211.08
948.71	211.03
949.01	211.09
949.31	211.04
949.60	211.01
949.90	211.09
950.20	211.08
950.50	211.04
950.79	210.99
951.09	211.06
951.39	211.09
951.69	210.94
951.98	211.09
952.28	211.07
952.58	211.15
952.87	211.13
953.17	211.19
953.47	211.11
953.76	211.18
954.06	211.16
954.36	211.10
954.66	211.10
954.95	211.14
955.25	211.14
955.55	211.22
955.84	211.14
956.14	211.21
956.44	211.31
956.73	211.26
957.03	211.26
957.32	211.22
957.62	211.13
957.92	211.23
958.21	211.11
958.51	211.55
958.81	211.53
959.10	211.57
959.40	211.62
959.69	211.60
959.99	211.59
960.29	211.62
960.58	211.63
960.88	211.77
961.17	211.78
961.47	211.77
961.76	211.71
962.06	211.77
962.36	211.73
962.65	211.69
962.95	211.77
963.24	211.71
963.54	211.75
963.83	211.80
964.13	211.76
964.42	211.69
964.72	211.33
965.01	211.38
965.31	211.30
965.60	211.23
965.90	211.44
966.19	211.28
966.49	211.26
966.78	211.26
967.08	211.28
967.37	211.26
967.67	211.24
967.96	211.29
968.26	211.32
968.55	211.33
968.85	211.28
969.14	211.26
969.43	211.33
969.73	211.33
970.02	211.25
970.32	211.17
970.61	211.20
970.91	211.15
971.20	211.08
971.49	211.01
971.79	211.07
972.08	210.88
972.38	211.00
972.67	211.02
972.96	211.10
973.26	211.07
973.55	211.14
973.85	211.15
974.14	211.13
974.43	211.12
974.73	211.11
975.02	211.13
975.31	211.13
975.61	211.12
975.90	211.04
976.19	211.05
976.49	211.13
976.78	211.18
977.07	211.21
977.37	211.28
977.66	211.42
977.95	211.34
978.24	211.32
978.54	211.40
978.83	211.34
979.12	211.28
979.42	211.22
979.71	211.19
980.00	211.15
980.29	211.19
980.59	211.18
980.88	211.28
981.17	211.26
981.46	211.22
981.76	211.19
982.05	211.41
982.34	211.46
982.63	211.44
982.93	211.41
983.22	211.50
983.51	211.50
983.80	211.52
984.09	211.54
984.39	211.53
984.68	211.42
984.97	211.47
985.26	211.46
985.55	211.52
985.85	211.45
986.14	211.53
986.43	211.51
986.72	211.38
987.01	211.23
987.30	211.24
987.59	211.31
987.89	211.38
988.18	211.22
988.47	211.26
988.76	211.23
989.05	211.30
989.34	211.23
989.63	211.30
989.92	211.26
990.22	211.20
990.51	211.35
990.80	211.30
991.09	211.33
991.38	211.39
991.67	211.29
991.96	211.27
992.25	211.29
992.54	211.19
992.83	211.26
993.12	211.28
993.41	211.35
993.70	211.53
993.99	211.55
994.28	211.61
994.58	211.63
994.87	211.58
995.16	211.52
995.45	211.47
995.74	211.35
996.03	211.32
996.32	211.40
996.61	211.31
996.90	211.35
997.19	211.31
997.48	211.33
997.77	211.30
998.06	211.31
998.34	211.24
998.63	211.28
998.92	211.24
999.21	211.34
999.50	211.31
999.79	211.12
1000.08	210.99
1000.37	210.93
1000.66	210.81
1000.95	210.93
1001.24	210.91
1001.53	210.92
1001.82	210.88
1002.11	210.80
1002.40	210.87
1002.68	210.93
1002.97	211.21
1003.26	211.18
1003.55	211.11
1003.84	211.17
1004.13	211.29
1004.42	211.25
1004.71	211.26
1004.99	211.25
1005.28	211.23
1005.57	211.23
1005.86	211.19
1006.15	211.21
1006.44	211.22
1006.72	211.30
1007.01	211.25
1007.30	211.24
1007.59	211.28
1007.88	211.27
1008.17	211.32
1008.45	211.17
1008.74	211.08
1009.03	210.86
1009.32	210.83
1009.60	210.85
1009.89	210.76
1010.18	210.65
1010.47	210.62
1010.76	210.63
1011.04	210.64
1011.33	210.71
1011.62	210.73
1011.91	210.82
1012.19	210.85
1012.48	210.88
1012.77	210.90
1013.05	211.00
1013.34	211.01
1013.63	210.94
1013.92	210.97
1014.20	211.00
1014.49	211.04
1014.78	211.04
1015.06	211.01
1015.35	211.07
1015.64	211.07
1015.92	211.11
1016.21	211.11
1016.50	211.17
1016.78	211.18
1017.07	211.17
1017.36	211.09
1017.64	211.00
1017.93	211.02
1018.22	211.04
1018.50	211.01
1018.79	210.97
1019.08	210.84
1019.36	210.93
1019.65	210.91
1019.93	211.00
1020.22	211.01
1020.51	211.21
1020.79	211.18
1021.08	211.15
1021.36	210.35
1021.65	210.80
1021.94	211.40
1022.22	212.15
1022.51	210.25
1022.79	212.05
1023.08	211.20
1023.36	215.50
1023.65	209.95
>>>>>End Processed Spectral Data<<<<<
