SpectraSuite Data File
++++++++++++++++++++++++++++++++++++
Date: Mon Feb 25 16:58:34 EST 2013
User: group
Dark Spectrum Present: No
Reference Spectrum Present: No
Number of Sampled Component Spectra: 1
Spectrometers: USB2E7196
Integration Time (usec): 104000 (USB2E7196)
Spectra Averaged: 20 (USB2E7196)
Boxcar Smoothing: 10 (USB2E7196)
Correct for Electrical Dark: No (USB2E7196)
Strobe/Lamp Enabled: No (USB2E7196)
Correct for Detector Non-linearity: No (USB2E7196)
Correct for Stray Light: No (USB2E7196)
Number of Pixels in Processed Spectrum: 2048
>>>>>Begin Processed Spectral Data<<<<<
339.09	0.00
339.48	197.75
339.86	199.45
340.24	199.75
340.63	202.05
341.01	209.20
341.39	206.85
341.78	207.15
342.16	208.80
342.54	208.60
342.93	197.97
343.31	207.94
343.69	208.54
344.07	209.03
344.46	209.58
344.84	209.97
345.22	210.03
345.60	210.29
345.99	210.47
346.37	210.59
346.75	210.70
347.13	210.83
347.52	210.87
347.90	211.05
348.28	211.10
348.66	211.25
349.05	211.21
349.43	211.30
349.81	211.40
350.19	211.36
350.57	211.45
350.96	211.40
351.34	211.54
351.72	211.60
352.10	211.68
352.48	211.66
352.87	211.75
353.25	211.78
353.63	211.75
354.01	211.82
354.39	211.87
354.77	211.87
355.15	212.10
355.54	212.10
355.92	212.03
356.30	212.14
356.68	212.37
357.06	212.45
357.44	212.42
357.82	212.48
358.20	212.69
358.58	212.71
358.97	212.86
359.35	212.98
359.73	213.09
360.11	213.19
360.49	213.34
360.87	213.40
361.25	213.58
361.63	213.73
362.01	213.76
362.39	213.75
362.77	213.89
363.15	213.88
363.53	214.01
363.91	213.98
364.29	214.05
364.67	213.79
365.05	213.78
365.43	213.91
365.81	213.99
366.19	214.01
366.57	214.22
366.95	214.24
367.33	214.14
367.71	214.20
368.09	214.22
368.47	214.16
368.85	214.16
369.23	214.22
369.61	214.12
369.99	214.33
370.37	214.43
370.75	214.55
371.13	214.40
371.51	214.25
371.89	214.36
372.27	214.35
372.65	214.36
373.03	214.35
373.41	214.23
373.78	214.12
374.16	213.95
374.54	213.79
374.92	213.66
375.30	213.66
375.68	213.49
376.06	213.52
376.44	213.50
376.82	213.49
377.19	213.37
377.57	213.30
377.95	213.00
378.33	212.89
378.71	212.71
379.09	212.74
379.47	212.77
379.84	212.66
380.22	212.59
380.60	212.51
380.98	212.46
381.36	212.42
381.73	212.38
382.11	212.46
382.49	212.45
382.87	212.43
383.25	212.38
383.62	212.81
384.00	212.64
384.38	212.66
384.76	212.68
385.13	212.79
385.51	212.74
385.89	212.78
386.27	212.85
386.64	212.81
387.02	212.78
387.40	212.68
387.78	212.69
388.15	212.64
388.53	212.57
388.91	212.53
389.29	212.49
389.66	212.44
390.04	212.32
390.42	212.37
390.79	212.33
391.17	212.34
391.55	211.89
391.92	211.91
392.30	211.91
392.68	211.83
393.05	211.78
393.43	211.79
393.81	211.84
394.18	211.73
394.56	211.77
394.94	211.80
395.31	211.86
395.69	211.93
396.06	211.96
396.44	212.01
396.82	212.01
397.19	212.22
397.57	212.24
397.95	212.31
398.32	212.22
398.70	212.30
399.07	212.35
399.45	212.41
399.82	212.45
400.20	212.45
400.58	212.47
400.95	212.38
401.33	212.59
401.70	212.86
402.08	212.94
402.45	213.03
402.83	213.25
403.20	213.32
403.58	213.42
403.95	213.63
404.33	213.85
404.71	214.01
405.08	214.35
405.46	214.57
405.83	214.79
406.21	215.01
406.58	215.26
406.96	215.56
407.33	215.85
407.70	216.22
408.08	216.91
408.45	217.36
408.83	217.84
409.20	218.21
409.58	218.42
409.95	219.05
410.33	219.62
410.70	220.11
411.08	220.76
411.45	221.48
411.82	222.21
412.20	222.98
412.57	224.11
412.95	224.80
413.32	225.88
413.69	226.94
414.07	228.10
414.44	229.36
414.82	230.64
415.19	232.19
415.56	233.67
415.94	235.00
416.31	236.85
416.68	238.63
417.06	240.62
417.43	242.67
417.81	244.82
418.18	247.07
418.55	249.50
418.93	252.15
419.30	254.90
419.67	257.76
420.04	260.80
420.42	263.70
420.79	267.35
421.16	270.94
421.54	274.81
421.91	278.67
422.28	282.76
422.66	287.12
423.03	291.42
423.40	295.87
423.77	300.57
424.15	305.42
424.52	310.57
424.89	316.03
425.26	321.35
425.64	326.54
426.01	332.19
426.38	338.21
426.75	344.24
427.13	350.42
427.50	356.91
427.87	363.67
428.24	370.62
428.61	377.16
428.99	384.43
429.36	392.32
429.73	400.07
430.10	407.81
430.47	415.69
430.85	423.89
431.22	432.58
431.59	442.01
431.96	450.81
432.33	460.61
432.70	470.24
433.08	481.40
433.45	492.13
433.82	502.81
434.19	514.64
434.56	526.42
434.93	537.73
435.30	549.08
435.68	561.58
436.05	573.97
436.42	586.45
436.79	597.92
437.16	610.11
437.53	623.14
437.90	636.05
438.27	648.93
438.64	662.20
439.01	674.70
439.38	685.91
439.75	696.80
440.13	709.16
440.50	720.91
440.87	730.87
441.24	740.74
441.61	751.80
441.98	760.19
442.35	769.85
442.72	779.68
443.09	788.88
443.46	795.12
443.83	799.53
444.20	803.29
444.57	808.64
444.94	811.69
445.31	814.91
445.68	818.04
446.05	819.95
446.42	819.73
446.79	818.95
447.16	818.21
447.53	817.91
447.90	814.07
448.27	810.18
448.64	804.48
449.01	800.60
449.37	792.95
449.74	785.55
450.11	776.66
450.48	766.65
450.85	756.75
451.22	747.96
451.59	739.88
451.96	732.17
452.33	721.34
452.70	711.65
453.07	699.85
453.43	687.65
453.80	676.04
454.17	665.05
454.54	654.71
454.91	643.48
455.28	632.53
455.65	622.28
456.02	612.20
456.38	603.29
456.75	592.32
457.12	583.32
457.49	574.33
457.86	565.31
458.23	557.76
458.59	549.53
458.96	541.30
459.33	533.74
459.70	526.24
460.07	520.48
460.43	513.64
460.80	507.22
461.17	501.71
461.54	495.74
461.91	490.10
462.27	484.47
462.64	479.61
463.01	474.21
463.38	469.03
463.74	463.70
464.11	459.12
464.48	455.28
464.85	450.95
465.21	447.52
465.58	444.03
465.95	439.75
466.32	436.12
466.68	432.46
467.05	428.92
467.42	425.43
467.78	421.56
468.15	418.06
468.52	415.40
468.88	411.92
469.25	408.77
469.62	406.28
469.98	403.50
470.35	400.91
470.72	398.41
471.08	395.72
471.45	393.61
471.82	391.38
472.18	388.87
472.55	387.10
472.92	385.08
473.28	383.17
473.65	381.38
474.02	379.66
474.38	378.13
474.75	376.81
475.11	375.28
475.48	374.12
475.85	373.10
476.21	372.11
476.58	371.34
476.94	370.85
477.31	370.05
477.67	369.49
478.04	368.92
478.41	368.56
478.77	368.53
479.14	367.97
479.50	367.81
479.87	367.77
480.23	367.64
480.60	367.47
480.96	367.44
481.33	367.87
481.69	368.18
482.06	368.48
482.42	368.68
482.79	369.08
483.15	369.67
483.52	370.36
483.88	370.86
484.25	371.52
484.61	372.17
484.98	372.87
485.34	373.81
485.71	374.95
486.07	376.18
486.44	377.07
486.80	378.45
487.17	379.76
487.53	381.38
487.90	382.98
488.26	384.84
488.62	386.83
488.99	388.53
489.35	390.39
489.72	392.50
490.08	394.71
490.44	396.95
490.81	399.19
491.17	401.41
491.54	404.12
491.90	406.70
492.26	409.43
492.63	412.26
492.99	415.09
493.36	418.02
493.72	421.16
494.08	424.55
494.45	427.90
494.81	431.48
495.17	434.86
495.54	438.52
495.90	442.21
496.26	445.87
496.63	449.79
496.99	453.76
497.35	457.84
497.72	462.01
498.08	466.09
498.44	470.28
498.80	474.89
499.17	479.30
499.53	483.69
499.89	488.33
500.26	492.80
500.62	497.34
500.98	502.11
501.34	506.70
501.71	511.46
502.07	516.17
502.43	520.85
502.79	525.55
503.16	530.44
503.52	535.00
503.88	539.63
504.24	544.23
504.60	548.96
504.97	553.75
505.33	558.47
505.69	563.50
506.05	568.31
506.41	572.81
506.78	577.11
507.14	581.59
507.50	586.03
507.86	590.66
508.22	595.08
508.59	599.29
508.95	603.58
509.31	607.88
509.67	612.11
510.03	616.23
510.39	620.38
510.75	624.36
511.12	628.55
511.48	632.48
511.84	636.37
512.20	639.96
512.56	643.67
512.92	647.34
513.28	650.98
513.64	654.44
514.00	657.93
514.37	661.54
514.73	665.00
515.09	668.26
515.45	671.25
515.81	674.40
516.17	677.25
516.53	680.09
516.89	682.67
517.25	685.25
517.61	687.90
517.97	690.42
518.33	692.73
518.69	694.94
519.05	697.19
519.41	699.35
519.77	702.04
520.13	704.02
520.49	705.83
520.85	707.42
521.21	709.36
521.57	711.14
521.93	712.66
522.29	714.58
522.65	716.35
523.01	717.99
523.37	719.62
523.73	721.39
524.09	722.98
524.45	724.51
524.81	726.17
525.17	727.81
525.53	729.63
525.89	731.06
526.25	732.78
526.61	734.10
526.97	735.57
527.33	736.83
527.68	738.45
528.04	739.91
528.40	741.31
528.76	742.73
529.12	744.45
529.48	746.33
529.84	747.72
530.20	749.32
530.56	751.01
530.91	752.87
531.27	754.60
531.63	756.34
531.99	758.05
532.35	759.64
532.71	761.26
533.07	762.98
533.42	765.33
533.78	767.14
534.14	769.18
534.50	770.98
534.86	773.12
535.21	774.68
535.57	776.89
535.93	778.73
536.29	780.97
536.65	782.83
537.00	784.51
537.36	786.33
537.72	787.97
538.08	789.99
538.44	791.67
538.79	793.57
539.15	795.56
539.51	797.79
539.87	800.05
540.22	802.26
540.58	804.48
540.94	806.23
541.29	808.32
541.65	810.28
542.01	812.51
542.37	814.42
542.72	816.70
543.08	818.58
543.44	821.09
543.79	822.91
544.15	825.02
544.51	827.39
544.87	829.73
545.22	832.23
545.58	834.38
545.94	836.48
546.29	838.43
546.65	840.52
547.01	842.43
547.36	844.39
547.72	846.14
548.07	847.99
548.43	849.83
548.79	851.61
549.14	853.56
549.50	855.51
549.86	857.33
550.21	859.47
550.57	861.65
550.92	863.55
551.28	865.54
551.64	867.48
551.99	869.54
552.35	871.51
552.70	873.15
553.06	875.08
553.41	876.99
553.77	879.18
554.13	881.12
554.48	883.40
554.84	885.68
555.19	887.78
555.55	889.88
555.90	891.69
556.26	893.55
556.61	895.33
556.97	897.00
557.32	898.68
557.68	900.22
558.03	901.66
558.39	903.09
558.74	904.71
559.10	906.13
559.45	907.59
559.81	909.15
560.16	910.57
560.52	911.95
560.87	913.39
561.23	914.50
561.58	916.12
561.94	916.99
562.29	917.65
562.64	919.17
563.00	920.19
563.35	921.66
563.71	923.25
564.06	924.81
564.42	926.40
564.77	928.10
565.12	929.64
565.48	931.38
565.83	932.74
566.19	934.43
566.54	935.68
566.89	936.90
567.25	938.53
567.60	940.24
567.96	941.80
568.31	943.51
568.66	944.84
569.02	945.58
569.37	946.39
569.72	947.59
570.08	948.20
570.43	949.02
570.78	949.76
571.14	949.78
571.49	950.15
571.84	950.65
572.20	950.65
572.55	950.96
572.90	950.69
573.26	950.66
573.61	950.07
573.96	950.07
574.31	949.70
574.67	948.91
575.02	948.00
575.37	946.93
575.72	945.65
576.08	944.83
576.43	943.88
576.78	943.13
577.13	942.34
577.49	941.70
577.84	940.52
578.19	939.64
578.54	939.35
578.90	938.61
579.25	937.38
579.60	936.29
579.95	934.73
580.30	933.85
580.66	932.77
581.01	931.70
581.36	930.21
581.71	928.83
582.06	927.50
582.42	926.22
582.77	924.71
583.12	923.43
583.47	922.18
583.82	920.80
584.17	919.59
584.53	918.15
584.88	916.39
585.23	915.09
585.58	913.27
585.93	911.24
586.28	909.50
586.63	908.06
586.98	906.45
587.34	905.23
587.69	903.38
588.04	901.81
588.39	900.23
588.74	898.40
589.09	896.78
589.44	894.76
589.79	892.99
590.14	891.42
590.49	889.67
590.84	887.74
591.19	886.39
591.54	884.40
591.89	882.11
592.25	880.38
592.60	878.05
592.95	875.84
593.30	873.69
593.65	871.34
594.00	868.81
594.35	867.56
594.70	864.95
595.05	862.79
595.40	860.45
595.75	857.86
596.10	855.86
596.45	853.60
596.80	851.63
597.15	849.57
597.50	847.16
597.85	844.79
598.19	842.33
598.54	839.75
598.89	837.53
599.24	835.67
599.59	833.11
599.94	831.20
600.29	828.87
600.64	826.50
600.99	824.18
601.34	821.99
601.69	818.66
602.04	815.96
602.39	813.43
602.74	811.14
603.08	809.03
603.43	806.87
603.78	804.50
604.13	802.12
604.48	799.85
604.83	797.82
605.18	795.78
605.53	793.27
605.87	790.79
606.22	788.43
606.57	785.80
606.92	783.16
607.27	780.34
607.62	778.00
607.96	775.70
608.31	773.49
608.66	770.92
609.01	768.16
609.36	765.91
609.70	763.27
610.05	760.46
610.40	757.67
610.75	754.66
611.10	752.09
611.44	748.94
611.79	745.80
612.14	742.99
612.49	739.54
612.83	736.73
613.18	733.59
613.53	730.44
613.88	727.24
614.22	724.29
614.57	721.29
614.92	718.24
615.27	715.31
615.61	712.17
615.96	709.26
616.31	706.52
616.65	703.83
617.00	701.00
617.35	698.03
617.70	695.03
618.04	691.97
618.39	688.75
618.74	685.90
619.08	682.91
619.43	679.88
619.78	677.39
620.12	674.75
620.47	672.14
620.82	669.13
621.16	666.10
621.51	663.29
621.85	660.49
622.20	657.74
622.55	654.60
622.89	651.56
623.24	648.45
623.59	645.37
623.93	642.35
624.28	639.52
624.62	637.05
624.97	634.32
625.32	631.60
625.66	628.81
626.01	625.96
626.35	623.26
626.70	620.35
627.04	617.53
627.39	614.64
627.73	611.86
628.08	609.39
628.43	606.81
628.77	604.08
629.12	601.32
629.46	598.70
629.81	596.07
630.15	593.48
630.50	590.89
630.84	588.32
631.19	585.81
631.53	583.31
631.88	580.37
632.22	577.74
632.57	575.40
632.91	572.75
633.26	570.37
633.60	567.82
633.95	565.32
634.29	562.67
634.64	560.42
634.98	557.82
635.32	555.42
635.67	553.24
636.01	550.96
636.36	548.54
636.70	546.23
637.05	543.94
637.39	541.94
637.73	539.80
638.08	537.73
638.42	535.45
638.77	533.22
639.11	531.09
639.45	528.81
639.80	526.28
640.14	523.97
640.49	521.69
640.83	519.45
641.17	517.28
641.52	515.11
641.86	512.66
642.20	510.58
642.55	508.15
642.89	505.63
643.23	503.36
643.58	501.37
643.92	499.04
644.26	496.88
644.61	494.48
644.95	492.22
645.29	489.80
645.64	487.52
645.98	485.20
646.32	482.98
646.66	480.71
647.01	478.67
647.35	476.70
647.69	474.42
648.04	472.43
648.38	470.35
648.72	468.15
649.06	466.15
649.41	463.89
649.75	461.77
650.09	459.81
650.43	457.64
650.78	455.36
651.12	453.19
651.46	451.00
651.80	449.01
652.14	446.94
652.49	445.14
652.83	443.14
653.17	440.94
653.51	438.91
653.85	437.00
654.20	434.96
654.54	432.87
654.88	430.89
655.22	428.88
655.56	426.73
655.90	424.73
656.25	422.56
656.59	420.57
656.93	418.65
657.27	416.87
657.61	414.85
657.95	413.11
658.29	411.19
658.64	409.45
658.98	407.50
659.32	405.59
659.66	403.64
660.00	401.79
660.34	400.07
660.68	398.22
661.02	396.33
661.36	394.47
661.70	392.86
662.05	391.28
662.39	389.47
662.73	388.01
663.07	386.59
663.41	385.09
663.75	383.48
664.09	381.86
664.43	380.13
664.77	378.59
665.11	376.82
665.45	375.37
665.79	373.83
666.13	372.26
666.47	370.83
666.81	369.30
667.15	367.74
667.49	366.28
667.83	364.89
668.17	363.57
668.51	362.21
668.85	360.79
669.19	359.57
669.53	358.13
669.87	356.64
670.21	355.19
670.55	353.80
670.89	352.72
671.23	351.50
671.57	350.33
671.91	349.20
672.25	348.08
672.58	346.96
672.92	345.69
673.26	344.51
673.60	343.30
673.94	342.07
674.28	340.89
674.62	339.92
674.96	338.76
675.30	337.57
675.64	336.42
675.97	335.31
676.31	334.08
676.65	333.07
676.99	332.09
677.33	330.88
677.67	329.80
678.01	328.47
678.34	327.39
678.68	326.29
679.02	325.09
679.36	323.97
679.70	322.88
680.04	321.84
680.37	320.75
680.71	319.71
681.05	318.71
681.39	317.70
681.73	316.57
682.06	315.61
682.40	314.61
682.74	313.73
683.08	312.76
683.42	311.76
683.75	310.81
684.09	309.75
684.43	308.82
684.77	307.85
685.10	306.97
685.44	305.95
685.78	304.94
686.12	304.08
686.45	303.22
686.79	302.23
687.13	301.49
687.46	300.64
687.80	299.85
688.14	299.00
688.48	298.22
688.81	297.25
689.15	296.37
689.49	295.46
689.82	294.69
690.16	293.72
690.50	292.77
690.83	291.79
691.17	290.88
691.51	290.03
691.84	289.16
692.18	288.36
692.52	287.64
692.85	286.86
693.19	286.22
693.52	285.45
693.86	284.66
694.20	283.86
694.53	283.05
694.87	282.23
695.21	281.42
695.54	280.58
695.88	279.84
696.21	279.04
696.55	278.33
696.88	277.47
697.22	276.75
697.56	276.10
697.89	275.49
698.23	274.84
698.56	274.14
698.90	273.48
699.23	272.70
699.57	271.96
699.90	271.32
700.24	270.55
700.58	269.91
700.91	269.25
701.25	268.73
701.58	268.19
701.92	267.59
702.25	267.00
702.59	266.47
702.92	265.85
703.26	265.30
703.59	264.76
703.93	264.53
704.26	264.03
704.60	263.47
704.93	262.93
705.26	262.38
705.60	261.84
705.93	261.34
706.27	261.09
706.60	260.72
706.94	260.35
707.27	259.75
707.61	259.21
707.94	258.85
708.27	258.12
708.61	257.58
708.94	257.12
709.28	256.66
709.61	256.17
709.94	255.74
710.28	255.23
710.61	254.85
710.95	254.10
711.28	253.77
711.61	253.40
711.95	253.00
712.28	252.54
712.61	252.27
712.95	252.03
713.28	251.72
713.61	251.21
713.95	250.69
714.28	250.35
714.61	249.93
714.95	249.43
715.28	249.04
715.61	248.54
715.95	248.20
716.28	247.70
716.61	247.35
716.95	246.94
717.28	246.57
717.61	246.17
717.94	245.86
718.28	245.32
718.61	244.97
718.94	244.50
719.27	244.12
719.61	243.72
719.94	243.20
720.27	242.63
720.60	242.34
720.94	241.99
721.27	241.67
721.60	241.38
721.93	241.10
722.27	240.97
722.60	240.77
722.93	240.35
723.26	240.16
723.59	239.78
723.93	239.56
724.26	239.38
724.59	239.07
724.92	238.75
725.25	238.60
725.59	238.30
725.92	238.08
726.25	237.87
726.58	237.57
726.91	237.36
727.24	237.11
727.57	236.79
727.91	236.48
728.24	236.29
728.57	235.93
728.90	235.67
729.23	235.21
729.56	235.15
729.89	234.95
730.22	234.72
730.55	234.49
730.89	234.25
731.22	233.93
731.55	233.71
731.88	233.47
732.21	233.15
732.54	232.82
732.87	232.60
733.20	232.39
733.53	232.25
733.86	232.07
734.19	231.83
734.52	231.70
734.85	231.77
735.18	231.46
735.51	231.41
735.84	231.28
736.17	231.22
736.50	230.83
736.83	231.05
737.16	230.85
737.49	230.70
737.82	230.48
738.15	230.35
738.48	230.11
738.81	229.91
739.14	229.75
739.47	229.58
739.80	229.39
740.13	229.19
740.46	228.94
740.79	228.72
741.12	228.53
741.45	228.29
741.78	227.88
742.11	227.86
742.44	227.56
742.77	227.42
743.10	227.20
743.43	227.00
743.75	226.44
744.08	226.70
744.41	226.45
744.74	226.30
745.07	226.12
745.40	226.02
745.73	226.05
746.06	225.93
746.39	225.78
746.71	225.70
747.04	225.56
747.37	225.36
747.70	225.27
748.03	225.17
748.36	225.07
748.68	225.00
749.01	224.70
749.34	224.63
749.67	224.48
750.00	224.46
750.33	224.63
750.65	224.52
750.98	223.95
751.31	223.87
751.64	223.75
751.97	223.79
752.29	223.73
752.62	223.40
752.95	223.19
753.28	223.05
753.60	222.95
753.93	222.94
754.26	222.82
754.59	222.58
754.91	222.39
755.24	222.35
755.57	222.17
755.90	222.08
756.22	221.99
756.55	221.77
756.88	221.53
757.20	221.15
757.53	220.93
757.86	220.84
758.19	220.77
758.51	220.70
758.84	220.34
759.17	220.20
759.49	220.09
759.82	220.13
760.15	220.05
760.47	219.85
760.80	219.62
761.13	219.63
761.45	219.51
761.78	219.45
762.11	219.26
762.43	219.11
762.76	219.02
763.08	218.99
763.41	218.94
763.74	218.89
764.06	218.81
764.39	218.79
764.71	218.72
765.04	218.63
765.37	218.44
765.69	218.40
766.02	218.22
766.34	218.16
766.67	218.01
767.00	217.96
767.32	218.09
767.65	218.23
767.97	218.11
768.30	218.08
768.62	217.96
768.95	217.85
769.27	217.84
769.60	217.82
769.92	217.62
770.25	217.50
770.57	217.39
770.90	217.42
771.22	217.30
771.55	217.23
771.87	217.17
772.20	217.18
772.52	217.38
772.85	217.74
773.17	217.64
773.50	217.59
773.82	217.47
774.15	217.31
774.47	217.05
774.80	216.98
775.12	216.95
775.45	216.94
775.77	216.99
776.09	216.96
776.42	216.93
776.74	217.05
777.07	217.00
777.39	216.95
777.72	216.77
778.04	216.81
778.36	216.73
778.69	216.66
779.01	216.62
779.33	216.34
779.66	216.00
779.98	215.92
780.31	215.82
780.63	216.05
780.95	215.96
781.28	215.95
781.60	215.91
781.92	215.89
782.25	215.88
782.57	215.78
782.89	215.71
783.22	215.65
783.54	215.48
783.86	215.48
784.19	215.45
784.51	215.54
784.83	215.47
785.16	215.46
785.48	215.44
785.80	215.37
786.12	215.35
786.45	215.22
786.77	215.19
787.09	215.21
787.42	215.01
787.74	215.06
788.06	215.03
788.38	215.03
788.71	214.96
789.03	214.89
789.35	214.92
789.67	214.92
789.99	214.94
790.32	214.90
790.64	214.94
790.96	215.20
791.28	215.10
791.61	215.01
791.93	214.96
792.25	214.98
792.57	215.27
792.89	215.16
793.21	215.23
793.54	215.27
793.86	215.18
794.18	215.16
794.50	215.02
794.82	214.98
795.14	215.00
795.47	214.94
795.79	214.92
796.11	214.82
796.43	214.75
796.75	214.68
797.07	214.67
797.39	214.61
797.71	214.34
798.04	214.26
798.36	214.30
798.68	214.30
799.00	214.25
799.32	213.99
799.64	214.00
799.96	213.93
800.28	213.95
800.60	213.92
800.92	213.90
801.24	213.92
801.56	213.88
801.89	213.80
802.21	213.89
802.53	213.84
802.85	213.91
803.17	214.08
803.49	214.01
803.81	214.01
804.13	213.97
804.45	213.97
804.77	214.08
805.09	214.03
805.41	213.98
805.73	213.91
806.05	213.80
806.37	213.74
806.69	213.67
807.01	213.66
807.33	213.64
807.65	213.48
807.97	213.54
808.28	213.51
808.60	213.44
808.92	213.34
809.24	213.49
809.56	213.37
809.88	213.18
810.20	213.22
810.52	213.20
810.84	213.14
811.16	213.05
811.48	213.01
811.80	213.11
812.12	213.09
812.43	213.12
812.75	213.17
813.07	213.13
813.39	213.15
813.71	213.06
814.03	213.04
814.35	213.12
814.67	212.97
814.98	212.89
815.30	212.90
815.62	212.89
815.94	212.68
816.26	212.72
816.58	212.63
816.89	212.61
817.21	212.57
817.53	212.59
817.85	212.55
818.17	212.49
818.48	212.33
818.80	212.42
819.12	212.38
819.44	212.27
819.76	212.32
820.07	212.31
820.39	212.23
820.71	212.22
821.03	212.17
821.34	212.22
821.66	212.33
821.98	212.42
822.30	212.34
822.61	212.57
822.93	212.56
823.25	212.51
823.57	212.44
823.88	212.52
824.20	212.49
824.52	212.55
824.83	212.53
825.15	212.53
825.47	212.45
825.79	212.42
826.10	212.40
826.42	212.35
826.74	212.36
827.05	212.36
827.37	212.35
827.69	212.35
828.00	212.31
828.32	212.23
828.64	212.12
828.95	212.33
829.27	212.24
829.58	212.13
829.90	212.33
830.22	212.32
830.53	212.24
830.85	212.18
831.17	212.08
831.48	212.09
831.80	212.06
832.11	212.02
832.43	212.02
832.75	212.07
833.06	212.25
833.38	212.19
833.69	212.19
834.01	212.27
834.32	212.23
834.64	212.22
834.96	212.20
835.27	212.20
835.59	212.06
835.90	211.92
836.22	212.00
836.53	211.84
836.85	211.86
837.16	212.20
837.48	212.25
837.79	212.41
838.11	212.39
838.42	212.37
838.74	212.41
839.05	212.35
839.37	212.31
839.68	212.10
840.00	212.06
840.31	212.16
840.63	212.18
840.94	212.19
841.26	212.15
841.57	212.23
841.88	212.28
842.20	212.27
842.51	212.25
842.83	212.24
843.14	212.60
843.46	212.65
843.77	212.39
844.08	212.30
844.40	212.16
844.71	212.12
845.03	212.14
845.34	212.10
845.65	212.08
845.97	212.07
846.28	212.10
846.60	212.10
846.91	212.00
847.22	211.95
847.54	212.04
847.85	212.05
848.16	212.00
848.48	211.94
848.79	212.06
849.10	212.13
849.42	212.16
849.73	211.77
850.04	211.70
850.36	211.60
850.67	211.69
850.98	211.74
851.30	211.78
851.61	211.79
851.92	211.79
852.23	211.91
852.55	211.96
852.86	211.99
853.17	212.00
853.49	212.15
853.80	212.22
854.11	212.22
854.42	212.28
854.74	212.22
855.05	212.20
855.36	211.96
855.67	211.91
855.99	211.88
856.30	212.31
856.61	212.31
856.92	212.32
857.23	212.33
857.55	212.27
857.86	212.24
858.17	212.27
858.48	212.20
858.79	212.13
859.11	212.09
859.42	212.05
859.73	212.02
860.04	211.90
860.35	211.79
860.66	211.62
860.98	211.64
861.29	211.72
861.60	211.74
861.91	211.85
862.22	211.86
862.53	211.82
862.84	211.42
863.16	211.53
863.47	211.55
863.78	211.50
864.09	211.57
864.40	211.59
864.71	211.53
865.02	211.58
865.33	211.47
865.64	211.36
865.95	211.39
866.27	211.64
866.58	211.66
866.89	211.65
867.20	211.74
867.51	211.67
867.82	211.59
868.13	211.62
868.44	211.54
868.75	211.55
869.06	211.49
869.37	211.48
869.68	211.32
869.99	211.27
870.30	211.30
870.61	211.21
870.92	211.14
871.23	211.14
871.54	211.24
871.85	211.42
872.16	211.51
872.47	211.47
872.78	211.25
873.09	211.22
873.40	211.17
873.71	211.15
874.02	211.14
874.33	211.12
874.64	211.06
874.95	211.15
875.26	211.13
875.56	211.20
875.87	211.28
876.18	211.27
876.49	211.65
876.80	211.65
877.11	211.66
877.42	211.71
877.73	211.68
878.04	211.63
878.35	211.58
878.66	211.65
878.96	211.60
879.27	211.58
879.58	211.60
879.89	211.60
880.20	211.69
880.51	211.63
880.82	211.70
881.12	211.82
881.43	211.77
881.74	211.69
882.05	211.69
882.36	211.73
882.67	211.76
882.97	211.34
883.28	211.25
883.59	211.29
883.90	211.30
884.21	211.46
884.51	211.42
884.82	211.42
885.13	211.39
885.44	211.47
885.74	211.51
886.05	211.54
886.36	211.59
886.67	211.47
886.98	211.70
887.28	211.63
887.59	211.51
887.90	211.50
888.20	211.47
888.51	211.51
888.82	211.38
889.13	211.42
889.43	211.73
889.74	211.72
890.05	211.70
890.35	211.60
890.66	211.44
890.97	211.45
891.28	211.41
891.58	211.45
891.89	211.41
892.20	211.32
892.50	211.26
892.81	211.13
893.12	211.13
893.42	210.90
893.73	210.96
894.04	211.00
894.34	211.00
894.65	211.00
894.95	211.00
895.26	211.03
895.57	211.16
895.87	210.87
896.18	210.99
896.48	210.97
896.79	210.99
897.10	211.03
897.40	211.06
897.71	211.06
898.01	210.94
898.32	211.07
898.63	211.08
898.93	211.13
899.24	211.22
899.54	211.23
899.85	211.33
900.15	211.33
900.46	211.25
900.76	211.29
901.07	211.33
901.38	211.25
901.68	211.29
901.99	211.09
902.29	211.05
902.60	210.93
902.90	210.90
903.21	210.95
903.51	210.92
903.82	210.92
904.12	210.92
904.43	211.04
904.73	210.91
905.03	210.92
905.34	211.26
905.64	211.25
905.95	211.20
906.25	211.12
906.56	211.11
906.86	211.14
907.17	211.19
907.47	211.22
907.77	211.22
908.08	211.18
908.38	211.27
908.69	211.27
908.99	211.38
909.30	211.40
909.60	211.40
909.90	211.50
910.21	211.38
910.51	211.39
910.81	211.37
911.12	211.38
911.42	211.40
911.73	211.04
912.03	211.07
912.33	211.15
912.64	211.20
912.94	211.18
913.24	211.16
913.55	211.06
913.85	210.99
914.15	211.02
914.46	211.02
914.76	210.94
915.06	211.00
915.37	210.96
915.67	210.97
915.97	210.96
916.27	210.92
916.58	211.01
916.88	210.95
917.18	210.84
917.49	211.06
917.79	211.05
918.09	211.06
918.39	211.18
918.70	211.20
919.00	211.17
919.30	211.29
919.60	211.29
919.91	211.29
920.21	211.34
920.51	211.26
920.81	211.30
921.12	211.37
921.42	211.35
921.72	211.34
922.02	211.42
922.32	211.51
922.63	211.51
922.93	211.70
923.23	211.69
923.53	211.70
923.83	211.55
924.13	211.64
924.44	211.65
924.74	211.65
925.04	211.77
925.34	211.76
925.64	211.69
925.94	211.64
926.24	211.81
926.55	211.76
926.85	211.80
927.15	211.80
927.45	211.78
927.75	211.78
928.05	211.80
928.35	211.70
928.65	211.70
928.95	211.66
929.26	211.47
929.56	211.55
929.86	211.58
930.16	211.52
930.46	211.47
930.76	211.51
931.06	211.40
931.36	211.28
931.66	211.42
931.96	211.43
932.26	211.52
932.56	211.35
932.86	211.35
933.16	211.40
933.46	211.28
933.76	211.25
934.06	211.22
934.36	211.35
934.66	211.35
934.96	211.32
935.26	211.39
935.56	211.46
935.86	211.35
936.16	211.39
936.46	211.36
936.76	211.34
937.06	211.27
937.36	211.25
937.66	211.28
937.96	211.22
938.26	211.17
938.56	211.10
938.86	211.21
939.16	211.33
939.46	211.41
939.76	211.50
940.06	211.50
940.35	211.55
940.65	211.32
940.95	211.36
941.25	211.26
941.55	211.12
941.85	211.10
942.15	211.21
942.45	211.29
942.75	211.27
943.04	211.32
943.34	211.37
943.64	211.36
943.94	211.30
944.24	211.30
944.54	211.33
944.84	211.34
945.13	211.28
945.43	211.18
945.73	211.12
946.03	211.12
946.33	211.00
946.62	210.93
946.92	210.99
947.22	211.02
947.52	211.01
947.82	211.18
948.11	211.15
948.41	211.08
948.71	211.01
949.01	210.98
949.31	210.92
949.60	210.89
949.90	210.97
950.20	210.93
950.50	210.87
950.79	210.85
951.09	210.84
951.39	210.80
951.69	210.81
951.98	210.77
952.28	210.76
952.58	210.91
952.87	210.87
953.17	210.90
953.47	210.84
953.76	210.84
954.06	210.73
954.36	210.69
954.66	210.64
954.95	210.73
955.25	210.83
955.55	210.84
955.84	210.77
956.14	210.68
956.44	210.70
956.73	210.68
957.03	210.71
957.32	210.76
957.62	210.72
957.92	210.79
958.21	210.80
958.51	211.25
958.81	211.20
959.10	211.30
959.40	211.31
959.69	211.32
959.99	211.38
960.29	211.35
960.58	211.35
960.88	211.50
961.17	211.39
961.47	211.41
961.76	211.34
962.06	211.40
962.36	211.45
962.65	211.52
962.95	211.53
963.24	211.36
963.54	211.32
963.83	211.43
964.13	211.43
964.42	211.39
964.72	210.99
965.01	210.98
965.31	210.91
965.60	210.88
965.90	211.15
966.19	211.13
966.49	211.23
966.78	211.20
967.08	211.15
967.37	211.17
967.67	211.09
967.96	211.22
968.26	211.20
968.55	211.21
968.85	211.13
969.14	211.10
969.43	211.23
969.73	211.19
970.02	211.16
970.32	211.10
970.61	211.06
970.91	211.05
971.20	211.05
971.49	211.04
971.79	211.10
972.08	210.83
972.38	210.89
972.67	210.84
972.96	210.86
973.26	210.87
973.55	211.03
973.85	211.07
974.14	211.02
974.43	211.13
974.73	211.13
975.02	211.16
975.31	211.16
975.61	211.13
975.90	211.18
976.19	211.13
976.49	211.19
976.78	211.24
977.07	211.28
977.37	211.30
977.66	211.33
977.95	211.26
978.24	211.28
978.54	211.33
978.83	211.27
979.12	211.26
979.42	211.20
979.71	211.09
980.00	211.02
980.29	211.06
980.59	210.95
980.88	211.04
981.17	210.99
981.46	211.04
981.76	211.10
982.05	211.12
982.34	211.14
982.63	211.05
982.93	211.04
983.22	211.12
983.51	211.14
983.80	211.23
984.09	211.26
984.39	211.25
984.68	211.17
984.97	211.24
985.26	211.23
985.55	211.25
985.85	211.16
986.14	211.21
986.43	211.19
986.72	211.15
987.01	210.95
987.30	210.97
987.59	210.94
987.89	210.88
988.18	210.75
988.47	210.68
988.76	210.67
989.05	210.67
989.34	210.49
989.63	210.53
989.92	210.44
990.22	210.37
990.51	210.40
990.80	210.33
991.09	210.33
991.38	210.36
991.67	210.35
991.96	210.34
992.25	210.37
992.54	210.32
992.83	210.36
993.12	210.34
993.41	210.42
993.70	210.51
993.99	210.58
994.28	210.65
994.58	210.80
994.87	210.80
995.16	210.79
995.45	210.82
995.74	210.75
996.03	210.85
996.32	210.93
996.61	210.92
996.90	210.95
997.19	210.92
997.48	210.92
997.77	210.81
998.06	210.87
998.34	210.87
998.63	210.83
998.92	210.81
999.21	210.86
999.50	210.84
999.79	210.70
1000.08	210.65
1000.37	210.67
1000.66	210.59
1000.95	210.70
1001.24	210.74
1001.53	210.74
1001.82	210.68
1002.11	210.51
1002.40	210.50
1002.68	210.56
1002.97	210.74
1003.26	210.69
1003.55	210.65
1003.84	210.81
1004.13	210.87
1004.42	210.82
1004.71	210.82
1004.99	210.83
1005.28	210.97
1005.57	210.91
1005.86	210.92
1006.15	210.96
1006.44	210.92
1006.72	210.95
1007.01	210.83
1007.30	210.76
1007.59	210.73
1007.88	210.76
1008.17	210.89
1008.45	210.82
1008.74	210.74
1009.03	210.59
1009.32	210.63
1009.60	210.65
1009.89	210.56
1010.18	210.47
1010.47	210.47
1010.76	210.45
1011.04	210.39
1011.33	210.40
1011.62	210.49
1011.91	210.56
1012.19	210.61
1012.48	210.64
1012.77	210.65
1013.05	210.74
1013.34	210.79
1013.63	210.84
1013.92	210.84
1014.20	210.78
1014.49	210.86
1014.78	210.83
1015.06	210.81
1015.35	210.76
1015.64	210.78
1015.92	210.85
1016.21	210.87
1016.50	210.89
1016.78	210.92
1017.07	210.99
1017.36	210.91
1017.64	210.84
1017.93	210.82
1018.22	210.73
1018.50	210.72
1018.79	210.71
1019.08	210.64
1019.36	210.67
1019.65	210.62
1019.93	210.78
1020.22	210.80
1020.51	210.94
1020.79	210.94
1021.08	210.50
1021.36	210.25
1021.65	210.90
1021.94	210.60
1022.22	211.00
1022.51	210.20
1022.79	213.45
1023.08	210.95
1023.36	214.80
1023.65	209.60
>>>>>End Processed Spectral Data<<<<<
