SpectraSuite Data File
++++++++++++++++++++++++++++++++++++
Date: Mon Feb 25 17:20:22 EST 2013
User: group
Dark Spectrum Present: No
Reference Spectrum Present: No
Number of Sampled Component Spectra: 1
Spectrometers: USB2E7196
Integration Time (usec): 104000 (USB2E7196)
Spectra Averaged: 20 (USB2E7196)
Boxcar Smoothing: 10 (USB2E7196)
Correct for Electrical Dark: No (USB2E7196)
Strobe/Lamp Enabled: No (USB2E7196)
Correct for Detector Non-linearity: No (USB2E7196)
Correct for Stray Light: No (USB2E7196)
Number of Pixels in Processed Spectrum: 2048
>>>>>Begin Processed Spectral Data<<<<<
339.09	0.00
339.48	197.95
339.86	199.50
340.24	202.40
340.63	203.60
341.01	208.35
341.39	205.35
341.78	207.65
342.16	208.75
342.54	209.30
342.93	198.29
343.31	208.29
343.69	208.91
344.07	209.39
344.46	209.86
344.84	210.28
345.22	210.47
345.60	210.78
345.99	211.00
346.37	211.16
346.75	211.27
347.13	211.40
347.52	211.52
347.90	211.79
348.28	211.84
348.66	211.99
349.05	211.88
349.43	211.95
349.81	212.02
350.19	212.04
350.57	212.20
350.96	212.36
351.34	212.50
351.72	212.65
352.10	212.79
352.48	212.83
352.87	212.96
353.25	213.03
353.63	213.13
354.01	213.18
354.39	213.30
354.77	213.45
355.15	213.65
355.54	213.65
355.92	213.49
356.30	213.66
356.68	213.98
357.06	214.13
357.44	214.20
357.82	214.30
358.20	214.45
358.58	214.49
358.97	214.51
359.35	214.65
359.73	214.77
360.11	214.85
360.49	214.95
360.87	214.91
361.25	214.98
361.63	215.10
362.01	215.13
362.39	215.13
362.77	215.14
363.15	215.13
363.53	215.13
363.91	215.20
364.29	215.21
364.67	214.93
365.05	214.93
365.43	214.97
365.81	215.06
366.19	215.20
366.57	215.41
366.95	215.44
367.33	215.28
367.71	215.28
368.09	215.35
368.47	215.36
368.85	215.33
369.23	215.31
369.61	215.21
369.99	215.44
370.37	215.54
370.75	215.72
371.13	215.67
371.51	215.70
371.89	215.77
372.27	215.72
372.65	215.70
373.03	215.69
373.41	215.63
373.78	215.52
374.16	215.33
374.54	215.12
374.92	215.07
375.30	215.11
375.68	215.00
376.06	214.97
376.44	214.90
376.82	214.96
377.19	214.95
377.57	214.84
377.95	214.62
378.33	214.49
378.71	214.20
379.09	214.18
379.47	214.14
379.84	214.03
380.22	213.96
380.60	213.87
380.98	213.81
381.36	213.74
381.73	213.70
382.11	213.77
382.49	213.64
382.87	213.55
383.25	213.50
383.62	213.87
384.00	213.74
384.38	213.66
384.76	213.69
385.13	213.80
385.51	213.84
385.89	213.71
386.27	213.61
386.64	213.63
387.02	213.54
387.40	213.48
387.78	213.47
388.15	213.45
388.53	213.44
388.91	213.41
389.29	213.39
389.66	213.39
390.04	213.30
390.42	213.45
390.79	213.49
391.17	213.51
391.55	213.05
391.92	213.05
392.30	213.14
392.68	212.99
393.05	212.88
393.43	212.89
393.81	212.95
394.18	212.95
394.56	212.98
394.94	213.03
395.31	213.02
395.69	213.16
396.06	213.26
396.44	213.33
396.82	213.31
397.19	213.51
397.57	213.53
397.95	213.63
398.32	213.54
398.70	213.61
399.07	213.73
399.45	213.71
399.82	213.75
400.20	213.71
400.58	213.85
400.95	213.82
401.33	213.93
401.70	214.29
402.08	214.39
402.45	214.43
402.83	214.62
403.20	214.76
403.58	214.87
403.95	215.03
404.33	215.24
404.71	215.44
405.08	215.76
405.46	216.00
405.83	216.12
406.21	216.37
406.58	216.57
406.96	216.76
407.33	217.02
407.70	217.35
408.08	217.93
408.45	218.23
408.83	218.69
409.20	218.98
409.58	219.16
409.95	219.65
410.33	220.17
410.70	220.58
411.08	221.08
411.45	221.61
411.82	222.10
412.20	222.75
412.57	223.64
412.95	224.04
413.32	224.76
413.69	225.60
414.07	226.51
414.44	227.41
414.82	228.38
415.19	229.58
415.56	230.78
415.94	231.83
416.31	233.15
416.68	234.49
417.06	236.08
417.43	237.58
417.81	239.27
418.18	240.97
418.55	242.69
418.93	244.62
419.30	246.61
419.67	248.69
420.04	250.85
420.42	253.00
420.79	255.86
421.16	258.50
421.54	261.27
421.91	263.98
422.28	266.87
422.66	269.93
423.03	273.09
423.40	276.12
423.77	279.43
424.15	282.75
424.52	286.28
424.89	290.03
425.26	293.64
425.64	297.21
426.01	301.07
426.38	305.24
426.75	309.40
427.13	313.61
427.50	318.09
427.87	322.71
428.24	327.43
428.61	331.79
428.99	336.65
429.36	341.85
429.73	347.12
430.10	352.37
430.47	357.66
430.85	363.05
431.22	368.96
431.59	375.30
431.96	381.31
432.33	387.85
432.70	394.19
433.08	401.64
433.45	408.63
433.82	415.49
434.19	423.09
434.56	430.74
434.93	438.07
435.30	445.34
435.68	453.33
436.05	461.10
436.42	468.95
436.79	476.17
437.16	483.90
437.53	491.92
437.90	500.05
438.27	507.99
438.64	516.24
439.01	523.73
439.38	530.36
439.75	536.88
440.13	544.24
440.50	551.28
440.87	556.93
441.24	562.90
441.61	569.56
441.98	574.55
442.35	579.95
442.72	585.50
443.09	590.90
443.46	594.10
443.83	596.27
444.20	598.01
444.57	600.62
444.94	601.78
445.31	603.16
445.68	604.33
446.05	604.85
446.42	603.87
446.79	602.88
447.16	601.73
447.53	600.94
447.90	597.89
448.27	594.76
448.64	590.56
449.01	587.26
449.37	581.84
449.74	576.60
450.11	570.47
450.48	563.67
450.85	556.64
451.22	550.73
451.59	545.14
451.96	539.64
452.33	532.49
452.70	526.11
453.07	518.23
453.43	510.28
453.80	502.69
454.17	495.41
454.54	488.62
454.91	481.21
455.28	473.89
455.65	467.20
456.02	460.80
456.38	455.06
456.75	448.17
457.12	442.23
457.49	436.24
457.86	430.52
458.23	425.71
458.59	420.47
458.96	415.14
459.33	410.37
459.70	405.67
460.07	401.93
460.43	397.57
460.80	393.60
461.17	390.01
461.54	386.35
461.91	382.94
462.27	379.28
462.64	376.34
463.01	373.12
463.38	369.99
463.74	366.50
464.11	363.72
464.48	361.23
464.85	358.68
465.21	356.80
465.58	354.72
465.95	352.18
466.32	350.18
466.68	348.09
467.05	345.97
467.42	343.97
467.78	341.88
468.15	339.90
468.52	338.55
468.88	336.64
469.25	334.84
469.62	333.50
469.98	332.14
470.35	330.81
470.72	329.58
471.08	328.17
471.45	327.08
471.82	325.98
472.18	324.75
472.55	323.89
472.92	322.78
473.28	321.94
473.65	321.10
474.02	320.30
474.38	319.75
474.75	319.34
475.11	318.80
475.48	318.51
475.85	318.28
476.21	318.00
476.58	318.01
476.94	318.15
477.31	318.10
477.67	318.06
478.04	318.24
478.41	318.58
478.77	319.21
479.14	319.57
479.50	320.08
479.87	320.74
480.23	321.41
480.60	322.14
480.96	322.98
481.33	324.12
481.69	325.15
482.06	326.15
482.42	327.19
482.79	328.31
483.15	329.65
483.52	331.18
483.88	332.66
484.25	334.27
484.61	335.89
484.98	337.73
485.34	339.92
485.71	342.11
486.07	344.40
486.44	346.45
486.80	349.06
487.17	351.71
487.53	354.77
487.90	357.83
488.26	361.15
488.62	364.66
488.99	368.01
489.35	371.62
489.72	375.62
490.08	379.86
490.44	384.24
490.81	388.96
491.17	393.64
491.54	398.77
491.90	404.10
492.26	409.80
492.63	415.73
492.99	421.76
493.36	428.21
493.72	435.12
494.08	442.26
494.45	449.78
494.81	457.83
495.17	465.74
495.54	474.35
495.90	483.20
496.26	492.18
496.63	501.89
496.99	512.07
497.35	522.49
497.72	533.19
498.08	544.43
498.44	555.90
498.80	568.42
499.17	581.29
499.53	594.41
499.89	608.15
500.26	622.17
500.62	636.86
500.98	651.98
501.34	667.47
501.71	683.81
502.07	700.17
502.43	717.10
502.79	734.34
503.16	752.46
503.52	771.12
503.88	790.42
504.24	810.19
504.60	830.29
504.97	851.24
505.33	872.80
505.69	895.56
506.05	918.53
506.41	941.41
506.78	964.66
507.14	988.66
507.50	1013.35
507.86	1038.48
508.22	1063.98
508.59	1089.98
508.95	1116.84
509.31	1143.79
509.67	1171.87
510.03	1200.18
510.39	1230.05
510.75	1259.44
511.12	1289.19
511.48	1319.45
511.84	1350.10
512.20	1381.06
512.56	1412.95
512.92	1444.82
513.28	1476.65
513.64	1509.18
514.00	1542.16
514.37	1575.10
514.73	1608.61
515.09	1642.16
515.45	1675.75
515.81	1709.72
516.17	1743.84
516.53	1777.84
516.89	1812.08
517.25	1846.23
517.61	1880.51
517.97	1914.46
518.33	1948.39
518.69	1982.82
519.05	2017.53
519.41	2052.35
519.77	2087.45
520.13	2121.60
520.49	2155.96
520.85	2190.60
521.21	2225.05
521.57	2260.23
521.93	2294.38
522.29	2329.66
522.65	2364.57
523.01	2399.45
523.37	2433.15
523.73	2467.35
524.09	2501.40
524.45	2535.81
524.81	2569.93
525.17	2604.23
525.53	2637.83
525.89	2671.73
526.25	2704.84
526.61	2736.95
526.97	2769.08
527.33	2800.83
527.68	2832.95
528.04	2864.01
528.40	2893.73
528.76	2923.96
529.12	2954.30
529.48	2986.18
529.84	3015.85
530.20	3045.12
530.56	3074.49
530.91	3105.46
531.27	3135.31
531.63	3164.04
531.99	3192.19
532.35	3219.40
532.71	3246.75
533.07	3274.55
533.42	3300.61
533.78	3327.76
534.14	3353.85
534.50	3378.04
534.86	3403.65
535.21	3427.50
535.57	3453.18
535.93	3477.36
536.29	3500.55
536.65	3523.27
537.00	3544.25
537.36	3565.08
537.72	3585.58
538.08	3605.94
538.44	3625.50
538.79	3645.28
539.15	3664.86
539.51	3684.25
539.87	3704.42
540.22	3722.46
540.58	3741.26
540.94	3759.95
541.29	3775.67
541.65	3791.31
542.01	3808.28
542.37	3823.19
542.72	3838.87
543.08	3851.97
543.44	3867.61
543.79	3881.12
544.15	3893.53
544.51	3906.86
544.87	3920.27
545.22	3932.35
545.58	3943.21
545.94	3952.30
546.29	3960.25
546.65	3968.29
547.01	3975.46
547.36	3982.51
547.72	3989.80
548.07	3994.79
548.43	3999.61
548.79	4004.75
549.14	4010.48
549.50	4015.10
549.86	4018.86
550.21	4021.95
550.57	4026.19
550.92	4027.51
551.28	4029.46
551.64	4031.56
551.99	4033.77
552.35	4034.82
552.70	4036.00
553.06	4037.28
553.41	4038.74
553.77	4039.87
554.13	4040.36
554.48	4041.31
554.84	4041.37
555.19	4040.49
555.55	4038.90
555.90	4036.99
556.26	4034.89
556.61	4032.26
556.97	4028.90
557.32	4026.78
557.68	4023.09
558.03	4019.10
558.39	4016.07
558.74	4014.30
559.10	4011.40
559.45	4006.90
559.81	4003.42
560.16	3998.52
560.52	3994.13
560.87	3989.23
561.23	3983.32
561.58	3978.61
561.94	3972.33
562.29	3965.23
562.64	3959.85
563.00	3954.58
563.35	3950.38
563.71	3946.61
564.06	3941.86
564.42	3937.66
564.77	3932.89
565.12	3928.87
565.48	3923.81
565.83	3918.27
566.19	3912.63
566.54	3905.21
566.89	3898.38
567.25	3891.43
567.60	3885.01
567.96	3877.83
568.31	3871.25
568.66	3864.09
569.02	3855.99
569.37	3847.18
569.72	3839.43
570.08	3830.76
570.43	3821.83
570.78	3811.68
571.14	3800.99
571.49	3790.45
571.84	3781.16
572.20	3769.45
572.55	3759.04
572.90	3747.23
573.26	3735.89
573.61	3723.29
573.96	3712.37
574.31	3700.03
574.67	3686.85
575.02	3673.65
575.37	3660.64
575.72	3646.51
576.08	3634.83
576.43	3621.35
576.78	3609.48
577.13	3597.24
577.49	3584.70
577.84	3572.20
578.19	3560.81
578.54	3549.85
578.90	3539.06
579.25	3525.55
579.60	3512.38
579.95	3498.11
580.30	3486.69
580.66	3474.63
581.01	3461.54
581.36	3447.88
581.71	3435.36
582.06	3422.67
582.42	3410.36
582.77	3396.77
583.12	3384.02
583.47	3371.33
583.82	3359.66
584.17	3346.71
584.53	3334.50
584.88	3321.35
585.23	3308.19
585.58	3294.87
585.93	3280.62
586.28	3267.53
586.63	3254.40
586.98	3242.10
587.34	3230.68
587.69	3217.11
588.04	3203.89
588.39	3191.77
588.74	3178.68
589.09	3166.33
589.44	3153.39
589.79	3141.35
590.14	3130.10
590.49	3118.01
590.84	3105.12
591.19	3093.60
591.54	3081.21
591.89	3066.99
592.25	3053.81
592.60	3040.21
592.95	3026.44
593.30	3012.42
593.65	2997.99
594.00	2984.74
594.35	2973.26
594.70	2959.73
595.05	2947.58
595.40	2935.06
595.75	2921.37
596.10	2909.33
596.45	2897.04
596.80	2885.92
597.15	2873.95
597.50	2860.93
597.85	2848.88
598.19	2836.50
598.54	2823.39
598.89	2811.70
599.24	2801.70
599.59	2790.73
599.94	2780.89
600.29	2770.19
600.64	2759.94
600.99	2748.22
601.34	2737.63
601.69	2724.86
602.04	2713.44
602.39	2701.72
602.74	2690.35
603.08	2680.80
603.43	2670.76
603.78	2659.72
604.13	2648.35
604.48	2637.27
604.83	2628.02
605.18	2618.90
605.53	2607.88
605.87	2596.76
606.22	2586.64
606.57	2574.72
606.92	2563.49
607.27	2551.54
607.62	2539.89
607.96	2529.25
608.31	2519.94
608.66	2508.22
609.01	2496.58
609.36	2485.00
609.70	2472.58
610.05	2460.26
610.40	2447.86
610.75	2435.21
611.10	2423.52
611.44	2409.97
611.79	2396.53
612.14	2382.55
612.49	2368.06
612.83	2355.61
613.18	2342.49
613.53	2329.07
613.88	2315.33
614.22	2302.89
614.57	2289.87
614.92	2277.14
615.27	2263.32
615.61	2249.39
615.96	2236.86
616.31	2225.41
616.65	2214.09
617.00	2202.86
617.35	2191.14
617.70	2178.38
618.04	2165.09
618.39	2151.43
618.74	2139.53
619.08	2127.15
619.43	2114.77
619.78	2102.82
620.12	2090.63
620.47	2079.02
620.82	2066.06
621.16	2053.61
621.51	2040.72
621.85	2029.02
622.20	2016.37
622.55	2004.56
622.89	1992.34
623.24	1980.17
623.59	1966.94
623.93	1954.01
624.28	1941.56
624.62	1929.59
624.97	1917.82
625.32	1906.74
625.66	1895.91
626.01	1884.56
626.35	1873.92
626.70	1862.71
627.04	1852.14
627.39	1841.06
627.73	1829.99
628.08	1819.61
628.43	1808.61
628.77	1797.34
629.12	1785.82
629.46	1776.08
629.81	1765.47
630.15	1754.79
630.50	1743.95
630.84	1733.29
631.19	1722.45
631.53	1711.89
631.88	1700.27
632.22	1689.18
632.57	1678.76
632.91	1667.64
633.26	1656.82
633.60	1646.15
633.95	1636.12
634.29	1624.75
634.64	1614.36
634.98	1603.15
635.32	1592.85
635.67	1583.31
636.01	1573.76
636.36	1563.64
636.70	1553.14
637.05	1542.88
637.39	1533.04
637.73	1523.70
638.08	1514.96
638.42	1506.05
638.77	1496.35
639.11	1487.29
639.45	1477.73
639.80	1467.31
640.14	1457.44
640.49	1447.72
640.83	1437.71
641.17	1427.98
641.52	1418.16
641.86	1408.11
642.20	1398.62
642.55	1388.28
642.89	1378.14
643.23	1367.92
643.58	1358.47
643.92	1348.38
644.26	1338.75
644.61	1328.94
644.95	1318.79
645.29	1308.80
645.64	1298.43
645.98	1288.90
646.32	1279.35
646.66	1269.81
647.01	1260.80
647.35	1251.83
647.69	1241.81
648.04	1232.63
648.38	1222.89
648.72	1213.89
649.06	1204.45
649.41	1195.10
649.75	1186.08
650.09	1177.22
650.43	1168.13
650.78	1158.74
651.12	1149.40
651.46	1140.34
651.80	1131.73
652.14	1123.07
652.49	1113.95
652.83	1104.99
653.17	1095.27
653.51	1086.16
653.85	1077.31
654.20	1068.53
654.54	1059.54
654.88	1051.17
655.22	1042.16
655.56	1033.28
655.90	1024.24
656.25	1015.77
656.59	1007.27
656.93	998.86
657.27	990.66
657.61	982.03
657.95	974.00
658.29	966.15
658.64	958.17
658.98	949.97
659.32	941.52
659.66	933.62
660.00	925.60
660.34	917.86
660.68	909.96
661.02	902.03
661.36	894.59
661.70	887.12
662.05	880.22
662.39	873.46
662.73	866.65
663.07	859.98
663.41	853.00
663.75	846.26
664.09	839.20
664.43	831.83
664.77	825.38
665.11	818.50
665.45	811.79
665.79	805.18
666.13	798.50
666.47	792.15
666.81	785.61
667.15	779.26
667.49	773.62
667.83	767.74
668.17	761.83
668.51	756.05
668.85	750.49
669.19	744.69
669.53	738.70
669.87	732.75
670.21	726.93
670.55	721.23
670.89	715.85
671.23	710.83
671.57	705.73
671.91	700.29
672.25	694.94
672.58	689.76
672.92	684.55
673.26	679.75
673.60	674.80
673.94	669.85
674.28	665.02
674.62	660.12
674.96	655.27
675.30	650.69
675.64	645.63
675.97	640.67
676.31	636.01
676.65	631.53
676.99	627.39
677.33	622.95
677.67	618.50
678.01	613.80
678.34	609.18
678.68	604.76
679.02	600.28
679.36	596.06
679.70	591.73
680.04	587.42
680.37	582.93
680.71	578.69
681.05	574.79
681.39	570.81
681.73	566.75
682.06	563.03
682.40	559.13
682.74	555.31
683.08	551.36
683.42	547.41
683.75	543.55
684.09	539.57
684.43	535.76
684.77	531.90
685.10	528.32
685.44	524.66
685.78	521.05
686.12	517.80
686.45	514.30
686.79	510.90
687.13	507.56
687.46	504.34
687.80	501.05
688.14	497.55
688.48	494.35
688.81	490.86
689.15	487.38
689.49	483.95
689.82	480.50
690.16	477.14
690.50	473.71
690.83	470.39
691.17	467.14
691.51	463.95
691.84	461.05
692.18	458.16
692.52	455.18
692.85	452.53
693.19	449.68
693.52	446.75
693.86	443.74
694.20	440.90
694.53	437.99
694.87	435.02
695.21	432.12
695.54	429.01
695.88	426.15
696.21	423.45
696.55	420.79
696.88	418.27
697.22	415.73
697.56	413.34
697.89	410.81
698.23	408.27
698.56	405.74
698.90	403.41
699.23	400.73
699.57	398.32
699.90	395.74
700.24	393.23
700.58	390.84
700.91	388.67
701.25	386.59
701.58	384.44
701.92	382.34
702.25	380.20
702.59	378.27
702.92	376.33
703.26	374.22
703.59	372.38
703.93	370.75
704.26	368.80
704.60	366.87
704.93	364.96
705.26	363.01
705.60	361.26
705.93	359.24
706.27	357.56
706.60	355.90
706.94	354.27
707.27	352.35
707.61	350.67
707.94	348.83
708.27	346.77
708.61	344.97
708.94	343.27
709.28	341.73
709.61	340.02
709.94	338.36
710.28	336.84
710.61	335.27
710.95	333.29
711.28	332.05
711.61	330.52
711.95	329.11
712.28	327.75
712.61	326.26
712.95	325.00
713.28	323.75
713.61	322.30
713.95	320.80
714.28	319.61
714.61	318.29
714.95	316.98
715.28	315.70
715.61	314.41
715.95	313.16
716.28	311.82
716.61	310.63
716.95	309.45
717.28	308.24
717.61	307.02
717.94	305.91
718.28	304.61
718.61	303.42
718.94	302.24
719.27	301.09
719.61	300.06
719.94	298.97
720.27	297.70
720.60	296.68
720.94	295.68
721.27	294.73
721.60	293.82
721.93	292.89
722.27	292.09
722.60	291.25
722.93	290.34
723.26	289.49
723.59	288.60
723.93	287.71
724.26	286.95
724.59	286.08
724.92	285.27
725.25	284.45
725.59	283.65
725.92	282.95
726.25	282.28
726.58	281.50
726.91	280.70
727.24	280.01
727.57	279.18
727.91	278.30
728.24	277.57
728.57	276.72
728.90	276.10
729.23	275.31
729.56	274.67
729.89	273.95
730.22	273.18
730.55	272.39
730.89	271.75
731.22	270.94
731.55	270.17
731.88	269.56
732.21	268.88
732.54	268.22
732.87	267.51
733.20	266.80
733.53	266.10
733.86	265.48
734.19	264.87
734.52	264.38
734.85	264.13
735.18	263.50
735.51	263.03
735.84	262.45
736.17	261.99
736.50	261.27
736.83	261.08
737.16	260.60
737.49	260.12
737.82	259.53
738.15	259.09
738.48	258.55
738.81	257.99
739.14	257.36
739.47	256.74
739.80	256.13
740.13	255.51
740.46	255.00
740.79	254.49
741.12	253.84
741.45	253.20
741.78	252.46
742.11	252.03
742.44	251.45
742.77	251.07
743.10	250.53
743.43	250.09
743.75	249.34
744.08	249.31
744.41	248.82
744.74	248.33
745.07	247.82
745.40	247.48
745.73	247.24
746.06	246.81
746.39	246.49
746.71	246.17
747.04	245.82
747.37	245.42
747.70	245.03
748.03	244.74
748.36	244.45
748.68	243.99
749.01	243.44
749.34	243.09
749.67	242.70
750.00	242.35
750.33	242.19
750.65	241.82
750.98	240.98
751.31	240.64
751.64	240.32
751.97	240.23
752.29	239.86
752.62	239.31
752.95	239.04
753.28	238.68
753.60	238.32
753.93	238.15
754.26	237.91
754.59	237.52
754.91	237.16
755.24	236.84
755.57	236.62
755.90	236.44
756.22	236.08
756.55	235.68
756.88	235.38
757.20	234.85
757.53	234.41
757.86	234.13
758.19	233.85
758.51	233.61
758.84	233.05
759.17	232.78
759.49	232.62
759.82	232.48
760.15	232.30
760.47	231.98
760.80	231.61
761.13	231.33
761.45	231.09
761.78	230.81
762.11	230.55
762.43	230.26
762.76	229.96
763.08	229.81
763.41	229.58
763.74	229.42
764.06	229.27
764.39	229.11
764.71	228.92
765.04	228.60
765.37	228.37
765.69	228.15
766.02	227.97
766.34	227.70
766.67	227.36
767.00	227.23
767.32	227.27
767.65	227.24
767.97	227.04
768.30	226.85
768.62	226.73
768.95	226.59
769.27	226.43
769.60	226.36
769.92	226.11
770.25	225.91
770.57	225.55
770.90	225.33
771.22	225.13
771.55	224.98
771.87	224.94
772.20	224.78
772.52	224.96
772.85	225.17
773.17	224.98
773.50	224.73
773.82	224.51
774.15	224.19
774.47	223.79
774.80	223.59
775.12	223.48
775.45	223.35
775.77	223.16
776.09	223.09
776.42	222.94
776.74	222.90
777.07	222.75
777.39	222.71
777.72	222.59
778.04	222.53
778.36	222.40
778.69	222.29
779.01	222.18
779.33	221.74
779.66	221.26
779.98	221.13
780.31	221.13
780.63	221.18
780.95	221.19
781.28	221.13
781.60	221.05
781.92	220.87
782.25	220.79
782.57	220.69
782.89	220.48
783.22	220.33
783.54	220.21
783.86	220.21
784.19	220.16
784.51	220.18
784.83	220.04
785.16	219.98
785.48	219.93
785.80	219.91
786.12	219.87
786.45	219.81
786.77	219.79
787.09	219.72
787.42	219.48
787.74	219.32
788.06	219.27
788.38	219.19
788.71	219.15
789.03	219.11
789.35	219.09
789.67	219.10
789.99	219.07
790.32	218.97
790.64	218.94
790.96	219.15
791.28	218.94
791.61	218.96
791.93	218.91
792.25	218.84
792.57	219.06
792.89	218.94
793.21	218.91
793.54	218.83
793.86	218.73
794.18	218.68
794.50	218.58
794.82	218.56
795.14	218.62
795.47	218.63
795.79	218.50
796.11	218.38
796.43	218.30
796.75	218.27
797.07	218.17
797.39	218.06
797.71	217.69
798.04	217.71
798.36	217.62
798.68	217.51
799.00	217.46
799.32	217.18
799.64	217.19
799.96	217.09
800.28	217.10
800.60	217.03
800.92	217.04
801.24	216.97
801.56	216.89
801.89	216.71
802.21	216.71
802.53	216.73
802.85	216.77
803.17	216.92
803.49	216.81
803.81	216.80
804.13	216.76
804.45	216.67
804.77	216.61
805.09	216.58
805.41	216.53
805.73	216.37
806.05	216.18
806.37	216.20
806.69	216.11
807.01	216.05
807.33	216.04
807.65	215.83
807.97	215.92
808.28	215.84
808.60	215.77
808.92	215.61
809.24	215.71
809.56	215.61
809.88	215.40
810.20	215.43
810.52	215.45
810.84	215.35
811.16	215.41
811.48	215.34
811.80	215.35
812.12	215.31
812.43	215.40
812.75	215.42
813.07	215.29
813.39	215.34
813.71	215.19
814.03	215.14
814.35	215.15
814.67	215.00
814.98	215.00
815.30	215.07
815.62	214.98
815.94	214.72
816.26	214.73
816.58	214.66
816.89	214.59
817.21	214.47
817.53	214.46
817.85	214.38
818.17	214.35
818.48	214.21
818.80	214.24
819.12	214.15
819.44	214.12
819.76	214.05
820.07	213.98
820.39	213.95
820.71	213.92
821.03	213.87
821.34	213.80
821.66	213.76
821.98	213.73
822.30	213.80
822.61	213.91
822.93	213.80
823.25	213.72
823.57	213.70
823.88	213.75
824.20	213.68
824.52	213.75
824.83	213.75
825.15	213.74
825.47	213.64
825.79	213.68
826.10	213.61
826.42	213.65
826.74	213.69
827.05	213.70
827.37	213.69
827.69	213.69
828.00	213.73
828.32	213.73
828.64	213.74
828.95	213.98
829.27	213.98
829.58	213.98
829.90	214.06
830.22	214.11
830.53	214.00
830.85	214.03
831.17	213.86
831.48	213.84
831.80	213.80
832.11	213.83
832.43	213.80
832.75	213.82
833.06	214.01
833.38	213.85
833.69	213.86
834.01	213.88
834.32	213.84
834.64	213.80
834.96	213.86
835.27	213.81
835.59	213.61
835.90	213.49
836.22	213.53
836.53	213.45
836.85	213.43
837.16	213.76
837.48	213.74
837.79	213.93
838.11	213.91
838.42	213.92
838.74	213.93
839.05	213.84
839.37	213.81
839.68	213.57
840.00	213.64
840.31	213.68
840.63	213.59
840.94	213.55
841.26	213.52
841.57	213.45
841.88	213.49
842.20	213.46
842.51	213.41
842.83	213.35
843.14	213.66
843.46	213.61
843.77	213.48
844.08	213.45
844.40	213.33
844.71	213.28
845.03	213.28
845.34	213.30
845.65	213.24
845.97	213.17
846.28	213.21
846.60	213.14
846.91	213.07
847.22	213.08
847.54	213.14
847.85	213.11
848.16	213.14
848.48	212.99
848.79	213.04
849.10	213.13
849.42	213.16
849.73	212.79
850.04	212.78
850.36	212.55
850.67	212.61
850.98	212.56
851.30	212.61
851.61	212.60
851.92	212.57
852.23	212.69
852.55	212.78
852.86	212.76
853.17	212.79
853.49	212.88
853.80	212.90
854.11	212.96
854.42	212.98
854.74	212.91
855.05	212.87
855.36	212.66
855.67	212.57
855.99	212.51
856.30	212.82
856.61	212.78
856.92	212.76
857.23	212.72
857.55	212.70
857.86	212.69
858.17	212.67
858.48	212.56
858.79	212.45
859.11	212.44
859.42	212.40
859.73	212.32
860.04	212.30
860.35	212.23
860.66	212.18
860.98	212.20
861.29	212.22
861.60	212.29
861.91	212.35
862.22	212.33
862.53	212.30
862.84	211.93
863.16	212.02
863.47	212.00
863.78	212.00
864.09	211.96
864.40	211.90
864.71	211.88
865.02	211.97
865.33	211.96
865.64	211.90
865.95	211.85
866.27	212.08
866.58	212.09
866.89	212.09
867.20	212.02
867.51	211.97
867.82	211.98
868.13	212.09
868.44	212.06
868.75	212.19
869.06	212.20
869.37	212.30
869.68	212.19
869.99	212.17
870.30	212.18
870.61	212.34
870.92	212.33
871.23	212.37
871.54	212.39
871.85	212.50
872.16	212.50
872.47	212.52
872.78	212.40
873.09	212.37
873.40	212.40
873.71	212.44
874.02	212.49
874.33	212.44
874.64	212.35
874.95	212.44
875.26	212.28
875.56	212.33
875.87	212.30
876.18	212.23
876.49	212.57
876.80	212.53
877.11	212.39
877.42	212.45
877.73	212.45
878.04	212.40
878.35	212.39
878.66	212.40
878.96	212.38
879.27	212.29
879.58	212.27
879.89	212.19
880.20	212.27
880.51	212.23
880.82	212.24
881.12	212.26
881.43	212.17
881.74	212.18
882.05	212.11
882.36	212.19
882.67	212.30
882.97	211.96
883.28	211.95
883.59	211.98
883.90	212.05
884.21	212.10
884.51	212.12
884.82	212.04
885.13	212.12
885.44	212.06
885.74	212.05
886.05	212.06
886.36	212.14
886.67	212.00
886.98	212.16
887.28	212.26
887.59	212.28
887.90	212.22
888.20	212.16
888.51	212.30
888.82	212.23
889.13	212.16
889.43	212.50
889.74	212.52
890.05	212.52
890.35	212.46
890.66	212.35
890.97	212.30
891.28	212.27
891.58	212.25
891.89	212.31
892.20	212.34
892.50	212.28
892.81	212.26
893.12	212.26
893.42	212.05
893.73	211.94
894.04	211.92
894.34	212.04
894.65	212.10
894.95	211.98
895.26	211.99
895.57	212.24
895.87	211.86
896.18	211.87
896.48	211.89
896.79	211.82
897.10	211.90
897.40	211.93
897.71	212.01
898.01	211.99
898.32	212.06
898.63	212.07
898.93	212.07
899.24	212.10
899.54	212.10
899.85	212.15
900.15	212.17
900.46	212.11
900.76	212.11
901.07	212.07
901.38	212.09
901.68	212.13
901.99	211.97
902.29	212.05
902.60	212.04
902.90	212.02
903.21	212.08
903.51	212.01
903.82	212.12
904.12	212.11
904.43	212.02
904.73	211.97
905.03	211.94
905.34	212.25
905.64	212.18
905.95	212.16
906.25	212.16
906.56	212.14
906.86	212.18
907.17	212.20
907.47	212.26
907.77	212.20
908.08	212.14
908.38	212.07
908.69	211.97
908.99	212.03
909.30	211.98
909.60	211.87
909.90	211.85
910.21	211.68
910.51	211.58
910.81	211.57
911.12	211.58
911.42	211.56
911.73	211.29
912.03	211.26
912.33	211.39
912.64	211.37
912.94	211.34
913.24	211.29
913.55	211.26
913.85	211.22
914.15	211.35
914.46	211.40
914.76	211.44
915.06	211.47
915.37	211.40
915.67	211.38
915.97	211.49
916.27	211.46
916.58	211.46
916.88	211.49
917.18	211.52
917.49	211.75
917.79	211.84
918.09	211.87
918.39	212.00
918.70	211.94
919.00	211.99
919.30	212.08
919.60	212.04
919.91	211.98
920.21	211.99
920.51	211.90
920.81	211.78
921.12	211.81
921.42	211.85
921.72	211.88
922.02	211.95
922.32	211.94
922.63	211.96
922.93	212.21
923.23	212.20
923.53	212.24
923.83	212.03
924.13	212.02
924.44	212.06
924.74	212.09
925.04	212.18
925.34	212.05
925.64	211.97
925.94	211.95
926.24	212.14
926.55	212.11
926.85	212.16
927.15	212.18
927.45	212.19
927.75	212.25
928.05	212.21
928.35	212.19
928.65	212.22
928.95	212.28
929.26	212.15
929.56	212.25
929.86	212.24
930.16	212.18
930.46	212.10
930.76	212.05
931.06	211.89
931.36	211.84
931.66	212.07
931.96	212.13
932.26	212.17
932.56	212.00
932.86	212.06
933.16	212.04
933.46	212.03
933.76	212.01
934.06	212.05
934.36	212.20
934.66	212.16
934.96	212.13
935.26	212.09
935.56	212.12
935.86	212.00
936.16	212.02
936.46	212.00
936.76	211.96
937.06	211.95
937.36	212.01
937.66	212.00
937.96	211.92
938.26	211.85
938.56	211.89
938.86	212.00
939.16	212.01
939.46	212.00
939.76	212.07
940.06	211.98
940.35	211.88
940.65	211.74
940.95	211.82
941.25	211.78
941.55	211.73
941.85	211.66
942.15	211.77
942.45	211.82
942.75	211.77
943.04	211.88
943.34	211.83
943.64	211.78
943.94	211.71
944.24	211.60
944.54	211.62
944.84	211.53
945.13	211.38
945.43	211.34
945.73	211.34
946.03	211.25
946.33	211.27
946.62	211.25
946.92	211.24
947.22	211.26
947.52	211.24
947.82	211.27
948.11	211.27
948.41	211.11
948.71	211.05
949.01	211.12
949.31	211.05
949.60	211.04
949.90	211.10
950.20	211.10
950.50	211.17
950.79	211.09
951.09	211.20
951.39	211.25
951.69	211.20
951.98	211.26
952.28	211.36
952.58	211.35
952.87	211.34
953.17	211.47
953.47	211.31
953.76	211.29
954.06	211.29
954.36	211.27
954.66	211.35
954.95	211.33
955.25	211.36
955.55	211.37
955.84	211.36
956.14	211.32
956.44	211.40
956.73	211.36
957.03	211.43
957.32	211.43
957.62	211.46
957.92	211.53
958.21	211.46
958.51	211.80
958.81	211.80
959.10	211.87
959.40	211.85
959.69	211.97
959.99	212.07
960.29	212.08
960.58	212.06
960.88	212.17
961.17	212.21
961.47	212.22
961.76	212.22
962.06	212.32
962.36	212.40
962.65	212.26
962.95	212.26
963.24	212.26
963.54	212.25
963.83	212.24
964.13	212.23
964.42	212.23
964.72	211.98
965.01	212.02
965.31	211.98
965.60	211.86
965.90	212.05
966.19	211.94
966.49	211.99
966.78	211.94
967.08	211.92
967.37	212.02
967.67	212.01
967.96	212.11
968.26	212.05
968.55	212.05
968.85	212.17
969.14	212.20
969.43	212.15
969.73	212.13
970.02	212.15
970.32	212.20
970.61	212.18
970.91	212.08
971.20	212.03
971.49	211.95
971.79	212.01
972.08	211.72
972.38	211.83
972.67	211.71
972.96	211.80
973.26	211.70
973.55	211.74
973.85	211.62
974.14	211.61
974.43	211.61
974.73	211.59
975.02	211.50
975.31	211.48
975.61	211.47
975.90	211.45
976.19	211.38
976.49	211.31
976.78	211.33
977.07	211.34
977.37	211.35
977.66	211.41
977.95	211.30
978.24	211.38
978.54	211.39
978.83	211.40
979.12	211.36
979.42	211.35
979.71	211.25
980.00	211.35
980.29	211.30
980.59	211.24
980.88	211.29
981.17	211.26
981.46	211.21
981.76	211.25
982.05	211.24
982.34	211.21
982.63	211.15
982.93	211.15
983.22	211.19
983.51	211.19
983.80	211.21
984.09	211.38
984.39	211.30
984.68	211.21
984.97	211.27
985.26	211.23
985.55	211.32
985.85	211.27
986.14	211.25
986.43	211.27
986.72	211.28
987.01	211.19
987.30	211.20
987.59	211.24
987.89	211.29
988.18	211.29
988.47	211.28
988.76	211.36
989.05	211.29
989.34	211.27
989.63	211.39
989.92	211.37
990.22	211.31
990.51	211.32
990.80	211.31
991.09	211.25
991.38	211.33
991.67	211.24
991.96	211.22
992.25	211.25
992.54	211.20
992.83	211.15
993.12	211.06
993.41	211.15
993.70	211.28
993.99	211.32
994.28	211.38
994.58	211.43
994.87	211.39
995.16	211.45
995.45	211.39
995.74	211.26
996.03	211.30
996.32	211.33
996.61	211.48
996.90	211.50
997.19	211.54
997.48	211.54
997.77	211.47
998.06	211.47
998.34	211.50
998.63	211.49
998.92	211.59
999.21	211.65
999.50	211.66
999.79	211.57
1000.08	211.54
1000.37	211.51
1000.66	211.49
1000.95	211.57
1001.24	211.53
1001.53	211.59
1001.82	211.61
1002.11	211.50
1002.40	211.50
1002.68	211.50
1002.97	211.68
1003.26	211.66
1003.55	211.58
1003.84	211.66
1004.13	211.85
1004.42	211.80
1004.71	211.86
1004.99	211.86
1005.28	211.95
1005.57	211.94
1005.86	211.88
1006.15	211.92
1006.44	211.93
1006.72	212.00
1007.01	211.96
1007.30	211.98
1007.59	211.97
1007.88	211.96
1008.17	212.07
1008.45	212.02
1008.74	211.89
1009.03	211.79
1009.32	211.80
1009.60	211.78
1009.89	211.73
1010.18	211.55
1010.47	211.50
1010.76	211.41
1011.04	211.40
1011.33	211.42
1011.62	211.41
1011.91	211.44
1012.19	211.36
1012.48	211.32
1012.77	211.22
1013.05	211.35
1013.34	211.41
1013.63	211.33
1013.92	211.35
1014.20	211.26
1014.49	211.26
1014.78	211.30
1015.06	211.19
1015.35	211.23
1015.64	211.30
1015.92	211.36
1016.21	211.36
1016.50	211.38
1016.78	211.46
1017.07	211.45
1017.36	211.37
1017.64	211.29
1017.93	211.23
1018.22	211.18
1018.50	211.12
1018.79	211.19
1019.08	210.99
1019.36	210.90
1019.65	210.88
1019.93	210.94
1020.22	210.94
1020.51	211.17
1020.79	211.15
1021.08	210.35
1021.36	209.65
1021.65	211.60
1021.94	210.20
1022.22	210.20
1022.51	209.90
1022.79	212.85
1023.08	210.65
1023.36	216.45
1023.65	210.55
>>>>>End Processed Spectral Data<<<<<
