SpectraSuite Data File
++++++++++++++++++++++++++++++++++++
Date: Mon Feb 25 17:05:17 EST 2013
User: group
Dark Spectrum Present: No
Reference Spectrum Present: No
Number of Sampled Component Spectra: 1
Spectrometers: USB2E7196
Integration Time (usec): 104000 (USB2E7196)
Spectra Averaged: 20 (USB2E7196)
Boxcar Smoothing: 10 (USB2E7196)
Correct for Electrical Dark: No (USB2E7196)
Strobe/Lamp Enabled: No (USB2E7196)
Correct for Detector Non-linearity: No (USB2E7196)
Correct for Stray Light: No (USB2E7196)
Number of Pixels in Processed Spectrum: 2048
>>>>>Begin Processed Spectral Data<<<<<
339.09	0.00
339.48	197.60
339.86	199.60
340.24	201.05
340.63	202.00
341.01	209.70
341.39	204.10
341.78	207.30
342.16	208.55
342.54	208.45
342.93	198.20
343.31	208.17
343.69	208.75
344.07	209.27
344.46	209.72
344.84	210.14
345.22	210.15
345.60	210.41
345.99	210.60
346.37	210.68
346.75	210.75
347.13	210.77
347.52	210.79
347.90	210.88
348.28	210.89
348.66	210.89
349.05	210.71
349.43	210.70
349.81	210.70
350.19	210.69
350.57	210.68
350.96	210.73
351.34	210.82
351.72	210.90
352.10	210.91
352.48	210.90
352.87	210.91
353.25	210.95
353.63	211.02
354.01	211.01
354.39	211.12
354.77	211.13
355.15	211.33
355.54	211.28
355.92	211.21
356.30	211.23
356.68	211.52
357.06	211.57
357.44	211.59
357.82	211.66
358.20	211.76
358.58	211.82
358.97	211.91
359.35	212.03
359.73	212.12
360.11	212.14
360.49	212.22
360.87	212.21
361.25	212.35
361.63	212.41
362.01	212.50
362.39	212.44
362.77	212.56
363.15	212.51
363.53	212.56
363.91	212.61
364.29	212.53
364.67	212.13
365.05	212.20
365.43	212.22
365.81	212.22
366.19	212.32
366.57	212.42
366.95	212.39
367.33	212.33
367.71	212.33
368.09	212.40
368.47	212.39
368.85	212.39
369.23	212.38
369.61	212.26
369.99	212.34
370.37	212.40
370.75	212.56
371.13	212.46
371.51	212.41
371.89	212.38
372.27	212.43
372.65	212.45
373.03	212.40
373.41	212.42
373.78	212.38
374.16	212.17
374.54	212.01
374.92	211.88
375.30	211.85
375.68	211.72
376.06	211.69
376.44	211.62
376.82	211.62
377.19	211.66
377.57	211.68
377.95	211.53
378.33	211.41
378.71	211.13
379.09	211.09
379.47	211.13
379.84	211.01
380.22	210.91
380.60	210.92
380.98	210.88
381.36	210.89
381.73	210.72
382.11	210.83
382.49	210.79
382.87	210.74
383.25	210.68
383.62	211.02
384.00	210.89
384.38	210.90
384.76	210.91
385.13	210.95
385.51	210.88
385.89	210.81
386.27	210.80
386.64	210.79
387.02	210.79
387.40	210.68
387.78	210.70
388.15	210.76
388.53	210.68
388.91	210.67
389.29	210.59
389.66	210.67
390.04	210.58
390.42	210.65
390.79	210.64
391.17	210.61
391.55	210.19
391.92	210.21
392.30	210.17
392.68	210.06
393.05	209.95
393.43	210.00
393.81	210.01
394.18	209.97
394.56	210.01
394.94	210.10
395.31	210.09
395.69	210.19
396.06	210.18
396.44	210.30
396.82	210.30
397.19	210.47
397.57	210.48
397.95	210.56
398.32	210.42
398.70	210.53
399.07	210.57
399.45	210.65
399.82	210.65
400.20	210.65
400.58	210.70
400.95	210.58
401.33	210.67
401.70	210.91
402.08	210.96
402.45	210.97
402.83	210.98
403.20	210.95
403.58	210.93
403.95	211.03
404.33	211.04
404.71	211.11
405.08	211.42
405.46	211.46
405.83	211.61
406.21	211.78
406.58	211.79
406.96	211.97
407.33	212.09
407.70	212.26
408.08	212.71
408.45	212.89
408.83	213.22
409.20	213.36
409.58	213.35
409.95	213.58
410.33	213.83
410.70	214.09
411.08	214.55
411.45	214.90
411.82	215.23
412.20	215.63
412.57	216.21
412.95	216.26
413.32	216.79
413.69	217.15
414.07	217.67
414.44	218.26
414.82	218.90
415.19	219.56
415.56	220.30
415.94	220.87
416.31	221.75
416.68	222.54
417.06	223.46
417.43	224.50
417.81	225.61
418.18	226.73
418.55	227.83
418.93	228.99
419.30	230.20
419.67	231.51
420.04	232.86
420.42	234.20
420.79	236.01
421.16	237.63
421.54	239.52
421.91	241.20
422.28	243.08
422.66	244.99
423.03	247.11
423.40	249.11
423.77	251.17
424.15	253.28
424.52	255.53
424.89	258.03
425.26	260.29
425.64	262.49
426.01	264.93
426.38	267.52
426.75	270.16
427.13	272.95
427.50	275.77
427.87	278.82
428.24	281.79
428.61	284.55
428.99	287.80
429.36	291.02
429.73	294.53
430.10	297.93
430.47	301.42
430.85	304.91
431.22	308.72
431.59	312.93
431.96	316.80
432.33	321.15
432.70	325.27
433.08	330.19
433.45	334.93
433.82	339.70
434.19	344.94
434.56	350.18
434.93	355.08
435.30	359.99
435.68	365.33
436.05	370.64
436.42	376.08
436.79	381.04
437.16	386.55
437.53	392.02
437.90	397.54
438.27	403.03
438.64	408.64
439.01	414.02
439.38	418.58
439.75	423.15
440.13	428.43
440.50	433.48
440.87	437.65
441.24	441.90
441.61	446.47
441.98	449.97
442.35	454.02
442.72	458.17
443.09	462.35
443.46	464.92
443.83	466.84
444.20	468.36
444.57	470.50
444.94	471.55
445.31	472.92
445.68	474.51
446.05	475.19
446.42	475.02
446.79	474.78
447.16	474.45
447.53	474.37
447.90	472.54
448.27	470.71
448.64	468.05
449.01	466.35
449.37	463.03
449.74	459.80
450.11	455.95
450.48	451.55
450.85	446.89
451.22	443.01
451.59	439.43
451.96	436.01
452.33	431.35
452.70	427.03
453.07	421.74
453.43	416.20
453.80	411.16
454.17	406.37
454.54	401.57
454.91	396.62
455.28	391.79
455.65	387.34
456.02	383.31
456.38	379.49
456.75	374.53
457.12	370.55
457.49	366.60
457.86	362.53
458.23	359.33
458.59	355.76
458.96	352.20
459.33	348.83
459.70	345.52
460.07	342.87
460.43	339.91
460.80	337.30
461.17	334.80
461.54	332.24
461.91	329.72
462.27	327.22
462.64	325.14
463.01	322.81
463.38	320.55
463.74	317.75
464.11	315.79
464.48	314.15
464.85	312.18
465.21	310.70
465.58	309.08
465.95	307.19
466.32	305.71
466.68	304.04
467.05	302.46
467.42	300.91
467.78	299.27
468.15	297.75
468.52	296.60
468.88	295.06
469.25	293.67
469.62	292.68
469.98	291.62
470.35	290.50
470.72	289.41
471.08	288.29
471.45	287.43
471.82	286.51
472.18	285.46
472.55	284.68
472.92	283.61
473.28	282.87
473.65	281.92
474.02	281.06
474.38	280.59
474.75	280.09
475.11	279.40
475.48	278.93
475.85	278.53
476.21	277.97
476.58	277.61
476.94	277.26
477.31	276.76
477.67	276.30
478.04	275.97
478.41	275.69
478.77	275.75
479.14	275.47
479.50	275.28
479.87	275.19
480.23	275.10
480.60	275.15
480.96	275.09
481.33	275.33
481.69	275.27
482.06	275.19
482.42	275.11
482.79	275.13
483.15	275.22
483.52	275.34
483.88	275.45
484.25	275.59
484.61	275.74
484.98	275.94
485.34	276.39
485.71	276.72
486.07	277.10
486.44	277.08
486.80	277.43
487.17	277.73
487.53	278.16
487.90	278.77
488.26	279.33
488.62	279.98
488.99	280.42
489.35	281.14
489.72	281.77
490.08	282.50
490.44	283.27
490.81	284.12
491.17	284.82
491.54	285.70
491.90	286.58
492.26	287.55
492.63	288.52
492.99	289.31
493.36	290.27
493.72	291.32
494.08	292.37
494.45	293.44
494.81	294.72
495.17	295.86
495.54	296.92
495.90	298.02
496.26	299.10
496.63	300.27
496.99	301.44
497.35	302.64
497.72	303.88
498.08	305.05
498.44	306.29
498.80	307.67
499.17	308.96
499.53	310.26
499.89	311.63
500.26	312.87
500.62	314.20
500.98	315.68
501.34	316.94
501.71	318.36
502.07	319.74
502.43	320.98
502.79	322.09
503.16	323.37
503.52	324.71
503.88	325.87
504.24	327.20
504.60	328.42
504.97	329.79
505.33	331.02
505.69	332.51
506.05	333.68
506.41	334.85
506.78	335.99
507.14	337.06
507.50	338.08
507.86	339.28
508.22	340.41
508.59	341.26
508.95	342.33
509.31	343.51
509.67	344.57
510.03	345.51
510.39	346.71
510.75	347.63
511.12	348.50
511.48	349.51
511.84	350.38
512.20	351.39
512.56	352.28
512.92	353.24
513.28	354.03
513.64	354.86
514.00	355.82
514.37	356.65
514.73	357.55
515.09	358.49
515.45	359.16
515.81	359.93
516.17	360.76
516.53	361.57
516.89	362.25
517.25	362.90
517.61	363.85
517.97	364.55
518.33	365.36
518.69	366.24
519.05	367.10
519.41	367.97
519.77	369.00
520.13	369.87
520.49	370.69
520.85	371.50
521.21	372.64
521.57	373.51
521.93	374.43
522.29	375.45
522.65	376.35
523.01	377.50
523.37	378.46
523.73	379.65
524.09	380.71
524.45	381.84
524.81	382.97
525.17	384.12
525.53	385.49
525.89	386.76
526.25	388.20
526.61	389.44
526.97	390.85
527.33	392.17
527.68	393.88
528.04	395.43
528.40	397.03
528.76	398.46
529.12	400.26
529.48	402.13
529.84	403.84
530.20	405.80
530.56	407.69
530.91	409.76
531.27	411.65
531.63	413.75
531.99	415.62
532.35	417.89
532.71	419.97
533.07	422.24
533.42	424.87
533.78	426.92
534.14	429.33
534.50	431.50
534.86	433.81
535.21	435.88
535.57	438.25
535.93	440.60
536.29	443.21
536.65	445.65
537.00	447.87
537.36	450.32
537.72	452.55
538.08	455.02
538.44	457.53
538.79	460.11
539.15	462.67
539.51	465.41
539.87	468.07
540.22	470.79
540.58	473.38
540.94	475.75
541.29	478.51
541.65	481.18
542.01	484.03
542.37	486.80
542.72	489.56
543.08	492.31
543.44	495.14
543.79	497.44
544.15	500.12
544.51	503.20
544.87	506.03
545.22	509.01
545.58	511.80
545.94	514.52
546.29	517.29
546.65	519.96
547.01	522.73
547.36	525.50
547.72	528.11
548.07	530.83
548.43	533.48
548.79	536.01
549.14	538.57
549.50	541.27
549.86	543.67
550.21	546.28
550.57	548.99
550.92	551.50
551.28	554.26
551.64	556.74
551.99	559.09
552.35	561.54
552.70	563.86
553.06	566.27
553.41	568.68
553.77	571.20
554.13	573.66
554.48	576.08
554.84	578.36
555.19	580.89
555.55	583.34
555.90	585.45
556.26	587.70
556.61	589.89
556.97	591.77
557.32	594.01
557.68	596.04
558.03	597.98
558.39	599.80
558.74	601.91
559.10	603.94
559.45	606.01
559.81	608.15
560.16	610.05
560.52	612.15
560.87	614.16
561.23	615.93
561.58	617.95
561.94	619.67
562.29	621.42
562.64	623.11
563.00	624.74
563.35	626.64
563.71	628.55
564.06	630.14
564.42	632.01
564.77	633.60
565.12	635.36
565.48	637.43
565.83	639.27
566.19	640.93
566.54	642.29
566.89	643.80
567.25	645.25
567.60	646.78
567.96	648.27
568.31	649.60
568.66	650.89
569.02	651.76
569.37	652.74
569.72	653.85
570.08	654.70
570.43	655.39
570.78	656.28
571.14	656.89
571.49	657.71
571.84	658.39
572.20	659.09
572.55	659.65
572.90	659.61
573.26	659.81
573.61	659.91
573.96	660.50
574.31	660.38
574.67	660.43
575.02	660.49
575.37	660.18
575.72	659.89
576.08	659.89
576.43	659.85
576.78	659.76
577.13	659.68
577.49	659.71
577.84	659.87
578.19	659.66
578.54	659.70
578.90	659.71
579.25	659.68
579.60	659.41
579.95	659.01
580.30	659.07
580.66	659.06
581.01	658.88
581.36	658.22
581.71	658.12
582.06	658.05
582.42	657.76
582.77	657.40
583.12	657.33
583.47	657.02
583.82	656.78
584.17	656.58
584.53	656.26
584.88	655.81
585.23	655.40
585.58	655.00
585.93	654.49
586.28	654.25
586.63	653.73
586.98	653.44
587.34	653.47
587.69	652.87
588.04	652.37
588.39	652.17
588.74	651.83
589.09	651.49
589.44	650.72
589.79	650.25
590.14	649.84
590.49	649.22
590.84	648.50
591.19	648.13
591.54	647.43
591.89	646.52
592.25	646.07
592.60	645.27
592.95	644.27
593.30	643.48
593.65	642.36
594.00	641.43
594.35	641.22
594.70	639.99
595.05	639.17
595.40	638.19
595.75	636.94
596.10	636.11
596.45	635.23
596.80	634.55
597.15	633.68
597.50	632.69
597.85	631.95
598.19	631.10
598.54	630.22
598.89	629.39
599.24	628.78
599.59	627.80
599.94	626.95
600.29	626.35
600.64	625.36
600.99	624.52
601.34	623.76
601.69	622.23
602.04	621.24
602.39	620.20
602.74	619.40
603.08	618.78
603.43	618.10
603.78	617.05
604.13	615.94
604.48	615.03
604.83	614.42
605.18	613.56
605.53	612.64
605.87	611.51
606.22	610.66
606.57	609.52
606.92	608.47
607.27	607.25
607.62	606.17
607.96	605.42
608.31	604.50
608.66	603.46
609.01	602.16
609.36	600.98
609.70	599.72
610.05	598.57
610.40	597.29
610.75	595.92
611.10	594.88
611.44	593.42
611.79	591.90
612.14	590.36
612.49	588.59
612.83	587.13
613.18	585.58
613.53	583.98
613.88	582.52
614.22	580.82
614.57	579.37
614.92	577.86
615.27	576.05
615.61	574.31
615.96	572.66
616.31	571.19
616.65	569.87
617.00	568.38
617.35	566.67
617.70	564.90
618.04	563.01
618.39	560.98
618.74	559.60
619.08	558.02
619.43	556.37
619.78	555.00
620.12	553.40
620.47	551.82
620.82	550.05
621.16	548.27
621.51	546.76
621.85	545.24
622.20	543.48
622.55	541.76
622.89	539.99
623.24	538.19
623.59	536.28
623.93	534.37
624.28	532.71
624.62	531.34
624.97	529.85
625.32	528.23
625.66	526.74
626.01	524.94
626.35	523.28
626.70	521.47
627.04	519.92
627.39	518.26
627.73	516.68
628.08	515.24
628.43	513.52
628.77	511.88
629.12	509.94
629.46	508.54
629.81	506.98
630.15	505.27
630.50	503.53
630.84	501.90
631.19	500.40
631.53	498.80
631.88	496.72
632.22	494.87
632.57	493.43
632.91	491.81
633.26	490.15
633.60	488.49
633.95	486.99
634.29	485.15
634.64	483.52
634.98	481.81
635.32	480.13
635.67	478.69
636.01	477.02
636.36	475.40
636.70	473.78
637.05	472.20
637.39	470.81
637.73	469.54
638.08	468.35
638.42	466.93
638.77	465.52
639.11	464.13
639.45	462.56
639.80	460.76
640.14	458.96
640.49	457.32
640.83	455.65
641.17	454.05
641.52	452.37
641.86	450.70
642.20	449.16
642.55	447.45
642.89	445.80
643.23	444.25
643.58	443.05
643.92	441.32
644.26	439.68
644.61	438.05
644.95	436.35
645.29	434.56
645.64	432.85
645.98	431.16
646.32	429.65
646.66	428.03
647.01	426.44
647.35	425.12
647.69	423.48
648.04	422.05
648.38	420.50
648.72	418.99
649.06	417.38
649.41	415.75
649.75	414.15
650.09	412.66
650.43	410.98
650.78	409.20
651.12	407.54
651.46	406.15
651.80	404.68
652.14	403.04
652.49	401.63
652.83	400.11
653.17	398.49
653.51	396.85
653.85	395.47
654.20	394.08
654.54	392.50
654.88	391.09
655.22	389.56
655.56	387.94
655.90	386.41
656.25	384.98
656.59	383.42
656.93	382.02
657.27	380.58
657.61	379.03
657.95	377.46
658.29	376.03
658.64	374.52
658.98	372.93
659.32	371.37
659.66	369.73
660.00	368.12
660.34	366.65
660.68	365.22
661.02	363.69
661.36	362.25
661.70	360.94
662.05	359.60
662.39	358.36
662.73	357.14
663.07	355.99
663.41	354.64
663.75	353.36
664.09	351.98
664.43	350.55
664.77	349.36
665.11	348.13
665.45	346.89
665.79	345.68
666.13	344.51
666.47	343.42
666.81	342.28
667.15	341.09
667.49	340.05
667.83	339.00
668.17	337.89
668.51	336.71
668.85	335.47
669.19	334.52
669.53	333.22
669.87	332.07
670.21	330.74
670.55	329.69
670.89	328.97
671.23	328.05
671.57	327.03
671.91	326.02
672.25	325.03
672.58	324.13
672.92	323.06
673.26	322.20
673.60	321.26
673.94	320.33
674.28	319.49
674.62	318.51
674.96	317.50
675.30	316.45
675.64	315.59
675.97	314.71
676.31	313.71
676.65	312.82
676.99	312.10
677.33	311.25
677.67	310.36
678.01	309.09
678.34	308.21
678.68	307.41
679.02	306.55
679.36	305.69
679.70	304.72
680.04	303.85
680.37	302.84
680.71	301.93
681.05	301.16
681.39	300.28
681.73	299.46
682.06	298.68
682.40	298.06
682.74	297.25
683.08	296.47
683.42	295.53
683.75	294.85
684.09	293.90
684.43	293.17
684.77	292.31
685.10	291.59
685.44	290.67
685.78	289.89
686.12	289.11
686.45	288.32
686.79	287.54
687.13	286.90
687.46	286.20
687.80	285.57
688.14	284.69
688.48	283.98
688.81	283.20
689.15	282.57
689.49	281.73
689.82	281.06
690.16	280.24
690.50	279.56
690.83	278.78
691.17	277.98
691.51	277.23
691.84	276.56
692.18	275.93
692.52	275.40
692.85	274.79
693.19	274.25
693.52	273.65
693.86	273.05
694.20	272.35
694.53	271.66
694.87	270.95
695.21	270.34
695.54	269.74
695.88	269.07
696.21	268.27
696.55	267.66
696.88	267.03
697.22	266.50
697.56	266.02
697.89	265.41
698.23	264.94
698.56	264.39
698.90	263.95
699.23	263.34
699.57	262.80
699.90	262.14
700.24	261.47
700.58	260.93
700.91	260.37
701.25	260.14
701.58	259.76
701.92	259.30
702.25	258.81
702.59	258.27
702.92	257.84
703.26	257.29
703.59	256.79
703.93	256.64
704.26	256.15
704.60	255.72
704.93	255.30
705.26	254.81
705.60	254.47
705.93	253.94
706.27	253.61
706.60	253.22
706.94	253.04
707.27	252.63
707.61	252.27
707.94	251.90
708.27	251.21
708.61	250.70
708.94	250.30
709.28	249.85
709.61	249.37
709.94	248.97
710.28	248.78
710.61	248.53
710.95	247.86
711.28	247.74
711.61	247.23
711.95	246.94
712.28	246.61
712.61	246.27
712.95	246.05
713.28	245.82
713.61	245.42
713.95	244.90
714.28	244.62
714.61	244.23
714.95	243.83
715.28	243.46
715.61	243.13
715.95	242.82
716.28	242.54
716.61	242.35
716.95	242.04
717.28	241.65
717.61	241.34
717.94	240.94
718.28	240.32
718.61	240.01
718.94	239.65
719.27	239.36
719.61	239.01
719.94	238.71
720.27	238.30
720.60	237.96
720.94	237.72
721.27	237.43
721.60	237.23
721.93	236.98
722.27	236.80
722.60	236.60
722.93	236.33
723.26	236.15
723.59	235.81
723.93	235.58
724.26	235.39
724.59	235.05
724.92	234.85
725.25	234.75
725.59	234.59
725.92	234.39
726.25	234.10
726.58	233.87
726.91	233.58
727.24	233.36
727.57	233.17
727.91	232.87
728.24	232.69
728.57	232.48
728.90	232.29
729.23	232.02
729.56	231.99
729.89	231.80
730.22	231.56
730.55	231.37
730.89	231.20
731.22	230.97
731.55	230.83
731.88	230.75
732.21	230.54
732.54	230.29
732.87	230.12
733.20	229.97
733.53	229.86
733.86	229.70
734.19	229.48
734.52	229.39
734.85	229.50
735.18	229.26
735.51	229.14
735.84	229.00
736.17	228.92
736.50	228.54
736.83	228.66
737.16	228.47
737.49	228.34
737.82	228.15
738.15	228.00
738.48	227.80
738.81	227.59
739.14	227.40
739.47	227.21
739.80	227.00
740.13	226.83
740.46	226.55
740.79	226.32
741.12	226.12
741.45	225.87
741.78	225.47
742.11	225.52
742.44	225.29
742.77	225.19
743.10	225.03
743.43	224.91
743.75	224.48
744.08	224.83
744.41	224.57
744.74	224.35
745.07	224.22
745.40	224.14
745.73	224.13
746.06	223.98
746.39	223.89
746.71	223.72
747.04	223.61
747.37	223.46
747.70	223.45
748.03	223.32
748.36	223.27
748.68	223.13
749.01	222.84
749.34	222.71
749.67	222.60
750.00	222.52
750.33	222.56
750.65	222.38
750.98	221.81
751.31	221.80
751.64	221.69
751.97	221.76
752.29	221.54
752.62	221.26
752.95	221.17
753.28	221.08
753.60	220.97
753.93	220.94
754.26	220.86
754.59	220.69
754.91	220.59
755.24	220.46
755.57	220.38
755.90	220.19
756.22	220.08
756.55	219.90
756.88	219.68
757.20	219.42
757.53	219.30
757.86	219.22
758.19	219.15
758.51	219.08
758.84	218.79
759.17	218.75
759.49	218.72
759.82	218.76
760.15	218.70
760.47	218.68
760.80	218.53
761.13	218.53
761.45	218.45
761.78	218.34
762.11	218.22
762.43	218.11
762.76	218.05
763.08	218.03
763.41	218.01
763.74	218.03
764.06	217.96
764.39	217.85
764.71	217.73
765.04	217.64
765.37	217.62
765.69	217.55
766.02	217.48
766.34	217.32
766.67	217.15
767.00	217.17
767.32	217.25
767.65	217.37
767.97	217.26
768.30	217.18
768.62	217.20
768.95	217.14
769.27	217.04
769.60	217.07
769.92	216.94
770.25	216.76
770.57	216.53
770.90	216.43
771.22	216.41
771.55	216.40
771.87	216.30
772.20	216.22
772.52	216.40
772.85	216.80
773.17	216.87
773.50	216.80
773.82	216.61
774.15	216.38
774.47	216.11
774.80	216.03
775.12	216.00
775.45	215.89
775.77	215.81
776.09	215.85
776.42	215.78
776.74	215.85
777.07	215.88
777.39	215.92
777.72	215.86
778.04	215.81
778.36	215.72
778.69	215.73
779.01	215.72
779.33	215.39
779.66	214.93
779.98	214.78
780.31	214.74
780.63	214.80
780.95	214.83
781.28	214.80
781.60	214.70
781.92	214.66
782.25	214.63
782.57	214.66
782.89	214.66
783.22	214.62
783.54	214.44
783.86	214.40
784.19	214.34
784.51	214.41
784.83	214.31
785.16	214.27
785.48	214.19
785.80	214.15
786.12	214.12
786.45	214.11
786.77	214.15
787.09	214.07
787.42	214.03
787.74	213.94
788.06	213.94
788.38	213.91
788.71	213.78
789.03	213.76
789.35	213.81
789.67	213.67
789.99	213.64
790.32	213.65
790.64	213.70
790.96	213.96
791.28	213.81
791.61	213.82
791.93	213.82
792.25	213.82
792.57	214.01
792.89	213.99
793.21	213.96
793.54	213.83
793.86	213.82
794.18	213.76
794.50	213.68
794.82	213.66
795.14	213.77
795.47	213.86
795.79	213.82
796.11	213.63
796.43	213.59
796.75	213.50
797.07	213.46
797.39	213.36
797.71	213.02
798.04	213.10
798.36	213.17
798.68	213.16
799.00	213.15
799.32	212.95
799.64	213.01
799.96	213.01
800.28	213.09
800.60	213.04
800.92	213.06
801.24	213.05
801.56	213.02
801.89	212.96
802.21	213.00
802.53	212.96
802.85	213.05
803.17	213.23
803.49	213.20
803.81	213.17
804.13	213.15
804.45	213.23
804.77	213.20
805.09	213.17
805.41	213.15
805.73	213.13
806.05	213.03
806.37	212.95
806.69	212.83
807.01	212.78
807.33	212.77
807.65	212.62
807.97	212.73
808.28	212.67
808.60	212.64
808.92	212.56
809.24	212.73
809.56	212.68
809.88	212.50
810.20	212.52
810.52	212.57
810.84	212.53
811.16	212.37
811.48	212.33
811.80	212.38
812.12	212.30
812.43	212.29
812.75	212.23
813.07	212.18
813.39	212.26
813.71	212.22
814.03	212.20
814.35	212.23
814.67	212.03
814.98	212.01
815.30	212.00
815.62	211.90
815.94	211.71
816.26	211.70
816.58	211.68
816.89	211.69
817.21	211.63
817.53	211.57
817.85	211.69
818.17	211.67
818.48	211.60
818.80	211.66
819.12	211.60
819.44	211.60
819.76	211.57
820.07	211.51
820.39	211.46
820.71	211.52
821.03	211.49
821.34	211.51
821.66	211.52
821.98	211.53
822.30	211.55
822.61	211.76
822.93	211.69
823.25	211.67
823.57	211.65
823.88	211.76
824.20	211.84
824.52	211.83
824.83	211.80
825.15	211.72
825.47	211.68
825.79	211.65
826.10	211.68
826.42	211.62
826.74	211.69
827.05	211.68
827.37	211.67
827.69	211.60
828.00	211.68
828.32	211.68
828.64	211.66
828.95	211.87
829.27	211.77
829.58	211.83
829.90	211.94
830.22	211.94
830.53	211.81
830.85	211.75
831.17	211.69
831.48	211.68
831.80	211.71
832.11	211.75
832.43	211.79
832.75	211.78
833.06	212.02
833.38	211.92
833.69	212.05
834.01	212.06
834.32	212.10
834.64	212.02
834.96	212.05
835.27	212.00
835.59	211.85
835.90	211.80
836.22	211.73
836.53	211.63
836.85	211.66
837.16	212.00
837.48	212.01
837.79	212.13
838.11	212.15
838.42	212.12
838.74	212.16
839.05	212.11
839.37	212.10
839.68	211.90
840.00	211.95
840.31	211.85
840.63	211.81
840.94	211.83
841.26	211.80
841.57	211.79
841.88	211.83
842.20	211.74
842.51	211.67
842.83	211.71
843.14	212.02
843.46	212.00
843.77	211.76
844.08	211.73
844.40	211.60
844.71	211.50
845.03	211.52
845.34	211.51
845.65	211.55
845.97	211.47
846.28	211.52
846.60	211.47
846.91	211.45
847.22	211.46
847.54	211.48
847.85	211.50
848.16	211.46
848.48	211.44
848.79	211.58
849.10	211.60
849.42	211.62
849.73	211.28
850.04	211.22
850.36	211.10
850.67	211.15
850.98	211.14
851.30	211.21
851.61	211.18
851.92	211.21
852.23	211.28
852.55	211.32
852.86	211.32
853.17	211.40
853.49	211.50
853.80	211.62
854.11	211.65
854.42	211.81
854.74	211.77
855.05	211.70
855.36	211.56
855.67	211.62
855.99	211.58
856.30	211.96
856.61	212.00
856.92	212.06
857.23	212.15
857.55	212.12
857.86	212.10
858.17	212.09
858.48	211.96
858.79	211.88
859.11	211.94
859.42	211.94
859.73	211.84
860.04	211.79
860.35	211.66
860.66	211.57
860.98	211.44
861.29	211.49
861.60	211.48
861.91	211.55
862.22	211.46
862.53	211.35
862.84	211.05
863.16	211.15
863.47	211.05
863.78	210.93
864.09	210.92
864.40	210.95
864.71	211.04
865.02	211.14
865.33	211.10
865.64	211.01
865.95	210.94
866.27	211.19
866.58	211.10
866.89	211.09
867.20	211.04
867.51	211.00
867.82	210.97
868.13	211.10
868.44	211.04
868.75	211.04
869.06	211.10
869.37	211.09
869.68	210.81
869.99	210.90
870.30	210.95
870.61	211.05
870.92	211.00
871.23	210.87
871.54	210.90
871.85	210.95
872.16	211.02
872.47	211.01
872.78	210.78
873.09	210.85
873.40	210.89
873.71	210.96
874.02	210.95
874.33	210.92
874.64	210.78
874.95	210.86
875.26	210.75
875.56	210.75
875.87	210.65
876.18	210.75
876.49	211.11
876.80	211.11
877.11	210.97
877.42	210.98
877.73	211.01
878.04	210.93
878.35	210.95
878.66	210.88
878.96	210.81
879.27	210.81
879.58	210.78
879.89	210.69
880.20	210.78
880.51	210.83
880.82	210.88
881.12	210.96
881.43	210.87
881.74	210.92
882.05	210.85
882.36	210.88
882.67	210.93
882.97	210.49
883.28	210.37
883.59	210.44
883.90	210.55
884.21	210.57
884.51	210.58
884.82	210.50
885.13	210.57
885.44	210.63
885.74	210.62
886.05	210.61
886.36	210.65
886.67	210.44
886.98	210.58
887.28	210.59
887.59	210.59
887.90	210.60
888.20	210.66
888.51	210.81
888.82	210.77
889.13	210.78
889.43	211.09
889.74	211.15
890.05	211.16
890.35	211.06
890.66	210.99
890.97	210.92
891.28	211.01
891.58	211.03
891.89	211.03
892.20	211.00
892.50	210.98
892.81	210.96
893.12	211.05
893.42	210.87
893.73	210.88
894.04	210.90
894.34	210.93
894.65	210.89
894.95	210.83
895.26	210.90
895.57	211.12
895.87	210.80
896.18	210.90
896.48	210.90
896.79	210.94
897.10	211.02
897.40	211.04
897.71	211.11
898.01	211.04
898.32	211.11
898.63	211.20
898.93	211.29
899.24	211.31
899.54	211.26
899.85	211.28
900.15	211.30
900.46	211.23
900.76	211.24
901.07	211.23
901.38	211.26
901.68	211.26
901.99	211.04
902.29	211.05
902.60	211.00
902.90	211.04
903.21	211.04
903.51	211.09
903.82	211.23
904.12	211.09
904.43	211.13
904.73	211.15
905.03	211.17
905.34	211.45
905.64	211.45
905.95	211.49
906.25	211.53
906.56	211.50
906.86	211.58
907.17	211.65
907.47	211.72
907.77	211.66
908.08	211.67
908.38	211.63
908.69	211.74
908.99	211.75
909.30	211.74
909.60	211.71
909.90	211.79
910.21	211.65
910.51	211.65
910.81	211.70
911.12	211.71
911.42	211.68
911.73	211.36
912.03	211.35
912.33	211.39
912.64	211.31
912.94	211.31
913.24	211.22
913.55	211.12
913.85	211.08
914.15	211.15
914.46	211.21
914.76	211.24
915.06	211.15
915.37	211.11
915.67	211.05
915.97	211.06
916.27	210.90
916.58	210.93
916.88	210.94
917.18	210.93
917.49	211.10
917.79	211.08
918.09	211.12
918.39	211.23
918.70	211.22
919.00	211.26
919.30	211.42
919.60	211.33
919.91	211.34
920.21	211.33
920.51	211.27
920.81	211.22
921.12	211.26
921.42	211.21
921.72	211.23
922.02	211.22
922.32	211.27
922.63	211.30
922.93	211.47
923.23	211.43
923.53	211.39
923.83	211.24
924.13	211.25
924.44	211.23
924.74	211.30
925.04	211.34
925.34	211.35
925.64	211.19
925.94	211.25
926.24	211.47
926.55	211.45
926.85	211.51
927.15	211.50
927.45	211.50
927.75	211.54
928.05	211.57
928.35	211.56
928.65	211.61
928.95	211.62
929.26	211.53
929.56	211.58
929.86	211.49
930.16	211.40
930.46	211.44
930.76	211.43
931.06	211.24
931.36	211.15
931.66	211.19
931.96	211.17
932.26	211.25
932.56	211.08
932.86	211.12
933.16	211.08
933.46	211.05
933.76	211.02
934.06	211.17
934.36	211.26
934.66	211.28
934.96	211.25
935.26	211.23
935.56	211.22
935.86	211.13
936.16	211.15
936.46	211.11
936.76	211.09
937.06	211.00
937.36	211.04
937.66	211.07
937.96	211.04
938.26	210.99
938.56	210.91
938.86	210.83
939.16	210.92
939.46	210.96
939.76	211.02
940.06	211.03
940.35	210.88
940.65	210.70
940.95	210.75
941.25	210.61
941.55	210.54
941.85	210.53
942.15	210.68
942.45	210.80
942.75	210.82
943.04	210.81
943.34	210.95
943.64	210.91
943.94	210.90
944.24	210.90
944.54	210.97
944.84	210.96
945.13	210.97
945.43	210.80
945.73	210.72
946.03	210.65
946.33	210.58
946.62	210.55
946.92	210.55
947.22	210.51
947.52	210.59
947.82	210.70
948.11	210.64
948.41	210.50
948.71	210.34
949.01	210.39
949.31	210.41
949.60	210.37
949.90	210.34
950.20	210.31
950.50	210.34
950.79	210.26
951.09	210.38
951.39	210.36
951.69	210.45
951.98	210.63
952.28	210.65
952.58	210.66
952.87	210.71
953.17	210.72
953.47	210.73
953.76	210.71
954.06	210.64
954.36	210.61
954.66	210.64
954.95	210.78
955.25	210.81
955.55	210.83
955.84	210.77
956.14	210.83
956.44	210.95
956.73	210.86
957.03	210.91
957.32	210.87
957.62	210.87
957.92	210.90
958.21	210.81
958.51	211.21
958.81	211.26
959.10	211.33
959.40	211.45
959.69	211.42
959.99	211.49
960.29	211.52
960.58	211.50
960.88	211.65
961.17	211.57
961.47	211.55
961.76	211.47
962.06	211.55
962.36	211.54
962.65	211.40
962.95	211.45
963.24	211.42
963.54	211.44
963.83	211.50
964.13	211.45
964.42	211.41
964.72	211.09
965.01	211.05
965.31	210.98
965.60	210.86
965.90	211.16
966.19	211.05
966.49	211.06
966.78	211.08
967.08	211.02
967.37	211.10
967.67	211.02
967.96	211.08
968.26	211.01
968.55	211.11
968.85	211.21
969.14	211.23
969.43	211.25
969.73	211.15
970.02	211.10
970.32	211.09
970.61	211.02
970.91	210.97
971.20	210.99
971.49	210.94
971.79	210.93
972.08	210.59
972.38	210.69
972.67	210.58
972.96	210.70
973.26	210.65
973.55	210.71
973.85	210.62
974.14	210.58
974.43	210.65
974.73	210.55
975.02	210.48
975.31	210.36
975.61	210.32
975.90	210.33
976.19	210.40
976.49	210.42
976.78	210.42
977.07	210.40
977.37	210.35
977.66	210.43
977.95	210.40
978.24	210.48
978.54	210.45
978.83	210.44
979.12	210.36
979.42	210.32
979.71	210.23
980.00	210.28
980.29	210.43
980.59	210.38
980.88	210.44
981.17	210.37
981.46	210.46
981.76	210.45
982.05	210.62
982.34	210.55
982.63	210.58
982.93	210.62
983.22	210.65
983.51	210.66
983.80	210.70
984.09	210.75
984.39	210.75
984.68	210.75
984.97	210.85
985.26	210.76
985.55	210.82
985.85	210.83
986.14	210.94
986.43	210.82
986.72	210.80
987.01	210.70
987.30	210.79
987.59	210.75
987.89	210.80
988.18	210.71
988.47	210.73
988.76	210.63
989.05	210.60
989.34	210.62
989.63	210.79
989.92	210.69
990.22	210.61
990.51	210.59
990.80	210.59
991.09	210.64
991.38	210.74
991.67	210.69
991.96	210.65
992.25	210.63
992.54	210.64
992.83	210.58
993.12	210.59
993.41	210.62
993.70	210.80
993.99	210.86
994.28	210.81
994.58	210.84
994.87	210.90
995.16	210.91
995.45	210.87
995.74	210.69
996.03	210.80
996.32	210.87
996.61	210.98
996.90	210.91
997.19	210.84
997.48	210.81
997.77	210.82
998.06	210.80
998.34	210.78
998.63	210.79
998.92	210.82
999.21	210.87
999.50	210.82
999.79	210.67
1000.08	210.60
1000.37	210.66
1000.66	210.66
1000.95	210.73
1001.24	210.70
1001.53	210.75
1001.82	210.68
1002.11	210.58
1002.40	210.66
1002.68	210.65
1002.97	210.93
1003.26	210.88
1003.55	210.84
1003.84	210.86
1004.13	211.03
1004.42	210.95
1004.71	210.95
1004.99	210.98
1005.28	211.09
1005.57	211.12
1005.86	211.10
1006.15	211.10
1006.44	211.01
1006.72	211.04
1007.01	210.96
1007.30	210.94
1007.59	210.90
1007.88	210.89
1008.17	210.95
1008.45	210.84
1008.74	210.73
1009.03	210.57
1009.32	210.64
1009.60	210.68
1009.89	210.58
1010.18	210.42
1010.47	210.43
1010.76	210.40
1011.04	210.37
1011.33	210.63
1011.62	210.63
1011.91	210.70
1012.19	210.72
1012.48	210.71
1012.77	210.65
1013.05	210.84
1013.34	210.89
1013.63	210.86
1013.92	210.98
1014.20	210.94
1014.49	210.90
1014.78	210.96
1015.06	210.86
1015.35	210.82
1015.64	210.81
1015.92	210.88
1016.21	210.83
1016.50	210.89
1016.78	210.88
1017.07	210.92
1017.36	210.55
1017.64	210.50
1017.93	210.45
1018.22	210.39
1018.50	210.36
1018.79	210.39
1019.08	210.11
1019.36	210.16
1019.65	210.15
1019.93	210.19
1020.22	210.19
1020.51	210.42
1020.79	210.41
1021.08	209.85
1021.36	208.75
1021.65	210.65
1021.94	208.60
1022.22	211.40
1022.51	210.00
1022.79	211.35
1023.08	210.35
1023.36	214.95
1023.65	210.60
>>>>>End Processed Spectral Data<<<<<
