SpectraSuite Data File
++++++++++++++++++++++++++++++++++++
Date: Mon Feb 25 17:12:20 EST 2013
User: group
Dark Spectrum Present: No
Reference Spectrum Present: No
Number of Sampled Component Spectra: 1
Spectrometers: USB2E7196
Integration Time (usec): 104000 (USB2E7196)
Spectra Averaged: 20 (USB2E7196)
Boxcar Smoothing: 10 (USB2E7196)
Correct for Electrical Dark: No (USB2E7196)
Strobe/Lamp Enabled: No (USB2E7196)
Correct for Detector Non-linearity: No (USB2E7196)
Correct for Stray Light: No (USB2E7196)
Number of Pixels in Processed Spectrum: 2048
>>>>>Begin Processed Spectral Data<<<<<
339.09	0.00
339.48	197.55
339.86	199.35
340.24	200.30
340.63	202.20
341.01	208.25
341.39	205.65
341.78	207.75
342.16	208.05
342.54	208.05
342.93	198.03
343.31	207.99
343.69	208.59
344.07	209.13
344.46	209.65
344.84	210.04
345.22	210.17
345.60	210.45
345.99	210.61
346.37	210.83
346.75	210.94
347.13	210.97
347.52	211.03
347.90	211.22
348.28	211.37
348.66	211.52
349.05	211.50
349.43	211.52
349.81	211.62
350.19	211.60
350.57	211.64
350.96	211.70
351.34	211.93
351.72	212.00
352.10	212.05
352.48	212.05
352.87	212.12
353.25	212.20
353.63	212.22
354.01	212.24
354.39	212.24
354.77	212.30
355.15	212.45
355.54	212.40
355.92	212.40
356.30	212.39
356.68	212.65
357.06	212.77
357.44	212.78
357.82	212.84
358.20	212.94
358.58	212.99
358.97	213.05
359.35	213.04
359.73	213.21
360.11	213.23
360.49	213.34
360.87	213.42
361.25	213.56
361.63	213.70
362.01	213.77
362.39	213.76
362.77	213.89
363.15	213.88
363.53	213.95
363.91	213.97
364.29	213.99
364.67	213.65
365.05	213.57
365.43	213.60
365.81	213.54
366.19	213.64
366.57	213.78
366.95	213.80
367.33	213.76
367.71	213.70
368.09	213.78
368.47	213.75
368.85	213.70
369.23	213.61
369.61	213.48
369.99	213.58
370.37	213.59
370.75	213.74
371.13	213.67
371.51	213.59
371.89	213.56
372.27	213.55
372.65	213.53
373.03	213.56
373.41	213.51
373.78	213.50
374.16	213.27
374.54	213.13
374.92	213.00
375.30	212.98
375.68	212.90
376.06	212.89
376.44	212.85
376.82	212.84
377.19	212.78
377.57	212.76
377.95	212.60
378.33	212.53
378.71	212.23
379.09	212.18
379.47	212.21
379.84	212.10
380.22	212.00
380.60	211.85
380.98	211.68
381.36	211.64
381.73	211.57
382.11	211.60
382.49	211.54
382.87	211.48
383.25	211.40
383.62	211.68
384.00	211.60
384.38	211.51
384.76	211.50
385.13	211.60
385.51	211.54
385.89	211.43
386.27	211.39
386.64	211.36
387.02	211.30
387.40	211.22
387.78	211.17
388.15	211.20
388.53	211.17
388.91	211.23
389.29	211.15
389.66	211.20
390.04	211.13
390.42	211.16
390.79	211.15
391.17	211.08
391.55	210.74
391.92	210.68
392.30	210.74
392.68	210.65
393.05	210.57
393.43	210.56
393.81	210.60
394.18	210.55
394.56	210.58
394.94	210.65
395.31	210.62
395.69	210.76
396.06	210.74
396.44	210.80
396.82	210.71
397.19	210.92
397.57	210.86
397.95	211.00
398.32	210.94
398.70	211.03
399.07	211.18
399.45	211.13
399.82	211.08
400.20	211.05
400.58	211.04
400.95	210.92
401.33	211.00
401.70	211.24
402.08	211.35
402.45	211.36
402.83	211.51
403.20	211.55
403.58	211.51
403.95	211.55
404.33	211.64
404.71	211.79
405.08	212.02
405.46	212.20
405.83	212.24
406.21	212.32
406.58	212.42
406.96	212.41
407.33	212.62
407.70	212.86
408.08	213.25
408.45	213.43
408.83	213.68
409.20	213.76
409.58	213.80
409.95	214.02
410.33	214.29
410.70	214.36
411.08	214.59
411.45	214.84
411.82	215.08
412.20	215.46
412.57	215.94
412.95	215.91
413.32	216.29
413.69	216.61
414.07	217.00
414.44	217.42
414.82	217.95
415.19	218.43
415.56	218.99
415.94	219.36
416.31	220.08
416.68	220.76
417.06	221.51
417.43	222.29
417.81	223.06
418.18	223.88
418.55	224.74
418.93	225.71
419.30	226.70
419.67	227.70
420.04	228.72
420.42	229.73
420.79	231.30
421.16	232.53
421.54	234.02
421.91	235.40
422.28	236.82
422.66	238.29
423.03	240.01
423.40	241.41
423.77	243.06
424.15	244.65
424.52	246.36
424.89	248.36
425.26	250.06
425.64	251.79
426.01	253.62
426.38	255.58
426.75	257.67
427.13	259.65
427.50	261.83
427.87	264.05
428.24	266.19
428.61	268.14
428.99	270.56
429.36	272.94
429.73	275.47
430.10	277.95
430.47	280.58
430.85	283.07
431.22	285.95
431.59	289.12
431.96	292.03
432.33	295.12
432.70	298.10
433.08	301.76
433.45	305.12
433.82	308.48
434.19	312.33
434.56	315.93
434.93	319.39
435.30	322.78
435.68	326.55
436.05	330.40
436.42	334.12
436.79	337.59
437.16	341.27
437.53	345.15
437.90	349.01
438.27	352.84
438.64	356.77
439.01	360.26
439.38	363.20
439.75	366.20
440.13	369.74
440.50	373.09
440.87	375.74
441.24	378.54
441.61	381.63
441.98	383.76
442.35	386.27
442.72	389.02
443.09	391.84
443.46	393.53
443.83	394.55
444.20	395.47
444.57	396.78
444.94	397.51
445.31	398.17
445.68	399.22
446.05	399.40
446.42	398.93
446.79	398.66
447.16	398.27
447.53	397.99
447.90	396.62
448.27	395.04
448.64	393.09
449.01	391.60
449.37	389.07
449.74	386.61
450.11	383.99
450.48	380.70
450.85	377.23
451.22	374.28
451.59	371.68
451.96	369.09
452.33	365.59
452.70	362.31
453.07	358.57
453.43	354.36
453.80	350.76
454.17	347.33
454.54	343.94
454.91	340.35
455.28	336.82
455.65	333.51
456.02	330.86
456.38	327.96
456.75	324.59
457.12	321.80
457.49	319.05
457.86	316.13
458.23	313.93
458.59	311.39
458.96	308.91
459.33	306.50
459.70	304.27
460.07	302.51
460.43	300.53
460.80	298.61
461.17	296.97
461.54	295.12
461.91	293.42
462.27	291.77
462.64	290.27
463.01	288.76
463.38	287.29
463.74	285.16
464.11	283.83
464.48	282.65
464.85	281.27
465.21	280.27
465.58	279.15
465.95	277.73
466.32	276.79
466.68	275.73
467.05	274.80
467.42	273.61
467.78	272.36
468.15	271.27
468.52	270.54
468.88	269.50
469.25	268.64
469.62	267.91
469.98	267.06
470.35	266.36
470.72	265.59
471.08	264.86
471.45	264.35
471.82	263.85
472.18	263.19
472.55	262.85
472.92	262.30
473.28	261.82
473.65	261.39
474.02	260.88
474.38	260.54
474.75	260.10
475.11	259.83
475.48	259.67
475.85	259.50
476.21	259.22
476.58	259.02
476.94	258.91
477.31	258.75
477.67	258.69
478.04	258.64
478.41	258.66
478.77	258.97
479.14	258.92
479.50	258.91
479.87	258.99
480.23	259.00
480.60	259.09
480.96	259.17
481.33	259.55
481.69	259.77
482.06	259.96
482.42	260.28
482.79	260.59
483.15	260.91
483.52	261.34
483.88	261.72
484.25	262.23
484.61	262.68
484.98	263.19
485.34	263.90
485.71	264.57
486.07	265.22
486.44	265.61
486.80	266.38
487.17	267.13
487.53	268.13
487.90	269.13
488.26	270.20
488.62	271.42
488.99	272.31
489.35	273.46
489.72	274.69
490.08	275.99
490.44	277.42
490.81	279.02
491.17	280.51
491.54	282.18
491.90	283.90
492.26	285.77
492.63	287.61
492.99	289.44
493.36	291.45
493.72	293.68
494.08	295.90
494.45	298.30
494.81	300.83
495.17	303.37
495.54	306.00
495.90	308.64
496.26	311.43
496.63	314.55
496.99	317.65
497.35	320.88
497.72	324.28
498.08	327.57
498.44	331.08
498.80	334.81
499.17	338.70
499.53	342.60
499.89	346.65
500.26	350.89
500.62	355.24
500.98	359.87
501.34	364.40
501.71	369.27
502.07	374.24
502.43	379.17
502.79	384.21
503.16	389.53
503.52	395.04
503.88	400.62
504.24	406.46
504.60	412.57
504.97	418.65
505.33	424.75
505.69	431.60
506.05	438.18
506.41	445.06
506.78	451.75
507.14	458.83
507.50	466.03
507.86	473.39
508.22	480.90
508.59	488.44
508.95	496.42
509.31	504.53
509.67	512.59
510.03	521.05
510.39	529.64
510.75	538.35
511.12	547.26
511.48	556.25
511.84	565.36
512.20	574.25
512.56	583.76
512.92	593.38
513.28	602.89
513.64	612.54
514.00	622.20
514.37	632.24
514.73	642.29
515.09	652.40
515.45	662.62
515.81	672.92
516.17	683.26
516.53	693.62
516.89	703.89
517.25	714.34
517.61	724.96
517.97	735.49
518.33	746.16
518.69	756.92
519.05	767.82
519.41	778.78
519.77	790.21
520.13	801.19
520.49	812.05
520.85	822.97
521.21	834.35
521.57	845.71
521.93	856.56
522.29	868.02
522.65	879.28
523.01	890.36
523.37	901.45
523.73	912.73
524.09	923.85
524.45	935.10
524.81	946.51
525.17	957.81
525.53	969.16
525.89	980.46
526.25	991.76
526.61	1002.49
526.97	1013.50
527.33	1024.65
527.68	1035.95
528.04	1046.93
528.40	1057.49
528.76	1067.99
529.12	1078.83
529.48	1090.12
529.84	1100.57
530.20	1111.26
530.56	1122.14
530.91	1133.24
531.27	1143.85
531.63	1154.44
531.99	1164.73
532.35	1174.86
532.71	1184.85
533.07	1195.13
533.42	1205.27
533.78	1215.24
534.14	1225.27
534.50	1234.21
534.86	1243.40
535.21	1252.09
535.57	1261.62
535.93	1270.86
536.29	1280.07
536.65	1288.98
537.00	1297.44
537.36	1305.65
537.72	1313.68
538.08	1321.74
538.44	1329.42
538.79	1337.55
539.15	1345.52
539.51	1353.42
539.87	1361.44
540.22	1368.82
540.58	1376.49
540.94	1383.55
541.29	1390.04
541.65	1396.27
542.01	1403.37
542.37	1410.03
542.72	1416.76
543.08	1422.69
543.44	1429.22
543.79	1434.73
544.15	1439.96
544.51	1445.85
544.87	1451.87
545.22	1457.05
545.58	1461.81
545.94	1466.87
546.29	1471.00
546.65	1474.97
547.01	1478.95
547.36	1482.79
547.72	1487.06
548.07	1489.94
548.43	1493.14
548.79	1496.12
549.14	1499.23
549.50	1502.25
549.86	1504.45
550.21	1506.66
550.57	1509.29
550.92	1510.75
551.28	1512.73
551.64	1514.88
551.99	1516.55
552.35	1517.63
552.70	1519.41
553.06	1521.12
553.41	1522.29
553.77	1523.57
554.13	1524.89
554.48	1526.26
554.84	1527.25
555.19	1527.44
555.55	1527.99
555.90	1527.94
556.26	1528.49
556.61	1528.90
556.97	1528.45
557.32	1528.45
557.68	1528.06
558.03	1527.51
558.39	1527.54
558.74	1527.74
559.10	1527.36
559.45	1526.81
559.81	1526.79
560.16	1525.91
560.52	1525.25
560.87	1524.39
561.23	1523.24
561.58	1522.42
561.94	1521.12
562.29	1519.26
562.64	1518.29
563.00	1517.64
563.35	1517.11
563.71	1516.52
564.06	1515.80
564.42	1515.22
564.77	1514.59
565.12	1514.00
565.48	1513.04
565.83	1511.87
566.19	1510.45
566.54	1508.76
566.89	1507.13
567.25	1505.53
567.60	1504.18
567.96	1502.70
568.31	1501.19
568.66	1499.42
569.02	1497.02
569.37	1494.57
569.72	1492.85
570.08	1490.56
570.43	1487.97
570.78	1485.11
571.14	1481.70
571.49	1478.75
571.84	1475.88
572.20	1472.50
572.55	1469.38
572.90	1465.80
573.26	1462.04
573.61	1458.52
573.96	1455.07
574.31	1451.13
574.67	1446.90
575.02	1442.45
575.37	1438.18
575.72	1433.71
576.08	1430.06
576.43	1425.92
576.78	1422.10
577.13	1418.33
577.49	1414.44
577.84	1410.29
578.19	1406.83
578.54	1403.58
578.90	1400.13
579.25	1395.98
579.60	1391.63
579.95	1387.12
580.30	1383.44
580.66	1380.12
581.01	1375.84
581.36	1371.47
581.71	1367.47
582.06	1363.74
582.42	1360.17
582.77	1355.85
583.12	1351.51
583.47	1347.61
583.82	1344.00
584.17	1340.16
584.53	1336.40
584.88	1332.31
585.23	1328.39
585.58	1324.28
585.93	1319.98
586.28	1315.97
586.63	1312.00
586.98	1308.48
587.34	1305.29
587.69	1301.25
588.04	1297.26
588.39	1293.42
588.74	1289.58
589.09	1286.10
589.44	1281.85
589.79	1278.23
590.14	1274.75
590.49	1271.26
590.84	1267.20
591.19	1263.57
591.54	1259.58
591.89	1254.59
592.25	1250.63
592.60	1246.35
592.95	1241.84
593.30	1237.28
593.65	1232.29
594.00	1228.15
594.35	1224.90
594.70	1220.36
595.05	1216.21
595.40	1211.81
595.75	1207.49
596.10	1203.59
596.45	1199.39
596.80	1195.68
597.15	1191.72
597.50	1187.44
597.85	1183.43
598.19	1179.34
598.54	1175.29
598.89	1171.61
599.24	1168.43
599.59	1164.67
599.94	1161.61
600.29	1158.02
600.64	1154.76
600.99	1150.91
601.34	1147.35
601.69	1142.60
602.04	1138.48
602.39	1134.77
602.74	1131.33
603.08	1128.10
603.43	1124.88
603.78	1121.46
604.13	1117.86
604.48	1114.10
604.83	1111.07
605.18	1108.07
605.53	1104.48
605.87	1100.64
606.22	1097.02
606.57	1093.36
606.92	1089.72
607.27	1085.46
607.62	1081.87
607.96	1078.21
608.31	1075.10
608.66	1071.06
609.01	1067.14
609.36	1063.41
609.70	1059.35
610.05	1054.90
610.40	1050.77
610.75	1046.38
611.10	1042.44
611.44	1037.72
611.79	1033.13
612.14	1028.34
612.49	1023.21
612.83	1018.72
613.18	1014.04
613.53	1009.19
613.88	1004.39
614.22	999.71
614.57	995.05
614.92	990.33
615.27	985.49
615.61	980.76
615.96	976.32
616.31	972.00
616.65	968.10
617.00	963.83
617.35	959.41
617.70	954.90
618.04	950.00
618.39	944.83
618.74	940.48
619.08	935.98
619.43	931.47
619.78	927.30
620.12	922.94
620.47	918.70
620.82	914.20
621.16	909.51
621.51	905.17
621.85	900.81
622.20	896.20
622.55	891.59
622.89	887.12
623.24	882.75
623.59	878.26
623.93	873.51
624.28	869.17
624.62	865.20
624.97	860.99
625.32	856.87
625.66	852.91
626.01	848.74
626.35	844.76
626.70	840.72
627.04	836.75
627.39	832.71
627.73	828.66
628.08	824.76
628.43	820.64
628.77	816.29
629.12	812.09
629.46	808.44
629.81	804.72
630.15	800.70
630.50	796.39
630.84	792.30
631.19	788.19
631.53	784.01
631.88	779.50
632.22	775.18
632.57	771.42
632.91	767.25
633.26	763.40
633.60	759.43
633.95	755.71
634.29	751.59
634.64	747.99
634.98	744.11
635.32	740.31
635.67	736.81
636.01	733.38
636.36	729.65
636.70	726.10
637.05	722.37
637.39	718.86
637.73	715.81
638.08	712.68
638.42	709.53
638.77	706.10
639.11	702.84
639.45	699.30
639.80	695.66
640.14	692.13
640.49	688.46
640.83	684.79
641.17	681.09
641.52	677.55
641.86	673.59
642.20	670.03
642.55	666.20
642.89	662.52
643.23	658.72
643.58	655.38
643.92	651.31
644.26	647.72
644.61	644.16
644.95	640.23
645.29	636.42
645.64	632.79
645.98	629.39
646.32	625.95
646.66	622.35
647.01	618.95
647.35	615.64
647.69	612.14
648.04	608.79
648.38	605.29
648.72	601.92
649.06	598.56
649.41	595.08
649.75	591.97
650.09	588.87
650.43	585.42
650.78	581.85
651.12	578.60
651.46	575.26
651.80	572.00
652.14	568.85
652.49	565.67
652.83	562.18
653.17	558.54
653.51	555.03
653.85	552.03
654.20	548.70
654.54	545.30
654.88	542.23
655.22	539.15
655.56	535.94
655.90	532.62
656.25	529.42
656.59	526.33
656.93	523.06
657.27	519.90
657.61	516.83
657.95	513.95
658.29	511.14
658.64	508.25
658.98	505.15
659.32	501.98
659.66	499.05
660.00	496.05
660.34	493.22
660.68	490.42
661.02	487.51
661.36	484.68
661.70	482.00
662.05	479.23
662.39	476.50
662.73	473.91
663.07	471.43
663.41	468.89
663.75	466.30
664.09	463.80
664.43	461.13
664.77	458.73
665.11	456.09
665.45	453.48
665.79	451.02
666.13	448.58
666.47	446.31
666.81	443.86
667.15	441.53
667.49	439.38
667.83	437.21
668.17	434.89
668.51	432.75
668.85	430.70
669.19	428.68
669.53	426.46
669.87	424.20
670.21	422.09
670.55	419.93
670.89	418.12
671.23	416.17
671.57	414.24
671.91	412.28
672.25	410.41
672.58	408.47
672.92	406.46
673.26	404.72
673.60	402.81
673.94	400.82
674.28	399.00
674.62	397.24
674.96	395.31
675.30	393.51
675.64	391.60
675.97	389.71
676.31	388.00
676.65	386.23
676.99	384.77
677.33	383.00
677.67	381.39
678.01	379.42
678.34	377.68
678.68	375.95
679.02	374.15
679.36	372.46
679.70	370.74
680.04	369.23
680.37	367.40
680.71	365.77
681.05	364.33
681.39	362.78
681.73	361.10
682.06	359.64
682.40	358.15
682.74	356.65
683.08	355.27
683.42	353.57
683.75	352.22
684.09	350.56
684.43	349.04
684.77	347.34
685.10	345.83
685.44	344.24
685.78	342.78
686.12	341.44
686.45	340.05
686.79	338.73
687.13	337.37
687.46	336.11
687.80	334.80
688.14	333.38
688.48	332.12
688.81	330.71
689.15	329.45
689.49	328.10
689.82	326.86
690.16	325.32
690.50	323.97
690.83	322.66
691.17	321.17
691.51	319.85
691.84	318.81
692.18	317.64
692.52	316.63
692.85	315.60
693.19	314.52
693.52	313.30
693.86	312.03
694.20	310.82
694.53	309.67
694.87	308.62
695.21	307.32
695.54	306.11
695.88	305.01
696.21	303.72
696.55	302.63
696.88	301.62
697.22	300.56
697.56	299.72
697.89	298.60
698.23	297.80
698.56	296.79
698.90	295.78
699.23	294.79
699.57	293.74
699.90	292.69
700.24	291.58
700.58	290.70
700.91	289.92
701.25	289.21
701.58	288.35
701.92	287.46
702.25	286.71
702.59	285.84
702.92	285.07
703.26	284.33
703.59	283.52
703.93	282.98
704.26	282.20
704.60	281.32
704.93	280.62
705.26	279.79
705.60	279.11
705.93	278.27
706.27	277.57
706.60	276.90
706.94	276.37
707.27	275.59
707.61	274.89
707.94	274.06
708.27	273.06
708.61	272.28
708.94	271.49
709.28	270.85
709.61	270.14
709.94	269.38
710.28	268.72
710.61	268.14
710.95	267.13
711.28	266.68
711.61	265.98
711.95	265.34
712.28	264.71
712.61	264.07
712.95	263.71
713.28	263.31
713.61	262.66
713.95	261.95
714.28	261.47
714.61	260.91
714.95	260.46
715.28	259.90
715.61	259.38
715.95	258.86
716.28	258.15
716.61	257.69
716.95	257.24
717.28	256.74
717.61	256.17
717.94	255.68
718.28	255.00
718.61	254.51
718.94	254.02
719.27	253.58
719.61	253.13
719.94	252.60
720.27	251.93
720.60	251.45
720.94	250.96
721.27	250.55
721.60	250.11
721.93	249.57
722.27	249.33
722.60	248.96
722.93	248.57
723.26	248.38
723.59	247.88
723.93	247.57
724.26	247.21
724.59	246.85
724.92	246.49
725.25	246.20
725.59	245.84
725.92	245.50
726.25	245.16
726.58	244.90
726.91	244.48
727.24	244.18
727.57	243.86
727.91	243.42
728.24	243.16
728.57	242.74
728.90	242.52
729.23	242.05
729.56	241.81
729.89	241.48
730.22	241.07
730.55	240.77
730.89	240.41
731.22	240.06
731.55	239.70
731.88	239.35
732.21	239.06
732.54	238.74
732.87	238.41
733.20	238.04
733.53	237.67
733.86	237.46
734.19	237.17
734.52	236.91
734.85	236.92
735.18	236.53
735.51	236.40
735.84	236.20
736.17	236.05
736.50	235.66
736.83	235.86
737.16	235.64
737.49	235.38
737.82	235.07
738.15	234.89
738.48	234.71
738.81	234.55
739.14	234.18
739.47	233.98
739.80	233.74
740.13	233.61
740.46	233.31
740.79	232.92
741.12	232.68
741.45	232.44
741.78	232.02
742.11	231.91
742.44	231.63
742.77	231.40
743.10	231.12
743.43	230.92
743.75	230.26
744.08	230.58
744.41	230.34
744.74	230.17
745.07	229.89
745.40	229.80
745.73	229.72
746.06	229.59
746.39	229.35
746.71	229.15
747.04	228.88
747.37	228.72
747.70	228.61
748.03	228.37
748.36	228.27
748.68	228.12
749.01	227.82
749.34	227.59
749.67	227.44
750.00	227.31
750.33	227.38
750.65	227.17
750.98	226.43
751.31	226.26
751.64	226.07
751.97	226.09
752.29	225.78
752.62	225.53
752.95	225.31
753.28	225.15
753.60	224.96
753.93	224.92
754.26	224.79
754.59	224.63
754.91	224.45
755.24	224.21
755.57	224.01
755.90	223.77
756.22	223.68
756.55	223.47
756.88	223.18
757.20	222.77
757.53	222.63
757.86	222.55
758.19	222.55
758.51	222.50
758.84	222.20
759.17	222.10
759.49	221.87
759.82	221.89
760.15	221.74
760.47	221.68
760.80	221.44
761.13	221.32
761.45	221.10
761.78	221.05
762.11	220.93
762.43	220.75
762.76	220.76
763.08	220.66
763.41	220.53
763.74	220.55
764.06	220.44
764.39	220.35
764.71	220.14
765.04	219.96
765.37	219.76
765.69	219.67
766.02	219.57
766.34	219.50
766.67	219.36
767.00	219.40
767.32	219.47
767.65	219.63
767.97	219.56
768.30	219.53
768.62	219.49
768.95	219.42
769.27	219.41
769.60	219.35
769.92	219.20
770.25	219.11
770.57	218.92
770.90	218.89
771.22	218.75
771.55	218.75
771.87	218.70
772.20	218.62
772.52	218.87
772.85	219.20
773.17	219.14
773.50	219.03
773.82	218.89
774.15	218.64
774.47	218.31
774.80	218.15
775.12	218.07
775.45	217.91
775.77	217.90
776.09	217.83
776.42	217.85
776.74	217.86
777.07	217.78
777.39	217.79
777.72	217.66
778.04	217.67
778.36	217.59
778.69	217.47
779.01	217.45
779.33	217.03
779.66	216.56
779.98	216.48
780.31	216.41
780.63	216.48
780.95	216.53
781.28	216.41
781.60	216.39
781.92	216.34
782.25	216.30
782.57	216.22
782.89	216.15
783.22	216.00
783.54	215.97
783.86	215.89
784.19	215.80
784.51	215.86
784.83	215.75
785.16	215.68
785.48	215.72
785.80	215.70
786.12	215.71
786.45	215.63
786.77	215.64
787.09	215.58
787.42	215.38
787.74	215.29
788.06	215.35
788.38	215.23
788.71	215.16
789.03	215.13
789.35	215.08
789.67	215.04
789.99	215.00
790.32	214.91
790.64	214.95
790.96	215.15
791.28	214.97
791.61	214.92
791.93	214.96
792.25	214.86
792.57	215.03
792.89	214.92
793.21	214.91
793.54	214.76
793.86	214.72
794.18	214.73
794.50	214.62
794.82	214.53
795.14	214.61
795.47	214.62
795.79	214.54
796.11	214.50
796.43	214.36
796.75	214.33
797.07	214.29
797.39	214.22
797.71	213.99
798.04	214.00
798.36	214.01
798.68	213.94
799.00	213.89
799.32	213.66
799.64	213.69
799.96	213.66
800.28	213.78
800.60	213.71
800.92	213.70
801.24	213.74
801.56	213.81
801.89	213.74
802.21	213.74
802.53	213.69
802.85	213.70
803.17	213.89
803.49	213.83
803.81	213.78
804.13	213.80
804.45	213.73
804.77	213.78
805.09	213.74
805.41	213.66
805.73	213.64
806.05	213.61
806.37	213.58
806.69	213.53
807.01	213.48
807.33	213.53
807.65	213.46
807.97	213.54
808.28	213.44
808.60	213.42
808.92	213.29
809.24	213.49
809.56	213.42
809.88	213.28
810.20	213.24
810.52	213.32
810.84	213.20
811.16	213.13
811.48	213.09
811.80	213.20
812.12	213.18
812.43	213.18
812.75	213.15
813.07	213.13
813.39	213.15
813.71	213.11
814.03	213.03
814.35	213.00
814.67	212.75
814.98	212.69
815.30	212.63
815.62	212.66
815.94	212.40
816.26	212.40
816.58	212.32
816.89	212.40
817.21	212.26
817.53	212.28
817.85	212.30
818.17	212.30
818.48	212.15
818.80	212.18
819.12	212.16
819.44	212.09
819.76	212.03
820.07	211.99
820.39	211.99
820.71	211.98
821.03	212.01
821.34	212.04
821.66	212.09
821.98	212.15
822.30	212.12
822.61	212.30
822.93	212.23
823.25	212.22
823.57	212.14
823.88	212.19
824.20	212.22
824.52	212.25
824.83	212.19
825.15	212.14
825.47	212.16
825.79	212.19
826.10	212.21
826.42	212.18
826.74	212.27
827.05	212.15
827.37	212.19
827.69	212.18
828.00	212.23
828.32	212.26
828.64	212.22
828.95	212.50
829.27	212.44
829.58	212.45
829.90	212.51
830.22	212.57
830.53	212.49
830.85	212.46
831.17	212.40
831.48	212.42
831.80	212.45
832.11	212.42
832.43	212.36
832.75	212.36
833.06	212.55
833.38	212.41
833.69	212.49
834.01	212.48
834.32	212.50
834.64	212.45
834.96	212.42
835.27	212.48
835.59	212.32
835.90	212.26
836.22	212.31
836.53	212.27
836.85	212.19
837.16	212.49
837.48	212.47
837.79	212.56
838.11	212.56
838.42	212.58
838.74	212.60
839.05	212.54
839.37	212.55
839.68	212.39
840.00	212.38
840.31	212.38
840.63	212.36
840.94	212.27
841.26	212.22
841.57	212.16
841.88	212.10
842.20	212.05
842.51	212.06
842.83	212.05
843.14	212.37
843.46	212.43
843.77	212.26
844.08	212.19
844.40	212.13
844.71	212.15
845.03	212.10
845.34	212.05
845.65	212.04
845.97	211.98
846.28	211.95
846.60	212.01
846.91	211.93
847.22	211.95
847.54	212.01
847.85	212.07
848.16	212.13
848.48	212.14
848.79	212.21
849.10	212.27
849.42	212.30
849.73	211.96
850.04	211.92
850.36	211.84
850.67	212.02
850.98	212.03
851.30	212.00
851.61	212.02
851.92	212.05
852.23	212.18
852.55	212.26
852.86	212.34
853.17	212.40
853.49	212.51
853.80	212.47
854.11	212.53
854.42	212.52
854.74	212.45
855.05	212.47
855.36	212.39
855.67	212.33
855.99	212.31
856.30	212.71
856.61	212.69
856.92	212.73
857.23	212.58
857.55	212.49
857.86	212.51
858.17	212.56
858.48	212.50
858.79	212.37
859.11	212.42
859.42	212.34
859.73	212.24
860.04	212.27
860.35	212.30
860.66	212.07
860.98	212.07
861.29	212.14
861.60	212.05
861.91	212.03
862.22	212.04
862.53	211.94
862.84	211.52
863.16	211.53
863.47	211.46
863.78	211.49
864.09	211.58
864.40	211.56
864.71	211.58
865.02	211.62
865.33	211.66
865.64	211.52
865.95	211.50
866.27	211.65
866.58	211.51
866.89	211.51
867.20	211.63
867.51	211.62
867.82	211.50
868.13	211.62
868.44	211.52
868.75	211.54
869.06	211.59
869.37	211.65
869.68	211.63
869.99	211.68
870.30	211.64
870.61	211.69
870.92	211.68
871.23	211.61
871.54	211.66
871.85	211.69
872.16	211.79
872.47	211.79
872.78	211.58
873.09	211.65
873.40	211.60
873.71	211.55
874.02	211.52
874.33	211.47
874.64	211.40
874.95	211.50
875.26	211.42
875.56	211.46
875.87	211.39
876.18	211.37
876.49	211.65
876.80	211.64
877.11	211.48
877.42	211.48
877.73	211.43
878.04	211.27
878.35	211.29
878.66	211.22
878.96	211.22
879.27	211.26
879.58	211.30
879.89	211.20
880.20	211.31
880.51	211.34
880.82	211.44
881.12	211.44
881.43	211.36
881.74	211.27
882.05	211.20
882.36	211.24
882.67	211.27
882.97	210.92
883.28	210.90
883.59	210.94
883.90	210.94
884.21	211.09
884.51	211.17
884.82	211.10
885.13	211.15
885.44	211.15
885.74	211.20
886.05	211.13
886.36	211.17
886.67	211.09
886.98	211.24
887.28	211.21
887.59	211.19
887.90	211.16
888.20	211.25
888.51	211.37
888.82	211.33
889.13	211.38
889.43	211.71
889.74	211.73
890.05	211.72
890.35	211.68
890.66	211.60
890.97	211.58
891.28	211.53
891.58	211.51
891.89	211.52
892.20	211.40
892.50	211.38
892.81	211.36
893.12	211.36
893.42	211.17
893.73	211.24
894.04	211.22
894.34	211.28
894.65	211.25
894.95	211.14
895.26	211.20
895.57	211.30
895.87	210.95
896.18	210.96
896.48	210.99
896.79	210.99
897.10	210.95
897.40	210.99
897.71	210.98
898.01	210.89
898.32	210.88
898.63	210.90
898.93	210.93
899.24	210.97
899.54	210.97
899.85	211.00
900.15	210.97
900.46	211.01
900.76	211.06
901.07	211.01
901.38	211.05
901.68	211.07
901.99	210.94
902.29	210.95
902.60	210.90
902.90	210.87
903.21	210.85
903.51	210.92
903.82	211.01
904.12	211.09
904.43	211.09
904.73	211.05
905.03	211.10
905.34	211.46
905.64	211.43
905.95	211.36
906.25	211.30
906.56	211.29
906.86	211.30
907.17	211.27
907.47	211.32
907.77	211.20
908.08	211.13
908.38	211.14
908.69	211.19
908.99	211.30
909.30	211.32
909.60	211.37
909.90	211.30
910.21	211.11
910.51	211.05
910.81	211.12
911.12	211.15
911.42	211.14
911.73	210.77
912.03	210.74
912.33	210.88
912.64	210.92
912.94	210.85
913.24	210.70
913.55	210.71
913.85	210.65
914.15	210.76
914.46	210.76
914.76	210.73
915.06	210.70
915.37	210.67
915.67	210.64
915.97	210.66
916.27	210.67
916.58	210.67
916.88	210.62
917.18	210.59
917.49	210.84
917.79	210.82
918.09	210.80
918.39	210.94
918.70	210.87
919.00	210.88
919.30	211.06
919.60	211.10
919.91	211.05
920.21	211.13
920.51	211.13
920.81	211.16
921.12	211.19
921.42	211.14
921.72	211.14
922.02	211.19
922.32	211.24
922.63	211.25
922.93	211.49
923.23	211.53
923.53	211.56
923.83	211.33
924.13	211.35
924.44	211.37
924.74	211.44
925.04	211.59
925.34	211.57
925.64	211.44
925.94	211.45
926.24	211.64
926.55	211.61
926.85	211.57
927.15	211.53
927.45	211.50
927.75	211.57
928.05	211.56
928.35	211.54
928.65	211.56
928.95	211.55
929.26	211.39
929.56	211.46
929.86	211.45
930.16	211.43
930.46	211.39
930.76	211.44
931.06	211.23
931.36	211.09
931.66	211.22
931.96	211.26
932.26	211.35
932.56	211.20
932.86	211.22
933.16	211.24
933.46	211.29
933.76	211.21
934.06	211.22
934.36	211.31
934.66	211.31
934.96	211.27
935.26	211.31
935.56	211.39
935.86	211.31
936.16	211.31
936.46	211.30
936.76	211.34
937.06	211.28
937.36	211.34
937.66	211.34
937.96	211.21
938.26	211.21
938.56	211.19
938.86	211.25
939.16	211.31
939.46	211.43
939.76	211.45
940.06	211.47
940.35	211.44
940.65	211.29
940.95	211.33
941.25	211.29
941.55	211.21
941.85	211.17
942.15	211.25
942.45	211.30
942.75	211.31
943.04	211.31
943.34	211.35
943.64	211.32
943.94	211.28
944.24	211.34
944.54	211.31
944.84	211.20
945.13	211.11
945.43	211.01
945.73	210.94
946.03	210.88
946.33	210.86
946.62	210.81
946.92	210.83
947.22	210.85
947.52	210.86
947.82	210.86
948.11	210.84
948.41	210.76
948.71	210.69
949.01	210.69
949.31	210.66
949.60	210.63
949.90	210.74
950.20	210.68
950.50	210.61
950.79	210.65
951.09	210.74
951.39	210.70
951.69	210.76
951.98	210.80
952.28	210.81
952.58	210.85
952.87	210.91
953.17	210.97
953.47	210.83
953.76	210.85
954.06	210.82
954.36	210.70
954.66	210.73
954.95	210.80
955.25	210.77
955.55	210.79
955.84	210.76
956.14	210.77
956.44	210.83
956.73	210.90
957.03	210.81
957.32	210.77
957.62	210.83
957.92	210.81
958.21	210.77
958.51	211.17
958.81	211.17
959.10	211.15
959.40	211.20
959.69	211.30
959.99	211.33
960.29	211.40
960.58	211.50
960.88	211.65
961.17	211.54
961.47	211.60
961.76	211.57
962.06	211.67
962.36	211.59
962.65	211.64
962.95	211.54
963.24	211.59
963.54	211.61
963.83	211.57
964.13	211.56
964.42	211.51
964.72	211.19
965.01	211.25
965.31	211.25
965.60	211.13
965.90	211.35
966.19	211.21
966.49	211.19
966.78	211.17
967.08	211.14
967.37	211.25
967.67	211.25
967.96	211.35
968.26	211.35
968.55	211.44
968.85	211.42
969.14	211.47
969.43	211.45
969.73	211.46
970.02	211.49
970.32	211.50
970.61	211.44
970.91	211.41
971.20	211.32
971.49	211.31
971.79	211.33
972.08	211.10
972.38	211.10
972.67	211.08
972.96	211.11
973.26	211.05
973.55	211.13
973.85	211.11
974.14	211.07
974.43	211.05
974.73	210.95
975.02	210.94
975.31	210.90
975.61	210.94
975.90	210.92
976.19	210.95
976.49	210.98
976.78	211.00
977.07	210.99
977.37	211.10
977.66	211.12
977.95	211.11
978.24	211.09
978.54	211.23
978.83	211.20
979.12	211.21
979.42	211.18
979.71	211.15
980.00	211.17
980.29	211.18
980.59	211.18
980.88	211.30
981.17	211.26
981.46	211.34
981.76	211.31
982.05	211.40
982.34	211.38
982.63	211.41
982.93	211.43
983.22	211.52
983.51	211.46
983.80	211.51
984.09	211.65
984.39	211.71
984.68	211.62
984.97	211.65
985.26	211.66
985.55	211.67
985.85	211.55
986.14	211.59
986.43	211.60
986.72	211.49
987.01	211.37
987.30	211.37
987.59	211.26
987.89	211.30
988.18	211.17
988.47	211.16
988.76	211.08
989.05	211.08
989.34	211.01
989.63	211.10
989.92	211.08
990.22	210.98
990.51	210.91
990.80	210.90
991.09	210.93
991.38	210.91
991.67	210.83
991.96	210.78
992.25	210.74
992.54	210.68
992.83	210.80
993.12	210.77
993.41	210.91
993.70	211.10
993.99	211.12
994.28	211.22
994.58	211.23
994.87	211.17
995.16	211.15
995.45	211.09
995.74	210.99
996.03	210.99
996.32	211.00
996.61	211.05
996.90	211.03
997.19	210.97
997.48	210.98
997.77	211.00
998.06	210.98
998.34	210.90
998.63	210.88
998.92	210.80
999.21	210.88
999.50	210.83
999.79	210.69
1000.08	210.71
1000.37	210.70
1000.66	210.64
1000.95	210.76
1001.24	210.70
1001.53	210.83
1001.82	210.80
1002.11	210.70
1002.40	210.65
1002.68	210.76
1002.97	211.01
1003.26	210.97
1003.55	210.97
1003.84	210.99
1004.13	211.15
1004.42	211.13
1004.71	211.15
1004.99	211.13
1005.28	211.18
1005.57	211.12
1005.86	211.06
1006.15	210.95
1006.44	210.87
1006.72	210.95
1007.01	210.85
1007.30	210.92
1007.59	210.85
1007.88	210.85
1008.17	210.91
1008.45	211.01
1008.74	210.89
1009.03	210.70
1009.32	210.76
1009.60	210.76
1009.89	210.73
1010.18	210.61
1010.47	210.65
1010.76	210.64
1011.04	210.66
1011.33	210.63
1011.62	210.64
1011.91	210.69
1012.19	210.78
1012.48	210.76
1012.77	210.80
1013.05	211.00
1013.34	211.01
1013.63	210.98
1013.92	211.02
1014.20	211.01
1014.49	210.95
1014.78	210.95
1015.06	210.87
1015.35	210.85
1015.64	210.91
1015.92	210.95
1016.21	210.95
1016.50	210.95
1016.78	211.02
1017.07	211.02
1017.36	210.95
1017.64	210.93
1017.93	211.02
1018.22	210.99
1018.50	211.03
1018.79	210.99
1019.08	210.80
1019.36	210.80
1019.65	210.77
1019.93	210.80
1020.22	210.87
1020.51	211.05
1020.79	211.01
1021.08	210.80
1021.36	210.40
1021.65	211.40
1021.94	210.20
1022.22	210.60
1022.51	210.30
1022.79	211.85
1023.08	211.95
1023.36	215.00
1023.65	210.05
>>>>>End Processed Spectral Data<<<<<
