SpectraSuite Data File
++++++++++++++++++++++++++++++++++++
Date: Mon Feb 25 16:57:16 EST 2013
User: group
Dark Spectrum Present: No
Reference Spectrum Present: No
Number of Sampled Component Spectra: 1
Spectrometers: USB2E7196
Integration Time (usec): 104000 (USB2E7196)
Spectra Averaged: 20 (USB2E7196)
Boxcar Smoothing: 10 (USB2E7196)
Correct for Electrical Dark: No (USB2E7196)
Strobe/Lamp Enabled: No (USB2E7196)
Correct for Detector Non-linearity: No (USB2E7196)
Correct for Stray Light: No (USB2E7196)
Number of Pixels in Processed Spectrum: 2048
>>>>>Begin Processed Spectral Data<<<<<
339.09	0.00
339.48	197.75
339.86	199.60
340.24	200.60
340.63	202.25
341.01	209.00
341.39	205.55
341.78	207.85
342.16	207.90
342.54	209.80
342.93	197.93
343.31	207.93
343.69	208.49
344.07	208.98
344.46	209.49
344.84	209.92
345.22	210.08
345.60	210.36
345.99	210.54
346.37	210.72
346.75	210.81
347.13	210.87
347.52	210.91
347.90	211.12
348.28	211.15
348.66	211.35
349.05	211.27
349.43	211.42
349.81	211.53
350.19	211.64
350.57	211.76
350.96	211.92
351.34	212.07
351.72	212.20
352.10	212.28
352.48	212.38
352.87	212.45
353.25	212.49
353.63	212.60
354.01	212.69
354.39	212.80
354.77	212.81
355.15	213.04
355.54	213.07
355.92	212.99
356.30	213.12
356.68	213.37
357.06	213.51
357.44	213.50
357.82	213.55
358.20	213.68
358.58	213.73
358.97	213.69
359.35	213.78
359.73	213.97
360.11	214.07
360.49	214.12
360.87	214.18
361.25	214.31
361.63	214.43
362.01	214.47
362.39	214.40
362.77	214.56
363.15	214.66
363.53	214.75
363.91	214.83
364.29	214.80
364.67	214.56
365.05	214.58
365.43	214.69
365.81	214.75
366.19	214.91
366.57	215.02
366.95	215.05
367.33	214.99
367.71	214.99
368.09	215.05
368.47	215.05
368.85	214.99
369.23	215.04
369.61	214.98
369.99	215.12
370.37	215.17
370.75	215.29
371.13	215.09
371.51	215.00
371.89	214.98
372.27	215.02
372.65	215.00
373.03	215.01
373.41	214.93
373.78	214.83
374.16	214.57
374.54	214.42
374.92	214.38
375.30	214.31
375.68	214.18
376.06	214.14
376.44	214.09
376.82	214.11
377.19	213.99
377.57	213.90
377.95	213.67
378.33	213.62
378.71	213.35
379.09	213.35
379.47	213.32
379.84	213.24
380.22	213.23
380.60	213.10
380.98	213.01
381.36	212.95
381.73	212.93
382.11	212.93
382.49	212.96
382.87	212.84
383.25	212.81
383.62	213.15
384.00	213.01
384.38	212.97
384.76	212.94
385.13	212.98
385.51	212.93
385.89	212.82
386.27	212.80
386.64	212.77
387.02	212.72
387.40	212.68
387.78	212.63
388.15	212.54
388.53	212.49
388.91	212.38
389.29	212.35
389.66	212.29
390.04	212.19
390.42	212.17
390.79	212.15
391.17	212.15
391.55	211.74
391.92	211.75
392.30	211.78
392.68	211.75
393.05	211.71
393.43	211.63
393.81	211.66
394.18	211.60
394.56	211.63
394.94	211.69
395.31	211.65
395.69	211.77
396.06	211.87
396.44	211.94
396.82	211.94
397.19	212.14
397.57	212.14
397.95	212.23
398.32	212.15
398.70	212.22
399.07	212.34
399.45	212.41
399.82	212.44
400.20	212.47
400.58	212.56
400.95	212.49
401.33	212.69
401.70	213.00
402.08	213.16
402.45	213.30
402.83	213.52
403.20	213.70
403.58	213.85
403.95	214.04
404.33	214.24
404.71	214.55
405.08	214.92
405.46	215.21
405.83	215.47
406.21	215.85
406.58	216.23
406.96	216.53
407.33	216.91
407.70	217.35
408.08	218.05
408.45	218.54
408.83	219.13
409.20	219.71
409.58	220.13
409.95	220.85
410.33	221.50
410.70	222.11
411.08	222.93
411.45	223.81
411.82	224.65
412.20	225.72
412.57	226.98
412.95	227.80
413.32	229.05
413.69	230.36
414.07	231.73
414.44	233.25
414.82	234.89
415.19	236.61
415.56	238.42
415.94	240.21
416.31	242.35
416.68	244.55
417.06	247.07
417.43	249.49
417.81	252.08
418.18	254.92
418.55	257.85
418.93	261.13
419.30	264.44
419.67	267.94
420.04	271.55
420.42	275.16
420.79	279.59
421.16	283.98
421.54	288.60
421.91	293.25
422.28	298.06
422.66	303.21
423.03	308.44
423.40	313.85
423.77	319.52
424.15	325.30
424.52	331.38
424.89	337.83
425.26	344.42
425.64	350.66
426.01	357.54
426.38	364.70
426.75	371.90
427.13	379.33
427.50	387.23
427.87	395.51
428.24	403.81
428.61	411.66
428.99	420.30
429.36	429.71
429.73	439.08
430.10	448.49
430.47	458.04
430.85	468.00
431.22	478.55
431.59	489.72
431.96	500.65
432.33	512.57
432.70	524.20
433.08	537.59
433.45	550.45
433.82	563.06
434.19	577.32
434.56	591.15
434.93	604.78
435.30	618.36
435.68	633.55
436.05	648.73
436.42	663.65
436.79	677.54
437.16	692.43
437.53	708.13
437.90	723.60
438.27	739.04
438.64	755.15
439.01	770.17
439.38	783.87
439.75	796.96
440.13	811.74
440.50	825.97
440.87	837.87
441.24	850.19
441.61	863.84
441.98	874.11
442.35	886.24
442.72	898.12
443.09	909.68
443.46	917.08
443.83	922.29
444.20	927.24
444.57	933.66
444.94	937.37
445.31	941.02
445.68	944.55
446.05	946.75
446.42	946.58
446.79	945.81
447.16	944.86
447.53	944.66
447.90	940.34
448.27	935.83
448.64	928.92
449.01	924.11
449.37	914.79
449.74	905.96
450.11	895.05
450.48	883.11
450.85	870.84
451.22	860.24
451.59	850.30
451.96	840.65
452.33	827.61
452.70	815.83
453.07	801.78
453.43	787.70
453.80	773.83
454.17	760.26
454.54	747.61
454.91	733.92
455.28	720.43
455.65	707.95
456.02	695.35
456.38	684.80
456.75	671.55
457.12	660.56
457.49	649.60
457.86	638.98
458.23	629.79
458.59	619.80
458.96	609.78
459.33	600.70
459.70	591.83
460.07	584.81
460.43	576.43
460.80	568.60
461.17	561.67
461.54	554.60
461.91	547.94
462.27	541.15
462.64	535.32
463.01	528.75
463.38	522.48
463.74	516.09
464.11	510.49
464.48	505.71
464.85	500.56
465.21	496.59
465.58	492.21
465.95	487.13
466.32	482.77
466.68	478.52
467.05	474.22
467.42	469.99
467.78	465.41
468.15	461.34
468.52	458.34
468.88	454.28
469.25	450.56
469.62	447.48
469.98	444.30
470.35	441.31
470.72	438.54
471.08	435.45
471.45	432.94
471.82	430.33
472.18	427.39
472.55	425.19
472.92	422.60
473.28	420.49
473.65	418.21
474.02	416.25
474.38	414.43
474.75	413.11
475.11	411.41
475.48	410.18
475.85	409.09
476.21	407.89
476.58	407.02
476.94	406.47
477.31	405.55
477.67	404.78
478.04	404.13
478.41	403.75
478.77	403.66
479.14	403.15
479.50	402.95
479.87	403.08
480.23	403.18
480.60	402.94
480.96	402.85
481.33	403.55
481.69	403.87
482.06	404.13
482.42	404.34
482.79	404.84
483.15	405.65
483.52	406.62
483.88	407.48
484.25	408.18
484.61	409.12
484.98	410.26
485.34	411.76
485.71	413.27
486.07	414.81
486.44	416.12
486.80	417.81
487.17	419.68
487.53	421.79
487.90	424.08
488.26	426.77
488.62	429.35
488.99	431.71
489.35	434.37
489.72	437.29
490.08	440.32
490.44	443.35
490.81	446.48
491.17	449.63
491.54	452.93
491.90	456.70
492.26	460.27
492.63	464.08
492.99	467.88
493.36	471.80
493.72	476.08
494.08	480.61
494.45	485.35
494.81	490.05
495.17	494.75
495.54	499.70
495.90	504.66
496.26	509.79
496.63	515.12
496.99	520.58
497.35	526.20
497.72	532.08
498.08	538.01
498.44	543.99
498.80	550.45
499.17	557.01
499.53	563.44
499.89	569.94
500.26	576.46
500.62	582.82
500.98	589.80
501.34	596.50
501.71	603.44
502.07	610.28
502.43	617.31
502.79	624.19
503.16	631.16
503.52	638.15
503.88	645.33
504.24	652.32
504.60	659.38
504.97	666.64
505.33	673.62
505.69	681.25
506.05	688.60
506.41	695.50
506.78	702.43
507.14	709.42
507.50	716.63
507.86	723.75
508.22	731.05
508.59	737.79
508.95	744.88
509.31	751.89
509.67	758.74
510.03	765.47
510.39	772.55
510.75	779.44
511.12	786.25
511.48	792.84
511.84	799.73
512.20	806.53
512.56	813.31
512.92	820.19
513.28	826.42
513.64	832.59
514.00	838.86
514.37	844.99
514.73	851.29
515.09	857.54
515.45	863.44
515.81	869.45
516.17	875.31
516.53	881.00
516.89	886.20
517.25	891.66
517.61	897.09
517.97	902.08
518.33	906.78
518.69	911.73
519.05	916.80
519.41	921.52
519.77	926.41
520.13	930.64
520.49	934.76
520.85	939.01
521.21	943.60
521.57	948.06
521.93	952.00
522.29	956.23
522.65	960.09
523.01	964.06
523.37	967.42
523.73	971.37
524.09	974.74
524.45	978.41
524.81	982.17
525.17	985.90
525.53	989.53
525.89	993.22
526.25	996.72
526.61	999.60
526.97	1002.61
527.33	1005.47
527.68	1008.82
528.04	1011.94
528.40	1014.70
528.76	1017.40
529.12	1020.15
529.48	1023.47
529.84	1025.84
530.20	1028.55
530.56	1031.49
530.91	1034.59
531.27	1037.50
531.63	1040.32
531.99	1043.19
532.35	1045.82
532.71	1048.36
533.07	1051.20
533.42	1053.91
533.78	1056.59
534.14	1059.40
534.50	1061.64
534.86	1064.44
535.21	1066.59
535.57	1069.35
535.93	1071.97
536.29	1074.55
536.65	1077.08
537.00	1079.22
537.36	1081.31
537.72	1083.23
538.08	1085.18
538.44	1087.30
538.79	1089.24
539.15	1091.45
539.51	1093.60
539.87	1095.87
540.22	1097.99
540.58	1100.45
540.94	1102.60
541.29	1104.37
541.65	1106.17
542.01	1108.41
542.37	1110.13
542.72	1112.00
543.08	1113.44
543.44	1115.67
543.79	1117.03
544.15	1118.68
544.51	1120.67
544.87	1123.04
545.22	1125.02
545.58	1126.69
545.94	1128.12
546.29	1129.26
546.65	1130.50
547.01	1131.78
547.36	1132.98
547.72	1134.07
548.07	1134.78
548.43	1135.44
548.79	1136.37
549.14	1137.31
549.50	1138.30
549.86	1139.09
550.21	1140.09
550.57	1141.55
550.92	1141.82
551.28	1142.87
551.64	1143.44
551.99	1144.40
552.35	1144.77
552.70	1145.28
553.06	1146.09
553.41	1146.92
553.77	1148.16
554.13	1149.16
554.48	1150.04
554.84	1151.15
555.19	1152.02
555.55	1152.97
555.90	1153.81
556.26	1154.36
556.61	1154.89
556.97	1155.23
557.32	1156.06
557.68	1156.39
558.03	1156.48
558.39	1156.79
558.74	1157.21
559.10	1157.63
559.45	1157.84
559.81	1158.52
560.16	1158.95
560.52	1159.45
560.87	1159.74
561.23	1159.28
561.58	1159.65
561.94	1159.69
562.29	1159.10
562.64	1159.26
563.00	1159.32
563.35	1159.70
563.71	1160.54
564.06	1160.94
564.42	1161.67
564.77	1162.04
565.12	1162.70
565.48	1163.20
565.83	1163.69
566.19	1164.45
566.54	1164.80
566.89	1164.59
567.25	1164.75
567.60	1165.06
567.96	1165.37
568.31	1165.93
568.66	1166.43
569.02	1166.08
569.37	1165.72
569.72	1165.90
570.08	1165.56
570.43	1164.90
570.78	1164.29
571.14	1163.04
571.49	1162.05
571.84	1161.29
572.20	1160.00
572.55	1159.06
572.90	1157.60
573.26	1156.22
573.61	1154.43
573.96	1152.95
574.31	1151.29
574.67	1149.28
575.02	1147.25
575.37	1144.99
575.72	1142.40
576.08	1140.40
576.43	1138.25
576.78	1136.18
577.13	1134.30
577.49	1132.01
577.84	1129.82
578.19	1127.85
578.54	1126.40
578.90	1125.10
579.25	1122.68
579.60	1120.29
579.95	1117.59
580.30	1115.54
580.66	1113.48
581.01	1110.86
581.36	1108.30
581.71	1105.95
582.06	1103.78
582.42	1101.52
582.77	1098.69
583.12	1096.10
583.47	1093.63
583.82	1090.87
584.17	1088.18
584.53	1085.61
584.88	1082.93
585.23	1080.37
585.58	1077.20
585.93	1074.01
586.28	1070.93
586.63	1068.24
586.98	1065.70
587.34	1063.19
587.69	1060.08
588.04	1057.17
588.39	1054.52
588.74	1051.36
589.09	1048.77
589.44	1045.55
589.79	1042.71
590.14	1040.02
590.49	1037.19
590.84	1033.95
591.19	1031.71
591.54	1028.89
591.89	1025.11
592.25	1022.34
592.60	1019.01
592.95	1015.61
593.30	1011.90
593.65	1008.28
594.00	1004.68
594.35	1002.18
594.70	998.53
595.05	995.33
595.40	991.84
595.75	988.14
596.10	985.21
596.45	981.86
596.80	978.96
597.15	975.69
597.50	972.19
597.85	969.00
598.19	965.71
598.54	962.05
598.89	958.78
599.24	956.05
599.59	952.60
599.94	949.36
600.29	946.50
600.64	943.59
600.99	940.00
601.34	936.79
601.69	932.37
602.04	928.93
602.39	925.48
602.74	922.31
603.08	919.53
603.43	916.34
603.78	912.99
604.13	909.33
604.48	906.03
604.83	903.25
605.18	900.22
605.53	896.95
605.87	893.46
606.22	890.24
606.57	886.42
606.92	882.86
607.27	879.37
607.62	875.81
607.96	872.41
608.31	869.67
608.66	866.27
609.01	862.89
609.36	859.66
609.70	855.88
610.05	852.15
610.40	848.44
610.75	844.70
611.10	841.25
611.44	837.37
611.79	833.41
612.14	829.40
612.49	825.12
612.83	821.43
613.18	817.59
613.53	813.56
613.88	809.77
614.22	806.25
614.57	802.29
614.92	798.62
615.27	794.83
615.61	790.90
615.96	787.20
616.31	783.79
616.65	780.29
617.00	776.82
617.35	773.24
617.70	769.40
618.04	765.37
618.39	761.16
618.74	757.56
619.08	753.76
619.43	750.20
619.78	746.95
620.12	743.37
620.47	740.03
620.82	736.34
621.16	732.55
621.51	728.70
621.85	725.28
622.20	721.53
622.55	717.84
622.89	713.90
623.24	710.29
623.59	706.27
623.93	702.54
624.28	698.93
624.62	695.59
624.97	692.05
625.32	688.59
625.66	685.35
626.01	681.98
626.35	678.75
626.70	675.28
627.04	671.83
627.39	668.46
627.73	665.12
628.08	662.16
628.43	658.90
628.77	655.70
629.12	652.37
629.46	649.33
629.81	646.29
630.15	643.23
630.50	640.14
630.84	637.00
631.19	633.88
631.53	630.92
631.88	627.35
632.22	624.29
632.57	621.59
632.91	618.68
633.26	615.62
633.60	612.55
633.95	609.49
634.29	606.46
634.64	603.45
634.98	600.25
635.32	597.37
635.67	594.76
636.01	591.98
636.36	589.16
636.70	586.43
637.05	583.71
637.39	580.95
637.73	578.39
638.08	576.15
638.42	573.56
638.77	570.90
639.11	568.43
639.45	565.83
639.80	563.05
640.14	560.13
640.49	557.54
640.83	554.83
641.17	552.28
641.52	549.46
641.86	546.84
642.20	544.42
642.55	541.35
642.89	538.66
643.23	535.87
643.58	533.51
643.92	530.65
644.26	528.05
644.61	525.62
644.95	522.94
645.29	520.14
645.64	517.55
645.98	514.98
646.32	512.44
646.66	509.81
647.01	507.27
647.35	505.05
647.69	502.48
648.04	500.18
648.38	497.72
648.72	495.42
649.06	492.91
649.41	490.35
649.75	488.14
650.09	485.82
650.43	483.41
650.78	480.77
651.12	478.41
651.46	475.96
651.80	473.72
652.14	471.34
652.49	469.10
652.83	466.68
653.17	464.22
653.51	461.89
653.85	459.67
654.20	457.47
654.54	455.09
654.88	452.78
655.22	450.51
655.56	448.06
655.90	445.76
656.25	443.43
656.59	441.33
656.93	439.11
657.27	436.98
657.61	434.77
657.95	432.73
658.29	430.70
658.64	428.70
658.98	426.55
659.32	424.30
659.66	422.15
660.00	420.08
660.34	418.09
660.68	416.05
661.02	413.94
661.36	411.96
661.70	410.05
662.05	408.24
662.39	406.40
662.73	404.87
663.07	403.28
663.41	401.61
663.75	399.69
664.09	397.88
664.43	395.96
664.77	394.23
665.11	392.39
665.45	390.62
665.79	388.92
666.13	387.15
666.47	385.64
666.81	384.06
667.15	382.48
667.49	380.90
667.83	379.39
668.17	377.85
668.51	376.27
668.85	374.78
669.19	373.40
669.53	371.75
669.87	370.03
670.21	368.25
670.55	366.70
670.89	365.51
671.23	364.24
671.57	362.99
671.91	361.67
672.25	360.23
672.58	358.98
672.92	357.49
673.26	356.12
673.60	354.69
673.94	353.29
674.28	351.93
674.62	350.68
674.96	349.32
675.30	348.08
675.64	346.71
675.97	345.42
676.31	344.13
676.65	342.95
676.99	341.88
677.33	340.75
677.67	339.57
678.01	338.20
678.34	336.92
678.68	335.69
679.02	334.55
679.36	333.48
679.70	332.19
680.04	331.08
680.37	329.87
680.71	328.76
681.05	327.64
681.39	326.50
681.73	325.36
682.06	324.40
682.40	323.46
682.74	322.44
683.08	321.41
683.42	320.22
683.75	319.07
684.09	317.90
684.43	316.94
684.77	315.82
685.10	314.73
685.44	313.55
685.78	312.42
686.12	311.41
686.45	310.41
686.79	309.39
687.13	308.55
687.46	307.66
687.80	306.85
688.14	305.94
688.48	305.08
688.81	304.17
689.15	303.16
689.49	301.99
689.82	301.16
690.16	300.09
690.50	299.14
690.83	298.25
691.17	297.26
691.51	296.17
691.84	295.42
692.18	294.49
692.52	293.78
692.85	293.07
693.19	292.34
693.52	291.46
693.86	290.57
694.20	289.62
694.53	288.77
694.87	287.84
695.21	286.91
695.54	286.03
695.88	285.03
696.21	284.21
696.55	283.57
696.88	282.68
697.22	281.90
697.56	281.24
697.89	280.45
698.23	279.74
698.56	278.99
698.90	278.24
699.23	277.46
699.57	276.69
699.90	275.89
700.24	275.01
700.58	274.32
700.91	273.81
701.25	273.33
701.58	272.74
701.92	272.08
702.25	271.41
702.59	270.70
702.92	270.17
703.26	269.51
703.59	268.87
703.93	268.59
704.26	268.08
704.60	267.45
704.93	266.92
705.26	266.27
705.60	265.73
705.93	265.05
706.27	264.69
706.60	264.24
706.94	263.86
707.27	263.28
707.61	262.72
707.94	262.12
708.27	261.27
708.61	260.65
708.94	260.12
709.28	259.66
709.61	259.15
709.94	258.66
710.28	258.16
710.61	257.71
710.95	256.93
711.28	256.66
711.61	256.18
711.95	255.73
712.28	255.33
712.61	254.92
712.95	254.72
713.28	254.35
713.61	253.78
713.95	253.27
714.28	252.85
714.61	252.45
714.95	251.90
715.28	251.48
715.61	251.01
715.95	250.52
716.28	250.02
716.61	249.72
716.95	249.23
717.28	248.88
717.61	248.41
717.94	247.96
718.28	247.27
718.61	246.84
718.94	246.41
719.27	246.04
719.61	245.71
719.94	245.24
720.27	244.71
720.60	244.36
720.94	244.00
721.27	243.70
721.60	243.41
721.93	243.12
722.27	242.98
722.60	242.76
722.93	242.54
723.26	242.40
723.59	242.00
723.93	241.72
724.26	241.43
724.59	241.09
724.92	240.85
725.25	240.62
725.59	240.28
725.92	240.08
726.25	239.76
726.58	239.51
726.91	239.14
727.24	238.92
727.57	238.63
727.91	238.17
728.24	237.89
728.57	237.54
728.90	237.38
729.23	236.93
729.56	236.83
729.89	236.57
730.22	236.16
730.55	235.98
730.89	235.72
731.22	235.53
731.55	235.34
731.88	235.13
732.21	234.77
732.54	234.61
732.87	234.32
733.20	234.15
733.53	233.90
733.86	233.79
734.19	233.51
734.52	233.39
734.85	233.55
735.18	233.21
735.51	233.06
735.84	232.85
736.17	232.76
736.50	232.37
736.83	232.46
737.16	232.31
737.49	232.03
737.82	231.90
738.15	231.69
738.48	231.38
738.81	231.10
739.14	230.97
739.47	230.81
739.80	230.65
740.13	230.45
740.46	230.17
740.79	229.88
741.12	229.67
741.45	229.37
741.78	228.92
742.11	228.89
742.44	228.70
742.77	228.52
743.10	228.26
743.43	228.06
743.75	227.56
744.08	227.84
744.41	227.74
744.74	227.55
745.07	227.30
745.40	227.24
745.73	227.24
746.06	227.10
746.39	226.93
746.71	226.69
747.04	226.47
747.37	226.35
747.70	226.26
748.03	226.16
748.36	226.10
748.68	225.97
749.01	225.71
749.34	225.57
749.67	225.44
750.00	225.37
750.33	225.51
750.65	225.42
750.98	224.77
751.31	224.57
751.64	224.49
751.97	224.60
752.29	224.47
752.62	224.18
752.95	224.02
753.28	223.79
753.60	223.67
753.93	223.64
754.26	223.45
754.59	223.17
754.91	223.01
755.24	222.86
755.57	222.75
755.90	222.57
756.22	222.42
756.55	222.29
756.88	222.15
757.20	221.80
757.53	221.55
757.86	221.50
758.19	221.40
758.51	221.21
758.84	220.84
759.17	220.67
759.49	220.63
759.82	220.67
760.15	220.67
760.47	220.60
760.80	220.40
761.13	220.48
761.45	220.35
761.78	220.24
762.11	220.13
762.43	219.97
762.76	219.98
763.08	219.90
763.41	219.81
763.74	219.74
764.06	219.55
764.39	219.51
764.71	219.40
765.04	219.29
765.37	219.19
765.69	219.14
766.02	219.06
766.34	218.92
766.67	218.73
767.00	218.64
767.32	218.70
767.65	218.85
767.97	218.76
768.30	218.79
768.62	218.73
768.95	218.57
769.27	218.55
769.60	218.49
769.92	218.42
770.25	218.24
770.57	218.09
770.90	218.06
771.22	217.93
771.55	217.81
771.87	217.76
772.20	217.71
772.52	217.93
772.85	218.31
773.17	218.27
773.50	218.23
773.82	218.12
774.15	217.92
774.47	217.57
774.80	217.41
775.12	217.38
775.45	217.28
775.77	217.30
776.09	217.19
776.42	217.15
776.74	217.09
777.07	217.02
777.39	217.01
777.72	216.93
778.04	216.89
778.36	216.89
778.69	216.86
779.01	216.84
779.33	216.48
779.66	216.05
779.98	215.98
780.31	215.95
780.63	216.05
780.95	216.04
781.28	216.08
781.60	216.07
781.92	216.03
782.25	216.03
782.57	215.96
782.89	215.88
783.22	215.76
783.54	215.75
783.86	215.78
784.19	215.70
784.51	215.76
784.83	215.71
785.16	215.63
785.48	215.55
785.80	215.52
786.12	215.53
786.45	215.47
786.77	215.43
787.09	215.31
787.42	215.18
787.74	215.21
788.06	215.13
788.38	215.00
788.71	214.89
789.03	214.83
789.35	214.90
789.67	214.87
789.99	214.86
790.32	214.75
790.64	214.75
790.96	214.98
791.28	214.80
791.61	214.83
791.93	214.86
792.25	214.85
792.57	215.04
792.89	214.91
793.21	214.87
793.54	214.87
793.86	214.84
794.18	214.80
794.50	214.70
794.82	214.68
795.14	214.80
795.47	214.91
795.79	214.98
796.11	214.83
796.43	214.84
796.75	214.81
797.07	214.81
797.39	214.75
797.71	214.50
798.04	214.55
798.36	214.53
798.68	214.54
799.00	214.59
799.32	214.43
799.64	214.54
799.96	214.50
800.28	214.53
800.60	214.42
800.92	214.47
801.24	214.40
801.56	214.44
801.89	214.34
802.21	214.30
802.53	214.17
802.85	214.23
803.17	214.39
803.49	214.38
803.81	214.40
804.13	214.33
804.45	214.26
804.77	214.27
805.09	214.24
805.41	214.18
805.73	214.06
806.05	213.97
806.37	213.92
806.69	213.90
807.01	213.81
807.33	213.89
807.65	213.71
807.97	213.90
808.28	213.86
808.60	213.81
808.92	213.71
809.24	213.98
809.56	213.93
809.88	213.76
810.20	213.75
810.52	213.75
810.84	213.75
811.16	213.76
811.48	213.78
811.80	213.83
812.12	213.75
812.43	213.80
812.75	213.75
813.07	213.70
813.39	213.70
813.71	213.64
814.03	213.60
814.35	213.61
814.67	213.36
814.98	213.32
815.30	213.34
815.62	213.20
815.94	212.85
816.26	212.88
816.58	212.78
816.89	212.71
817.21	212.61
817.53	212.62
817.85	212.61
818.17	212.46
818.48	212.39
818.80	212.47
819.12	212.38
819.44	212.32
819.76	212.26
820.07	212.23
820.39	212.25
820.71	212.19
821.03	212.19
821.34	212.24
821.66	212.29
821.98	212.29
822.30	212.40
822.61	212.63
822.93	212.56
823.25	212.54
823.57	212.55
823.88	212.66
824.20	212.61
824.52	212.61
824.83	212.64
825.15	212.52
825.47	212.50
825.79	212.61
826.10	212.55
826.42	212.49
826.74	212.50
827.05	212.47
827.37	212.42
827.69	212.39
828.00	212.34
828.32	212.35
828.64	212.24
828.95	212.39
829.27	212.31
829.58	212.33
829.90	212.38
830.22	212.35
830.53	212.22
830.85	212.23
831.17	212.13
831.48	212.09
831.80	212.13
832.11	212.05
832.43	211.90
832.75	211.89
833.06	212.10
833.38	212.00
833.69	211.97
834.01	212.04
834.32	212.05
834.64	211.99
834.96	211.92
835.27	211.99
835.59	211.83
835.90	211.73
836.22	211.66
836.53	211.59
836.85	211.54
837.16	211.84
837.48	211.80
837.79	211.96
838.11	211.97
838.42	211.95
838.74	212.04
839.05	212.06
839.37	212.09
839.68	211.91
840.00	211.91
840.31	211.96
840.63	211.92
840.94	211.83
841.26	211.75
841.57	211.76
841.88	211.73
842.20	211.69
842.51	211.66
842.83	211.67
843.14	211.97
843.46	212.02
843.77	211.80
844.08	211.83
844.40	211.70
844.71	211.70
845.03	211.68
845.34	211.60
845.65	211.57
845.97	211.56
846.28	211.58
846.60	211.62
846.91	211.58
847.22	211.60
847.54	211.74
847.85	211.88
848.16	211.87
848.48	211.75
848.79	211.90
849.10	212.02
849.42	211.99
849.73	211.65
850.04	211.60
850.36	211.56
850.67	211.56
850.98	211.61
851.30	211.70
851.61	211.71
851.92	211.72
852.23	211.91
852.55	211.97
852.86	211.97
853.17	212.04
853.49	212.09
853.80	212.18
854.11	212.17
854.42	212.16
854.74	212.07
855.05	212.17
855.36	212.06
855.67	211.96
855.99	211.97
856.30	212.43
856.61	212.47
856.92	212.40
857.23	212.41
857.55	212.40
857.86	212.30
858.17	212.30
858.48	212.17
858.79	212.02
859.11	212.01
859.42	212.00
859.73	211.91
860.04	211.92
860.35	211.80
860.66	211.72
860.98	211.75
861.29	211.84
861.60	211.82
861.91	211.87
862.22	211.90
862.53	211.89
862.84	211.48
863.16	211.61
863.47	211.55
863.78	211.50
864.09	211.49
864.40	211.56
864.71	211.59
865.02	211.72
865.33	211.69
865.64	211.68
865.95	211.70
866.27	211.90
866.58	211.87
866.89	211.93
867.20	211.92
867.51	211.83
867.82	211.79
868.13	211.91
868.44	211.88
868.75	211.89
869.06	211.93
869.37	211.96
869.68	211.80
869.99	211.96
870.30	212.03
870.61	212.09
870.92	212.08
871.23	212.05
871.54	212.14
871.85	212.21
872.16	212.15
872.47	212.15
872.78	212.00
873.09	212.06
873.40	212.06
873.71	212.06
874.02	212.13
874.33	212.15
874.64	212.12
874.95	212.16
875.26	212.10
875.56	212.06
875.87	212.04
876.18	212.06
876.49	212.38
876.80	212.37
877.11	212.29
877.42	212.28
877.73	212.34
878.04	212.21
878.35	212.23
878.66	212.28
878.96	212.25
879.27	212.20
879.58	212.09
879.89	212.05
880.20	212.18
880.51	212.23
880.82	212.18
881.12	212.11
881.43	211.99
881.74	211.98
882.05	211.98
882.36	212.00
882.67	212.01
882.97	211.63
883.28	211.52
883.59	211.49
883.90	211.52
884.21	211.54
884.51	211.52
884.82	211.51
885.13	211.52
885.44	211.56
885.74	211.57
886.05	211.57
886.36	211.57
886.67	211.40
886.98	211.49
887.28	211.61
887.59	211.58
887.90	211.61
888.20	211.59
888.51	211.67
888.82	211.67
889.13	211.68
889.43	211.92
889.74	211.93
890.05	211.95
890.35	211.83
890.66	211.74
890.97	211.71
891.28	211.62
891.58	211.62
891.89	211.56
892.20	211.49
892.50	211.53
892.81	211.53
893.12	211.51
893.42	211.37
893.73	211.29
894.04	211.31
894.34	211.32
894.65	211.32
894.95	211.21
895.26	211.23
895.57	211.35
895.87	211.04
896.18	211.19
896.48	211.21
896.79	211.23
897.10	211.30
897.40	211.31
897.71	211.43
898.01	211.41
898.32	211.41
898.63	211.39
898.93	211.31
899.24	211.30
899.54	211.26
899.85	211.22
900.15	211.16
900.46	211.15
900.76	211.18
901.07	211.09
901.38	211.07
901.68	211.04
901.99	210.82
902.29	210.89
902.60	210.79
902.90	210.76
903.21	210.81
903.51	210.79
903.82	210.85
904.12	210.78
904.43	210.79
904.73	210.78
905.03	210.82
905.34	211.17
905.64	211.15
905.95	211.15
906.25	211.17
906.56	211.15
906.86	211.18
907.17	211.15
907.47	211.19
907.77	211.23
908.08	211.18
908.38	211.28
908.69	211.25
908.99	211.33
909.30	211.36
909.60	211.36
909.90	211.35
910.21	211.28
910.51	211.22
910.81	211.22
911.12	211.25
911.42	211.34
911.73	211.05
912.03	211.10
912.33	211.19
912.64	211.10
912.94	211.15
913.24	211.09
913.55	211.09
913.85	211.14
914.15	211.17
914.46	211.24
914.76	211.20
915.06	211.21
915.37	211.15
915.67	211.14
915.97	211.15
916.27	211.13
916.58	211.15
916.88	211.24
917.18	211.24
917.49	211.55
917.79	211.53
918.09	211.57
918.39	211.64
918.70	211.68
919.00	211.74
919.30	211.90
919.60	211.90
919.91	211.83
920.21	211.90
920.51	211.83
920.81	211.86
921.12	211.97
921.42	212.02
921.72	212.08
922.02	212.11
922.32	212.15
922.63	212.24
922.93	212.40
923.23	212.40
923.53	212.35
923.83	212.05
924.13	212.09
924.44	212.13
924.74	212.23
925.04	212.25
925.34	212.25
925.64	212.14
925.94	212.12
926.24	212.36
926.55	212.28
926.85	212.41
927.15	212.39
927.45	212.31
927.75	212.32
928.05	212.24
928.35	212.24
928.65	212.30
928.95	212.27
929.26	212.14
929.56	212.19
929.86	212.23
930.16	212.25
930.46	212.15
930.76	212.11
931.06	211.95
931.36	211.87
931.66	211.92
931.96	212.01
932.26	212.10
932.56	211.95
932.86	211.97
933.16	211.92
933.46	211.89
933.76	211.83
934.06	211.91
934.36	212.08
934.66	211.99
934.96	211.97
935.26	211.95
935.56	212.06
935.86	212.00
936.16	211.97
936.46	211.92
936.76	211.93
937.06	211.88
937.36	211.86
937.66	211.94
937.96	211.95
938.26	211.87
938.56	211.81
938.86	211.80
939.16	211.90
939.46	211.92
939.76	211.87
940.06	211.93
940.35	211.72
940.65	211.49
940.95	211.59
941.25	211.42
941.55	211.37
941.85	211.25
942.15	211.24
942.45	211.30
942.75	211.29
943.04	211.31
943.34	211.38
943.64	211.36
943.94	211.32
944.24	211.30
944.54	211.22
944.84	211.19
945.13	211.16
945.43	211.02
945.73	210.99
946.03	211.00
946.33	210.95
946.62	210.94
946.92	210.96
947.22	210.95
947.52	211.00
947.82	211.10
948.11	211.06
948.41	210.96
948.71	210.86
949.01	210.88
949.31	210.86
949.60	210.77
949.90	210.79
950.20	210.76
950.50	210.76
950.79	210.74
951.09	210.80
951.39	210.79
951.69	210.77
951.98	210.83
952.28	210.83
952.58	210.80
952.87	210.84
953.17	210.93
953.47	210.91
953.76	210.85
954.06	210.76
954.36	210.76
954.66	210.78
954.95	210.83
955.25	210.88
955.55	210.92
955.84	210.93
956.14	210.98
956.44	211.01
956.73	210.95
957.03	211.01
957.32	211.00
957.62	211.05
957.92	211.20
958.21	211.07
958.51	211.51
958.81	211.54
959.10	211.59
959.40	211.63
959.69	211.61
959.99	211.64
960.29	211.56
960.58	211.56
960.88	211.67
961.17	211.60
961.47	211.68
961.76	211.60
962.06	211.62
962.36	211.59
962.65	211.59
962.95	211.61
963.24	211.61
963.54	211.68
963.83	211.64
964.13	211.56
964.42	211.51
964.72	211.20
965.01	211.25
965.31	211.17
965.60	211.10
965.90	211.28
966.19	211.26
966.49	211.36
966.78	211.30
967.08	211.35
967.37	211.50
967.67	211.36
967.96	211.46
968.26	211.48
968.55	211.46
968.85	211.46
969.14	211.43
969.43	211.37
969.73	211.26
970.02	211.21
970.32	211.21
970.61	211.29
970.91	211.13
971.20	211.10
971.49	211.08
971.79	211.08
972.08	210.91
972.38	210.97
972.67	210.99
972.96	211.05
973.26	210.91
973.55	210.99
973.85	210.91
974.14	210.84
974.43	210.89
974.73	210.82
975.02	210.79
975.31	210.83
975.61	210.86
975.90	210.90
976.19	210.95
976.49	210.99
976.78	211.00
977.07	211.10
977.37	211.07
977.66	211.18
977.95	211.11
978.24	211.13
978.54	211.24
978.83	211.18
979.12	211.19
979.42	211.21
979.71	211.09
980.00	211.12
980.29	211.19
980.59	211.07
980.88	211.20
981.17	211.16
981.46	211.12
981.76	211.04
982.05	211.05
982.34	210.95
982.63	210.99
982.93	210.95
983.22	210.95
983.51	210.95
983.80	210.90
984.09	210.91
984.39	210.89
984.68	210.78
984.97	210.86
985.26	210.82
985.55	210.88
985.85	210.83
986.14	210.90
986.43	210.94
986.72	210.92
987.01	210.74
987.30	210.76
987.59	210.75
987.89	210.81
988.18	210.82
988.47	210.77
988.76	210.69
989.05	210.62
989.34	210.60
989.63	210.70
989.92	210.69
990.22	210.72
990.51	210.67
990.80	210.56
991.09	210.56
991.38	210.54
991.67	210.50
991.96	210.42
992.25	210.44
992.54	210.34
992.83	210.35
993.12	210.37
993.41	210.38
993.70	210.50
993.99	210.57
994.28	210.57
994.58	210.71
994.87	210.70
995.16	210.76
995.45	210.73
995.74	210.63
996.03	210.70
996.32	210.72
996.61	210.82
996.90	210.92
997.19	210.87
997.48	210.96
997.77	210.95
998.06	210.98
998.34	210.98
998.63	211.06
998.92	211.10
999.21	211.14
999.50	211.15
999.79	211.06
1000.08	211.02
1000.37	210.99
1000.66	210.95
1000.95	211.07
1001.24	211.08
1001.53	211.16
1001.82	211.17
1002.11	211.00
1002.40	211.03
1002.68	211.12
1002.97	211.35
1003.26	211.29
1003.55	211.23
1003.84	211.24
1004.13	211.34
1004.42	211.30
1004.71	211.16
1004.99	211.12
1005.28	211.18
1005.57	211.15
1005.86	211.06
1006.15	211.03
1006.44	211.01
1006.72	211.08
1007.01	211.04
1007.30	211.01
1007.59	210.88
1007.88	210.85
1008.17	210.98
1008.45	210.92
1008.74	210.79
1009.03	210.57
1009.32	210.59
1009.60	210.47
1009.89	210.41
1010.18	210.34
1010.47	210.35
1010.76	210.42
1011.04	210.50
1011.33	210.58
1011.62	210.60
1011.91	210.71
1012.19	210.73
1012.48	210.70
1012.77	210.64
1013.05	210.76
1013.34	210.85
1013.63	210.91
1013.92	210.93
1014.20	210.89
1014.49	210.94
1014.78	210.96
1015.06	210.85
1015.35	210.80
1015.64	210.89
1015.92	210.95
1016.21	211.01
1016.50	210.90
1016.78	210.85
1017.07	210.83
1017.36	210.74
1017.64	210.74
1017.93	210.78
1018.22	210.78
1018.50	210.85
1018.79	210.84
1019.08	210.65
1019.36	210.60
1019.65	210.62
1019.93	210.71
1020.22	210.72
1020.51	210.84
1020.79	210.75
1021.08	210.50
1021.36	211.05
1021.65	210.90
1021.94	210.55
1022.22	210.90
1022.51	211.20
1022.79	212.40
1023.08	210.65
1023.36	214.05
1023.65	209.70
>>>>>End Processed Spectral Data<<<<<
