SpectraSuite Data File
++++++++++++++++++++++++++++++++++++
Date: Mon Feb 25 16:59:13 EST 2013
User: group
Dark Spectrum Present: No
Reference Spectrum Present: No
Number of Sampled Component Spectra: 1
Spectrometers: USB2E7196
Integration Time (usec): 104000 (USB2E7196)
Spectra Averaged: 20 (USB2E7196)
Boxcar Smoothing: 10 (USB2E7196)
Correct for Electrical Dark: No (USB2E7196)
Strobe/Lamp Enabled: No (USB2E7196)
Correct for Detector Non-linearity: No (USB2E7196)
Correct for Stray Light: No (USB2E7196)
Number of Pixels in Processed Spectrum: 2048
>>>>>Begin Processed Spectral Data<<<<<
339.09	0.00
339.48	199.35
339.86	199.95
340.24	201.80
340.63	203.55
341.01	210.70
341.39	206.25
341.78	207.50
342.16	209.55
342.54	208.15
342.93	198.58
343.31	208.59
343.69	209.14
344.07	209.65
344.46	210.14
344.84	210.50
345.22	210.52
345.60	210.78
345.99	210.93
346.37	211.06
346.75	211.16
347.13	211.15
347.52	211.29
347.90	211.44
348.28	211.52
348.66	211.59
349.05	211.42
349.43	211.46
349.81	211.52
350.19	211.52
350.57	211.57
350.96	211.68
351.34	211.74
351.72	211.80
352.10	211.81
352.48	211.76
352.87	211.82
353.25	211.89
353.63	211.93
354.01	212.01
354.39	212.02
354.77	212.19
355.15	212.34
355.54	212.29
355.92	212.24
356.30	212.21
356.68	212.48
357.06	212.61
357.44	212.62
357.82	212.63
358.20	212.76
358.58	212.84
358.97	212.79
359.35	212.93
359.73	213.03
360.11	213.09
360.49	213.18
360.87	213.18
361.25	213.20
361.63	213.31
362.01	213.34
362.39	213.33
362.77	213.31
363.15	213.31
363.53	213.29
363.91	213.32
364.29	213.45
364.67	213.14
365.05	213.13
365.43	213.15
365.81	213.24
366.19	213.34
366.57	213.49
366.95	213.53
367.33	213.43
367.71	213.40
368.09	213.43
368.47	213.34
368.85	213.38
369.23	213.40
369.61	213.26
369.99	213.35
370.37	213.39
370.75	213.56
371.13	213.45
371.51	213.40
371.89	213.47
372.27	213.40
372.65	213.38
373.03	213.33
373.41	213.33
373.78	213.25
374.16	213.09
374.54	212.86
374.92	212.79
375.30	212.78
375.68	212.69
376.06	212.67
376.44	212.72
376.82	212.63
377.19	212.67
377.57	212.62
377.95	212.47
378.33	212.40
378.71	212.07
379.09	212.10
379.47	212.10
379.84	212.00
380.22	211.93
380.60	211.85
380.98	211.83
381.36	211.76
381.73	211.70
382.11	211.71
382.49	211.73
382.87	211.71
383.25	211.68
383.62	212.09
384.00	212.06
384.38	212.03
384.76	212.11
385.13	212.12
385.51	212.12
385.89	212.07
386.27	212.01
386.64	212.07
387.02	211.97
387.40	211.98
387.78	211.89
388.15	211.91
388.53	211.85
388.91	211.72
389.29	211.66
389.66	211.70
390.04	211.62
390.42	211.65
390.79	211.61
391.17	211.56
391.55	211.10
391.92	211.05
392.30	211.01
392.68	210.82
393.05	210.79
393.43	210.77
393.81	210.75
394.18	210.74
394.56	210.69
394.94	210.81
395.31	210.74
395.69	210.80
396.06	210.84
396.44	210.90
396.82	210.93
397.19	211.11
397.57	211.08
397.95	211.15
398.32	211.06
398.70	211.15
399.07	211.28
399.45	211.30
399.82	211.30
400.20	211.35
400.58	211.47
400.95	211.39
401.33	211.53
401.70	211.87
402.08	212.00
402.45	212.15
402.83	212.36
403.20	212.56
403.58	212.69
403.95	212.90
404.33	213.05
404.71	213.32
405.08	213.65
405.46	213.82
405.83	214.04
406.21	214.23
406.58	214.45
406.96	214.66
407.33	214.99
407.70	215.39
408.08	215.95
408.45	216.39
408.83	216.88
409.20	217.22
409.58	217.42
409.95	217.96
410.33	218.51
410.70	218.85
411.08	219.40
411.45	220.09
411.82	220.61
412.20	221.57
412.57	222.47
412.95	223.07
413.32	224.15
413.69	225.00
414.07	226.03
414.44	227.18
414.82	228.40
415.19	229.71
415.56	231.02
415.94	232.37
416.31	234.08
416.68	235.73
417.06	237.65
417.43	239.48
417.81	241.46
418.18	243.49
418.55	245.81
418.93	248.20
419.30	250.65
419.67	253.34
420.04	255.98
420.42	258.83
420.79	262.32
421.16	265.56
421.54	269.20
421.91	272.90
422.28	276.70
422.66	280.75
423.03	284.85
423.40	288.98
423.77	293.36
424.15	297.81
424.52	302.46
424.89	307.56
425.26	312.49
425.64	317.28
426.01	322.61
426.38	328.03
426.75	333.64
427.13	339.35
427.50	345.46
427.87	351.73
428.24	357.98
428.61	363.96
428.99	370.60
429.36	377.74
429.73	384.84
430.10	391.90
430.47	399.10
430.85	406.62
431.22	414.66
431.59	423.27
431.96	431.41
432.33	440.53
432.70	449.38
433.08	459.79
433.45	469.52
433.82	479.27
434.19	490.29
434.56	501.11
434.93	511.57
435.30	521.82
435.68	533.29
436.05	544.67
436.42	556.10
436.79	566.61
437.16	578.01
437.53	590.01
437.90	601.81
438.27	613.48
438.64	625.65
439.01	637.08
439.38	647.17
439.75	657.04
440.13	668.33
440.50	678.91
440.87	687.86
441.24	697.12
441.61	707.33
441.98	714.90
442.35	723.77
442.72	732.72
443.09	741.46
443.46	747.07
443.83	751.11
444.20	754.57
444.57	759.39
444.94	762.00
445.31	764.90
445.68	767.85
446.05	769.65
446.42	769.49
446.79	768.96
447.16	768.43
447.53	768.35
447.90	764.89
448.27	761.51
448.64	756.05
449.01	752.38
449.37	745.44
449.74	738.76
450.11	730.44
450.48	721.47
450.85	712.21
451.22	704.29
451.59	696.76
451.96	689.59
452.33	679.81
452.70	670.86
453.07	659.85
453.43	648.79
453.80	638.23
454.17	628.00
454.54	618.40
454.91	608.03
455.28	597.90
455.65	588.47
456.02	579.09
456.38	571.24
456.75	561.31
457.12	552.81
457.49	544.49
457.86	536.38
458.23	529.33
458.59	521.80
458.96	514.16
459.33	507.27
459.70	500.44
460.07	494.97
460.43	488.84
460.80	483.14
461.17	477.92
461.54	472.46
461.91	467.29
462.27	462.10
462.64	457.66
463.01	452.65
463.38	447.83
463.74	442.93
464.11	438.64
464.48	435.00
464.85	430.98
465.21	427.94
465.58	424.70
465.95	420.81
466.32	417.50
466.68	414.12
467.05	410.94
467.42	407.61
467.78	404.20
468.15	401.03
468.52	398.65
468.88	395.53
469.25	392.67
469.62	390.39
469.98	387.82
470.35	385.44
470.72	383.14
471.08	380.69
471.45	378.59
471.82	376.56
472.18	374.26
472.55	372.56
472.92	370.57
473.28	368.71
473.65	367.01
474.02	365.16
474.38	363.90
474.75	362.83
475.11	361.59
475.48	360.52
475.85	359.53
476.21	358.48
476.58	357.63
476.94	357.12
477.31	356.42
477.67	355.82
478.04	355.20
478.41	354.91
478.77	354.90
479.14	354.50
479.50	354.40
479.87	354.38
480.23	354.43
480.60	354.30
480.96	354.28
481.33	354.56
481.69	355.00
482.06	355.09
482.42	355.05
482.79	355.29
483.15	355.77
483.52	356.42
483.88	356.93
484.25	357.46
484.61	358.05
484.98	358.69
485.34	359.60
485.71	360.68
486.07	361.69
486.44	362.41
486.80	363.58
487.17	364.74
487.53	366.20
487.90	367.60
488.26	369.21
488.62	370.91
488.99	372.48
489.35	374.04
489.72	375.90
490.08	377.91
490.44	379.83
490.81	381.81
491.17	383.72
491.54	385.88
491.90	388.16
492.26	390.45
492.63	392.81
492.99	395.29
493.36	397.80
493.72	400.49
494.08	403.40
494.45	406.28
494.81	409.27
495.17	412.10
495.54	415.24
495.90	418.40
496.26	421.51
496.63	424.83
496.99	428.22
497.35	431.65
497.72	435.16
498.08	438.79
498.44	442.54
498.80	446.47
499.17	450.38
499.53	454.18
499.89	458.15
500.26	462.06
500.62	465.65
500.98	469.65
501.34	473.47
501.71	477.49
502.07	481.35
502.43	485.24
502.79	489.04
503.16	492.90
503.52	496.82
503.88	500.68
504.24	504.57
504.60	508.41
504.97	512.41
505.33	516.26
505.69	520.36
506.05	524.11
506.41	527.69
506.78	531.14
507.14	534.69
507.50	538.20
507.86	541.80
508.22	545.53
508.59	548.92
508.95	552.35
509.31	555.70
509.67	559.02
510.03	562.22
510.39	565.60
510.75	568.86
511.12	571.89
511.48	574.83
511.84	577.71
512.20	580.50
512.56	583.20
512.92	585.96
513.28	588.45
513.64	591.16
514.00	593.55
514.37	595.95
514.73	598.46
515.09	600.78
515.45	602.88
515.81	604.87
516.17	606.75
516.53	608.80
516.89	610.38
517.25	612.12
517.61	613.98
517.97	615.49
518.33	616.79
518.69	618.32
519.05	619.97
519.41	621.42
519.77	623.05
520.13	624.38
520.49	625.50
520.85	626.68
521.21	627.72
521.57	629.01
521.93	630.12
522.29	631.36
522.65	632.42
523.01	633.66
523.37	634.63
523.73	635.80
524.09	636.62
524.45	637.75
524.81	638.94
525.17	639.99
525.53	641.19
525.89	642.48
526.25	643.55
526.61	644.37
526.97	645.12
527.33	646.01
527.68	647.19
528.04	648.32
528.40	649.22
528.76	650.24
529.12	651.37
529.48	652.70
529.84	653.69
530.20	654.89
530.56	655.94
530.91	657.59
531.27	659.05
531.63	660.56
531.99	662.10
532.35	663.49
532.71	664.73
533.07	666.29
533.42	668.14
533.78	669.78
534.14	671.51
534.50	673.27
534.86	675.01
535.21	676.48
535.57	678.36
535.93	680.14
536.29	681.92
536.65	683.77
537.00	685.46
537.36	687.02
537.72	688.85
538.08	690.67
538.44	692.31
538.79	693.97
539.15	695.91
539.51	697.70
539.87	699.89
540.22	702.20
540.58	704.54
540.94	706.37
541.29	708.35
541.65	710.28
542.01	712.54
542.37	714.88
542.72	716.97
543.08	718.98
543.44	721.44
543.79	723.54
544.15	725.60
544.51	728.21
544.87	730.90
545.22	733.30
545.58	735.74
545.94	738.06
546.29	740.25
546.65	742.30
547.01	744.61
547.36	746.69
547.72	748.84
548.07	750.79
548.43	752.74
548.79	754.81
549.14	757.17
549.50	759.43
549.86	761.29
550.21	763.70
550.57	766.34
550.92	768.34
551.28	770.86
551.64	773.24
551.99	775.52
552.35	777.71
552.70	779.85
553.06	782.13
553.41	784.36
553.77	786.91
554.13	789.43
554.48	791.82
554.84	794.41
555.19	796.61
555.55	799.10
555.90	801.37
556.26	803.49
556.61	805.47
556.97	807.43
557.32	809.57
557.68	811.44
558.03	813.09
558.39	814.98
558.74	816.73
559.10	818.55
559.45	820.31
559.81	822.30
560.16	823.98
560.52	825.75
560.87	827.65
561.23	829.15
561.58	831.22
561.94	832.65
562.29	833.80
562.64	835.62
563.00	836.95
563.35	838.68
563.71	840.78
564.06	842.65
564.42	844.46
564.77	846.38
565.12	848.43
565.48	850.35
565.83	852.21
566.19	854.15
566.54	855.58
566.89	857.07
567.25	858.73
567.60	860.61
567.96	862.53
568.31	864.18
568.66	865.81
569.02	866.50
569.37	867.80
569.72	869.18
570.08	870.24
570.43	871.30
570.78	872.06
571.14	872.67
571.49	873.27
571.84	874.07
572.20	874.39
572.55	874.69
572.90	874.70
573.26	874.94
573.61	875.08
573.96	875.49
574.31	875.40
574.67	875.11
575.02	874.64
575.37	873.99
575.72	873.28
576.08	872.99
576.43	872.73
576.78	872.41
577.13	871.89
577.49	871.19
577.84	870.60
578.19	870.42
578.54	870.16
578.90	870.04
579.25	869.31
579.60	868.66
579.95	867.73
580.30	867.19
580.66	866.43
581.01	865.37
581.36	864.42
581.71	863.50
582.06	862.64
582.42	861.85
582.77	860.68
583.12	859.55
583.47	858.43
583.82	857.33
584.17	856.02
584.53	855.28
584.88	853.97
585.23	852.84
585.58	851.40
585.93	850.06
586.28	848.47
586.63	847.10
586.98	845.95
587.34	845.07
587.69	843.61
588.04	842.26
588.39	841.04
588.74	839.47
589.09	838.33
589.44	836.64
589.79	835.30
590.14	834.18
590.49	832.80
590.84	831.25
591.19	830.02
591.54	828.70
591.89	826.62
592.25	825.53
592.60	823.71
592.95	821.81
593.30	819.55
593.65	817.71
594.00	815.90
594.35	814.87
594.70	812.52
595.05	811.00
595.40	809.09
595.75	807.03
596.10	805.33
596.45	803.38
596.80	801.86
597.15	799.91
597.50	797.61
597.85	795.96
598.19	793.91
598.54	791.86
598.89	789.73
599.24	788.22
599.59	785.95
599.94	784.09
600.29	782.20
600.64	780.45
600.99	778.37
601.34	776.49
601.69	773.51
602.04	771.47
602.39	769.04
602.74	767.06
603.08	765.33
603.43	763.44
603.78	761.16
604.13	758.78
604.48	756.79
604.83	755.24
605.18	753.32
605.53	751.42
605.87	749.09
606.22	746.98
606.57	744.60
606.92	742.27
607.27	739.98
607.62	737.98
607.96	735.86
608.31	734.03
608.66	731.70
609.01	729.39
609.36	727.13
609.70	724.80
610.05	722.34
610.40	719.75
610.75	717.01
611.10	714.86
611.44	712.29
611.79	709.64
612.14	706.82
612.49	703.83
612.83	701.18
613.18	698.69
613.53	696.15
613.88	693.32
614.22	691.01
614.57	688.40
614.92	685.64
615.27	683.04
615.61	680.18
615.96	677.60
616.31	675.16
616.65	672.95
617.00	670.50
617.35	667.97
617.70	665.33
618.04	662.68
618.39	659.80
618.74	657.30
619.08	654.58
619.43	652.02
619.78	649.71
620.12	647.16
620.47	644.61
620.82	641.86
621.16	639.03
621.51	636.33
621.85	633.92
622.20	631.36
622.55	628.62
622.89	625.87
623.24	623.23
623.59	620.53
623.93	617.79
624.28	615.15
624.62	612.89
624.97	610.44
625.32	607.92
625.66	605.39
626.01	602.88
626.35	600.41
626.70	597.78
627.04	595.33
627.39	592.71
627.73	590.38
628.08	588.23
628.43	585.99
628.77	583.42
629.12	580.86
629.46	578.53
629.81	576.09
630.15	573.70
630.50	571.03
630.84	568.52
631.19	566.17
631.53	563.86
631.88	560.91
632.22	558.31
632.57	556.15
632.91	553.84
633.26	551.63
633.60	549.32
633.95	547.19
634.29	544.75
634.64	542.71
634.98	540.26
635.32	537.84
635.67	535.80
636.01	533.72
636.36	531.45
636.70	529.28
637.05	527.28
637.39	525.22
637.73	523.40
638.08	521.75
638.42	519.59
638.77	517.55
639.11	515.68
639.45	513.78
639.80	511.50
640.14	509.31
640.49	507.14
640.83	505.04
641.17	502.85
641.52	500.63
641.86	498.25
642.20	496.28
642.55	494.09
642.89	491.89
643.23	489.72
643.58	487.86
643.92	485.60
644.26	483.41
644.61	481.35
644.95	479.22
645.29	476.78
645.64	474.75
645.98	472.55
646.32	470.39
646.66	468.17
647.01	466.33
647.35	464.51
647.69	462.32
648.04	460.36
648.38	458.37
648.72	456.51
649.06	454.58
649.41	452.53
649.75	450.59
650.09	448.80
650.43	446.80
650.78	444.67
651.12	442.67
651.46	440.73
651.80	438.90
652.14	436.99
652.49	435.19
652.83	433.34
653.17	431.36
653.51	429.59
653.85	427.90
654.20	426.00
654.54	423.97
654.88	422.14
655.22	420.33
655.56	418.31
655.90	416.38
656.25	414.42
656.59	412.55
656.93	410.73
657.27	408.91
657.61	406.96
657.95	405.15
658.29	403.45
658.64	401.85
658.98	399.92
659.32	398.05
659.66	396.37
660.00	394.50
660.34	392.73
660.68	390.92
661.02	389.03
661.36	387.33
661.70	385.77
662.05	384.21
662.39	382.73
662.73	381.35
663.07	379.90
663.41	378.53
663.75	376.82
664.09	375.32
664.43	373.69
664.77	372.22
665.11	370.80
665.45	369.36
665.79	367.83
666.13	366.43
666.47	365.15
666.81	363.60
667.15	362.11
667.49	360.92
667.83	359.74
668.17	358.48
668.51	357.29
668.85	356.01
669.19	354.82
669.53	353.24
669.87	351.75
670.21	350.44
670.55	349.19
670.89	348.27
671.23	347.07
671.57	345.85
671.91	344.78
672.25	343.50
672.58	342.43
672.92	341.20
673.26	340.06
673.60	338.81
673.94	337.70
674.28	336.59
674.62	335.42
674.96	334.18
675.30	333.04
675.64	331.82
675.97	330.58
676.31	329.43
676.65	328.33
676.99	327.50
677.33	326.32
677.67	325.27
678.01	324.02
678.34	323.01
678.68	321.94
679.02	320.76
679.36	319.70
679.70	318.51
680.04	317.40
680.37	316.30
680.71	315.26
681.05	314.32
681.39	313.34
681.73	312.37
682.06	311.54
682.40	310.59
682.74	309.61
683.08	308.93
683.42	307.92
683.75	307.19
684.09	306.10
684.43	305.25
684.77	304.17
685.10	303.30
685.44	302.31
685.78	301.41
686.12	300.68
686.45	299.90
686.79	299.07
687.13	298.41
687.46	297.62
687.80	296.99
688.14	296.04
688.48	295.31
688.81	294.39
689.15	293.59
689.49	292.74
689.82	292.05
690.16	291.02
690.50	290.22
690.83	289.36
691.17	288.50
691.51	287.65
691.84	286.93
692.18	286.12
692.52	285.37
692.85	284.67
693.19	284.00
693.52	283.26
693.86	282.53
694.20	281.70
694.53	281.01
694.87	280.12
695.21	279.38
695.54	278.66
695.88	277.98
696.21	277.08
696.55	276.52
696.88	275.72
697.22	274.97
697.56	274.42
697.89	273.59
698.23	273.07
698.56	272.44
698.90	271.86
699.23	271.21
699.57	270.72
699.90	270.00
700.24	269.30
700.58	268.63
700.91	267.98
701.25	267.73
701.58	267.22
701.92	266.80
702.25	266.25
702.59	265.65
702.92	265.11
703.26	264.66
703.59	264.00
703.93	263.68
704.26	263.16
704.60	262.57
704.93	262.12
705.26	261.43
705.60	260.99
705.93	260.29
706.27	259.86
706.60	259.33
706.94	259.01
707.27	258.34
707.61	257.86
707.94	257.39
708.27	256.54
708.61	255.95
708.94	255.37
709.28	254.97
709.61	254.42
709.94	253.95
710.28	253.38
710.61	253.05
710.95	252.34
711.28	252.24
711.61	251.75
711.95	251.41
712.28	250.99
712.61	250.59
712.95	250.50
713.28	250.31
713.61	249.84
713.95	249.40
714.28	249.19
714.61	248.78
714.95	248.38
715.28	247.91
715.61	247.41
715.95	247.07
716.28	246.55
716.61	246.19
716.95	245.75
717.28	245.36
717.61	244.94
717.94	244.64
718.28	244.02
718.61	243.77
718.94	243.32
719.27	243.07
719.61	242.74
719.94	242.27
720.27	241.62
720.60	241.31
720.94	240.98
721.27	240.61
721.60	240.37
721.93	240.10
722.27	240.03
722.60	239.80
722.93	239.43
723.26	239.25
723.59	238.95
723.93	238.73
724.26	238.59
724.59	238.28
724.92	237.99
725.25	237.84
725.59	237.61
725.92	237.37
726.25	237.17
726.58	236.88
726.91	236.63
727.24	236.51
727.57	236.25
727.91	235.83
728.24	235.69
728.57	235.38
728.90	235.23
729.23	234.79
729.56	234.85
729.89	234.65
730.22	234.45
730.55	234.22
730.89	234.02
731.22	233.72
731.55	233.43
731.88	233.20
732.21	232.87
732.54	232.54
732.87	232.39
733.20	232.13
733.53	231.91
733.86	231.73
734.19	231.47
734.52	231.29
734.85	231.39
735.18	231.10
735.51	231.03
735.84	230.74
736.17	230.64
736.50	230.24
736.83	230.40
737.16	230.22
737.49	230.12
737.82	229.84
738.15	229.67
738.48	229.53
738.81	229.29
739.14	229.13
739.47	228.99
739.80	228.76
740.13	228.56
740.46	228.35
740.79	228.15
741.12	227.98
741.45	227.79
741.78	227.45
742.11	227.33
742.44	227.03
742.77	226.94
743.10	226.76
743.43	226.55
743.75	226.10
744.08	226.40
744.41	226.19
744.74	226.08
745.07	225.86
745.40	225.79
745.73	225.84
746.06	225.66
746.39	225.53
746.71	225.32
747.04	225.16
747.37	224.96
747.70	224.89
748.03	224.77
748.36	224.66
748.68	224.50
749.01	224.29
749.34	224.18
749.67	224.08
750.00	224.06
750.33	224.20
750.65	224.00
750.98	223.38
751.31	223.29
751.64	223.21
751.97	223.42
752.29	223.28
752.62	223.02
752.95	222.88
753.28	222.67
753.60	222.61
753.93	222.59
754.26	222.49
754.59	222.22
754.91	222.08
755.24	221.92
755.57	221.86
755.90	221.75
756.22	221.62
756.55	221.42
756.88	221.20
757.20	220.84
757.53	220.67
757.86	220.53
758.19	220.38
758.51	220.24
758.84	219.94
759.17	219.81
759.49	219.75
759.82	219.89
760.15	219.85
760.47	219.74
760.80	219.51
761.13	219.55
761.45	219.45
761.78	219.28
762.11	219.25
762.43	219.11
762.76	219.00
763.08	218.99
763.41	218.93
763.74	218.90
764.06	218.88
764.39	218.83
764.71	218.80
765.04	218.72
765.37	218.61
765.69	218.47
766.02	218.34
766.34	218.19
766.67	217.92
767.00	217.89
767.32	217.94
767.65	218.13
767.97	218.04
768.30	218.08
768.62	218.15
768.95	218.00
769.27	217.98
769.60	217.97
769.92	217.85
770.25	217.69
770.57	217.57
770.90	217.44
771.22	217.30
771.55	217.28
771.87	217.23
772.20	217.15
772.52	217.36
772.85	217.70
773.17	217.69
773.50	217.59
773.82	217.54
774.15	217.35
774.47	217.01
774.80	216.88
775.12	216.76
775.45	216.59
775.77	216.53
776.09	216.47
776.42	216.42
776.74	216.47
777.07	216.42
777.39	216.35
777.72	216.29
778.04	216.40
778.36	216.29
778.69	216.28
779.01	216.24
779.33	215.91
779.66	215.56
779.98	215.46
780.31	215.50
780.63	215.58
780.95	215.61
781.28	215.61
781.60	215.55
781.92	215.47
782.25	215.45
782.57	215.45
782.89	215.40
783.22	215.28
783.54	215.11
783.86	215.12
784.19	215.10
784.51	215.14
784.83	215.00
785.16	214.95
785.48	214.87
785.80	214.87
786.12	214.82
786.45	214.74
786.77	214.72
787.09	214.63
787.42	214.41
787.74	214.33
788.06	214.27
788.38	214.23
788.71	214.17
789.03	214.22
789.35	214.25
789.67	214.18
789.99	214.20
790.32	214.12
790.64	214.09
790.96	214.34
791.28	214.19
791.61	214.15
791.93	214.12
792.25	214.09
792.57	214.30
792.89	214.29
793.21	214.27
793.54	214.20
793.86	214.13
794.18	214.11
794.50	214.07
794.82	214.10
795.14	214.16
795.47	214.23
795.79	214.16
796.11	214.06
796.43	214.04
796.75	214.00
797.07	214.04
797.39	214.05
797.71	213.76
798.04	213.76
798.36	213.78
798.68	213.82
799.00	213.81
799.32	213.63
799.64	213.68
799.96	213.62
800.28	213.65
800.60	213.65
800.92	213.70
801.24	213.66
801.56	213.64
801.89	213.57
802.21	213.55
802.53	213.50
802.85	213.52
803.17	213.62
803.49	213.60
803.81	213.54
804.13	213.46
804.45	213.41
804.77	213.49
805.09	213.42
805.41	213.36
805.73	213.26
806.05	213.14
806.37	213.13
806.69	213.11
807.01	213.08
807.33	213.07
807.65	212.82
807.97	213.04
808.28	213.09
808.60	213.05
808.92	212.99
809.24	213.17
809.56	213.09
809.88	212.97
810.20	212.95
810.52	213.02
810.84	212.99
811.16	212.93
811.48	212.90
811.80	213.00
812.12	213.00
812.43	213.16
812.75	213.17
813.07	213.09
813.39	213.09
813.71	213.09
814.03	213.03
814.35	213.12
814.67	212.88
814.98	212.74
815.30	212.73
815.62	212.70
815.94	212.45
816.26	212.40
816.58	212.27
816.89	212.28
817.21	212.17
817.53	212.15
817.85	212.21
818.17	212.13
818.48	212.02
818.80	212.08
819.12	211.97
819.44	211.93
819.76	211.86
820.07	211.87
820.39	211.78
820.71	211.79
821.03	211.78
821.34	211.82
821.66	211.84
821.98	211.92
822.30	211.93
822.61	212.15
822.93	212.18
823.25	212.24
823.57	212.19
823.88	212.24
824.20	212.22
824.52	212.27
824.83	212.18
825.15	212.09
825.47	212.01
825.79	212.04
826.10	212.03
826.42	212.06
826.74	212.09
827.05	212.15
827.37	212.12
827.69	212.14
828.00	212.08
828.32	212.08
828.64	212.00
828.95	212.11
829.27	212.05
829.58	212.05
829.90	212.11
830.22	212.12
830.53	212.11
830.85	212.09
831.17	211.95
831.48	212.03
831.80	212.05
832.11	212.01
832.43	211.92
832.75	211.91
833.06	212.08
833.38	211.95
833.69	211.89
834.01	211.93
834.32	211.85
834.64	211.82
834.96	211.79
835.27	211.78
835.59	211.68
835.90	211.54
836.22	211.54
836.53	211.45
836.85	211.44
837.16	211.75
837.48	211.79
837.79	211.92
838.11	211.91
838.42	211.95
838.74	211.98
839.05	211.97
839.37	211.88
839.68	211.62
840.00	211.64
840.31	211.72
840.63	211.65
840.94	211.67
841.26	211.70
841.57	211.80
841.88	211.77
842.20	211.72
842.51	211.73
842.83	211.72
843.14	212.02
843.46	212.02
843.77	211.81
844.08	211.83
844.40	211.75
844.71	211.71
845.03	211.67
845.34	211.70
845.65	211.68
845.97	211.77
846.28	211.84
846.60	211.86
846.91	211.86
847.22	211.87
847.54	211.94
847.85	211.92
848.16	211.82
848.48	211.83
848.79	211.98
849.10	212.01
849.42	212.04
849.73	211.78
850.04	211.74
850.36	211.65
850.67	211.60
850.98	211.63
851.30	211.66
851.61	211.66
851.92	211.62
852.23	211.73
852.55	211.77
852.86	211.83
853.17	211.96
853.49	211.98
853.80	212.05
854.11	212.12
854.42	212.19
854.74	212.22
855.05	212.20
855.36	212.01
855.67	212.01
855.99	211.93
856.30	212.27
856.61	212.29
856.92	212.30
857.23	212.28
857.55	212.20
857.86	212.20
858.17	212.29
858.48	212.25
858.79	212.11
859.11	212.09
859.42	212.04
859.73	211.91
860.04	211.92
860.35	211.81
860.66	211.62
860.98	211.59
861.29	211.61
861.60	211.64
861.91	211.75
862.22	211.66
862.53	211.71
862.84	211.32
863.16	211.47
863.47	211.44
863.78	211.49
864.09	211.51
864.40	211.50
864.71	211.45
865.02	211.53
865.33	211.48
865.64	211.42
865.95	211.43
866.27	211.67
866.58	211.65
866.89	211.69
867.20	211.74
867.51	211.72
867.82	211.63
868.13	211.70
868.44	211.61
868.75	211.69
869.06	211.67
869.37	211.77
869.68	211.61
869.99	211.64
870.30	211.66
870.61	211.73
870.92	211.69
871.23	211.67
871.54	211.66
871.85	211.84
872.16	211.85
872.47	211.80
872.78	211.57
873.09	211.54
873.40	211.54
873.71	211.57
874.02	211.58
874.33	211.59
874.64	211.45
874.95	211.57
875.26	211.59
875.56	211.57
875.87	211.57
876.18	211.54
876.49	211.88
876.80	211.86
877.11	211.75
877.42	211.70
877.73	211.71
878.04	211.71
878.35	211.70
878.66	211.85
878.96	211.90
879.27	211.84
879.58	211.87
879.89	211.87
880.20	211.93
880.51	211.92
880.82	211.94
881.12	212.02
881.43	211.87
881.74	211.72
882.05	211.68
882.36	211.63
882.67	211.65
882.97	211.30
883.28	211.25
883.59	211.22
883.90	211.30
884.21	211.33
884.51	211.31
884.82	211.23
885.13	211.08
885.44	211.05
885.74	211.09
886.05	211.04
886.36	211.05
886.67	210.95
886.98	211.07
887.28	211.11
887.59	211.11
887.90	211.15
888.20	211.17
888.51	211.21
888.82	211.17
889.13	211.20
889.43	211.46
889.74	211.40
890.05	211.45
890.35	211.44
890.66	211.44
890.97	211.39
891.28	211.36
891.58	211.35
891.89	211.31
892.20	211.29
892.50	211.30
892.81	211.31
893.12	211.32
893.42	211.20
893.73	211.21
894.04	211.23
894.34	211.28
894.65	211.32
894.95	211.33
895.26	211.31
895.57	211.49
895.87	211.14
896.18	211.28
896.48	211.31
896.79	211.29
897.10	211.35
897.40	211.34
897.71	211.41
898.01	211.50
898.32	211.58
898.63	211.59
898.93	211.62
899.24	211.55
899.54	211.52
899.85	211.47
900.15	211.45
900.46	211.49
900.76	211.47
901.07	211.43
901.38	211.41
901.68	211.47
901.99	211.23
902.29	211.36
902.60	211.27
902.90	211.24
903.21	211.23
903.51	211.16
903.82	211.26
904.12	211.25
904.43	211.21
904.73	211.16
905.03	211.17
905.34	211.47
905.64	211.49
905.95	211.54
906.25	211.54
906.56	211.50
906.86	211.41
907.17	211.41
907.47	211.44
907.77	211.44
908.08	211.40
908.38	211.46
908.69	211.38
908.99	211.49
909.30	211.47
909.60	211.51
909.90	211.50
910.21	211.38
910.51	211.34
910.81	211.38
911.12	211.38
911.42	211.35
911.73	210.97
912.03	211.00
912.33	211.08
912.64	211.10
912.94	211.05
913.24	210.98
913.55	211.00
913.85	211.00
914.15	211.03
914.46	211.09
914.76	211.06
915.06	211.08
915.37	210.95
915.67	211.00
915.97	211.01
916.27	210.97
916.58	211.01
916.88	211.00
917.18	210.94
917.49	211.16
917.79	211.15
918.09	211.26
918.39	211.32
918.70	211.25
919.00	211.22
919.30	211.40
919.60	211.44
919.91	211.34
920.21	211.33
920.51	211.20
920.81	211.13
921.12	211.15
921.42	211.17
921.72	211.22
922.02	211.24
922.32	211.28
922.63	211.29
922.93	211.35
923.23	211.40
923.53	211.44
923.83	211.31
924.13	211.32
924.44	211.34
924.74	211.45
925.04	211.57
925.34	211.59
925.64	211.50
925.94	211.52
926.24	211.74
926.55	211.70
926.85	211.87
927.15	211.99
927.45	211.95
927.75	211.95
928.05	211.95
928.35	211.84
928.65	211.84
928.95	211.88
929.26	211.82
929.56	211.88
929.86	211.88
930.16	211.85
930.46	211.94
930.76	211.87
931.06	211.68
931.36	211.54
931.66	211.56
931.96	211.55
932.26	211.57
932.56	211.49
932.86	211.50
933.16	211.45
933.46	211.36
933.76	211.31
934.06	211.35
934.36	211.44
934.66	211.50
934.96	211.49
935.26	211.48
935.56	211.56
935.86	211.42
936.16	211.38
936.46	211.29
936.76	211.21
937.06	211.17
937.36	211.20
937.66	211.20
937.96	211.14
938.26	211.15
938.56	211.14
938.86	211.09
939.16	211.17
939.46	211.28
939.76	211.30
940.06	211.33
940.35	211.25
940.65	211.09
940.95	211.14
941.25	211.04
941.55	211.03
941.85	211.04
942.15	211.17
942.45	211.16
942.75	211.19
943.04	211.17
943.34	211.29
943.64	211.24
943.94	211.22
944.24	211.23
944.54	211.20
944.84	211.13
945.13	211.05
945.43	211.02
945.73	210.90
946.03	210.89
946.33	210.84
946.62	210.86
946.92	210.88
947.22	210.87
947.52	210.91
947.82	210.91
948.11	210.83
948.41	210.74
948.71	210.69
949.01	210.71
949.31	210.71
949.60	210.58
949.90	210.65
950.20	210.67
950.50	210.71
950.79	210.76
951.09	210.84
951.39	210.92
951.69	210.87
951.98	210.98
952.28	210.94
952.58	210.97
952.87	210.90
953.17	210.90
953.47	210.84
953.76	210.88
954.06	210.78
954.36	210.70
954.66	210.67
954.95	210.80
955.25	210.92
955.55	211.00
955.84	211.03
956.14	211.04
956.44	211.10
956.73	211.07
957.03	210.98
957.32	210.98
957.62	210.92
957.92	210.97
958.21	210.90
958.51	211.32
958.81	211.36
959.10	211.42
959.40	211.50
959.69	211.56
959.99	211.51
960.29	211.57
960.58	211.62
960.88	211.76
961.17	211.67
961.47	211.60
961.76	211.53
962.06	211.60
962.36	211.58
962.65	211.52
962.95	211.55
963.24	211.60
963.54	211.61
963.83	211.65
964.13	211.67
964.42	211.62
964.72	211.37
965.01	211.40
965.31	211.38
965.60	211.29
965.90	211.45
966.19	211.44
966.49	211.47
966.78	211.43
967.08	211.40
967.37	211.46
967.67	211.35
967.96	211.44
968.26	211.35
968.55	211.40
968.85	211.37
969.14	211.33
969.43	211.30
969.73	211.24
970.02	211.19
970.32	211.25
970.61	211.23
970.91	211.08
971.20	210.92
971.49	210.91
971.79	211.00
972.08	210.73
972.38	210.75
972.67	210.76
972.96	210.85
973.26	210.77
973.55	210.84
973.85	210.85
974.14	210.82
974.43	210.90
974.73	210.75
975.02	210.72
975.31	210.73
975.61	210.67
975.90	210.69
976.19	210.65
976.49	210.61
976.78	210.57
977.07	210.64
977.37	210.71
977.66	210.75
977.95	210.69
978.24	210.72
978.54	210.81
978.83	210.70
979.12	210.66
979.42	210.68
979.71	210.66
980.00	210.65
980.29	210.68
980.59	210.59
980.88	210.78
981.17	210.83
981.46	210.86
981.76	210.93
982.05	211.02
982.34	211.07
982.63	211.04
982.93	211.06
983.22	211.16
983.51	211.18
983.80	211.19
984.09	211.21
984.39	211.25
984.68	211.22
984.97	211.31
985.26	211.26
985.55	211.22
985.85	211.11
986.14	211.16
986.43	211.16
986.72	211.11
987.01	210.96
987.30	210.93
987.59	210.90
987.89	210.89
988.18	210.78
988.47	210.76
988.76	210.77
989.05	210.80
989.34	210.71
989.63	210.77
989.92	210.76
990.22	210.77
990.51	210.78
990.80	210.71
991.09	210.76
991.38	210.78
991.67	210.82
991.96	210.80
992.25	210.76
992.54	210.68
992.83	210.75
993.12	210.73
993.41	210.80
993.70	210.91
993.99	210.88
994.28	210.93
994.58	210.95
994.87	211.02
995.16	211.00
995.45	210.98
995.74	210.89
996.03	210.96
996.32	211.02
996.61	211.07
996.90	211.07
997.19	211.05
997.48	211.10
997.77	211.00
998.06	211.03
998.34	211.07
998.63	211.06
998.92	211.04
999.21	211.12
999.50	211.11
999.79	211.06
1000.08	211.10
1000.37	211.08
1000.66	211.02
1000.95	211.01
1001.24	211.05
1001.53	211.09
1001.82	211.07
1002.11	210.90
1002.40	210.93
1002.68	210.95
1002.97	211.18
1003.26	211.09
1003.55	211.03
1003.84	211.09
1004.13	211.24
1004.42	211.20
1004.71	211.20
1004.99	211.16
1005.28	211.23
1005.57	211.21
1005.86	211.13
1006.15	211.15
1006.44	211.15
1006.72	211.25
1007.01	211.21
1007.30	211.16
1007.59	211.10
1007.88	211.13
1008.17	211.23
1008.45	211.11
1008.74	211.00
1009.03	210.80
1009.32	210.82
1009.60	210.84
1009.89	210.81
1010.18	210.68
1010.47	210.67
1010.76	210.68
1011.04	210.77
1011.33	210.75
1011.62	210.76
1011.91	210.84
1012.19	210.79
1012.48	210.79
1012.77	210.78
1013.05	210.91
1013.34	210.89
1013.63	210.85
1013.92	210.91
1014.20	210.84
1014.49	210.84
1014.78	210.87
1015.06	210.80
1015.35	210.82
1015.64	210.81
1015.92	210.83
1016.21	210.75
1016.50	210.79
1016.78	210.83
1017.07	210.81
1017.36	210.70
1017.64	210.70
1017.93	210.65
1018.22	210.62
1018.50	210.61
1018.79	210.54
1019.08	210.26
1019.36	210.31
1019.65	210.30
1019.93	210.33
1020.22	210.35
1020.51	210.56
1020.79	210.50
1021.08	209.70
1021.36	210.55
1021.65	210.00
1021.94	208.05
1022.22	210.90
1022.51	210.05
1022.79	211.70
1023.08	209.85
1023.36	214.85
1023.65	209.65
>>>>>End Processed Spectral Data<<<<<
