SpectraSuite Data File
++++++++++++++++++++++++++++++++++++
Date: Mon Feb 25 17:07:44 EST 2013
User: group
Dark Spectrum Present: No
Reference Spectrum Present: No
Number of Sampled Component Spectra: 1
Spectrometers: USB2E7196
Integration Time (usec): 104000 (USB2E7196)
Spectra Averaged: 20 (USB2E7196)
Boxcar Smoothing: 10 (USB2E7196)
Correct for Electrical Dark: No (USB2E7196)
Strobe/Lamp Enabled: No (USB2E7196)
Correct for Detector Non-linearity: No (USB2E7196)
Correct for Stray Light: No (USB2E7196)
Number of Pixels in Processed Spectrum: 2048
>>>>>Begin Processed Spectral Data<<<<<
339.09	0.00
339.48	196.80
339.86	200.95
340.24	200.60
340.63	203.00
341.01	208.40
341.39	204.70
341.78	207.75
342.16	208.55
342.54	207.30
342.93	197.93
343.31	207.92
343.69	208.54
344.07	208.94
344.46	209.45
344.84	209.87
345.22	210.00
345.60	210.33
345.99	210.46
346.37	210.57
346.75	210.78
347.13	210.89
347.52	211.00
347.90	211.15
348.28	211.15
348.66	211.30
349.05	211.27
349.43	211.38
349.81	211.39
350.19	211.48
350.57	211.55
350.96	211.54
351.34	211.66
351.72	211.75
352.10	211.92
352.48	212.01
352.87	212.01
353.25	212.07
353.63	212.08
354.01	212.11
354.39	212.19
354.77	212.19
355.15	212.26
355.54	212.21
355.92	212.14
356.30	212.20
356.68	212.35
357.06	212.47
357.44	212.45
357.82	212.52
358.20	212.64
358.58	212.74
358.97	212.92
359.35	212.95
359.73	213.04
360.11	213.05
360.49	213.07
360.87	213.15
361.25	213.17
361.63	213.32
362.01	213.40
362.39	213.40
362.77	213.46
363.15	213.47
363.53	213.51
363.91	213.55
364.29	213.52
364.67	213.24
365.05	213.15
365.43	213.16
365.81	213.20
366.19	213.31
366.57	213.38
366.95	213.35
367.33	213.38
367.71	213.35
368.09	213.34
368.47	213.29
368.85	213.20
369.23	213.29
369.61	213.12
369.99	213.17
370.37	213.15
370.75	213.29
371.13	213.20
371.51	213.14
371.89	213.08
372.27	213.08
372.65	213.05
373.03	213.01
373.41	212.96
373.78	212.79
374.16	212.55
374.54	212.43
374.92	212.21
375.30	212.03
375.68	211.95
376.06	211.89
376.44	211.79
376.82	211.78
377.19	211.67
377.57	211.68
377.95	211.52
378.33	211.43
378.71	211.12
379.09	211.08
379.47	211.06
379.84	211.02
380.22	210.98
380.60	210.85
380.98	210.71
381.36	210.68
381.73	210.62
382.11	210.66
382.49	210.64
382.87	210.62
383.25	210.65
383.62	211.01
384.00	210.94
384.38	210.90
384.76	210.88
385.13	211.01
385.51	210.86
385.89	210.80
386.27	210.89
386.64	210.97
387.02	210.90
387.40	210.79
387.78	210.78
388.15	210.72
388.53	210.73
388.91	210.79
389.29	210.76
389.66	210.78
390.04	210.70
390.42	210.65
390.79	210.67
391.17	210.62
391.55	210.19
391.92	210.18
392.30	210.23
392.68	210.19
393.05	210.10
393.43	210.15
393.81	210.17
394.18	210.02
394.56	209.94
394.94	210.02
395.31	210.03
395.69	210.10
396.06	210.13
396.44	210.16
396.82	210.13
397.19	210.26
397.57	210.35
397.95	210.34
398.32	210.24
398.70	210.35
399.07	210.42
399.45	210.41
399.82	210.47
400.20	210.39
400.58	210.41
400.95	210.31
401.33	210.43
401.70	210.67
402.08	210.74
402.45	210.89
402.83	211.06
403.20	211.14
403.58	211.20
403.95	211.33
404.33	211.45
404.71	211.53
405.08	211.82
405.46	211.83
405.83	212.01
406.21	212.21
406.58	212.29
406.96	212.47
407.33	212.71
407.70	212.83
408.08	213.25
408.45	213.51
408.83	213.73
409.20	213.89
409.58	213.88
409.95	214.19
410.33	214.40
410.70	214.51
411.08	214.78
411.45	214.97
411.82	215.17
412.20	215.56
412.57	216.01
412.95	216.00
413.32	216.50
413.69	216.82
414.07	217.19
414.44	217.60
414.82	218.05
415.19	218.54
415.56	219.14
415.94	219.57
416.31	220.16
416.68	220.81
417.06	221.60
417.43	222.43
417.81	223.25
418.18	224.09
418.55	225.03
418.93	225.99
419.30	227.02
419.67	228.16
420.04	229.19
420.42	230.29
420.79	231.91
421.16	233.15
421.54	234.71
421.91	236.27
422.28	237.78
422.66	239.32
423.03	241.07
423.40	242.72
423.77	244.41
424.15	246.09
424.52	247.96
424.89	249.83
425.26	251.63
425.64	253.47
426.01	255.46
426.38	257.55
426.75	259.81
427.13	262.06
427.50	264.33
427.87	266.76
428.24	269.15
428.61	271.35
428.99	274.05
429.36	276.77
429.73	279.42
430.10	282.23
430.47	284.99
430.85	287.72
431.22	290.64
431.59	294.18
431.96	297.33
432.33	300.77
432.70	304.16
433.08	308.06
433.45	311.76
433.82	315.49
434.19	319.72
434.56	323.80
434.93	327.57
435.30	331.53
435.68	335.85
436.05	340.13
436.42	344.30
436.79	348.20
437.16	352.31
437.53	356.63
437.90	360.96
438.27	365.43
438.64	369.98
439.01	374.30
439.38	377.72
439.75	381.37
440.13	385.44
440.50	389.27
440.87	392.55
441.24	395.83
441.61	399.42
441.98	402.12
442.35	405.13
442.72	408.39
443.09	411.59
443.46	413.54
443.83	414.89
444.20	416.02
444.57	417.53
444.94	418.43
445.31	419.50
445.68	420.58
446.05	420.93
446.42	420.62
446.79	420.35
447.16	420.05
447.53	419.89
447.90	418.51
448.27	417.24
448.64	415.15
449.01	413.71
449.37	410.99
449.74	408.22
450.11	405.36
450.48	401.89
450.85	398.11
451.22	394.93
451.59	392.06
451.96	389.31
452.33	385.61
452.70	382.10
453.07	377.85
453.43	373.46
453.80	369.42
454.17	365.44
454.54	361.75
454.91	357.77
455.28	353.85
455.65	350.16
456.02	346.89
456.38	343.78
456.75	339.96
457.12	336.84
457.49	333.65
457.86	330.26
458.23	327.81
458.59	324.94
458.96	322.10
459.33	319.40
459.70	316.76
460.07	314.66
460.43	312.31
460.80	310.21
461.17	308.32
461.54	306.37
461.91	304.48
462.27	302.35
462.64	300.60
463.01	298.79
463.38	297.13
463.74	294.92
464.11	293.39
464.48	292.05
464.85	290.48
465.21	289.50
465.58	288.32
465.95	286.57
466.32	285.45
466.68	284.23
467.05	283.05
467.42	281.78
467.78	280.46
468.15	279.28
468.52	278.39
468.88	277.09
469.25	276.00
469.62	275.18
469.98	274.26
470.35	273.42
470.72	272.59
471.08	271.62
471.45	270.91
471.82	270.14
472.18	269.29
472.55	268.77
472.92	267.93
473.28	267.32
473.65	266.78
474.02	266.11
474.38	265.60
474.75	265.24
475.11	264.83
475.48	264.49
475.85	264.20
476.21	263.73
476.58	263.48
476.94	263.24
477.31	263.02
477.67	262.73
478.04	262.53
478.41	262.30
478.77	262.49
479.14	262.24
479.50	262.20
479.87	262.15
480.23	262.03
480.60	261.95
480.96	261.93
481.33	262.05
481.69	262.10
482.06	262.18
482.42	262.14
482.79	262.18
483.15	262.26
483.52	262.46
483.88	262.70
484.25	262.81
484.61	263.00
484.98	263.13
485.34	263.57
485.71	264.01
486.07	264.36
486.44	264.39
486.80	264.77
487.17	265.10
487.53	265.60
487.90	266.11
488.26	266.78
488.62	267.40
488.99	267.95
489.35	268.60
489.72	269.21
490.08	269.88
490.44	270.60
490.81	271.57
491.17	272.22
491.54	273.09
491.90	274.08
492.26	275.03
492.63	276.04
492.99	277.00
493.36	277.95
493.72	279.17
494.08	280.33
494.45	281.54
494.81	282.74
495.17	283.96
495.54	285.24
495.90	286.45
496.26	287.70
496.63	289.06
496.99	290.42
497.35	291.89
497.72	293.47
498.08	294.99
498.44	296.39
498.80	298.13
499.17	299.78
499.53	301.31
499.89	303.07
500.26	304.83
500.62	306.60
500.98	308.49
501.34	310.16
501.71	312.14
502.07	314.02
502.43	316.00
502.79	317.89
503.16	319.92
503.52	321.88
503.88	323.90
504.24	326.03
504.60	328.24
504.97	330.48
505.33	332.54
505.69	334.98
506.05	337.27
506.41	339.42
506.78	341.60
507.14	343.94
507.50	346.13
507.86	348.48
508.22	350.83
508.59	353.06
508.95	355.55
509.31	358.05
509.67	360.64
510.03	363.18
510.39	365.67
510.75	368.31
511.12	370.92
511.48	373.55
511.84	376.12
512.20	378.65
512.56	381.31
512.92	384.23
513.28	386.97
513.64	389.72
514.00	392.57
514.37	395.46
514.73	398.40
515.09	401.42
515.45	404.23
515.81	407.13
516.17	410.09
516.53	412.96
516.89	415.76
517.25	418.60
517.61	421.62
517.97	424.77
518.33	427.74
518.69	430.99
519.05	434.23
519.41	437.51
519.77	441.04
520.13	444.28
520.49	447.52
520.85	450.52
521.21	453.98
521.57	457.43
521.93	460.64
522.29	464.05
522.65	467.44
523.01	470.91
523.37	474.24
523.73	477.75
524.09	481.35
524.45	484.91
524.81	488.53
525.17	492.08
525.53	495.77
525.89	499.38
526.25	503.03
526.61	506.59
526.97	510.12
527.33	513.69
527.68	517.70
528.04	521.32
528.40	525.09
528.76	528.70
529.12	532.46
529.48	536.42
529.84	540.15
530.20	543.96
530.56	547.98
530.91	552.10
531.27	556.08
531.63	560.09
531.99	564.10
532.35	568.01
532.71	571.99
533.07	576.03
533.42	580.35
533.78	584.26
534.14	588.29
534.50	592.22
534.86	596.11
535.21	599.58
535.57	603.75
535.93	607.61
536.29	611.65
536.65	615.67
537.00	619.30
537.36	623.25
537.72	627.13
538.08	630.92
538.44	634.83
538.79	638.51
539.15	642.21
539.51	646.10
539.87	650.09
540.22	653.88
540.58	657.61
540.94	661.08
541.29	664.65
541.65	667.97
542.01	671.67
542.37	675.48
542.72	679.17
543.08	682.34
543.44	686.03
543.79	689.24
544.15	692.54
544.51	696.42
544.87	700.09
545.22	703.20
545.58	706.44
545.94	709.34
546.29	712.48
546.65	715.53
547.01	718.38
547.36	721.31
547.72	724.22
548.07	726.94
548.43	729.66
548.79	732.26
549.14	734.97
549.50	737.72
549.86	739.86
550.21	742.23
550.57	745.06
550.92	747.29
551.28	749.75
551.64	751.90
551.99	753.90
552.35	755.71
552.70	757.89
553.06	759.80
553.41	762.05
553.77	764.19
554.13	766.17
554.48	768.31
554.84	770.34
555.19	772.19
555.55	773.99
555.90	775.66
556.26	777.36
556.61	779.08
556.97	780.21
557.32	781.72
557.68	783.01
558.03	784.21
558.39	785.59
558.74	787.08
559.10	788.53
559.45	789.92
559.81	791.34
560.16	792.57
560.52	793.96
560.87	795.01
561.23	796.07
561.58	797.34
561.94	798.04
562.29	798.70
562.64	799.67
563.00	800.67
563.35	801.82
563.71	802.95
564.06	803.86
564.42	804.99
564.77	806.11
565.12	807.36
565.48	808.55
565.83	809.44
566.19	810.12
566.54	810.73
566.89	811.24
567.25	811.98
567.60	812.74
567.96	813.50
568.31	814.09
568.66	814.56
569.02	814.68
569.37	814.88
569.72	815.14
570.08	815.09
570.43	814.93
570.78	814.75
571.14	814.45
571.49	814.22
571.84	814.11
572.20	813.58
572.55	813.24
572.90	812.39
573.26	811.98
573.61	811.36
573.96	810.92
574.31	810.17
574.67	809.09
575.02	808.10
575.37	806.97
575.72	805.78
576.08	804.90
576.43	803.92
576.78	803.10
577.13	802.41
577.49	801.70
577.84	800.90
578.19	800.18
578.54	799.56
578.90	798.90
579.25	797.97
579.60	797.11
579.95	795.94
580.30	795.20
580.66	794.35
581.01	793.27
581.36	792.09
581.71	791.23
582.06	790.47
582.42	789.55
582.77	788.40
583.12	787.62
583.47	786.75
583.82	785.88
584.17	784.85
584.53	783.84
584.88	782.77
585.23	781.77
585.58	780.65
585.93	779.37
586.28	778.25
586.63	777.05
586.98	776.03
587.34	775.24
587.69	773.90
588.04	772.61
588.39	771.55
588.74	770.15
589.09	769.02
589.44	767.32
589.79	766.25
590.14	765.20
590.49	763.94
590.84	762.56
591.19	761.39
591.54	760.20
591.89	758.42
592.25	757.16
592.60	755.54
592.95	753.90
593.30	752.29
593.65	750.62
594.00	749.07
594.35	748.48
594.70	746.61
595.05	745.16
595.40	743.50
595.75	741.63
596.10	740.23
596.45	738.64
596.80	737.51
597.15	735.92
597.50	734.33
597.85	732.85
598.19	731.26
598.54	729.70
598.89	728.27
599.24	727.14
599.59	725.57
599.94	724.56
600.29	723.25
600.64	721.94
600.99	720.47
601.34	719.23
601.69	716.91
602.04	715.37
602.39	713.93
602.74	712.63
603.08	711.56
603.43	710.75
603.78	709.35
604.13	708.01
604.48	706.52
604.83	705.32
605.18	704.08
605.53	702.54
605.87	701.01
606.22	699.55
606.57	698.08
606.92	696.58
607.27	694.71
607.62	693.12
607.96	691.86
608.31	690.67
608.66	689.08
609.01	687.40
609.36	685.93
609.70	684.24
610.05	682.54
610.40	680.84
610.75	678.67
611.10	677.11
611.44	675.00
611.79	672.99
612.14	670.90
612.49	668.65
612.83	666.76
613.18	664.58
613.53	662.38
613.88	660.02
614.22	657.94
614.57	656.00
614.92	653.78
615.27	651.30
615.61	648.85
615.96	646.77
616.31	644.80
616.65	643.00
617.00	640.88
617.35	638.74
617.70	636.47
618.04	633.99
618.39	631.39
618.74	629.30
619.08	627.09
619.43	625.02
619.78	623.00
620.12	620.76
620.47	618.92
620.82	616.69
621.16	614.50
621.51	612.43
621.85	610.18
622.20	608.02
622.55	605.80
622.89	603.66
623.24	601.15
623.59	598.59
623.93	596.18
624.28	593.98
624.62	592.16
624.97	590.16
625.32	588.13
625.66	586.22
626.01	584.14
626.35	582.21
626.70	580.01
627.04	577.95
627.39	576.06
627.73	573.96
628.08	572.09
628.43	570.08
628.77	567.91
629.12	565.61
629.46	563.82
629.81	561.70
630.15	559.58
630.50	557.59
630.84	555.69
631.19	553.64
631.53	551.65
631.88	549.11
632.22	546.85
632.57	544.93
632.91	542.86
633.26	540.75
633.60	538.65
633.95	536.58
634.29	534.36
634.64	532.27
634.98	529.94
635.32	527.95
635.67	526.02
636.01	524.06
636.36	522.23
636.70	520.05
637.05	518.29
637.39	516.51
637.73	514.85
638.08	513.11
638.42	511.28
638.77	509.49
639.11	507.62
639.45	505.66
639.80	503.64
640.14	501.48
640.49	499.47
640.83	497.49
641.17	495.52
641.52	493.62
641.86	491.56
642.20	489.80
642.55	487.62
642.89	485.59
643.23	483.40
643.58	481.60
643.92	479.55
644.26	477.55
644.61	475.56
644.95	473.38
645.29	471.30
645.64	469.23
645.98	467.13
646.32	465.37
646.66	463.43
647.01	461.50
647.35	459.83
647.69	457.81
648.04	456.03
648.38	454.14
648.72	452.21
649.06	450.31
649.41	448.35
649.75	446.47
650.09	444.79
650.43	443.03
650.78	440.91
651.12	439.01
651.46	437.20
651.80	435.35
652.14	433.59
652.49	431.80
652.83	429.84
653.17	427.75
653.51	425.69
653.85	424.08
654.20	422.36
654.54	420.31
654.88	418.58
655.22	416.67
655.56	414.93
655.90	413.12
656.25	411.26
656.59	409.49
656.93	407.71
657.27	405.81
657.61	403.94
657.95	402.33
658.29	400.62
658.64	398.99
658.98	397.18
659.32	395.35
659.66	393.56
660.00	391.89
660.34	390.35
660.68	388.71
661.02	386.76
661.36	385.09
661.70	383.69
662.05	382.12
662.39	380.80
662.73	379.26
663.07	377.94
663.41	376.48
663.75	374.98
664.09	373.48
664.43	371.91
664.77	370.40
665.11	368.86
665.45	367.47
665.79	366.00
666.13	364.55
666.47	363.16
666.81	361.78
667.15	360.35
667.49	359.03
667.83	357.79
668.17	356.58
668.51	355.18
668.85	353.72
669.19	352.54
669.53	351.06
669.87	349.70
670.21	348.28
670.55	347.05
670.89	345.96
671.23	344.77
671.57	343.60
671.91	342.39
672.25	341.25
672.58	340.12
672.92	338.79
673.26	337.74
673.60	336.64
673.94	335.44
674.28	334.32
674.62	333.28
674.96	332.13
675.30	331.01
675.64	329.89
675.97	328.88
676.31	327.76
676.65	326.71
676.99	325.69
677.33	324.66
677.67	323.62
678.01	322.37
678.34	321.36
678.68	320.36
679.02	319.31
679.36	318.25
679.70	317.16
680.04	316.18
680.37	315.10
680.71	313.95
681.05	313.10
681.39	312.14
681.73	311.05
682.06	310.12
682.40	309.15
682.74	308.27
683.08	307.46
683.42	306.41
683.75	305.46
684.09	304.49
684.43	303.47
684.77	302.45
685.10	301.45
685.44	300.49
685.78	299.53
686.12	298.70
686.45	297.80
686.79	296.97
687.13	296.18
687.46	295.33
687.80	294.64
688.14	293.66
688.48	292.89
688.81	292.14
689.15	291.29
689.49	290.42
689.82	289.61
690.16	288.52
690.50	287.70
690.83	286.85
691.17	285.99
691.51	285.16
691.84	284.39
692.18	283.72
692.52	283.00
692.85	282.29
693.19	281.76
693.52	280.98
693.86	280.14
694.20	279.36
694.53	278.70
694.87	277.88
695.21	277.18
695.54	276.38
695.88	275.60
696.21	274.78
696.55	274.20
696.88	273.45
697.22	272.83
697.56	272.27
697.89	271.57
698.23	270.93
698.56	270.30
698.90	269.80
699.23	269.05
699.57	268.41
699.90	267.72
700.24	266.91
700.58	266.37
700.91	265.85
701.25	265.52
701.58	264.96
701.92	264.55
702.25	263.92
702.59	263.32
702.92	262.85
703.26	262.33
703.59	261.73
703.93	261.59
704.26	261.10
704.60	260.65
704.93	260.15
705.26	259.63
705.60	259.29
705.93	258.65
706.27	258.31
706.60	257.84
706.94	257.59
707.27	257.06
707.61	256.58
707.94	256.14
708.27	255.38
708.61	254.76
708.94	254.15
709.28	253.77
709.61	253.36
709.94	252.83
710.28	252.38
710.61	251.97
710.95	251.23
711.28	250.99
711.61	250.45
711.95	250.10
712.28	249.62
712.61	249.10
712.95	248.90
713.28	248.70
713.61	248.25
713.95	247.60
714.28	247.27
714.61	246.82
714.95	246.43
715.28	246.01
715.61	245.68
715.95	245.33
716.28	244.99
716.61	244.70
716.95	244.34
717.28	243.99
717.61	243.61
717.94	243.23
718.28	242.63
718.61	242.29
718.94	241.88
719.27	241.62
719.61	241.26
719.94	240.77
720.27	240.13
720.60	239.82
720.94	239.64
721.27	239.30
721.60	239.08
721.93	238.63
722.27	238.48
722.60	238.28
722.93	238.03
723.26	237.77
723.59	237.42
723.93	237.21
724.26	237.04
724.59	236.73
724.92	236.54
725.25	236.40
725.59	236.16
725.92	235.97
726.25	235.72
726.58	235.52
726.91	235.28
727.24	235.17
727.57	234.92
727.91	234.63
728.24	234.48
728.57	234.20
728.90	234.17
729.23	233.87
729.56	233.73
729.89	233.54
730.22	233.29
730.55	233.07
730.89	232.79
731.22	232.54
731.55	232.36
731.88	232.06
732.21	231.86
732.54	231.61
732.87	231.38
733.20	231.20
733.53	231.01
733.86	230.82
734.19	230.59
734.52	230.50
734.85	230.55
735.18	230.29
735.51	230.22
735.84	230.04
736.17	229.98
736.50	229.64
736.83	229.77
737.16	229.57
737.49	229.35
737.82	229.18
738.15	229.01
738.48	228.84
738.81	228.71
739.14	228.46
739.47	228.23
739.80	228.05
740.13	227.89
740.46	227.70
740.79	227.52
741.12	227.33
741.45	227.01
741.78	226.64
742.11	226.61
742.44	226.34
742.77	226.15
743.10	226.00
743.43	225.87
743.75	225.34
744.08	225.64
744.41	225.51
744.74	225.35
745.07	225.12
745.40	225.04
745.73	224.99
746.06	224.85
746.39	224.80
746.71	224.63
747.04	224.45
747.37	224.30
747.70	224.21
748.03	224.13
748.36	224.16
748.68	224.00
749.01	223.80
749.34	223.70
749.67	223.60
750.00	223.41
750.33	223.51
750.65	223.37
750.98	222.77
751.31	222.71
751.64	222.64
751.97	222.70
752.29	222.55
752.62	222.30
752.95	222.14
753.28	222.03
753.60	221.96
753.93	221.95
754.26	221.86
754.59	221.65
754.91	221.51
755.24	221.37
755.57	221.31
755.90	221.11
756.22	221.01
756.55	220.86
756.88	220.77
757.20	220.43
757.53	220.33
757.86	220.25
758.19	220.18
758.51	220.05
758.84	219.82
759.17	219.73
759.49	219.60
759.82	219.74
760.15	219.61
760.47	219.56
760.80	219.33
761.13	219.32
761.45	219.25
761.78	219.14
762.11	219.03
762.43	218.84
762.76	218.78
763.08	218.70
763.41	218.65
763.74	218.55
764.06	218.49
764.39	218.43
764.71	218.38
765.04	218.22
765.37	218.13
765.69	218.08
766.02	218.00
766.34	217.95
766.67	217.69
767.00	217.70
767.32	217.80
767.65	217.95
767.97	217.81
768.30	217.78
768.62	217.74
768.95	217.63
769.27	217.58
769.60	217.59
769.92	217.51
770.25	217.44
770.57	217.24
770.90	217.10
771.22	216.99
771.55	216.94
771.87	216.85
772.20	216.82
772.52	216.99
772.85	217.35
773.17	217.38
773.50	217.39
773.82	217.34
774.15	217.04
774.47	216.80
774.80	216.75
775.12	216.68
775.45	216.61
775.77	216.55
776.09	216.55
776.42	216.48
776.74	216.54
777.07	216.31
777.39	216.31
777.72	216.29
778.04	216.30
778.36	216.15
778.69	216.14
779.01	216.05
779.33	215.72
779.66	215.33
779.98	215.19
780.31	215.08
780.63	215.10
780.95	215.13
781.28	215.13
781.60	214.98
781.92	215.00
782.25	214.95
782.57	214.95
782.89	214.85
783.22	214.77
783.54	214.60
783.86	214.67
784.19	214.60
784.51	214.65
784.83	214.51
785.16	214.54
785.48	214.53
785.80	214.53
786.12	214.53
786.45	214.46
786.77	214.49
787.09	214.42
787.42	214.26
787.74	214.28
788.06	214.15
788.38	214.11
788.71	213.95
789.03	213.89
789.35	213.88
789.67	213.81
789.99	213.82
790.32	213.70
790.64	213.75
790.96	214.04
791.28	213.90
791.61	213.89
791.93	213.87
792.25	213.83
792.57	214.01
792.89	213.90
793.21	213.85
793.54	213.77
793.86	213.70
794.18	213.70
794.50	213.57
794.82	213.58
795.14	213.68
795.47	213.75
795.79	213.76
796.11	213.66
796.43	213.69
796.75	213.60
797.07	213.69
797.39	213.55
797.71	213.29
798.04	213.33
798.36	213.26
798.68	213.23
799.00	213.21
799.32	213.02
799.64	213.11
799.96	213.08
800.28	213.11
800.60	213.06
800.92	213.10
801.24	213.10
801.56	213.03
801.89	212.98
802.21	212.93
802.53	212.79
802.85	212.86
803.17	213.02
803.49	212.98
803.81	212.88
804.13	212.91
804.45	212.89
804.77	212.85
805.09	212.86
805.41	212.86
805.73	212.83
806.05	212.71
806.37	212.64
806.69	212.65
807.01	212.57
807.33	212.62
807.65	212.47
807.97	212.60
808.28	212.68
808.60	212.61
808.92	212.61
809.24	212.92
809.56	212.85
809.88	212.76
810.20	212.85
810.52	212.94
810.84	212.85
811.16	212.75
811.48	212.78
811.80	212.93
812.12	212.90
812.43	212.97
812.75	213.04
813.07	213.02
813.39	212.93
813.71	212.92
814.03	212.90
814.35	212.91
814.67	212.73
814.98	212.62
815.30	212.63
815.62	212.55
815.94	212.28
816.26	212.27
816.58	212.16
816.89	212.11
817.21	212.04
817.53	212.04
817.85	212.13
818.17	212.07
818.48	211.87
818.80	211.91
819.12	211.81
819.44	211.73
819.76	211.72
820.07	211.79
820.39	211.76
820.71	211.79
821.03	211.78
821.34	211.77
821.66	211.77
821.98	211.85
822.30	211.87
822.61	212.10
822.93	212.08
823.25	212.04
823.57	212.00
823.88	212.06
824.20	212.09
824.52	212.14
824.83	212.12
825.15	212.23
825.47	212.19
825.79	212.24
826.10	212.20
826.42	212.18
826.74	212.25
827.05	212.20
827.37	212.22
827.69	212.20
828.00	212.15
828.32	212.23
828.64	212.10
828.95	212.24
829.27	212.08
829.58	212.02
829.90	212.08
830.22	212.09
830.53	212.00
830.85	211.91
831.17	211.71
831.48	211.74
831.80	211.69
832.11	211.68
832.43	211.60
832.75	211.56
833.06	211.75
833.38	211.56
833.69	211.61
834.01	211.59
834.32	211.62
834.64	211.66
834.96	211.59
835.27	211.60
835.59	211.46
835.90	211.44
836.22	211.40
836.53	211.33
836.85	211.32
837.16	211.67
837.48	211.75
837.79	211.89
838.11	211.89
838.42	211.86
838.74	211.90
839.05	211.88
839.37	211.90
839.68	211.70
840.00	211.70
840.31	211.76
840.63	211.71
840.94	211.62
841.26	211.60
841.57	211.62
841.88	211.67
842.20	211.65
842.51	211.61
842.83	211.75
843.14	212.12
843.46	212.05
843.77	211.85
844.08	211.74
844.40	211.67
844.71	211.61
845.03	211.58
845.34	211.55
845.65	211.48
845.97	211.58
846.28	211.57
846.60	211.60
846.91	211.50
847.22	211.42
847.54	211.56
847.85	211.53
848.16	211.55
848.48	211.46
848.79	211.62
849.10	211.66
849.42	211.54
849.73	211.16
850.04	211.16
850.36	211.05
850.67	211.20
850.98	211.23
851.30	211.31
851.61	211.33
851.92	211.34
852.23	211.53
852.55	211.51
852.86	211.46
853.17	211.51
853.49	211.63
853.80	211.78
854.11	211.77
854.42	211.85
854.74	211.86
855.05	211.89
855.36	211.70
855.67	211.69
855.99	211.72
856.30	212.17
856.61	212.24
856.92	212.25
857.23	212.23
857.55	212.16
857.86	212.06
858.17	212.04
858.48	212.05
858.79	211.94
859.11	211.96
859.42	212.01
859.73	211.91
860.04	211.92
860.35	211.83
860.66	211.74
860.98	211.71
861.29	211.65
861.60	211.60
861.91	211.75
862.22	211.68
862.53	211.64
862.84	211.21
863.16	211.30
863.47	211.24
863.78	211.14
864.09	211.18
864.40	211.26
864.71	211.40
865.02	211.35
865.33	211.34
865.64	211.28
865.95	211.28
866.27	211.54
866.58	211.46
866.89	211.46
867.20	211.36
867.51	211.32
867.82	211.35
868.13	211.49
868.44	211.36
868.75	211.50
869.06	211.55
869.37	211.61
869.68	211.51
869.99	211.62
870.30	211.65
870.61	211.66
870.92	211.62
871.23	211.49
871.54	211.62
871.85	211.67
872.16	211.71
872.47	211.67
872.78	211.42
873.09	211.45
873.40	211.47
873.71	211.58
874.02	211.64
874.33	211.57
874.64	211.49
874.95	211.63
875.26	211.50
875.56	211.43
875.87	211.38
876.18	211.32
876.49	211.57
876.80	211.58
877.11	211.65
877.42	211.60
877.73	211.66
878.04	211.53
878.35	211.57
878.66	211.55
878.96	211.51
879.27	211.57
879.58	211.49
879.89	211.45
880.20	211.52
880.51	211.47
880.82	211.48
881.12	211.47
881.43	211.32
881.74	211.23
882.05	211.26
882.36	211.27
882.67	211.34
882.97	210.96
883.28	210.93
883.59	210.80
883.90	210.89
884.21	210.90
884.51	210.86
884.82	210.82
885.13	210.84
885.44	210.88
885.74	210.80
886.05	210.84
886.36	210.83
886.67	210.68
886.98	210.84
887.28	210.89
887.59	210.86
887.90	210.85
888.20	210.94
888.51	211.01
888.82	210.98
889.13	210.93
889.43	211.29
889.74	211.27
890.05	211.22
890.35	211.24
890.66	211.19
890.97	211.17
891.28	211.11
891.58	211.09
891.89	211.05
892.20	211.06
892.50	211.09
892.81	211.15
893.12	211.18
893.42	210.97
893.73	210.98
894.04	211.01
894.34	211.02
894.65	210.97
894.95	210.87
895.26	210.87
895.57	211.10
895.87	210.73
896.18	210.78
896.48	210.82
896.79	210.75
897.10	210.79
897.40	210.79
897.71	210.86
898.01	210.83
898.32	210.94
898.63	210.90
898.93	210.88
899.24	210.79
899.54	210.81
899.85	210.85
900.15	210.82
900.46	210.87
900.76	210.93
901.07	210.98
901.38	211.04
901.68	211.12
901.99	210.89
902.29	210.87
902.60	210.82
902.90	210.88
903.21	210.87
903.51	210.88
903.82	210.98
904.12	210.94
904.43	211.05
904.73	210.95
905.03	210.97
905.34	211.34
905.64	211.40
905.95	211.38
906.25	211.32
906.56	211.26
906.86	211.24
907.17	211.27
907.47	211.23
907.77	211.19
908.08	211.08
908.38	211.16
908.69	211.23
908.99	211.33
909.30	211.36
909.60	211.37
909.90	211.31
910.21	211.22
910.51	211.23
910.81	211.12
911.12	211.20
911.42	211.25
911.73	210.89
912.03	210.84
912.33	210.98
912.64	211.07
912.94	211.10
913.24	211.03
913.55	210.96
913.85	210.92
914.15	210.99
914.46	211.05
914.76	210.96
915.06	210.99
915.37	210.93
915.67	210.86
915.97	210.80
916.27	210.81
916.58	210.80
916.88	210.74
917.18	210.76
917.49	211.05
917.79	211.08
918.09	211.13
918.39	211.22
918.70	211.18
919.00	211.15
919.30	211.33
919.60	211.43
919.91	211.34
920.21	211.41
920.51	211.32
920.81	211.32
921.12	211.38
921.42	211.38
921.72	211.42
922.02	211.39
922.32	211.48
922.63	211.55
922.93	211.74
923.23	211.81
923.53	211.75
923.83	211.45
924.13	211.47
924.44	211.44
924.74	211.55
925.04	211.60
925.34	211.65
925.64	211.53
925.94	211.48
926.24	211.81
926.55	211.84
926.85	211.88
927.15	211.84
927.45	211.88
927.75	211.82
928.05	211.84
928.35	211.90
928.65	212.00
928.95	211.95
929.26	211.80
929.56	211.82
929.86	211.89
930.16	211.88
930.46	211.79
930.76	211.77
931.06	211.52
931.36	211.46
931.66	211.45
931.96	211.48
932.26	211.43
932.56	211.24
932.86	211.25
933.16	211.28
933.46	211.25
933.76	211.19
934.06	211.31
934.36	211.41
934.66	211.38
934.96	211.29
935.26	211.31
935.56	211.43
935.86	211.35
936.16	211.27
936.46	211.24
936.76	211.27
937.06	211.24
937.36	211.33
937.66	211.26
937.96	211.22
938.26	211.11
938.56	211.12
938.86	211.12
939.16	211.19
939.46	211.18
939.76	211.25
940.06	211.28
940.35	211.25
940.65	211.05
940.95	211.04
941.25	211.00
941.55	210.99
941.85	210.93
942.15	210.99
942.45	211.15
942.75	211.16
943.04	211.15
943.34	211.27
943.64	211.28
943.94	211.31
944.24	211.32
944.54	211.34
944.84	211.40
945.13	211.39
945.43	211.32
945.73	211.34
946.03	211.31
946.33	211.25
946.62	211.12
946.92	211.15
947.22	211.21
947.52	211.16
947.82	211.15
948.11	211.10
948.41	210.99
948.71	210.85
949.01	210.93
949.31	210.86
949.60	210.82
949.90	210.85
950.20	210.81
950.50	210.83
950.79	210.88
951.09	210.90
951.39	210.89
951.69	210.78
951.98	210.79
952.28	210.81
952.58	210.89
952.87	210.95
953.17	211.00
953.47	211.03
953.76	211.08
954.06	211.06
954.36	211.05
954.66	211.07
954.95	211.15
955.25	211.21
955.55	211.27
955.84	211.21
956.14	211.19
956.44	211.15
956.73	211.13
957.03	211.09
957.32	211.10
957.62	211.07
957.92	211.11
958.21	211.10
958.51	211.50
958.81	211.51
959.10	211.57
959.40	211.65
959.69	211.63
959.99	211.62
960.29	211.61
960.58	211.58
960.88	211.77
961.17	211.68
961.47	211.61
961.76	211.61
962.06	211.71
962.36	211.74
962.65	211.84
962.95	211.84
963.24	211.83
963.54	211.81
963.83	211.85
964.13	211.88
964.42	211.77
964.72	211.50
965.01	211.46
965.31	211.39
965.60	211.25
965.90	211.46
966.19	211.45
966.49	211.46
966.78	211.50
967.08	211.45
967.37	211.47
967.67	211.45
967.96	211.44
968.26	211.46
968.55	211.46
968.85	211.39
969.14	211.38
969.43	211.34
969.73	211.33
970.02	211.28
970.32	211.34
970.61	211.34
970.91	211.21
971.20	211.18
971.49	211.11
971.79	211.17
972.08	210.94
972.38	210.89
972.67	210.85
972.96	210.85
973.26	210.77
973.55	210.85
973.85	210.85
974.14	210.89
974.43	210.83
974.73	210.77
975.02	210.79
975.31	210.81
975.61	210.80
975.90	210.73
976.19	210.68
976.49	210.66
976.78	210.73
977.07	210.73
977.37	210.63
977.66	210.71
977.95	210.63
978.24	210.62
978.54	210.74
978.83	210.77
979.12	210.75
979.42	210.70
979.71	210.65
980.00	210.56
980.29	210.52
980.59	210.42
980.88	210.50
981.17	210.45
981.46	210.49
981.76	210.51
982.05	210.63
982.34	210.66
982.63	210.70
982.93	210.66
983.22	210.72
983.51	210.87
983.80	210.94
984.09	211.03
984.39	211.03
984.68	210.95
984.97	210.93
985.26	210.96
985.55	211.04
985.85	211.08
986.14	211.16
986.43	211.26
986.72	211.36
987.01	211.29
987.30	211.24
987.59	211.14
987.89	211.10
988.18	210.98
988.47	211.00
988.76	210.91
989.05	210.90
989.34	210.85
989.63	210.83
989.92	210.77
990.22	210.76
990.51	210.72
990.80	210.77
991.09	210.78
991.38	210.78
991.67	210.71
991.96	210.63
992.25	210.64
992.54	210.55
992.83	210.48
993.12	210.45
993.41	210.62
993.70	210.71
993.99	210.80
994.28	210.83
994.58	210.91
994.87	210.83
995.16	210.85
995.45	210.83
995.74	210.76
996.03	210.74
996.32	210.81
996.61	210.98
996.90	210.97
997.19	210.98
997.48	211.02
997.77	211.02
998.06	211.03
998.34	211.00
998.63	211.03
998.92	211.02
999.21	211.13
999.50	211.09
999.79	211.09
1000.08	211.11
1000.37	211.11
1000.66	211.02
1000.95	211.17
1001.24	211.10
1001.53	211.16
1001.82	211.24
1002.11	211.18
1002.40	211.07
1002.68	211.04
1002.97	211.21
1003.26	211.14
1003.55	211.05
1003.84	211.10
1004.13	211.22
1004.42	211.23
1004.71	211.23
1004.99	211.22
1005.28	211.26
1005.57	211.27
1005.86	211.21
1006.15	211.19
1006.44	211.20
1006.72	211.28
1007.01	211.20
1007.30	211.30
1007.59	211.29
1007.88	211.26
1008.17	211.28
1008.45	211.25
1008.74	211.13
1009.03	211.01
1009.32	211.04
1009.60	211.05
1009.89	211.00
1010.18	210.82
1010.47	210.80
1010.76	210.75
1011.04	210.77
1011.33	210.78
1011.62	210.81
1011.91	210.80
1012.19	210.82
1012.48	210.87
1012.77	210.79
1013.05	210.87
1013.34	210.83
1013.63	210.75
1013.92	210.75
1014.20	210.79
1014.49	210.79
1014.78	210.83
1015.06	210.68
1015.35	210.62
1015.64	210.70
1015.92	210.71
1016.21	210.69
1016.50	210.72
1016.78	210.80
1017.07	210.78
1017.36	210.70
1017.64	210.61
1017.93	210.63
1018.22	210.57
1018.50	210.46
1018.79	210.46
1019.08	210.42
1019.36	210.43
1019.65	210.39
1019.93	210.50
1020.22	210.57
1020.51	210.75
1020.79	210.74
1021.08	209.95
1021.36	209.60
1021.65	209.80
1021.94	211.40
1022.22	211.00
1022.51	209.10
1022.79	212.85
1023.08	212.35
1023.36	214.00
1023.65	210.90
>>>>>End Processed Spectral Data<<<<<
