SpectraSuite Data File
++++++++++++++++++++++++++++++++++++
Date: Mon Feb 25 17:10:45 EST 2013
User: group
Dark Spectrum Present: No
Reference Spectrum Present: No
Number of Sampled Component Spectra: 1
Spectrometers: USB2E7196
Integration Time (usec): 104000 (USB2E7196)
Spectra Averaged: 20 (USB2E7196)
Boxcar Smoothing: 10 (USB2E7196)
Correct for Electrical Dark: No (USB2E7196)
Strobe/Lamp Enabled: No (USB2E7196)
Correct for Detector Non-linearity: No (USB2E7196)
Correct for Stray Light: No (USB2E7196)
Number of Pixels in Processed Spectrum: 2048
>>>>>Begin Processed Spectral Data<<<<<
339.09	0.00
339.48	197.65
339.86	199.55
340.24	200.70
340.63	201.70
341.01	209.95
341.39	204.00
341.78	207.10
342.16	209.10
342.54	207.55
342.93	198.20
343.31	208.24
343.69	208.85
344.07	209.33
344.46	209.88
344.84	210.34
345.22	210.40
345.60	210.77
345.99	210.98
346.37	211.07
346.75	211.23
347.13	211.16
347.52	211.13
347.90	211.28
348.28	211.32
348.66	211.36
349.05	211.17
349.43	211.27
349.81	211.33
350.19	211.33
350.57	211.45
350.96	211.51
351.34	211.55
351.72	211.61
352.10	211.79
352.48	211.78
352.87	211.84
353.25	211.87
353.63	211.90
354.01	211.95
354.39	212.05
354.77	212.05
355.15	212.30
355.54	212.34
355.92	212.29
356.30	212.43
356.68	212.74
357.06	212.84
357.44	212.85
357.82	212.88
358.20	213.00
358.58	213.01
358.97	213.08
359.35	213.25
359.73	213.39
360.11	213.37
360.49	213.43
360.87	213.48
361.25	213.58
361.63	213.72
362.01	213.77
362.39	213.80
362.77	213.97
363.15	213.89
363.53	213.99
363.91	214.04
364.29	214.02
364.67	213.67
365.05	213.68
365.43	213.71
365.81	213.76
366.19	213.89
366.57	213.98
366.95	213.98
367.33	213.80
367.71	213.73
368.09	213.74
368.47	213.68
368.85	213.61
369.23	213.58
369.61	213.39
369.99	213.41
370.37	213.35
370.75	213.40
371.13	213.36
371.51	213.23
371.89	213.16
372.27	213.18
372.65	213.21
373.03	213.17
373.41	213.05
373.78	213.02
374.16	212.79
374.54	212.75
374.92	212.67
375.30	212.65
375.68	212.53
376.06	212.49
376.44	212.50
376.82	212.48
377.19	212.42
377.57	212.40
377.95	212.25
378.33	212.13
378.71	211.96
379.09	211.85
379.47	211.87
379.84	211.84
380.22	211.70
380.60	211.55
380.98	211.55
381.36	211.47
381.73	211.34
382.11	211.40
382.49	211.30
382.87	211.23
383.25	211.22
383.62	211.61
384.00	211.53
384.38	211.47
384.76	211.48
385.13	211.63
385.51	211.53
385.89	211.48
386.27	211.59
386.64	211.54
387.02	211.51
387.40	211.46
387.78	211.48
388.15	211.46
388.53	211.54
388.91	211.44
389.29	211.41
389.66	211.45
390.04	211.33
390.42	211.44
390.79	211.43
391.17	211.35
391.55	211.00
391.92	210.97
392.30	210.97
392.68	210.87
393.05	210.77
393.43	210.84
393.81	210.80
394.18	210.65
394.56	210.66
394.94	210.74
395.31	210.66
395.69	210.73
396.06	210.81
396.44	210.80
396.82	210.79
397.19	211.00
397.57	211.01
397.95	211.15
398.32	210.97
398.70	211.05
399.07	211.21
399.45	211.15
399.82	211.21
400.20	211.20
400.58	211.19
400.95	211.11
401.33	211.26
401.70	211.61
402.08	211.71
402.45	211.76
402.83	211.90
403.20	211.98
403.58	211.95
403.95	212.00
404.33	212.07
404.71	212.18
405.08	212.45
405.46	212.47
405.83	212.52
406.21	212.62
406.58	212.69
406.96	212.69
407.33	212.79
407.70	212.94
408.08	213.36
408.45	213.55
408.83	213.72
409.20	213.79
409.58	213.77
409.95	213.92
410.33	214.16
410.70	214.28
411.08	214.60
411.45	214.90
411.82	215.11
412.20	215.44
412.57	215.90
412.95	215.89
413.32	216.25
413.69	216.53
414.07	216.91
414.44	217.33
414.82	217.89
415.19	218.41
415.56	218.86
415.94	219.16
416.31	219.82
416.68	220.48
417.06	221.12
417.43	221.90
417.81	222.69
418.18	223.41
418.55	224.27
418.93	225.09
419.30	225.92
419.67	226.86
420.04	227.84
420.42	228.84
420.79	230.29
421.16	231.49
421.54	232.94
421.91	234.25
422.28	235.63
422.66	236.91
423.03	238.51
423.40	239.97
423.77	241.46
424.15	243.00
424.52	244.63
424.89	246.48
425.26	248.09
425.64	249.74
426.01	251.53
426.38	253.37
426.75	255.39
427.13	257.44
427.50	259.57
427.87	261.69
428.24	263.77
428.61	265.59
428.99	268.05
429.36	270.35
429.73	272.85
430.10	275.18
430.47	277.85
430.85	280.31
431.22	283.05
431.59	286.23
431.96	288.87
432.33	291.90
432.70	294.94
433.08	298.40
433.45	301.71
433.82	305.11
434.19	308.78
434.56	312.32
434.93	315.65
435.30	318.99
435.68	322.77
436.05	326.47
436.42	330.23
436.79	333.47
437.16	337.08
437.53	340.92
437.90	344.74
438.27	348.43
438.64	352.39
439.01	356.10
439.38	359.06
439.75	362.35
440.13	365.97
440.50	369.22
440.87	372.01
441.24	374.87
441.61	377.95
441.98	380.32
442.35	382.88
442.72	385.67
443.09	388.48
443.46	389.99
443.83	391.20
444.20	392.17
444.57	393.54
444.94	394.18
445.31	394.84
445.68	395.87
446.05	396.16
446.42	395.77
446.79	395.36
447.16	395.01
447.53	394.75
447.90	393.29
448.27	391.90
448.64	390.02
449.01	388.58
449.37	386.18
449.74	383.70
450.11	381.18
450.48	378.06
450.85	374.70
451.22	372.06
451.59	369.48
451.96	366.99
452.33	363.65
452.70	360.75
453.07	357.08
453.43	353.02
453.80	349.43
454.17	346.03
454.54	342.77
454.91	339.22
455.28	335.75
455.65	332.58
456.02	329.91
456.38	327.13
456.75	323.81
457.12	320.97
457.49	318.22
457.86	315.21
458.23	312.88
458.59	310.40
458.96	307.86
459.33	305.45
459.70	303.23
460.07	301.51
460.43	299.37
460.80	297.52
461.17	295.96
461.54	294.23
461.91	292.50
462.27	290.74
462.64	289.19
463.01	287.61
463.38	286.16
463.74	284.18
464.11	282.65
464.48	281.52
464.85	280.09
465.21	279.15
465.58	278.15
465.95	276.95
466.32	275.86
466.68	274.75
467.05	273.76
467.42	272.63
467.78	271.40
468.15	270.42
468.52	269.61
468.88	268.42
469.25	267.50
469.62	266.90
469.98	266.10
470.35	265.45
470.72	264.78
471.08	263.95
471.45	263.30
471.82	262.91
472.18	262.19
472.55	261.75
472.92	261.05
473.28	260.44
473.65	259.78
474.02	259.27
474.38	258.92
474.75	258.57
475.11	258.17
475.48	257.96
475.85	257.70
476.21	257.35
476.58	257.26
476.94	257.09
477.31	256.87
477.67	256.75
478.04	256.58
478.41	256.45
478.77	256.70
479.14	256.55
479.50	256.41
479.87	256.44
480.23	256.51
480.60	256.50
480.96	256.58
481.33	256.88
481.69	257.10
482.06	257.30
482.42	257.45
482.79	257.62
483.15	257.81
483.52	258.07
483.88	258.34
484.25	258.66
484.61	259.00
484.98	259.31
485.34	259.77
485.71	260.34
486.07	260.89
486.44	261.13
486.80	261.83
487.17	262.42
487.53	263.24
487.90	263.99
488.26	264.93
488.62	265.85
488.99	266.63
489.35	267.49
489.72	268.39
490.08	269.49
490.44	270.60
490.81	271.76
491.17	272.89
491.54	274.16
491.90	275.41
492.26	276.81
492.63	278.19
492.99	279.64
493.36	281.13
493.72	282.78
494.08	284.41
494.45	286.09
494.81	288.13
495.17	289.85
495.54	291.89
495.90	293.83
496.26	295.93
496.63	298.07
496.99	300.38
497.35	302.68
497.72	305.12
498.08	307.60
498.44	310.18
498.80	312.97
499.17	315.75
499.53	318.61
499.89	321.56
500.26	324.60
500.62	327.64
500.98	330.91
501.34	334.13
501.71	337.67
502.07	341.24
502.43	344.74
502.79	348.36
503.16	352.01
503.52	355.89
503.88	359.75
504.24	363.85
504.60	367.98
504.97	372.34
505.33	376.63
505.69	381.43
506.05	386.11
506.41	390.83
506.78	395.59
507.14	400.38
507.50	405.29
507.86	410.35
508.22	415.63
508.59	420.92
508.95	426.44
509.31	432.08
509.67	437.63
510.03	443.28
510.39	449.23
510.75	455.21
511.12	461.16
511.48	467.35
511.84	473.66
512.20	479.95
512.56	486.33
512.92	492.71
513.28	499.13
513.64	505.63
514.00	512.16
514.37	518.91
514.73	525.88
515.09	532.83
515.45	539.90
515.81	546.76
516.17	553.77
516.53	560.78
516.89	567.68
517.25	574.82
517.61	582.14
517.97	589.34
518.33	596.57
518.69	603.96
519.05	611.33
519.41	618.79
519.77	626.45
520.13	634.04
520.49	641.65
520.85	649.26
521.21	657.10
521.57	664.79
521.93	672.37
522.29	680.10
522.65	687.91
523.01	695.59
523.37	703.20
523.73	710.96
524.09	718.62
524.45	726.56
524.81	734.53
525.17	742.36
525.53	750.45
525.89	758.43
526.25	766.19
526.61	773.88
526.97	781.66
527.33	789.48
527.68	797.51
528.04	805.11
528.40	812.53
528.76	819.99
529.12	827.84
529.48	835.75
529.84	843.38
530.20	850.91
530.56	858.68
530.91	866.76
531.27	874.57
531.63	882.23
531.99	889.74
532.35	897.17
532.71	904.70
533.07	912.24
533.42	919.66
533.78	927.17
534.14	934.37
534.50	941.19
534.86	948.18
535.21	954.58
535.57	961.66
535.93	968.41
536.29	975.44
536.65	982.26
537.00	988.58
537.36	995.01
537.72	1001.12
538.08	1007.29
538.44	1013.39
538.79	1019.41
539.15	1025.56
539.51	1031.47
539.87	1037.56
540.22	1043.15
540.58	1048.85
540.94	1054.54
541.29	1059.92
541.65	1064.97
542.01	1070.37
542.37	1075.25
542.72	1080.59
543.08	1085.29
543.44	1090.73
543.79	1095.07
544.15	1099.57
544.51	1104.50
544.87	1109.13
545.22	1113.67
545.58	1117.84
545.94	1121.68
546.29	1125.27
546.65	1128.70
547.01	1132.27
547.36	1135.79
547.72	1139.19
548.07	1142.12
548.43	1144.94
548.79	1147.47
549.14	1150.52
549.50	1153.22
549.86	1155.69
550.21	1157.92
550.57	1160.58
550.92	1162.18
551.28	1164.06
551.64	1165.95
551.99	1167.77
552.35	1169.27
552.70	1170.87
553.06	1172.51
553.41	1174.05
553.77	1175.81
554.13	1177.24
554.48	1178.74
554.84	1179.97
555.19	1181.00
555.55	1181.85
555.90	1182.39
556.26	1183.47
556.61	1184.20
556.97	1184.62
557.32	1185.48
557.68	1185.90
558.03	1186.02
558.39	1186.75
558.74	1187.75
559.10	1188.40
559.45	1188.72
559.81	1189.40
560.16	1189.58
560.52	1189.94
560.87	1190.00
561.23	1189.72
561.58	1190.00
561.94	1189.48
562.29	1189.02
562.64	1188.99
563.00	1188.73
563.35	1189.20
563.71	1189.16
564.06	1189.11
564.42	1189.12
564.77	1189.01
565.12	1189.20
565.48	1189.30
565.83	1189.01
566.19	1188.61
566.54	1187.50
566.89	1186.50
567.25	1185.64
567.60	1185.17
567.96	1184.14
568.31	1183.55
568.66	1182.61
569.02	1181.15
569.37	1180.01
569.72	1178.84
570.08	1177.29
570.43	1175.90
570.78	1174.11
571.14	1172.32
571.49	1170.46
571.84	1168.79
572.20	1166.66
572.55	1164.71
572.90	1162.23
573.26	1159.80
573.61	1157.39
573.96	1155.26
574.31	1153.04
574.67	1150.35
575.02	1147.69
575.37	1145.03
575.72	1142.07
576.08	1139.74
576.43	1136.99
576.78	1134.34
577.13	1131.85
577.49	1129.39
577.84	1126.71
578.19	1124.25
578.54	1121.88
578.90	1119.63
579.25	1116.77
579.60	1114.14
579.95	1111.07
580.30	1108.67
580.66	1106.25
581.01	1103.26
581.36	1100.40
581.71	1097.61
582.06	1095.15
582.42	1092.45
582.77	1089.59
583.12	1086.96
583.47	1084.55
583.82	1082.30
584.17	1079.77
584.53	1077.35
584.88	1074.55
585.23	1072.03
585.58	1069.20
585.93	1066.33
586.28	1063.83
586.63	1061.27
586.98	1058.62
587.34	1056.45
587.69	1053.76
588.04	1051.09
588.39	1048.76
588.74	1045.91
589.09	1043.57
589.44	1040.60
589.79	1037.93
590.14	1035.37
590.49	1032.56
590.84	1029.43
591.19	1026.97
591.54	1024.31
591.89	1020.56
592.25	1017.90
592.60	1014.81
592.95	1011.71
593.30	1008.69
593.65	1005.30
594.00	1002.25
594.35	1000.23
594.70	996.88
595.05	993.88
595.40	990.82
595.75	987.48
596.10	984.95
596.45	982.01
596.80	979.55
597.15	976.99
597.50	974.07
597.85	971.34
598.19	968.43
598.54	965.48
598.89	962.72
599.24	960.94
599.59	958.19
599.94	955.90
600.29	953.40
600.64	950.79
600.99	948.11
601.34	945.61
601.69	941.92
602.04	939.11
602.39	936.45
602.74	933.95
603.08	931.64
603.43	929.36
603.78	926.65
604.13	923.90
604.48	921.06
604.83	918.93
605.18	916.85
605.53	914.33
605.87	911.52
606.22	909.03
606.57	906.13
606.92	903.22
607.27	900.39
607.62	897.72
607.96	895.30
608.31	892.73
608.66	889.97
609.01	887.19
609.36	884.42
609.70	881.37
610.05	878.20
610.40	875.10
610.75	871.72
611.10	868.82
611.44	865.38
611.79	862.04
612.14	858.44
612.49	854.60
612.83	851.37
613.18	847.91
613.53	844.41
613.88	840.62
614.22	837.54
614.57	834.04
614.92	830.38
615.27	826.73
615.61	823.21
615.96	819.79
616.31	816.66
616.65	813.82
617.00	810.61
617.35	807.30
617.70	804.04
618.04	800.33
618.39	796.75
618.74	793.44
619.08	790.23
619.43	786.92
619.78	783.54
620.12	780.20
620.47	777.09
620.82	773.39
621.16	770.02
621.51	766.67
621.85	763.33
622.20	760.11
622.55	756.68
622.89	753.16
623.24	749.75
623.59	746.06
623.93	742.31
624.28	739.08
624.62	736.02
624.97	732.79
625.32	729.72
625.66	726.61
626.01	723.42
626.35	720.08
626.70	716.90
627.04	714.13
627.39	710.82
627.73	707.67
628.08	704.93
628.43	701.79
628.77	698.38
629.12	695.06
629.46	692.11
629.81	688.96
630.15	685.88
630.50	682.95
630.84	679.93
631.19	676.78
631.53	673.57
631.88	670.05
632.22	666.66
632.57	663.84
632.91	660.71
633.26	657.60
633.60	654.62
633.95	651.70
634.29	648.38
634.64	645.61
634.98	642.37
635.32	639.48
635.67	636.78
636.01	634.07
636.36	631.24
636.70	628.39
637.05	625.57
637.39	622.84
637.73	619.91
638.08	617.44
638.42	614.93
638.77	612.32
639.11	609.78
639.45	607.10
639.80	604.17
640.14	601.27
640.49	598.49
640.83	595.70
641.17	592.79
641.52	590.03
641.86	587.00
642.20	584.31
642.55	581.00
642.89	577.91
643.23	574.92
643.58	572.43
643.92	569.31
644.26	566.65
644.61	563.97
644.95	561.19
645.29	558.30
645.64	555.44
645.98	552.62
646.32	549.77
646.66	546.98
647.01	544.25
647.35	541.69
647.69	538.99
648.04	536.31
648.38	533.61
648.72	530.94
649.06	528.31
649.41	525.69
649.75	523.34
650.09	520.89
650.43	518.26
650.78	515.36
651.12	512.64
651.46	509.78
651.80	507.07
652.14	504.62
652.49	501.95
652.83	499.31
653.17	496.64
653.51	493.95
653.85	491.54
654.20	488.88
654.54	486.12
654.88	483.56
655.22	480.99
655.56	478.32
655.90	475.81
656.25	473.28
656.59	470.72
656.93	468.21
657.27	465.80
657.61	463.16
657.95	460.87
658.29	458.63
658.64	456.45
658.98	453.99
659.32	451.28
659.66	448.94
660.00	446.59
660.34	444.11
660.68	441.70
661.02	439.33
661.36	437.18
661.70	435.06
662.05	432.85
662.39	430.76
662.73	428.91
663.07	426.96
663.41	424.95
663.75	422.84
664.09	420.72
664.43	418.52
664.77	416.63
665.11	414.45
665.45	412.53
665.79	410.45
666.13	408.59
666.47	406.69
666.81	404.69
667.15	402.62
667.49	400.99
667.83	399.46
668.17	397.60
668.51	395.76
668.85	393.94
669.19	392.43
669.53	390.54
669.87	388.62
670.21	386.74
670.55	385.04
670.89	383.61
671.23	381.98
671.57	380.31
671.91	378.71
672.25	377.14
672.58	375.60
672.92	374.05
673.26	372.50
673.60	371.04
673.94	369.48
674.28	368.07
674.62	366.54
674.96	364.88
675.30	363.44
675.64	362.13
675.97	360.74
676.31	359.17
676.65	357.91
676.99	356.70
677.33	355.30
677.67	353.84
678.01	352.22
678.34	350.88
678.68	349.77
679.02	348.35
679.36	346.92
679.70	345.45
680.04	344.16
680.37	342.77
680.71	341.34
681.05	340.08
681.39	338.77
681.73	337.43
682.06	336.28
682.40	335.06
682.74	333.74
683.08	332.55
683.42	331.27
683.75	329.97
684.09	328.52
684.43	327.19
684.77	325.87
685.10	324.67
685.44	323.33
685.78	322.09
686.12	321.08
686.45	320.10
686.79	318.96
687.13	317.84
687.46	316.71
687.80	315.79
688.14	314.73
688.48	313.64
688.81	312.59
689.15	311.58
689.49	310.46
689.82	309.45
690.16	308.17
690.50	306.99
690.83	305.89
691.17	304.81
691.51	303.79
691.84	302.90
692.18	301.92
692.52	301.08
692.85	300.08
693.19	299.14
693.52	298.11
693.86	297.13
694.20	296.15
694.53	295.24
694.87	294.18
695.21	293.19
695.54	292.26
695.88	291.28
696.21	290.26
696.55	289.38
696.88	288.44
697.22	287.64
697.56	286.97
697.89	286.13
698.23	285.33
698.56	284.56
698.90	283.76
699.23	282.92
699.57	282.03
699.90	281.19
700.24	280.17
700.58	279.40
700.91	278.72
701.25	278.16
701.58	277.49
701.92	276.87
702.25	276.15
702.59	275.36
702.92	274.67
703.26	273.94
703.59	273.25
703.93	272.85
704.26	272.20
704.60	271.48
704.93	270.79
705.26	270.17
705.60	269.57
705.93	268.84
706.27	268.28
706.60	267.82
706.94	267.31
707.27	266.76
707.61	266.08
707.94	265.30
708.27	264.50
708.61	263.80
708.94	263.13
709.28	262.56
709.61	262.02
709.94	261.50
710.28	260.93
710.61	260.43
710.95	259.48
711.28	259.13
711.61	258.57
711.95	258.12
712.28	257.51
712.61	256.92
712.95	256.59
713.28	256.20
713.61	255.51
713.95	254.90
714.28	254.42
714.61	253.92
714.95	253.45
715.28	252.91
715.61	252.38
715.95	251.86
716.28	251.40
716.61	251.01
716.95	250.43
717.28	249.96
717.61	249.42
717.94	249.06
718.28	248.42
718.61	247.98
718.94	247.57
719.27	247.25
719.61	246.92
719.94	246.44
720.27	245.92
720.60	245.56
720.94	245.19
721.27	244.87
721.60	244.58
721.93	244.26
722.27	244.05
722.60	243.78
722.93	243.41
723.26	243.10
723.59	242.68
723.93	242.45
724.26	242.18
724.59	241.87
724.92	241.50
725.25	241.29
725.59	241.07
725.92	240.74
726.25	240.41
726.58	240.15
726.91	239.83
727.24	239.60
727.57	239.33
727.91	238.99
728.24	238.65
728.57	238.34
728.90	238.18
729.23	237.83
729.56	237.66
729.89	237.52
730.22	237.18
730.55	236.95
730.89	236.70
731.22	236.43
731.55	236.19
731.88	235.99
732.21	235.67
732.54	235.38
732.87	235.13
733.20	234.85
733.53	234.60
733.86	234.47
734.19	234.18
734.52	234.04
734.85	234.12
735.18	233.93
735.51	233.85
735.84	233.61
736.17	233.46
736.50	233.11
736.83	233.25
737.16	233.15
737.49	232.96
737.82	232.70
738.15	232.56
738.48	232.39
738.81	232.20
739.14	231.96
739.47	231.66
739.80	231.46
740.13	231.36
740.46	231.02
740.79	230.77
741.12	230.58
741.45	230.25
741.78	229.81
742.11	229.69
742.44	229.43
742.77	229.32
743.10	229.10
743.43	228.99
743.75	228.43
744.08	228.58
744.41	228.33
744.74	228.20
745.07	227.87
745.40	227.80
745.73	227.76
746.06	227.59
746.39	227.52
746.71	227.32
747.04	227.03
747.37	226.96
747.70	226.77
748.03	226.63
748.36	226.59
748.68	226.43
749.01	226.15
749.34	225.93
749.67	225.73
750.00	225.60
750.33	225.73
750.65	225.62
750.98	225.08
751.31	224.98
751.64	224.80
751.97	224.97
752.29	224.70
752.62	224.42
752.95	224.23
753.28	224.05
753.60	223.92
753.93	223.88
754.26	223.71
754.59	223.53
754.91	223.32
755.24	223.16
755.57	223.01
755.90	222.91
756.22	222.77
756.55	222.62
756.88	222.41
757.20	221.91
757.53	221.67
757.86	221.55
758.19	221.43
758.51	221.31
758.84	220.96
759.17	220.80
759.49	220.67
759.82	220.76
760.15	220.62
760.47	220.46
760.80	220.25
761.13	220.23
761.45	220.04
761.78	219.95
762.11	219.74
762.43	219.60
762.76	219.48
763.08	219.46
763.41	219.39
763.74	219.25
764.06	219.25
764.39	219.23
764.71	219.11
765.04	219.03
765.37	218.85
765.69	218.74
766.02	218.66
766.34	218.52
766.67	218.28
767.00	218.27
767.32	218.39
767.65	218.54
767.97	218.37
768.30	218.32
768.62	218.29
768.95	218.27
769.27	218.21
769.60	218.25
769.92	218.13
770.25	218.01
770.57	218.00
770.90	217.91
771.22	217.76
771.55	217.73
771.87	217.69
772.20	217.69
772.52	217.95
772.85	218.34
773.17	218.34
773.50	218.30
773.82	218.24
774.15	217.99
774.47	217.74
774.80	217.64
775.12	217.61
775.45	217.47
775.77	217.45
776.09	217.48
776.42	217.36
776.74	217.33
777.07	217.23
777.39	217.16
777.72	217.09
778.04	217.11
778.36	217.02
778.69	216.92
779.01	216.90
779.33	216.61
779.66	216.17
779.98	216.03
780.31	215.98
780.63	216.05
780.95	216.14
781.28	216.06
781.60	215.99
781.92	215.93
782.25	215.95
782.57	215.91
782.89	215.82
783.22	215.75
783.54	215.63
783.86	215.60
784.19	215.47
784.51	215.52
784.83	215.40
785.16	215.36
785.48	215.31
785.80	215.18
786.12	215.14
786.45	215.07
786.77	215.08
787.09	214.97
787.42	214.78
787.74	214.70
788.06	214.67
788.38	214.60
788.71	214.60
789.03	214.50
789.35	214.44
789.67	214.28
789.99	214.24
790.32	214.18
790.64	214.17
790.96	214.37
791.28	214.21
791.61	214.14
791.93	214.02
792.25	214.00
792.57	214.26
792.89	214.10
793.21	214.10
793.54	214.01
793.86	213.99
794.18	213.96
794.50	213.76
794.82	213.71
795.14	213.74
795.47	213.76
795.79	213.74
796.11	213.72
796.43	213.73
796.75	213.76
797.07	213.76
797.39	213.76
797.71	213.59
798.04	213.54
798.36	213.50
798.68	213.58
799.00	213.56
799.32	213.34
799.64	213.38
799.96	213.36
800.28	213.38
800.60	213.39
800.92	213.39
801.24	213.44
801.56	213.51
801.89	213.51
802.21	213.49
802.53	213.44
802.85	213.48
803.17	213.67
803.49	213.52
803.81	213.46
804.13	213.41
804.45	213.34
804.77	213.39
805.09	213.45
805.41	213.40
805.73	213.31
806.05	213.15
806.37	213.19
806.69	213.11
807.01	213.08
807.33	213.04
807.65	212.91
807.97	213.08
808.28	213.02
808.60	212.97
808.92	212.95
809.24	213.10
809.56	213.05
809.88	212.84
810.20	212.95
810.52	213.05
810.84	213.00
811.16	212.95
811.48	212.95
811.80	213.04
812.12	213.01
812.43	213.12
812.75	213.17
813.07	213.06
813.39	213.05
813.71	212.99
814.03	212.95
814.35	212.92
814.67	212.78
814.98	212.73
815.30	212.75
815.62	212.65
815.94	212.47
816.26	212.50
816.58	212.45
816.89	212.40
817.21	212.25
817.53	212.29
817.85	212.30
818.17	212.26
818.48	212.08
818.80	212.18
819.12	212.04
819.44	211.99
819.76	211.99
820.07	212.00
820.39	212.07
820.71	212.10
821.03	212.15
821.34	212.10
821.66	212.13
821.98	212.15
822.30	212.06
822.61	212.29
822.93	212.21
823.25	212.25
823.57	212.20
823.88	212.28
824.20	212.25
824.52	212.31
824.83	212.36
825.15	212.36
825.47	212.32
825.79	212.43
826.10	212.42
826.42	212.40
826.74	212.46
827.05	212.38
827.37	212.38
827.69	212.37
828.00	212.36
828.32	212.42
828.64	212.37
828.95	212.57
829.27	212.50
829.58	212.45
829.90	212.48
830.22	212.55
830.53	212.46
830.85	212.44
831.17	212.36
831.48	212.34
831.80	212.31
832.11	212.24
832.43	212.13
832.75	212.16
833.06	212.38
833.38	212.24
833.69	212.23
834.01	212.20
834.32	212.15
834.64	212.10
834.96	212.03
835.27	212.00
835.59	211.90
835.90	211.75
836.22	211.74
836.53	211.56
836.85	211.45
837.16	211.80
837.48	211.76
837.79	211.84
838.11	211.80
838.42	211.75
838.74	211.81
839.05	211.78
839.37	211.77
839.68	211.57
840.00	211.57
840.31	211.62
840.63	211.64
840.94	211.58
841.26	211.56
841.57	211.53
841.88	211.54
842.20	211.53
842.51	211.51
842.83	211.49
843.14	211.91
843.46	211.97
843.77	211.71
844.08	211.71
844.40	211.63
844.71	211.63
845.03	211.66
845.34	211.64
845.65	211.65
845.97	211.63
846.28	211.61
846.60	211.67
846.91	211.66
847.22	211.66
847.54	211.77
847.85	211.81
848.16	211.81
848.48	211.79
848.79	211.91
849.10	211.90
849.42	211.95
849.73	211.64
850.04	211.63
850.36	211.57
850.67	211.62
850.98	211.57
851.30	211.52
851.61	211.47
851.92	211.45
852.23	211.53
852.55	211.55
852.86	211.58
853.17	211.58
853.49	211.64
853.80	211.71
854.11	211.76
854.42	211.77
854.74	211.77
855.05	211.72
855.36	211.56
855.67	211.62
855.99	211.63
856.30	212.04
856.61	211.95
856.92	211.98
857.23	212.02
857.55	211.96
857.86	212.03
858.17	212.13
858.48	212.16
858.79	212.13
859.11	212.14
859.42	212.10
859.73	212.01
860.04	211.95
860.35	211.86
860.66	211.72
860.98	211.73
861.29	211.73
861.60	211.78
861.91	211.83
862.22	211.76
862.53	211.72
862.84	211.37
863.16	211.57
863.47	211.50
863.78	211.45
864.09	211.55
864.40	211.56
864.71	211.59
865.02	211.55
865.33	211.48
865.64	211.45
865.95	211.49
866.27	211.85
866.58	211.88
866.89	211.84
867.20	211.90
867.51	211.86
867.82	211.86
868.13	211.95
868.44	211.87
868.75	211.95
869.06	211.95
869.37	211.90
869.68	211.73
869.99	211.80
870.30	211.75
870.61	211.80
870.92	211.70
871.23	211.62
871.54	211.68
871.85	211.74
872.16	211.81
872.47	211.74
872.78	211.45
873.09	211.46
873.40	211.49
873.71	211.43
874.02	211.49
874.33	211.42
874.64	211.40
874.95	211.50
875.26	211.41
875.56	211.43
875.87	211.44
876.18	211.50
876.49	211.87
876.80	211.91
877.11	211.83
877.42	211.87
877.73	211.86
878.04	211.79
878.35	211.80
878.66	211.74
878.96	211.74
879.27	211.78
879.58	211.68
879.89	211.75
880.20	211.87
880.51	211.82
880.82	211.82
881.12	211.75
881.43	211.73
881.74	211.73
882.05	211.69
882.36	211.69
882.67	211.66
882.97	211.32
883.28	211.32
883.59	211.27
883.90	211.33
884.21	211.46
884.51	211.43
884.82	211.36
885.13	211.39
885.44	211.39
885.74	211.32
886.05	211.38
886.36	211.33
886.67	211.18
886.98	211.40
887.28	211.44
887.59	211.45
887.90	211.41
888.20	211.38
888.51	211.41
888.82	211.33
889.13	211.35
889.43	211.59
889.74	211.54
890.05	211.57
890.35	211.57
890.66	211.45
890.97	211.51
891.28	211.60
891.58	211.60
891.89	211.64
892.20	211.62
892.50	211.52
892.81	211.47
893.12	211.45
893.42	211.24
893.73	211.25
894.04	211.24
894.34	211.26
894.65	211.27
894.95	211.23
895.26	211.25
895.57	211.40
895.87	211.05
896.18	211.11
896.48	211.09
896.79	211.00
897.10	211.06
897.40	211.00
897.71	210.93
898.01	210.92
898.32	210.91
898.63	210.88
898.93	210.94
899.24	210.90
899.54	210.96
899.85	210.97
900.15	210.98
900.46	210.96
900.76	210.96
901.07	210.95
901.38	210.92
901.68	210.98
901.99	210.79
902.29	210.79
902.60	210.77
902.90	210.79
903.21	210.77
903.51	210.79
903.82	210.89
904.12	210.92
904.43	210.92
904.73	210.88
905.03	210.95
905.34	211.30
905.64	211.35
905.95	211.29
906.25	211.29
906.56	211.25
906.86	211.26
907.17	211.25
907.47	211.32
907.77	211.19
908.08	211.09
908.38	211.06
908.69	211.11
908.99	211.13
909.30	211.13
909.60	211.18
909.90	211.08
910.21	210.93
910.51	210.88
910.81	210.87
911.12	210.89
911.42	210.87
911.73	210.48
912.03	210.42
912.33	210.58
912.64	210.56
912.94	210.58
913.24	210.55
913.55	210.55
913.85	210.53
914.15	210.74
914.46	210.75
914.76	210.79
915.06	210.76
915.37	210.77
915.67	210.76
915.97	210.67
916.27	210.67
916.58	210.72
916.88	210.77
917.18	210.71
917.49	211.06
917.79	211.13
918.09	211.19
918.39	211.30
918.70	211.23
919.00	211.22
919.30	211.31
919.60	211.28
919.91	211.30
920.21	211.32
920.51	211.26
920.81	211.27
921.12	211.33
921.42	211.37
921.72	211.32
922.02	211.36
922.32	211.44
922.63	211.48
922.93	211.65
923.23	211.65
923.53	211.65
923.83	211.34
924.13	211.34
924.44	211.33
924.74	211.43
925.04	211.50
925.34	211.53
925.64	211.42
925.94	211.44
926.24	211.56
926.55	211.54
926.85	211.57
927.15	211.60
927.45	211.51
927.75	211.46
928.05	211.48
928.35	211.40
928.65	211.54
928.95	211.55
929.26	211.40
929.56	211.50
929.86	211.56
930.16	211.52
930.46	211.54
930.76	211.52
931.06	211.32
931.36	211.22
931.66	211.22
931.96	211.30
932.26	211.27
932.56	211.07
932.86	211.06
933.16	211.04
933.46	211.03
933.76	211.04
934.06	211.11
934.36	211.21
934.66	211.23
934.96	211.14
935.26	211.13
935.56	211.20
935.86	211.08
936.16	211.04
936.46	211.06
936.76	210.95
937.06	210.98
937.36	211.01
937.66	211.03
937.96	211.02
938.26	210.97
938.56	211.00
938.86	211.10
939.16	211.16
939.46	211.22
939.76	211.23
940.06	211.24
940.35	211.15
940.65	211.03
940.95	211.10
941.25	211.03
941.55	211.00
941.85	210.92
942.15	210.96
942.45	211.06
942.75	211.00
943.04	211.00
943.34	211.05
943.64	210.98
943.94	210.95
944.24	210.93
944.54	210.90
944.84	210.84
945.13	210.80
945.43	210.74
945.73	210.69
946.03	210.67
946.33	210.64
946.62	210.69
946.92	210.64
947.22	210.64
947.52	210.66
947.82	210.71
948.11	210.74
948.41	210.70
948.71	210.59
949.01	210.72
949.31	210.68
949.60	210.63
949.90	210.77
950.20	210.77
950.50	210.74
950.79	210.78
951.09	210.93
951.39	210.91
951.69	210.83
951.98	210.97
952.28	211.01
952.58	210.99
952.87	211.00
953.17	211.06
953.47	211.03
953.76	211.05
954.06	211.00
954.36	210.94
954.66	210.96
954.95	211.03
955.25	211.00
955.55	211.05
955.84	211.00
956.14	210.95
956.44	210.98
956.73	211.02
957.03	210.94
957.32	210.85
957.62	210.83
957.92	210.96
958.21	210.87
958.51	211.24
958.81	211.32
959.10	211.31
959.40	211.34
959.69	211.40
959.99	211.41
960.29	211.43
960.58	211.42
960.88	211.52
961.17	211.41
961.47	211.37
961.76	211.37
962.06	211.50
962.36	211.49
962.65	211.50
962.95	211.50
963.24	211.46
963.54	211.56
963.83	211.52
964.13	211.43
964.42	211.35
964.72	211.05
965.01	211.01
965.31	210.99
965.60	210.95
965.90	211.12
966.19	210.99
966.49	211.03
966.78	210.99
967.08	210.97
967.37	211.06
967.67	211.03
967.96	211.10
968.26	211.05
968.55	211.12
968.85	211.07
969.14	211.00
969.43	211.02
969.73	210.92
970.02	210.99
970.32	211.06
970.61	211.00
970.91	210.95
971.20	210.93
971.49	210.84
971.79	210.86
972.08	210.65
972.38	210.73
972.67	210.70
972.96	210.80
973.26	210.71
973.55	210.77
973.85	210.79
974.14	210.78
974.43	210.79
974.73	210.68
975.02	210.69
975.31	210.71
975.61	210.80
975.90	210.81
976.19	210.74
976.49	210.77
976.78	210.87
977.07	210.85
977.37	210.92
977.66	211.06
977.95	211.02
978.24	211.01
978.54	211.18
978.83	211.10
979.12	211.02
979.42	211.07
979.71	211.07
980.00	211.08
980.29	211.04
980.59	210.95
980.88	211.05
981.17	211.01
981.46	211.06
981.76	211.04
982.05	211.14
982.34	211.18
982.63	211.15
982.93	211.14
983.22	211.23
983.51	211.25
983.80	211.27
984.09	211.36
984.39	211.36
984.68	211.17
984.97	211.15
985.26	211.18
985.55	211.15
985.85	211.01
986.14	211.06
986.43	211.06
986.72	211.09
987.01	211.01
987.30	211.04
987.59	211.03
987.89	210.99
988.18	210.94
988.47	210.90
988.76	210.96
989.05	211.00
989.34	210.92
989.63	210.98
989.92	210.97
990.22	210.88
990.51	210.91
990.80	210.92
991.09	211.06
991.38	211.09
991.67	211.04
991.96	211.09
992.25	211.05
992.54	211.09
992.83	211.02
993.12	211.00
993.41	211.06
993.70	211.17
993.99	211.24
994.28	211.27
994.58	211.36
994.87	211.26
995.16	211.14
995.45	211.14
995.74	211.01
996.03	211.01
996.32	211.09
996.61	211.12
996.90	211.11
997.19	211.04
997.48	211.08
997.77	211.06
998.06	211.07
998.34	211.06
998.63	211.00
998.92	211.06
999.21	211.05
999.50	211.02
999.79	210.86
1000.08	210.84
1000.37	210.83
1000.66	210.70
1000.95	210.78
1001.24	210.87
1001.53	210.91
1001.82	210.84
1002.11	210.77
1002.40	210.77
1002.68	210.81
1002.97	211.11
1003.26	211.01
1003.55	210.93
1003.84	210.95
1004.13	211.02
1004.42	211.01
1004.71	211.01
1004.99	211.06
1005.28	211.18
1005.57	211.20
1005.86	211.23
1006.15	211.23
1006.44	211.16
1006.72	211.25
1007.01	211.20
1007.30	211.20
1007.59	211.11
1007.88	211.14
1008.17	211.17
1008.45	211.10
1008.74	210.95
1009.03	210.74
1009.32	210.80
1009.60	210.80
1009.89	210.75
1010.18	210.61
1010.47	210.62
1010.76	210.65
1011.04	210.63
1011.33	210.66
1011.62	210.68
1011.91	210.71
1012.19	210.73
1012.48	210.70
1012.77	210.68
1013.05	210.77
1013.34	210.84
1013.63	210.89
1013.92	210.95
1014.20	210.89
1014.49	210.93
1014.78	210.95
1015.06	210.92
1015.35	210.90
1015.64	211.02
1015.92	211.09
1016.21	211.14
1016.50	211.23
1016.78	211.27
1017.07	211.26
1017.36	211.22
1017.64	211.15
1017.93	211.15
1018.22	211.11
1018.50	211.22
1018.79	211.27
1019.08	211.22
1019.36	211.22
1019.65	211.21
1019.93	211.29
1020.22	211.42
1020.51	211.60
1020.79	211.62
1021.08	210.40
1021.36	211.50
1021.65	212.15
1021.94	211.90
1022.22	212.00
1022.51	211.45
1022.79	212.75
1023.08	212.75
1023.36	215.15
1023.65	210.60
>>>>>End Processed Spectral Data<<<<<
