SpectraSuite Data File
++++++++++++++++++++++++++++++++++++
Date: Mon Feb 25 17:00:21 EST 2013
User: group
Dark Spectrum Present: No
Reference Spectrum Present: No
Number of Sampled Component Spectra: 1
Spectrometers: USB2E7196
Integration Time (usec): 104000 (USB2E7196)
Spectra Averaged: 20 (USB2E7196)
Boxcar Smoothing: 10 (USB2E7196)
Correct for Electrical Dark: No (USB2E7196)
Strobe/Lamp Enabled: No (USB2E7196)
Correct for Detector Non-linearity: No (USB2E7196)
Correct for Stray Light: No (USB2E7196)
Number of Pixels in Processed Spectrum: 2048
>>>>>Begin Processed Spectral Data<<<<<
339.09	0.00
339.48	199.20
339.86	199.10
340.24	201.45
340.63	202.50
341.01	210.45
341.39	205.65
341.78	206.85
342.16	208.95
342.54	209.00
342.93	198.44
343.31	208.44
343.69	208.94
344.07	209.45
344.46	209.95
344.84	210.39
345.22	210.35
345.60	210.57
345.99	210.81
346.37	210.92
346.75	211.04
347.13	211.10
347.52	211.20
347.90	211.30
348.28	211.19
348.66	211.25
349.05	211.18
349.43	211.15
349.81	211.13
350.19	211.24
350.57	211.30
350.96	211.37
351.34	211.47
351.72	211.61
352.10	211.68
352.48	211.66
352.87	211.70
353.25	211.79
353.63	211.88
354.01	211.94
354.39	211.98
354.77	212.00
355.15	212.17
355.54	212.16
355.92	212.19
356.30	212.30
356.68	212.61
357.06	212.65
357.44	212.69
357.82	212.77
358.20	212.76
358.58	212.79
358.97	212.82
359.35	212.92
359.73	212.95
360.11	212.95
360.49	213.05
360.87	213.15
361.25	213.22
361.63	213.40
362.01	213.42
362.39	213.48
362.77	213.53
363.15	213.50
363.53	213.56
363.91	213.54
364.29	213.56
364.67	213.30
365.05	213.30
365.43	213.36
365.81	213.45
366.19	213.61
366.57	213.74
366.95	213.78
367.33	213.67
367.71	213.65
368.09	213.75
368.47	213.70
368.85	213.61
369.23	213.71
369.61	213.50
369.99	213.59
370.37	213.56
370.75	213.73
371.13	213.65
371.51	213.60
371.89	213.59
372.27	213.57
372.65	213.55
373.03	213.55
373.41	213.50
373.78	213.51
374.16	213.31
374.54	213.10
374.92	213.05
375.30	213.01
375.68	212.99
376.06	212.95
376.44	212.86
376.82	212.81
377.19	212.74
377.57	212.69
377.95	212.55
378.33	212.57
378.71	212.28
379.09	212.27
379.47	212.23
379.84	212.14
380.22	212.09
380.60	211.93
380.98	211.85
381.36	211.78
381.73	211.55
382.11	211.58
382.49	211.60
382.87	211.45
383.25	211.43
383.62	211.75
384.00	211.60
384.38	211.57
384.76	211.60
385.13	211.67
385.51	211.70
385.89	211.60
386.27	211.49
386.64	211.53
387.02	211.46
387.40	211.33
387.78	211.39
388.15	211.33
388.53	211.37
388.91	211.32
389.29	211.25
389.66	211.27
390.04	211.20
390.42	211.28
390.79	211.28
391.17	211.23
391.55	210.87
391.92	210.90
392.30	210.96
392.68	210.91
393.05	210.82
393.43	210.80
393.81	210.77
394.18	210.68
394.56	210.68
394.94	210.80
395.31	210.82
395.69	210.92
396.06	211.04
396.44	211.05
396.82	211.10
397.19	211.32
397.57	211.34
397.95	211.41
398.32	211.24
398.70	211.27
399.07	211.42
399.45	211.40
399.82	211.39
400.20	211.39
400.58	211.45
400.95	211.39
401.33	211.50
401.70	211.82
402.08	211.91
402.45	212.02
402.83	212.17
403.20	212.35
403.58	212.35
403.95	212.47
404.33	212.63
404.71	212.75
405.08	213.09
405.46	213.22
405.83	213.40
406.21	213.65
406.58	213.94
406.96	214.09
407.33	214.34
407.70	214.68
408.08	215.22
408.45	215.58
408.83	215.92
409.20	216.24
409.58	216.42
409.95	216.90
410.33	217.33
410.70	217.61
411.08	218.14
411.45	218.70
411.82	219.27
412.20	220.00
412.57	220.96
412.95	221.42
413.32	222.31
413.69	223.14
414.07	224.10
414.44	225.03
414.82	226.09
415.19	227.25
415.56	228.40
415.94	229.50
416.31	230.94
416.68	232.39
417.06	234.07
417.43	235.74
417.81	237.54
418.18	239.34
418.55	241.41
418.93	243.42
419.30	245.69
419.67	247.98
420.04	250.26
420.42	252.57
420.79	255.55
421.16	258.48
421.54	261.56
421.91	264.65
422.28	267.95
422.66	271.38
423.03	274.94
423.40	278.54
423.77	282.29
424.15	286.12
424.52	290.30
424.89	294.75
425.26	299.02
425.64	303.19
426.01	307.74
426.38	312.53
426.75	317.44
427.13	322.43
427.50	327.57
427.87	333.03
428.24	338.65
428.61	343.85
428.99	349.63
429.36	355.82
429.73	362.04
430.10	368.29
430.47	374.69
430.85	381.32
431.22	388.38
431.59	395.92
431.96	402.97
432.33	410.74
432.70	418.41
433.08	427.25
433.45	435.68
433.82	444.13
434.19	453.40
434.56	462.79
434.93	471.68
435.30	480.69
435.68	490.80
436.05	500.56
436.42	510.48
436.79	519.60
437.16	529.23
437.53	539.55
437.90	549.80
438.27	559.85
438.64	570.31
439.01	580.05
439.38	588.78
439.75	597.45
440.13	607.15
440.50	616.35
440.87	624.27
441.24	632.21
441.61	641.02
441.98	647.75
442.35	655.27
442.72	663.16
443.09	670.63
443.46	675.30
443.83	678.72
444.20	681.70
444.57	685.89
444.94	688.48
445.31	690.80
445.68	693.22
446.05	694.65
446.42	694.49
446.79	694.15
447.16	693.58
447.53	693.41
447.90	690.35
448.27	687.34
448.64	682.71
449.01	679.53
449.37	673.46
449.74	667.63
450.11	660.55
450.48	652.55
450.85	644.53
451.22	637.67
451.59	631.17
451.96	624.98
452.33	616.37
452.70	608.62
453.07	599.19
453.43	589.50
453.80	580.42
454.17	571.53
454.54	563.20
454.91	554.33
455.28	545.47
455.65	537.50
456.02	529.48
456.38	522.42
456.75	513.80
457.12	506.51
457.49	499.32
457.86	492.33
458.23	486.40
458.59	479.82
458.96	473.03
459.33	467.11
459.70	461.23
460.07	456.59
460.43	451.12
460.80	446.16
461.17	441.65
461.54	437.01
461.91	432.51
462.27	427.89
462.64	423.89
463.01	419.63
463.38	415.46
463.74	410.97
464.11	407.40
464.48	404.25
464.85	400.75
465.21	398.15
465.58	395.18
465.95	391.56
466.32	388.66
466.68	385.88
467.05	383.00
467.42	380.08
467.78	377.04
468.15	374.25
468.52	372.24
468.88	369.55
469.25	366.98
469.62	365.00
469.98	362.90
470.35	361.01
470.72	358.97
471.08	356.82
471.45	355.25
471.82	353.34
472.18	351.30
472.55	349.96
472.92	348.15
473.28	346.73
473.65	345.35
474.02	343.95
474.38	342.85
474.75	341.82
475.11	340.65
475.48	339.75
475.85	338.96
476.21	337.97
476.58	337.34
476.94	336.83
477.31	336.14
477.67	335.46
478.04	334.89
478.41	334.67
478.77	334.71
479.14	334.18
479.50	334.04
479.87	333.99
480.23	333.86
480.60	333.68
480.96	333.50
481.33	333.74
481.69	333.99
482.06	333.97
482.42	334.05
482.79	334.21
483.15	334.58
483.52	335.00
483.88	335.45
484.25	335.81
484.61	336.34
484.98	336.85
485.34	337.65
485.71	338.33
486.07	339.04
486.44	339.40
486.80	340.26
487.17	341.20
487.53	342.43
487.90	343.48
488.26	344.78
488.62	346.22
488.99	347.38
489.35	348.54
489.72	350.02
490.08	351.51
490.44	353.03
490.81	354.65
491.17	356.31
491.54	358.07
491.90	359.84
492.26	361.70
492.63	363.54
492.99	365.42
493.36	367.46
493.72	369.64
494.08	371.88
494.45	374.11
494.81	376.56
495.17	378.67
495.54	381.17
495.90	383.71
496.26	386.17
496.63	388.69
496.99	391.48
497.35	394.18
497.72	396.96
498.08	399.79
498.44	402.64
498.80	405.53
499.17	408.52
499.53	411.40
499.89	414.33
500.26	417.32
500.62	420.16
500.98	423.28
501.34	426.25
501.71	429.30
502.07	432.34
502.43	435.12
502.79	438.17
503.16	441.00
503.52	443.75
503.88	446.50
504.24	449.39
504.60	452.03
504.97	454.78
505.33	457.38
505.69	460.24
506.05	462.79
506.41	465.27
506.78	467.63
507.14	470.02
507.50	472.42
507.86	474.75
508.22	477.04
508.59	479.15
508.95	481.27
509.31	483.42
509.67	485.47
510.03	487.39
510.39	489.31
510.75	491.24
511.12	493.06
511.48	494.81
511.84	496.44
512.20	497.95
512.56	499.54
512.92	501.20
513.28	502.61
513.64	503.99
514.00	505.36
514.37	506.52
514.73	507.91
515.09	509.13
515.45	510.32
515.81	511.37
516.17	512.21
516.53	513.01
516.89	513.82
517.25	514.57
517.61	515.42
517.97	516.02
518.33	516.48
518.69	516.98
519.05	517.58
519.41	518.13
519.77	518.84
520.13	519.13
520.49	519.34
520.85	519.58
521.21	520.10
521.57	520.29
521.93	520.51
522.29	520.87
522.65	521.03
523.01	521.19
523.37	521.30
523.73	521.69
524.09	522.00
524.45	522.17
524.81	522.35
525.17	522.75
525.53	523.20
525.89	523.64
526.25	524.23
526.61	524.51
526.97	524.93
527.33	525.44
527.68	526.27
528.04	526.98
528.40	527.49
528.76	527.90
529.12	528.76
529.48	529.73
529.84	530.35
530.20	531.26
530.56	532.24
530.91	533.50
531.27	534.41
531.63	535.46
531.99	536.59
532.35	537.85
532.71	538.94
533.07	540.11
533.42	541.75
533.78	542.85
534.14	544.39
534.50	545.65
534.86	547.26
535.21	548.55
535.57	550.10
535.93	551.68
536.29	553.41
536.65	554.94
537.00	556.63
537.36	558.22
537.72	559.79
538.08	561.56
538.44	563.20
538.79	565.14
539.15	567.23
539.51	569.16
539.87	571.22
540.22	573.36
540.58	575.48
540.94	577.38
541.29	579.44
541.65	581.39
542.01	583.78
542.37	585.85
542.72	588.08
543.08	590.15
543.44	592.60
543.79	594.47
544.15	596.87
544.51	599.30
544.87	601.94
545.22	604.54
545.58	606.75
545.94	609.05
546.29	611.47
546.65	613.67
547.01	616.06
547.36	618.42
547.72	620.73
548.07	623.15
548.43	625.54
548.79	628.01
549.14	630.49
549.50	632.85
549.86	635.22
550.21	637.61
550.57	640.37
550.92	642.68
551.28	645.50
551.64	648.06
551.99	650.61
552.35	653.16
552.70	655.55
553.06	658.26
553.41	660.91
553.77	663.75
554.13	666.40
554.48	669.21
554.84	671.99
555.19	674.65
555.55	677.51
555.90	680.01
556.26	682.46
556.61	684.84
556.97	687.12
557.32	689.55
557.68	691.93
558.03	694.14
558.39	696.52
558.74	698.88
559.10	700.99
559.45	703.15
559.81	705.31
560.16	707.49
560.52	709.73
560.87	712.01
561.23	713.71
561.58	716.02
561.94	717.88
562.29	719.63
562.64	721.65
563.00	723.25
563.35	725.25
563.71	727.60
564.06	729.76
564.42	731.93
564.77	734.05
565.12	736.27
565.48	738.53
565.83	740.54
566.19	742.53
566.54	744.40
566.89	746.23
567.25	748.33
567.60	750.57
567.96	752.57
568.31	754.71
568.66	756.53
569.02	757.88
569.37	759.20
569.72	760.75
570.08	762.18
570.43	763.60
570.78	764.93
571.14	765.71
571.49	766.70
571.84	767.84
572.20	768.65
572.55	769.43
572.90	769.82
573.26	770.35
573.61	770.80
573.96	771.42
574.31	771.66
574.67	771.65
575.02	771.43
575.37	771.28
575.72	770.56
576.08	770.67
576.43	770.60
576.78	770.68
577.13	770.74
577.49	770.63
577.84	770.41
578.19	770.18
578.54	770.33
578.90	770.46
579.25	770.22
579.60	769.74
579.95	769.28
580.30	769.13
580.66	768.93
581.01	768.33
581.36	767.77
581.71	767.39
582.06	767.20
582.42	766.73
582.77	766.13
583.12	765.83
583.47	765.25
583.82	764.71
584.17	764.05
584.53	763.26
584.88	762.40
585.23	761.90
585.58	761.19
585.93	760.27
586.28	759.52
586.63	758.82
586.98	758.24
587.34	757.75
587.69	756.75
588.04	756.02
588.39	755.56
588.74	754.61
589.09	754.08
589.44	752.90
589.79	752.06
590.14	751.41
590.49	750.58
590.84	749.37
591.19	748.62
591.54	747.79
591.89	746.62
592.25	745.98
592.60	744.66
592.95	743.37
593.30	741.93
593.65	740.28
594.00	738.55
594.35	738.08
594.70	736.48
595.05	735.20
595.40	733.70
595.75	732.10
596.10	730.83
596.45	729.17
596.80	727.90
597.15	726.44
597.50	724.65
597.85	723.19
598.19	721.68
598.54	720.06
598.89	718.43
599.24	717.23
599.59	715.44
599.94	714.04
600.29	712.57
600.64	711.34
600.99	709.79
601.34	708.54
601.69	706.02
602.04	704.35
602.39	702.64
602.74	701.08
603.08	699.63
603.43	698.19
603.78	696.56
604.13	694.90
604.48	693.29
604.83	692.10
605.18	690.60
605.53	689.10
605.87	687.33
606.22	686.08
606.57	684.31
606.92	682.55
607.27	680.72
607.62	679.06
607.96	677.56
608.31	676.06
608.66	674.28
609.01	672.58
609.36	670.75
609.70	668.93
610.05	666.86
610.40	665.03
610.75	663.04
611.10	661.34
611.44	659.16
611.79	657.14
612.14	654.87
612.49	652.58
612.83	650.55
613.18	648.44
613.53	646.04
613.88	643.72
614.22	641.62
614.57	639.41
614.92	637.23
615.27	634.89
615.61	632.72
615.96	630.68
616.31	628.53
616.65	626.70
617.00	624.71
617.35	622.76
617.70	620.45
618.04	618.10
618.39	615.52
618.74	613.54
619.08	611.26
619.43	609.13
619.78	607.10
620.12	605.13
620.47	602.97
620.82	600.64
621.16	598.28
621.51	596.27
621.85	594.19
622.20	591.84
622.55	589.49
622.89	587.19
623.24	584.84
623.59	582.59
623.93	580.26
624.28	578.25
624.62	576.27
624.97	574.18
625.32	572.00
625.66	570.13
626.01	567.83
626.35	565.85
626.70	563.58
627.04	561.65
627.39	559.38
627.73	557.39
628.08	555.51
628.43	553.42
628.77	551.12
629.12	549.10
629.46	547.30
629.81	545.26
630.15	543.17
630.50	540.98
630.84	538.81
631.19	536.63
631.53	534.42
631.88	531.97
632.22	529.85
632.57	528.22
632.91	526.08
633.26	524.24
633.60	522.07
633.95	520.18
634.29	517.87
634.64	515.94
634.98	513.80
635.32	511.93
635.67	510.25
636.01	508.35
636.36	506.16
636.70	504.16
637.05	502.28
637.39	500.53
637.73	498.98
638.08	497.44
638.42	495.80
638.77	493.98
639.11	492.25
639.45	490.46
639.80	488.21
640.14	486.28
640.49	484.33
640.83	482.51
641.17	480.61
641.52	478.79
641.86	476.74
642.20	475.03
642.55	472.87
642.89	470.88
643.23	468.94
643.58	467.50
643.92	465.56
644.26	463.75
644.61	461.85
644.95	459.90
645.29	457.78
645.64	455.81
645.98	454.04
646.32	452.14
646.66	450.08
647.01	448.44
647.35	446.78
647.69	444.93
648.04	443.27
648.38	441.50
648.72	439.61
649.06	437.85
649.41	436.01
649.75	434.28
650.09	432.61
650.43	430.80
650.78	428.74
651.12	426.92
651.46	425.02
651.80	423.31
652.14	421.63
652.49	420.03
652.83	418.33
653.17	416.46
653.51	414.72
653.85	413.26
654.20	411.52
654.54	409.74
654.88	407.93
655.22	406.20
655.56	404.42
655.90	402.79
656.25	400.97
656.59	399.14
656.93	397.52
657.27	395.96
657.61	394.32
657.95	392.85
658.29	391.31
658.64	389.87
658.98	388.20
659.32	386.44
659.66	384.87
660.00	383.22
660.34	381.56
660.68	379.99
661.02	378.31
661.36	376.75
661.70	375.24
662.05	373.87
662.39	372.50
662.73	371.11
663.07	369.89
663.41	368.62
663.75	367.30
664.09	365.84
664.43	364.26
664.77	362.82
665.11	361.32
665.45	359.98
665.79	358.58
666.13	357.20
666.47	355.86
666.81	354.42
667.15	353.02
667.49	351.81
667.83	350.62
668.17	349.31
668.51	348.03
668.85	346.78
669.19	345.70
669.53	344.35
669.87	343.05
670.21	341.67
670.55	340.43
670.89	339.50
671.23	338.48
671.57	337.39
671.91	336.40
672.25	335.28
672.58	334.22
672.92	333.06
673.26	331.91
673.60	330.85
673.94	329.79
674.28	328.81
674.62	327.80
674.96	326.75
675.30	325.80
675.64	324.74
675.97	323.64
676.31	322.52
676.65	321.39
676.99	320.55
677.33	319.57
677.67	318.65
678.01	317.39
678.34	316.43
678.68	315.42
679.02	314.41
679.36	313.51
679.70	312.52
680.04	311.66
680.37	310.69
680.71	309.72
681.05	308.83
681.39	307.95
681.73	307.08
682.06	306.15
682.40	305.21
682.74	304.44
683.08	303.73
683.42	302.86
683.75	302.15
684.09	301.20
684.43	300.36
684.77	299.45
685.10	298.67
685.44	297.75
685.78	296.96
686.12	296.15
686.45	295.25
686.79	294.39
687.13	293.58
687.46	292.88
687.80	292.24
688.14	291.42
688.48	290.70
688.81	289.82
689.15	289.17
689.49	288.35
689.82	287.60
690.16	286.62
690.50	285.80
690.83	285.00
691.17	284.19
691.51	283.44
691.84	282.79
692.18	282.02
692.52	281.27
692.85	280.67
693.19	280.07
693.52	279.39
693.86	278.66
694.20	277.90
694.53	277.31
694.87	276.47
695.21	275.80
695.54	275.03
695.88	274.32
696.21	273.44
696.55	272.90
696.88	272.30
697.22	271.75
697.56	271.16
697.89	270.51
698.23	269.90
698.56	269.14
698.90	268.53
699.23	267.85
699.57	267.29
699.90	266.56
700.24	265.91
700.58	265.41
700.91	264.92
701.25	264.70
701.58	264.18
701.92	263.81
702.25	263.25
702.59	262.75
702.92	262.35
703.26	261.89
703.59	261.30
703.93	260.98
704.26	260.48
704.60	260.02
704.93	259.49
705.26	259.04
705.60	258.71
705.93	258.10
706.27	257.79
706.60	257.44
706.94	257.18
707.27	256.65
707.61	256.13
707.94	255.63
708.27	254.85
708.61	254.25
708.94	253.70
709.28	253.27
709.61	252.77
709.94	252.30
710.28	251.90
710.61	251.49
710.95	250.72
711.28	250.58
711.61	250.14
711.95	249.88
712.28	249.43
712.61	248.98
712.95	248.82
713.28	248.60
713.61	248.09
713.95	247.57
714.28	247.22
714.61	246.82
714.95	246.48
715.28	246.14
715.61	245.74
715.95	245.46
716.28	245.12
716.61	244.80
716.95	244.46
717.28	244.15
717.61	243.80
717.94	243.54
718.28	242.95
718.61	242.51
718.94	242.06
719.27	241.73
719.61	241.47
719.94	241.12
720.27	240.60
720.60	240.22
720.94	239.87
721.27	239.48
721.60	239.23
721.93	238.91
722.27	238.72
722.60	238.51
722.93	238.09
723.26	237.75
723.59	237.50
723.93	237.26
724.26	237.06
724.59	236.76
724.92	236.52
725.25	236.34
725.59	236.19
725.92	236.03
726.25	235.85
726.58	235.58
726.91	235.27
727.24	235.05
727.57	234.92
727.91	234.67
728.24	234.60
728.57	234.35
728.90	234.20
729.23	233.95
729.56	233.93
729.89	233.77
730.22	233.63
730.55	233.35
730.89	233.06
731.22	232.79
731.55	232.57
731.88	232.32
732.21	232.03
732.54	231.79
732.87	231.57
733.20	231.40
733.53	231.21
733.86	231.09
734.19	230.84
734.52	230.74
734.85	230.74
735.18	230.50
735.51	230.41
735.84	230.23
736.17	230.09
736.50	229.75
736.83	229.91
737.16	229.62
737.49	229.50
737.82	229.28
738.15	229.12
738.48	228.99
738.81	228.85
739.14	228.60
739.47	228.39
739.80	228.19
740.13	227.93
740.46	227.73
740.79	227.38
741.12	227.20
741.45	226.94
741.78	226.65
742.11	226.55
742.44	226.30
742.77	226.11
743.10	225.93
743.43	225.65
743.75	225.17
744.08	225.54
744.41	225.43
744.74	225.35
745.07	225.15
745.40	224.98
745.73	224.98
746.06	224.89
746.39	224.88
746.71	224.69
747.04	224.63
747.37	224.54
747.70	224.55
748.03	224.45
748.36	224.34
748.68	224.20
749.01	223.97
749.34	223.84
749.67	223.71
750.00	223.61
750.33	223.87
750.65	223.75
750.98	223.19
751.31	223.03
751.64	222.85
751.97	222.86
752.29	222.80
752.62	222.57
752.95	222.47
753.28	222.29
753.60	222.15
753.93	222.07
754.26	222.00
754.59	221.76
754.91	221.59
755.24	221.40
755.57	221.26
755.90	221.13
756.22	221.05
756.55	220.86
756.88	220.66
757.20	220.31
757.53	220.14
757.86	220.09
758.19	219.98
758.51	219.90
758.84	219.69
759.17	219.57
759.49	219.42
759.82	219.50
760.15	219.39
760.47	219.32
760.80	219.11
761.13	219.03
761.45	218.96
761.78	218.88
762.11	218.88
762.43	218.84
762.76	218.83
763.08	218.68
763.41	218.64
763.74	218.50
764.06	218.42
764.39	218.38
764.71	218.20
765.04	218.15
765.37	218.09
765.69	218.01
766.02	217.92
766.34	217.80
766.67	217.59
767.00	217.62
767.32	217.75
767.65	217.93
767.97	217.82
768.30	217.81
768.62	217.77
768.95	217.60
769.27	217.53
769.60	217.44
769.92	217.39
770.25	217.29
770.57	217.26
770.90	217.17
771.22	217.17
771.55	217.20
771.87	217.12
772.20	217.00
772.52	217.23
772.85	217.65
773.17	217.70
773.50	217.60
773.82	217.44
774.15	217.20
774.47	216.97
774.80	216.92
775.12	216.83
775.45	216.74
775.77	216.76
776.09	216.71
776.42	216.59
776.74	216.66
777.07	216.62
777.39	216.57
777.72	216.50
778.04	216.43
778.36	216.31
778.69	216.27
779.01	216.31
779.33	215.93
779.66	215.46
779.98	215.39
780.31	215.32
780.63	215.40
780.95	215.45
781.28	215.34
781.60	215.29
781.92	215.26
782.25	215.17
782.57	215.17
782.89	215.05
783.22	215.10
783.54	214.93
783.86	214.92
784.19	214.85
784.51	215.00
784.83	214.86
785.16	214.82
785.48	214.80
785.80	214.70
786.12	214.77
786.45	214.72
786.77	214.67
787.09	214.67
787.42	214.50
787.74	214.46
788.06	214.43
788.38	214.37
788.71	214.29
789.03	214.35
789.35	214.37
789.67	214.34
789.99	214.25
790.32	214.28
790.64	214.26
790.96	214.52
791.28	214.26
791.61	214.23
791.93	214.27
792.25	214.22
792.57	214.48
792.89	214.33
793.21	214.39
793.54	214.36
793.86	214.32
794.18	214.37
794.50	214.30
794.82	214.35
795.14	214.42
795.47	214.54
795.79	214.52
796.11	214.38
796.43	214.32
796.75	214.38
797.07	214.40
797.39	214.40
797.71	214.19
798.04	214.27
798.36	214.33
798.68	214.26
799.00	214.29
799.32	214.13
799.64	214.21
799.96	214.15
800.28	214.18
800.60	214.15
800.92	214.16
801.24	214.18
801.56	214.09
801.89	213.99
802.21	213.94
802.53	213.89
802.85	213.98
803.17	214.18
803.49	214.11
803.81	214.06
804.13	213.98
804.45	213.85
804.77	213.81
805.09	213.75
805.41	213.67
805.73	213.58
806.05	213.55
806.37	213.50
806.69	213.42
807.01	213.36
807.33	213.37
807.65	213.17
807.97	213.29
808.28	213.31
808.60	213.29
808.92	213.19
809.24	213.42
809.56	213.29
809.88	213.08
810.20	213.10
810.52	213.11
810.84	213.08
811.16	213.01
811.48	212.97
811.80	213.08
812.12	213.05
812.43	213.09
812.75	212.97
813.07	212.92
813.39	212.90
813.71	212.81
814.03	212.87
814.35	212.89
814.67	212.66
814.98	212.59
815.30	212.60
815.62	212.59
815.94	212.26
816.26	212.28
816.58	212.24
816.89	212.21
817.21	212.05
817.53	212.02
817.85	212.08
818.17	212.05
818.48	211.94
818.80	211.99
819.12	211.94
819.44	211.91
819.76	211.93
820.07	211.97
820.39	211.94
820.71	211.82
821.03	211.82
821.34	211.80
821.66	211.88
821.98	211.84
822.30	211.80
822.61	212.03
822.93	211.96
823.25	211.95
823.57	211.82
823.88	212.00
824.20	212.02
824.52	212.12
824.83	212.15
825.15	212.11
825.47	212.14
825.79	212.17
826.10	212.13
826.42	212.05
826.74	212.15
827.05	212.22
827.37	212.30
827.69	212.30
828.00	212.30
828.32	212.26
828.64	212.32
828.95	212.62
829.27	212.56
829.58	212.58
829.90	212.70
830.22	212.81
830.53	212.68
830.85	212.58
831.17	212.44
831.48	212.46
831.80	212.49
832.11	212.44
832.43	212.34
832.75	212.38
833.06	212.57
833.38	212.36
833.69	212.30
834.01	212.27
834.32	212.23
834.64	212.18
834.96	212.15
835.27	212.10
835.59	211.89
835.90	211.80
836.22	211.79
836.53	211.66
836.85	211.62
837.16	212.00
837.48	212.07
837.79	212.21
838.11	212.16
838.42	212.14
838.74	212.15
839.05	212.13
839.37	212.07
839.68	211.91
840.00	211.91
840.31	211.90
840.63	211.91
840.94	211.86
841.26	211.82
841.57	211.82
841.88	211.78
842.20	211.68
842.51	211.64
842.83	211.61
843.14	211.94
843.46	211.92
843.77	211.59
844.08	211.56
844.40	211.40
844.71	211.36
845.03	211.34
845.34	211.37
845.65	211.32
845.97	211.30
846.28	211.34
846.60	211.34
846.91	211.34
847.22	211.28
847.54	211.38
847.85	211.44
848.16	211.46
848.48	211.43
848.79	211.59
849.10	211.64
849.42	211.72
849.73	211.36
850.04	211.37
850.36	211.32
850.67	211.35
850.98	211.42
851.30	211.46
851.61	211.47
851.92	211.47
852.23	211.65
852.55	211.69
852.86	211.71
853.17	211.74
853.49	211.79
853.80	211.88
854.11	211.93
854.42	212.02
854.74	211.95
855.05	212.03
855.36	211.91
855.67	211.84
855.99	211.78
856.30	212.24
856.61	212.27
856.92	212.23
857.23	212.26
857.55	212.23
857.86	212.20
858.17	212.27
858.48	212.16
858.79	212.10
859.11	212.15
859.42	212.10
859.73	212.12
860.04	212.11
860.35	212.00
860.66	211.86
860.98	211.81
861.29	211.86
861.60	211.81
861.91	211.89
862.22	211.86
862.53	211.84
862.84	211.43
863.16	211.42
863.47	211.38
863.78	211.37
864.09	211.34
864.40	211.40
864.71	211.37
865.02	211.46
865.33	211.46
865.64	211.42
865.95	211.33
866.27	211.61
866.58	211.56
866.89	211.61
867.20	211.62
867.51	211.57
867.82	211.55
868.13	211.67
868.44	211.50
868.75	211.59
869.06	211.61
869.37	211.60
869.68	211.48
869.99	211.61
870.30	211.63
870.61	211.72
870.92	211.56
871.23	211.53
871.54	211.55
871.85	211.53
872.16	211.48
872.47	211.47
872.78	211.23
873.09	211.23
873.40	211.19
873.71	211.23
874.02	211.24
874.33	211.20
874.64	211.10
874.95	211.20
875.26	211.11
875.56	211.12
875.87	211.15
876.18	211.18
876.49	211.45
876.80	211.41
877.11	211.35
877.42	211.43
877.73	211.41
878.04	211.43
878.35	211.45
878.66	211.53
878.96	211.62
879.27	211.59
879.58	211.54
879.89	211.51
880.20	211.62
880.51	211.69
880.82	211.68
881.12	211.67
881.43	211.58
881.74	211.50
882.05	211.44
882.36	211.41
882.67	211.47
882.97	211.18
883.28	211.16
883.59	211.11
883.90	211.16
884.21	211.23
884.51	211.14
884.82	211.17
885.13	211.16
885.44	211.10
885.74	211.10
886.05	211.16
886.36	211.11
886.67	210.97
886.98	211.10
887.28	211.14
887.59	211.16
887.90	211.18
888.20	211.26
888.51	211.37
888.82	211.35
889.13	211.36
889.43	211.64
889.74	211.64
890.05	211.68
890.35	211.63
890.66	211.61
890.97	211.60
891.28	211.48
891.58	211.46
891.89	211.53
892.20	211.45
892.50	211.43
892.81	211.51
893.12	211.53
893.42	211.34
893.73	211.41
894.04	211.36
894.34	211.41
894.65	211.40
894.95	211.35
895.26	211.40
895.57	211.55
895.87	211.23
896.18	211.28
896.48	211.31
896.79	211.31
897.10	211.36
897.40	211.39
897.71	211.51
898.01	211.48
898.32	211.52
898.63	211.59
898.93	211.62
899.24	211.64
899.54	211.53
899.85	211.56
900.15	211.54
900.46	211.56
900.76	211.53
901.07	211.51
901.38	211.52
901.68	211.56
901.99	211.39
902.29	211.30
902.60	211.28
902.90	211.17
903.21	211.17
903.51	211.14
903.82	211.17
904.12	211.08
904.43	211.15
904.73	211.09
905.03	211.07
905.34	211.42
905.64	211.33
905.95	211.34
906.25	211.33
906.56	211.32
906.86	211.33
907.17	211.32
907.47	211.35
907.77	211.34
908.08	211.25
908.38	211.30
908.69	211.40
908.99	211.42
909.30	211.50
909.60	211.42
909.90	211.41
910.21	211.30
910.51	211.27
910.81	211.21
911.12	211.22
911.42	211.18
911.73	210.86
912.03	210.87
912.33	211.00
912.64	210.97
912.94	210.89
913.24	210.83
913.55	210.87
913.85	210.79
914.15	210.82
914.46	210.90
914.76	210.85
915.06	210.82
915.37	210.73
915.67	210.68
915.97	210.70
916.27	210.64
916.58	210.70
916.88	210.66
917.18	210.63
917.49	210.85
917.79	210.85
918.09	210.83
918.39	210.96
918.70	210.90
919.00	210.90
919.30	211.12
919.60	211.01
919.91	211.00
920.21	211.00
920.51	210.86
920.81	210.87
921.12	210.87
921.42	210.88
921.72	210.90
922.02	210.97
922.32	211.05
922.63	211.06
922.93	211.20
923.23	211.33
923.53	211.30
923.83	211.12
924.13	211.19
924.44	211.27
924.74	211.34
925.04	211.50
925.34	211.52
925.64	211.33
925.94	211.44
926.24	211.65
926.55	211.66
926.85	211.82
927.15	211.80
927.45	211.86
927.75	211.86
928.05	211.92
928.35	211.82
928.65	211.95
928.95	211.98
929.26	211.89
929.56	211.90
929.86	211.99
930.16	211.99
930.46	211.96
930.76	211.91
931.06	211.71
931.36	211.49
931.66	211.57
931.96	211.60
932.26	211.65
932.56	211.38
932.86	211.44
933.16	211.38
933.46	211.37
933.76	211.28
934.06	211.37
934.36	211.51
934.66	211.52
934.96	211.41
935.26	211.44
935.56	211.53
935.86	211.45
936.16	211.40
936.46	211.34
936.76	211.37
937.06	211.27
937.36	211.32
937.66	211.45
937.96	211.43
938.26	211.38
938.56	211.37
938.86	211.48
939.16	211.56
939.46	211.58
939.76	211.55
940.06	211.59
940.35	211.48
940.65	211.24
940.95	211.39
941.25	211.32
941.55	211.26
941.85	211.18
942.15	211.27
942.45	211.33
942.75	211.35
943.04	211.35
943.34	211.48
943.64	211.44
943.94	211.31
944.24	211.24
944.54	211.28
944.84	211.15
945.13	211.07
945.43	210.99
945.73	210.96
946.03	210.95
946.33	210.90
946.62	210.91
946.92	210.94
947.22	210.90
947.52	210.90
947.82	210.98
948.11	210.93
948.41	210.85
948.71	210.75
949.01	210.76
949.31	210.76
949.60	210.69
949.90	210.75
950.20	210.74
950.50	210.83
950.79	210.73
951.09	210.87
951.39	210.90
951.69	210.89
951.98	210.94
952.28	210.92
952.58	210.96
952.87	210.95
953.17	211.02
953.47	210.94
953.76	210.90
954.06	210.79
954.36	210.69
954.66	210.65
954.95	210.78
955.25	210.74
955.55	210.75
955.84	210.68
956.14	210.71
956.44	210.78
956.73	210.71
957.03	210.75
957.32	210.70
957.62	210.64
957.92	210.72
958.21	210.60
958.51	211.01
958.81	211.00
959.10	211.03
959.40	211.08
959.69	211.11
959.99	211.16
960.29	211.23
960.58	211.25
960.88	211.37
961.17	211.34
961.47	211.40
961.76	211.32
962.06	211.40
962.36	211.33
962.65	211.31
962.95	211.28
963.24	211.28
963.54	211.30
963.83	211.39
964.13	211.31
964.42	211.41
964.72	211.08
965.01	211.05
965.31	211.04
965.60	210.95
965.90	211.14
966.19	211.16
966.49	211.15
966.78	211.18
967.08	211.20
967.37	211.20
967.67	211.19
967.96	211.27
968.26	211.32
968.55	211.40
968.85	211.40
969.14	211.44
969.43	211.40
969.73	211.44
970.02	211.38
970.32	211.35
970.61	211.30
970.91	211.23
971.20	211.21
971.49	211.18
971.79	211.24
972.08	211.00
972.38	210.96
972.67	210.97
972.96	211.01
973.26	210.93
973.55	210.99
973.85	210.88
974.14	210.87
974.43	210.85
974.73	210.82
975.02	210.82
975.31	210.84
975.61	210.88
975.90	210.82
976.19	210.76
976.49	210.84
976.78	210.89
977.07	210.89
977.37	210.95
977.66	210.97
977.95	210.88
978.24	210.87
978.54	210.96
978.83	210.95
979.12	210.94
979.42	210.93
979.71	210.85
980.00	210.88
980.29	210.91
980.59	210.85
980.88	210.89
981.17	210.85
981.46	210.82
981.76	210.81
982.05	210.87
982.34	210.96
982.63	210.94
982.93	210.86
983.22	210.99
983.51	211.00
983.80	211.09
984.09	211.12
984.39	211.11
984.68	211.02
984.97	210.94
985.26	210.92
985.55	210.95
985.85	210.88
986.14	210.97
986.43	210.97
986.72	210.89
987.01	210.76
987.30	210.79
987.59	210.78
987.89	210.79
988.18	210.73
988.47	210.68
988.76	210.65
989.05	210.65
989.34	210.55
989.63	210.67
989.92	210.59
990.22	210.60
990.51	210.59
990.80	210.58
991.09	210.67
991.38	210.70
991.67	210.63
991.96	210.64
992.25	210.64
992.54	210.59
992.83	210.57
993.12	210.55
993.41	210.64
993.70	210.75
993.99	210.77
994.28	210.83
994.58	210.85
994.87	210.78
995.16	210.77
995.45	210.79
995.74	210.60
996.03	210.62
996.32	210.61
996.61	210.73
996.90	210.71
997.19	210.66
997.48	210.66
997.77	210.67
998.06	210.69
998.34	210.62
998.63	210.70
998.92	210.82
999.21	210.92
999.50	210.89
999.79	210.79
1000.08	210.76
1000.37	210.70
1000.66	210.67
1000.95	210.82
1001.24	210.86
1001.53	210.93
1001.82	210.96
1002.11	210.90
1002.40	210.96
1002.68	211.10
1002.97	211.41
1003.26	211.42
1003.55	211.37
1003.84	211.36
1004.13	211.52
1004.42	211.61
1004.71	211.59
1004.99	211.54
1005.28	211.65
1005.57	211.66
1005.86	211.67
1006.15	211.64
1006.44	211.65
1006.72	211.72
1007.01	211.65
1007.30	211.66
1007.59	211.56
1007.88	211.63
1008.17	211.68
1008.45	211.64
1008.74	211.45
1009.03	211.25
1009.32	211.28
1009.60	211.30
1009.89	211.33
1010.18	211.15
1010.47	211.03
1010.76	211.02
1011.04	211.02
1011.33	211.03
1011.62	211.05
1011.91	211.03
1012.19	211.10
1012.48	211.09
1012.77	211.10
1013.05	211.25
1013.34	211.27
1013.63	211.30
1013.92	211.25
1014.20	211.20
1014.49	211.18
1014.78	211.20
1015.06	211.05
1015.35	211.05
1015.64	211.10
1015.92	211.15
1016.21	211.25
1016.50	211.29
1016.78	211.28
1017.07	211.30
1017.36	211.17
1017.64	211.02
1017.93	211.05
1018.22	211.03
1018.50	211.05
1018.79	211.08
1019.08	210.90
1019.36	210.89
1019.65	210.87
1019.93	210.95
1020.22	211.03
1020.51	211.20
1020.79	211.13
1021.08	210.70
1021.36	211.00
1021.65	212.00
1021.94	210.20
1022.22	211.40
1022.51	210.70
1022.79	212.80
1023.08	211.40
1023.36	214.65
1023.65	209.40
>>>>>End Processed Spectral Data<<<<<
