SpectraSuite Data File
++++++++++++++++++++++++++++++++++++
Date: Mon Feb 25 17:13:55 EST 2013
User: group
Dark Spectrum Present: No
Reference Spectrum Present: No
Number of Sampled Component Spectra: 1
Spectrometers: USB2E7196
Integration Time (usec): 104000 (USB2E7196)
Spectra Averaged: 20 (USB2E7196)
Boxcar Smoothing: 10 (USB2E7196)
Correct for Electrical Dark: No (USB2E7196)
Strobe/Lamp Enabled: No (USB2E7196)
Correct for Detector Non-linearity: No (USB2E7196)
Correct for Stray Light: No (USB2E7196)
Number of Pixels in Processed Spectrum: 2048
>>>>>Begin Processed Spectral Data<<<<<
339.09	0.00
339.48	197.45
339.86	199.00
340.24	201.90
340.63	203.45
341.01	208.40
341.39	205.35
341.78	208.40
342.16	208.85
342.54	207.90
342.93	198.19
343.31	208.16
343.69	208.81
344.07	209.35
344.46	209.79
344.84	210.13
345.22	210.19
345.60	210.52
345.99	210.68
346.37	210.77
346.75	210.87
347.13	210.97
347.52	211.02
347.90	211.08
348.28	211.03
348.66	211.12
349.05	210.98
349.43	211.05
349.81	211.00
350.19	210.95
350.57	211.00
350.96	211.07
351.34	211.18
351.72	211.21
352.10	211.25
352.48	211.26
352.87	211.26
353.25	211.37
353.63	211.25
354.01	211.25
354.39	211.34
354.77	211.45
355.15	211.69
355.54	211.76
355.92	211.77
356.30	211.83
356.68	212.09
357.06	212.16
357.44	212.21
357.82	212.30
358.20	212.45
358.58	212.49
358.97	212.59
359.35	212.62
359.73	212.72
360.11	212.79
360.49	212.86
360.87	212.96
361.25	213.02
361.63	213.21
362.01	213.27
362.39	213.28
362.77	213.35
363.15	213.21
363.53	213.20
363.91	213.23
364.29	213.26
364.67	213.02
365.05	213.06
365.43	213.13
365.81	213.19
366.19	213.29
366.57	213.42
366.95	213.43
367.33	213.35
367.71	213.39
368.09	213.51
368.47	213.52
368.85	213.47
369.23	213.50
369.61	213.38
369.99	213.52
370.37	213.48
370.75	213.61
371.13	213.54
371.51	213.45
371.89	213.45
372.27	213.42
372.65	213.39
373.03	213.31
373.41	213.24
373.78	213.12
374.16	212.94
374.54	212.79
374.92	212.76
375.30	212.75
375.68	212.60
376.06	212.56
376.44	212.45
376.82	212.38
377.19	212.36
377.57	212.35
377.95	212.16
378.33	212.20
378.71	211.91
379.09	211.97
379.47	212.04
379.84	211.97
380.22	211.95
380.60	211.84
380.98	211.81
381.36	211.74
381.73	211.66
382.11	211.70
382.49	211.71
382.87	211.60
383.25	211.63
383.62	212.04
384.00	211.86
384.38	211.94
384.76	212.04
385.13	212.10
385.51	212.04
385.89	211.98
386.27	211.92
386.64	212.00
387.02	211.97
387.40	211.87
387.78	211.86
388.15	211.85
388.53	211.82
388.91	211.80
389.29	211.79
389.66	211.86
390.04	211.78
390.42	211.79
390.79	211.83
391.17	211.81
391.55	211.36
391.92	211.39
392.30	211.37
392.68	211.27
393.05	211.30
393.43	211.34
393.81	211.36
394.18	211.32
394.56	211.28
394.94	211.30
395.31	211.29
395.69	211.43
396.06	211.47
396.44	211.56
396.82	211.60
397.19	211.71
397.57	211.68
397.95	211.72
398.32	211.68
398.70	211.72
399.07	211.84
399.45	211.85
399.82	211.87
400.20	211.78
400.58	211.85
400.95	211.65
401.33	211.77
401.70	212.02
402.08	212.10
402.45	212.12
402.83	212.27
403.20	212.33
403.58	212.32
403.95	212.42
404.33	212.46
404.71	212.59
405.08	212.84
405.46	212.92
405.83	212.97
406.21	213.01
406.58	213.01
406.96	212.99
407.33	213.13
407.70	213.33
408.08	213.76
408.45	213.95
408.83	214.27
409.20	214.32
409.58	214.27
409.95	214.58
410.33	214.85
410.70	214.94
411.08	215.19
411.45	215.49
411.82	215.66
412.20	216.05
412.57	216.45
412.95	216.62
413.32	217.06
413.69	217.49
414.07	217.95
414.44	218.47
414.82	219.14
415.19	219.74
415.56	220.22
415.94	220.70
416.31	221.44
416.68	222.04
417.06	222.91
417.43	223.76
417.81	224.60
418.18	225.49
418.55	226.41
418.93	227.45
419.30	228.45
419.67	229.63
420.04	230.70
420.42	231.87
420.79	233.47
421.16	234.80
421.54	236.39
421.91	237.86
422.28	239.43
422.66	240.99
423.03	242.78
423.40	244.50
423.77	246.22
424.15	247.95
424.52	249.91
424.89	252.01
425.26	253.86
425.64	255.59
426.01	257.60
426.38	259.72
426.75	261.95
427.13	264.10
427.50	266.46
427.87	268.82
428.24	271.21
428.61	273.23
428.99	275.93
429.36	278.56
429.73	281.32
430.10	284.04
430.47	286.78
430.85	289.48
431.22	292.46
431.59	295.90
431.96	299.00
432.33	302.31
432.70	305.44
433.08	309.35
433.45	313.16
433.82	316.71
434.19	320.80
434.56	324.71
434.93	328.55
435.30	332.25
435.68	336.45
436.05	340.56
436.42	344.66
436.79	348.29
437.16	352.27
437.53	356.46
437.90	360.51
438.27	364.61
438.64	368.86
439.01	372.78
439.38	375.95
439.75	379.33
440.13	383.20
440.50	386.86
440.87	389.80
441.24	392.64
441.61	396.06
441.98	398.47
442.35	401.20
442.72	404.06
443.09	406.99
443.46	408.59
443.83	409.74
444.20	410.70
444.57	412.04
444.94	412.71
445.31	413.42
445.68	414.48
446.05	414.68
446.42	414.16
446.79	413.68
447.16	413.11
447.53	412.75
447.90	411.08
448.27	409.48
448.64	407.28
449.01	405.71
449.37	402.86
449.74	400.20
450.11	397.33
450.48	393.81
450.85	390.08
451.22	387.07
451.59	384.11
451.96	381.21
452.33	377.46
452.70	374.03
453.07	369.90
453.43	365.40
453.80	361.60
454.17	357.83
454.54	354.13
454.91	350.36
455.28	346.48
455.65	342.98
456.02	339.95
456.38	336.96
456.75	333.32
457.12	330.25
457.49	327.32
457.86	324.11
458.23	321.75
458.59	319.01
458.96	316.29
459.33	313.80
459.70	311.39
460.07	309.44
460.43	307.25
460.80	305.19
461.17	303.49
461.54	301.46
461.91	299.67
462.27	298.00
462.64	296.39
463.01	294.75
463.38	293.26
463.74	291.11
464.11	289.61
464.48	288.39
464.85	287.01
465.21	285.90
465.58	284.80
465.95	283.40
466.32	282.30
466.68	281.09
467.05	279.95
467.42	278.90
467.78	277.79
468.15	276.71
468.52	275.96
468.88	274.81
469.25	273.88
469.62	273.21
469.98	272.41
470.35	271.72
470.72	271.03
471.08	270.18
471.45	269.58
471.82	269.11
472.18	268.40
472.55	267.95
472.92	267.34
473.28	266.76
473.65	266.20
474.02	265.69
474.38	265.46
474.75	265.22
475.11	264.94
475.48	264.78
475.85	264.51
476.21	264.27
476.58	264.18
476.94	264.15
477.31	264.01
477.67	263.87
478.04	263.86
478.41	263.90
478.77	264.25
479.14	264.23
479.50	264.23
479.87	264.46
480.23	264.71
480.60	264.81
480.96	265.12
481.33	265.61
481.69	265.99
482.06	266.26
482.42	266.66
482.79	267.02
483.15	267.43
483.52	268.14
483.88	268.75
484.25	269.27
484.61	269.90
484.98	270.49
485.34	271.31
485.71	272.00
486.07	272.91
486.44	273.54
486.80	274.54
487.17	275.64
487.53	276.86
487.90	278.12
488.26	279.66
488.62	281.14
488.99	282.45
489.35	283.94
489.72	285.51
490.08	287.18
490.44	288.91
490.81	290.83
491.17	292.69
491.54	294.75
491.90	297.03
492.26	299.33
492.63	301.64
492.99	304.04
493.36	306.79
493.72	309.54
494.08	312.36
494.45	315.40
494.81	318.51
495.17	321.64
495.54	325.01
495.90	328.41
496.26	332.09
496.63	335.99
496.99	339.93
497.35	344.15
497.72	348.50
498.08	352.98
498.44	357.66
498.80	362.58
499.17	367.68
499.53	372.76
499.89	378.14
500.26	383.81
500.62	389.63
500.98	395.66
501.34	401.70
501.71	408.27
502.07	414.77
502.43	421.45
502.79	428.29
503.16	435.52
503.52	442.92
503.88	450.32
504.24	458.06
504.60	466.07
504.97	474.30
505.33	482.51
505.69	491.55
506.05	500.37
506.41	509.31
506.78	518.36
507.14	527.85
507.50	537.62
507.86	547.48
508.22	557.63
508.59	567.85
508.95	578.37
509.31	588.94
509.67	600.00
510.03	611.27
510.39	622.84
510.75	634.44
511.12	646.17
511.48	658.25
511.84	670.41
512.20	682.49
512.56	695.09
512.92	707.93
513.28	720.54
513.64	733.65
514.00	746.71
514.37	760.03
514.73	773.71
515.09	787.24
515.45	800.84
515.81	814.50
516.17	828.49
516.53	842.60
516.89	856.56
517.25	870.73
517.61	885.07
517.97	899.32
518.33	913.50
518.69	927.90
519.05	942.62
519.41	957.42
519.77	972.57
520.13	987.25
520.49	1001.70
520.85	1016.42
521.21	1031.35
521.57	1046.56
521.93	1061.17
522.29	1076.06
522.65	1091.14
523.01	1106.19
523.37	1121.06
523.73	1135.75
524.09	1150.60
524.45	1165.61
524.81	1180.63
525.17	1195.59
525.53	1210.54
525.89	1225.62
526.25	1240.52
526.61	1254.41
526.97	1268.61
527.33	1282.91
527.68	1297.62
528.04	1312.04
528.40	1325.82
528.76	1339.52
529.12	1353.37
529.48	1367.77
529.84	1381.87
530.20	1395.62
530.56	1409.43
530.91	1423.75
531.27	1437.92
531.63	1451.27
531.99	1464.74
532.35	1477.52
532.71	1490.18
533.07	1503.28
533.42	1515.54
533.78	1528.28
534.14	1540.94
534.50	1552.55
534.86	1564.44
535.21	1575.65
535.57	1587.41
535.93	1598.77
536.29	1610.15
536.65	1621.25
537.00	1631.65
537.36	1641.76
537.72	1651.62
538.08	1661.66
538.44	1671.40
538.79	1680.82
539.15	1690.61
539.51	1699.99
539.87	1709.73
540.22	1719.04
540.58	1728.42
540.94	1737.43
541.29	1745.64
541.65	1753.63
542.01	1762.16
542.37	1770.14
542.72	1777.87
543.08	1785.13
543.44	1793.31
543.79	1800.02
544.15	1806.41
544.51	1813.53
544.87	1820.53
545.22	1827.00
545.58	1832.52
545.94	1837.44
546.29	1842.25
546.65	1846.51
547.01	1851.12
547.36	1855.56
547.72	1859.70
548.07	1862.69
548.43	1865.96
548.79	1868.78
549.14	1871.91
549.50	1875.10
549.86	1877.65
550.21	1880.04
550.57	1882.87
550.92	1884.22
551.28	1885.82
551.64	1887.91
551.99	1889.56
552.35	1890.43
552.70	1891.65
553.06	1893.24
553.41	1894.59
553.77	1895.64
554.13	1896.99
554.48	1897.80
554.84	1898.49
555.19	1898.79
555.55	1899.02
555.90	1898.77
556.26	1898.73
556.61	1898.58
556.97	1897.41
557.32	1896.98
557.68	1896.00
558.03	1894.87
558.39	1893.87
558.74	1893.79
559.10	1892.80
559.45	1891.53
559.81	1890.85
560.16	1889.26
560.52	1887.85
560.87	1886.34
561.23	1884.33
561.58	1883.18
561.94	1880.75
562.29	1878.10
562.64	1876.19
563.00	1874.54
563.35	1873.23
563.71	1872.07
564.06	1870.37
564.42	1869.30
564.77	1867.55
565.12	1866.23
565.48	1864.42
565.83	1862.91
566.19	1861.09
566.54	1858.31
566.89	1855.65
567.25	1852.97
567.60	1850.72
567.96	1848.02
568.31	1845.44
568.66	1842.66
569.02	1838.84
569.37	1835.66
569.72	1832.85
570.08	1829.36
570.43	1825.42
570.78	1821.67
571.14	1817.30
571.49	1813.06
571.84	1809.20
572.20	1804.70
572.55	1800.37
572.90	1795.54
573.26	1790.42
573.61	1785.37
573.96	1780.75
574.31	1775.24
574.67	1769.70
575.02	1764.07
575.37	1758.81
575.72	1753.00
576.08	1748.31
576.43	1742.82
576.78	1737.42
577.13	1732.31
577.49	1727.07
577.84	1721.89
578.19	1716.71
578.54	1712.00
578.90	1707.31
579.25	1701.49
579.60	1695.63
579.95	1689.78
580.30	1684.73
580.66	1679.88
581.01	1674.13
581.36	1668.70
581.71	1663.44
582.06	1658.34
582.42	1653.26
582.77	1647.50
583.12	1641.93
583.47	1636.44
583.82	1631.75
584.17	1626.78
584.53	1621.46
584.88	1616.37
585.23	1610.88
585.58	1605.43
585.93	1599.77
586.28	1594.70
586.63	1589.20
586.98	1584.46
587.34	1579.76
587.69	1574.39
588.04	1568.90
588.39	1563.86
588.74	1558.34
589.09	1553.70
589.44	1548.25
589.79	1543.01
590.14	1538.03
590.49	1532.83
590.84	1527.63
591.19	1522.52
591.54	1517.25
591.89	1511.05
592.25	1505.65
592.60	1500.09
592.95	1494.43
593.30	1488.15
593.65	1481.73
594.00	1475.99
594.35	1471.57
594.70	1465.89
595.05	1460.45
595.40	1455.00
595.75	1448.79
596.10	1443.83
596.45	1438.56
596.80	1433.28
597.15	1428.37
597.50	1422.88
597.85	1418.08
598.19	1412.61
598.54	1406.88
598.89	1401.95
599.24	1397.91
599.59	1392.75
599.94	1388.57
600.29	1383.66
600.64	1379.19
600.99	1374.28
601.34	1369.98
601.69	1363.87
602.04	1358.72
602.39	1353.68
602.74	1348.95
603.08	1345.07
603.43	1340.74
603.78	1335.71
604.13	1331.13
604.48	1326.20
604.83	1322.22
605.18	1318.19
605.53	1313.49
605.87	1308.82
606.22	1304.14
606.57	1298.97
606.92	1294.28
607.27	1289.10
607.62	1284.23
607.96	1279.78
608.31	1275.58
608.66	1270.52
609.01	1265.70
609.36	1260.57
609.70	1255.26
610.05	1249.73
610.40	1244.47
610.75	1238.83
611.10	1234.08
611.44	1228.11
611.79	1222.30
612.14	1216.14
612.49	1209.63
612.83	1204.00
613.18	1198.14
613.53	1192.13
613.88	1185.88
614.22	1180.04
614.57	1174.20
614.92	1168.37
615.27	1162.16
615.61	1156.08
615.96	1150.41
616.31	1144.94
616.65	1139.97
617.00	1134.75
617.35	1129.20
617.70	1123.24
618.04	1117.06
618.39	1110.52
618.74	1105.24
619.08	1099.56
619.43	1093.93
619.78	1088.34
620.12	1082.65
620.47	1077.48
620.82	1071.80
621.16	1066.13
621.51	1060.28
621.85	1054.70
622.20	1049.01
622.55	1043.49
622.89	1037.80
623.24	1032.11
623.59	1026.18
623.93	1020.12
624.28	1014.37
624.62	1009.11
624.97	1003.73
625.32	998.63
625.66	993.66
626.01	988.44
626.35	983.38
626.70	978.15
627.04	973.26
627.39	968.20
627.73	963.03
628.08	958.26
628.43	953.21
628.77	948.03
629.12	942.51
629.46	937.93
629.81	933.02
630.15	928.12
630.50	922.97
630.84	917.82
631.19	912.88
631.53	908.07
631.88	902.69
632.22	897.39
632.57	892.59
632.91	887.75
633.26	882.62
633.60	877.43
633.95	872.90
634.29	868.00
634.64	863.33
634.98	858.31
635.32	853.48
635.67	849.09
636.01	844.57
636.36	840.03
636.70	835.29
637.05	830.81
637.39	826.13
637.73	821.92
638.08	818.14
638.42	814.22
638.77	809.85
639.11	805.67
639.45	801.50
639.80	796.79
640.14	792.11
640.49	787.74
640.83	783.54
641.17	779.15
641.52	774.66
641.86	770.03
642.20	765.65
642.55	760.94
642.89	756.34
643.23	752.03
643.58	748.07
643.92	743.32
644.26	738.91
644.61	734.69
644.95	730.03
645.29	725.19
645.64	720.31
645.98	716.07
646.32	711.93
646.66	707.58
647.01	703.46
647.35	699.35
647.69	695.01
648.04	690.87
648.38	686.33
648.72	682.19
649.06	678.10
649.41	673.84
649.75	669.68
650.09	665.73
650.43	661.40
650.78	656.92
651.12	652.80
651.46	648.68
651.80	644.64
652.14	640.95
652.49	637.03
652.83	633.09
653.17	628.71
653.51	624.45
653.85	620.58
654.20	616.70
654.54	612.52
654.88	608.46
655.22	604.56
655.56	600.55
655.90	596.59
656.25	592.57
656.59	588.83
656.93	585.13
657.27	581.45
657.61	577.56
657.95	573.96
658.29	570.38
658.64	566.88
658.98	563.15
659.32	559.18
659.66	555.54
660.00	551.75
660.34	548.18
660.68	544.68
661.02	541.06
661.36	537.57
661.70	534.26
662.05	531.21
662.39	528.02
662.73	524.99
663.07	522.00
663.41	518.93
663.75	515.75
664.09	512.47
664.43	509.01
664.77	506.10
665.11	502.96
665.45	500.05
665.79	497.08
666.13	494.12
666.47	491.27
666.81	488.40
667.15	485.64
667.49	482.94
667.83	480.29
668.17	477.61
668.51	474.98
668.85	472.41
669.19	469.75
669.53	466.93
669.87	464.17
670.21	461.40
670.55	458.78
670.89	456.50
671.23	454.21
671.57	452.02
671.91	449.59
672.25	447.18
672.58	444.83
672.92	442.38
673.26	440.09
673.60	437.93
673.94	435.63
674.28	433.45
674.62	431.26
674.96	429.10
675.30	426.97
675.64	424.77
675.97	422.47
676.31	420.35
676.65	418.32
676.99	416.60
677.33	414.38
677.67	412.33
678.01	410.04
678.34	407.99
678.68	405.86
679.02	403.69
679.36	401.74
679.70	399.69
680.04	397.59
680.37	395.60
680.71	393.54
681.05	391.72
681.39	389.81
681.73	388.03
682.06	386.25
682.40	384.32
682.74	382.60
683.08	381.05
683.42	379.18
683.75	377.30
684.09	375.33
684.43	373.65
684.77	371.90
685.10	370.08
685.44	368.22
685.78	366.49
686.12	364.95
686.45	363.31
686.79	361.67
687.13	360.17
687.46	358.55
687.80	357.05
688.14	355.30
688.48	353.76
688.81	352.06
689.15	350.35
689.49	348.81
689.82	347.14
690.16	345.33
690.50	343.77
690.83	342.23
691.17	340.64
691.51	339.20
691.84	337.77
692.18	336.34
692.52	335.01
692.85	333.60
693.19	332.25
693.52	330.83
693.86	329.42
694.20	328.03
694.53	326.65
694.87	325.27
695.21	323.90
695.54	322.48
695.88	321.08
696.21	319.65
696.55	318.44
696.88	317.09
697.22	315.88
697.56	314.66
697.89	313.50
698.23	312.29
698.56	310.99
698.90	309.84
699.23	308.62
699.57	307.46
699.90	306.31
700.24	305.05
700.58	303.95
700.91	302.90
701.25	301.99
701.58	301.05
701.92	300.03
702.25	299.00
702.59	298.02
702.92	297.09
703.26	296.13
703.59	295.05
703.93	294.40
704.26	293.40
704.60	292.47
704.93	291.52
705.26	290.62
705.60	289.74
705.93	288.81
706.27	288.08
706.60	287.29
706.94	286.54
707.27	285.66
707.61	284.72
707.94	283.78
708.27	282.61
708.61	281.67
708.94	280.80
709.28	279.97
709.61	279.12
709.94	278.36
710.28	277.65
710.61	276.95
710.95	275.90
711.28	275.45
711.61	274.59
711.95	273.90
712.28	273.15
712.61	272.49
712.95	271.88
713.28	271.31
713.61	270.52
713.95	269.82
714.28	269.19
714.61	268.56
714.95	267.91
715.28	267.29
715.61	266.62
715.95	266.02
716.28	265.41
716.61	264.83
716.95	264.04
717.28	263.35
717.61	262.71
717.94	262.13
718.28	261.33
718.61	260.81
718.94	260.19
719.27	259.61
719.61	259.05
719.94	258.42
720.27	257.66
720.60	257.11
720.94	256.53
721.27	256.08
721.60	255.59
721.93	255.17
722.27	254.82
722.60	254.38
722.93	253.89
723.26	253.41
723.59	252.89
723.93	252.53
724.26	252.20
724.59	251.77
724.92	251.38
725.25	250.96
725.59	250.61
725.92	250.22
726.25	249.67
726.58	249.27
726.91	248.87
727.24	248.50
727.57	248.05
727.91	247.57
728.24	247.19
728.57	246.80
728.90	246.45
729.23	245.95
729.56	245.76
729.89	245.35
730.22	245.04
730.55	244.70
730.89	244.32
731.22	243.89
731.55	243.57
731.88	243.24
732.21	242.92
732.54	242.46
732.87	242.20
733.20	241.97
733.53	241.66
733.86	241.31
734.19	240.93
734.52	240.83
734.85	240.83
735.18	240.48
735.51	240.27
735.84	239.95
736.17	239.70
736.50	239.24
736.83	239.33
737.16	239.00
737.49	238.71
737.82	238.48
738.15	238.14
738.48	237.77
738.81	237.41
739.14	237.04
739.47	236.78
739.80	236.44
740.13	236.16
740.46	235.86
740.79	235.59
741.12	235.30
741.45	234.84
741.78	234.30
742.11	234.11
742.44	233.79
742.77	233.61
743.10	233.40
743.43	233.07
743.75	232.47
744.08	232.69
744.41	232.35
744.74	232.02
745.07	231.85
745.40	231.70
745.73	231.63
746.06	231.45
746.39	231.29
746.71	230.99
747.04	230.80
747.37	230.48
747.70	230.33
748.03	230.13
748.36	229.98
748.68	229.85
749.01	229.56
749.34	229.30
749.67	229.05
750.00	228.83
750.33	228.89
750.65	228.82
750.98	228.17
751.31	228.05
751.64	228.01
751.97	228.00
752.29	227.89
752.62	227.57
752.95	227.31
753.28	227.07
753.60	227.03
753.93	226.95
754.26	226.94
754.59	226.70
754.91	226.53
755.24	226.41
755.57	226.23
755.90	226.02
756.22	225.88
756.55	225.68
756.88	225.47
757.20	225.05
757.53	224.72
757.86	224.55
758.19	224.44
758.51	224.23
758.84	223.92
759.17	223.64
759.49	223.46
759.82	223.54
760.15	223.43
760.47	223.22
760.80	222.99
761.13	222.89
761.45	222.72
761.78	222.60
762.11	222.46
762.43	222.26
762.76	222.15
763.08	222.05
763.41	221.98
763.74	221.88
764.06	221.79
764.39	221.70
764.71	221.62
765.04	221.49
765.37	221.40
765.69	221.27
766.02	221.20
766.34	221.13
766.67	220.83
767.00	220.80
767.32	220.83
767.65	220.82
767.97	220.68
768.30	220.58
768.62	220.49
768.95	220.38
769.27	220.25
769.60	220.28
769.92	220.12
770.25	219.94
770.57	219.75
770.90	219.67
771.22	219.55
771.55	219.50
771.87	219.40
772.20	219.20
772.52	219.36
772.85	219.75
773.17	219.63
773.50	219.55
773.82	219.32
774.15	219.16
774.47	218.88
774.80	218.72
775.12	218.68
775.45	218.60
775.77	218.56
776.09	218.60
776.42	218.51
776.74	218.61
777.07	218.53
777.39	218.54
777.72	218.42
778.04	218.42
778.36	218.31
778.69	218.26
779.01	218.24
779.33	217.91
779.66	217.43
779.98	217.37
780.31	217.30
780.63	217.47
780.95	217.46
781.28	217.50
781.60	217.44
781.92	217.37
782.25	217.31
782.57	217.18
782.89	217.11
783.22	217.00
783.54	216.88
783.86	216.79
784.19	216.76
784.51	216.82
784.83	216.69
785.16	216.63
785.48	216.57
785.80	216.57
786.12	216.59
786.45	216.54
786.77	216.56
787.09	216.50
787.42	216.38
787.74	216.31
788.06	216.27
788.38	216.25
788.71	216.18
789.03	216.21
789.35	216.19
789.67	216.09
789.99	216.09
790.32	216.00
790.64	216.04
790.96	216.25
791.28	216.20
791.61	216.14
791.93	216.09
792.25	216.04
792.57	216.21
792.89	216.06
793.21	216.03
793.54	215.99
793.86	215.92
794.18	215.83
794.50	215.77
794.82	215.73
795.14	215.70
795.47	215.73
795.79	215.63
796.11	215.56
796.43	215.48
796.75	215.44
797.07	215.37
797.39	215.35
797.71	215.03
798.04	214.97
798.36	214.98
798.68	215.00
799.00	215.00
799.32	214.80
799.64	214.82
799.96	214.80
800.28	214.79
800.60	214.76
800.92	214.82
801.24	214.73
801.56	214.68
801.89	214.61
802.21	214.55
802.53	214.51
802.85	214.57
803.17	214.68
803.49	214.56
803.81	214.53
804.13	214.49
804.45	214.44
804.77	214.41
805.09	214.38
805.41	214.31
805.73	214.20
806.05	214.15
806.37	214.09
806.69	214.08
807.01	214.00
807.33	214.03
807.65	213.81
807.97	213.90
808.28	213.87
808.60	213.86
808.92	213.80
809.24	213.98
809.56	213.85
809.88	213.70
810.20	213.73
810.52	213.76
810.84	213.65
811.16	213.66
811.48	213.63
811.80	213.73
812.12	213.67
812.43	213.74
812.75	213.70
813.07	213.68
813.39	213.69
813.71	213.67
814.03	213.65
814.35	213.65
814.67	213.50
814.98	213.43
815.30	213.38
815.62	213.36
815.94	213.06
816.26	213.12
816.58	213.10
816.89	213.11
817.21	212.96
817.53	213.06
817.85	213.00
818.17	212.96
818.48	212.82
818.80	212.90
819.12	212.82
819.44	212.74
819.76	212.70
820.07	212.68
820.39	212.61
820.71	212.57
821.03	212.57
821.34	212.57
821.66	212.67
821.98	212.67
822.30	212.59
822.61	212.87
822.93	212.83
823.25	212.78
823.57	212.65
823.88	212.75
824.20	212.65
824.52	212.73
824.83	212.66
825.15	212.57
825.47	212.48
825.79	212.53
826.10	212.49
826.42	212.45
826.74	212.38
827.05	212.39
827.37	212.43
827.69	212.34
828.00	212.34
828.32	212.27
828.64	212.28
828.95	212.42
829.27	212.31
829.58	212.27
829.90	212.34
830.22	212.48
830.53	212.43
830.85	212.45
831.17	212.33
831.48	212.35
831.80	212.40
832.11	212.43
832.43	212.30
832.75	212.30
833.06	212.53
833.38	212.40
833.69	212.32
834.01	212.34
834.32	212.32
834.64	212.28
834.96	212.30
835.27	212.26
835.59	212.25
835.90	212.11
836.22	212.07
836.53	212.03
836.85	212.01
837.16	212.31
837.48	212.29
837.79	212.41
838.11	212.38
838.42	212.37
838.74	212.43
839.05	212.45
839.37	212.45
839.68	212.22
840.00	212.27
840.31	212.35
840.63	212.31
840.94	212.37
841.26	212.30
841.57	212.24
841.88	212.33
842.20	212.20
842.51	212.20
842.83	212.30
843.14	212.59
843.46	212.53
843.77	212.39
844.08	212.36
844.40	212.27
844.71	212.30
845.03	212.32
845.34	212.25
845.65	212.27
845.97	212.29
846.28	212.28
846.60	212.33
846.91	212.33
847.22	212.30
847.54	212.31
847.85	212.33
848.16	212.35
848.48	212.27
848.79	212.50
849.10	212.53
849.42	212.42
849.73	212.07
850.04	212.08
850.36	211.94
850.67	212.03
850.98	212.00
851.30	212.09
851.61	212.02
851.92	211.96
852.23	212.12
852.55	212.09
852.86	212.10
853.17	212.10
853.49	212.15
853.80	212.20
854.11	212.26
854.42	212.34
854.74	212.29
855.05	212.29
855.36	212.06
855.67	212.06
855.99	212.15
856.30	212.53
856.61	212.51
856.92	212.51
857.23	212.46
857.55	212.36
857.86	212.25
858.17	212.30
858.48	212.28
858.79	212.12
859.11	212.20
859.42	212.20
859.73	212.12
860.04	212.11
860.35	212.01
860.66	211.89
860.98	211.87
861.29	211.91
861.60	211.80
861.91	211.82
862.22	211.77
862.53	211.72
862.84	211.33
863.16	211.39
863.47	211.35
863.78	211.31
864.09	211.42
864.40	211.42
864.71	211.41
865.02	211.45
865.33	211.38
865.64	211.31
865.95	211.30
866.27	211.48
866.58	211.40
866.89	211.47
867.20	211.50
867.51	211.47
867.82	211.42
868.13	211.63
868.44	211.60
868.75	211.66
869.06	211.63
869.37	211.66
869.68	211.51
869.99	211.50
870.30	211.49
870.61	211.56
870.92	211.49
871.23	211.42
871.54	211.49
871.85	211.50
872.16	211.48
872.47	211.43
872.78	211.26
873.09	211.28
873.40	211.23
873.71	211.27
874.02	211.28
874.33	211.26
874.64	211.10
874.95	211.14
875.26	211.08
875.56	211.05
875.87	211.03
876.18	211.04
876.49	211.35
876.80	211.35
877.11	211.20
877.42	211.23
877.73	211.27
878.04	211.17
878.35	211.29
878.66	211.41
878.96	211.40
879.27	211.41
879.58	211.40
879.89	211.40
880.20	211.45
880.51	211.41
880.82	211.48
881.12	211.58
881.43	211.52
881.74	211.47
882.05	211.49
882.36	211.48
882.67	211.53
882.97	211.18
883.28	211.16
883.59	211.18
883.90	211.24
884.21	211.24
884.51	211.29
884.82	211.19
885.13	211.11
885.44	211.14
885.74	211.06
886.05	211.09
886.36	211.00
886.67	210.89
886.98	211.06
887.28	211.10
887.59	211.06
887.90	211.09
888.20	211.09
888.51	211.19
888.82	211.22
889.13	211.23
889.43	211.54
889.74	211.60
890.05	211.65
890.35	211.64
890.66	211.70
890.97	211.61
891.28	211.66
891.58	211.58
891.89	211.54
892.20	211.58
892.50	211.53
892.81	211.62
893.12	211.61
893.42	211.47
893.73	211.47
894.04	211.45
894.34	211.42
894.65	211.45
894.95	211.42
895.26	211.46
895.57	211.64
895.87	211.33
896.18	211.38
896.48	211.35
896.79	211.36
897.10	211.34
897.40	211.37
897.71	211.39
898.01	211.44
898.32	211.53
898.63	211.52
898.93	211.47
899.24	211.41
899.54	211.43
899.85	211.42
900.15	211.35
900.46	211.35
900.76	211.30
901.07	211.28
901.38	211.19
901.68	211.20
901.99	211.03
902.29	211.03
902.60	210.99
902.90	210.98
903.21	210.92
903.51	210.88
903.82	210.96
904.12	210.91
904.43	210.93
904.73	210.88
905.03	210.88
905.34	211.27
905.64	211.31
905.95	211.34
906.25	211.36
906.56	211.39
906.86	211.31
907.17	211.45
907.47	211.51
907.77	211.60
908.08	211.47
908.38	211.47
908.69	211.48
908.99	211.45
909.30	211.47
909.60	211.48
909.90	211.54
910.21	211.45
910.51	211.42
910.81	211.42
911.12	211.46
911.42	211.54
911.73	211.23
912.03	211.21
912.33	211.28
912.64	211.22
912.94	211.21
913.24	211.27
913.55	211.14
913.85	211.03
914.15	211.04
914.46	211.14
914.76	211.11
915.06	211.15
915.37	211.21
915.67	211.18
915.97	211.22
916.27	211.16
916.58	211.20
916.88	211.21
917.18	211.24
917.49	211.46
917.79	211.41
918.09	211.46
918.39	211.56
918.70	211.55
919.00	211.59
919.30	211.75
919.60	211.69
919.91	211.74
920.21	211.85
920.51	211.77
920.81	211.77
921.12	211.85
921.42	211.94
921.72	211.93
922.02	211.93
922.32	211.98
922.63	212.00
922.93	212.15
923.23	212.20
923.53	212.16
923.83	211.90
924.13	211.93
924.44	211.94
924.74	211.97
925.04	212.04
925.34	212.04
925.64	211.93
925.94	212.00
926.24	212.12
926.55	212.08
926.85	212.08
927.15	212.09
927.45	212.06
927.75	211.96
928.05	211.96
928.35	211.92
928.65	211.98
928.95	212.00
929.26	211.90
929.56	211.90
929.86	211.90
930.16	211.86
930.46	211.81
930.76	211.73
931.06	211.61
931.36	211.46
931.66	211.55
931.96	211.55
932.26	211.57
932.56	211.52
932.86	211.59
933.16	211.70
933.46	211.67
933.76	211.69
934.06	211.73
934.36	211.87
934.66	211.84
934.96	211.74
935.26	211.77
935.56	211.84
935.86	211.73
936.16	211.70
936.46	211.72
936.76	211.71
937.06	211.72
937.36	211.75
937.66	211.76
937.96	211.61
938.26	211.56
938.56	211.51
938.86	211.51
939.16	211.52
939.46	211.51
939.76	211.56
940.06	211.43
940.35	211.34
940.65	211.13
940.95	211.22
941.25	211.17
941.55	211.12
941.85	211.01
942.15	211.07
942.45	211.19
942.75	211.21
943.04	211.24
943.34	211.30
943.64	211.28
943.94	211.21
944.24	211.27
944.54	211.28
944.84	211.25
945.13	211.16
945.43	211.12
945.73	211.04
946.03	210.90
946.33	210.97
946.62	210.91
946.92	210.94
947.22	210.93
947.52	211.00
947.82	210.99
948.11	211.02
948.41	210.96
948.71	210.84
949.01	210.78
949.31	210.79
949.60	210.74
949.90	210.80
950.20	210.86
950.50	210.91
950.79	210.88
951.09	210.98
951.39	210.96
951.69	210.96
951.98	211.08
952.28	211.14
952.58	211.12
952.87	211.14
953.17	211.15
953.47	211.16
953.76	211.07
954.06	211.09
954.36	210.97
954.66	211.09
954.95	211.20
955.25	211.33
955.55	211.33
955.84	211.33
956.14	211.35
956.44	211.35
956.73	211.25
957.03	211.23
957.32	211.20
957.62	211.23
957.92	211.26
958.21	211.14
958.51	211.52
958.81	211.56
959.10	211.67
959.40	211.75
959.69	211.74
959.99	211.88
960.29	211.79
960.58	211.80
960.88	211.83
961.17	211.79
961.47	211.81
961.76	211.79
962.06	211.82
962.36	211.76
962.65	211.74
962.95	211.73
963.24	211.74
963.54	211.73
963.83	211.78
964.13	211.72
964.42	211.64
964.72	211.37
965.01	211.38
965.31	211.31
965.60	211.20
965.90	211.43
966.19	211.31
966.49	211.32
966.78	211.27
967.08	211.30
967.37	211.26
967.67	211.14
967.96	211.16
968.26	211.17
968.55	211.27
968.85	211.30
969.14	211.36
969.43	211.36
969.73	211.32
970.02	211.23
970.32	211.20
970.61	211.30
970.91	211.25
971.20	211.18
971.49	211.17
971.79	211.24
972.08	210.97
972.38	210.94
972.67	210.92
972.96	211.04
973.26	210.87
973.55	210.98
973.85	210.95
974.14	210.92
974.43	210.84
974.73	210.75
975.02	210.69
975.31	210.60
975.61	210.61
975.90	210.57
976.19	210.51
976.49	210.54
976.78	210.54
977.07	210.50
977.37	210.52
977.66	210.56
977.95	210.52
978.24	210.57
978.54	210.70
978.83	210.73
979.12	210.69
979.42	210.75
979.71	210.70
980.00	210.68
980.29	210.68
980.59	210.70
980.88	210.74
981.17	210.76
981.46	210.79
981.76	210.77
982.05	210.90
982.34	210.92
982.63	210.99
982.93	210.92
983.22	210.97
983.51	210.96
983.80	210.99
984.09	211.01
984.39	210.97
984.68	210.93
984.97	210.92
985.26	210.83
985.55	210.82
985.85	210.74
986.14	210.83
986.43	210.87
986.72	210.85
987.01	210.80
987.30	210.86
987.59	210.85
987.89	210.99
988.18	210.83
988.47	210.85
988.76	210.79
989.05	210.81
989.34	210.76
989.63	210.90
989.92	210.85
990.22	210.83
990.51	210.79
990.80	210.71
991.09	210.80
991.38	210.92
991.67	210.96
991.96	210.97
992.25	210.99
992.54	210.94
992.83	210.90
993.12	210.81
993.41	210.74
993.70	210.94
993.99	210.87
994.28	210.98
994.58	211.02
994.87	211.01
995.16	211.00
995.45	211.07
995.74	210.90
996.03	210.96
996.32	210.95
996.61	211.03
996.90	211.06
997.19	211.00
997.48	211.00
997.77	210.95
998.06	210.90
998.34	210.85
998.63	210.85
998.92	210.86
999.21	210.96
999.50	211.04
999.79	210.81
1000.08	210.83
1000.37	210.83
1000.66	210.77
1000.95	210.80
1001.24	210.82
1001.53	210.79
1001.82	210.86
1002.11	210.77
1002.40	210.90
1002.68	211.01
1002.97	211.28
1003.26	211.25
1003.55	211.17
1003.84	211.19
1004.13	211.33
1004.42	211.38
1004.71	211.45
1004.99	211.45
1005.28	211.57
1005.57	211.52
1005.86	211.61
1006.15	211.56
1006.44	211.56
1006.72	211.63
1007.01	211.60
1007.30	211.66
1007.59	211.55
1007.88	211.50
1008.17	211.50
1008.45	211.30
1008.74	211.13
1009.03	210.87
1009.32	210.85
1009.60	210.84
1009.89	210.86
1010.18	210.75
1010.47	210.62
1010.76	210.52
1011.04	210.57
1011.33	210.57
1011.62	210.61
1011.91	210.57
1012.19	210.59
1012.48	210.56
1012.77	210.64
1013.05	210.78
1013.34	210.66
1013.63	210.74
1013.92	210.80
1014.20	210.76
1014.49	210.88
1014.78	210.91
1015.06	210.87
1015.35	210.85
1015.64	210.90
1015.92	210.91
1016.21	210.97
1016.50	211.11
1016.78	211.20
1017.07	211.20
1017.36	211.07
1017.64	211.01
1017.93	211.07
1018.22	211.03
1018.50	210.97
1018.79	210.85
1019.08	210.72
1019.36	210.85
1019.65	210.78
1019.93	210.85
1020.22	210.90
1020.51	211.01
1020.79	210.97
1021.08	210.15
1021.36	209.50
1021.65	210.50
1021.94	210.45
1022.22	212.40
1022.51	209.80
1022.79	212.55
1023.08	210.50
1023.36	214.10
1023.65	209.85
>>>>>End Processed Spectral Data<<<<<
