SpectraSuite Data File
++++++++++++++++++++++++++++++++++++
Date: Mon Feb 25 16:56:53 EST 2013
User: group
Dark Spectrum Present: No
Reference Spectrum Present: No
Number of Sampled Component Spectra: 1
Spectrometers: USB2E7196
Integration Time (usec): 104000 (USB2E7196)
Spectra Averaged: 20 (USB2E7196)
Boxcar Smoothing: 10 (USB2E7196)
Correct for Electrical Dark: No (USB2E7196)
Strobe/Lamp Enabled: No (USB2E7196)
Correct for Detector Non-linearity: No (USB2E7196)
Correct for Stray Light: No (USB2E7196)
Number of Pixels in Processed Spectrum: 2048
>>>>>Begin Processed Spectral Data<<<<<
339.09	0.00
339.48	197.85
339.86	200.85
340.24	200.45
340.63	203.35
341.01	209.20
341.39	205.60
341.78	206.85
342.16	209.20
342.54	210.15
342.93	198.31
343.31	208.36
343.69	208.96
344.07	209.37
344.46	209.89
344.84	210.33
345.22	210.43
345.60	210.71
345.99	210.89
346.37	210.98
346.75	211.02
347.13	211.05
347.52	211.07
347.90	211.20
348.28	211.25
348.66	211.32
349.05	211.34
349.43	211.36
349.81	211.51
350.19	211.58
350.57	211.63
350.96	211.78
351.34	211.83
351.72	211.95
352.10	212.09
352.48	212.13
352.87	212.12
353.25	212.13
353.63	212.21
354.01	212.28
354.39	212.43
354.77	212.40
355.15	212.62
355.54	212.67
355.92	212.60
356.30	212.69
356.68	212.97
357.06	213.02
357.44	213.04
357.82	213.08
358.20	213.21
358.58	213.27
358.97	213.30
359.35	213.50
359.73	213.56
360.11	213.57
360.49	213.61
360.87	213.64
361.25	213.81
361.63	213.94
362.01	214.01
362.39	213.93
362.77	214.05
363.15	213.99
363.53	213.95
363.91	214.04
364.29	214.03
364.67	213.68
365.05	213.65
365.43	213.72
365.81	213.73
366.19	213.83
366.57	213.95
366.95	213.90
367.33	213.74
367.71	213.69
368.09	213.78
368.47	213.80
368.85	213.74
369.23	213.69
369.61	213.51
369.99	213.64
370.37	213.67
370.75	213.89
371.13	213.81
371.51	213.78
371.89	213.81
372.27	213.80
372.65	213.78
373.03	213.72
373.41	213.65
373.78	213.63
374.16	213.37
374.54	213.18
374.92	213.15
375.30	213.12
375.68	213.08
376.06	212.99
376.44	212.90
376.82	212.95
377.19	212.96
377.57	212.93
377.95	212.72
378.33	212.67
378.71	212.40
379.09	212.47
379.47	212.47
379.84	212.38
380.22	212.35
380.60	212.23
380.98	212.25
381.36	212.19
381.73	212.13
382.11	212.29
382.49	212.38
382.87	212.29
383.25	212.25
383.62	212.58
384.00	212.54
384.38	212.51
384.76	212.51
385.13	212.60
385.51	212.56
385.89	212.46
386.27	212.45
386.64	212.49
387.02	212.39
387.40	212.29
387.78	212.30
388.15	212.28
388.53	212.33
388.91	212.29
389.29	212.28
389.66	212.29
390.04	212.13
390.42	212.04
390.79	212.06
391.17	212.02
391.55	211.62
391.92	211.64
392.30	211.71
392.68	211.63
393.05	211.51
393.43	211.55
393.81	211.65
394.18	211.60
394.56	211.62
394.94	211.74
395.31	211.73
395.69	211.85
396.06	211.87
396.44	211.90
396.82	211.94
397.19	212.15
397.57	212.09
397.95	212.18
398.32	212.20
398.70	212.32
399.07	212.43
399.45	212.57
399.82	212.57
400.20	212.55
400.58	212.63
400.95	212.60
401.33	212.81
401.70	213.18
402.08	213.31
402.45	213.48
402.83	213.69
403.20	213.94
403.58	214.01
403.95	214.27
404.33	214.49
404.71	214.62
405.08	215.02
405.46	215.38
405.83	215.67
406.21	215.96
406.58	216.27
406.96	216.63
407.33	217.02
407.70	217.51
408.08	218.28
408.45	218.87
408.83	219.55
409.20	220.05
409.58	220.40
409.95	221.09
410.33	221.77
410.70	222.43
411.08	223.25
411.45	224.16
411.82	225.06
412.20	226.20
412.57	227.54
412.95	228.39
413.32	229.66
413.69	230.99
414.07	232.40
414.44	233.97
414.82	235.53
415.19	237.37
415.56	239.25
415.94	241.14
416.31	243.30
416.68	245.52
417.06	248.18
417.43	250.70
417.81	253.57
418.18	256.43
418.55	259.53
418.93	262.81
419.30	266.26
419.67	269.93
420.04	273.65
420.42	277.64
420.79	282.36
421.16	286.89
421.54	291.70
421.91	296.84
422.28	301.95
422.66	307.53
423.03	313.01
423.40	318.69
423.77	324.69
424.15	330.95
424.52	337.40
424.89	344.43
425.26	351.23
425.64	357.76
426.01	365.12
426.38	372.60
426.75	380.25
427.13	388.13
427.50	396.47
427.87	405.22
428.24	413.84
428.61	422.29
428.99	431.53
429.36	441.48
429.73	451.20
430.10	461.13
430.47	471.32
430.85	481.85
431.22	493.00
431.59	504.82
431.96	516.06
432.33	528.69
432.70	540.98
433.08	555.37
433.45	568.75
433.82	582.20
434.19	597.39
434.56	612.14
434.93	626.52
435.30	640.73
435.68	656.69
436.05	672.60
436.42	688.28
436.79	702.84
437.16	718.60
437.53	735.28
437.90	751.70
438.27	767.92
438.64	785.00
439.01	800.86
439.38	815.38
439.75	829.35
440.13	845.02
440.50	859.91
440.87	872.55
441.24	885.53
441.61	899.85
441.98	910.73
442.35	923.53
442.72	936.15
443.09	948.29
443.46	956.05
443.83	961.94
444.20	967.00
444.57	974.01
444.94	977.82
445.31	981.97
445.68	985.82
446.05	988.29
446.42	987.80
446.79	987.16
447.16	986.12
447.53	986.01
447.90	981.20
448.27	976.47
448.64	968.98
449.01	964.21
449.37	954.39
449.74	944.92
450.11	933.25
450.48	920.84
450.85	908.18
451.22	897.25
451.59	886.60
451.96	876.65
452.33	862.92
452.70	850.71
453.07	835.55
453.43	820.49
453.80	805.75
454.17	791.60
454.54	778.26
454.91	763.80
455.28	749.67
455.65	736.67
456.02	723.29
456.38	712.18
456.75	697.95
457.12	686.42
457.49	675.02
457.86	663.82
458.23	654.00
458.59	643.33
458.96	632.59
459.33	623.02
459.70	613.46
460.07	605.77
460.43	597.03
460.80	588.80
461.17	581.51
461.54	574.00
461.91	566.98
462.27	559.73
462.64	553.57
463.01	546.55
463.38	539.94
463.74	533.34
464.11	527.57
464.48	522.55
464.85	516.91
465.21	512.44
465.58	507.93
465.95	502.53
466.32	498.09
466.68	493.56
467.05	489.14
467.42	484.67
467.78	480.02
468.15	475.52
468.52	472.33
468.88	468.03
469.25	464.19
469.62	460.98
469.98	457.43
470.35	454.36
470.72	451.36
471.08	448.04
471.45	445.30
471.82	442.44
472.18	439.52
472.55	437.41
472.92	434.89
473.28	432.61
473.65	430.41
474.02	428.14
474.38	426.46
474.75	424.89
475.11	423.18
475.48	421.87
475.85	420.84
476.21	419.64
476.58	418.66
476.94	417.97
477.31	417.17
477.67	416.47
478.04	415.85
478.41	415.47
478.77	415.45
479.14	415.10
479.50	414.99
479.87	415.07
480.23	415.10
480.60	415.14
480.96	415.16
481.33	415.75
481.69	416.26
482.06	416.55
482.42	416.77
482.79	417.25
483.15	418.07
483.52	419.10
483.88	420.02
484.25	421.02
484.61	422.11
484.98	423.17
485.34	424.74
485.71	426.37
486.07	428.04
486.44	429.48
486.80	431.45
487.17	433.41
487.53	435.75
487.90	437.99
488.26	440.61
488.62	443.47
488.99	446.00
489.35	448.85
489.72	452.00
490.08	455.37
490.44	458.68
490.81	462.06
491.17	465.39
491.54	469.11
491.90	472.93
492.26	476.89
492.63	481.16
492.99	485.44
493.36	489.90
493.72	494.61
494.08	499.50
494.45	504.39
494.81	509.64
495.17	514.77
495.54	520.33
495.90	525.76
496.26	531.32
496.63	537.20
496.99	543.21
497.35	549.45
497.72	555.85
498.08	562.42
498.44	569.09
498.80	576.15
499.17	583.05
499.53	590.22
499.89	597.58
500.26	604.67
500.62	611.84
500.98	619.20
501.34	626.76
501.71	634.48
502.07	642.17
502.43	649.83
502.79	657.60
503.16	665.29
503.52	673.20
503.88	681.17
504.24	689.15
504.60	697.13
504.97	705.21
505.33	713.17
505.69	721.60
506.05	729.85
506.41	737.86
506.78	745.75
507.14	753.55
507.50	761.60
507.86	769.74
508.22	777.84
508.59	785.70
508.95	793.70
509.31	801.63
509.67	809.57
510.03	817.54
510.39	825.57
510.75	833.66
511.12	841.52
511.48	849.26
511.84	857.19
512.20	864.83
512.56	872.34
512.92	880.27
513.28	887.85
513.64	895.23
514.00	902.45
514.37	909.88
514.73	917.52
515.09	924.70
515.45	931.66
515.81	938.62
516.17	945.63
516.53	952.33
516.89	958.74
517.25	965.22
517.61	971.61
517.97	977.63
518.33	983.30
518.69	989.21
519.05	995.15
519.41	1000.80
519.77	1006.85
520.13	1012.51
520.49	1017.64
520.85	1022.97
521.21	1028.25
521.57	1033.57
521.93	1038.15
522.29	1043.16
522.65	1048.00
523.01	1052.75
523.37	1057.09
523.73	1061.61
524.09	1065.87
524.45	1070.29
524.81	1074.63
525.17	1079.02
525.53	1083.34
525.89	1087.78
526.25	1091.81
526.61	1095.39
526.97	1098.98
527.33	1102.64
527.68	1106.49
528.04	1109.83
528.40	1112.65
528.76	1115.71
529.12	1119.16
529.48	1123.12
529.84	1126.43
530.20	1129.52
530.56	1132.91
530.91	1136.65
531.27	1139.86
531.63	1143.28
531.99	1146.44
532.35	1149.46
532.71	1152.16
533.07	1155.39
533.42	1158.33
533.78	1161.58
534.14	1164.83
534.50	1167.43
534.86	1170.05
535.21	1172.34
535.57	1175.55
535.93	1178.60
536.29	1181.50
536.65	1184.14
537.00	1186.25
537.36	1188.19
537.72	1190.46
538.08	1192.45
538.44	1194.40
538.79	1196.77
539.15	1199.01
539.51	1201.16
539.87	1203.66
540.22	1206.04
540.58	1208.53
540.94	1210.74
541.29	1212.33
541.65	1213.76
542.01	1215.93
542.37	1217.85
542.72	1219.75
543.08	1221.27
543.44	1223.19
543.79	1224.23
544.15	1225.46
544.51	1227.49
544.87	1229.47
545.22	1230.90
545.58	1232.51
545.94	1233.60
546.29	1234.32
546.65	1234.85
547.01	1235.79
547.36	1236.44
547.72	1236.99
548.07	1237.28
548.43	1237.73
548.79	1238.23
549.14	1238.92
549.50	1239.25
549.86	1239.36
550.21	1239.90
550.57	1240.70
550.92	1240.77
551.28	1241.63
551.64	1242.10
551.99	1242.57
552.35	1242.39
552.70	1242.67
553.06	1242.96
553.41	1243.40
553.77	1244.31
554.13	1245.13
554.48	1245.83
554.84	1246.60
555.19	1247.28
555.55	1247.71
555.90	1248.08
556.26	1248.55
556.61	1248.71
556.97	1248.77
557.32	1249.50
557.68	1249.34
558.03	1248.89
558.39	1248.76
558.74	1248.85
559.10	1248.99
559.45	1248.73
559.81	1249.07
560.16	1248.83
560.52	1248.69
560.87	1248.86
561.23	1248.20
561.58	1248.05
561.94	1247.40
562.29	1246.27
562.64	1245.57
563.00	1244.87
563.35	1244.61
563.71	1244.65
564.06	1244.76
564.42	1244.95
564.77	1244.82
565.12	1245.05
565.48	1245.26
565.83	1245.14
566.19	1245.13
566.54	1244.52
566.89	1243.93
567.25	1243.83
567.60	1243.93
567.96	1243.91
568.31	1243.75
568.66	1243.45
569.02	1242.50
569.37	1241.57
569.72	1241.15
570.08	1240.54
570.43	1239.80
570.78	1238.75
571.14	1237.13
571.49	1235.56
571.84	1234.38
572.20	1232.83
572.55	1231.36
572.90	1229.30
573.26	1227.43
573.61	1225.22
573.96	1223.29
574.31	1221.29
574.67	1218.78
575.02	1216.07
575.37	1213.42
575.72	1210.19
576.08	1207.78
576.43	1205.24
576.78	1202.86
577.13	1200.56
577.49	1198.15
577.84	1195.72
578.19	1193.33
578.54	1191.37
578.90	1189.42
579.25	1186.67
579.60	1183.55
579.95	1180.26
580.30	1177.61
580.66	1175.14
581.01	1172.38
581.36	1169.40
581.71	1166.36
582.06	1163.60
582.42	1160.81
582.77	1157.43
583.12	1154.56
583.47	1151.31
583.82	1148.53
584.17	1145.49
584.53	1142.60
584.88	1139.36
585.23	1136.13
585.58	1132.72
585.93	1129.08
586.28	1125.50
586.63	1122.30
586.98	1119.38
587.34	1116.57
587.69	1113.15
588.04	1109.89
588.39	1106.77
588.74	1103.31
589.09	1100.30
589.44	1096.63
589.79	1093.47
590.14	1090.54
590.49	1087.44
590.84	1084.20
591.19	1081.19
591.54	1077.95
591.89	1073.96
592.25	1070.70
592.60	1067.00
592.95	1063.28
593.30	1059.25
593.65	1055.29
594.00	1051.43
594.35	1048.56
594.70	1044.78
595.05	1041.39
595.40	1037.71
595.75	1033.69
596.10	1030.44
596.45	1026.75
596.80	1023.39
597.15	1019.90
597.50	1015.90
597.85	1012.25
598.19	1008.46
598.54	1004.41
598.89	1000.93
599.24	997.80
599.59	993.95
599.94	990.52
600.29	986.96
600.64	983.60
600.99	979.98
601.34	976.50
601.69	971.99
602.04	968.06
602.39	964.19
602.74	960.49
603.08	957.16
603.43	954.02
603.78	950.25
604.13	946.46
604.48	942.90
604.83	939.93
605.18	936.80
605.53	933.06
605.87	929.31
606.22	925.68
606.57	921.53
606.92	917.60
607.27	913.65
607.62	910.01
607.96	906.44
608.31	903.20
608.66	899.21
609.01	895.17
609.36	891.38
609.70	887.35
610.05	883.29
610.40	879.35
610.75	874.78
611.10	871.32
611.44	867.09
611.79	862.70
612.14	858.32
612.49	853.62
612.83	849.76
613.18	845.54
613.53	841.27
613.88	836.99
614.22	833.12
614.57	829.06
614.92	824.87
615.27	820.67
615.61	816.21
615.96	812.34
616.31	808.60
616.65	805.15
617.00	801.51
617.35	797.69
617.70	793.66
618.04	789.55
618.39	785.05
618.74	781.17
619.08	777.12
619.43	773.30
619.78	769.65
620.12	765.82
620.47	762.20
620.82	758.22
621.16	754.21
621.51	750.22
621.85	746.55
622.20	742.83
622.55	739.02
622.89	735.20
623.24	731.44
623.59	727.38
623.93	723.32
624.28	719.62
624.62	716.07
624.97	712.37
625.32	708.83
625.66	705.36
626.01	701.77
626.35	698.49
626.70	694.84
627.04	691.23
627.39	687.75
627.73	684.20
628.08	680.94
628.43	677.68
628.77	674.19
629.12	670.61
629.46	667.29
629.81	663.94
630.15	660.77
630.50	657.43
630.84	654.21
631.19	650.96
631.53	647.66
631.88	644.03
632.22	640.56
632.57	637.51
632.91	634.20
633.26	631.03
633.60	627.51
633.95	624.35
634.29	621.03
634.64	617.85
634.98	614.68
635.32	611.57
635.67	608.73
636.01	605.87
636.36	602.90
636.70	599.85
637.05	596.91
637.39	593.95
637.73	591.23
638.08	588.74
638.42	586.05
638.77	583.30
639.11	580.75
639.45	578.18
639.80	575.20
640.14	572.46
640.49	569.71
640.83	567.14
641.17	564.47
641.52	561.84
641.86	558.98
642.20	556.42
642.55	553.45
642.89	550.49
643.23	547.49
643.58	544.92
643.92	542.14
644.26	539.47
644.61	536.83
644.95	534.05
645.29	530.97
645.64	528.11
645.98	525.35
646.32	522.71
646.66	519.93
647.01	517.33
647.35	514.78
647.69	512.07
648.04	509.50
648.38	506.87
648.72	504.33
649.06	501.74
649.41	498.98
649.75	496.35
650.09	494.00
650.43	491.75
650.78	489.05
651.12	486.62
651.46	484.11
651.80	481.62
652.14	479.03
652.49	476.81
652.83	474.34
653.17	471.86
653.51	469.31
653.85	467.08
654.20	464.74
654.54	462.34
654.88	459.99
655.22	457.60
655.56	455.11
655.90	452.74
656.25	450.45
656.59	448.27
656.93	446.27
657.27	444.22
657.61	441.84
657.95	439.75
658.29	437.56
658.64	435.51
658.98	433.43
659.32	431.19
659.66	428.81
660.00	426.70
660.34	424.50
660.68	422.36
661.02	420.03
661.36	418.02
661.70	416.10
662.05	414.15
662.39	412.26
662.73	410.56
663.07	408.80
663.41	407.06
663.75	405.07
664.09	403.07
664.43	400.93
664.77	399.17
665.11	397.16
665.45	395.36
665.79	393.56
666.13	391.59
666.47	389.95
666.81	388.35
667.15	386.56
667.49	385.00
667.83	383.49
668.17	382.05
668.51	380.43
668.85	378.79
669.19	377.38
669.53	375.75
669.87	373.99
670.21	372.34
670.55	370.74
670.89	369.52
671.23	368.18
671.57	366.91
671.91	365.50
672.25	364.11
672.58	362.75
672.92	361.26
673.26	360.04
673.60	358.66
673.94	357.30
674.28	355.95
674.62	354.68
674.96	353.32
675.30	351.89
675.64	350.60
675.97	349.30
676.31	347.95
676.65	346.80
676.99	345.75
677.33	344.47
677.67	343.16
678.01	341.62
678.34	340.30
678.68	338.98
679.02	337.58
679.36	336.38
679.70	335.06
680.04	333.86
680.37	332.56
680.71	331.42
681.05	330.38
681.39	329.37
681.73	328.17
682.06	327.07
682.40	326.07
682.74	324.97
683.08	323.98
683.42	322.77
683.75	321.61
684.09	320.46
684.43	319.31
684.77	318.23
685.10	317.22
685.44	316.20
685.78	315.17
686.12	314.22
686.45	313.27
686.79	312.35
687.13	311.55
687.46	310.62
687.80	309.61
688.14	308.50
688.48	307.47
688.81	306.49
689.15	305.52
689.49	304.48
689.82	303.56
690.16	302.37
690.50	301.47
690.83	300.49
691.17	299.40
691.51	298.54
691.84	297.64
692.18	296.70
692.52	295.78
692.85	294.90
693.19	294.11
693.52	293.10
693.86	292.13
694.20	291.13
694.53	290.28
694.87	289.44
695.21	288.52
695.54	287.58
695.88	286.60
696.21	285.67
696.55	284.89
696.88	283.93
697.22	283.15
697.56	282.43
697.89	281.63
698.23	280.99
698.56	280.21
698.90	279.58
699.23	278.79
699.57	278.10
699.90	277.28
700.24	276.44
700.58	275.79
700.91	275.10
701.25	274.67
701.58	273.95
701.92	273.27
702.25	272.63
702.59	272.07
702.92	271.44
703.26	270.79
703.59	270.09
703.93	269.78
704.26	269.25
704.60	268.61
704.93	267.94
705.26	267.24
705.60	266.66
705.93	265.95
706.27	265.57
706.60	265.02
706.94	264.76
707.27	264.21
707.61	263.70
707.94	263.12
708.27	262.28
708.61	261.73
708.94	261.15
709.28	260.63
709.61	260.07
709.94	259.63
710.28	259.24
710.61	258.81
710.95	258.01
711.28	257.76
711.61	257.26
711.95	256.86
712.28	256.36
712.61	255.94
712.95	255.61
713.28	255.15
713.61	254.64
713.95	253.98
714.28	253.56
714.61	253.07
714.95	252.66
715.28	252.18
715.61	251.74
715.95	251.34
716.28	250.94
716.61	250.52
716.95	250.09
717.28	249.68
717.61	249.24
717.94	248.86
718.28	248.12
718.61	247.66
718.94	247.25
719.27	246.84
719.61	246.41
719.94	245.98
720.27	245.36
720.60	244.97
720.94	244.60
721.27	244.22
721.60	243.88
721.93	243.52
722.27	243.43
722.60	243.16
722.93	242.85
723.26	242.56
723.59	242.17
723.93	241.87
724.26	241.56
724.59	241.31
724.92	241.05
725.25	240.90
725.59	240.71
725.92	240.45
726.25	240.19
726.58	239.98
726.91	239.68
727.24	239.56
727.57	239.34
727.91	238.94
728.24	238.69
728.57	238.45
728.90	238.24
729.23	237.77
729.56	237.66
729.89	237.37
730.22	237.06
730.55	236.84
730.89	236.60
731.22	236.30
731.55	236.05
731.88	235.80
732.21	235.53
732.54	235.17
732.87	234.94
733.20	234.70
733.53	234.41
733.86	234.25
734.19	233.99
734.52	233.85
734.85	233.91
735.18	233.69
735.51	233.48
735.84	233.27
736.17	233.22
736.50	232.80
736.83	233.00
737.16	232.77
737.49	232.60
737.82	232.40
738.15	232.19
738.48	231.97
738.81	231.73
739.14	231.41
739.47	231.22
739.80	231.01
740.13	230.84
740.46	230.64
740.79	230.34
741.12	230.18
741.45	229.86
741.78	229.49
742.11	229.38
742.44	229.18
742.77	228.99
743.10	228.68
743.43	228.44
743.75	227.85
744.08	228.20
744.41	227.91
744.74	227.65
745.07	227.38
745.40	227.20
745.73	227.24
746.06	227.10
746.39	226.96
746.71	226.73
747.04	226.54
747.37	226.34
747.70	226.29
748.03	226.08
748.36	226.04
748.68	225.90
749.01	225.63
749.34	225.48
749.67	225.33
750.00	225.27
750.33	225.34
750.65	225.26
750.98	224.60
751.31	224.54
751.64	224.45
751.97	224.60
752.29	224.47
752.62	224.16
752.95	224.01
753.28	223.82
753.60	223.69
753.93	223.67
754.26	223.52
754.59	223.21
754.91	223.06
755.24	222.80
755.57	222.64
755.90	222.50
756.22	222.37
756.55	222.20
756.88	221.98
757.20	221.72
757.53	221.46
757.86	221.34
758.19	221.25
758.51	221.08
758.84	220.81
759.17	220.65
759.49	220.51
759.82	220.56
760.15	220.52
760.47	220.45
760.80	220.21
761.13	220.19
761.45	220.14
761.78	220.09
762.11	220.00
762.43	219.87
762.76	219.81
763.08	219.70
763.41	219.65
763.74	219.58
764.06	219.46
764.39	219.45
764.71	219.39
765.04	219.22
765.37	219.16
765.69	218.97
766.02	218.87
766.34	218.78
766.67	218.55
767.00	218.51
767.32	218.65
767.65	218.82
767.97	218.70
768.30	218.67
768.62	218.62
768.95	218.45
769.27	218.44
769.60	218.42
769.92	218.30
770.25	218.15
770.57	218.00
770.90	217.89
771.22	217.73
771.55	217.67
771.87	217.60
772.20	217.52
772.52	217.82
772.85	218.20
773.17	218.15
773.50	218.06
773.82	217.95
774.15	217.67
774.47	217.34
774.80	217.25
775.12	217.14
775.45	216.99
775.77	217.05
776.09	216.92
776.42	216.88
776.74	216.95
777.07	216.85
777.39	216.81
777.72	216.84
778.04	216.83
778.36	216.75
778.69	216.71
779.01	216.67
779.33	216.26
779.66	215.79
779.98	215.72
780.31	215.74
780.63	215.90
780.95	215.93
781.28	215.95
781.60	215.91
781.92	215.86
782.25	215.85
782.57	215.84
782.89	215.85
783.22	215.78
783.54	215.68
783.86	215.76
784.19	215.72
784.51	215.77
784.83	215.73
785.16	215.63
785.48	215.60
785.80	215.56
786.12	215.59
786.45	215.56
786.77	215.57
787.09	215.51
787.42	215.28
787.74	215.22
788.06	215.15
788.38	215.08
788.71	215.03
789.03	215.00
789.35	214.95
789.67	214.84
789.99	214.78
790.32	214.71
790.64	214.66
790.96	214.88
791.28	214.67
791.61	214.60
791.93	214.69
792.25	214.66
792.57	214.86
792.89	214.72
793.21	214.77
793.54	214.70
793.86	214.63
794.18	214.62
794.50	214.54
794.82	214.54
795.14	214.55
795.47	214.59
795.79	214.58
796.11	214.51
796.43	214.45
796.75	214.43
797.07	214.40
797.39	214.38
797.71	214.15
798.04	214.17
798.36	214.18
798.68	214.08
799.00	214.05
799.32	213.83
799.64	213.94
799.96	213.88
800.28	213.90
800.60	213.83
800.92	213.83
801.24	213.78
801.56	213.69
801.89	213.64
802.21	213.59
802.53	213.56
802.85	213.62
803.17	213.81
803.49	213.70
803.81	213.67
804.13	213.63
804.45	213.55
804.77	213.56
805.09	213.54
805.41	213.51
805.73	213.49
806.05	213.42
806.37	213.39
806.69	213.37
807.01	213.35
807.33	213.38
807.65	213.25
807.97	213.40
808.28	213.44
808.60	213.44
808.92	213.43
809.24	213.62
809.56	213.55
809.88	213.40
810.20	213.47
810.52	213.52
810.84	213.50
811.16	213.43
811.48	213.39
811.80	213.55
812.12	213.53
812.43	213.55
812.75	213.54
813.07	213.49
813.39	213.45
813.71	213.38
814.03	213.39
814.35	213.43
814.67	213.24
814.98	213.18
815.30	213.18
815.62	213.10
815.94	212.85
816.26	212.84
816.58	212.79
816.89	212.72
817.21	212.62
817.53	212.62
817.85	212.72
818.17	212.72
818.48	212.53
818.80	212.59
819.12	212.59
819.44	212.59
819.76	212.51
820.07	212.48
820.39	212.41
820.71	212.43
821.03	212.40
821.34	212.41
821.66	212.48
821.98	212.44
822.30	212.41
822.61	212.58
822.93	212.51
823.25	212.51
823.57	212.54
823.88	212.62
824.20	212.61
824.52	212.60
824.83	212.61
825.15	212.65
825.47	212.63
825.79	212.62
826.10	212.55
826.42	212.51
826.74	212.52
827.05	212.51
827.37	212.46
827.69	212.43
828.00	212.43
828.32	212.37
828.64	212.33
828.95	212.57
829.27	212.48
829.58	212.49
829.90	212.55
830.22	212.54
830.53	212.43
830.85	212.36
831.17	212.30
831.48	212.23
831.80	212.14
832.11	212.09
832.43	212.06
832.75	212.05
833.06	212.30
833.38	212.26
833.69	212.34
834.01	212.45
834.32	212.42
834.64	212.42
834.96	212.39
835.27	212.41
835.59	212.23
835.90	212.15
836.22	212.11
836.53	212.04
836.85	212.01
837.16	212.40
837.48	212.43
837.79	212.48
838.11	212.51
838.42	212.51
838.74	212.64
839.05	212.50
839.37	212.48
839.68	212.33
840.00	212.32
840.31	212.40
840.63	212.25
840.94	212.30
841.26	212.20
841.57	212.21
841.88	212.22
842.20	212.15
842.51	212.16
842.83	212.20
843.14	212.59
843.46	212.65
843.77	212.43
844.08	212.42
844.40	212.36
844.71	212.30
845.03	212.32
845.34	212.27
845.65	212.35
845.97	212.34
846.28	212.30
846.60	212.27
846.91	212.15
847.22	212.22
847.54	212.25
847.85	212.27
848.16	212.23
848.48	212.18
848.79	212.34
849.10	212.40
849.42	212.39
849.73	212.03
850.04	211.97
850.36	211.84
850.67	211.83
850.98	211.84
851.30	211.93
851.61	211.91
851.92	211.85
852.23	211.99
852.55	212.06
852.86	212.03
853.17	212.13
853.49	212.15
853.80	212.16
854.11	212.18
854.42	212.27
854.74	212.24
855.05	212.26
855.36	212.10
855.67	212.08
855.99	212.02
856.30	212.41
856.61	212.35
856.92	212.33
857.23	212.33
857.55	212.37
857.86	212.32
858.17	212.31
858.48	212.29
858.79	212.23
859.11	212.28
859.42	212.30
859.73	212.23
860.04	212.26
860.35	212.20
860.66	212.18
860.98	212.12
861.29	212.15
861.60	212.06
861.91	212.10
862.22	212.02
862.53	212.07
862.84	211.64
863.16	211.76
863.47	211.70
863.78	211.70
864.09	211.64
864.40	211.64
864.71	211.69
865.02	211.70
865.33	211.56
865.64	211.47
865.95	211.50
866.27	211.70
866.58	211.62
866.89	211.65
867.20	211.62
867.51	211.60
867.82	211.60
868.13	211.75
868.44	211.73
868.75	211.79
869.06	211.78
869.37	211.84
869.68	211.73
869.99	211.85
870.30	211.90
870.61	211.98
870.92	211.96
871.23	211.90
871.54	211.92
871.85	212.02
872.16	212.08
872.47	212.02
872.78	211.80
873.09	211.88
873.40	211.85
873.71	211.85
874.02	211.88
874.33	211.88
874.64	211.83
874.95	211.93
875.26	211.90
875.56	211.85
875.87	211.77
876.18	211.80
876.49	212.08
876.80	212.02
877.11	211.89
877.42	211.94
877.73	212.02
878.04	211.92
878.35	212.00
878.66	211.94
878.96	211.94
879.27	211.94
879.58	211.92
879.89	211.85
880.20	211.90
880.51	211.90
880.82	211.86
881.12	211.84
881.43	211.71
881.74	211.58
882.05	211.62
882.36	211.73
882.67	211.69
882.97	211.32
883.28	211.30
883.59	211.35
883.90	211.30
884.21	211.27
884.51	211.32
884.82	211.20
885.13	211.22
885.44	211.19
885.74	211.19
886.05	211.12
886.36	211.14
886.67	211.05
886.98	211.24
887.28	211.27
887.59	211.30
887.90	211.30
888.20	211.31
888.51	211.37
888.82	211.32
889.13	211.43
889.43	211.71
889.74	211.76
890.05	211.67
890.35	211.69
890.66	211.69
890.97	211.66
891.28	211.64
891.58	211.64
891.89	211.65
892.20	211.64
892.50	211.63
892.81	211.64
893.12	211.61
893.42	211.35
893.73	211.31
894.04	211.28
894.34	211.28
894.65	211.33
894.95	211.30
895.26	211.30
895.57	211.31
895.87	211.00
896.18	210.94
896.48	211.05
896.79	211.08
897.10	211.09
897.40	211.07
897.71	211.12
898.01	211.14
898.32	211.21
898.63	211.20
898.93	211.23
899.24	211.23
899.54	211.24
899.85	211.25
900.15	211.33
900.46	211.39
900.76	211.41
901.07	211.42
901.38	211.32
901.68	211.29
901.99	211.20
902.29	211.27
902.60	211.28
902.90	211.30
903.21	211.21
903.51	211.14
903.82	211.25
904.12	211.25
904.43	211.25
904.73	211.17
905.03	211.15
905.34	211.46
905.64	211.44
905.95	211.44
906.25	211.49
906.56	211.44
906.86	211.45
907.17	211.39
907.47	211.41
907.77	211.45
908.08	211.40
908.38	211.40
908.69	211.36
908.99	211.43
909.30	211.39
909.60	211.46
909.90	211.57
910.21	211.46
910.51	211.46
910.81	211.43
911.12	211.49
911.42	211.53
911.73	211.19
912.03	211.21
912.33	211.27
912.64	211.25
912.94	211.25
913.24	211.16
913.55	211.21
913.85	211.17
914.15	211.23
914.46	211.29
914.76	211.33
915.06	211.30
915.37	211.23
915.67	211.17
915.97	211.14
916.27	211.08
916.58	211.03
916.88	211.00
917.18	210.93
917.49	211.15
917.79	211.10
918.09	211.19
918.39	211.27
918.70	211.17
919.00	211.21
919.30	211.31
919.60	211.32
919.91	211.31
920.21	211.25
920.51	211.16
920.81	211.13
921.12	211.17
921.42	211.17
921.72	211.22
922.02	211.30
922.32	211.40
922.63	211.36
922.93	211.55
923.23	211.53
923.53	211.46
923.83	211.21
924.13	211.26
924.44	211.20
924.74	211.22
925.04	211.34
925.34	211.30
925.64	211.18
925.94	211.17
926.24	211.32
926.55	211.39
926.85	211.51
927.15	211.52
927.45	211.46
927.75	211.46
928.05	211.44
928.35	211.32
928.65	211.35
928.95	211.40
929.26	211.33
929.56	211.45
929.86	211.57
930.16	211.54
930.46	211.50
930.76	211.50
931.06	211.32
931.36	211.27
931.66	211.30
931.96	211.31
932.26	211.30
932.56	211.12
932.86	211.14
933.16	211.03
933.46	210.98
933.76	210.96
934.06	211.07
934.36	211.18
934.66	211.24
934.96	211.14
935.26	211.13
935.56	211.18
935.86	211.09
936.16	211.05
936.46	211.06
936.76	211.10
937.06	211.07
937.36	211.15
937.66	211.15
937.96	211.08
938.26	211.07
938.56	211.06
938.86	211.05
939.16	211.16
939.46	211.28
939.76	211.26
940.06	211.22
940.35	211.12
940.65	210.91
940.95	210.93
941.25	210.86
941.55	210.75
941.85	210.64
942.15	210.70
942.45	210.79
942.75	210.79
943.04	210.85
943.34	210.99
943.64	211.00
943.94	210.95
944.24	211.03
944.54	211.04
944.84	211.05
945.13	211.07
945.43	210.92
945.73	210.86
946.03	210.93
946.33	210.90
946.62	210.86
946.92	210.83
947.22	210.83
947.52	210.86
947.82	210.96
948.11	210.94
948.41	210.82
948.71	210.72
949.01	210.76
949.31	210.66
949.60	210.56
949.90	210.60
950.20	210.64
950.50	210.61
950.79	210.56
951.09	210.65
951.39	210.65
951.69	210.60
951.98	210.63
952.28	210.54
952.58	210.58
952.87	210.63
953.17	210.77
953.47	210.75
953.76	210.74
954.06	210.74
954.36	210.74
954.66	210.72
954.95	210.79
955.25	210.78
955.55	210.76
955.84	210.73
956.14	210.67
956.44	210.65
956.73	210.63
957.03	210.64
957.32	210.58
957.62	210.54
957.92	210.64
958.21	210.63
958.51	211.08
958.81	211.09
959.10	211.12
959.40	211.20
959.69	211.14
959.99	211.19
960.29	211.12
960.58	211.07
960.88	211.28
961.17	211.30
961.47	211.33
961.76	211.34
962.06	211.41
962.36	211.48
962.65	211.57
962.95	211.60
963.24	211.61
963.54	211.63
963.83	211.65
964.13	211.65
964.42	211.55
964.72	211.25
965.01	211.25
965.31	211.23
965.60	211.11
965.90	211.37
966.19	211.26
966.49	211.27
966.78	211.34
967.08	211.30
967.37	211.23
967.67	211.17
967.96	211.27
968.26	211.25
968.55	211.23
968.85	211.14
969.14	211.12
969.43	211.11
969.73	211.13
970.02	211.09
970.32	211.03
970.61	211.05
970.91	210.95
971.20	210.90
971.49	210.84
971.79	210.89
972.08	210.65
972.38	210.75
972.67	210.78
972.96	210.83
973.26	210.80
973.55	210.99
973.85	210.97
974.14	210.96
974.43	210.97
974.73	210.95
975.02	210.92
975.31	210.94
975.61	210.97
975.90	210.91
976.19	210.98
976.49	211.06
976.78	211.12
977.07	211.19
977.37	211.24
977.66	211.31
977.95	211.27
978.24	211.32
978.54	211.42
978.83	211.40
979.12	211.31
979.42	211.24
979.71	211.10
980.00	211.09
980.29	211.09
980.59	211.01
980.88	211.08
981.17	211.08
981.46	211.07
981.76	211.00
982.05	211.14
982.34	211.12
982.63	211.09
982.93	211.05
983.22	211.09
983.51	211.10
983.80	211.12
984.09	211.18
984.39	211.19
984.68	211.06
984.97	211.05
985.26	211.06
985.55	211.07
985.85	211.05
986.14	211.16
986.43	211.12
986.72	211.15
987.01	211.00
987.30	210.99
987.59	210.95
987.89	211.01
988.18	210.88
988.47	210.84
988.76	210.75
989.05	210.72
989.34	210.67
989.63	210.76
989.92	210.71
990.22	210.64
990.51	210.64
990.80	210.68
991.09	210.75
991.38	210.79
991.67	210.76
991.96	210.70
992.25	210.65
992.54	210.59
992.83	210.60
993.12	210.61
993.41	210.72
993.70	210.89
993.99	210.95
994.28	211.01
994.58	211.07
994.87	211.05
995.16	211.06
995.45	211.00
995.74	210.89
996.03	210.93
996.32	210.99
996.61	210.97
996.90	210.90
997.19	210.85
997.48	210.82
997.77	210.78
998.06	210.84
998.34	210.80
998.63	210.87
998.92	210.91
999.21	211.00
999.50	210.94
999.79	210.87
1000.08	210.83
1000.37	210.81
1000.66	210.73
1000.95	210.81
1001.24	210.78
1001.53	210.86
1001.82	210.83
1002.11	210.69
1002.40	210.69
1002.68	210.81
1002.97	211.09
1003.26	211.09
1003.55	211.07
1003.84	211.05
1004.13	211.13
1004.42	211.14
1004.71	211.08
1004.99	210.98
1005.28	211.04
1005.57	211.05
1005.86	210.96
1006.15	211.00
1006.44	210.95
1006.72	211.05
1007.01	211.02
1007.30	211.04
1007.59	211.02
1007.88	211.00
1008.17	211.09
1008.45	211.03
1008.74	210.87
1009.03	210.67
1009.32	210.64
1009.60	210.65
1009.89	210.64
1010.18	210.47
1010.47	210.48
1010.76	210.50
1011.04	210.52
1011.33	210.51
1011.62	210.46
1011.91	210.50
1012.19	210.51
1012.48	210.49
1012.77	210.49
1013.05	210.66
1013.34	210.68
1013.63	210.68
1013.92	210.68
1014.20	210.63
1014.49	210.59
1014.78	210.61
1015.06	210.57
1015.35	210.58
1015.64	210.60
1015.92	210.70
1016.21	210.72
1016.50	210.67
1016.78	210.71
1017.07	210.83
1017.36	210.69
1017.64	210.72
1017.93	210.73
1018.22	210.61
1018.50	210.63
1018.79	210.59
1019.08	210.42
1019.36	210.55
1019.65	210.45
1019.93	210.69
1020.22	210.77
1020.51	211.01
1020.79	211.01
1021.08	209.45
1021.36	210.10
1021.65	210.65
1021.94	210.70
1022.22	212.60
1022.51	209.20
1022.79	214.40
1023.08	211.40
1023.36	214.65
1023.65	210.05
>>>>>End Processed Spectral Data<<<<<
