SpectraSuite Data File
++++++++++++++++++++++++++++++++++++
Date: Mon Feb 25 16:56:11 EST 2013
User: group
Dark Spectrum Present: No
Reference Spectrum Present: No
Number of Sampled Component Spectra: 1
Spectrometers: USB2E7196
Integration Time (usec): 104000 (USB2E7196)
Spectra Averaged: 20 (USB2E7196)
Boxcar Smoothing: 10 (USB2E7196)
Correct for Electrical Dark: No (USB2E7196)
Strobe/Lamp Enabled: No (USB2E7196)
Correct for Detector Non-linearity: No (USB2E7196)
Correct for Stray Light: No (USB2E7196)
Number of Pixels in Processed Spectrum: 2048
>>>>>Begin Processed Spectral Data<<<<<
339.09	0.00
339.48	199.70
339.86	200.30
340.24	200.95
340.63	203.10
341.01	209.55
341.39	205.15
341.78	207.25
342.16	209.55
342.54	208.45
342.93	198.12
343.31	208.10
343.69	208.65
344.07	209.10
344.46	209.57
344.84	209.93
345.22	209.96
345.60	210.25
345.99	210.47
346.37	210.60
346.75	210.76
347.13	210.91
347.52	210.95
347.90	211.21
348.28	211.20
348.66	211.35
349.05	211.33
349.43	211.33
349.81	211.43
350.19	211.44
350.57	211.52
350.96	211.67
351.34	211.79
351.72	211.85
352.10	211.94
352.48	211.99
352.87	212.02
353.25	212.11
353.63	212.14
354.01	212.20
354.39	212.28
354.77	212.29
355.15	212.46
355.54	212.58
355.92	212.49
356.30	212.60
356.68	212.88
357.06	213.00
357.44	213.05
357.82	213.15
358.20	213.24
358.58	213.33
358.97	213.32
359.35	213.48
359.73	213.62
360.11	213.69
360.49	213.79
360.87	213.89
361.25	214.00
361.63	214.16
362.01	214.23
362.39	214.17
362.77	214.24
363.15	214.22
363.53	214.20
363.91	214.21
364.29	214.23
364.67	213.94
365.05	213.99
365.43	214.06
365.81	214.07
366.19	214.30
366.57	214.49
366.95	214.52
367.33	214.36
367.71	214.33
368.09	214.45
368.47	214.50
368.85	214.49
369.23	214.50
369.61	214.38
369.99	214.52
370.37	214.55
370.75	214.74
371.13	214.65
371.51	214.64
371.89	214.72
372.27	214.71
372.65	214.61
373.03	214.56
373.41	214.54
373.78	214.54
374.16	214.31
374.54	214.14
374.92	214.09
375.30	214.16
375.68	214.07
376.06	213.94
376.44	213.78
376.82	213.77
377.19	213.78
377.57	213.78
377.95	213.58
378.33	213.52
378.71	213.24
379.09	213.28
379.47	213.25
379.84	213.15
380.22	213.09
380.60	213.07
380.98	213.04
381.36	212.94
381.73	212.82
382.11	212.78
382.49	212.78
382.87	212.68
383.25	212.61
383.62	212.89
384.00	212.85
384.38	212.88
384.76	212.87
385.13	212.93
385.51	212.88
385.89	212.76
386.27	212.78
386.64	212.85
387.02	212.80
387.40	212.75
387.78	212.76
388.15	212.73
388.53	212.73
388.91	212.70
389.29	212.73
389.66	212.72
390.04	212.69
390.42	212.66
390.79	212.71
391.17	212.73
391.55	212.40
391.92	212.41
392.30	212.43
392.68	212.33
393.05	212.29
393.43	212.32
393.81	212.42
394.18	212.41
394.56	212.35
394.94	212.47
395.31	212.38
395.69	212.49
396.06	212.60
396.44	212.69
396.82	212.67
397.19	212.89
397.57	212.93
397.95	213.07
398.32	213.02
398.70	213.13
399.07	213.24
399.45	213.33
399.82	213.36
400.20	213.45
400.58	213.60
400.95	213.50
401.33	213.60
401.70	213.85
402.08	213.93
402.45	214.08
402.83	214.25
403.20	214.56
403.58	214.66
403.95	214.88
404.33	215.14
404.71	215.38
405.08	215.69
405.46	215.92
405.83	216.27
406.21	216.54
406.58	216.89
406.96	217.19
407.33	217.67
407.70	218.09
408.08	218.86
408.45	219.41
408.83	220.11
409.20	220.75
409.58	221.32
409.95	222.09
410.33	222.94
410.70	223.64
411.08	224.51
411.45	225.54
411.82	226.48
412.20	227.61
412.57	229.06
412.95	230.13
413.32	231.62
413.69	232.91
414.07	234.50
414.44	236.16
414.82	237.92
415.19	239.94
415.56	242.13
415.94	244.20
416.31	246.75
416.68	249.13
417.06	251.91
417.43	254.68
417.81	257.85
418.18	261.02
418.55	264.38
418.93	267.99
419.30	271.66
419.67	275.73
420.04	279.83
420.42	284.04
420.79	288.99
421.16	294.01
421.54	299.26
421.91	304.70
422.28	310.28
422.66	316.25
423.03	322.14
423.40	328.30
423.77	334.71
424.15	341.41
424.52	348.50
424.89	356.05
425.26	363.34
425.64	370.35
426.01	378.12
426.38	386.30
426.75	394.52
427.13	403.21
427.50	412.19
427.87	421.57
428.24	431.11
428.61	440.20
428.99	450.04
429.36	460.93
429.73	471.74
430.10	482.30
430.47	493.35
430.85	504.57
431.22	516.40
431.59	529.35
431.96	541.38
432.33	555.02
432.70	568.35
433.08	583.97
433.45	598.62
433.82	613.28
434.19	629.67
434.56	645.78
434.93	661.34
435.30	677.09
435.68	694.54
436.05	711.71
436.42	728.93
436.79	744.84
437.16	761.90
437.53	779.83
437.90	797.85
438.27	815.59
438.64	834.26
439.01	851.55
439.38	867.18
439.75	882.46
440.13	899.50
440.50	915.78
440.87	929.32
441.24	943.47
441.61	959.09
441.98	970.90
442.35	984.87
442.72	998.56
443.09	1011.65
443.46	1020.09
443.83	1026.33
444.20	1031.70
444.57	1039.28
444.94	1043.64
445.31	1047.98
445.68	1052.25
446.05	1054.87
446.42	1054.41
446.79	1053.90
447.16	1052.94
447.53	1052.62
447.90	1047.45
448.27	1042.12
448.64	1034.25
449.01	1028.92
449.37	1018.29
449.74	1007.94
450.11	995.15
450.48	981.42
450.85	967.36
451.22	955.37
451.59	943.90
451.96	933.23
452.33	918.15
452.70	904.66
453.07	888.24
453.43	871.69
453.80	855.74
454.17	840.48
454.54	825.88
454.91	810.22
455.28	795.10
455.65	780.97
456.02	766.74
456.38	754.64
456.75	739.31
457.12	726.64
457.49	714.17
457.86	702.06
458.23	691.55
458.59	680.19
458.96	668.55
459.33	658.20
459.70	647.73
460.07	639.48
460.43	629.95
460.80	621.21
461.17	613.30
461.54	605.13
461.91	597.44
462.27	589.56
462.64	582.78
463.01	575.32
463.38	568.05
463.74	560.82
464.11	554.55
464.48	549.00
464.85	543.00
465.21	538.29
465.58	533.35
465.95	527.46
466.32	522.47
466.68	517.63
467.05	512.74
467.42	507.98
467.78	503.08
468.15	498.27
468.52	494.64
468.88	490.16
469.25	485.83
469.62	482.29
469.98	478.58
470.35	475.15
470.72	471.73
471.08	468.25
471.45	465.31
471.82	462.07
472.18	458.82
472.55	456.38
472.92	453.65
473.28	451.21
473.65	448.88
474.02	446.50
474.38	444.55
474.75	442.95
475.11	441.03
475.48	439.61
475.85	438.48
476.21	437.26
476.58	436.16
476.94	435.54
477.31	434.69
477.67	433.85
478.04	433.30
478.41	432.90
478.77	432.96
479.14	432.51
479.50	432.55
479.87	432.72
480.23	433.07
480.60	433.11
480.96	433.10
481.33	433.66
481.69	434.17
482.06	434.69
482.42	435.15
482.79	435.81
483.15	436.75
483.52	437.97
483.88	439.05
484.25	440.20
484.61	441.47
484.98	442.75
485.34	444.51
485.71	446.18
486.07	448.08
486.44	449.83
486.80	452.09
487.17	454.24
487.53	456.90
487.90	459.46
488.26	462.38
488.62	465.58
488.99	468.59
489.35	471.79
489.72	475.19
490.08	478.73
490.44	482.35
490.81	486.25
491.17	490.01
491.54	494.30
491.90	498.64
492.26	503.15
492.63	507.95
492.99	512.82
493.36	518.04
493.72	523.34
494.08	528.71
494.45	534.33
494.81	540.49
495.17	546.11
495.54	552.36
495.90	558.76
496.26	565.15
496.63	571.90
496.99	578.63
497.35	585.65
497.72	593.00
498.08	600.44
498.44	607.96
498.80	616.06
499.17	624.03
499.53	632.18
499.89	640.54
500.26	648.70
500.62	657.02
500.98	665.53
501.34	674.16
501.71	683.01
502.07	691.77
502.43	700.45
502.79	709.60
503.16	718.54
503.52	727.64
503.88	736.85
504.24	746.19
504.60	755.81
504.97	765.51
505.33	774.96
505.69	785.13
506.05	794.86
506.41	804.30
506.78	813.79
507.14	823.20
507.50	832.70
507.86	842.47
508.22	852.08
508.59	861.67
508.95	871.46
509.31	881.09
509.67	890.81
510.03	900.54
510.39	910.68
510.75	920.50
511.12	930.25
511.48	939.76
511.84	949.03
512.20	958.34
512.56	967.62
512.92	977.19
513.28	986.28
513.64	995.28
514.00	1004.30
514.37	1013.06
514.73	1022.14
515.09	1031.19
515.45	1039.74
515.81	1048.19
516.17	1056.58
516.53	1064.88
516.89	1072.84
517.25	1080.77
517.61	1088.55
517.97	1095.80
518.33	1103.27
518.69	1110.51
519.05	1118.05
519.41	1125.56
519.77	1132.95
520.13	1139.88
520.49	1146.35
520.85	1152.89
521.21	1159.63
521.57	1166.25
521.93	1172.50
522.29	1178.95
522.65	1184.95
523.01	1191.28
523.37	1197.05
523.73	1202.96
524.09	1208.55
524.45	1214.50
524.81	1220.26
525.17	1226.14
525.53	1231.73
525.89	1237.16
526.25	1242.44
526.61	1247.03
526.97	1251.66
527.33	1256.57
527.68	1261.48
528.04	1266.35
528.40	1270.54
528.76	1274.88
529.12	1279.40
529.48	1284.46
529.84	1288.53
530.20	1292.78
530.56	1296.75
530.91	1301.39
531.27	1305.73
531.63	1309.58
531.99	1313.34
532.35	1316.92
532.71	1320.22
533.07	1324.05
533.42	1327.72
533.78	1331.28
534.14	1335.08
534.50	1338.13
534.86	1341.29
535.21	1344.22
535.57	1347.57
535.93	1350.67
536.29	1353.58
536.65	1356.20
537.00	1358.41
537.36	1360.60
537.72	1362.83
538.08	1365.09
538.44	1367.42
538.79	1369.76
539.15	1372.33
539.51	1374.85
539.87	1377.63
540.22	1380.26
540.58	1382.76
540.94	1385.03
541.29	1386.94
541.65	1388.41
542.01	1390.56
542.37	1392.22
542.72	1393.87
543.08	1395.12
543.44	1397.00
543.79	1398.04
544.15	1399.25
544.51	1401.12
544.87	1403.09
545.22	1404.39
545.58	1405.79
545.94	1406.56
546.29	1406.93
546.65	1407.40
547.01	1407.60
547.36	1407.88
547.72	1408.07
548.07	1407.96
548.43	1407.51
548.79	1407.57
549.14	1407.89
549.50	1407.97
549.86	1407.91
550.21	1407.80
550.57	1408.01
550.92	1407.61
551.28	1407.75
551.64	1407.62
551.99	1407.31
552.35	1406.91
552.70	1406.82
553.06	1406.43
553.41	1406.10
553.77	1406.16
554.13	1406.09
554.48	1406.31
554.84	1406.37
555.19	1405.97
555.55	1405.75
555.90	1405.53
556.26	1405.17
556.61	1404.58
556.97	1403.85
557.32	1403.57
557.68	1402.81
558.03	1401.85
558.39	1400.90
558.74	1400.21
559.10	1399.71
559.45	1399.02
559.81	1398.51
560.16	1397.29
560.52	1396.48
560.87	1395.63
561.23	1394.30
561.58	1393.70
561.94	1392.23
562.29	1390.28
562.64	1389.41
563.00	1388.45
563.35	1387.42
563.71	1386.79
564.06	1385.94
564.42	1385.53
564.77	1384.67
565.12	1384.32
565.48	1383.94
565.83	1383.40
566.19	1383.12
566.54	1381.95
566.89	1380.67
567.25	1379.92
567.60	1379.33
567.96	1378.87
568.31	1378.52
568.66	1377.65
569.02	1375.94
569.37	1374.44
569.72	1373.40
570.08	1371.66
570.43	1369.99
570.78	1368.46
571.14	1366.11
571.49	1364.15
571.84	1362.26
572.20	1360.02
572.55	1357.60
572.90	1354.80
573.26	1352.15
573.61	1349.26
573.96	1346.85
574.31	1344.16
574.67	1340.58
575.02	1337.14
575.37	1333.55
575.72	1329.61
576.08	1326.67
576.43	1323.21
576.78	1319.90
577.13	1317.00
577.49	1314.07
577.84	1310.70
578.19	1307.79
578.54	1305.24
578.90	1302.63
579.25	1299.17
579.60	1295.66
579.95	1292.10
580.30	1288.99
580.66	1286.20
581.01	1282.40
581.36	1278.63
581.71	1274.86
582.06	1271.70
582.42	1268.42
582.77	1264.58
583.12	1260.90
583.47	1257.11
583.82	1253.52
584.17	1249.92
584.53	1246.24
584.88	1242.43
585.23	1238.38
585.58	1234.42
585.93	1230.21
586.28	1226.11
586.63	1222.18
586.98	1218.32
587.34	1214.77
587.69	1210.60
588.04	1206.37
588.39	1202.60
588.74	1198.55
589.09	1194.88
589.44	1190.51
589.79	1186.87
590.14	1183.23
590.49	1179.59
590.84	1175.43
591.19	1172.19
591.54	1168.43
591.89	1163.91
592.25	1159.90
592.60	1155.78
592.95	1151.22
593.30	1146.69
593.65	1141.74
594.00	1137.28
594.35	1134.16
594.70	1129.75
595.05	1125.66
595.40	1121.38
595.75	1116.99
596.10	1112.95
596.45	1108.70
596.80	1104.98
597.15	1100.70
597.50	1096.20
597.85	1091.97
598.19	1087.70
598.54	1083.19
598.89	1078.98
599.24	1075.42
599.59	1071.02
599.94	1067.21
600.29	1063.20
600.64	1059.25
600.99	1055.24
601.34	1051.34
601.69	1046.01
602.04	1041.59
602.39	1037.45
602.74	1033.17
603.08	1029.46
603.43	1025.75
603.78	1021.52
604.13	1017.14
604.48	1013.09
604.83	1009.62
605.18	1005.73
605.53	1001.60
605.87	997.13
606.22	992.92
606.57	988.22
606.92	983.95
607.27	979.32
607.62	975.11
607.96	971.05
608.31	967.51
608.66	963.06
609.01	958.82
609.36	954.86
609.70	950.09
610.05	945.43
610.40	940.83
610.75	935.92
611.10	931.70
611.44	926.94
611.79	922.04
612.14	917.16
612.49	912.31
612.83	907.95
613.18	903.23
613.53	898.61
613.88	893.74
614.22	889.26
614.57	884.77
614.92	880.10
615.27	875.41
615.61	870.44
615.96	866.19
616.31	861.95
616.65	857.64
617.00	853.60
617.35	849.66
617.70	845.04
618.04	840.55
618.39	835.75
618.74	831.50
619.08	827.18
619.43	822.90
619.78	818.82
620.12	814.55
620.47	810.55
620.82	806.12
621.16	801.98
621.51	797.70
621.85	793.67
622.20	789.50
622.55	785.24
622.89	781.04
623.24	776.55
623.59	772.00
623.93	767.52
624.28	763.40
624.62	759.43
624.97	755.54
625.32	751.64
625.66	747.94
626.01	743.91
626.35	740.14
626.70	736.06
627.04	731.96
627.39	728.08
627.73	724.32
628.08	721.05
628.43	717.23
628.77	713.50
629.12	709.45
629.46	705.73
629.81	702.06
630.15	698.31
630.50	694.61
630.84	690.91
631.19	687.36
631.53	683.74
631.88	679.75
632.22	676.00
632.57	672.66
632.91	669.14
633.26	665.69
633.60	661.95
633.95	658.55
634.29	655.10
634.64	651.67
634.98	648.01
635.32	644.53
635.67	641.43
636.01	638.15
636.36	634.95
636.70	631.70
637.05	628.45
637.39	625.50
637.73	622.54
638.08	619.90
638.42	617.04
638.77	613.86
639.11	610.86
639.45	607.93
639.80	604.64
640.14	601.36
640.49	598.12
640.83	595.26
641.17	592.09
641.52	588.97
641.86	585.74
642.20	582.98
642.55	579.47
642.89	576.25
643.23	573.04
643.58	570.34
643.92	567.25
644.26	564.35
644.61	561.42
644.95	558.46
645.29	555.17
645.64	552.11
645.98	549.17
646.32	546.28
646.66	543.26
647.01	540.28
647.35	537.46
647.69	534.64
648.04	531.80
648.38	529.06
648.72	526.21
649.06	523.35
649.41	520.46
649.75	517.97
650.09	515.44
650.43	512.85
650.78	509.82
651.12	507.17
651.46	504.46
651.80	501.69
652.14	499.12
652.49	496.60
652.83	493.86
653.17	491.15
653.51	488.57
653.85	486.28
654.20	483.74
654.54	481.15
654.88	478.64
655.22	476.08
655.56	473.48
655.90	470.95
656.25	468.56
656.59	465.97
656.93	463.48
657.27	461.12
657.61	458.38
657.95	456.04
658.29	453.58
658.64	451.30
658.98	448.91
659.32	446.35
659.66	443.99
660.00	441.62
660.34	439.31
660.68	437.01
661.02	434.46
661.36	432.26
661.70	430.11
662.05	427.94
662.39	425.94
662.73	423.98
663.07	422.20
663.41	420.16
663.75	418.19
664.09	416.15
664.43	413.99
664.77	412.21
665.11	410.15
665.45	408.36
665.79	406.36
666.13	404.43
666.47	402.59
666.81	400.78
667.15	398.91
667.49	397.17
667.83	395.43
668.17	393.71
668.51	391.98
668.85	390.24
669.19	388.78
669.53	386.92
669.87	385.11
670.21	383.25
670.55	381.58
670.89	380.21
671.23	378.71
671.57	377.14
671.91	375.52
672.25	374.06
672.58	372.52
672.92	370.96
673.26	369.54
673.60	368.10
673.94	366.50
674.28	365.10
674.62	363.75
674.96	362.31
675.30	360.95
675.64	359.64
675.97	358.30
676.31	356.78
676.65	355.43
676.99	354.20
677.33	352.83
677.67	351.57
678.01	349.93
678.34	348.54
678.68	347.25
679.02	345.90
679.36	344.62
679.70	343.21
680.04	341.98
680.37	340.62
680.71	339.26
681.05	338.02
681.39	336.78
681.73	335.48
682.06	334.22
682.40	333.07
682.74	331.84
683.08	330.66
683.42	329.42
683.75	328.26
684.09	327.02
684.43	325.91
684.77	324.62
685.10	323.47
685.44	322.25
685.78	321.04
686.12	320.06
686.45	318.91
686.79	317.83
687.13	316.78
687.46	315.71
687.80	314.76
688.14	313.83
688.48	312.80
688.81	311.77
689.15	310.85
689.49	309.74
689.82	308.69
690.16	307.58
690.50	306.58
690.83	305.47
691.17	304.37
691.51	303.25
691.84	302.28
692.18	301.32
692.52	300.44
692.85	299.58
693.19	298.68
693.52	297.79
693.86	296.81
694.20	295.85
694.53	295.01
694.87	293.99
695.21	293.01
695.54	292.11
695.88	291.12
696.21	290.10
696.55	289.23
696.88	288.31
697.22	287.40
697.56	286.65
697.89	285.84
698.23	285.09
698.56	284.27
698.90	283.55
699.23	282.77
699.57	281.99
699.90	281.16
700.24	280.28
700.58	279.58
700.91	278.95
701.25	278.42
701.58	277.76
701.92	277.12
702.25	276.36
702.59	275.59
702.92	274.97
703.26	274.27
703.59	273.64
703.93	273.22
704.26	272.65
704.60	271.90
704.93	271.30
705.26	270.64
705.60	270.14
705.93	269.46
706.27	268.90
706.60	268.33
706.94	267.83
707.27	267.25
707.61	266.52
707.94	265.80
708.27	264.96
708.61	264.22
708.94	263.67
709.28	263.14
709.61	262.58
709.94	262.06
710.28	261.69
710.61	261.20
710.95	260.40
711.28	260.15
711.61	259.68
711.95	259.27
712.28	258.78
712.61	258.23
712.95	257.91
713.28	257.62
713.61	256.99
713.95	256.43
714.28	255.91
714.61	255.51
714.95	255.02
715.28	254.61
715.61	254.15
715.95	253.64
716.28	253.19
716.61	252.81
716.95	252.34
717.28	251.80
717.61	251.32
717.94	250.97
718.28	250.26
718.61	249.80
718.94	249.33
719.27	248.84
719.61	248.40
719.94	247.89
720.27	247.24
720.60	246.95
720.94	246.61
721.27	246.28
721.60	245.91
721.93	245.59
722.27	245.39
722.60	245.17
722.93	244.85
723.26	244.52
723.59	244.13
723.93	243.83
724.26	243.47
724.59	243.05
724.92	242.73
725.25	242.51
725.59	242.28
725.92	242.00
726.25	241.72
726.58	241.47
726.91	241.23
727.24	241.01
727.57	240.65
727.91	240.30
728.24	240.00
728.57	239.68
728.90	239.45
729.23	238.97
729.56	238.82
729.89	238.51
730.22	238.25
730.55	237.96
730.89	237.66
731.22	237.38
731.55	237.09
731.88	236.82
732.21	236.53
732.54	236.09
732.87	235.88
733.20	235.63
733.53	235.44
733.86	235.15
734.19	234.86
734.52	234.70
734.85	234.73
735.18	234.47
735.51	234.34
735.84	234.10
736.17	234.06
736.50	233.61
736.83	233.81
737.16	233.55
737.49	233.40
737.82	233.17
738.15	232.94
738.48	232.78
738.81	232.64
739.14	232.36
739.47	232.14
739.80	231.81
740.13	231.63
740.46	231.32
740.79	231.09
741.12	230.86
741.45	230.53
741.78	230.17
742.11	230.13
742.44	229.90
742.77	229.81
743.10	229.50
743.43	229.30
743.75	228.74
744.08	229.04
744.41	228.72
744.74	228.54
745.07	228.30
745.40	228.22
745.73	228.04
746.06	227.90
746.39	227.82
746.71	227.66
747.04	227.49
747.37	227.40
747.70	227.26
748.03	227.12
748.36	227.12
748.68	226.88
749.01	226.52
749.34	226.32
749.67	226.17
750.00	226.10
750.33	226.19
750.65	226.01
750.98	225.45
751.31	225.37
751.64	225.30
751.97	225.42
752.29	225.25
752.62	225.04
752.95	224.86
753.28	224.74
753.60	224.55
753.93	224.54
754.26	224.33
754.59	224.09
754.91	223.95
755.24	223.80
755.57	223.70
755.90	223.60
756.22	223.41
756.55	223.15
756.88	222.88
757.20	222.60
757.53	222.45
757.86	222.26
758.19	222.15
758.51	222.04
758.84	221.67
759.17	221.52
759.49	221.41
759.82	221.51
760.15	221.36
760.47	221.31
760.80	221.03
761.13	220.99
761.45	220.86
761.78	220.74
762.11	220.60
762.43	220.42
762.76	220.30
763.08	220.27
763.41	220.21
763.74	220.14
764.06	220.01
764.39	219.87
764.71	219.82
765.04	219.70
765.37	219.51
765.69	219.42
766.02	219.26
766.34	219.16
766.67	218.90
767.00	218.84
767.32	218.85
767.65	219.00
767.97	218.91
768.30	218.91
768.62	218.84
768.95	218.70
769.27	218.69
769.60	218.66
769.92	218.54
770.25	218.40
770.57	218.28
770.90	218.17
771.22	218.07
771.55	218.06
771.87	218.04
772.20	217.90
772.52	218.14
772.85	218.51
773.17	218.45
773.50	218.37
773.82	218.29
774.15	218.12
774.47	217.85
774.80	217.77
775.12	217.73
775.45	217.62
775.77	217.64
776.09	217.60
776.42	217.55
776.74	217.57
777.07	217.50
777.39	217.49
777.72	217.43
778.04	217.51
778.36	217.35
778.69	217.26
779.01	217.34
779.33	216.94
779.66	216.52
779.98	216.47
780.31	216.40
780.63	216.50
780.95	216.55
781.28	216.50
781.60	216.41
781.92	216.38
782.25	216.40
782.57	216.32
782.89	216.27
783.22	216.16
783.54	216.07
783.86	216.10
784.19	216.04
784.51	216.10
784.83	215.94
785.16	216.00
785.48	215.96
785.80	215.96
786.12	215.98
786.45	215.99
786.77	215.95
787.09	215.86
787.42	215.74
787.74	215.67
788.06	215.64
788.38	215.55
788.71	215.41
789.03	215.24
789.35	215.28
789.67	215.13
789.99	215.23
790.32	215.19
790.64	215.15
790.96	215.42
791.28	215.26
791.61	215.21
791.93	215.13
792.25	215.13
792.57	215.25
792.89	215.20
793.21	215.14
793.54	215.08
793.86	215.13
794.18	215.10
794.50	214.99
794.82	214.97
795.14	215.08
795.47	215.18
795.79	215.25
796.11	215.14
796.43	215.18
796.75	215.08
797.07	215.08
797.39	215.08
797.71	214.85
798.04	214.86
798.36	214.83
798.68	214.79
799.00	214.84
799.32	214.68
799.64	214.75
799.96	214.72
800.28	214.79
800.60	214.67
800.92	214.70
801.24	214.68
801.56	214.64
801.89	214.59
802.21	214.58
802.53	214.48
802.85	214.54
803.17	214.69
803.49	214.59
803.81	214.54
804.13	214.40
804.45	214.30
804.77	214.32
805.09	214.42
805.41	214.35
805.73	214.22
806.05	214.13
806.37	214.05
806.69	214.06
807.01	213.93
807.33	213.95
807.65	213.80
807.97	213.90
808.28	213.87
808.60	213.77
808.92	213.63
809.24	213.86
809.56	213.80
809.88	213.65
810.20	213.63
810.52	213.60
810.84	213.56
811.16	213.48
811.48	213.44
811.80	213.49
812.12	213.43
812.43	213.43
812.75	213.37
813.07	213.32
813.39	213.26
813.71	213.17
814.03	213.11
814.35	213.13
814.67	213.00
814.98	212.98
815.30	212.99
815.62	212.95
815.94	212.66
816.26	212.59
816.58	212.50
816.89	212.59
817.21	212.54
817.53	212.57
817.85	212.58
818.17	212.52
818.48	212.32
818.80	212.44
819.12	212.34
819.44	212.25
819.76	212.20
820.07	212.21
820.39	212.29
820.71	212.28
821.03	212.19
821.34	212.18
821.66	212.15
821.98	212.14
822.30	212.20
822.61	212.42
822.93	212.47
823.25	212.45
823.57	212.41
823.88	212.44
824.20	212.46
824.52	212.53
824.83	212.48
825.15	212.49
825.47	212.49
825.79	212.56
826.10	212.58
826.42	212.58
826.74	212.58
827.05	212.56
827.37	212.53
827.69	212.50
828.00	212.54
828.32	212.59
828.64	212.61
828.95	212.70
829.27	212.61
829.58	212.56
829.90	212.54
830.22	212.48
830.53	212.44
830.85	212.39
831.17	212.30
831.48	212.38
831.80	212.35
832.11	212.26
832.43	212.19
832.75	212.18
833.06	212.36
833.38	212.25
833.69	212.21
834.01	212.30
834.32	212.35
834.64	212.26
834.96	212.28
835.27	212.25
835.59	212.09
835.90	212.01
836.22	212.01
836.53	212.00
836.85	211.99
837.16	212.34
837.48	212.35
837.79	212.42
838.11	212.43
838.42	212.44
838.74	212.48
839.05	212.41
839.37	212.35
839.68	212.11
840.00	212.04
840.31	212.13
840.63	212.10
840.94	212.03
841.26	212.00
841.57	211.88
841.88	211.89
842.20	211.87
842.51	211.84
842.83	211.86
843.14	212.17
843.46	212.18
843.77	212.01
844.08	211.97
844.40	211.85
844.71	211.75
845.03	211.78
845.34	211.72
845.65	211.81
845.97	211.86
846.28	211.85
846.60	211.92
846.91	211.84
847.22	211.78
847.54	211.86
847.85	211.91
848.16	211.89
848.48	211.80
848.79	211.95
849.10	212.01
849.42	211.94
849.73	211.62
850.04	211.60
850.36	211.40
850.67	211.53
850.98	211.55
851.30	211.62
851.61	211.52
851.92	211.64
852.23	211.68
852.55	211.64
852.86	211.69
853.17	211.78
853.49	211.83
853.80	211.90
854.11	212.01
854.42	212.03
854.74	212.02
855.05	212.05
855.36	211.83
855.67	211.74
855.99	211.86
856.30	212.26
856.61	212.27
856.92	212.22
857.23	212.16
857.55	212.13
857.86	212.08
858.17	212.13
858.48	211.98
858.79	211.92
859.11	211.98
859.42	212.00
859.73	211.89
860.04	211.87
860.35	211.83
860.66	211.66
860.98	211.59
861.29	211.64
861.60	211.60
861.91	211.74
862.22	211.74
862.53	211.65
862.84	211.30
863.16	211.35
863.47	211.33
863.78	211.36
864.09	211.36
864.40	211.37
864.71	211.39
865.02	211.44
865.33	211.43
865.64	211.38
865.95	211.32
866.27	211.57
866.58	211.51
866.89	211.47
867.20	211.45
867.51	211.48
867.82	211.46
868.13	211.56
868.44	211.42
868.75	211.50
869.06	211.47
869.37	211.42
869.68	211.30
869.99	211.41
870.30	211.37
870.61	211.50
870.92	211.52
871.23	211.51
871.54	211.55
871.85	211.62
872.16	211.70
872.47	211.70
872.78	211.47
873.09	211.56
873.40	211.53
873.71	211.58
874.02	211.51
874.33	211.49
874.64	211.45
874.95	211.54
875.26	211.44
875.56	211.47
875.87	211.55
876.18	211.61
876.49	211.89
876.80	211.80
877.11	211.68
877.42	211.66
877.73	211.69
878.04	211.62
878.35	211.62
878.66	211.56
878.96	211.57
879.27	211.63
879.58	211.59
879.89	211.62
880.20	211.71
880.51	211.72
880.82	211.77
881.12	211.84
881.43	211.78
881.74	211.77
882.05	211.68
882.36	211.70
882.67	211.68
882.97	211.31
883.28	211.33
883.59	211.28
883.90	211.31
884.21	211.38
884.51	211.34
884.82	211.31
885.13	211.33
885.44	211.35
885.74	211.28
886.05	211.20
886.36	211.18
886.67	211.08
886.98	211.25
887.28	211.23
887.59	211.21
887.90	211.29
888.20	211.30
888.51	211.45
888.82	211.39
889.13	211.35
889.43	211.67
889.74	211.64
890.05	211.65
890.35	211.55
890.66	211.44
890.97	211.52
891.28	211.38
891.58	211.40
891.89	211.38
892.20	211.37
892.50	211.37
892.81	211.37
893.12	211.32
893.42	211.20
893.73	211.17
894.04	211.17
894.34	211.18
894.65	211.11
894.95	211.07
895.26	211.06
895.57	211.34
895.87	210.98
896.18	211.12
896.48	211.15
896.79	211.24
897.10	211.33
897.40	211.36
897.71	211.49
898.01	211.47
898.32	211.43
898.63	211.48
898.93	211.52
899.24	211.60
899.54	211.61
899.85	211.55
900.15	211.51
900.46	211.46
900.76	211.44
901.07	211.50
901.38	211.53
901.68	211.54
901.99	211.32
902.29	211.43
902.60	211.34
902.90	211.34
903.21	211.35
903.51	211.35
903.82	211.32
904.12	211.25
904.43	211.32
904.73	211.33
905.03	211.24
905.34	211.46
905.64	211.38
905.95	211.39
906.25	211.46
906.56	211.47
906.86	211.53
907.17	211.49
907.47	211.48
907.77	211.37
908.08	211.24
908.38	211.21
908.69	211.12
908.99	211.20
909.30	211.22
909.60	211.18
909.90	211.18
910.21	211.17
910.51	211.15
910.81	211.09
911.12	211.13
911.42	211.16
911.73	210.90
912.03	210.89
912.33	210.95
912.64	210.88
912.94	210.92
913.24	210.80
913.55	210.83
913.85	210.80
914.15	210.85
914.46	210.99
914.76	210.96
915.06	210.99
915.37	210.92
915.67	210.89
915.97	210.85
916.27	210.81
916.58	210.79
916.88	210.88
917.18	210.85
917.49	211.10
917.79	211.09
918.09	211.25
918.39	211.41
918.70	211.45
919.00	211.47
919.30	211.55
919.60	211.57
919.91	211.46
920.21	211.52
920.51	211.47
920.81	211.41
921.12	211.51
921.42	211.52
921.72	211.58
922.02	211.63
922.32	211.67
922.63	211.60
922.93	211.84
923.23	211.73
923.53	211.73
923.83	211.50
924.13	211.53
924.44	211.47
924.74	211.45
925.04	211.48
925.34	211.49
925.64	211.36
925.94	211.38
926.24	211.65
926.55	211.61
926.85	211.72
927.15	211.72
927.45	211.72
927.75	211.68
928.05	211.64
928.35	211.57
928.65	211.65
928.95	211.72
929.26	211.54
929.56	211.63
929.86	211.67
930.16	211.67
930.46	211.66
930.76	211.59
931.06	211.49
931.36	211.39
931.66	211.43
931.96	211.47
932.26	211.57
932.56	211.34
932.86	211.32
933.16	211.30
933.46	211.31
933.76	211.28
934.06	211.39
934.36	211.52
934.66	211.57
934.96	211.54
935.26	211.54
935.56	211.61
935.86	211.54
936.16	211.49
936.46	211.38
936.76	211.35
937.06	211.37
937.36	211.40
937.66	211.38
937.96	211.40
938.26	211.33
938.56	211.24
938.86	211.32
939.16	211.43
939.46	211.41
939.76	211.50
940.06	211.49
940.35	211.39
940.65	211.27
940.95	211.18
941.25	211.11
941.55	211.05
941.85	211.00
942.15	211.13
942.45	211.23
942.75	211.31
943.04	211.38
943.34	211.42
943.64	211.38
943.94	211.32
944.24	211.27
944.54	211.33
944.84	211.35
945.13	211.34
945.43	211.31
945.73	211.25
946.03	211.18
946.33	211.09
946.62	211.16
946.92	211.12
947.22	211.22
947.52	211.19
947.82	211.22
948.11	211.14
948.41	211.02
948.71	210.89
949.01	210.84
949.31	210.86
949.60	210.82
949.90	210.89
950.20	210.88
950.50	210.88
950.79	210.87
951.09	210.85
951.39	210.89
951.69	210.86
951.98	210.95
952.28	210.91
952.58	210.95
952.87	210.90
953.17	210.90
953.47	210.89
953.76	210.94
954.06	210.94
954.36	210.93
954.66	210.90
954.95	211.04
955.25	211.08
955.55	211.08
955.84	211.07
956.14	211.10
956.44	211.19
956.73	211.18
957.03	211.13
957.32	211.19
957.62	211.14
957.92	211.19
958.21	211.18
958.51	211.66
958.81	211.68
959.10	211.68
959.40	211.75
959.69	211.67
959.99	211.68
960.29	211.72
960.58	211.76
960.88	211.94
961.17	211.90
961.47	211.90
961.76	211.79
962.06	211.83
962.36	211.73
962.65	211.71
962.95	211.72
963.24	211.71
963.54	211.74
963.83	211.71
964.13	211.67
964.42	211.58
964.72	211.24
965.01	211.30
965.31	211.33
965.60	211.22
965.90	211.54
966.19	211.52
966.49	211.41
966.78	211.35
967.08	211.30
967.37	211.28
967.67	211.33
967.96	211.48
968.26	211.45
968.55	211.54
968.85	211.55
969.14	211.51
969.43	211.58
969.73	211.51
970.02	211.44
970.32	211.40
970.61	211.36
970.91	211.26
971.20	211.16
971.49	211.13
971.79	211.25
972.08	210.90
972.38	210.94
972.67	211.04
972.96	211.06
973.26	210.99
973.55	211.06
973.85	210.98
974.14	210.93
974.43	210.97
974.73	210.82
975.02	210.72
975.31	210.80
975.61	210.77
975.90	210.76
976.19	210.80
976.49	210.88
976.78	210.98
977.07	210.95
977.37	211.03
977.66	211.08
977.95	210.97
978.24	211.10
978.54	211.17
978.83	211.15
979.12	211.20
979.42	211.20
979.71	211.10
980.00	211.11
980.29	211.08
980.59	211.03
980.88	211.18
981.17	211.21
981.46	211.22
981.76	211.22
982.05	211.33
982.34	211.37
982.63	211.32
982.93	211.35
983.22	211.42
983.51	211.38
983.80	211.35
984.09	211.43
984.39	211.40
984.68	211.26
984.97	211.26
985.26	211.23
985.55	211.25
985.85	211.25
986.14	211.23
986.43	211.32
986.72	211.28
987.01	211.18
987.30	211.17
987.59	211.16
987.89	211.21
988.18	211.08
988.47	211.01
988.76	210.97
989.05	210.93
989.34	210.90
989.63	211.00
989.92	211.08
990.22	210.99
990.51	210.96
990.80	210.94
991.09	210.96
991.38	211.03
991.67	210.97
991.96	210.95
992.25	210.99
992.54	210.92
992.83	210.92
993.12	210.91
993.41	211.00
993.70	211.03
993.99	211.09
994.28	211.15
994.58	211.21
994.87	211.19
995.16	211.13
995.45	211.04
995.74	210.91
996.03	210.89
996.32	210.94
996.61	211.05
996.90	211.06
997.19	211.05
997.48	210.99
997.77	210.85
998.06	210.90
998.34	210.87
998.63	210.89
998.92	210.96
999.21	211.01
999.50	211.03
999.79	210.96
1000.08	210.90
1000.37	210.85
1000.66	210.82
1000.95	210.90
1001.24	210.91
1001.53	211.01
1001.82	210.94
1002.11	210.82
1002.40	210.89
1002.68	210.90
1002.97	211.14
1003.26	211.05
1003.55	210.96
1003.84	211.06
1004.13	211.14
1004.42	211.17
1004.71	211.19
1004.99	211.13
1005.28	211.22
1005.57	211.20
1005.86	211.17
1006.15	211.17
1006.44	211.14
1006.72	211.22
1007.01	211.22
1007.30	211.20
1007.59	211.16
1007.88	211.23
1008.17	211.30
1008.45	211.20
1008.74	211.07
1009.03	210.92
1009.32	210.95
1009.60	211.00
1009.89	210.97
1010.18	210.80
1010.47	210.76
1010.76	210.69
1011.04	210.74
1011.33	210.75
1011.62	210.71
1011.91	210.73
1012.19	210.69
1012.48	210.65
1012.77	210.62
1013.05	210.78
1013.34	210.85
1013.63	210.85
1013.92	210.93
1014.20	210.91
1014.49	210.89
1014.78	210.96
1015.06	210.86
1015.35	210.87
1015.64	210.94
1015.92	211.06
1016.21	211.11
1016.50	211.16
1016.78	211.21
1017.07	211.18
1017.36	211.07
1017.64	211.01
1017.93	211.10
1018.22	211.15
1018.50	211.26
1018.79	211.20
1019.08	211.06
1019.36	211.06
1019.65	211.06
1019.93	211.15
1020.22	211.23
1020.51	211.43
1020.79	211.37
1021.08	211.55
1021.36	211.25
1021.65	210.40
1021.94	211.10
1022.22	211.40
1022.51	211.25
1022.79	213.45
1023.08	212.65
1023.36	214.05
1023.65	210.40
>>>>>End Processed Spectral Data<<<<<
