SpectraSuite Data File
++++++++++++++++++++++++++++++++++++
Date: Mon Feb 25 17:07:04 EST 2013
User: group
Dark Spectrum Present: No
Reference Spectrum Present: No
Number of Sampled Component Spectra: 1
Spectrometers: USB2E7196
Integration Time (usec): 104000 (USB2E7196)
Spectra Averaged: 20 (USB2E7196)
Boxcar Smoothing: 10 (USB2E7196)
Correct for Electrical Dark: No (USB2E7196)
Strobe/Lamp Enabled: No (USB2E7196)
Correct for Detector Non-linearity: No (USB2E7196)
Correct for Stray Light: No (USB2E7196)
Number of Pixels in Processed Spectrum: 2048
>>>>>Begin Processed Spectral Data<<<<<
339.09	0.00
339.48	198.80
339.86	199.20
340.24	200.95
340.63	202.75
341.01	210.10
341.39	205.15
341.78	207.75
342.16	208.25
342.54	208.70
342.93	198.40
343.31	208.46
343.69	209.00
344.07	209.60
344.46	210.12
344.84	210.42
345.22	210.40
345.60	210.71
345.99	210.90
346.37	211.03
346.75	211.11
347.13	211.06
347.52	211.15
347.90	211.20
348.28	211.21
348.66	211.23
349.05	211.10
349.43	211.05
349.81	211.04
350.19	211.05
350.57	211.00
350.96	211.06
351.34	211.05
351.72	211.06
352.10	211.04
352.48	210.97
352.87	211.14
353.25	211.22
353.63	211.21
354.01	211.22
354.39	211.29
354.77	211.35
355.15	211.50
355.54	211.47
355.92	211.35
356.30	211.38
356.68	211.70
357.06	211.87
357.44	211.86
357.82	211.85
358.20	211.98
358.58	212.05
358.97	212.07
359.35	212.21
359.73	212.36
360.11	212.40
360.49	212.51
360.87	212.53
361.25	212.57
361.63	212.74
362.01	212.80
362.39	212.84
362.77	212.86
363.15	212.93
363.53	212.95
363.91	213.08
364.29	213.15
364.67	212.78
365.05	212.73
365.43	212.80
365.81	212.86
366.19	212.98
366.57	213.14
366.95	213.14
367.33	213.03
367.71	213.06
368.09	213.10
368.47	213.00
368.85	212.93
369.23	212.99
369.61	212.83
369.99	212.84
370.37	212.83
370.75	213.00
371.13	212.88
371.51	212.81
371.89	212.77
372.27	212.72
372.65	212.78
373.03	212.82
373.41	212.81
373.78	212.74
374.16	212.50
374.54	212.31
374.92	212.20
375.30	212.14
375.68	211.99
376.06	211.96
376.44	211.95
376.82	211.90
377.19	211.85
377.57	211.81
377.95	211.67
378.33	211.57
378.71	211.36
379.09	211.34
379.47	211.39
379.84	211.35
380.22	211.27
380.60	211.12
380.98	211.00
381.36	210.98
381.73	210.95
382.11	211.01
382.49	211.01
382.87	211.00
383.25	211.00
383.62	211.42
384.00	211.29
384.38	211.29
384.76	211.33
385.13	211.37
385.51	211.33
385.89	211.29
386.27	211.24
386.64	211.20
387.02	211.13
387.40	211.03
387.78	210.95
388.15	211.01
388.53	211.03
388.91	211.03
389.29	210.95
389.66	210.92
390.04	210.86
390.42	210.94
390.79	210.85
391.17	210.85
391.55	210.38
391.92	210.34
392.30	210.33
392.68	210.29
393.05	210.29
393.43	210.24
393.81	210.21
394.18	210.21
394.56	210.18
394.94	210.21
395.31	210.16
395.69	210.27
396.06	210.24
396.44	210.16
396.82	210.09
397.19	210.24
397.57	210.28
397.95	210.31
398.32	210.15
398.70	210.26
399.07	210.31
399.45	210.30
399.82	210.37
400.20	210.33
400.58	210.35
400.95	210.22
401.33	210.29
401.70	210.56
402.08	210.58
402.45	210.64
402.83	210.79
403.20	210.84
403.58	210.85
403.95	210.95
404.33	211.13
404.71	211.23
405.08	211.43
405.46	211.41
405.83	211.54
406.21	211.68
406.58	211.83
406.96	211.93
407.33	212.13
407.70	212.28
408.08	212.71
408.45	212.94
408.83	213.15
409.20	213.39
409.58	213.38
409.95	213.64
410.33	213.83
410.70	213.92
411.08	214.19
411.45	214.44
411.82	214.67
412.20	215.07
412.57	215.57
412.95	215.69
413.32	216.19
413.69	216.57
414.07	217.03
414.44	217.39
414.82	217.87
415.19	218.38
415.56	218.94
415.94	219.41
416.31	220.03
416.68	220.79
417.06	221.53
417.43	222.31
417.81	223.19
418.18	224.14
418.55	225.11
418.93	226.21
419.30	227.27
419.67	228.38
420.04	229.48
420.42	230.64
420.79	232.26
421.16	233.64
421.54	235.29
421.91	236.75
422.28	238.37
422.66	240.07
423.03	241.92
423.40	243.57
423.77	245.36
424.15	247.14
424.52	248.95
424.89	251.05
425.26	253.13
425.64	255.05
426.01	257.08
426.38	259.37
426.75	261.63
427.13	263.94
427.50	266.41
427.87	268.95
428.24	271.38
428.61	273.54
428.99	276.37
429.36	279.08
429.73	282.05
430.10	284.86
430.47	287.87
430.85	290.74
431.22	293.98
431.59	297.56
431.96	300.95
432.33	304.61
432.70	308.13
433.08	312.25
433.45	316.17
433.82	320.19
434.19	324.43
434.56	328.72
434.93	332.84
435.30	336.86
435.68	341.39
436.05	345.99
436.42	350.46
436.79	354.46
437.16	358.90
437.53	363.54
437.90	368.23
438.27	372.87
438.64	377.51
439.01	382.02
439.38	385.75
439.75	389.51
440.13	393.85
440.50	398.03
440.87	401.44
441.24	404.92
441.61	408.71
441.98	411.64
442.35	414.90
442.72	418.30
443.09	421.67
443.46	423.78
443.83	425.23
444.20	426.55
444.57	428.35
444.94	429.32
445.31	430.35
445.68	431.59
446.05	431.95
446.42	431.67
446.79	431.28
447.16	430.90
447.53	430.75
447.90	429.20
448.27	427.61
448.64	425.40
449.01	423.97
449.37	421.20
449.74	418.44
450.11	415.41
450.48	411.74
450.85	407.99
451.22	404.76
451.59	401.69
451.96	398.89
452.33	394.84
452.70	391.22
453.07	386.87
453.43	382.21
453.80	378.04
454.17	374.05
454.54	370.22
454.91	366.10
455.28	362.06
455.65	358.43
456.02	355.20
456.38	351.94
456.75	347.90
457.12	344.60
457.49	341.39
457.86	337.93
458.23	335.32
458.59	332.31
458.96	329.22
459.33	326.46
459.70	323.67
460.07	321.56
460.43	318.98
460.80	316.64
461.17	314.61
461.54	312.45
461.91	310.46
462.27	308.34
462.64	306.63
463.01	304.60
463.38	302.74
463.74	300.28
464.11	298.55
464.48	297.12
464.85	295.43
465.21	294.17
465.58	292.90
465.95	291.23
466.32	289.94
466.68	288.62
467.05	287.31
467.42	286.04
467.78	284.66
468.15	283.47
468.52	282.57
468.88	281.27
469.25	280.07
469.62	279.16
469.98	278.33
470.35	277.25
470.72	276.42
471.08	275.32
471.45	274.64
471.82	273.97
472.18	273.06
472.55	272.42
472.92	271.62
473.28	270.83
473.65	270.06
474.02	269.35
474.38	268.88
474.75	268.44
475.11	267.98
475.48	267.59
475.85	267.22
476.21	266.70
476.58	266.39
476.94	266.22
477.31	265.94
477.67	265.58
478.04	265.37
478.41	265.23
478.77	265.43
479.14	265.06
479.50	264.93
479.87	264.83
480.23	264.80
480.60	264.70
480.96	264.69
481.33	264.92
481.69	264.97
482.06	264.96
482.42	265.02
482.79	264.98
483.15	265.07
483.52	265.19
483.88	265.42
484.25	265.56
484.61	265.76
484.98	265.88
485.34	266.24
485.71	266.67
486.07	266.96
486.44	267.00
486.80	267.44
487.17	267.78
487.53	268.39
487.90	268.88
488.26	269.51
488.62	270.15
488.99	270.62
489.35	271.20
489.72	271.85
490.08	272.42
490.44	273.05
490.81	273.82
491.17	274.60
491.54	275.34
491.90	276.22
492.26	277.00
492.63	277.94
492.99	278.72
493.36	279.61
493.72	280.73
494.08	281.83
494.45	283.02
494.81	284.17
495.17	285.15
495.54	286.38
495.90	287.44
496.26	288.66
496.63	289.95
496.99	291.23
497.35	292.55
497.72	293.95
498.08	295.42
498.44	296.79
498.80	298.25
499.17	299.81
499.53	301.19
499.89	302.83
500.26	304.45
500.62	306.14
500.98	307.87
501.34	309.46
501.71	311.17
502.07	312.74
502.43	314.43
502.79	316.20
503.16	317.88
503.52	319.75
503.88	321.43
504.24	323.20
504.60	325.15
504.97	327.15
505.33	328.98
505.69	331.07
506.05	333.05
506.41	334.96
506.78	336.83
507.14	338.75
507.50	340.64
507.86	342.54
508.22	344.45
508.59	346.29
508.95	348.31
509.31	350.41
509.67	352.47
510.03	354.55
510.39	356.52
510.75	358.59
511.12	360.63
511.48	362.72
511.84	364.79
512.20	366.74
512.56	368.68
512.92	370.88
513.28	372.99
513.64	375.14
514.00	377.28
514.37	379.42
514.73	381.87
515.09	384.15
515.45	386.46
515.81	388.75
516.17	391.02
516.53	393.26
516.89	395.29
517.25	397.59
517.61	399.95
517.97	402.35
518.33	404.72
518.69	407.16
519.05	409.53
519.41	412.08
519.77	414.92
520.13	417.44
520.49	419.89
520.85	422.21
521.21	424.82
521.57	427.35
521.93	429.84
522.29	432.32
522.65	434.81
523.01	437.38
523.37	439.99
523.73	442.76
524.09	445.30
524.45	448.06
524.81	450.82
525.17	453.60
525.53	456.47
525.89	459.29
526.25	462.19
526.61	465.09
526.97	467.85
527.33	470.57
527.68	473.84
528.04	476.81
528.40	479.87
528.76	482.90
529.12	486.15
529.48	489.48
529.84	492.79
530.20	496.11
530.56	499.51
530.91	502.70
531.27	506.02
531.63	509.50
531.99	513.04
532.35	516.35
532.71	519.68
533.07	523.11
533.42	526.94
533.78	530.32
534.14	533.78
534.50	537.02
534.86	540.50
535.21	543.43
535.57	546.99
535.93	550.29
536.29	553.80
536.65	557.09
537.00	560.38
537.36	563.57
537.72	566.89
538.08	570.28
538.44	573.80
538.79	577.25
539.15	580.66
539.51	584.05
539.87	587.78
540.22	591.13
540.58	594.74
540.94	597.67
541.29	600.93
541.65	604.08
542.01	607.75
542.37	611.16
542.72	614.55
543.08	617.57
543.44	621.08
543.79	624.04
544.15	627.42
544.51	630.87
544.87	634.22
545.22	637.28
545.58	640.24
545.94	643.21
546.29	646.05
546.65	648.84
547.01	651.54
547.36	654.24
547.72	657.10
548.07	659.63
548.43	662.41
548.79	665.02
549.14	667.70
549.50	670.17
549.86	672.43
550.21	674.95
550.57	677.73
550.92	679.96
551.28	682.31
551.64	684.52
551.99	686.72
552.35	688.69
552.70	690.88
553.06	693.14
553.41	695.25
553.77	697.48
554.13	699.63
554.48	701.78
554.84	703.91
555.19	705.83
555.55	707.82
555.90	709.63
556.26	711.41
556.61	713.21
556.97	714.67
557.32	716.47
557.68	718.08
558.03	719.46
558.39	721.03
558.74	722.82
559.10	724.44
559.45	725.94
559.81	727.72
560.16	729.25
560.52	730.60
560.87	731.98
561.23	732.95
561.58	734.68
561.94	735.96
562.29	737.01
562.64	738.32
563.00	739.51
563.35	740.92
563.71	742.28
564.06	743.59
564.42	745.00
564.77	746.06
565.12	747.40
565.48	749.02
565.83	750.27
566.19	751.41
566.54	752.16
566.89	753.02
567.25	753.92
567.60	755.10
567.96	756.08
568.31	757.19
568.66	758.24
569.02	758.38
569.37	758.83
569.72	759.46
570.08	759.72
570.43	760.04
570.78	760.22
571.14	760.41
571.49	760.41
571.84	760.51
572.20	760.45
572.55	760.43
572.90	759.80
573.26	759.38
573.61	758.94
573.96	758.74
574.31	758.16
574.67	757.65
575.02	756.61
575.37	755.68
575.72	754.78
576.08	754.10
576.43	753.43
576.78	752.79
577.13	751.96
577.49	751.40
577.84	750.65
578.19	749.86
578.54	749.29
578.90	748.87
579.25	748.34
579.60	747.51
579.95	746.46
580.30	745.88
580.66	745.42
581.01	744.60
581.36	743.69
581.71	743.01
582.06	742.29
582.42	741.76
582.77	741.26
583.12	740.44
583.47	739.63
583.82	738.94
584.17	738.25
584.53	737.76
584.88	737.07
585.23	736.39
585.58	735.58
585.93	734.67
586.28	733.68
586.63	732.70
586.98	731.95
587.34	731.33
587.69	730.40
588.04	729.34
588.39	728.59
588.74	727.61
589.09	726.75
589.44	725.52
589.79	724.51
590.14	723.54
590.49	722.41
590.84	721.50
591.19	720.73
591.54	719.60
591.89	718.00
592.25	716.95
592.60	715.56
592.95	714.27
593.30	712.80
593.65	711.35
594.00	709.86
594.35	709.76
594.70	708.36
595.05	707.11
595.40	705.81
595.75	704.04
596.10	702.85
596.45	701.62
596.80	700.56
597.15	699.44
597.50	697.86
597.85	696.80
598.19	695.40
598.54	693.90
598.89	692.69
599.24	691.70
599.59	690.31
599.94	689.22
600.29	688.13
600.64	686.88
600.99	685.50
601.34	684.47
601.69	682.05
602.04	680.56
602.39	679.22
602.74	677.99
603.08	677.24
603.43	676.33
603.78	674.94
604.13	673.58
604.48	672.28
604.83	671.35
605.18	670.42
605.53	669.22
605.87	668.01
606.22	666.83
606.57	665.57
606.92	664.15
607.27	662.73
607.62	661.35
607.96	660.30
608.31	659.49
608.66	658.06
609.01	656.61
609.36	655.34
609.70	653.77
610.05	652.17
610.40	650.46
610.75	648.68
611.10	647.27
611.44	645.50
611.79	643.48
612.14	641.45
612.49	639.13
612.83	637.32
613.18	635.35
613.53	633.59
613.88	631.46
614.22	629.59
614.57	627.77
614.92	625.76
615.27	623.70
615.61	621.57
615.96	619.66
616.31	617.88
616.65	616.11
617.00	614.29
617.35	612.36
617.70	610.36
618.04	608.31
618.39	606.15
618.74	604.29
619.08	602.42
619.43	600.60
619.78	598.78
620.12	596.71
620.47	594.79
620.82	592.36
621.16	590.35
621.51	588.44
621.85	586.36
622.20	584.34
622.55	582.11
622.89	579.80
623.24	577.72
623.59	575.56
623.93	573.50
624.28	571.42
624.62	569.75
624.97	567.85
625.32	565.90
625.66	564.16
626.01	562.17
626.35	560.23
626.70	558.22
627.04	556.50
627.39	554.67
627.73	552.84
628.08	551.20
628.43	549.28
628.77	547.21
629.12	545.27
629.46	543.51
629.81	541.77
630.15	540.08
630.50	538.18
630.84	536.19
631.19	534.25
631.53	532.48
631.88	530.03
632.22	528.00
632.57	526.14
632.91	523.98
633.26	522.10
633.60	520.18
633.95	518.45
634.29	516.26
634.64	514.45
634.98	512.47
635.32	510.55
635.67	508.87
636.01	507.20
636.36	505.24
636.70	503.50
637.05	501.61
637.39	499.83
637.73	498.03
638.08	496.55
638.42	494.96
638.77	493.26
639.11	491.66
639.45	489.85
639.80	487.84
640.14	485.91
640.49	483.99
640.83	482.21
641.17	480.43
641.52	478.83
641.86	476.91
642.20	475.24
642.55	473.26
642.89	471.21
643.23	469.25
643.58	467.71
643.92	465.68
644.26	463.93
644.61	462.06
644.95	460.38
645.29	458.47
645.64	456.50
645.98	454.50
646.32	452.81
646.66	450.94
647.01	449.20
647.35	447.65
647.69	445.91
648.04	444.10
648.38	442.25
648.72	440.33
649.06	438.53
649.41	436.57
649.75	434.80
650.09	433.14
650.43	431.29
650.78	429.27
651.12	427.44
651.46	425.67
651.80	423.96
652.14	422.12
652.49	420.38
652.83	418.63
653.17	416.79
653.51	414.98
653.85	413.40
654.20	411.79
654.54	409.90
654.88	408.04
655.22	406.45
655.56	404.67
655.90	402.98
656.25	401.22
656.59	399.47
656.93	397.88
657.27	396.30
657.61	394.64
657.95	393.24
658.29	391.71
658.64	390.16
658.98	388.46
659.32	386.72
659.66	385.08
660.00	383.42
660.34	381.85
660.68	380.17
661.02	378.49
661.36	376.89
661.70	375.33
662.05	373.98
662.39	372.54
662.73	371.21
663.07	369.93
663.41	368.55
663.75	367.09
664.09	365.57
664.43	364.01
664.77	362.69
665.11	361.03
665.45	359.65
665.79	358.36
666.13	356.94
666.47	355.65
666.81	354.33
667.15	353.00
667.49	351.85
667.83	350.76
668.17	349.56
668.51	348.30
668.85	347.31
669.19	346.20
669.53	344.83
669.87	343.48
670.21	342.15
670.55	340.95
670.89	339.99
671.23	339.02
671.57	338.00
671.91	336.84
672.25	335.84
672.58	334.73
672.92	333.53
673.26	332.57
673.60	331.44
673.94	330.30
674.28	329.20
674.62	328.10
674.96	327.03
675.30	325.96
675.64	324.90
675.97	323.75
676.31	322.65
676.65	321.68
676.99	320.82
677.33	319.82
677.67	318.83
678.01	317.76
678.34	316.72
678.68	315.81
679.02	314.86
679.36	313.85
679.70	312.91
680.04	312.01
680.37	311.09
680.71	310.22
681.05	309.38
681.39	308.50
681.73	307.58
682.06	306.75
682.40	305.85
682.74	304.99
683.08	304.14
683.42	303.25
683.75	302.43
684.09	301.40
684.43	300.50
684.77	299.58
685.10	298.63
685.44	297.78
685.78	296.87
686.12	296.10
686.45	295.30
686.79	294.40
687.13	293.63
687.46	292.81
687.80	292.10
688.14	291.21
688.48	290.52
688.81	289.74
689.15	288.90
689.49	288.15
689.82	287.36
690.16	286.53
690.50	285.76
690.83	284.84
691.17	284.05
691.51	283.29
691.84	282.64
692.18	281.89
692.52	281.07
692.85	280.39
693.19	279.74
693.52	279.01
693.86	278.27
694.20	277.48
694.53	276.79
694.87	276.00
695.21	275.29
695.54	274.47
695.88	273.70
696.21	272.94
696.55	272.33
696.88	271.71
697.22	271.06
697.56	270.49
697.89	269.90
698.23	269.36
698.56	268.63
698.90	268.06
699.23	267.47
699.57	266.93
699.90	266.28
700.24	265.58
700.58	265.03
700.91	264.50
701.25	264.25
701.58	263.69
701.92	263.18
702.25	262.71
702.59	262.15
702.92	261.65
703.26	261.16
703.59	260.51
703.93	260.26
704.26	259.78
704.60	259.21
704.93	258.67
705.26	258.11
705.60	257.68
705.93	257.08
706.27	256.72
706.60	256.35
706.94	255.95
707.27	255.45
707.61	254.98
707.94	254.48
708.27	253.75
708.61	253.28
708.94	252.79
709.28	252.26
709.61	251.78
709.94	251.39
710.28	250.88
710.61	250.55
710.95	249.73
711.28	249.52
711.61	249.10
711.95	248.84
712.28	248.38
712.61	248.07
712.95	247.89
713.28	247.60
713.61	247.16
713.95	246.73
714.28	246.38
714.61	245.99
714.95	245.59
715.28	245.10
715.61	244.64
715.95	244.34
716.28	244.00
716.61	243.85
716.95	243.43
717.28	243.12
717.61	242.76
717.94	242.51
718.28	241.90
718.61	241.59
718.94	241.15
719.27	240.81
719.61	240.47
719.94	240.04
720.27	239.58
720.60	239.23
720.94	238.90
721.27	238.62
721.60	238.40
721.93	238.13
722.27	238.03
722.60	237.85
722.93	237.53
723.26	237.32
723.59	236.94
723.93	236.74
724.26	236.57
724.59	236.28
724.92	236.02
725.25	235.88
725.59	235.58
725.92	235.49
726.25	235.28
726.58	235.04
726.91	234.86
727.24	234.63
727.57	234.41
727.91	234.14
728.24	233.94
728.57	233.67
728.90	233.58
729.23	233.28
729.56	233.22
729.89	233.01
730.22	232.73
730.55	232.46
730.89	232.25
731.22	231.97
731.55	231.77
731.88	231.58
732.21	231.33
732.54	231.14
732.87	230.90
733.20	230.71
733.53	230.56
733.86	230.32
734.19	230.14
734.52	230.01
734.85	230.06
735.18	229.86
735.51	229.70
735.84	229.49
736.17	229.33
736.50	228.94
736.83	229.21
737.16	229.06
737.49	228.93
737.82	228.70
738.15	228.53
738.48	228.33
738.81	228.19
739.14	227.98
739.47	227.87
739.80	227.63
740.13	227.54
740.46	227.27
740.79	227.03
741.12	226.86
741.45	226.60
741.78	226.28
742.11	226.21
742.44	226.01
742.77	225.90
743.10	225.68
743.43	225.52
743.75	224.94
744.08	225.29
744.41	225.12
744.74	224.94
745.07	224.75
745.40	224.76
745.73	224.75
746.06	224.65
746.39	224.49
746.71	224.38
747.04	224.21
747.37	224.12
747.70	224.06
748.03	223.96
748.36	223.95
748.68	223.81
749.01	223.52
749.34	223.45
749.67	223.29
750.00	223.29
750.33	223.41
750.65	223.37
750.98	222.74
751.31	222.63
751.64	222.57
751.97	222.66
752.29	222.55
752.62	222.25
752.95	222.12
753.28	222.01
753.60	221.88
753.93	221.82
754.26	221.77
754.59	221.55
754.91	221.43
755.24	221.29
755.57	221.19
755.90	221.05
756.22	220.82
756.55	220.71
756.88	220.46
757.20	220.14
757.53	219.88
757.86	219.83
758.19	219.79
758.51	219.63
758.84	219.36
759.17	219.23
759.49	219.19
759.82	219.26
760.15	219.16
760.47	219.05
760.80	218.87
761.13	218.83
761.45	218.76
761.78	218.61
762.11	218.49
762.43	218.33
762.76	218.26
763.08	218.28
763.41	218.23
763.74	218.26
764.06	218.20
764.39	218.15
764.71	218.06
765.04	217.99
765.37	217.95
765.69	217.83
766.02	217.67
766.34	217.52
766.67	217.37
767.00	217.34
767.32	217.44
767.65	217.58
767.97	217.43
768.30	217.50
768.62	217.44
768.95	217.30
769.27	217.29
769.60	217.39
769.92	217.31
770.25	217.17
770.57	216.96
770.90	216.86
771.22	216.81
771.55	216.73
771.87	216.67
772.20	216.69
772.52	216.99
772.85	217.38
773.17	217.48
773.50	217.43
773.82	217.37
774.15	217.16
774.47	216.86
774.80	216.83
775.12	216.66
775.45	216.62
775.77	216.67
776.09	216.61
776.42	216.44
776.74	216.47
777.07	216.34
777.39	216.32
777.72	216.27
778.04	216.25
778.36	216.18
778.69	216.08
779.01	216.01
779.33	215.62
779.66	215.18
779.98	215.00
780.31	214.91
780.63	214.96
780.95	215.04
781.28	214.97
781.60	214.90
781.92	214.89
782.25	214.85
782.57	214.79
782.89	214.73
783.22	214.70
783.54	214.56
783.86	214.60
784.19	214.63
784.51	214.79
784.83	214.66
785.16	214.62
785.48	214.59
785.80	214.51
786.12	214.54
786.45	214.47
786.77	214.48
787.09	214.36
787.42	214.24
787.74	214.15
788.06	214.22
788.38	214.17
788.71	214.08
789.03	214.05
789.35	214.09
789.67	214.02
789.99	213.98
790.32	213.90
790.64	213.90
790.96	214.17
791.28	213.93
791.61	213.93
791.93	213.91
792.25	213.84
792.57	214.10
792.89	214.01
793.21	214.05
793.54	214.00
793.86	214.03
794.18	213.95
794.50	213.87
794.82	213.79
795.14	213.74
795.47	213.82
795.79	213.71
796.11	213.55
796.43	213.52
796.75	213.55
797.07	213.62
797.39	213.67
797.71	213.36
798.04	213.42
798.36	213.42
798.68	213.41
799.00	213.43
799.32	213.21
799.64	213.26
799.96	213.25
800.28	213.22
800.60	213.13
800.92	213.21
801.24	213.20
801.56	213.20
801.89	213.21
802.21	213.17
802.53	213.17
802.85	213.32
803.17	213.49
803.49	213.41
803.81	213.28
804.13	213.19
804.45	213.09
804.77	213.04
805.09	213.00
805.41	212.98
805.73	212.90
806.05	212.78
806.37	212.75
806.69	212.70
807.01	212.75
807.33	212.77
807.65	212.57
807.97	212.78
808.28	212.77
808.60	212.77
808.92	212.73
809.24	212.98
809.56	212.85
809.88	212.70
810.20	212.70
810.52	212.83
810.84	212.83
811.16	212.77
811.48	212.78
811.80	212.92
812.12	212.86
812.43	213.00
812.75	213.01
813.07	213.02
813.39	212.96
813.71	212.90
814.03	212.91
814.35	212.95
814.67	212.68
814.98	212.65
815.30	212.62
815.62	212.54
815.94	212.25
816.26	212.31
816.58	212.30
816.89	212.35
817.21	212.26
817.53	212.25
817.85	212.35
818.17	212.29
818.48	212.17
818.80	212.31
819.12	212.21
819.44	212.21
819.76	212.08
820.07	212.08
820.39	212.05
820.71	212.04
821.03	212.09
821.34	212.11
821.66	212.17
821.98	212.21
822.30	212.25
822.61	212.44
822.93	212.37
823.25	212.34
823.57	212.26
823.88	212.33
824.20	212.30
824.52	212.33
824.83	212.43
825.15	212.35
825.47	212.31
825.79	212.35
826.10	212.30
826.42	212.31
826.74	212.42
827.05	212.41
827.37	212.53
827.69	212.45
828.00	212.48
828.32	212.44
828.64	212.35
828.95	212.54
829.27	212.50
829.58	212.48
829.90	212.50
830.22	212.53
830.53	212.47
830.85	212.43
831.17	212.32
831.48	212.30
831.80	212.30
832.11	212.20
832.43	212.22
832.75	212.21
833.06	212.40
833.38	212.27
833.69	212.26
834.01	212.20
834.32	212.16
834.64	212.10
834.96	212.12
835.27	212.12
835.59	211.88
835.90	211.76
836.22	211.76
836.53	211.68
836.85	211.68
837.16	211.99
837.48	212.01
837.79	212.15
838.11	212.13
838.42	212.12
838.74	212.16
839.05	212.05
839.37	212.06
839.68	211.80
840.00	211.82
840.31	211.87
840.63	211.75
840.94	211.81
841.26	211.79
841.57	211.77
841.88	211.81
842.20	211.83
842.51	211.85
842.83	211.85
843.14	212.16
843.46	212.16
843.77	211.94
844.08	211.94
844.40	211.85
844.71	211.78
845.03	211.80
845.34	211.77
845.65	211.83
845.97	211.83
846.28	211.93
846.60	211.91
846.91	211.84
847.22	211.94
847.54	211.98
847.85	212.04
848.16	212.06
848.48	211.99
848.79	212.14
849.10	212.20
849.42	212.26
849.73	211.93
850.04	211.88
850.36	211.75
850.67	211.76
850.98	211.75
851.30	211.83
851.61	211.79
851.92	211.84
852.23	211.89
852.55	211.88
852.86	211.85
853.17	211.85
853.49	211.93
853.80	211.97
854.11	211.99
854.42	211.93
854.74	211.87
855.05	211.91
855.36	211.75
855.67	211.69
855.99	211.68
856.30	212.10
856.61	212.16
856.92	212.17
857.23	212.17
857.55	212.12
857.86	212.03
858.17	212.10
858.48	211.99
858.79	211.97
859.11	212.03
859.42	212.05
859.73	212.04
860.04	212.02
860.35	211.89
860.66	211.81
860.98	211.82
861.29	211.90
861.60	211.91
861.91	211.95
862.22	211.95
862.53	211.85
862.84	211.46
863.16	211.45
863.47	211.45
863.78	211.46
864.09	211.50
864.40	211.61
864.71	211.55
865.02	211.62
865.33	211.58
865.64	211.53
865.95	211.50
866.27	211.75
866.58	211.74
866.89	211.83
867.20	211.82
867.51	211.85
867.82	211.80
868.13	211.85
868.44	211.78
868.75	211.84
869.06	211.82
869.37	211.82
869.68	211.77
869.99	211.79
870.30	211.76
870.61	211.74
870.92	211.63
871.23	211.63
871.54	211.68
871.85	211.70
872.16	211.74
872.47	211.73
872.78	211.48
873.09	211.50
873.40	211.46
873.71	211.48
874.02	211.40
874.33	211.36
874.64	211.25
874.95	211.34
875.26	211.26
875.56	211.26
875.87	211.26
876.18	211.18
876.49	211.50
876.80	211.46
877.11	211.50
877.42	211.59
877.73	211.68
878.04	211.66
878.35	211.70
878.66	211.69
878.96	211.65
879.27	211.64
879.58	211.60
879.89	211.56
880.20	211.61
880.51	211.63
880.82	211.65
881.12	211.71
881.43	211.63
881.74	211.50
882.05	211.56
882.36	211.61
882.67	211.65
882.97	211.29
883.28	211.31
883.59	211.26
883.90	211.26
884.21	211.25
884.51	211.19
884.82	211.12
885.13	211.13
885.44	211.15
885.74	211.18
886.05	211.19
886.36	211.16
886.67	211.03
886.98	211.20
887.28	211.19
887.59	211.20
887.90	211.23
888.20	211.29
888.51	211.30
888.82	211.27
889.13	211.29
889.43	211.56
889.74	211.51
890.05	211.48
890.35	211.49
890.66	211.41
890.97	211.44
891.28	211.42
891.58	211.47
891.89	211.48
892.20	211.40
892.50	211.42
892.81	211.41
893.12	211.51
893.42	211.30
893.73	211.38
894.04	211.36
894.34	211.34
894.65	211.32
894.95	211.25
895.26	211.25
895.57	211.46
895.87	211.16
896.18	211.25
896.48	211.31
896.79	211.27
897.10	211.30
897.40	211.26
897.71	211.26
898.01	211.17
898.32	211.20
898.63	211.20
898.93	211.15
899.24	211.21
899.54	211.10
899.85	211.15
900.15	211.10
900.46	211.06
900.76	211.09
901.07	211.08
901.38	211.12
901.68	211.11
901.99	210.90
902.29	210.95
902.60	210.88
902.90	210.83
903.21	210.74
903.51	210.69
903.82	210.74
904.12	210.80
904.43	210.79
904.73	210.71
905.03	210.74
905.34	211.00
905.64	210.98
905.95	211.00
906.25	211.00
906.56	210.96
906.86	211.02
907.17	210.95
907.47	211.05
907.77	211.02
908.08	210.94
908.38	210.97
908.69	210.95
908.99	211.02
909.30	211.01
909.60	211.05
909.90	211.08
910.21	210.99
910.51	210.87
910.81	210.89
911.12	211.01
911.42	211.04
911.73	210.78
912.03	210.75
912.33	210.80
912.64	210.80
912.94	210.72
913.24	210.60
913.55	210.58
913.85	210.42
914.15	210.45
914.46	210.51
914.76	210.52
915.06	210.45
915.37	210.36
915.67	210.31
915.97	210.33
916.27	210.27
916.58	210.32
916.88	210.34
917.18	210.36
917.49	210.58
917.79	210.55
918.09	210.67
918.39	210.74
918.70	210.71
919.00	210.73
919.30	211.00
919.60	211.08
919.91	211.10
920.21	211.18
920.51	211.14
920.81	211.13
921.12	211.12
921.42	211.21
921.72	211.24
922.02	211.34
922.32	211.38
922.63	211.44
922.93	211.60
923.23	211.61
923.53	211.59
923.83	211.31
924.13	211.37
924.44	211.30
924.74	211.42
925.04	211.57
925.34	211.53
925.64	211.37
925.94	211.38
926.24	211.53
926.55	211.54
926.85	211.64
927.15	211.66
927.45	211.65
927.75	211.57
928.05	211.69
928.35	211.61
928.65	211.70
928.95	211.73
929.26	211.61
929.56	211.72
929.86	211.78
930.16	211.84
930.46	211.75
930.76	211.75
931.06	211.57
931.36	211.45
931.66	211.55
931.96	211.59
932.26	211.62
932.56	211.54
932.86	211.52
933.16	211.52
933.46	211.52
933.76	211.53
934.06	211.65
934.36	211.63
934.66	211.72
934.96	211.62
935.26	211.61
935.56	211.70
935.86	211.65
936.16	211.56
936.46	211.56
936.76	211.61
937.06	211.56
937.36	211.62
937.66	211.66
937.96	211.59
938.26	211.50
938.56	211.49
938.86	211.51
939.16	211.72
939.46	211.69
939.76	211.69
940.06	211.70
940.35	211.61
940.65	211.50
940.95	211.46
941.25	211.35
941.55	211.28
941.85	211.21
942.15	211.21
942.45	211.31
942.75	211.33
943.04	211.40
943.34	211.43
943.64	211.33
943.94	211.28
944.24	211.27
944.54	211.31
944.84	211.25
945.13	211.15
945.43	211.03
945.73	211.02
946.03	211.04
946.33	210.97
946.62	210.97
946.92	210.91
947.22	210.88
947.52	211.00
947.82	211.12
948.11	211.07
948.41	211.00
948.71	210.88
949.01	210.83
949.31	210.75
949.60	210.78
949.90	210.92
950.20	210.95
950.50	210.97
950.79	210.94
951.09	211.00
951.39	211.06
951.69	210.98
951.98	210.97
952.28	210.92
952.58	211.02
952.87	211.03
953.17	211.10
953.47	211.10
953.76	211.07
954.06	210.98
954.36	210.95
954.66	210.95
954.95	211.11
955.25	211.09
955.55	211.16
955.84	211.05
956.14	211.04
956.44	211.02
956.73	210.90
957.03	210.92
957.32	210.91
957.62	210.86
957.92	210.97
958.21	210.99
958.51	211.35
958.81	211.31
959.10	211.35
959.40	211.45
959.69	211.48
959.99	211.52
960.29	211.55
960.58	211.54
960.88	211.65
961.17	211.52
961.47	211.55
961.76	211.47
962.06	211.53
962.36	211.45
962.65	211.38
962.95	211.47
963.24	211.41
963.54	211.44
963.83	211.49
964.13	211.38
964.42	211.30
964.72	211.01
965.01	210.98
965.31	210.98
965.60	210.92
965.90	211.19
966.19	211.09
966.49	211.10
966.78	211.21
967.08	211.18
967.37	211.27
967.67	211.28
967.96	211.30
968.26	211.29
968.55	211.36
968.85	211.40
969.14	211.41
969.43	211.41
969.73	211.39
970.02	211.35
970.32	211.38
970.61	211.37
970.91	211.40
971.20	211.36
971.49	211.36
971.79	211.33
972.08	211.04
972.38	211.05
972.67	211.05
972.96	211.04
973.26	211.02
973.55	211.11
973.85	210.98
974.14	210.95
974.43	211.05
974.73	210.99
975.02	211.03
975.31	211.02
975.61	211.07
975.90	211.09
976.19	211.08
976.49	211.16
976.78	211.16
977.07	211.09
977.37	211.13
977.66	211.11
977.95	211.09
978.24	211.10
978.54	211.23
978.83	211.18
979.12	211.09
979.42	211.05
979.71	210.96
980.00	210.99
980.29	211.08
980.59	210.94
980.88	210.97
981.17	210.94
981.46	210.95
981.76	210.92
982.05	210.98
982.34	211.06
982.63	211.07
982.93	211.12
983.22	211.23
983.51	211.27
983.80	211.28
984.09	211.42
984.39	211.39
984.68	211.38
984.97	211.33
985.26	211.33
985.55	211.43
985.85	211.34
986.14	211.44
986.43	211.48
986.72	211.49
987.01	211.44
987.30	211.44
987.59	211.48
987.89	211.47
988.18	211.33
988.47	211.24
988.76	211.20
989.05	211.25
989.34	211.17
989.63	211.22
989.92	211.21
990.22	211.07
990.51	211.09
990.80	210.97
991.09	211.10
991.38	211.22
991.67	211.19
991.96	211.15
992.25	211.10
992.54	210.97
992.83	210.99
993.12	210.95
993.41	210.95
993.70	211.00
993.99	211.09
994.28	211.14
994.58	211.20
994.87	211.18
995.16	211.13
995.45	211.12
995.74	211.00
996.03	211.07
996.32	211.20
996.61	211.23
996.90	211.26
997.19	211.18
997.48	211.10
997.77	211.00
998.06	211.04
998.34	211.07
998.63	211.09
998.92	211.08
999.21	211.14
999.50	211.19
999.79	211.11
1000.08	211.01
1000.37	211.01
1000.66	210.93
1000.95	210.97
1001.24	210.95
1001.53	211.00
1001.82	211.08
1002.11	210.95
1002.40	210.92
1002.68	211.03
1002.97	211.34
1003.26	211.31
1003.55	211.19
1003.84	211.22
1004.13	211.40
1004.42	211.33
1004.71	211.32
1004.99	211.31
1005.28	211.37
1005.57	211.36
1005.86	211.32
1006.15	211.42
1006.44	211.38
1006.72	211.41
1007.01	211.39
1007.30	211.42
1007.59	211.37
1007.88	211.37
1008.17	211.39
1008.45	211.31
1008.74	211.18
1009.03	210.95
1009.32	210.97
1009.60	211.08
1009.89	211.03
1010.18	210.84
1010.47	210.88
1010.76	210.92
1011.04	210.95
1011.33	211.05
1011.62	211.05
1011.91	211.07
1012.19	211.03
1012.48	211.08
1012.77	211.15
1013.05	211.24
1013.34	211.22
1013.63	211.18
1013.92	211.11
1014.20	211.09
1014.49	211.11
1014.78	211.17
1015.06	211.15
1015.35	211.18
1015.64	211.24
1015.92	211.34
1016.21	211.35
1016.50	211.30
1016.78	211.30
1017.07	211.34
1017.36	211.20
1017.64	211.19
1017.93	211.22
1018.22	211.22
1018.50	211.20
1018.79	211.19
1019.08	211.05
1019.36	211.05
1019.65	211.07
1019.93	211.25
1020.22	211.33
1020.51	211.52
1020.79	211.49
1021.08	210.95
1021.36	211.10
1021.65	211.85
1021.94	210.30
1022.22	210.90
1022.51	211.30
1022.79	213.55
1023.08	211.60
1023.36	215.50
1023.65	210.90
>>>>>End Processed Spectral Data<<<<<
