SpectraSuite Data File
++++++++++++++++++++++++++++++++++++
Date: Mon Feb 25 17:00:19 EST 2013
User: group
Dark Spectrum Present: No
Reference Spectrum Present: No
Number of Sampled Component Spectra: 1
Spectrometers: USB2E7196
Integration Time (usec): 104000 (USB2E7196)
Spectra Averaged: 20 (USB2E7196)
Boxcar Smoothing: 10 (USB2E7196)
Correct for Electrical Dark: No (USB2E7196)
Strobe/Lamp Enabled: No (USB2E7196)
Correct for Detector Non-linearity: No (USB2E7196)
Correct for Stray Light: No (USB2E7196)
Number of Pixels in Processed Spectrum: 2048
>>>>>Begin Processed Spectral Data<<<<<
339.09	0.00
339.48	197.75
339.86	200.20
340.24	202.05
340.63	203.20
341.01	210.50
341.39	207.10
341.78	207.80
342.16	208.55
342.54	208.35
342.93	198.26
343.31	208.25
343.69	208.84
344.07	209.30
344.46	209.73
344.84	210.10
345.22	210.03
345.60	210.13
345.99	210.25
346.37	210.38
346.75	210.44
347.13	210.49
347.52	210.52
347.90	210.74
348.28	210.66
348.66	210.72
349.05	210.65
349.43	210.62
349.81	210.58
350.19	210.67
350.57	210.71
350.96	210.74
351.34	210.80
351.72	210.85
352.10	210.86
352.48	210.83
352.87	210.88
353.25	210.98
353.63	211.11
354.01	211.14
354.39	211.17
354.77	211.30
355.15	211.47
355.54	211.46
355.92	211.44
356.30	211.53
356.68	211.81
357.06	211.92
357.44	211.95
357.82	212.02
358.20	212.06
358.58	212.17
358.97	212.25
359.35	212.37
359.73	212.48
360.11	212.59
360.49	212.67
360.87	212.70
361.25	212.83
361.63	212.98
362.01	213.15
362.39	213.19
362.77	213.28
363.15	213.26
363.53	213.36
363.91	213.35
364.29	213.38
364.67	213.03
365.05	213.04
365.43	213.12
365.81	213.23
366.19	213.46
366.57	213.55
366.95	213.54
367.33	213.55
367.71	213.57
368.09	213.65
368.47	213.70
368.85	213.66
369.23	213.70
369.61	213.56
369.99	213.60
370.37	213.57
370.75	213.67
371.13	213.61
371.51	213.54
371.89	213.53
372.27	213.59
372.65	213.61
373.03	213.60
373.41	213.56
373.78	213.48
374.16	213.25
374.54	213.13
374.92	213.09
375.30	212.99
375.68	212.85
376.06	212.77
376.44	212.68
376.82	212.68
377.19	212.63
377.57	212.62
377.95	212.45
378.33	212.42
378.71	212.17
379.09	212.14
379.47	212.10
379.84	212.03
380.22	211.83
380.60	211.71
380.98	211.65
381.36	211.56
381.73	211.47
382.11	211.45
382.49	211.46
382.87	211.37
383.25	211.33
383.62	211.77
384.00	211.69
384.38	211.71
384.76	211.77
385.13	211.80
385.51	211.76
385.89	211.69
386.27	211.68
386.64	211.67
387.02	211.69
387.40	211.64
387.78	211.59
388.15	211.61
388.53	211.58
388.91	211.54
389.29	211.55
389.66	211.51
390.04	211.41
390.42	211.46
390.79	211.43
391.17	211.45
391.55	210.96
391.92	210.91
392.30	210.93
392.68	210.86
393.05	210.82
393.43	210.72
393.81	210.70
394.18	210.66
394.56	210.70
394.94	210.73
395.31	210.72
395.69	210.89
396.06	210.94
396.44	211.00
396.82	210.93
397.19	211.09
397.57	211.06
397.95	211.17
398.32	211.02
398.70	211.09
399.07	211.13
399.45	211.16
399.82	211.24
400.20	211.23
400.58	211.25
400.95	211.15
401.33	211.35
401.70	211.70
402.08	211.76
402.45	211.82
402.83	211.96
403.20	212.10
403.58	212.14
403.95	212.38
404.33	212.60
404.71	212.79
405.08	213.15
405.46	213.33
405.83	213.45
406.21	213.60
406.58	213.81
406.96	214.09
407.33	214.37
407.70	214.59
408.08	215.13
408.45	215.46
408.83	215.93
409.20	216.22
409.58	216.41
409.95	216.91
410.33	217.42
410.70	217.80
411.08	218.37
411.45	218.89
411.82	219.33
412.20	220.04
412.57	220.95
412.95	221.31
413.32	222.25
413.69	223.10
414.07	224.07
414.44	225.19
414.82	226.15
415.19	227.38
415.56	228.63
415.94	229.78
416.31	231.28
416.68	232.60
417.06	234.27
417.43	235.88
417.81	237.69
418.18	239.47
418.55	241.46
418.93	243.55
419.30	245.89
419.67	248.27
420.04	250.66
420.42	253.07
420.79	256.17
421.16	259.06
421.54	262.19
421.91	265.30
422.28	268.47
422.66	272.05
423.03	275.57
423.40	279.18
423.77	282.94
424.15	286.74
424.52	290.85
424.89	295.22
425.26	299.52
425.64	303.60
426.01	308.13
426.38	312.82
426.75	317.60
427.13	322.48
427.50	327.71
427.87	333.11
428.24	338.70
428.61	343.85
428.99	349.68
429.36	355.93
429.73	362.28
430.10	368.50
430.47	374.76
430.85	381.31
431.22	388.25
431.59	395.79
431.96	402.93
432.33	410.88
432.70	418.70
433.08	427.70
433.45	436.26
433.82	444.88
434.19	454.36
434.56	463.74
434.93	472.73
435.30	481.88
435.68	491.89
436.05	501.84
436.42	511.65
436.79	520.82
437.16	530.68
437.53	540.98
437.90	551.30
438.27	561.52
438.64	572.05
439.01	582.13
439.38	590.95
439.75	599.64
440.13	609.47
440.50	618.65
440.87	626.21
441.24	634.19
441.61	643.13
441.98	649.85
442.35	657.68
442.72	665.62
443.09	673.11
443.46	677.95
443.83	681.34
444.20	684.49
444.57	688.49
444.94	690.95
445.31	693.41
445.68	695.88
446.05	697.34
446.42	697.24
446.79	696.80
447.16	696.18
447.53	695.88
447.90	692.90
448.27	689.99
448.64	685.61
449.01	682.51
449.37	676.27
449.74	670.48
450.11	663.32
450.48	655.35
450.85	647.25
451.22	640.34
451.59	633.82
451.96	627.59
452.33	619.10
452.70	611.36
453.07	602.00
453.43	592.34
453.80	583.17
454.17	574.26
454.54	565.69
454.91	556.69
455.28	547.97
455.65	539.64
456.02	531.54
456.38	524.43
456.75	515.53
457.12	508.25
457.49	500.91
457.86	493.72
458.23	487.74
458.59	481.02
458.96	474.48
459.33	468.41
459.70	462.42
460.07	457.62
460.43	452.09
460.80	446.94
461.17	442.41
461.54	437.68
461.91	433.12
462.27	428.68
462.64	424.81
463.01	420.49
463.38	416.42
463.74	412.05
464.11	408.42
464.48	405.28
464.85	401.70
465.21	399.11
465.58	396.32
465.95	392.70
466.32	389.85
466.68	386.79
467.05	383.92
467.42	381.09
467.78	378.15
468.15	375.28
468.52	373.22
468.88	370.52
469.25	368.06
469.62	366.03
469.98	363.67
470.35	361.59
470.72	359.55
471.08	357.40
471.45	355.64
471.82	353.84
472.18	351.96
472.55	350.52
472.92	348.75
473.28	347.24
473.65	345.78
474.02	344.29
474.38	343.19
474.75	342.25
475.11	341.03
475.48	340.24
475.85	339.33
476.21	338.38
476.58	337.60
476.94	337.03
477.31	336.43
477.67	335.92
478.04	335.45
478.41	335.20
478.77	335.16
479.14	334.71
479.50	334.51
479.87	334.38
480.23	334.32
480.60	334.07
480.96	333.93
481.33	334.30
481.69	334.56
482.06	334.50
482.42	334.50
482.79	334.75
483.15	334.98
483.52	335.58
483.88	335.88
484.25	336.27
484.61	336.65
484.98	337.03
485.34	337.85
485.71	338.62
486.07	339.44
486.44	339.92
486.80	340.73
487.17	341.67
487.53	342.82
487.90	343.95
488.26	345.34
488.62	346.75
488.99	347.79
489.35	349.05
489.72	350.69
490.08	352.20
490.44	353.64
490.81	355.27
491.17	356.81
491.54	358.71
491.90	360.58
492.26	362.46
492.63	364.47
492.99	366.25
493.36	368.25
493.72	370.34
494.08	372.57
494.45	375.01
494.81	377.40
495.17	379.71
495.54	382.26
495.90	384.70
496.26	387.03
496.63	389.55
496.99	392.24
497.35	394.88
497.72	397.57
498.08	400.58
498.44	403.35
498.80	406.35
499.17	409.35
499.53	412.29
499.89	415.37
500.26	418.37
500.62	421.39
500.98	424.49
501.34	427.33
501.71	430.36
502.07	433.28
502.43	436.09
502.79	438.96
503.16	441.82
503.52	444.74
503.88	447.56
504.24	450.60
504.60	453.38
504.97	456.07
505.33	458.84
505.69	461.63
506.05	464.34
506.41	466.86
506.78	469.27
507.14	471.79
507.50	474.10
507.86	476.48
508.22	478.85
508.59	480.90
508.95	483.15
509.31	485.37
509.67	487.43
510.03	489.51
510.39	491.52
510.75	493.37
511.12	495.22
511.48	497.14
511.84	498.72
512.20	500.33
512.56	502.14
512.92	503.79
513.28	505.20
513.64	506.58
514.00	507.86
514.37	509.13
514.73	510.35
515.09	511.62
515.45	512.63
515.81	513.70
516.17	514.88
516.53	515.86
516.89	516.64
517.25	517.47
517.61	518.36
517.97	519.01
518.33	519.60
518.69	520.16
519.05	520.79
519.41	521.35
519.77	522.15
520.13	522.45
520.49	522.66
520.85	522.96
521.21	523.45
521.57	523.95
521.93	524.25
522.29	524.65
522.65	524.88
523.01	525.26
523.37	525.49
523.73	525.71
524.09	525.89
524.45	526.16
524.81	526.39
525.17	526.65
525.53	527.05
525.89	527.43
526.25	527.90
526.61	528.06
526.97	528.54
527.33	528.79
527.68	529.60
528.04	530.25
528.40	530.75
528.76	531.34
529.12	531.98
529.48	532.80
529.84	533.53
530.20	534.38
530.56	535.12
530.91	536.06
531.27	537.08
531.63	538.21
531.99	539.28
532.35	540.38
532.71	541.53
533.07	542.76
533.42	544.52
533.78	545.77
534.14	547.29
534.50	548.52
534.86	550.12
535.21	551.29
535.57	552.89
535.93	554.46
536.29	556.30
536.65	558.06
537.00	559.62
537.36	561.30
537.72	562.82
538.08	564.88
538.44	566.70
538.79	568.60
539.15	570.45
539.51	572.45
539.87	574.53
540.22	576.69
540.58	579.00
540.94	580.82
541.29	582.90
541.65	584.84
542.01	587.07
542.37	589.25
542.72	591.43
543.08	593.60
543.44	596.04
543.79	597.84
544.15	599.93
544.51	602.69
544.87	605.04
545.22	607.69
545.58	610.02
545.94	612.40
546.29	614.60
546.65	616.97
547.01	619.29
547.36	621.71
547.72	624.06
548.07	626.42
548.43	628.69
548.79	631.10
549.14	633.76
549.50	636.34
549.86	638.69
550.21	641.22
550.57	643.91
550.92	646.27
551.28	648.92
551.64	651.58
551.99	653.86
552.35	656.31
552.70	658.67
553.06	661.20
553.41	663.59
553.77	666.36
554.13	669.16
554.48	672.07
554.84	674.79
555.19	677.33
555.55	680.01
555.90	682.50
556.26	684.81
556.61	687.08
556.97	689.42
557.32	691.96
557.68	694.06
558.03	696.13
558.39	698.38
558.74	700.73
559.10	702.92
559.45	705.19
559.81	707.66
560.16	709.79
560.52	711.92
560.87	714.20
561.23	716.17
561.58	718.46
561.94	720.29
562.29	722.03
562.64	724.03
563.00	725.75
563.35	727.80
563.71	730.08
564.06	732.22
564.42	734.25
564.77	736.19
565.12	738.52
565.48	740.92
565.83	743.18
566.19	745.32
566.54	747.15
566.89	748.85
567.25	750.71
567.60	752.93
567.96	755.01
568.31	757.13
568.66	758.87
569.02	760.03
569.37	761.38
569.72	763.10
570.08	764.56
570.43	765.87
570.78	766.98
571.14	767.96
571.49	768.86
571.84	770.15
572.20	770.94
572.55	771.71
572.90	771.98
573.26	772.41
573.61	772.79
573.96	773.45
574.31	773.89
574.67	774.03
575.02	773.95
575.37	773.72
575.72	773.23
576.08	773.27
576.43	773.33
576.78	773.33
577.13	773.31
577.49	773.25
577.84	773.06
578.19	773.08
578.54	773.28
578.90	773.40
579.25	772.94
579.60	772.65
579.95	772.32
580.30	772.00
580.66	771.75
581.01	771.34
581.36	770.68
581.71	770.19
582.06	769.92
582.42	769.55
582.77	768.89
583.12	768.34
583.47	767.83
583.82	767.20
584.17	766.54
584.53	765.87
584.88	765.17
585.23	764.64
585.58	763.76
585.93	762.81
586.28	761.92
586.63	761.28
586.98	760.52
587.34	760.05
587.69	759.32
588.04	758.52
588.39	757.74
588.74	756.87
589.09	756.06
589.44	754.68
589.79	753.73
590.14	753.17
590.49	752.22
590.84	751.02
591.19	750.33
591.54	749.38
591.89	747.99
592.25	747.04
592.60	745.76
592.95	744.56
593.30	743.08
593.65	741.70
594.00	740.12
594.35	739.75
594.70	737.98
595.05	736.79
595.40	735.27
595.75	733.56
596.10	732.30
596.45	730.84
596.80	729.64
597.15	728.30
597.50	726.66
597.85	725.32
598.19	723.85
598.54	722.16
598.89	720.67
599.24	719.68
599.59	717.92
599.94	716.58
600.29	715.16
600.64	713.58
600.99	711.86
601.34	710.42
601.69	707.81
602.04	706.17
602.39	704.35
602.74	702.78
603.08	701.45
603.43	700.17
603.78	698.54
604.13	696.95
604.48	695.23
604.83	693.77
605.18	692.43
605.53	690.89
605.87	689.32
606.22	687.78
606.57	685.69
606.92	683.85
607.27	681.99
607.62	680.07
607.96	678.59
608.31	677.18
608.66	675.38
609.01	673.65
609.36	671.88
609.70	670.04
610.05	668.09
610.40	666.33
610.75	664.07
611.10	662.40
611.44	660.23
611.79	658.13
612.14	656.03
612.49	653.55
612.83	651.50
613.18	649.22
613.53	646.99
613.88	644.75
614.22	642.78
614.57	640.54
614.92	638.63
615.27	636.52
615.61	634.33
615.96	632.20
616.31	630.23
616.65	628.37
617.00	626.17
617.35	624.04
617.70	621.55
618.04	619.11
618.39	616.49
618.74	614.36
619.08	612.19
619.43	609.91
619.78	608.12
620.12	605.91
620.47	603.79
620.82	601.29
621.16	598.99
621.51	596.85
621.85	594.74
622.20	592.31
622.55	589.94
622.89	587.50
623.24	585.30
623.59	582.75
623.93	580.46
624.28	578.42
624.62	576.62
624.97	574.70
625.32	572.70
625.66	570.75
626.01	568.62
626.35	566.43
626.70	564.30
627.04	562.15
627.39	559.90
627.73	557.89
628.08	556.18
628.43	554.22
628.77	551.98
629.12	549.76
629.46	547.95
629.81	545.83
630.15	543.90
630.50	541.60
630.84	539.71
631.19	537.60
631.53	535.55
631.88	533.00
632.22	530.63
632.57	528.73
632.91	526.67
633.26	524.63
633.60	522.46
633.95	520.55
634.29	518.36
634.64	516.54
634.98	514.26
635.32	512.14
635.67	510.20
636.01	508.33
636.36	506.39
636.70	504.49
637.05	502.78
637.39	500.95
637.73	499.41
638.08	497.69
638.42	495.91
638.77	494.22
639.11	492.45
639.45	490.70
639.80	488.60
640.14	486.67
640.49	484.89
640.83	483.21
641.17	481.25
641.52	479.30
641.86	477.35
642.20	475.71
642.55	473.63
642.89	471.80
643.23	469.89
643.58	468.24
643.92	466.11
644.26	464.20
644.61	462.28
644.95	460.25
645.29	458.27
645.64	456.35
645.98	454.26
646.32	452.60
646.66	450.75
647.01	449.05
647.35	447.28
647.69	445.41
648.04	443.58
648.38	441.75
648.72	440.05
649.06	438.14
649.41	436.29
649.75	434.55
650.09	432.74
650.43	430.96
650.78	429.01
651.12	427.20
651.46	425.34
651.80	423.58
652.14	421.95
652.49	420.36
652.83	418.52
653.17	416.75
653.51	414.86
653.85	413.25
654.20	411.51
654.54	409.70
654.88	407.90
655.22	406.30
655.56	404.47
655.90	402.68
656.25	400.96
656.59	399.16
656.93	397.63
657.27	396.05
657.61	394.24
657.95	392.65
658.29	390.96
658.64	389.60
658.98	388.00
659.32	386.20
659.66	384.45
660.00	382.90
660.34	381.28
660.68	379.65
661.02	377.99
661.36	376.45
661.70	374.96
662.05	373.45
662.39	371.95
662.73	370.82
663.07	369.47
663.41	368.13
663.75	366.80
664.09	365.42
664.43	363.93
664.77	362.64
665.11	361.19
665.45	359.96
665.79	358.44
666.13	357.13
666.47	355.72
666.81	354.35
667.15	353.03
667.49	351.89
667.83	350.65
668.17	349.27
668.51	348.00
668.85	346.90
669.19	345.90
669.53	344.59
669.87	343.15
670.21	341.88
670.55	340.73
670.89	339.79
671.23	338.60
671.57	337.50
671.91	336.34
672.25	335.35
672.58	334.33
672.92	333.14
673.26	331.95
673.60	330.99
673.94	329.95
674.28	328.90
674.62	327.84
674.96	326.76
675.30	325.82
675.64	324.82
675.97	323.70
676.31	322.62
676.65	321.59
676.99	320.82
677.33	319.85
677.67	318.84
678.01	317.62
678.34	316.75
678.68	315.85
679.02	314.82
679.36	313.70
679.70	312.74
680.04	311.88
680.37	310.96
680.71	310.03
681.05	309.12
681.39	308.21
681.73	307.30
682.06	306.43
682.40	305.64
682.74	304.87
683.08	304.18
683.42	303.19
683.75	302.40
684.09	301.34
684.43	300.49
684.77	299.64
685.10	298.85
685.44	297.85
685.78	297.00
686.12	296.35
686.45	295.62
686.79	294.75
687.13	294.01
687.46	293.25
687.80	292.53
688.14	291.73
688.48	291.01
688.81	290.20
689.15	289.57
689.49	288.67
689.82	287.88
690.16	286.87
690.50	286.12
690.83	285.26
691.17	284.48
691.51	283.70
691.84	283.01
692.18	282.24
692.52	281.53
692.85	280.83
693.19	280.13
693.52	279.39
693.86	278.66
694.20	277.94
694.53	277.21
694.87	276.45
695.21	275.75
695.54	275.05
695.88	274.28
696.21	273.37
696.55	272.88
696.88	272.13
697.22	271.48
697.56	271.06
697.89	270.43
698.23	269.90
698.56	269.25
698.90	268.65
699.23	268.06
699.57	267.55
699.90	266.85
700.24	266.20
700.58	265.65
700.91	265.07
701.25	264.77
701.58	264.37
701.92	263.94
702.25	263.38
702.59	262.80
702.92	262.32
703.26	261.91
703.59	261.31
703.93	261.04
704.26	260.53
704.60	259.86
704.93	259.35
705.26	258.76
705.60	258.34
705.93	257.72
706.27	257.25
706.60	256.79
706.94	256.54
707.27	256.01
707.61	255.50
707.94	255.05
708.27	254.31
708.61	253.73
708.94	253.22
709.28	252.87
709.61	252.46
709.94	252.15
710.28	251.69
710.61	251.25
710.95	250.65
711.28	250.53
711.61	250.13
711.95	249.85
712.28	249.44
712.61	249.09
712.95	248.94
713.28	248.69
713.61	248.22
713.95	247.70
714.28	247.42
714.61	247.11
714.95	246.73
715.28	246.34
715.61	245.96
715.95	245.62
716.28	245.17
716.61	244.79
716.95	244.24
717.28	243.89
717.61	243.53
717.94	243.13
718.28	242.58
718.61	242.24
718.94	241.82
719.27	241.52
719.61	241.12
719.94	240.67
720.27	240.22
720.60	240.00
720.94	239.69
721.27	239.44
721.60	239.23
721.93	238.95
722.27	238.80
722.60	238.66
722.93	238.39
723.26	238.16
723.59	237.83
723.93	237.75
724.26	237.53
724.59	237.25
724.92	237.12
725.25	236.91
725.59	236.66
725.92	236.49
726.25	236.30
726.58	236.09
726.91	235.93
727.24	235.71
727.57	235.43
727.91	235.17
728.24	234.83
728.57	234.56
728.90	234.38
729.23	234.03
729.56	233.96
729.89	233.71
730.22	233.47
730.55	233.27
730.89	232.99
731.22	232.75
731.55	232.59
731.88	232.36
732.21	232.09
732.54	231.88
732.87	231.72
733.20	231.48
733.53	231.32
733.86	231.12
734.19	230.89
734.52	230.76
734.85	230.82
735.18	230.68
735.51	230.53
735.84	230.40
736.17	230.29
736.50	229.85
736.83	230.00
737.16	229.81
737.49	229.70
737.82	229.53
738.15	229.42
738.48	229.23
738.81	229.05
739.14	228.90
739.47	228.74
739.80	228.52
740.13	228.41
740.46	228.24
740.79	228.00
741.12	227.82
741.45	227.60
741.78	227.30
742.11	227.16
742.44	226.97
742.77	226.82
743.10	226.61
743.43	226.43
743.75	225.94
744.08	226.25
744.41	226.07
744.74	225.96
745.07	225.80
745.40	225.66
745.73	225.64
746.06	225.59
746.39	225.47
746.71	225.29
747.04	225.11
747.37	224.95
747.70	224.90
748.03	224.83
748.36	224.75
748.68	224.54
749.01	224.37
749.34	224.19
749.67	224.13
750.00	224.09
750.33	224.26
750.65	224.23
750.98	223.66
751.31	223.58
751.64	223.43
751.97	223.39
752.29	223.29
752.62	222.95
752.95	222.75
753.28	222.61
753.60	222.47
753.93	222.38
754.26	222.29
754.59	222.11
754.91	221.99
755.24	221.87
755.57	221.71
755.90	221.63
756.22	221.56
756.55	221.33
756.88	221.09
757.20	220.78
757.53	220.52
757.86	220.41
758.19	220.29
758.51	220.16
758.84	219.95
759.17	219.82
759.49	219.78
759.82	219.91
760.15	219.85
760.47	219.82
760.80	219.68
761.13	219.60
761.45	219.41
761.78	219.29
762.11	219.18
762.43	219.19
762.76	219.02
763.08	218.96
763.41	218.88
763.74	218.79
764.06	218.70
764.39	218.75
764.71	218.71
765.04	218.61
765.37	218.53
765.69	218.46
766.02	218.44
766.34	218.37
766.67	218.06
767.00	217.99
767.32	218.08
767.65	218.21
767.97	218.11
768.30	218.10
768.62	218.01
768.95	217.97
769.27	217.81
769.60	217.84
769.92	217.64
770.25	217.52
770.57	217.47
770.90	217.35
771.22	217.16
771.55	217.07
771.87	217.07
772.20	217.04
772.52	217.26
772.85	217.52
773.17	217.41
773.50	217.45
773.82	217.34
774.15	217.13
774.47	216.83
774.80	216.72
775.12	216.65
775.45	216.61
775.77	216.46
776.09	216.46
776.42	216.42
776.74	216.54
777.07	216.50
777.39	216.47
777.72	216.45
778.04	216.45
778.36	216.40
778.69	216.29
779.01	216.21
779.33	215.93
779.66	215.50
779.98	215.48
780.31	215.35
780.63	215.43
780.95	215.45
781.28	215.43
781.60	215.38
781.92	215.37
782.25	215.34
782.57	215.38
782.89	215.41
783.22	215.38
783.54	215.23
783.86	215.27
784.19	215.20
784.51	215.25
784.83	215.18
785.16	215.19
785.48	215.12
785.80	215.12
786.12	215.09
786.45	215.05
786.77	215.04
787.09	214.99
787.42	214.90
787.74	214.88
788.06	214.83
788.38	214.80
788.71	214.72
789.03	214.75
789.35	214.70
789.67	214.56
789.99	214.55
790.32	214.50
790.64	214.47
790.96	214.73
791.28	214.50
791.61	214.45
791.93	214.42
792.25	214.40
792.57	214.66
792.89	214.51
793.21	214.50
793.54	214.46
793.86	214.42
794.18	214.35
794.50	214.20
794.82	214.24
795.14	214.30
795.47	214.29
795.79	214.25
796.11	214.21
796.43	214.27
796.75	214.21
797.07	214.24
797.39	214.22
797.71	213.95
798.04	214.01
798.36	214.04
798.68	214.03
799.00	214.08
799.32	213.83
799.64	213.96
799.96	213.93
800.28	213.92
800.60	213.87
800.92	213.95
801.24	213.95
801.56	213.98
801.89	213.87
802.21	213.89
802.53	213.77
802.85	213.77
803.17	213.81
803.49	213.71
803.81	213.65
804.13	213.53
804.45	213.40
804.77	213.45
805.09	213.46
805.41	213.33
805.73	213.24
806.05	213.17
806.37	213.11
806.69	213.05
807.01	213.04
807.33	213.02
807.65	212.85
807.97	213.01
808.28	212.94
808.60	212.96
808.92	212.95
809.24	213.18
809.56	213.10
809.88	212.97
810.20	212.95
810.52	213.03
810.84	213.02
811.16	213.02
811.48	212.98
811.80	213.08
812.12	213.11
812.43	213.16
812.75	213.10
813.07	213.09
813.39	213.16
813.71	213.10
814.03	213.07
814.35	213.01
814.67	212.77
814.98	212.76
815.30	212.71
815.62	212.59
815.94	212.35
816.26	212.38
816.58	212.26
816.89	212.30
817.21	212.22
817.53	212.22
817.85	212.27
818.17	212.17
818.48	211.97
818.80	212.01
819.12	211.97
819.44	211.92
819.76	211.86
820.07	211.84
820.39	211.82
820.71	211.84
821.03	211.90
821.34	211.93
821.66	211.89
821.98	211.92
822.30	211.94
822.61	212.10
822.93	212.05
823.25	212.12
823.57	212.04
823.88	212.06
824.20	212.00
824.52	212.06
824.83	212.09
825.15	212.02
825.47	211.99
825.79	211.93
826.10	211.92
826.42	211.91
826.74	211.90
827.05	211.81
827.37	211.79
827.69	211.78
828.00	211.78
828.32	211.78
828.64	211.70
828.95	211.89
829.27	211.83
829.58	211.90
829.90	211.95
830.22	212.07
830.53	211.97
830.85	211.94
831.17	211.78
831.48	211.68
831.80	211.74
832.11	211.73
832.43	211.68
832.75	211.71
833.06	211.85
833.38	211.75
833.69	211.82
834.01	211.87
834.32	211.84
834.64	211.74
834.96	211.66
835.27	211.70
835.59	211.57
835.90	211.38
836.22	211.32
836.53	211.21
836.85	211.09
837.16	211.45
837.48	211.52
837.79	211.74
838.11	211.89
838.42	211.88
838.74	211.90
839.05	211.94
839.37	211.87
839.68	211.63
840.00	211.62
840.31	211.72
840.63	211.64
840.94	211.64
841.26	211.67
841.57	211.70
841.88	211.76
842.20	211.69
842.51	211.70
842.83	211.74
843.14	212.11
843.46	212.15
843.77	211.93
844.08	211.92
844.40	211.75
844.71	211.66
845.03	211.62
845.34	211.61
845.65	211.65
845.97	211.67
846.28	211.72
846.60	211.73
846.91	211.65
847.22	211.69
847.54	211.82
847.85	211.87
848.16	211.92
848.48	211.85
848.79	212.02
849.10	212.11
849.42	212.14
849.73	211.79
850.04	211.72
850.36	211.60
850.67	211.66
850.98	211.74
851.30	211.79
851.61	211.79
851.92	211.75
852.23	211.88
852.55	211.93
852.86	211.93
853.17	212.06
853.49	212.14
853.80	212.27
854.11	212.25
854.42	212.28
854.74	212.24
855.05	212.30
855.36	212.04
855.67	212.07
855.99	212.02
856.30	212.45
856.61	212.46
856.92	212.52
857.23	212.47
857.55	212.33
857.86	212.31
858.17	212.34
858.48	212.31
858.79	212.19
859.11	212.20
859.42	212.22
859.73	212.15
860.04	212.10
860.35	211.90
860.66	211.85
860.98	211.85
861.29	211.83
861.60	211.70
861.91	211.87
862.22	211.78
862.53	211.76
862.84	211.37
863.16	211.51
863.47	211.46
863.78	211.44
864.09	211.48
864.40	211.52
864.71	211.54
865.02	211.57
865.33	211.53
865.64	211.53
865.95	211.52
866.27	211.69
866.58	211.67
866.89	211.77
867.20	211.74
867.51	211.67
867.82	211.65
868.13	211.85
868.44	211.72
868.75	211.76
869.06	211.81
869.37	211.79
869.68	211.63
869.99	211.65
870.30	211.71
870.61	211.78
870.92	211.70
871.23	211.66
871.54	211.66
871.85	211.69
872.16	211.62
872.47	211.55
872.78	211.35
873.09	211.35
873.40	211.31
873.71	211.31
874.02	211.32
874.33	211.32
874.64	211.24
874.95	211.30
875.26	211.30
875.56	211.24
875.87	211.22
876.18	211.24
876.49	211.58
876.80	211.50
877.11	211.42
877.42	211.46
877.73	211.47
878.04	211.40
878.35	211.44
878.66	211.45
878.96	211.50
879.27	211.49
879.58	211.42
879.89	211.41
880.20	211.46
880.51	211.47
880.82	211.53
881.12	211.51
881.43	211.52
881.74	211.43
882.05	211.39
882.36	211.34
882.67	211.33
882.97	211.05
883.28	211.04
883.59	211.06
883.90	211.13
884.21	211.20
884.51	211.20
884.82	211.15
885.13	211.22
885.44	211.20
885.74	211.15
886.05	211.21
886.36	211.23
886.67	211.10
886.98	211.30
887.28	211.29
887.59	211.23
887.90	211.18
888.20	211.18
888.51	211.34
888.82	211.42
889.13	211.50
889.43	211.73
889.74	211.72
890.05	211.68
890.35	211.65
890.66	211.59
890.97	211.60
891.28	211.60
891.58	211.60
891.89	211.62
892.20	211.66
892.50	211.60
892.81	211.51
893.12	211.61
893.42	211.40
893.73	211.43
894.04	211.47
894.34	211.48
894.65	211.46
894.95	211.34
895.26	211.26
895.57	211.40
895.87	211.03
896.18	211.15
896.48	211.19
896.79	211.17
897.10	211.24
897.40	211.24
897.71	211.30
898.01	211.26
898.32	211.34
898.63	211.34
898.93	211.37
899.24	211.40
899.54	211.28
899.85	211.31
900.15	211.30
900.46	211.34
900.76	211.47
901.07	211.51
901.38	211.60
901.68	211.68
901.99	211.49
902.29	211.50
902.60	211.41
902.90	211.48
903.21	211.47
903.51	211.42
903.82	211.54
904.12	211.50
904.43	211.54
904.73	211.49
905.03	211.49
905.34	211.79
905.64	211.80
905.95	211.83
906.25	211.82
906.56	211.72
906.86	211.70
907.17	211.60
907.47	211.67
907.77	211.57
908.08	211.56
908.38	211.60
908.69	211.67
908.99	211.73
909.30	211.70
909.60	211.60
909.90	211.63
910.21	211.48
910.51	211.47
910.81	211.45
911.12	211.47
911.42	211.48
911.73	211.17
912.03	211.11
912.33	211.18
912.64	211.14
912.94	211.12
913.24	211.07
913.55	211.03
913.85	210.99
914.15	211.04
914.46	211.08
914.76	211.04
915.06	210.97
915.37	210.89
915.67	210.88
915.97	210.93
916.27	210.90
916.58	210.97
916.88	210.94
917.18	210.94
917.49	211.19
917.79	211.18
918.09	211.26
918.39	211.38
918.70	211.34
919.00	211.45
919.30	211.65
919.60	211.61
919.91	211.60
920.21	211.59
920.51	211.51
920.81	211.47
921.12	211.50
921.42	211.54
921.72	211.57
922.02	211.55
922.32	211.54
922.63	211.54
922.93	211.64
923.23	211.68
923.53	211.56
923.83	211.30
924.13	211.34
924.44	211.36
924.74	211.42
925.04	211.48
925.34	211.44
925.64	211.24
925.94	211.29
926.24	211.53
926.55	211.51
926.85	211.57
927.15	211.54
927.45	211.60
927.75	211.62
928.05	211.66
928.35	211.62
928.65	211.73
928.95	211.74
929.26	211.59
929.56	211.66
929.86	211.73
930.16	211.65
930.46	211.56
930.76	211.55
931.06	211.43
931.36	211.38
931.66	211.36
931.96	211.48
932.26	211.51
932.56	211.29
932.86	211.31
933.16	211.36
933.46	211.35
933.76	211.19
934.06	211.24
934.36	211.34
934.66	211.37
934.96	211.34
935.26	211.32
935.56	211.38
935.86	211.24
936.16	211.21
936.46	211.26
936.76	211.29
937.06	211.21
937.36	211.27
937.66	211.24
937.96	211.27
938.26	211.19
938.56	211.16
938.86	211.25
939.16	211.30
939.46	211.26
939.76	211.25
940.06	211.25
940.35	211.19
940.65	211.00
940.95	210.97
941.25	210.88
941.55	210.89
941.85	210.87
942.15	210.98
942.45	211.08
942.75	211.04
943.04	211.10
943.34	211.17
943.64	211.07
943.94	211.04
944.24	211.01
944.54	211.03
944.84	211.06
945.13	210.97
945.43	210.86
945.73	210.92
946.03	210.90
946.33	210.94
946.62	210.89
946.92	210.89
947.22	210.92
947.52	210.86
947.82	210.96
948.11	210.91
948.41	210.82
948.71	210.70
949.01	210.70
949.31	210.66
949.60	210.58
949.90	210.64
950.20	210.64
950.50	210.60
950.79	210.56
951.09	210.61
951.39	210.58
951.69	210.58
951.98	210.65
952.28	210.66
952.58	210.71
952.87	210.75
953.17	210.78
953.47	210.75
953.76	210.85
954.06	210.76
954.36	210.70
954.66	210.75
954.95	210.84
955.25	210.90
955.55	210.88
955.84	210.90
956.14	210.97
956.44	210.99
956.73	211.01
957.03	211.01
957.32	210.91
957.62	210.92
957.92	211.01
958.21	210.90
958.51	211.32
958.81	211.23
959.10	211.28
959.40	211.35
959.69	211.42
959.99	211.40
960.29	211.36
960.58	211.33
960.88	211.41
961.17	211.36
961.47	211.39
961.76	211.35
962.06	211.43
962.36	211.40
962.65	211.47
962.95	211.46
963.24	211.40
963.54	211.46
963.83	211.49
964.13	211.45
964.42	211.42
964.72	211.07
965.01	211.12
965.31	211.06
965.60	211.02
965.90	211.19
966.19	211.15
966.49	211.24
966.78	211.32
967.08	211.25
967.37	211.27
967.67	211.21
967.96	211.30
968.26	211.25
968.55	211.23
968.85	211.17
969.14	211.19
969.43	211.21
969.73	211.20
970.02	211.14
970.32	211.14
970.61	211.13
970.91	211.15
971.20	211.13
971.49	211.15
971.79	211.14
972.08	210.91
972.38	210.94
972.67	210.83
972.96	210.87
973.26	210.86
973.55	210.97
973.85	210.97
974.14	210.90
974.43	210.95
974.73	210.90
975.02	210.79
975.31	210.73
975.61	210.71
975.90	210.65
976.19	210.60
976.49	210.60
976.78	210.65
977.07	210.59
977.37	210.62
977.66	210.61
977.95	210.63
978.24	210.62
978.54	210.65
978.83	210.65
979.12	210.62
979.42	210.58
979.71	210.45
980.00	210.39
980.29	210.39
980.59	210.30
980.88	210.43
981.17	210.45
981.46	210.51
981.76	210.51
982.05	210.62
982.34	210.70
982.63	210.70
982.93	210.68
983.22	210.83
983.51	210.79
983.80	210.78
984.09	210.80
984.39	210.82
984.68	210.80
984.97	210.88
985.26	210.86
985.55	210.89
985.85	210.84
986.14	210.93
986.43	211.00
986.72	211.01
987.01	210.86
987.30	210.93
987.59	210.91
987.89	210.95
988.18	210.88
988.47	210.86
988.76	210.83
989.05	210.77
989.34	210.64
989.63	210.74
989.92	210.77
990.22	210.72
990.51	210.69
990.80	210.68
991.09	210.62
991.38	210.62
991.67	210.65
991.96	210.69
992.25	210.70
992.54	210.64
992.83	210.63
993.12	210.69
993.41	210.73
993.70	210.91
993.99	211.00
994.28	211.02
994.58	211.08
994.87	211.06
995.16	211.16
995.45	211.12
995.74	211.05
996.03	211.08
996.32	211.16
996.61	211.28
996.90	211.26
997.19	211.31
997.48	211.35
997.77	211.28
998.06	211.27
998.34	211.25
998.63	211.23
998.92	211.21
999.21	211.19
999.50	211.23
999.79	211.12
1000.08	211.07
1000.37	211.08
1000.66	211.02
1000.95	211.10
1001.24	211.07
1001.53	211.13
1001.82	211.05
1002.11	210.99
1002.40	211.01
1002.68	211.08
1002.97	211.39
1003.26	211.39
1003.55	211.33
1003.84	211.35
1004.13	211.53
1004.42	211.55
1004.71	211.57
1004.99	211.61
1005.28	211.70
1005.57	211.64
1005.86	211.59
1006.15	211.56
1006.44	211.54
1006.72	211.63
1007.01	211.57
1007.30	211.60
1007.59	211.60
1007.88	211.65
1008.17	211.65
1008.45	211.57
1008.74	211.43
1009.03	211.19
1009.32	211.20
1009.60	211.22
1009.89	211.21
1010.18	211.01
1010.47	210.98
1010.76	211.06
1011.04	210.98
1011.33	210.99
1011.62	211.01
1011.91	210.97
1012.19	210.97
1012.48	210.97
1012.77	210.94
1013.05	211.01
1013.34	210.97
1013.63	210.96
1013.92	210.91
1014.20	210.89
1014.49	210.97
1014.78	210.94
1015.06	210.79
1015.35	210.74
1015.64	210.79
1015.92	210.84
1016.21	210.86
1016.50	210.89
1016.78	210.87
1017.07	210.92
1017.36	210.88
1017.64	210.84
1017.93	210.90
1018.22	210.85
1018.50	210.80
1018.79	210.72
1019.08	210.61
1019.36	210.62
1019.65	210.55
1019.93	210.64
1020.22	210.75
1020.51	210.80
1020.79	210.76
1021.08	209.60
1021.36	209.20
1021.65	209.55
1021.94	210.25
1022.22	211.00
1022.51	209.40
1022.79	211.65
1023.08	212.30
1023.36	213.95
1023.65	209.20
>>>>>End Processed Spectral Data<<<<<
