SpectraSuite Data File
++++++++++++++++++++++++++++++++++++
Date: Mon Feb 25 17:02:53 EST 2013
User: group
Dark Spectrum Present: No
Reference Spectrum Present: No
Number of Sampled Component Spectra: 1
Spectrometers: USB2E7196
Integration Time (usec): 104000 (USB2E7196)
Spectra Averaged: 20 (USB2E7196)
Boxcar Smoothing: 10 (USB2E7196)
Correct for Electrical Dark: No (USB2E7196)
Strobe/Lamp Enabled: No (USB2E7196)
Correct for Detector Non-linearity: No (USB2E7196)
Correct for Stray Light: No (USB2E7196)
Number of Pixels in Processed Spectrum: 2048
>>>>>Begin Processed Spectral Data<<<<<
339.09	0.00
339.48	199.35
339.86	200.10
340.24	201.30
340.63	203.05
341.01	209.80
341.39	204.70
341.78	207.80
342.16	209.85
342.54	208.45
342.93	198.24
343.31	208.21
343.69	208.69
344.07	209.17
344.46	209.64
344.84	209.99
345.22	209.97
345.60	210.19
345.99	210.26
346.37	210.30
346.75	210.36
347.13	210.34
347.52	210.36
347.90	210.49
348.28	210.46
348.66	210.43
349.05	210.50
349.43	210.39
349.81	210.38
350.19	210.36
350.57	210.46
350.96	210.46
351.34	210.56
351.72	210.61
352.10	210.59
352.48	210.58
352.87	210.54
353.25	210.58
353.63	210.60
354.01	210.71
354.39	210.77
354.77	210.90
355.15	211.10
355.54	211.13
355.92	211.07
356.30	211.11
356.68	211.45
357.06	211.47
357.44	211.60
357.82	211.68
358.20	211.79
358.58	211.84
358.97	212.03
359.35	212.15
359.73	212.25
360.11	212.38
360.49	212.44
360.87	212.52
361.25	212.61
361.63	212.86
362.01	212.87
362.39	212.90
362.77	212.97
363.15	212.91
363.53	212.91
363.91	212.97
364.29	213.04
364.67	212.74
365.05	212.82
365.43	212.87
365.81	212.89
366.19	213.02
366.57	213.20
366.95	213.15
367.33	213.04
367.71	213.04
368.09	213.05
368.47	213.04
368.85	213.08
369.23	213.15
369.61	212.97
369.99	213.11
370.37	213.10
370.75	213.18
371.13	213.15
371.51	213.10
371.89	213.09
372.27	213.06
372.65	213.01
373.03	212.91
373.41	212.90
373.78	212.88
374.16	212.70
374.54	212.50
374.92	212.39
375.30	212.36
375.68	212.28
376.06	212.35
376.44	212.25
376.82	212.22
377.19	212.22
377.57	212.24
377.95	212.07
378.33	212.03
378.71	211.80
379.09	211.75
379.47	211.77
379.84	211.69
380.22	211.64
380.60	211.57
380.98	211.55
381.36	211.46
381.73	211.36
382.11	211.44
382.49	211.44
382.87	211.45
383.25	211.38
383.62	211.75
384.00	211.64
384.38	211.69
384.76	211.73
385.13	211.73
385.51	211.65
385.89	211.59
386.27	211.62
386.64	211.68
387.02	211.63
387.40	211.54
387.78	211.54
388.15	211.55
388.53	211.46
388.91	211.45
389.29	211.36
389.66	211.40
390.04	211.28
390.42	211.22
390.79	211.25
391.17	211.30
391.55	210.92
391.92	210.79
392.30	210.81
392.68	210.77
393.05	210.76
393.43	210.75
393.81	210.73
394.18	210.59
394.56	210.55
394.94	210.61
395.31	210.66
395.69	210.71
396.06	210.72
396.44	210.81
396.82	210.72
397.19	210.90
397.57	210.87
397.95	210.91
398.32	210.87
398.70	210.92
399.07	210.94
399.45	210.92
399.82	210.98
400.20	210.97
400.58	210.87
400.95	210.73
401.33	210.83
401.70	211.15
402.08	211.23
402.45	211.31
402.83	211.43
403.20	211.48
403.58	211.46
403.95	211.65
404.33	211.78
404.71	211.91
405.08	212.21
405.46	212.36
405.83	212.52
406.21	212.70
406.58	212.79
406.96	212.96
407.33	213.17
407.70	213.39
408.08	213.85
408.45	214.17
408.83	214.53
409.20	214.75
409.58	214.84
409.95	215.15
410.33	215.42
410.70	215.72
411.08	216.14
411.45	216.62
411.82	216.96
412.20	217.41
412.57	218.14
412.95	218.39
413.32	218.92
413.69	219.46
414.07	220.09
414.44	220.84
414.82	221.56
415.19	222.45
415.56	223.36
415.94	224.16
416.31	225.20
416.68	226.26
417.06	227.54
417.43	228.82
417.81	230.20
418.18	231.63
418.55	233.13
418.93	234.67
419.30	236.34
419.67	238.08
420.04	239.87
420.42	241.74
420.79	244.05
421.16	246.34
421.54	248.78
421.91	251.21
422.28	253.55
422.66	256.13
423.03	258.78
423.40	261.40
423.77	264.22
424.15	267.12
424.52	270.09
424.89	273.35
425.26	276.40
425.64	279.38
426.01	282.69
426.38	286.03
426.75	289.59
427.13	293.18
427.50	296.88
427.87	300.84
428.24	304.83
428.61	308.44
428.99	312.75
429.36	317.19
429.73	321.69
430.10	326.27
430.47	330.92
430.85	335.63
431.22	340.66
431.59	346.15
431.96	351.35
432.33	357.23
432.70	362.81
433.08	369.43
433.45	375.69
433.82	381.89
434.19	388.87
434.56	395.75
434.93	402.18
435.30	408.75
435.68	416.00
436.05	423.13
436.42	430.34
436.79	436.85
437.16	443.99
437.53	451.33
437.90	458.78
438.27	466.20
438.64	473.93
439.01	481.23
439.38	487.50
439.75	493.74
440.13	500.67
440.50	507.36
440.87	512.84
441.24	518.64
441.61	525.03
441.98	529.80
442.35	535.25
442.72	540.99
443.09	546.66
443.46	550.18
443.83	552.70
444.20	555.00
444.57	557.94
444.94	559.70
445.31	561.55
445.68	563.63
446.05	564.66
446.42	564.37
446.79	563.93
447.16	563.49
447.53	563.32
447.90	561.07
448.27	558.81
448.64	555.49
449.01	553.16
449.37	548.73
449.74	544.45
450.11	539.43
450.48	533.62
450.85	527.54
451.22	522.42
451.59	517.68
451.96	513.11
452.33	506.92
452.70	501.22
453.07	494.42
453.43	487.11
453.80	480.39
454.17	473.99
454.54	467.91
454.91	461.39
455.28	454.90
455.65	448.97
456.02	443.25
456.38	438.14
456.75	431.77
457.12	426.35
457.49	421.11
457.86	415.78
458.23	411.59
458.59	406.73
458.96	401.93
459.33	397.50
459.70	393.08
460.07	389.66
460.43	385.61
460.80	381.85
461.17	378.65
461.54	375.16
461.91	371.95
462.27	368.64
462.64	365.79
463.01	362.71
463.38	359.66
463.74	356.21
464.11	353.55
464.48	351.22
464.85	348.67
465.21	346.75
465.58	344.65
465.95	341.91
466.32	339.80
466.68	337.61
467.05	335.50
467.42	333.37
467.78	331.06
468.15	329.04
468.52	327.57
468.88	325.45
469.25	323.60
469.62	322.06
469.98	320.48
470.35	318.95
470.72	317.49
471.08	315.95
471.45	314.78
471.82	313.48
472.18	311.99
472.55	310.96
472.92	309.62
473.28	308.48
473.65	307.45
474.02	306.45
474.38	305.60
474.75	304.90
475.11	304.09
475.48	303.53
475.85	302.84
476.21	302.19
476.58	301.70
476.94	301.36
477.31	300.84
477.67	300.34
478.04	299.97
478.41	299.64
478.77	299.68
479.14	299.30
479.50	299.12
479.87	299.08
480.23	298.99
480.60	298.81
480.96	298.75
481.33	298.85
481.69	298.88
482.06	298.91
482.42	298.94
482.79	299.02
483.15	299.12
483.52	299.35
483.88	299.54
484.25	299.64
484.61	299.89
484.98	300.13
485.34	300.55
485.71	300.98
486.07	301.45
486.44	301.65
486.80	302.10
487.17	302.57
487.53	303.27
487.90	303.91
488.26	304.81
488.62	305.59
488.99	306.31
489.35	307.05
489.72	307.92
490.08	308.72
490.44	309.66
490.81	310.64
491.17	311.63
491.54	312.67
491.90	313.91
492.26	315.05
492.63	316.25
492.99	317.29
493.36	318.44
493.72	319.79
494.08	321.08
494.45	322.64
494.81	324.09
495.17	325.44
495.54	326.96
495.90	328.35
496.26	329.92
496.63	331.56
496.99	333.25
497.35	334.85
497.72	336.57
498.08	338.14
498.44	339.81
498.80	341.66
499.17	343.38
499.53	344.92
499.89	346.62
500.26	348.25
500.62	349.96
500.98	351.77
501.34	353.45
501.71	355.30
502.07	356.87
502.43	358.45
502.79	359.90
503.16	361.34
503.52	362.82
503.88	364.19
504.24	365.60
504.60	366.84
504.97	368.31
505.33	369.50
505.69	371.03
506.05	372.29
506.41	373.40
506.78	374.46
507.14	375.65
507.50	376.74
507.86	377.78
508.22	378.77
508.59	379.60
508.95	380.36
509.31	381.14
509.67	382.00
510.03	382.76
510.39	383.56
510.75	384.23
511.12	384.85
511.48	385.44
511.84	385.90
512.20	386.43
512.56	386.83
512.92	387.29
513.28	387.45
513.64	387.69
514.00	387.79
514.37	388.08
514.73	388.21
515.09	388.30
515.45	388.40
515.81	388.49
516.17	388.39
516.53	388.43
516.89	388.25
517.25	388.04
517.61	388.04
517.97	387.89
518.33	387.76
518.69	387.59
519.05	387.50
519.41	387.37
519.77	387.55
520.13	387.44
520.49	387.23
520.85	387.11
521.21	387.13
521.57	387.07
521.93	386.58
522.29	386.49
522.65	386.31
523.01	386.24
523.37	386.04
523.73	386.24
524.09	386.21
524.45	386.27
524.81	386.33
525.17	386.33
525.53	386.47
525.89	386.61
526.25	386.78
526.61	386.78
526.97	387.05
527.33	387.17
527.68	387.71
528.04	388.18
528.40	388.50
528.76	388.96
529.12	389.55
529.48	390.53
529.84	391.21
530.20	392.07
530.56	392.90
530.91	393.95
531.27	394.81
531.63	395.78
531.99	396.69
532.35	397.62
532.71	398.72
533.07	399.94
533.42	401.61
533.78	403.00
534.14	404.56
534.50	405.81
534.86	407.20
535.21	408.37
535.57	409.99
535.93	411.61
536.29	413.33
536.65	414.89
537.00	416.37
537.36	417.97
537.72	419.58
538.08	421.40
538.44	423.17
538.79	425.04
539.15	426.92
539.51	429.08
539.87	431.22
540.22	433.40
540.58	435.66
540.94	437.61
541.29	439.83
541.65	441.84
542.01	444.33
542.37	446.81
542.72	449.25
543.08	451.52
543.44	454.06
543.79	456.23
544.15	459.03
544.51	461.90
544.87	464.73
545.22	467.51
545.58	470.11
545.94	472.70
546.29	475.38
546.65	478.11
547.01	480.73
547.36	483.51
547.72	486.11
548.07	488.66
548.43	491.19
548.79	493.77
549.14	496.50
549.50	499.09
549.86	501.56
550.21	504.21
550.57	507.01
550.92	509.58
551.28	512.39
551.64	514.95
551.99	517.54
552.35	520.11
552.70	522.67
553.06	525.43
553.41	528.15
553.77	530.99
554.13	533.79
554.48	536.54
554.84	539.27
555.19	541.94
555.55	544.77
555.90	547.33
556.26	549.83
556.61	552.42
556.97	554.83
557.32	557.29
557.68	559.70
558.03	562.09
558.39	564.45
558.74	567.01
559.10	569.28
559.45	571.62
559.81	574.21
560.16	576.46
560.52	578.84
560.87	581.29
561.23	583.39
561.58	585.77
561.94	587.82
562.29	589.76
562.64	591.99
563.00	593.85
563.35	596.05
563.71	598.40
564.06	600.62
564.42	602.92
564.77	605.17
565.12	607.44
565.48	609.80
565.83	612.11
566.19	614.14
566.54	616.10
566.89	617.97
567.25	619.74
567.60	621.95
567.96	623.94
568.31	625.92
568.66	627.62
569.02	628.86
569.37	630.34
569.72	632.14
570.08	633.64
570.43	635.08
570.78	636.40
571.14	637.47
571.49	638.44
571.84	639.50
572.20	640.52
572.55	641.50
572.90	641.97
573.26	642.64
573.61	643.39
573.96	644.12
574.31	644.78
574.67	645.25
575.02	645.39
575.37	645.45
575.72	645.35
576.08	645.78
576.43	646.10
576.78	646.52
577.13	646.78
577.49	646.99
577.84	647.20
578.19	647.59
578.54	648.12
578.90	648.53
579.25	648.80
579.60	648.71
579.95	648.63
580.30	649.08
580.66	649.23
581.01	649.03
581.36	649.03
581.71	649.03
582.06	649.19
582.42	649.25
582.77	649.13
583.12	649.20
583.47	649.16
583.82	649.25
584.17	649.13
584.53	649.16
584.88	648.89
585.23	648.99
585.58	648.61
585.93	648.07
586.28	647.95
586.63	647.71
586.98	647.65
587.34	647.66
587.69	647.14
588.04	646.85
588.39	646.71
588.74	646.29
589.09	645.95
589.44	645.30
589.79	644.94
590.14	644.75
590.49	644.27
590.84	643.59
591.19	643.15
591.54	642.52
591.89	641.50
592.25	641.10
592.60	640.24
592.95	639.53
593.30	638.69
593.65	637.67
594.00	636.68
594.35	636.59
594.70	635.54
595.05	634.77
595.40	633.89
595.75	632.88
596.10	632.13
596.45	631.17
596.80	630.46
597.15	629.63
597.50	628.50
597.85	627.80
598.19	627.04
598.54	626.02
598.89	625.28
599.24	624.68
599.59	623.54
599.94	622.58
600.29	621.78
600.64	620.90
600.99	619.93
601.34	619.25
601.69	617.48
602.04	616.29
602.39	615.19
602.74	614.38
603.08	613.70
603.43	613.04
603.78	612.21
604.13	611.16
604.48	610.32
604.83	609.63
605.18	608.61
605.53	607.73
605.87	606.73
606.22	605.82
606.57	604.76
606.92	603.97
607.27	602.88
607.62	601.78
607.96	600.99
608.31	600.18
608.66	598.89
609.01	597.90
609.36	597.01
609.70	596.01
610.05	594.72
610.40	593.49
610.75	591.97
611.10	590.82
611.44	589.32
611.79	587.76
612.14	586.36
612.49	584.58
612.83	583.03
613.18	581.50
613.53	579.97
613.88	578.34
614.22	576.65
614.57	575.30
614.92	573.72
615.27	572.17
615.61	570.50
615.96	568.99
616.31	567.36
616.65	565.91
617.00	564.19
617.35	562.50
617.70	560.74
618.04	558.97
618.39	557.07
618.74	555.65
619.08	553.88
619.43	552.18
619.78	550.85
620.12	549.17
620.47	547.60
620.82	545.79
621.16	544.03
621.51	542.41
621.85	540.63
622.20	538.85
622.55	537.00
622.89	535.23
623.24	533.60
623.59	531.85
623.93	530.17
624.28	528.49
624.62	527.27
624.97	525.77
625.32	524.08
625.66	522.58
626.01	520.85
626.35	519.41
626.70	517.64
627.04	516.15
627.39	514.44
627.73	512.89
628.08	511.43
628.43	509.78
628.77	508.13
629.12	506.46
629.46	504.92
629.81	503.34
630.15	501.74
630.50	499.96
630.84	498.33
631.19	496.46
631.53	494.95
631.88	492.81
632.22	490.81
632.57	489.42
632.91	487.74
633.26	486.00
633.60	484.32
633.95	482.81
634.29	480.94
634.64	479.55
634.98	477.88
635.32	476.25
635.67	474.89
636.01	473.27
636.36	471.79
636.70	470.35
637.05	468.75
637.39	467.17
637.73	465.81
638.08	464.44
638.42	463.15
638.77	461.77
639.11	460.29
639.45	458.92
639.80	457.22
640.14	455.59
640.49	454.13
640.83	452.49
641.17	450.94
641.52	449.35
641.86	447.49
642.20	445.94
642.55	444.14
642.89	442.27
643.23	440.63
643.58	439.13
643.92	437.40
644.26	435.71
644.61	434.16
644.95	432.45
645.29	430.76
645.64	429.12
645.98	427.34
646.32	425.87
646.66	424.21
647.01	422.54
647.35	420.97
647.69	419.42
648.04	417.99
648.38	416.41
648.72	414.95
649.06	413.57
649.41	411.94
649.75	410.40
650.09	409.11
650.43	407.67
650.78	406.00
651.12	404.40
651.46	403.03
651.80	401.63
652.14	400.28
652.49	398.89
652.83	397.33
653.17	395.65
653.51	394.00
653.85	392.61
654.20	391.20
654.54	389.65
654.88	388.11
655.22	386.65
655.56	385.13
655.90	383.56
656.25	381.95
656.59	380.48
656.93	379.16
657.27	377.71
657.61	376.15
657.95	374.76
658.29	373.42
658.64	371.92
658.98	370.36
659.32	368.70
659.66	367.17
660.00	365.71
660.34	364.33
660.68	362.95
661.02	361.42
661.36	360.03
661.70	358.69
662.05	357.49
662.39	356.11
662.73	354.91
663.07	353.90
663.41	352.72
663.75	351.47
664.09	350.16
664.43	348.83
664.77	347.63
665.11	346.32
665.45	345.07
665.79	343.97
666.13	342.79
666.47	341.66
666.81	340.59
667.15	339.44
667.49	338.50
667.83	337.46
668.17	336.41
668.51	335.43
668.85	334.49
669.19	333.46
669.53	332.35
669.87	331.12
670.21	329.88
670.55	328.83
670.89	327.97
671.23	327.09
671.57	326.15
671.91	325.25
672.25	324.25
672.58	323.39
672.92	322.35
673.26	321.40
673.60	320.54
673.94	319.55
674.28	318.70
674.62	317.83
674.96	316.90
675.30	315.98
675.64	315.05
675.97	314.11
676.31	313.11
676.65	312.28
676.99	311.66
677.33	310.75
677.67	309.87
678.01	308.85
678.34	307.93
678.68	307.03
679.02	306.04
679.36	305.21
679.70	304.28
680.04	303.46
680.37	302.64
680.71	301.80
681.05	300.95
681.39	300.10
681.73	299.11
682.06	298.25
682.40	297.50
682.74	296.72
683.08	296.06
683.42	295.29
683.75	294.53
684.09	293.62
684.43	292.90
684.77	292.08
685.10	291.33
685.44	290.55
685.78	289.87
686.12	289.20
686.45	288.44
686.79	287.65
687.13	286.97
687.46	286.23
687.80	285.50
688.14	284.74
688.48	284.06
688.81	283.39
689.15	282.77
689.49	281.96
689.82	281.30
690.16	280.37
690.50	279.67
690.83	278.91
691.17	278.20
691.51	277.44
691.84	276.78
692.18	276.06
692.52	275.35
692.85	274.71
693.19	274.12
693.52	273.57
693.86	272.90
694.20	272.22
694.53	271.57
694.87	270.94
695.21	270.39
695.54	269.74
695.88	269.10
696.21	268.38
696.55	267.90
696.88	267.25
697.22	266.74
697.56	266.16
697.89	265.55
698.23	264.93
698.56	264.42
698.90	263.95
699.23	263.34
699.57	262.76
699.90	262.09
700.24	261.46
700.58	260.86
700.91	260.37
701.25	260.16
701.58	259.72
701.92	259.24
702.25	258.67
702.59	258.16
702.92	257.77
703.26	257.33
703.59	256.79
703.93	256.56
704.26	256.12
704.60	255.73
704.93	255.25
705.26	254.84
705.60	254.45
705.93	253.88
706.27	253.66
706.60	253.42
706.94	253.18
707.27	252.65
707.61	252.29
707.94	251.90
708.27	251.19
708.61	250.64
708.94	250.27
709.28	249.86
709.61	249.42
709.94	248.89
710.28	248.53
710.61	248.16
710.95	247.50
711.28	247.33
711.61	246.88
711.95	246.55
712.28	246.17
712.61	245.79
712.95	245.68
713.28	245.40
713.61	244.92
713.95	244.49
714.28	244.19
714.61	243.79
714.95	243.40
715.28	243.05
715.61	242.78
715.95	242.44
716.28	242.04
716.61	241.79
716.95	241.45
717.28	241.09
717.61	240.75
717.94	240.50
718.28	239.96
718.61	239.60
718.94	239.30
719.27	238.91
719.61	238.69
719.94	238.35
720.27	237.85
720.60	237.53
720.94	237.17
721.27	236.93
721.60	236.70
721.93	236.49
722.27	236.30
722.60	236.03
722.93	235.75
723.26	235.55
723.59	235.23
723.93	235.16
724.26	234.92
724.59	234.64
724.92	234.42
725.25	234.32
725.59	234.09
725.92	233.86
726.25	233.70
726.58	233.42
726.91	233.11
727.24	232.90
727.57	232.74
727.91	232.55
728.24	232.47
728.57	232.21
728.90	231.99
729.23	231.72
729.56	231.80
729.89	231.56
730.22	231.45
730.55	231.30
730.89	231.11
731.22	230.95
731.55	230.79
731.88	230.60
732.21	230.34
732.54	230.19
732.87	230.03
733.20	229.91
733.53	229.73
733.86	229.62
734.19	229.45
734.52	229.34
734.85	229.47
735.18	229.17
735.51	229.13
735.84	228.96
736.17	228.93
736.50	228.60
736.83	228.86
737.16	228.69
737.49	228.56
737.82	228.30
738.15	228.27
738.48	228.14
738.81	227.91
739.14	227.66
739.47	227.52
739.80	227.30
740.13	227.15
740.46	226.92
740.79	226.69
741.12	226.56
741.45	226.31
741.78	225.96
742.11	226.00
742.44	225.80
742.77	225.76
743.10	225.54
743.43	225.35
743.75	224.88
744.08	225.20
744.41	224.99
744.74	224.84
745.07	224.63
745.40	224.51
745.73	224.54
746.06	224.53
746.39	224.41
746.71	224.33
747.04	224.18
747.37	224.10
747.70	224.04
748.03	223.90
748.36	223.85
748.68	223.73
749.01	223.41
749.34	223.25
749.67	223.05
750.00	222.95
750.33	223.03
750.65	222.91
750.98	222.33
751.31	222.26
751.64	222.13
751.97	222.18
752.29	222.04
752.62	221.73
752.95	221.53
753.28	221.41
753.60	221.23
753.93	221.12
754.26	221.03
754.59	220.80
754.91	220.68
755.24	220.54
755.57	220.35
755.90	220.26
756.22	220.14
756.55	220.02
756.88	219.87
757.20	219.52
757.53	219.33
757.86	219.24
758.19	219.15
758.51	219.04
758.84	218.76
759.17	218.69
759.49	218.74
759.82	218.78
760.15	218.70
760.47	218.65
760.80	218.48
761.13	218.45
761.45	218.45
761.78	218.36
762.11	218.26
762.43	218.17
762.76	218.10
763.08	218.09
763.41	218.07
763.74	218.09
764.06	218.03
764.39	218.06
764.71	217.98
765.04	217.89
765.37	217.86
765.69	217.76
766.02	217.65
766.34	217.50
766.67	217.30
767.00	217.29
767.32	217.44
767.65	217.58
767.97	217.49
768.30	217.40
768.62	217.31
768.95	217.23
769.27	217.23
769.60	217.23
769.92	217.08
770.25	216.89
770.57	216.65
770.90	216.57
771.22	216.36
771.55	216.29
771.87	216.26
772.20	216.18
772.52	216.49
772.85	216.89
773.17	216.91
773.50	216.93
773.82	216.83
774.15	216.60
774.47	216.41
774.80	216.32
775.12	216.32
775.45	216.25
775.77	216.29
776.09	216.18
776.42	216.12
776.74	216.28
777.07	216.27
777.39	216.35
777.72	216.35
778.04	216.39
778.36	216.33
778.69	216.26
779.01	216.23
779.33	215.90
779.66	215.47
779.98	215.39
780.31	215.32
780.63	215.44
780.95	215.50
781.28	215.45
781.60	215.40
781.92	215.31
782.25	215.29
782.57	215.22
782.89	215.20
783.22	215.11
783.54	214.87
783.86	214.83
784.19	214.72
784.51	214.75
784.83	214.62
785.16	214.51
785.48	214.48
785.80	214.45
786.12	214.38
786.45	214.37
786.77	214.39
787.09	214.37
787.42	214.18
787.74	214.05
788.06	214.05
788.38	214.00
788.71	213.92
789.03	213.91
789.35	213.92
789.67	213.82
789.99	213.79
790.32	213.72
790.64	213.76
790.96	214.10
791.28	213.95
791.61	213.95
791.93	213.98
792.25	213.89
792.57	214.13
792.89	214.05
793.21	213.94
793.54	213.79
793.86	213.65
794.18	213.71
794.50	213.72
794.82	213.60
795.14	213.65
795.47	213.66
795.79	213.67
796.11	213.55
796.43	213.54
796.75	213.59
797.07	213.66
797.39	213.61
797.71	213.26
798.04	213.28
798.36	213.30
798.68	213.27
799.00	213.34
799.32	213.16
799.64	213.25
799.96	213.30
800.28	213.36
800.60	213.37
800.92	213.32
801.24	213.25
801.56	213.31
801.89	213.24
802.21	213.25
802.53	213.19
802.85	213.27
803.17	213.48
803.49	213.37
803.81	213.36
804.13	213.31
804.45	213.35
804.77	213.39
805.09	213.30
805.41	213.32
805.73	213.26
806.05	213.12
806.37	213.06
806.69	212.99
807.01	213.02
807.33	213.04
807.65	212.91
807.97	213.02
808.28	212.96
808.60	212.98
808.92	213.01
809.24	213.16
809.56	213.02
809.88	212.82
810.20	212.91
810.52	212.91
810.84	212.85
811.16	212.75
811.48	212.69
811.80	212.87
812.12	212.86
812.43	212.88
812.75	212.92
813.07	212.85
813.39	212.82
813.71	212.67
814.03	212.63
814.35	212.63
814.67	212.52
814.98	212.54
815.30	212.50
815.62	212.35
815.94	212.15
816.26	212.20
816.58	212.08
816.89	212.08
817.21	212.07
817.53	212.15
817.85	212.23
818.17	212.22
818.48	212.08
818.80	212.12
819.12	211.96
819.44	211.93
819.76	211.84
820.07	211.89
820.39	211.90
820.71	211.92
821.03	211.95
821.34	211.87
821.66	211.86
821.98	211.87
822.30	211.91
822.61	212.17
822.93	212.12
823.25	212.11
823.57	212.06
823.88	212.10
824.20	212.05
824.52	211.99
824.83	211.95
825.15	211.93
825.47	211.92
825.79	212.00
826.10	211.95
826.42	211.96
826.74	212.10
827.05	212.10
827.37	212.11
827.69	212.05
828.00	212.10
828.32	212.07
828.64	212.02
828.95	212.20
829.27	212.03
829.58	211.98
829.90	212.11
830.22	212.12
830.53	211.93
830.85	211.92
831.17	211.87
831.48	211.89
831.80	211.93
832.11	211.82
832.43	211.74
832.75	211.76
833.06	212.01
833.38	211.74
833.69	211.75
834.01	211.74
834.32	211.77
834.64	211.73
834.96	211.77
835.27	211.77
835.59	211.64
835.90	211.56
836.22	211.63
836.53	211.56
836.85	211.48
837.16	211.88
837.48	211.87
837.79	211.93
838.11	211.95
838.42	211.88
838.74	211.98
839.05	211.95
839.37	211.97
839.68	211.75
840.00	211.75
840.31	211.68
840.63	211.63
840.94	211.55
841.26	211.48
841.57	211.44
841.88	211.50
842.20	211.46
842.51	211.42
842.83	211.44
843.14	211.69
843.46	211.75
843.77	211.55
844.08	211.51
844.40	211.45
844.71	211.41
845.03	211.38
845.34	211.37
845.65	211.43
845.97	211.38
846.28	211.44
846.60	211.47
846.91	211.48
847.22	211.43
847.54	211.54
847.85	211.60
848.16	211.57
848.48	211.44
848.79	211.55
849.10	211.60
849.42	211.64
849.73	211.29
850.04	211.24
850.36	211.10
850.67	211.20
850.98	211.21
851.30	211.29
851.61	211.29
851.92	211.28
852.23	211.40
852.55	211.46
852.86	211.45
853.17	211.58
853.49	211.66
853.80	211.80
854.11	211.79
854.42	211.82
854.74	211.84
855.05	211.88
855.36	211.75
855.67	211.79
855.99	211.67
856.30	212.21
856.61	212.21
856.92	212.25
857.23	212.21
857.55	212.22
857.86	212.14
858.17	212.22
858.48	212.14
858.79	212.08
859.11	212.08
859.42	212.06
859.73	211.99
860.04	211.98
860.35	211.84
860.66	211.82
860.98	211.78
861.29	211.81
861.60	211.87
861.91	211.91
862.22	211.87
862.53	211.87
862.84	211.46
863.16	211.51
863.47	211.50
863.78	211.43
864.09	211.40
864.40	211.41
864.71	211.42
865.02	211.55
865.33	211.51
865.64	211.41
865.95	211.38
866.27	211.56
866.58	211.58
866.89	211.59
867.20	211.58
867.51	211.55
867.82	211.53
868.13	211.62
868.44	211.51
868.75	211.53
869.06	211.58
869.37	211.57
869.68	211.49
869.99	211.52
870.30	211.55
870.61	211.58
870.92	211.52
871.23	211.46
871.54	211.36
871.85	211.46
872.16	211.48
872.47	211.45
872.78	211.27
873.09	211.25
873.40	211.35
873.71	211.34
874.02	211.36
874.33	211.32
874.64	211.18
874.95	211.29
875.26	211.21
875.56	211.19
875.87	211.18
876.18	211.14
876.49	211.50
876.80	211.49
877.11	211.46
877.42	211.48
877.73	211.49
878.04	211.47
878.35	211.43
878.66	211.49
878.96	211.51
879.27	211.52
879.58	211.45
879.89	211.38
880.20	211.41
880.51	211.41
880.82	211.43
881.12	211.42
881.43	211.37
881.74	211.37
882.05	211.28
882.36	211.31
882.67	211.40
882.97	210.94
883.28	210.94
883.59	210.90
883.90	210.97
884.21	211.09
884.51	211.06
884.82	210.99
885.13	210.97
885.44	211.00
885.74	210.95
886.05	210.96
886.36	210.92
886.67	210.86
886.98	210.99
887.28	211.09
887.59	211.13
887.90	211.16
888.20	211.10
888.51	211.20
888.82	211.13
889.13	211.11
889.43	211.46
889.74	211.44
890.05	211.46
890.35	211.42
890.66	211.29
890.97	211.33
891.28	211.31
891.58	211.33
891.89	211.29
892.20	211.31
892.50	211.40
892.81	211.46
893.12	211.45
893.42	211.35
893.73	211.31
894.04	211.27
894.34	211.26
894.65	211.31
894.95	211.28
895.26	211.28
895.57	211.43
895.87	211.14
896.18	211.22
896.48	211.26
896.79	211.20
897.10	211.24
897.40	211.22
897.71	211.33
898.01	211.30
898.32	211.35
898.63	211.37
898.93	211.28
899.24	211.30
899.54	211.32
899.85	211.32
900.15	211.27
900.46	211.32
900.76	211.37
901.07	211.41
901.38	211.42
901.68	211.46
901.99	211.30
902.29	211.26
902.60	211.17
902.90	211.12
903.21	211.15
903.51	211.15
903.82	211.24
904.12	211.14
904.43	211.11
904.73	211.11
905.03	211.00
905.34	211.35
905.64	211.34
905.95	211.30
906.25	211.25
906.56	211.25
906.86	211.23
907.17	211.16
907.47	211.16
907.77	211.07
908.08	211.02
908.38	211.02
908.69	211.07
908.99	211.14
909.30	211.13
909.60	211.12
909.90	211.06
910.21	210.92
910.51	210.92
910.81	210.95
911.12	210.90
911.42	211.01
911.73	210.64
912.03	210.58
912.33	210.68
912.64	210.70
912.94	210.60
913.24	210.53
913.55	210.50
913.85	210.38
914.15	210.51
914.46	210.55
914.76	210.52
915.06	210.47
915.37	210.45
915.67	210.39
915.97	210.44
916.27	210.39
916.58	210.44
916.88	210.42
917.18	210.37
917.49	210.55
917.79	210.50
918.09	210.58
918.39	210.70
918.70	210.63
919.00	210.61
919.30	210.82
919.60	210.81
919.91	210.76
920.21	210.81
920.51	210.70
920.81	210.65
921.12	210.75
921.42	210.75
921.72	210.71
922.02	210.87
922.32	210.89
922.63	210.93
922.93	211.11
923.23	211.12
923.53	211.14
923.83	210.99
924.13	211.00
924.44	211.04
924.74	211.07
925.04	211.22
925.34	211.18
925.64	211.07
925.94	211.12
926.24	211.35
926.55	211.33
926.85	211.40
927.15	211.42
927.45	211.39
927.75	211.36
928.05	211.34
928.35	211.22
928.65	211.24
928.95	211.30
929.26	211.14
929.56	211.22
929.86	211.28
930.16	211.20
930.46	211.12
930.76	211.09
931.06	210.88
931.36	210.71
931.66	210.85
931.96	210.87
932.26	210.91
932.56	210.76
932.86	210.87
933.16	210.82
933.46	210.82
933.76	210.88
934.06	210.97
934.36	211.17
934.66	211.16
934.96	211.09
935.26	211.03
935.56	211.16
935.86	211.06
936.16	211.03
936.46	211.03
936.76	211.09
937.06	211.02
937.36	211.08
937.66	211.08
937.96	211.05
938.26	211.04
938.56	210.98
938.86	210.98
939.16	210.98
939.46	211.08
939.76	211.06
940.06	210.93
940.35	210.84
940.65	210.68
940.95	210.70
941.25	210.61
941.55	210.61
941.85	210.53
942.15	210.59
942.45	210.61
942.75	210.61
943.04	210.65
943.34	210.70
943.64	210.64
943.94	210.61
944.24	210.54
944.54	210.52
944.84	210.44
945.13	210.40
945.43	210.37
945.73	210.35
946.03	210.36
946.33	210.41
946.62	210.43
946.92	210.41
947.22	210.45
947.52	210.54
947.82	210.61
948.11	210.60
948.41	210.52
948.71	210.49
949.01	210.57
949.31	210.53
949.60	210.50
949.90	210.58
950.20	210.64
950.50	210.65
950.79	210.61
951.09	210.74
951.39	210.75
951.69	210.67
951.98	210.70
952.28	210.74
952.58	210.68
952.87	210.72
953.17	210.79
953.47	210.82
953.76	210.78
954.06	210.68
954.36	210.63
954.66	210.68
954.95	210.78
955.25	210.79
955.55	210.85
955.84	210.85
956.14	210.91
956.44	210.92
956.73	210.85
957.03	210.89
957.32	210.84
957.62	210.89
957.92	211.00
958.21	211.02
958.51	211.41
958.81	211.49
959.10	211.46
959.40	211.52
959.69	211.45
959.99	211.59
960.29	211.61
960.58	211.60
960.88	211.73
961.17	211.68
961.47	211.70
961.76	211.67
962.06	211.73
962.36	211.73
962.65	211.72
962.95	211.75
963.24	211.74
963.54	211.79
963.83	211.76
964.13	211.75
964.42	211.59
964.72	211.24
965.01	211.21
965.31	211.18
965.60	211.11
965.90	211.35
966.19	211.22
966.49	211.30
966.78	211.25
967.08	211.15
967.37	211.11
967.67	211.00
967.96	211.03
968.26	211.02
968.55	211.01
968.85	211.04
969.14	210.96
969.43	211.01
969.73	211.00
970.02	211.01
970.32	211.00
970.61	211.03
970.91	210.92
971.20	210.93
971.49	210.88
971.79	210.90
972.08	210.61
972.38	210.61
972.67	210.54
972.96	210.66
973.26	210.60
973.55	210.71
973.85	210.71
974.14	210.64
974.43	210.64
974.73	210.57
975.02	210.46
975.31	210.54
975.61	210.46
975.90	210.39
976.19	210.36
976.49	210.35
976.78	210.35
977.07	210.36
977.37	210.36
977.66	210.43
977.95	210.40
978.24	210.45
978.54	210.56
978.83	210.51
979.12	210.44
979.42	210.46
979.71	210.41
980.00	210.41
980.29	210.43
980.59	210.36
980.88	210.46
981.17	210.58
981.46	210.59
981.76	210.62
982.05	210.74
982.34	210.80
982.63	210.81
982.93	210.83
983.22	210.98
983.51	210.93
983.80	210.98
984.09	211.00
984.39	210.99
984.68	210.95
984.97	211.00
985.26	211.02
985.55	211.09
985.85	211.01
986.14	211.09
986.43	211.12
986.72	211.09
987.01	210.98
987.30	210.98
987.59	210.99
987.89	210.98
988.18	210.85
988.47	210.74
988.76	210.74
989.05	210.73
989.34	210.69
989.63	210.84
989.92	210.79
990.22	210.76
990.51	210.80
990.80	210.83
991.09	210.90
991.38	210.94
991.67	210.91
991.96	210.98
992.25	210.96
992.54	210.95
992.83	210.96
993.12	211.00
993.41	210.99
993.70	211.19
993.99	211.24
994.28	211.32
994.58	211.49
994.87	211.48
995.16	211.45
995.45	211.36
995.74	211.22
996.03	211.31
996.32	211.35
996.61	211.36
996.90	211.38
997.19	211.37
997.48	211.38
997.77	211.30
998.06	211.25
998.34	211.24
998.63	211.26
998.92	211.30
999.21	211.34
999.50	211.34
999.79	211.20
1000.08	211.18
1000.37	211.13
1000.66	211.03
1000.95	211.12
1001.24	211.22
1001.53	211.26
1001.82	211.23
1002.11	211.12
1002.40	211.13
1002.68	211.25
1002.97	211.38
1003.26	211.31
1003.55	211.20
1003.84	211.20
1004.13	211.35
1004.42	211.35
1004.71	211.28
1004.99	211.23
1005.28	211.29
1005.57	211.20
1005.86	211.12
1006.15	211.11
1006.44	211.07
1006.72	211.10
1007.01	210.94
1007.30	210.87
1007.59	210.90
1007.88	210.97
1008.17	211.00
1008.45	210.89
1008.74	210.71
1009.03	210.60
1009.32	210.60
1009.60	210.67
1009.89	210.61
1010.18	210.47
1010.47	210.43
1010.76	210.46
1011.04	210.45
1011.33	210.46
1011.62	210.55
1011.91	210.56
1012.19	210.55
1012.48	210.58
1012.77	210.62
1013.05	210.80
1013.34	210.82
1013.63	210.79
1013.92	210.79
1014.20	210.73
1014.49	210.75
1014.78	210.80
1015.06	210.67
1015.35	210.66
1015.64	210.71
1015.92	210.79
1016.21	210.80
1016.50	210.84
1016.78	210.88
1017.07	210.95
1017.36	210.87
1017.64	210.80
1017.93	210.86
1018.22	210.87
1018.50	210.81
1018.79	210.75
1019.08	210.57
1019.36	210.57
1019.65	210.50
1019.93	210.56
1020.22	210.60
1020.51	210.81
1020.79	210.74
1021.08	210.60
1021.36	208.60
1021.65	210.65
1021.94	209.90
1022.22	210.65
1022.51	209.95
1022.79	212.10
1023.08	210.40
1023.36	214.50
1023.65	209.10
>>>>>End Processed Spectral Data<<<<<
