SpectraSuite Data File
++++++++++++++++++++++++++++++++++++
Date: Mon Feb 25 17:05:26 EST 2013
User: group
Dark Spectrum Present: No
Reference Spectrum Present: No
Number of Sampled Component Spectra: 1
Spectrometers: USB2E7196
Integration Time (usec): 104000 (USB2E7196)
Spectra Averaged: 20 (USB2E7196)
Boxcar Smoothing: 10 (USB2E7196)
Correct for Electrical Dark: No (USB2E7196)
Strobe/Lamp Enabled: No (USB2E7196)
Correct for Detector Non-linearity: No (USB2E7196)
Correct for Stray Light: No (USB2E7196)
Number of Pixels in Processed Spectrum: 2048
>>>>>Begin Processed Spectral Data<<<<<
339.09	0.00
339.48	198.35
339.86	200.65
340.24	201.20
340.63	202.55
341.01	209.50
341.39	205.60
341.78	207.60
342.16	208.65
342.54	208.55
342.93	198.17
343.31	208.18
343.69	208.74
344.07	209.16
344.46	209.63
344.84	209.95
345.22	209.91
345.60	210.15
345.99	210.24
346.37	210.37
346.75	210.43
347.13	210.52
347.52	210.53
347.90	210.67
348.28	210.73
348.66	210.75
349.05	210.60
349.43	210.68
349.81	210.64
350.19	210.65
350.57	210.60
350.96	210.64
351.34	210.70
351.72	210.82
352.10	210.88
352.48	210.89
352.87	210.95
353.25	211.04
353.63	211.05
354.01	211.15
354.39	211.15
354.77	211.20
355.15	211.28
355.54	211.31
355.92	211.22
356.30	211.23
356.68	211.52
357.06	211.69
357.44	211.66
357.82	211.78
358.20	211.94
358.58	212.03
358.97	212.12
359.35	212.23
359.73	212.32
360.11	212.40
360.49	212.47
360.87	212.45
361.25	212.60
361.63	212.81
362.01	212.88
362.39	212.91
362.77	212.99
363.15	212.99
363.53	213.04
363.91	213.07
364.29	213.12
364.67	212.79
365.05	212.82
365.43	212.87
365.81	212.99
366.19	213.11
366.57	213.30
366.95	213.31
367.33	213.24
367.71	213.24
368.09	213.32
368.47	213.32
368.85	213.40
369.23	213.41
369.61	213.21
369.99	213.32
370.37	213.38
370.75	213.50
371.13	213.41
371.51	213.37
371.89	213.38
372.27	213.38
372.65	213.34
373.03	213.27
373.41	213.28
373.78	213.15
374.16	212.88
374.54	212.65
374.92	212.54
375.30	212.44
375.68	212.30
376.06	212.27
376.44	212.20
376.82	212.15
377.19	212.05
377.57	212.00
377.95	211.78
378.33	211.75
378.71	211.54
379.09	211.61
379.47	211.55
379.84	211.46
380.22	211.40
380.60	211.36
380.98	211.30
381.36	211.28
381.73	211.15
382.11	211.19
382.49	211.20
382.87	211.08
383.25	211.05
383.62	211.39
384.00	211.17
384.38	211.17
384.76	211.21
385.13	211.29
385.51	211.24
385.89	211.17
386.27	211.01
386.64	211.05
387.02	210.90
387.40	210.82
387.78	210.82
388.15	210.80
388.53	210.73
388.91	210.74
389.29	210.64
389.66	210.62
390.04	210.50
390.42	210.57
390.79	210.60
391.17	210.50
391.55	210.13
391.92	210.22
392.30	210.16
392.68	210.00
393.05	209.97
393.43	209.96
393.81	209.94
394.18	209.96
394.56	209.91
394.94	210.03
395.31	209.95
395.69	210.04
396.06	210.05
396.44	210.05
396.82	210.02
397.19	210.17
397.57	210.15
397.95	210.26
398.32	210.11
398.70	210.15
399.07	210.32
399.45	210.27
399.82	210.21
400.20	210.24
400.58	210.33
400.95	210.21
401.33	210.35
401.70	210.70
402.08	210.70
402.45	210.76
402.83	210.79
403.20	210.94
403.58	210.92
403.95	210.97
404.33	211.06
404.71	211.10
405.08	211.33
405.46	211.46
405.83	211.59
406.21	211.71
406.58	211.83
406.96	211.89
407.33	212.01
407.70	212.19
408.08	212.61
408.45	212.83
408.83	213.16
409.20	213.30
409.58	213.32
409.95	213.64
410.33	213.90
410.70	214.12
411.08	214.44
411.45	214.70
411.82	214.99
412.20	215.48
412.57	216.08
412.95	216.29
413.32	216.80
413.69	217.18
414.07	217.70
414.44	218.22
414.82	218.83
415.19	219.53
415.56	220.17
415.94	220.74
416.31	221.54
416.68	222.30
417.06	223.21
417.43	224.12
417.81	225.16
418.18	226.14
418.55	227.25
418.93	228.42
419.30	229.72
419.67	231.02
420.04	232.28
420.42	233.65
420.79	235.44
421.16	236.99
421.54	238.83
421.91	240.53
422.28	242.50
422.66	244.34
423.03	246.45
423.40	248.49
423.77	250.51
424.15	252.55
424.52	254.80
424.89	257.26
425.26	259.56
425.64	261.74
426.01	264.21
426.38	266.75
426.75	269.43
427.13	272.12
427.50	275.01
427.87	277.94
428.24	280.83
428.61	283.50
428.99	286.77
429.36	290.03
429.73	293.48
430.10	296.68
430.47	300.21
430.85	303.57
431.22	307.31
431.59	311.50
431.96	315.42
432.33	319.70
432.70	323.85
433.08	328.73
433.45	333.30
433.82	337.89
434.19	343.05
434.56	348.07
434.93	352.80
435.30	357.51
435.68	362.89
436.05	368.16
436.42	373.31
436.79	378.05
437.16	383.32
437.53	388.84
437.90	394.37
438.27	399.83
438.64	405.42
439.01	410.62
439.38	415.10
439.75	419.70
440.13	424.76
440.50	429.64
440.87	433.73
441.24	437.94
441.61	442.62
441.98	445.94
442.35	449.85
442.72	453.97
443.09	458.15
443.46	460.59
443.83	462.28
444.20	463.87
444.57	466.00
444.94	467.12
445.31	468.29
445.68	469.82
446.05	470.46
446.42	470.15
446.79	469.89
447.16	469.47
447.53	469.28
447.90	467.64
448.27	465.94
448.64	463.38
449.01	461.64
449.37	458.34
449.74	455.18
450.11	451.47
450.48	447.23
450.85	442.59
451.22	438.80
451.59	435.31
451.96	431.98
452.33	427.19
452.70	422.96
453.07	417.80
453.43	412.13
453.80	407.05
454.17	402.42
454.54	397.89
454.91	393.11
455.28	388.23
455.65	383.80
456.02	379.68
456.38	375.82
456.75	371.15
457.12	367.14
457.49	363.31
457.86	359.33
458.23	356.04
458.59	352.55
458.96	348.99
459.33	345.81
459.70	342.62
460.07	340.23
460.43	337.35
460.80	334.65
461.17	332.38
461.54	329.93
461.91	327.44
462.27	324.97
462.64	322.86
463.01	320.52
463.38	318.34
463.74	315.69
464.11	313.68
464.48	311.87
464.85	309.96
465.21	308.51
465.58	307.10
465.95	305.19
466.32	303.71
466.68	302.22
467.05	300.71
467.42	299.11
467.78	297.54
468.15	296.05
468.52	295.03
468.88	293.44
469.25	292.02
469.62	291.00
469.98	289.81
470.35	288.62
470.72	287.63
471.08	286.42
471.45	285.53
471.82	284.65
472.18	283.70
472.55	282.95
472.92	281.93
473.28	280.98
473.65	280.26
474.02	279.45
474.38	278.84
474.75	278.25
475.11	277.73
475.48	277.21
475.85	276.70
476.21	276.06
476.58	275.75
476.94	275.51
477.31	275.13
477.67	274.75
478.04	274.51
478.41	274.32
478.77	274.44
479.14	274.17
479.50	273.94
479.87	273.80
480.23	273.70
480.60	273.56
480.96	273.58
481.33	273.74
481.69	273.73
482.06	273.76
482.42	273.79
482.79	273.74
483.15	273.80
483.52	274.09
483.88	274.29
484.25	274.43
484.61	274.55
484.98	274.77
485.34	275.20
485.71	275.51
486.07	275.84
486.44	275.87
486.80	276.17
487.17	276.61
487.53	277.12
487.90	277.67
488.26	278.41
488.62	279.07
488.99	279.52
489.35	280.25
489.72	280.80
490.08	281.44
490.44	282.10
490.81	282.88
491.17	283.58
491.54	284.43
491.90	285.28
492.26	286.10
492.63	287.00
492.99	287.88
493.36	288.86
493.72	289.97
494.08	290.94
494.45	292.15
494.81	293.23
495.17	294.28
495.54	295.43
495.90	296.50
496.26	297.57
496.63	298.79
496.99	299.88
497.35	301.20
497.72	302.59
498.08	304.02
498.44	305.33
498.80	306.53
499.17	307.77
499.53	309.12
499.89	310.61
500.26	311.94
500.62	313.19
500.98	314.60
501.34	315.87
501.71	317.39
502.07	318.68
502.43	320.02
502.79	321.32
503.16	322.54
503.52	323.86
503.88	325.06
504.24	326.45
504.60	327.83
504.97	329.24
505.33	330.34
505.69	331.61
506.05	332.81
506.41	334.12
506.78	335.42
507.14	336.54
507.50	337.70
507.86	338.99
508.22	340.23
508.59	341.21
508.95	342.31
509.31	343.45
509.67	344.46
510.03	345.52
510.39	346.58
510.75	347.69
511.12	348.68
511.48	349.76
511.84	350.67
512.20	351.55
512.56	352.33
512.92	353.52
513.28	354.53
513.64	355.46
514.00	356.37
514.37	357.33
514.73	358.37
515.09	359.27
515.45	359.98
515.81	360.87
516.17	361.77
516.53	362.68
516.89	363.40
517.25	364.35
517.61	365.30
517.97	366.19
518.33	367.12
518.69	368.11
519.05	368.98
519.41	370.08
519.77	371.36
520.13	372.39
520.49	373.13
520.85	373.95
521.21	375.16
521.57	376.17
521.93	377.09
522.29	378.21
522.65	379.20
523.01	380.44
523.37	381.59
523.73	382.93
524.09	384.11
524.45	385.40
524.81	386.67
525.17	387.99
525.53	389.55
525.89	390.85
526.25	392.35
526.61	393.78
526.97	395.19
527.33	396.63
527.68	398.64
528.04	400.45
528.40	402.08
528.76	403.77
529.12	405.57
529.48	407.54
529.84	409.40
530.20	411.32
530.56	413.36
530.91	415.40
531.27	417.45
531.63	419.58
531.99	421.69
532.35	423.84
532.71	426.05
533.07	428.23
533.42	430.98
533.78	433.25
534.14	435.62
534.50	437.91
534.86	440.37
535.21	442.31
535.57	444.70
535.93	447.22
536.29	449.64
536.65	452.11
537.00	454.55
537.36	456.96
537.72	459.71
538.08	462.24
538.44	464.81
538.79	467.44
539.15	470.00
539.51	472.71
539.87	475.50
540.22	478.20
540.58	480.95
540.94	483.42
541.29	486.17
541.65	488.84
542.01	491.73
542.37	494.35
542.72	497.31
543.08	500.09
543.44	503.02
543.79	505.78
544.15	508.76
544.51	511.74
544.87	514.70
545.22	517.44
545.58	520.28
545.94	523.11
546.29	525.90
546.65	528.70
547.01	531.25
547.36	533.99
547.72	536.69
548.07	539.25
548.43	541.68
548.79	544.18
549.14	546.95
549.50	549.64
549.86	552.17
550.21	554.63
550.57	557.30
550.92	559.90
551.28	562.61
551.64	565.00
551.99	567.52
552.35	569.81
552.70	572.14
553.06	574.46
553.41	576.76
553.77	579.17
554.13	581.45
554.48	584.26
554.84	586.68
555.19	588.85
555.55	591.41
555.90	593.70
556.26	595.89
556.61	597.98
556.97	599.78
557.32	601.77
557.68	603.81
558.03	605.66
558.39	607.49
558.74	609.36
559.10	611.30
559.45	613.25
559.81	615.35
560.16	617.22
560.52	619.28
560.87	621.34
561.23	622.96
561.58	625.04
561.94	626.48
562.29	628.16
562.64	630.14
563.00	631.57
563.35	633.45
563.71	635.29
564.06	636.87
564.42	638.69
564.77	640.53
565.12	642.31
565.48	644.18
565.83	645.76
566.19	647.29
566.54	648.68
566.89	649.99
567.25	651.50
567.60	653.12
567.96	654.58
568.31	655.90
568.66	657.36
569.02	658.17
569.37	659.19
569.72	660.22
570.08	661.14
570.43	662.01
570.78	662.63
571.14	663.24
571.49	664.08
571.84	664.78
572.20	665.21
572.55	665.64
572.90	665.95
573.26	666.21
573.61	666.41
573.96	666.86
574.31	667.00
574.67	666.94
575.02	666.79
575.37	666.38
575.72	666.06
576.08	665.87
576.43	665.81
576.78	665.66
577.13	665.61
577.49	665.44
577.84	665.33
578.19	665.36
578.54	665.49
578.90	665.45
579.25	665.42
579.60	665.25
579.95	664.94
580.30	664.71
580.66	664.69
581.01	664.57
581.36	664.11
581.71	663.85
582.06	663.70
582.42	663.39
582.77	663.08
583.12	662.89
583.47	662.76
583.82	662.54
584.17	662.45
584.53	662.24
584.88	661.85
585.23	661.66
585.58	661.15
585.93	660.59
586.28	660.13
586.63	659.63
586.98	659.25
587.34	658.98
587.69	658.53
588.04	658.05
588.39	657.52
588.74	656.89
589.09	656.41
589.44	655.64
589.79	655.24
590.14	654.68
590.49	653.85
590.84	653.08
591.19	652.73
591.54	651.90
591.89	650.88
592.25	650.38
592.60	649.48
592.95	648.55
593.30	647.43
593.65	646.40
594.00	645.16
594.35	645.09
594.70	643.98
595.05	642.84
595.40	641.67
595.75	640.48
596.10	639.68
596.45	638.73
596.80	637.92
597.15	636.86
597.50	635.90
597.85	635.22
598.19	634.08
598.54	633.02
598.89	632.14
599.24	631.44
599.59	630.25
599.94	629.50
600.29	628.67
600.64	628.04
600.99	627.07
601.34	626.39
601.69	624.56
602.04	623.60
602.39	622.69
602.74	621.97
603.08	621.37
603.43	620.80
603.78	619.79
604.13	618.89
604.48	618.00
604.83	617.36
605.18	616.61
605.53	615.82
605.87	614.75
606.22	613.80
606.57	612.60
606.92	611.61
607.27	610.42
607.62	609.32
607.96	608.39
608.31	607.59
608.66	606.46
609.01	605.22
609.36	604.06
609.70	602.92
610.05	601.62
610.40	600.30
610.75	598.84
611.10	597.77
611.44	596.24
611.79	594.76
612.14	593.27
612.49	591.35
612.83	589.92
613.18	588.31
613.53	586.79
613.88	585.18
614.22	583.54
614.57	582.00
614.92	580.48
615.27	578.91
615.61	577.12
615.96	575.62
616.31	574.15
616.65	572.71
617.00	571.23
617.35	569.58
617.70	567.89
618.04	566.07
618.39	564.13
618.74	562.58
619.08	560.92
619.43	559.17
619.78	557.80
620.12	556.14
620.47	554.66
620.82	552.75
621.16	550.97
621.51	549.49
621.85	547.68
622.20	545.81
622.55	543.76
622.89	542.09
623.24	540.34
623.59	538.58
623.93	536.79
624.28	535.05
624.62	533.74
624.97	532.14
625.32	530.51
625.66	529.08
626.01	527.35
626.35	525.75
626.70	524.00
627.04	522.38
627.39	520.71
627.73	518.88
628.08	517.49
628.43	515.89
628.77	513.96
629.12	512.36
629.46	511.10
629.81	509.59
630.15	507.86
630.50	506.10
630.84	504.38
631.19	502.75
631.53	501.18
631.88	499.10
632.22	497.35
632.57	495.85
632.91	493.99
633.26	492.33
633.60	490.72
633.95	489.22
634.29	487.52
634.64	485.93
634.98	484.25
635.32	482.73
635.67	481.19
636.01	479.85
636.36	478.19
636.70	476.44
637.05	474.81
637.39	473.25
637.73	471.76
638.08	470.42
638.42	468.87
638.77	467.29
639.11	465.82
639.45	464.18
639.80	462.31
640.14	460.69
640.49	459.24
640.83	457.52
641.17	455.89
641.52	454.10
641.86	452.27
642.20	450.86
642.55	448.83
642.89	447.11
643.23	445.39
643.58	443.96
643.92	442.30
644.26	440.70
644.61	439.12
644.95	437.55
645.29	435.81
645.64	434.24
645.98	432.60
646.32	431.02
646.66	429.35
647.01	427.87
647.35	426.35
647.69	424.65
648.04	423.10
648.38	421.59
648.72	420.19
649.06	418.66
649.41	416.86
649.75	415.45
650.09	414.01
650.43	412.42
650.78	410.65
651.12	408.99
651.46	407.52
651.80	405.93
652.14	404.24
652.49	402.77
652.83	401.16
653.17	399.46
653.51	397.87
653.85	396.42
654.20	394.90
654.54	393.22
654.88	391.59
655.22	390.13
655.56	388.42
655.90	386.73
656.25	385.20
656.59	383.77
656.93	382.31
657.27	380.86
657.61	379.23
657.95	377.87
658.29	376.43
658.64	374.89
658.98	373.41
659.32	371.79
659.66	370.36
660.00	368.79
660.34	367.29
660.68	365.81
661.02	364.37
661.36	362.92
661.70	361.70
662.05	360.35
662.39	359.13
662.73	358.00
663.07	356.92
663.41	355.65
663.75	354.25
664.09	352.90
664.43	351.46
664.77	350.28
665.11	348.95
665.45	347.73
665.79	346.66
666.13	345.50
666.47	344.45
666.81	343.22
667.15	342.04
667.49	341.07
667.83	340.05
668.17	338.85
668.51	337.69
668.85	336.45
669.19	335.55
669.53	334.26
669.87	333.05
670.21	331.85
670.55	330.82
670.89	330.03
671.23	329.06
671.57	328.16
671.91	327.18
672.25	326.21
672.58	325.23
672.92	323.98
673.26	323.04
673.60	322.06
673.94	321.01
674.28	320.12
674.62	319.15
674.96	318.04
675.30	317.22
675.64	316.40
675.97	315.56
676.31	314.58
676.65	313.66
676.99	312.87
677.33	311.95
677.67	311.08
678.01	310.00
678.34	309.07
678.68	308.19
679.02	307.24
679.36	306.31
679.70	305.39
680.04	304.59
680.37	303.55
680.71	302.74
681.05	301.94
681.39	301.10
681.73	300.29
682.06	299.51
682.40	298.69
682.74	297.82
683.08	297.03
683.42	296.18
683.75	295.40
684.09	294.38
684.43	293.58
684.77	292.63
685.10	291.85
685.44	290.99
685.78	290.22
686.12	289.44
686.45	288.63
686.79	287.90
687.13	287.21
687.46	286.57
687.80	285.85
688.14	285.06
688.48	284.40
688.81	283.55
689.15	282.83
689.49	281.97
689.82	281.30
690.16	280.47
690.50	279.72
690.83	278.91
691.17	278.22
691.51	277.49
691.84	276.97
692.18	276.35
692.52	275.69
692.85	275.02
693.19	274.52
693.52	273.92
693.86	273.26
694.20	272.64
694.53	271.96
694.87	271.31
695.21	270.65
695.54	269.88
695.88	269.21
696.21	268.59
696.55	268.10
696.88	267.48
697.22	266.92
697.56	266.38
697.89	265.89
698.23	265.41
698.56	264.87
698.90	264.25
699.23	263.64
699.57	263.13
699.90	262.45
700.24	261.78
700.58	261.30
700.91	260.81
701.25	260.47
701.58	260.08
701.92	259.61
702.25	259.23
702.59	258.82
702.92	258.38
703.26	257.99
703.59	257.55
703.93	257.33
704.26	256.95
704.60	256.48
704.93	256.00
705.26	255.47
705.60	255.05
705.93	254.58
706.27	254.12
706.60	253.80
706.94	253.67
707.27	253.20
707.61	252.76
707.94	252.28
708.27	251.61
708.61	251.10
708.94	250.78
709.28	250.30
709.61	249.88
709.94	249.57
710.28	249.11
710.61	248.73
710.95	248.02
711.28	247.94
711.61	247.56
711.95	247.26
712.28	246.92
712.61	246.55
712.95	246.35
713.28	246.20
713.61	245.80
713.95	245.33
714.28	245.06
714.61	244.66
714.95	244.34
715.28	244.03
715.61	243.67
715.95	243.25
716.28	242.93
716.61	242.65
716.95	242.21
717.28	241.86
717.61	241.48
717.94	241.25
718.28	240.59
718.61	240.27
718.94	239.92
719.27	239.60
719.61	239.31
719.94	239.02
720.27	238.55
720.60	238.19
720.94	237.86
721.27	237.58
721.60	237.38
721.93	236.98
722.27	236.89
722.60	236.60
722.93	236.33
723.26	236.01
723.59	235.68
723.93	235.49
724.26	235.26
724.59	234.94
724.92	234.68
725.25	234.54
725.59	234.28
725.92	234.10
726.25	233.89
726.58	233.65
726.91	233.38
727.24	233.18
727.57	232.95
727.91	232.69
728.24	232.48
728.57	232.20
728.90	232.05
729.23	231.67
729.56	231.70
729.89	231.51
730.22	231.32
730.55	231.11
730.89	230.94
731.22	230.71
731.55	230.54
731.88	230.36
732.21	230.04
732.54	229.85
732.87	229.56
733.20	229.40
733.53	229.26
733.86	229.05
734.19	228.77
734.52	228.64
734.85	228.69
735.18	228.47
735.51	228.38
735.84	228.31
736.17	228.20
736.50	227.85
736.83	228.13
737.16	228.00
737.49	227.88
737.82	227.62
738.15	227.49
738.48	227.41
738.81	227.14
739.14	227.01
739.47	226.90
739.80	226.77
740.13	226.68
740.46	226.38
740.79	226.16
741.12	226.10
741.45	225.90
741.78	225.55
742.11	225.47
742.44	225.23
742.77	225.09
743.10	224.90
743.43	224.75
743.75	224.13
744.08	224.41
744.41	224.18
744.74	224.03
745.07	223.83
745.40	223.70
745.73	223.84
746.06	223.71
746.39	223.59
746.71	223.40
747.04	223.22
747.37	223.09
747.70	223.02
748.03	222.90
748.36	222.89
748.68	222.79
749.01	222.59
749.34	222.53
749.67	222.45
750.00	222.41
750.33	222.58
750.65	222.53
750.98	222.02
751.31	222.01
751.64	222.00
751.97	222.14
752.29	221.98
752.62	221.71
752.95	221.61
753.28	221.41
753.60	221.32
753.93	221.29
754.26	221.24
754.59	221.01
754.91	220.86
755.24	220.69
755.57	220.58
755.90	220.49
756.22	220.34
756.55	220.15
756.88	219.97
757.20	219.56
757.53	219.39
757.86	219.23
758.19	219.09
758.51	218.98
758.84	218.66
759.17	218.59
759.49	218.49
759.82	218.55
760.15	218.56
760.47	218.50
760.80	218.28
761.13	218.26
761.45	218.24
761.78	218.15
762.11	218.05
762.43	217.91
762.76	217.79
763.08	217.80
763.41	217.77
763.74	217.71
764.06	217.65
764.39	217.57
764.71	217.52
765.04	217.42
765.37	217.34
765.69	217.30
766.02	217.22
766.34	217.09
766.67	216.86
767.00	216.89
767.32	217.01
767.65	217.18
767.97	217.13
768.30	217.12
768.62	217.10
768.95	217.01
769.27	217.00
769.60	216.98
769.92	216.85
770.25	216.73
770.57	216.54
770.90	216.45
771.22	216.42
771.55	216.45
771.87	216.42
772.20	216.36
772.52	216.59
772.85	216.95
773.17	216.95
773.50	216.91
773.82	216.71
774.15	216.47
774.47	216.19
774.80	216.02
775.12	215.98
775.45	215.91
775.77	215.94
776.09	215.91
776.42	215.93
776.74	216.03
777.07	216.00
777.39	215.98
777.72	215.99
778.04	215.92
778.36	215.70
778.69	215.65
779.01	215.58
779.33	215.22
779.66	214.82
779.98	214.65
780.31	214.68
780.63	214.86
780.95	214.87
781.28	214.90
781.60	214.81
781.92	214.70
782.25	214.58
782.57	214.48
782.89	214.39
783.22	214.30
783.54	214.10
783.86	214.08
784.19	214.09
784.51	214.14
784.83	214.04
785.16	214.09
785.48	214.05
785.80	214.04
786.12	214.06
786.45	213.98
786.77	214.03
787.09	213.92
787.42	213.68
787.74	213.70
788.06	213.59
788.38	213.62
788.71	213.60
789.03	213.64
789.35	213.65
789.67	213.59
789.99	213.63
790.32	213.59
790.64	213.58
790.96	213.84
791.28	213.68
791.61	213.70
791.93	213.67
792.25	213.61
792.57	213.88
792.89	213.80
793.21	213.87
793.54	213.82
793.86	213.78
794.18	213.82
794.50	213.68
794.82	213.77
795.14	213.78
795.47	213.83
795.79	213.82
796.11	213.73
796.43	213.70
796.75	213.59
797.07	213.58
797.39	213.54
797.71	213.32
798.04	213.36
798.36	213.36
798.68	213.40
799.00	213.52
799.32	213.27
799.64	213.39
799.96	213.38
800.28	213.41
800.60	213.44
800.92	213.37
801.24	213.38
801.56	213.42
801.89	213.36
802.21	213.33
802.53	213.31
802.85	213.42
803.17	213.63
803.49	213.55
803.81	213.56
804.13	213.57
804.45	213.41
804.77	213.47
805.09	213.40
805.41	213.32
805.73	213.19
806.05	213.12
806.37	213.00
806.69	212.93
807.01	212.90
807.33	212.93
807.65	212.89
807.97	213.01
808.28	212.92
808.60	212.97
808.92	212.96
809.24	213.13
809.56	213.10
809.88	212.98
810.20	213.10
810.52	213.13
810.84	213.06
811.16	213.08
811.48	212.95
811.80	213.09
812.12	213.06
812.43	213.12
812.75	213.04
813.07	212.97
813.39	212.99
813.71	212.94
814.03	212.83
814.35	212.75
814.67	212.66
814.98	212.57
815.30	212.54
815.62	212.47
815.94	212.25
816.26	212.16
816.58	212.10
816.89	212.06
817.21	211.98
817.53	212.05
817.85	212.06
818.17	212.12
818.48	211.95
818.80	212.04
819.12	212.01
819.44	211.96
819.76	211.98
820.07	211.95
820.39	211.97
820.71	211.94
821.03	211.95
821.34	211.83
821.66	211.95
821.98	211.94
822.30	211.91
822.61	212.12
822.93	212.12
823.25	212.10
823.57	212.09
823.88	212.17
824.20	212.10
824.52	212.16
824.83	212.09
825.15	212.07
825.47	212.01
825.79	212.04
826.10	212.03
826.42	211.95
826.74	211.97
827.05	211.91
827.37	212.00
827.69	212.00
828.00	212.06
828.32	212.00
828.64	211.97
828.95	212.14
829.27	212.00
829.58	211.98
829.90	212.00
830.22	211.95
830.53	211.81
830.85	211.80
831.17	211.66
831.48	211.65
831.80	211.67
832.11	211.73
832.43	211.60
832.75	211.66
833.06	211.84
833.38	211.69
833.69	211.66
834.01	211.64
834.32	211.65
834.64	211.64
834.96	211.58
835.27	211.56
835.59	211.48
835.90	211.37
836.22	211.34
836.53	211.25
836.85	211.27
837.16	211.58
837.48	211.58
837.79	211.67
838.11	211.70
838.42	211.80
838.74	211.79
839.05	211.81
839.37	211.83
839.68	211.67
840.00	211.71
840.31	211.83
840.63	211.81
840.94	211.74
841.26	211.66
841.57	211.70
841.88	211.80
842.20	211.74
842.51	211.74
842.83	211.74
843.14	212.13
843.46	212.10
843.77	211.96
844.08	211.90
844.40	211.90
844.71	211.88
845.03	211.80
845.34	211.72
845.65	211.73
845.97	211.68
846.28	211.70
846.60	211.70
846.91	211.63
847.22	211.63
847.54	211.77
847.85	211.91
848.16	211.92
848.48	211.81
848.79	211.88
849.10	211.94
849.42	211.98
849.73	211.58
850.04	211.56
850.36	211.44
850.67	211.53
850.98	211.51
851.30	211.57
851.61	211.51
851.92	211.55
852.23	211.73
852.55	211.71
852.86	211.65
853.17	211.76
853.49	211.80
853.80	211.84
854.11	211.79
854.42	211.78
854.74	211.71
855.05	211.69
855.36	211.53
855.67	211.49
855.99	211.51
856.30	211.96
856.61	211.98
856.92	211.99
857.23	211.95
857.55	211.82
857.86	211.72
858.17	211.82
858.48	211.72
858.79	211.60
859.11	211.71
859.42	211.78
859.73	211.66
860.04	211.67
860.35	211.60
860.66	211.51
860.98	211.44
861.29	211.47
861.60	211.50
861.91	211.66
862.22	211.62
862.53	211.56
862.84	211.10
863.16	211.18
863.47	211.13
863.78	211.12
864.09	211.29
864.40	211.42
864.71	211.35
865.02	211.44
865.33	211.40
865.64	211.26
865.95	211.25
866.27	211.50
866.58	211.39
866.89	211.48
867.20	211.43
867.51	211.37
867.82	211.32
868.13	211.38
868.44	211.26
868.75	211.35
869.06	211.35
869.37	211.43
869.68	211.29
869.99	211.36
870.30	211.40
870.61	211.36
870.92	211.25
871.23	211.23
871.54	211.24
871.85	211.32
872.16	211.42
872.47	211.38
872.78	211.15
873.09	211.21
873.40	211.13
873.71	211.20
874.02	211.31
874.33	211.29
874.64	211.20
874.95	211.24
875.26	211.16
875.56	211.15
875.87	211.11
876.18	211.12
876.49	211.44
876.80	211.35
877.11	211.25
877.42	211.22
877.73	211.26
878.04	211.22
878.35	211.19
878.66	211.21
878.96	211.20
879.27	211.20
879.58	211.17
879.89	211.10
880.20	211.21
880.51	211.11
880.82	211.18
881.12	211.21
881.43	211.14
881.74	211.17
882.05	211.13
882.36	211.15
882.67	211.19
882.97	210.76
883.28	210.75
883.59	210.75
883.90	210.82
884.21	210.84
884.51	210.80
884.82	210.74
885.13	210.73
885.44	210.65
885.74	210.64
886.05	210.64
886.36	210.71
886.67	210.58
886.98	210.77
887.28	210.73
887.59	210.78
887.90	210.78
888.20	210.75
888.51	210.89
888.82	210.85
889.13	210.89
889.43	211.20
889.74	211.21
890.05	211.21
890.35	211.20
890.66	211.15
890.97	211.13
891.28	211.08
891.58	211.06
891.89	211.12
892.20	211.14
892.50	211.15
892.81	211.07
893.12	211.05
893.42	210.87
893.73	210.89
894.04	210.86
894.34	210.94
894.65	210.87
894.95	210.76
895.26	210.79
895.57	210.95
895.87	210.67
896.18	210.69
896.48	210.68
896.79	210.69
897.10	210.73
897.40	210.68
897.71	210.70
898.01	210.70
898.32	210.72
898.63	210.70
898.93	210.65
899.24	210.61
899.54	210.62
899.85	210.65
900.15	210.67
900.46	210.70
900.76	210.64
901.07	210.65
901.38	210.68
901.68	210.71
901.99	210.57
902.29	210.47
902.60	210.43
902.90	210.48
903.21	210.50
903.51	210.44
903.82	210.65
904.12	210.66
904.43	210.65
904.73	210.67
905.03	210.66
905.34	211.01
905.64	211.11
905.95	211.16
906.25	211.14
906.56	211.08
906.86	211.03
907.17	211.12
907.47	211.20
907.77	211.18
908.08	211.12
908.38	211.10
908.69	211.25
908.99	211.35
909.30	211.34
909.60	211.29
909.90	211.36
910.21	211.22
910.51	211.16
910.81	211.26
911.12	211.24
911.42	211.30
911.73	210.98
912.03	210.99
912.33	211.04
912.64	211.00
912.94	210.99
913.24	210.90
913.55	210.80
913.85	210.75
914.15	210.82
914.46	210.88
914.76	210.79
915.06	210.78
915.37	210.67
915.67	210.80
915.97	210.77
916.27	210.69
916.58	210.69
916.88	210.74
917.18	210.63
917.49	210.85
917.79	210.83
918.09	210.91
918.39	210.99
918.70	210.94
919.00	210.95
919.30	211.14
919.60	211.15
919.91	211.16
920.21	211.18
920.51	211.09
920.81	211.01
921.12	211.10
921.42	211.08
921.72	211.18
922.02	210.99
922.32	211.13
922.63	211.19
922.93	211.40
923.23	211.38
923.53	211.36
923.83	211.15
924.13	211.11
924.44	211.10
924.74	211.19
925.04	211.25
925.34	211.24
925.64	211.05
925.94	210.99
926.24	211.20
926.55	211.18
926.85	211.15
927.15	211.18
927.45	211.20
927.75	211.19
928.05	211.16
928.35	211.19
928.65	211.15
928.95	211.07
929.26	210.90
929.56	210.93
929.86	210.98
930.16	210.99
930.46	211.03
930.76	210.96
931.06	210.74
931.36	210.65
931.66	210.71
931.96	210.75
932.26	210.84
932.56	210.64
932.86	210.65
933.16	210.71
933.46	210.69
933.76	210.62
934.06	210.74
934.36	210.89
934.66	210.88
934.96	210.84
935.26	210.94
935.56	210.96
935.86	210.94
936.16	210.89
936.46	210.79
936.76	210.76
937.06	210.72
937.36	210.75
937.66	210.75
937.96	210.71
938.26	210.68
938.56	210.63
938.86	210.63
939.16	210.71
939.46	210.75
939.76	210.81
940.06	210.80
940.35	210.69
940.65	210.47
940.95	210.45
941.25	210.39
941.55	210.34
941.85	210.30
942.15	210.35
942.45	210.39
942.75	210.41
943.04	210.44
943.34	210.49
943.64	210.45
943.94	210.44
944.24	210.44
944.54	210.45
944.84	210.49
945.13	210.41
945.43	210.35
945.73	210.33
946.03	210.18
946.33	210.22
946.62	210.21
946.92	210.19
947.22	210.25
947.52	210.30
947.82	210.33
948.11	210.32
948.41	210.26
948.71	210.24
949.01	210.32
949.31	210.24
949.60	210.26
949.90	210.32
950.20	210.34
950.50	210.39
950.79	210.40
951.09	210.44
951.39	210.51
951.69	210.50
951.98	210.57
952.28	210.70
952.58	210.66
952.87	210.67
953.17	210.79
953.47	210.82
953.76	210.84
954.06	210.76
954.36	210.80
954.66	210.84
954.95	211.01
955.25	211.01
955.55	211.14
955.84	211.06
956.14	211.16
956.44	211.15
956.73	211.15
957.03	211.19
957.32	211.16
957.62	211.22
957.92	211.31
958.21	211.25
958.51	211.64
958.81	211.65
959.10	211.69
959.40	211.76
959.69	211.82
959.99	211.87
960.29	211.99
960.58	211.94
960.88	212.10
961.17	212.04
961.47	212.05
961.76	212.00
962.06	212.09
962.36	212.04
962.65	212.06
962.95	212.01
963.24	212.00
963.54	212.01
963.83	212.00
964.13	211.98
964.42	211.93
964.72	211.61
965.01	211.62
965.31	211.60
965.60	211.41
965.90	211.56
966.19	211.48
966.49	211.45
966.78	211.48
967.08	211.32
967.37	211.26
967.67	211.20
967.96	211.18
968.26	211.11
968.55	211.16
968.85	211.14
969.14	211.21
969.43	211.16
969.73	211.12
970.02	211.10
970.32	211.10
970.61	211.17
970.91	211.08
971.20	211.00
971.49	210.98
971.79	211.11
972.08	210.91
972.38	210.95
972.67	210.88
972.96	210.89
973.26	210.87
973.55	210.97
973.85	210.94
974.14	210.95
974.43	210.98
974.73	210.87
975.02	210.86
975.31	210.88
975.61	210.91
975.90	210.86
976.19	210.78
976.49	210.76
976.78	210.70
977.07	210.72
977.37	210.82
977.66	210.87
977.95	210.75
978.24	210.70
978.54	210.77
978.83	210.75
979.12	210.72
979.42	210.69
979.71	210.57
980.00	210.57
980.29	210.55
980.59	210.47
980.88	210.55
981.17	210.58
981.46	210.51
981.76	210.53
982.05	210.64
982.34	210.69
982.63	210.72
982.93	210.72
983.22	210.81
983.51	210.80
983.80	210.70
984.09	210.77
984.39	210.84
984.68	210.73
984.97	210.79
985.26	210.73
985.55	210.81
985.85	210.77
986.14	210.80
986.43	210.87
986.72	210.93
987.01	210.83
987.30	210.84
987.59	210.80
987.89	210.80
988.18	210.77
988.47	210.67
988.76	210.59
989.05	210.56
989.34	210.52
989.63	210.62
989.92	210.64
990.22	210.56
990.51	210.50
990.80	210.49
991.09	210.50
991.38	210.52
991.67	210.53
991.96	210.53
992.25	210.52
992.54	210.46
992.83	210.40
993.12	210.40
993.41	210.34
993.70	210.52
993.99	210.52
994.28	210.52
994.58	210.60
994.87	210.60
995.16	210.59
995.45	210.53
995.74	210.38
996.03	210.44
996.32	210.50
996.61	210.58
996.90	210.57
997.19	210.47
997.48	210.49
997.77	210.41
998.06	210.41
998.34	210.46
998.63	210.48
998.92	210.52
999.21	210.55
999.50	210.58
999.79	210.35
1000.08	210.28
1000.37	210.28
1000.66	210.22
1000.95	210.27
1001.24	210.36
1001.53	210.43
1001.82	210.49
1002.11	210.40
1002.40	210.44
1002.68	210.53
1002.97	210.79
1003.26	210.83
1003.55	210.81
1003.84	210.82
1004.13	210.94
1004.42	210.89
1004.71	210.89
1004.99	210.82
1005.28	210.99
1005.57	210.94
1005.86	210.98
1006.15	211.01
1006.44	210.91
1006.72	210.97
1007.01	210.93
1007.30	210.90
1007.59	210.77
1007.88	210.67
1008.17	210.68
1008.45	210.62
1008.74	210.39
1009.03	210.27
1009.32	210.26
1009.60	210.30
1009.89	210.25
1010.18	210.14
1010.47	210.15
1010.76	210.07
1011.04	210.10
1011.33	210.40
1011.62	210.42
1011.91	210.41
1012.19	210.42
1012.48	210.49
1012.77	210.52
1013.05	210.67
1013.34	210.58
1013.63	210.60
1013.92	210.70
1014.20	210.70
1014.49	210.70
1014.78	210.80
1015.06	210.68
1015.35	210.71
1015.64	210.73
1015.92	210.79
1016.21	210.76
1016.50	210.72
1016.78	210.85
1017.07	210.85
1017.36	210.41
1017.64	210.40
1017.93	210.47
1018.22	210.47
1018.50	210.47
1018.79	210.47
1019.08	210.25
1019.36	210.37
1019.65	210.40
1019.93	210.48
1020.22	210.58
1020.51	210.83
1020.79	210.77
1021.08	210.55
1021.36	210.00
1021.65	210.75
1021.94	208.75
1022.22	211.90
1022.51	210.45
1022.79	212.60
1023.08	211.95
1023.36	215.30
1023.65	209.70
>>>>>End Processed Spectral Data<<<<<
