SpectraSuite Data File
++++++++++++++++++++++++++++++++++++
Date: Mon Feb 25 16:56:15 EST 2013
User: group
Dark Spectrum Present: No
Reference Spectrum Present: No
Number of Sampled Component Spectra: 1
Spectrometers: USB2E7196
Integration Time (usec): 104000 (USB2E7196)
Spectra Averaged: 20 (USB2E7196)
Boxcar Smoothing: 10 (USB2E7196)
Correct for Electrical Dark: No (USB2E7196)
Strobe/Lamp Enabled: No (USB2E7196)
Correct for Detector Non-linearity: No (USB2E7196)
Correct for Stray Light: No (USB2E7196)
Number of Pixels in Processed Spectrum: 2048
>>>>>Begin Processed Spectral Data<<<<<
339.09	0.00
339.48	200.00
339.86	200.50
340.24	201.40
340.63	203.20
341.01	209.40
341.39	205.30
341.78	207.85
342.16	209.65
342.54	208.00
342.93	198.44
343.31	208.40
343.69	208.90
344.07	209.38
344.46	209.87
344.84	210.24
345.22	210.29
345.60	210.54
345.99	210.69
346.37	210.80
346.75	210.93
347.13	210.98
347.52	211.02
347.90	211.21
348.28	211.21
348.66	211.22
349.05	211.14
349.43	211.26
349.81	211.29
350.19	211.45
350.57	211.55
350.96	211.64
351.34	211.80
351.72	211.94
352.10	212.03
352.48	211.99
352.87	212.04
353.25	212.21
353.63	212.34
354.01	212.44
354.39	212.52
354.77	212.62
355.15	212.77
355.54	212.82
355.92	212.77
356.30	212.85
356.68	213.17
357.06	213.28
357.44	213.25
357.82	213.30
358.20	213.36
358.58	213.40
358.97	213.50
359.35	213.66
359.73	213.72
360.11	213.81
360.49	213.97
360.87	213.98
361.25	214.08
361.63	214.21
362.01	214.27
362.39	214.31
362.77	214.35
363.15	214.44
363.53	214.45
363.91	214.53
364.29	214.60
364.67	214.34
365.05	214.35
365.43	214.44
365.81	214.51
366.19	214.69
366.57	214.83
366.95	214.82
367.33	214.69
367.71	214.65
368.09	214.60
368.47	214.57
368.85	214.65
369.23	214.66
369.61	214.55
369.99	214.63
370.37	214.62
370.75	214.83
371.13	214.68
371.51	214.66
371.89	214.66
372.27	214.73
372.65	214.73
373.03	214.78
373.41	214.73
373.78	214.70
374.16	214.53
374.54	214.43
374.92	214.32
375.30	214.39
375.68	214.37
376.06	214.37
376.44	214.39
376.82	214.40
377.19	214.30
377.57	214.23
377.95	214.08
378.33	214.00
378.71	213.74
379.09	213.74
379.47	213.76
379.84	213.64
380.22	213.45
380.60	213.35
380.98	213.25
381.36	213.26
381.73	213.14
382.11	213.13
382.49	213.06
382.87	212.99
383.25	212.90
383.62	213.20
384.00	213.20
384.38	213.15
384.76	213.15
385.13	213.25
385.51	213.29
385.89	213.23
386.27	213.26
386.64	213.25
387.02	213.20
387.40	213.12
387.78	213.13
388.15	213.16
388.53	213.08
388.91	213.04
389.29	212.97
389.66	213.05
390.04	212.96
390.42	213.01
390.79	213.00
391.17	212.93
391.55	212.55
391.92	212.57
392.30	212.59
392.68	212.50
393.05	212.38
393.43	212.34
393.81	212.38
394.18	212.27
394.56	212.33
394.94	212.46
395.31	212.45
395.69	212.56
396.06	212.60
396.44	212.62
396.82	212.63
397.19	212.80
397.57	212.72
397.95	212.85
398.32	212.78
398.70	212.93
399.07	213.07
399.45	213.14
399.82	213.10
400.20	213.13
400.58	213.25
400.95	213.24
401.33	213.41
401.70	213.70
402.08	213.84
402.45	213.85
402.83	214.06
403.20	214.29
403.58	214.44
403.95	214.68
404.33	214.96
404.71	215.20
405.08	215.63
405.46	215.99
405.83	216.24
406.21	216.58
406.58	216.92
406.96	217.25
407.33	217.70
407.70	218.15
408.08	218.91
408.45	219.47
408.83	220.20
409.20	220.66
409.58	221.17
409.95	221.94
410.33	222.87
410.70	223.55
411.08	224.48
411.45	225.45
411.82	226.39
412.20	227.61
412.57	229.06
412.95	230.05
413.32	231.42
413.69	232.88
414.07	234.30
414.44	235.99
414.82	237.73
415.19	239.75
415.56	241.71
415.94	243.77
416.31	246.16
416.68	248.57
417.06	251.51
417.43	254.17
417.81	257.18
418.18	260.27
418.55	263.66
418.93	267.15
419.30	270.90
419.67	274.92
420.04	278.92
420.42	283.15
420.79	288.10
421.16	293.02
421.54	298.21
421.91	303.66
422.28	309.20
422.66	315.24
423.03	321.00
423.40	327.15
423.77	333.64
424.15	340.28
424.52	347.21
424.89	354.60
425.26	361.99
425.64	368.99
426.01	376.71
426.38	384.71
426.75	392.99
427.13	401.55
427.50	410.46
427.87	419.90
428.24	429.12
428.61	438.14
428.99	448.01
429.36	458.85
429.73	469.38
430.10	480.09
430.47	490.82
430.85	502.23
431.22	514.29
431.59	526.77
431.96	538.91
432.33	552.46
432.70	565.76
433.08	581.08
433.45	595.66
433.82	610.23
434.19	626.47
434.56	642.25
434.93	657.65
435.30	672.93
435.68	690.01
436.05	707.04
436.42	724.12
436.79	739.75
437.16	756.65
437.53	774.41
437.90	792.12
438.27	809.64
438.64	828.07
439.01	845.26
439.38	861.05
439.75	876.34
440.13	893.10
440.50	909.12
440.87	922.65
441.24	936.85
441.61	952.18
441.98	963.86
442.35	977.26
442.72	990.86
443.09	1004.03
443.46	1012.55
443.83	1018.82
444.20	1024.30
444.57	1031.98
444.94	1035.89
445.31	1040.46
445.68	1044.36
446.05	1047.09
446.42	1046.52
446.79	1045.76
447.16	1044.84
447.53	1044.39
447.90	1039.38
448.27	1034.17
448.64	1026.29
449.01	1020.79
449.37	1010.31
449.74	1000.34
450.11	988.30
450.48	974.64
450.85	960.91
451.22	949.00
451.59	937.79
451.96	926.86
452.33	911.76
452.70	898.72
453.07	882.47
453.43	866.36
453.80	850.64
454.17	835.64
454.54	821.25
454.91	805.58
455.28	790.38
455.65	776.41
456.02	762.26
456.38	750.25
456.75	735.10
457.12	722.64
457.49	710.11
457.86	698.03
458.23	687.68
458.59	676.30
458.96	664.80
459.33	654.44
459.70	644.18
460.07	636.18
460.43	626.75
460.80	617.93
461.17	610.10
461.54	601.87
461.91	594.25
462.27	586.54
462.64	579.83
463.01	572.37
463.38	565.15
463.74	558.12
464.11	551.91
464.48	546.52
464.85	540.52
465.21	536.12
465.58	531.23
465.95	525.44
466.32	520.51
466.68	515.75
467.05	511.08
467.42	506.35
467.78	501.18
468.15	496.43
468.52	493.06
468.88	488.59
469.25	484.46
469.62	480.92
469.98	477.13
470.35	473.77
470.72	470.50
471.08	466.93
471.45	463.86
471.82	460.84
472.18	457.44
472.55	455.16
472.92	452.25
473.28	449.75
473.65	447.21
474.02	444.70
474.38	442.64
474.75	440.87
475.11	438.98
475.48	437.70
475.85	436.41
476.21	435.10
476.58	433.86
476.94	433.04
477.31	432.20
477.67	431.34
478.04	430.72
478.41	430.35
478.77	430.34
479.14	429.90
479.50	429.80
479.87	430.02
480.23	430.15
480.60	430.12
480.96	430.18
481.33	430.92
481.69	431.58
482.06	432.15
482.42	432.51
482.79	433.15
483.15	434.18
483.52	435.49
483.88	436.47
484.25	437.65
484.61	438.94
484.98	440.18
485.34	441.94
485.71	443.76
486.07	445.63
486.44	447.38
486.80	449.42
487.17	451.67
487.53	454.22
487.90	456.76
488.26	459.68
488.62	462.74
488.99	465.80
489.35	468.94
489.72	472.45
490.08	476.07
490.44	479.83
490.81	483.58
491.17	487.15
491.54	491.30
491.90	495.58
492.26	500.00
492.63	504.64
492.99	509.36
493.36	514.33
493.72	519.64
494.08	525.03
494.45	530.74
494.81	536.61
495.17	542.45
495.54	548.62
495.90	554.78
496.26	561.10
496.63	567.41
496.99	574.30
497.35	581.24
497.72	588.47
498.08	595.59
498.44	602.91
498.80	611.04
499.17	619.07
499.53	627.11
499.89	635.46
500.26	643.51
500.62	651.73
500.98	660.22
501.34	668.57
501.71	677.30
502.07	686.05
502.43	694.93
502.79	703.66
503.16	712.57
503.52	721.69
503.88	730.86
504.24	740.27
504.60	749.41
504.97	758.54
505.33	767.74
505.69	777.67
506.05	787.48
506.41	796.58
506.78	805.71
507.14	815.06
507.50	824.40
507.86	833.92
508.22	843.30
508.59	852.56
508.95	862.08
509.31	871.41
509.67	880.61
510.03	889.78
510.39	899.56
510.75	909.25
511.12	918.59
511.48	927.79
511.84	937.11
512.20	946.21
512.56	955.75
512.92	965.12
513.28	973.98
513.64	982.60
514.00	991.54
514.37	1000.52
514.73	1009.44
515.09	1018.17
515.45	1026.77
515.81	1035.39
516.17	1043.71
516.53	1051.92
516.89	1059.94
517.25	1067.69
517.61	1075.50
517.97	1082.77
518.33	1089.75
518.69	1097.08
519.05	1104.58
519.41	1111.54
519.77	1118.81
520.13	1125.40
520.49	1131.74
520.85	1138.33
521.21	1144.99
521.57	1151.59
521.93	1157.48
522.29	1163.72
522.65	1169.80
523.01	1175.93
523.37	1181.44
523.73	1187.41
524.09	1192.84
524.45	1198.39
524.81	1204.25
525.17	1209.95
525.53	1215.50
525.89	1220.98
526.25	1225.98
526.61	1230.29
526.97	1235.05
527.33	1239.71
527.68	1244.53
528.04	1248.89
528.40	1252.84
528.76	1257.02
529.12	1261.24
529.48	1266.05
529.84	1270.00
530.20	1273.89
530.56	1277.77
530.91	1282.16
531.27	1285.98
531.63	1289.98
531.99	1293.82
532.35	1297.34
532.71	1300.73
533.07	1304.50
533.42	1308.05
533.78	1311.59
534.14	1315.31
534.50	1318.44
534.86	1321.74
535.21	1324.55
535.57	1328.34
535.93	1331.53
536.29	1334.42
536.65	1337.44
537.00	1339.89
537.36	1342.22
537.72	1344.55
538.08	1346.90
538.44	1349.26
538.79	1351.72
539.15	1354.21
539.51	1356.60
539.87	1358.92
540.22	1361.08
540.58	1363.51
540.94	1365.50
541.29	1367.29
541.65	1368.67
542.01	1370.77
542.37	1372.56
542.72	1374.12
543.08	1375.37
543.44	1377.12
543.79	1378.56
544.15	1379.60
544.51	1381.26
544.87	1383.03
545.22	1384.50
545.58	1385.68
545.94	1386.35
546.29	1386.92
546.65	1387.23
547.01	1387.66
547.36	1388.20
547.72	1388.59
548.07	1388.48
548.43	1388.70
548.79	1388.75
549.14	1389.46
549.50	1389.34
549.86	1389.29
550.21	1389.66
550.57	1389.95
550.92	1389.82
551.28	1389.66
551.64	1389.49
551.99	1389.36
552.35	1389.03
552.70	1388.67
553.06	1388.40
553.41	1388.38
553.77	1388.47
554.13	1388.55
554.48	1388.75
554.84	1388.97
555.19	1388.83
555.55	1388.93
555.90	1388.32
556.26	1387.96
556.61	1387.19
556.97	1386.58
557.32	1386.02
557.68	1384.93
558.03	1383.90
558.39	1383.00
558.74	1382.39
559.10	1381.78
559.45	1380.74
559.81	1380.28
560.16	1379.12
560.52	1378.51
560.87	1377.65
561.23	1376.31
561.58	1375.70
561.94	1374.23
562.29	1372.55
562.64	1371.68
563.00	1370.38
563.35	1369.75
563.71	1369.45
564.06	1368.56
564.42	1368.40
564.77	1367.86
565.12	1367.55
565.48	1367.30
565.83	1366.65
566.19	1366.33
566.54	1365.32
566.89	1364.51
567.25	1363.63
567.60	1363.29
567.96	1362.82
568.31	1362.25
568.66	1361.71
569.02	1360.10
569.37	1358.68
569.72	1357.88
570.08	1356.32
570.43	1354.67
570.78	1352.81
571.14	1350.67
571.49	1348.99
571.84	1346.95
572.20	1344.75
572.55	1342.73
572.90	1339.96
573.26	1337.82
573.61	1334.93
573.96	1332.70
574.31	1329.67
574.67	1326.59
575.02	1323.42
575.37	1319.84
575.72	1316.07
576.08	1312.97
576.43	1309.73
576.78	1306.73
577.13	1303.71
577.49	1300.80
577.84	1297.62
578.19	1294.82
578.54	1292.25
578.90	1289.88
579.25	1286.59
579.60	1282.95
579.95	1279.24
580.30	1276.21
580.66	1273.11
581.01	1269.79
581.36	1266.02
581.71	1262.66
582.06	1259.36
582.42	1256.15
582.77	1252.34
583.12	1248.98
583.47	1245.34
583.82	1241.89
584.17	1238.27
584.53	1234.59
584.88	1230.49
585.23	1226.98
585.58	1223.08
585.93	1218.86
586.28	1214.65
586.63	1210.80
586.98	1207.44
587.34	1204.18
587.69	1200.09
588.04	1196.06
588.39	1192.55
588.74	1188.55
589.09	1184.96
589.44	1180.75
589.79	1176.85
590.14	1173.22
590.49	1169.28
590.84	1165.17
591.19	1161.96
591.54	1158.22
591.89	1153.45
592.25	1149.95
592.60	1145.65
592.95	1141.45
593.30	1136.89
593.65	1132.12
594.00	1127.61
594.35	1124.32
594.70	1119.85
595.05	1115.80
595.40	1111.54
595.75	1106.58
596.10	1102.71
596.45	1098.51
596.80	1094.79
597.15	1090.76
597.50	1086.45
597.85	1082.44
598.19	1078.16
598.54	1073.65
598.89	1069.57
599.24	1066.40
599.59	1061.98
599.94	1057.98
600.29	1054.04
600.64	1050.21
600.99	1046.20
601.34	1042.56
601.69	1037.33
602.04	1032.96
602.39	1028.78
602.74	1024.54
603.08	1021.04
603.43	1017.32
603.78	1013.18
604.13	1008.67
604.48	1004.44
604.83	1001.19
605.18	997.68
605.53	993.62
605.87	989.30
606.22	985.19
606.57	980.49
606.92	976.37
607.27	972.09
607.62	967.80
607.96	963.89
608.31	960.07
608.66	955.54
609.01	951.31
609.36	946.99
609.70	942.72
610.05	938.30
610.40	933.84
610.75	928.98
611.10	924.94
611.44	920.43
611.79	915.83
612.14	910.66
612.49	905.48
612.83	901.06
613.18	896.39
613.53	891.64
613.88	887.02
614.22	882.19
614.57	877.74
614.92	873.27
615.27	868.55
615.61	863.81
615.96	859.51
616.31	855.34
616.65	851.43
617.00	847.15
617.35	842.91
617.70	838.50
618.04	833.91
618.39	828.87
618.74	824.71
619.08	820.27
619.43	816.14
619.78	812.16
620.12	808.05
620.47	803.96
620.82	799.60
621.16	795.23
621.51	791.20
621.85	787.08
622.20	782.72
622.55	778.49
622.89	774.30
623.24	769.98
623.59	765.57
623.93	761.32
624.28	757.20
624.62	753.30
624.97	749.29
625.32	745.49
625.66	741.90
626.01	737.91
626.35	734.07
626.70	729.93
627.04	725.95
627.39	721.98
627.73	718.33
628.08	715.02
628.43	711.26
628.77	707.50
629.12	703.57
629.46	700.04
629.81	696.44
630.15	692.86
630.50	689.25
630.84	685.53
631.19	681.93
631.53	678.29
631.88	674.49
632.22	670.80
632.57	667.39
632.91	663.77
633.26	660.37
633.60	656.87
633.95	653.68
634.29	650.11
634.64	646.79
634.98	643.06
635.32	639.49
635.67	636.53
636.01	633.25
636.36	630.02
636.70	627.04
637.05	623.85
637.39	620.86
637.73	617.90
638.08	615.22
638.42	612.27
638.77	609.37
639.11	606.45
639.45	603.55
639.80	600.32
640.14	597.21
640.49	594.10
640.83	591.25
641.17	588.22
641.52	585.32
641.86	582.24
642.20	579.56
642.55	576.40
642.89	573.18
643.23	570.10
643.58	567.38
643.92	564.26
644.26	561.32
644.61	558.37
644.95	555.43
645.29	552.16
645.64	549.09
645.98	546.09
646.32	543.18
646.66	540.02
647.01	537.30
647.35	534.61
647.69	531.76
648.04	528.93
648.38	526.05
648.72	523.18
649.06	520.48
649.41	517.65
649.75	514.97
650.09	512.50
650.43	509.93
650.78	506.96
651.12	504.06
651.46	501.40
651.80	498.95
652.14	496.31
652.49	493.90
652.83	491.34
653.17	488.66
653.51	486.16
653.85	483.81
654.20	481.40
654.54	478.70
654.88	476.15
655.22	473.68
655.56	471.15
655.90	468.67
656.25	466.13
656.59	463.63
656.93	461.43
657.27	459.01
657.61	456.59
657.95	454.40
658.29	452.13
658.64	449.93
658.98	447.42
659.32	444.95
659.66	442.43
660.00	440.14
660.34	437.79
660.68	435.42
661.02	433.10
661.36	430.84
661.70	428.82
662.05	426.80
662.39	424.83
662.73	422.95
663.07	421.13
663.41	419.10
663.75	417.16
664.09	414.96
664.43	412.72
664.77	410.82
665.11	408.72
665.45	406.78
665.79	404.82
666.13	402.92
666.47	401.19
666.81	399.40
667.15	397.53
667.49	395.95
667.83	394.34
668.17	392.72
668.51	391.00
668.85	389.22
669.19	387.69
669.53	385.87
669.87	383.99
670.21	382.21
670.55	380.58
670.89	379.19
671.23	377.73
671.57	376.25
671.91	374.67
672.25	373.18
672.58	371.82
672.92	370.24
673.26	368.77
673.60	367.26
673.94	365.84
674.28	364.38
674.62	363.02
674.96	361.51
675.30	360.11
675.64	358.69
675.97	357.35
676.31	355.85
676.65	354.46
676.99	353.37
677.33	352.06
677.67	350.76
678.01	349.20
678.34	347.84
678.68	346.73
679.02	345.38
679.36	344.04
679.70	342.66
680.04	341.37
680.37	340.05
680.71	338.78
681.05	337.66
681.39	336.37
681.73	335.00
682.06	333.76
682.40	332.57
682.74	331.45
683.08	330.37
683.42	329.12
683.75	327.98
684.09	326.54
684.43	325.35
684.77	324.12
685.10	322.90
685.44	321.66
685.78	320.42
686.12	319.32
686.45	318.29
686.79	317.13
687.13	316.18
687.46	315.08
687.80	314.13
688.14	312.87
688.48	311.94
688.81	310.90
689.15	310.01
689.49	309.04
689.82	307.93
690.16	306.74
690.50	305.71
690.83	304.54
691.17	303.66
691.51	302.67
691.84	301.76
692.18	300.81
692.52	299.90
692.85	299.02
693.19	298.26
693.52	297.33
693.86	296.32
694.20	295.34
694.53	294.51
694.87	293.50
695.21	292.66
695.54	291.77
695.88	290.81
696.21	289.62
696.55	288.70
696.88	287.83
697.22	286.92
697.56	286.10
697.89	285.43
698.23	284.61
698.56	283.75
698.90	283.06
699.23	282.18
699.57	281.41
699.90	280.59
700.24	279.57
700.58	278.77
700.91	278.18
701.25	277.68
701.58	277.00
701.92	276.35
702.25	275.70
702.59	274.89
702.92	274.23
703.26	273.65
703.59	272.96
703.93	272.62
704.26	272.07
704.60	271.45
704.93	270.72
705.26	269.96
705.60	269.39
705.93	268.52
706.27	268.17
706.60	267.71
706.94	267.22
707.27	266.65
707.61	266.01
707.94	265.35
708.27	264.55
708.61	263.89
708.94	263.23
709.28	262.68
709.61	262.13
709.94	261.57
710.28	261.05
710.61	260.55
710.95	259.74
711.28	259.46
711.61	258.89
711.95	258.41
712.28	257.97
712.61	257.48
712.95	257.24
713.28	256.79
713.61	256.20
713.95	255.65
714.28	255.23
714.61	254.74
714.95	254.20
715.28	253.61
715.61	253.06
715.95	252.61
716.28	252.16
716.61	251.75
716.95	251.30
717.28	250.96
717.61	250.54
717.94	250.06
718.28	249.41
718.61	249.06
718.94	248.66
719.27	248.27
719.61	247.91
719.94	247.40
720.27	246.77
720.60	246.37
720.94	246.08
721.27	245.70
721.60	245.48
721.93	245.21
722.27	245.09
722.60	244.92
722.93	244.58
723.26	244.24
723.59	243.88
723.93	243.58
724.26	243.25
724.59	242.90
724.92	242.66
725.25	242.45
725.59	242.14
725.92	241.95
726.25	241.70
726.58	241.37
726.91	241.09
727.24	240.87
727.57	240.62
727.91	240.21
728.24	240.00
728.57	239.68
728.90	239.49
729.23	239.04
729.56	238.94
729.89	238.67
730.22	238.31
730.55	238.03
730.89	237.84
731.22	237.50
731.55	237.20
731.88	236.96
732.21	236.63
732.54	236.30
732.87	236.04
733.20	235.78
733.53	235.48
733.86	235.26
734.19	234.94
734.52	234.72
734.85	234.71
735.18	234.40
735.51	234.26
735.84	234.03
736.17	233.93
736.50	233.53
736.83	233.77
737.16	233.63
737.49	233.43
737.82	233.11
738.15	232.96
738.48	232.79
738.81	232.60
739.14	232.39
739.47	232.18
739.80	231.93
740.13	231.76
740.46	231.49
740.79	231.21
741.12	231.03
741.45	230.78
741.78	230.43
742.11	230.34
742.44	230.08
742.77	229.91
743.10	229.68
743.43	229.40
743.75	228.83
744.08	229.07
744.41	228.82
744.74	228.73
745.07	228.46
745.40	228.35
745.73	228.31
746.06	228.04
746.39	227.97
746.71	227.71
747.04	227.42
747.37	227.38
747.70	227.34
748.03	227.20
748.36	227.14
748.68	226.98
749.01	226.73
749.34	226.65
749.67	226.52
750.00	226.43
750.33	226.56
750.65	226.47
750.98	225.94
751.31	225.87
751.64	225.71
751.97	225.82
752.29	225.58
752.62	225.25
752.95	225.13
753.28	224.92
753.60	224.77
753.93	224.78
754.26	224.64
754.59	224.40
754.91	224.25
755.24	224.07
755.57	223.89
755.90	223.72
756.22	223.47
756.55	223.26
756.88	223.06
757.20	222.70
757.53	222.42
757.86	222.23
758.19	222.14
758.51	222.03
758.84	221.58
759.17	221.46
759.49	221.35
759.82	221.37
760.15	221.22
760.47	221.18
760.80	220.93
761.13	220.83
761.45	220.69
761.78	220.65
762.11	220.54
762.43	220.38
762.76	220.25
763.08	220.22
763.41	220.10
763.74	219.99
764.06	219.91
764.39	219.81
764.71	219.74
765.04	219.58
765.37	219.46
765.69	219.50
766.02	219.45
766.34	219.37
766.67	219.19
767.00	219.27
767.32	219.37
767.65	219.54
767.97	219.42
768.30	219.41
768.62	219.27
768.95	219.20
769.27	219.20
769.60	219.21
769.92	219.10
770.25	219.02
770.57	218.89
770.90	218.82
771.22	218.78
771.55	218.75
771.87	218.69
772.20	218.62
772.52	218.79
772.85	219.04
773.17	219.02
773.50	219.01
773.82	218.83
774.15	218.56
774.47	218.20
774.80	218.15
775.12	218.03
775.45	217.96
775.77	217.87
776.09	217.80
776.42	217.78
776.74	217.82
777.07	217.72
777.39	217.70
777.72	217.55
778.04	217.52
778.36	217.37
778.69	217.38
779.01	217.34
779.33	217.06
779.66	216.66
779.98	216.54
780.31	216.48
780.63	216.56
780.95	216.58
781.28	216.55
781.60	216.44
781.92	216.40
782.25	216.40
782.57	216.32
782.89	216.28
783.22	216.11
783.54	215.92
783.86	215.98
784.19	215.92
784.51	216.08
784.83	216.00
785.16	215.98
785.48	215.87
785.80	215.79
786.12	215.75
786.45	215.75
786.77	215.65
787.09	215.56
787.42	215.37
787.74	215.30
788.06	215.29
788.38	215.24
788.71	215.20
789.03	215.11
789.35	215.15
789.67	215.01
789.99	215.09
790.32	215.04
790.64	214.96
790.96	215.21
791.28	215.00
791.61	214.96
791.93	214.93
792.25	214.89
792.57	215.15
792.89	215.00
793.21	214.93
793.54	214.90
793.86	214.89
794.18	214.94
794.50	214.90
794.82	214.92
795.14	214.97
795.47	215.00
795.79	215.00
796.11	214.84
796.43	214.88
796.75	214.81
797.07	214.80
797.39	214.79
797.71	214.53
798.04	214.51
798.36	214.38
798.68	214.33
799.00	214.31
799.32	214.08
799.64	214.16
799.96	214.22
800.28	214.24
800.60	214.17
800.92	214.17
801.24	214.11
801.56	214.01
801.89	213.96
802.21	213.89
802.53	213.80
802.85	213.92
803.17	214.03
803.49	213.95
803.81	213.89
804.13	213.85
804.45	213.75
804.77	213.78
805.09	213.88
805.41	213.85
805.73	213.82
806.05	213.76
806.37	213.68
806.69	213.52
807.01	213.48
807.33	213.46
807.65	213.31
807.97	213.49
808.28	213.55
808.60	213.53
808.92	213.53
809.24	213.77
809.56	213.66
809.88	213.50
810.20	213.44
810.52	213.53
810.84	213.47
811.16	213.41
811.48	213.42
811.80	213.41
812.12	213.35
812.43	213.38
812.75	213.39
813.07	213.37
813.39	213.40
813.71	213.30
814.03	213.26
814.35	213.29
814.67	213.04
814.98	213.00
815.30	212.95
815.62	212.85
815.94	212.64
816.26	212.65
816.58	212.61
816.89	212.57
817.21	212.46
817.53	212.49
817.85	212.56
818.17	212.45
818.48	212.46
818.80	212.50
819.12	212.48
819.44	212.34
819.76	212.30
820.07	212.29
820.39	212.37
820.71	212.36
821.03	212.30
821.34	212.32
821.66	212.28
821.98	212.35
822.30	212.33
822.61	212.48
822.93	212.41
823.25	212.41
823.57	212.43
823.88	212.53
824.20	212.42
824.52	212.46
824.83	212.47
825.15	212.38
825.47	212.39
825.79	212.38
826.10	212.43
826.42	212.42
826.74	212.52
827.05	212.48
827.37	212.48
827.69	212.45
828.00	212.51
828.32	212.56
828.64	212.47
828.95	212.68
829.27	212.52
829.58	212.51
829.90	212.51
830.22	212.53
830.53	212.40
830.85	212.45
831.17	212.30
831.48	212.31
831.80	212.31
832.11	212.27
832.43	212.22
832.75	212.22
833.06	212.39
833.38	212.21
833.69	212.23
834.01	212.31
834.32	212.32
834.64	212.23
834.96	212.25
835.27	212.29
835.59	212.16
835.90	212.08
836.22	212.01
836.53	211.98
836.85	211.89
837.16	212.24
837.48	212.21
837.79	212.37
838.11	212.34
838.42	212.32
838.74	212.39
839.05	212.40
839.37	212.42
839.68	212.15
840.00	212.15
840.31	212.18
840.63	212.07
840.94	212.00
841.26	212.03
841.57	211.95
841.88	211.94
842.20	211.89
842.51	211.88
842.83	212.06
843.14	212.31
843.46	212.39
843.77	212.23
844.08	212.25
844.40	212.17
844.71	212.17
845.03	212.15
845.34	212.07
845.65	212.02
845.97	211.95
846.28	212.00
846.60	212.06
846.91	212.02
847.22	212.07
847.54	212.21
847.85	212.22
848.16	212.17
848.48	212.18
848.79	212.36
849.10	212.43
849.42	212.38
849.73	212.12
850.04	212.08
850.36	211.93
850.67	212.06
850.98	212.12
851.30	212.18
851.61	212.21
851.92	212.29
852.23	212.35
852.55	212.43
852.86	212.50
853.17	212.48
853.49	212.59
853.80	212.68
854.11	212.68
854.42	212.70
854.74	212.78
855.05	212.72
855.36	212.50
855.67	212.55
855.99	212.55
856.30	213.02
856.61	213.08
856.92	213.07
857.23	213.01
857.55	212.94
857.86	212.91
858.17	212.93
858.48	212.82
858.79	212.83
859.11	212.82
859.42	212.80
859.73	212.77
860.04	212.70
860.35	212.47
860.66	212.34
860.98	212.34
861.29	212.33
861.60	212.31
861.91	212.40
862.22	212.36
862.53	212.28
862.84	211.80
863.16	211.89
863.47	211.87
863.78	211.82
864.09	211.80
864.40	211.81
864.71	211.78
865.02	211.85
865.33	211.79
865.64	211.82
865.95	211.77
866.27	212.00
866.58	212.01
866.89	212.16
867.20	212.24
867.51	212.17
867.82	212.11
868.13	212.20
868.44	212.15
868.75	212.16
869.06	212.14
869.37	212.19
869.68	212.04
869.99	212.14
870.30	212.13
870.61	212.19
870.92	212.11
871.23	212.03
871.54	212.06
871.85	212.11
872.16	212.09
872.47	212.13
872.78	211.95
873.09	211.98
873.40	211.94
873.71	211.88
874.02	211.88
874.33	211.81
874.64	211.70
874.95	211.73
875.26	211.67
875.56	211.71
875.87	211.67
876.18	211.66
876.49	211.93
876.80	211.97
877.11	211.86
877.42	211.88
877.73	211.94
878.04	211.85
878.35	211.77
878.66	211.78
878.96	211.67
879.27	211.68
879.58	211.61
879.89	211.62
880.20	211.80
880.51	211.77
880.82	211.81
881.12	211.88
881.43	211.79
881.74	211.75
882.05	211.67
882.36	211.66
882.67	211.68
882.97	211.31
883.28	211.20
883.59	211.23
883.90	211.26
884.21	211.36
884.51	211.37
884.82	211.36
885.13	211.36
885.44	211.39
885.74	211.32
886.05	211.34
886.36	211.34
886.67	211.18
886.98	211.38
887.28	211.47
887.59	211.47
887.90	211.50
888.20	211.53
888.51	211.69
888.82	211.70
889.13	211.73
889.43	212.01
889.74	212.05
890.05	212.04
890.35	211.97
890.66	211.89
890.97	211.85
891.28	211.89
891.58	211.95
891.89	211.95
892.20	211.91
892.50	211.87
892.81	211.78
893.12	211.76
893.42	211.60
893.73	211.54
894.04	211.55
894.34	211.56
894.65	211.53
894.95	211.46
895.26	211.44
895.57	211.56
895.87	211.25
896.18	211.29
896.48	211.31
896.79	211.37
897.10	211.43
897.40	211.46
897.71	211.43
898.01	211.37
898.32	211.38
898.63	211.42
898.93	211.43
899.24	211.48
899.54	211.44
899.85	211.45
900.15	211.42
900.46	211.51
900.76	211.56
901.07	211.55
901.38	211.54
901.68	211.58
901.99	211.44
902.29	211.46
902.60	211.37
902.90	211.29
903.21	211.24
903.51	211.17
903.82	211.25
904.12	211.31
904.43	211.32
904.73	211.35
905.03	211.36
905.34	211.73
905.64	211.72
905.95	211.82
906.25	211.83
906.56	211.83
906.86	211.70
907.17	211.61
907.47	211.67
907.77	211.63
908.08	211.56
908.38	211.56
908.69	211.57
908.99	211.68
909.30	211.74
909.60	211.79
909.90	211.80
910.21	211.68
910.51	211.60
910.81	211.61
911.12	211.63
911.42	211.60
911.73	211.25
912.03	211.34
912.33	211.38
912.64	211.33
912.94	211.30
913.24	211.29
913.55	211.29
913.85	211.15
914.15	211.23
914.46	211.30
914.76	211.23
915.06	211.23
915.37	211.10
915.67	211.01
915.97	211.02
916.27	210.99
916.58	210.98
916.88	211.01
917.18	210.95
917.49	211.25
917.79	211.28
918.09	211.35
918.39	211.34
918.70	211.25
919.00	211.21
919.30	211.42
919.60	211.43
919.91	211.43
920.21	211.53
920.51	211.43
920.81	211.37
921.12	211.40
921.42	211.38
921.72	211.42
922.02	211.55
922.32	211.55
922.63	211.52
922.93	211.72
923.23	211.71
923.53	211.66
923.83	211.37
924.13	211.32
924.44	211.30
924.74	211.40
925.04	211.47
925.34	211.51
925.64	211.31
925.94	211.26
926.24	211.46
926.55	211.41
926.85	211.56
927.15	211.55
927.45	211.58
927.75	211.57
928.05	211.60
928.35	211.54
928.65	211.59
928.95	211.64
929.26	211.48
929.56	211.57
929.86	211.63
930.16	211.57
930.46	211.68
930.76	211.63
931.06	211.49
931.36	211.38
931.66	211.45
931.96	211.49
932.26	211.51
932.56	211.32
932.86	211.32
933.16	211.23
933.46	211.19
933.76	211.13
934.06	211.19
934.36	211.31
934.66	211.24
934.96	211.13
935.26	211.15
935.56	211.21
935.86	211.10
936.16	210.96
936.46	210.93
936.76	210.87
937.06	210.80
937.36	210.81
937.66	210.85
937.96	210.72
938.26	210.61
938.56	210.61
938.86	210.60
939.16	210.75
939.46	210.76
939.76	210.83
940.06	210.86
940.35	210.85
940.65	210.69
940.95	210.79
941.25	210.82
941.55	210.78
941.85	210.78
942.15	210.87
942.45	211.04
942.75	210.99
943.04	210.97
943.34	211.07
943.64	211.03
943.94	210.96
944.24	211.03
944.54	211.09
944.84	211.12
945.13	211.10
945.43	210.99
945.73	211.00
946.03	210.99
946.33	210.93
946.62	210.91
946.92	210.93
947.22	210.93
947.52	210.94
947.82	211.02
948.11	210.92
948.41	210.79
948.71	210.74
949.01	210.84
949.31	210.80
949.60	210.77
949.90	210.77
950.20	210.74
950.50	210.70
950.79	210.67
951.09	210.72
951.39	210.73
951.69	210.64
951.98	210.69
952.28	210.64
952.58	210.67
952.87	210.62
953.17	210.66
953.47	210.59
953.76	210.58
954.06	210.49
954.36	210.52
954.66	210.53
954.95	210.65
955.25	210.65
955.55	210.67
955.84	210.61
956.14	210.74
956.44	210.86
956.73	210.83
957.03	210.92
957.32	210.90
957.62	210.85
957.92	210.92
958.21	210.89
958.51	211.39
958.81	211.42
959.10	211.43
959.40	211.51
959.69	211.55
959.99	211.62
960.29	211.69
960.58	211.68
960.88	211.89
961.17	211.85
961.47	211.87
961.76	211.85
962.06	211.95
962.36	211.91
962.65	211.88
962.95	211.99
963.24	211.91
963.54	211.87
963.83	211.97
964.13	211.99
964.42	211.94
964.72	211.64
965.01	211.67
965.31	211.64
965.60	211.50
965.90	211.77
966.19	211.74
966.49	211.70
966.78	211.81
967.08	211.75
967.37	211.70
967.67	211.69
967.96	211.73
968.26	211.71
968.55	211.75
968.85	211.77
969.14	211.72
969.43	211.74
969.73	211.80
970.02	211.78
970.32	211.76
970.61	211.77
970.91	211.66
971.20	211.61
971.49	211.64
971.79	211.72
972.08	211.47
972.38	211.50
972.67	211.49
972.96	211.42
973.26	211.31
973.55	211.43
973.85	211.42
974.14	211.46
974.43	211.46
974.73	211.33
975.02	211.28
975.31	211.33
975.61	211.32
975.90	211.35
976.19	211.32
976.49	211.35
976.78	211.35
977.07	211.36
977.37	211.41
977.66	211.48
977.95	211.41
978.24	211.44
978.54	211.52
978.83	211.52
979.12	211.44
979.42	211.47
979.71	211.38
980.00	211.40
980.29	211.40
980.59	211.32
980.88	211.46
981.17	211.49
981.46	211.41
981.76	211.36
982.05	211.39
982.34	211.45
982.63	211.49
982.93	211.49
983.22	211.58
983.51	211.64
983.80	211.70
984.09	211.80
984.39	211.79
984.68	211.69
984.97	211.77
985.26	211.80
985.55	211.86
985.85	211.78
986.14	211.79
986.43	211.80
986.72	211.79
987.01	211.63
987.30	211.61
987.59	211.59
987.89	211.63
988.18	211.52
988.47	211.45
988.76	211.35
989.05	211.34
989.34	211.25
989.63	211.26
989.92	211.10
990.22	210.98
990.51	210.94
990.80	210.85
991.09	210.77
991.38	210.83
991.67	210.76
991.96	210.75
992.25	210.70
992.54	210.65
992.83	210.59
993.12	210.58
993.41	210.59
993.70	210.80
993.99	210.90
994.28	210.91
994.58	210.94
994.87	210.98
995.16	210.93
995.45	210.85
995.74	210.75
996.03	210.81
996.32	210.86
996.61	210.97
996.90	211.03
997.19	211.02
997.48	211.00
997.77	210.96
998.06	210.95
998.34	210.96
998.63	211.00
998.92	211.09
999.21	211.21
999.50	211.22
999.79	211.05
1000.08	211.04
1000.37	211.07
1000.66	211.02
1000.95	210.98
1001.24	211.08
1001.53	211.19
1001.82	211.15
1002.11	211.10
1002.40	211.14
1002.68	211.16
1002.97	211.32
1003.26	211.35
1003.55	211.29
1003.84	211.31
1004.13	211.46
1004.42	211.50
1004.71	211.49
1004.99	211.49
1005.28	211.56
1005.57	211.49
1005.86	211.47
1006.15	211.45
1006.44	211.44
1006.72	211.53
1007.01	211.55
1007.30	211.52
1007.59	211.43
1007.88	211.43
1008.17	211.44
1008.45	211.43
1008.74	211.33
1009.03	211.25
1009.32	211.22
1009.60	211.16
1009.89	211.19
1010.18	210.99
1010.47	210.87
1010.76	210.82
1011.04	210.78
1011.33	210.73
1011.62	210.78
1011.91	210.77
1012.19	210.73
1012.48	210.72
1012.77	210.64
1013.05	210.77
1013.34	210.75
1013.63	210.78
1013.92	210.75
1014.20	210.71
1014.49	210.67
1014.78	210.71
1015.06	210.58
1015.35	210.55
1015.64	210.72
1015.92	210.69
1016.21	210.77
1016.50	210.79
1016.78	210.82
1017.07	210.84
1017.36	210.78
1017.64	210.75
1017.93	210.80
1018.22	210.74
1018.50	210.69
1018.79	210.67
1019.08	210.50
1019.36	210.53
1019.65	210.46
1019.93	210.61
1020.22	210.70
1020.51	210.87
1020.79	210.79
1021.08	209.60
1021.36	209.95
1021.65	209.80
1021.94	210.20
1022.22	210.80
1022.51	209.65
1022.79	212.65
1023.08	211.55
1023.36	214.90
1023.65	209.60
>>>>>End Processed Spectral Data<<<<<
