SpectraSuite Data File
++++++++++++++++++++++++++++++++++++
Date: Mon Feb 25 16:57:33 EST 2013
User: group
Dark Spectrum Present: No
Reference Spectrum Present: No
Number of Sampled Component Spectra: 1
Spectrometers: USB2E7196
Integration Time (usec): 104000 (USB2E7196)
Spectra Averaged: 20 (USB2E7196)
Boxcar Smoothing: 10 (USB2E7196)
Correct for Electrical Dark: No (USB2E7196)
Strobe/Lamp Enabled: No (USB2E7196)
Correct for Detector Non-linearity: No (USB2E7196)
Correct for Stray Light: No (USB2E7196)
Number of Pixels in Processed Spectrum: 2048
>>>>>Begin Processed Spectral Data<<<<<
339.09	0.00
339.48	198.15
339.86	200.45
340.24	201.75
340.63	203.35
341.01	210.25
341.39	205.90
341.78	207.80
342.16	209.00
342.54	209.50
342.93	198.61
343.31	208.55
343.69	209.14
344.07	209.61
344.46	210.05
344.84	210.45
345.22	210.54
345.60	210.84
345.99	211.01
346.37	211.16
346.75	211.24
347.13	211.39
347.52	211.43
347.90	211.62
348.28	211.65
348.66	211.77
349.05	211.69
349.43	211.79
349.81	211.91
350.19	211.96
350.57	212.01
350.96	212.09
351.34	212.25
351.72	212.35
352.10	212.44
352.48	212.53
352.87	212.51
353.25	212.57
353.63	212.64
354.01	212.69
354.39	212.75
354.77	212.79
355.15	212.88
355.54	212.90
355.92	212.89
356.30	212.92
356.68	213.15
357.06	213.28
357.44	213.26
357.82	213.26
358.20	213.29
358.58	213.35
358.97	213.40
359.35	213.55
359.73	213.61
360.11	213.64
360.49	213.64
360.87	213.72
361.25	213.74
361.63	213.80
362.01	213.79
362.39	213.72
362.77	213.85
363.15	213.85
363.53	213.85
363.91	213.87
364.29	213.92
364.67	213.61
365.05	213.62
365.43	213.61
365.81	213.67
366.19	213.85
366.57	213.98
366.95	213.94
367.33	213.82
367.71	213.80
368.09	213.93
368.47	213.95
368.85	213.91
369.23	214.01
369.61	213.90
369.99	214.09
370.37	214.20
370.75	214.26
371.13	214.12
371.51	214.06
371.89	213.99
372.27	213.92
372.65	213.90
373.03	213.86
373.41	213.88
373.78	213.75
374.16	213.52
374.54	213.36
374.92	213.39
375.30	213.38
375.68	213.24
376.06	213.17
376.44	213.13
376.82	213.09
377.19	212.91
377.57	212.86
377.95	212.71
378.33	212.59
378.71	212.35
379.09	212.33
379.47	212.40
379.84	212.35
380.22	212.34
380.60	212.35
380.98	212.29
381.36	212.20
381.73	212.17
382.11	212.25
382.49	212.21
382.87	212.06
383.25	211.97
383.62	212.35
384.00	212.16
384.38	212.08
384.76	212.17
385.13	212.34
385.51	212.31
385.89	212.17
386.27	212.14
386.64	212.20
387.02	212.28
387.40	212.14
387.78	212.13
388.15	212.04
388.53	211.94
388.91	211.89
389.29	211.83
389.66	211.81
390.04	211.70
390.42	211.82
390.79	211.89
391.17	211.90
391.55	211.60
391.92	211.66
392.30	211.75
392.68	211.60
393.05	211.55
393.43	211.63
393.81	211.71
394.18	211.72
394.56	211.72
394.94	211.72
395.31	211.81
395.69	211.95
396.06	212.12
396.44	212.15
396.82	212.19
397.19	212.38
397.57	212.42
397.95	212.55
398.32	212.39
398.70	212.37
399.07	212.52
399.45	212.49
399.82	212.59
400.20	212.53
400.58	212.68
400.95	212.62
401.33	212.71
401.70	213.03
402.08	213.14
402.45	213.27
402.83	213.44
403.20	213.56
403.58	213.60
403.95	213.73
404.33	213.96
404.71	214.11
405.08	214.57
405.46	214.82
405.83	215.11
406.21	215.42
406.58	215.77
406.96	216.01
407.33	216.41
407.70	216.80
408.08	217.59
408.45	218.12
408.83	218.62
409.20	219.15
409.58	219.45
409.95	220.14
410.33	220.72
410.70	221.43
411.08	222.23
411.45	223.12
411.82	224.00
412.20	224.97
412.57	226.25
412.95	226.96
413.32	228.16
413.69	229.37
414.07	230.66
414.44	232.10
414.82	233.65
415.19	235.38
415.56	237.06
415.94	238.70
416.31	240.79
416.68	242.88
417.06	245.23
417.43	247.59
417.81	250.15
418.18	252.88
418.55	255.65
418.93	258.65
419.30	261.70
419.67	264.97
420.04	268.37
420.42	271.88
420.79	276.15
421.16	280.38
421.54	284.72
421.91	289.23
422.28	293.94
422.66	298.91
423.03	303.94
423.40	309.13
423.77	314.61
424.15	320.08
424.52	325.94
424.89	332.29
425.26	338.45
425.64	344.25
426.01	350.65
426.38	357.56
426.75	364.46
427.13	371.69
427.50	379.24
427.87	387.27
428.24	395.21
428.61	402.76
428.99	410.97
429.36	419.95
429.73	428.85
430.10	437.73
430.47	446.77
430.85	456.29
431.22	466.30
431.59	477.03
431.96	487.21
432.33	498.62
432.70	509.60
433.08	522.43
433.45	534.72
433.82	547.15
434.19	560.74
434.56	574.01
434.93	586.98
435.30	600.05
435.68	614.44
436.05	628.67
436.42	642.96
436.79	656.15
437.16	670.37
437.53	685.37
437.90	700.16
438.27	715.10
438.64	730.25
439.01	744.77
439.38	757.62
439.75	770.35
440.13	784.71
440.50	798.24
440.87	809.46
441.24	821.26
441.61	833.91
441.98	843.67
442.35	855.32
442.72	866.51
443.09	877.32
443.46	884.28
443.83	889.51
444.20	894.15
444.57	900.46
444.94	904.02
445.31	907.74
445.68	911.41
446.05	913.51
446.42	913.30
446.79	912.68
447.16	911.87
447.53	911.60
447.90	907.16
448.27	902.90
448.64	896.51
449.01	892.10
449.37	883.34
449.74	874.94
450.11	864.41
450.48	853.17
450.85	841.57
451.22	831.63
451.59	822.18
451.96	813.03
452.33	800.50
452.70	789.23
453.07	775.70
453.43	761.79
453.80	748.37
454.17	735.65
454.54	723.54
454.91	710.49
455.28	697.71
455.65	685.75
456.02	673.66
456.38	663.59
456.75	650.79
457.12	640.32
457.49	629.82
457.86	619.57
458.23	610.92
458.59	601.39
458.96	591.75
459.33	583.01
459.70	574.50
460.07	567.65
460.43	560.00
460.80	552.61
461.17	546.15
461.54	539.38
461.91	532.93
462.27	526.32
462.64	520.75
463.01	514.41
463.38	508.47
463.74	502.45
464.11	497.12
464.48	492.54
464.85	487.51
465.21	483.61
465.58	479.68
465.95	474.66
466.32	470.60
466.68	466.52
467.05	462.48
467.42	458.32
467.78	453.97
468.15	449.79
468.52	446.60
468.88	442.76
469.25	439.25
469.62	436.30
469.98	433.14
470.35	430.27
470.72	427.75
471.08	424.89
471.45	422.60
471.82	419.97
472.18	417.22
472.55	415.30
472.92	412.85
473.28	410.71
473.65	408.70
474.02	406.63
474.38	404.94
474.75	403.60
475.11	402.01
475.48	400.93
475.85	399.87
476.21	398.96
476.58	398.04
476.94	397.38
477.31	396.59
477.67	395.87
478.04	395.27
478.41	394.78
478.77	394.61
479.14	394.03
479.50	393.95
479.87	393.94
480.23	393.89
480.60	393.89
480.96	393.81
481.33	394.41
481.69	394.81
482.06	395.10
482.42	395.23
482.79	395.75
483.15	396.42
483.52	397.33
483.88	398.01
484.25	398.69
484.61	399.57
484.98	400.41
485.34	401.68
485.71	403.10
486.07	404.55
486.44	405.78
486.80	407.46
487.17	409.29
487.53	411.28
487.90	413.22
488.26	415.59
488.62	417.90
488.99	420.03
489.35	422.47
489.72	425.22
490.08	428.19
490.44	430.88
490.81	433.85
491.17	436.54
491.54	439.60
491.90	443.03
492.26	446.53
492.63	450.31
492.99	453.92
493.36	457.60
493.72	461.61
494.08	465.60
494.45	469.81
494.81	474.18
495.17	478.50
495.54	483.20
495.90	487.84
496.26	492.62
496.63	497.41
496.99	502.35
497.35	507.40
497.72	512.57
498.08	518.00
498.44	523.52
498.80	529.50
499.17	535.47
499.53	541.35
499.89	547.47
500.26	553.37
500.62	559.21
500.98	565.46
501.34	571.53
501.71	578.00
502.07	584.25
502.43	590.58
502.79	596.82
503.16	603.16
503.52	609.58
503.88	615.96
504.24	622.57
504.60	629.22
504.97	635.82
505.33	642.22
505.69	649.30
506.05	655.94
506.41	662.40
506.78	668.75
507.14	675.05
507.50	681.31
507.86	687.60
508.22	694.13
508.59	700.27
508.95	706.54
509.31	712.71
509.67	719.00
510.03	725.19
510.39	731.68
510.75	737.89
511.12	743.98
511.48	749.96
511.84	756.02
512.20	761.80
512.56	767.65
512.92	773.70
513.28	778.98
513.64	784.36
514.00	789.75
514.37	795.13
514.73	800.72
515.09	806.03
515.45	811.38
515.81	816.44
516.17	821.38
516.53	826.23
516.89	830.82
517.25	835.31
517.61	839.58
517.97	843.79
518.33	847.81
518.69	851.74
519.05	855.95
519.41	859.94
519.77	864.12
520.13	867.73
520.49	871.11
520.85	874.97
521.21	878.66
521.57	882.18
521.93	885.31
522.29	888.54
522.65	891.81
523.01	894.96
523.37	897.82
523.73	901.10
524.09	904.07
524.45	907.14
524.81	910.17
525.17	913.35
525.53	916.41
525.89	919.46
526.25	922.43
526.61	924.91
526.97	927.32
527.33	929.71
527.68	932.78
528.04	935.47
528.40	937.56
528.76	940.08
529.12	942.97
529.48	946.13
529.84	948.72
530.20	951.22
530.56	953.49
530.91	956.48
531.27	959.21
531.63	961.73
531.99	964.38
532.35	966.75
532.71	969.04
533.07	971.65
533.42	974.21
533.78	976.77
534.14	979.26
534.50	981.41
534.86	984.08
535.21	985.94
535.57	988.48
535.93	990.83
536.29	993.06
536.65	995.11
537.00	996.86
537.36	998.64
537.72	1000.41
538.08	1002.63
538.44	1004.59
538.79	1006.53
539.15	1008.45
539.51	1010.54
539.87	1012.93
540.22	1015.10
540.58	1017.50
540.94	1019.77
541.29	1021.59
541.65	1023.45
542.01	1025.42
542.37	1027.23
542.72	1029.39
543.08	1031.07
543.44	1033.30
543.79	1034.97
544.15	1036.76
544.51	1038.91
544.87	1041.21
545.22	1043.32
545.58	1045.10
545.94	1046.68
546.29	1047.90
546.65	1049.66
547.01	1051.04
547.36	1052.29
547.72	1053.69
548.07	1054.47
548.43	1055.20
548.79	1056.35
549.14	1057.68
549.50	1059.08
549.86	1060.13
550.21	1061.39
550.57	1063.02
550.92	1063.87
551.28	1065.11
551.64	1066.27
551.99	1067.43
552.35	1068.36
552.70	1069.44
553.06	1070.84
553.41	1072.08
553.77	1073.62
554.13	1074.78
554.48	1076.27
554.84	1077.91
555.19	1078.95
555.55	1080.31
555.90	1081.54
556.26	1082.38
556.61	1083.35
556.97	1084.34
557.32	1085.35
557.68	1085.97
558.03	1086.40
558.39	1087.11
558.74	1087.92
559.10	1088.66
559.45	1089.56
559.81	1090.59
560.16	1091.18
560.52	1091.84
560.87	1092.57
561.23	1092.80
561.58	1093.85
561.94	1093.91
562.29	1093.83
562.64	1094.58
563.00	1095.02
563.35	1095.58
563.71	1096.76
564.06	1097.44
564.42	1098.59
564.77	1099.36
565.12	1100.26
565.48	1101.22
565.83	1102.04
566.19	1102.72
566.54	1103.15
566.89	1103.21
567.25	1103.75
567.60	1104.64
567.96	1105.26
568.31	1105.93
568.66	1106.61
569.02	1106.32
569.37	1106.36
569.72	1106.73
570.08	1106.67
570.43	1106.41
570.78	1106.20
571.14	1105.36
571.49	1104.85
571.84	1104.19
572.20	1103.36
572.55	1102.67
572.90	1101.55
573.26	1100.54
573.61	1099.64
573.96	1098.67
574.31	1097.49
574.67	1095.83
575.02	1093.75
575.37	1091.98
575.72	1089.84
576.08	1088.27
576.43	1086.47
576.78	1084.73
577.13	1083.06
577.49	1081.42
577.84	1079.69
578.19	1078.19
578.54	1077.24
578.90	1076.01
579.25	1073.85
579.60	1071.89
579.95	1069.44
580.30	1067.63
580.66	1065.89
581.01	1063.64
581.36	1061.40
581.71	1059.10
582.06	1057.15
582.42	1055.18
582.77	1052.75
583.12	1050.71
583.47	1048.46
583.82	1046.31
584.17	1044.06
584.53	1041.77
584.88	1039.16
585.23	1036.62
585.58	1033.85
585.93	1030.83
586.28	1028.14
586.63	1025.92
586.98	1023.64
587.34	1021.85
587.69	1019.14
588.04	1016.38
588.39	1014.08
588.74	1011.36
589.09	1009.15
589.44	1006.24
589.79	1003.82
590.14	1001.46
590.49	998.68
590.84	995.74
591.19	993.46
591.54	990.95
591.89	987.82
592.25	985.27
592.60	982.41
592.95	979.39
593.30	976.13
593.65	972.78
594.00	969.27
594.35	967.26
594.70	963.87
595.05	961.30
595.40	958.31
595.75	954.82
596.10	952.00
596.45	948.96
596.80	946.31
597.15	943.44
597.50	940.08
597.85	937.30
598.19	934.15
598.54	930.88
598.89	927.78
599.24	925.26
599.59	922.02
599.94	919.24
600.29	916.30
600.64	913.43
600.99	910.38
601.34	907.64
601.69	903.30
602.04	900.09
602.39	896.49
602.74	893.52
603.08	890.89
603.43	887.82
603.78	884.58
604.13	881.23
604.48	878.15
604.83	875.46
605.18	872.47
605.53	869.40
605.87	866.25
606.22	863.31
606.57	859.73
606.92	856.45
607.27	853.03
607.62	849.91
607.96	847.10
608.31	844.22
608.66	840.95
609.01	837.72
609.36	834.45
609.70	831.26
610.05	827.56
610.40	824.11
610.75	820.56
611.10	817.34
611.44	813.55
611.79	809.80
612.14	806.29
612.49	802.44
612.83	799.03
613.18	795.31
613.53	791.64
613.88	788.09
614.22	784.65
614.57	781.05
614.92	777.64
615.27	773.81
615.61	770.08
615.96	766.61
616.31	763.43
616.65	760.19
617.00	756.76
617.35	753.48
617.70	749.96
618.04	746.41
618.39	742.61
618.74	739.33
619.08	735.90
619.43	732.33
619.78	729.19
620.12	725.77
620.47	722.57
620.82	718.85
621.16	715.14
621.51	711.59
621.85	708.26
622.20	704.72
622.55	701.19
622.89	697.55
623.24	694.19
623.59	690.62
623.93	687.15
624.28	683.87
624.62	680.97
624.97	677.55
625.32	674.53
625.66	671.44
626.01	668.21
626.35	665.07
626.70	661.71
627.04	658.33
627.39	655.25
627.73	652.05
628.08	649.29
628.43	646.41
628.77	643.26
629.12	640.16
629.46	637.15
629.81	634.35
630.15	631.58
630.50	628.44
630.84	625.26
631.19	622.41
631.53	619.51
631.88	615.98
632.22	613.04
632.57	610.23
632.91	607.20
633.26	604.49
633.60	601.57
633.95	598.81
634.29	595.92
634.64	593.15
634.98	590.19
635.32	587.43
635.67	584.91
636.01	582.34
636.36	579.51
636.70	576.98
637.05	574.24
637.39	571.78
637.73	569.38
638.08	567.09
638.42	564.51
638.77	561.93
639.11	559.61
639.45	557.05
639.80	554.08
640.14	551.46
640.49	548.79
640.83	546.05
641.17	543.45
641.52	540.92
641.86	538.24
642.20	536.00
642.55	533.13
642.89	530.20
643.23	527.64
643.58	525.40
643.92	522.66
644.26	520.05
644.61	517.36
644.95	514.87
645.29	512.36
645.64	509.83
645.98	507.24
646.32	504.74
646.66	502.20
647.01	500.02
647.35	497.78
647.69	495.25
648.04	493.07
648.38	490.63
648.72	488.29
649.06	485.87
649.41	483.39
649.75	481.11
650.09	479.06
650.43	476.76
650.78	474.30
651.12	472.00
651.46	469.73
651.80	467.49
652.14	465.21
652.49	462.87
652.83	460.56
653.17	458.20
653.51	455.92
653.85	453.91
654.20	451.65
654.54	449.29
654.88	447.14
655.22	444.86
655.56	442.67
655.90	440.54
656.25	438.35
656.59	436.10
656.93	434.11
657.27	432.02
657.61	429.86
657.95	427.85
658.29	425.92
658.64	424.01
658.98	422.01
659.32	419.85
659.66	417.83
660.00	415.72
660.34	413.72
660.68	411.69
661.02	409.46
661.36	407.46
661.70	405.66
662.05	403.81
662.39	402.18
662.73	400.50
663.07	398.80
663.41	397.10
663.75	395.38
664.09	393.53
664.43	391.62
664.77	389.88
665.11	387.98
665.45	386.27
665.79	384.65
666.13	382.93
666.47	381.32
666.81	379.72
667.15	378.07
667.49	376.63
667.83	375.24
668.17	373.84
668.51	372.48
668.85	371.05
669.19	369.70
669.53	367.99
669.87	366.49
670.21	364.82
670.55	363.41
670.89	362.25
671.23	360.95
671.57	359.61
671.91	358.31
672.25	357.10
672.58	355.80
672.92	354.40
673.26	353.12
673.60	351.76
673.94	350.34
674.28	349.14
674.62	347.87
674.96	346.67
675.30	345.50
675.64	344.23
675.97	342.89
676.31	341.67
676.65	340.59
676.99	339.61
677.33	338.49
677.67	337.25
678.01	335.78
678.34	334.56
678.68	333.52
679.02	332.23
679.36	331.04
679.70	329.85
680.04	328.59
680.37	327.41
680.71	326.35
681.05	325.47
681.39	324.39
681.73	323.32
682.06	322.19
682.40	321.08
682.74	320.02
683.08	319.10
683.42	317.98
683.75	316.85
684.09	315.59
684.43	314.47
684.77	313.36
685.10	312.38
685.44	311.48
685.78	310.36
686.12	309.55
686.45	308.70
686.79	307.70
687.13	306.88
687.46	305.95
687.80	305.02
688.14	303.99
688.48	303.09
688.81	302.15
689.15	301.26
689.49	300.30
689.82	299.39
690.16	298.25
690.50	297.39
690.83	296.53
691.17	295.56
691.51	294.70
691.84	293.91
692.18	292.99
692.52	292.04
692.85	291.40
693.19	290.65
693.52	289.65
693.86	288.80
694.20	287.98
694.53	287.19
694.87	286.40
695.21	285.50
695.54	284.66
695.88	283.76
696.21	282.83
696.55	282.04
696.88	281.20
697.22	280.52
697.56	279.76
697.89	278.99
698.23	278.36
698.56	277.65
698.90	276.91
699.23	276.19
699.57	275.52
699.90	274.60
700.24	273.69
700.58	273.06
700.91	272.43
701.25	271.99
701.58	271.42
701.92	270.83
702.25	270.25
702.59	269.65
702.92	269.00
703.26	268.42
703.59	267.80
703.93	267.52
704.26	266.97
704.60	266.35
704.93	265.70
705.26	264.99
705.60	264.50
705.93	263.98
706.27	263.54
706.60	263.04
706.94	262.70
707.27	262.21
707.61	261.67
707.94	260.99
708.27	260.21
708.61	259.60
708.94	259.03
709.28	258.51
709.61	257.99
709.94	257.59
710.28	257.07
710.61	256.71
710.95	255.87
711.28	255.65
711.61	255.15
711.95	254.88
712.28	254.37
712.61	253.91
712.95	253.59
713.28	253.27
713.61	252.74
713.95	252.21
714.28	251.78
714.61	251.28
714.95	250.90
715.28	250.43
715.61	249.94
715.95	249.52
716.28	249.07
716.61	248.75
716.95	248.29
717.28	247.95
717.61	247.40
717.94	247.04
718.28	246.42
718.61	246.08
718.94	245.62
719.27	245.29
719.61	244.90
719.94	244.51
720.27	243.96
720.60	243.62
720.94	243.30
721.27	242.98
721.60	242.75
721.93	242.49
722.27	242.28
722.60	242.10
722.93	241.80
723.26	241.53
723.59	241.14
723.93	240.85
724.26	240.54
724.59	240.27
724.92	240.08
725.25	239.91
725.59	239.65
725.92	239.40
726.25	239.22
726.58	238.97
726.91	238.61
727.24	238.46
727.57	238.24
727.91	237.87
728.24	237.66
728.57	237.35
728.90	237.14
729.23	236.82
729.56	236.64
729.89	236.34
730.22	236.08
730.55	235.79
730.89	235.54
731.22	235.23
731.55	235.02
731.88	234.77
732.21	234.45
732.54	234.16
732.87	233.88
733.20	233.58
733.53	233.35
733.86	233.19
734.19	232.87
734.52	232.69
734.85	232.70
735.18	232.43
735.51	232.35
735.84	232.09
736.17	231.92
736.50	231.57
736.83	231.74
737.16	231.58
737.49	231.49
737.82	231.30
738.15	231.28
738.48	231.05
738.81	230.85
739.14	230.63
739.47	230.51
739.80	230.30
740.13	230.16
740.46	229.84
740.79	229.58
741.12	229.47
741.45	229.23
741.78	228.85
742.11	228.76
742.44	228.49
742.77	228.36
743.10	228.14
743.43	228.00
743.75	227.52
744.08	227.71
744.41	227.45
744.74	227.26
745.07	226.99
745.40	226.93
745.73	226.87
746.06	226.69
746.39	226.55
746.71	226.39
747.04	226.23
747.37	226.11
747.70	225.97
748.03	225.83
748.36	225.74
748.68	225.63
749.01	225.37
749.34	225.24
749.67	225.09
750.00	225.06
750.33	225.16
750.65	225.03
750.98	224.63
751.31	224.53
751.64	224.39
751.97	224.42
752.29	224.30
752.62	224.03
752.95	223.85
753.28	223.66
753.60	223.59
753.93	223.55
754.26	223.47
754.59	223.26
754.91	223.04
755.24	222.88
755.57	222.79
755.90	222.63
756.22	222.47
756.55	222.27
756.88	221.99
757.20	221.63
757.53	221.41
757.86	221.19
758.19	221.05
758.51	220.93
758.84	220.64
759.17	220.44
759.49	220.38
759.82	220.50
760.15	220.41
760.47	220.27
760.80	220.10
761.13	220.06
761.45	219.98
761.78	219.91
762.11	219.80
762.43	219.66
762.76	219.66
763.08	219.60
763.41	219.64
763.74	219.59
764.06	219.50
764.39	219.41
764.71	219.31
765.04	219.21
765.37	219.19
765.69	219.11
766.02	219.07
766.34	219.00
766.67	218.79
767.00	218.88
767.32	219.00
767.65	219.10
767.97	218.97
768.30	218.92
768.62	218.84
768.95	218.78
769.27	218.66
769.60	218.55
769.92	218.43
770.25	218.27
770.57	218.10
770.90	218.01
771.22	217.94
771.55	217.89
771.87	217.88
772.20	217.78
772.52	218.09
772.85	218.43
773.17	218.31
773.50	218.15
773.82	217.95
774.15	217.65
774.47	217.39
774.80	217.30
775.12	217.20
775.45	217.12
775.77	217.09
776.09	217.07
776.42	217.06
776.74	217.10
777.07	217.02
777.39	217.06
777.72	216.98
778.04	216.97
778.36	216.82
778.69	216.78
779.01	216.73
779.33	216.32
779.66	215.85
779.98	215.76
780.31	215.75
780.63	215.86
780.95	215.96
781.28	215.88
781.60	215.85
781.92	215.90
782.25	215.91
782.57	215.75
782.89	215.70
783.22	215.57
783.54	215.46
783.86	215.43
784.19	215.37
784.51	215.44
784.83	215.34
785.16	215.33
785.48	215.28
785.80	215.28
786.12	215.21
786.45	215.27
786.77	215.28
787.09	215.28
787.42	215.13
787.74	214.99
788.06	215.01
788.38	214.95
788.71	214.79
789.03	214.75
789.35	214.92
789.67	214.78
789.99	214.83
790.32	214.75
790.64	214.71
790.96	215.03
791.28	214.89
791.61	214.86
791.93	214.86
792.25	214.80
792.57	215.01
792.89	214.94
793.21	214.92
793.54	214.88
793.86	214.81
794.18	214.76
794.50	214.77
794.82	214.74
795.14	214.76
795.47	214.83
795.79	214.76
796.11	214.55
796.43	214.56
796.75	214.54
797.07	214.55
797.39	214.53
797.71	214.20
798.04	214.20
798.36	214.18
798.68	214.17
799.00	214.17
799.32	213.95
799.64	213.96
799.96	213.92
800.28	213.93
800.60	213.88
800.92	213.91
801.24	213.82
801.56	213.76
801.89	213.74
802.21	213.74
802.53	213.70
802.85	213.76
803.17	213.90
803.49	213.81
803.81	213.78
804.13	213.79
804.45	213.75
804.77	213.78
805.09	213.85
805.41	213.78
805.73	213.72
806.05	213.60
806.37	213.61
806.69	213.56
807.01	213.59
807.33	213.54
807.65	213.37
807.97	213.52
808.28	213.53
808.60	213.48
808.92	213.48
809.24	213.67
809.56	213.59
809.88	213.46
810.20	213.49
810.52	213.57
810.84	213.44
811.16	213.41
811.48	213.29
811.80	213.34
812.12	213.37
812.43	213.42
812.75	213.49
813.07	213.43
813.39	213.41
813.71	213.30
814.03	213.36
814.35	213.40
814.67	213.32
814.98	213.34
815.30	213.32
815.62	213.25
815.94	213.02
816.26	213.11
816.58	213.09
816.89	213.01
817.21	212.95
817.53	213.09
817.85	213.16
818.17	213.23
818.48	213.06
818.80	213.12
819.12	213.13
819.44	213.01
819.76	213.05
820.07	213.02
820.39	213.00
820.71	213.02
821.03	213.01
821.34	212.94
821.66	212.94
821.98	212.98
822.30	212.98
822.61	213.22
822.93	213.10
823.25	213.13
823.57	213.17
823.88	213.28
824.20	213.15
824.52	213.17
824.83	213.11
825.15	213.08
825.47	213.02
825.79	212.98
826.10	213.01
826.42	212.87
826.74	212.95
827.05	212.96
827.37	213.00
827.69	212.99
828.00	213.00
828.32	212.99
828.64	213.00
828.95	213.11
829.27	212.95
829.58	212.93
829.90	212.94
830.22	212.87
830.53	212.76
830.85	212.78
831.17	212.63
831.48	212.61
831.80	212.59
832.11	212.56
832.43	212.55
832.75	212.54
833.06	212.82
833.38	212.69
833.69	212.61
834.01	212.54
834.32	212.51
834.64	212.47
834.96	212.44
835.27	212.38
835.59	212.28
835.90	212.18
836.22	212.15
836.53	212.13
836.85	212.14
837.16	212.37
837.48	212.30
837.79	212.49
838.11	212.53
838.42	212.63
838.74	212.65
839.05	212.57
839.37	212.51
839.68	212.26
840.00	212.24
840.31	212.25
840.63	212.22
840.94	212.16
841.26	212.07
841.57	212.05
841.88	212.07
842.20	212.01
842.51	211.97
842.83	212.02
843.14	212.28
843.46	212.25
843.77	212.11
844.08	212.14
844.40	212.01
844.71	211.95
845.03	211.86
845.34	211.80
845.65	211.79
845.97	211.82
846.28	211.85
846.60	211.91
846.91	211.93
847.22	211.93
847.54	211.97
847.85	212.05
848.16	212.02
848.48	211.93
848.79	212.08
849.10	212.12
849.42	212.16
849.73	211.87
850.04	211.88
850.36	211.77
850.67	211.78
850.98	211.70
851.30	211.70
851.61	211.70
851.92	211.70
852.23	211.80
852.55	211.82
852.86	211.82
853.17	211.82
853.49	211.87
853.80	211.95
854.11	212.04
854.42	212.02
854.74	211.99
855.05	212.08
855.36	211.86
855.67	211.92
855.99	211.88
856.30	212.23
856.61	212.24
856.92	212.28
857.23	212.37
857.55	212.36
857.86	212.38
858.17	212.50
858.48	212.41
858.79	212.40
859.11	212.43
859.42	212.37
859.73	212.39
860.04	212.36
860.35	212.26
860.66	212.14
860.98	212.15
861.29	212.21
861.60	212.17
861.91	212.29
862.22	212.26
862.53	212.18
862.84	211.77
863.16	211.77
863.47	211.69
863.78	211.60
864.09	211.67
864.40	211.75
864.71	211.65
865.02	211.74
865.33	211.71
865.64	211.59
865.95	211.62
866.27	211.78
866.58	211.77
866.89	211.82
867.20	211.85
867.51	211.80
867.82	211.80
868.13	211.91
868.44	211.90
868.75	211.94
869.06	212.02
869.37	212.02
869.68	211.87
869.99	211.93
870.30	211.97
870.61	212.00
870.92	211.84
871.23	211.76
871.54	211.83
871.85	211.89
872.16	211.94
872.47	211.92
872.78	211.72
873.09	211.77
873.40	211.75
873.71	211.74
874.02	211.79
874.33	211.79
874.64	211.70
874.95	211.74
875.26	211.61
875.56	211.57
875.87	211.58
876.18	211.67
876.49	211.99
876.80	211.94
877.11	211.83
877.42	211.85
877.73	211.92
878.04	211.87
878.35	211.84
878.66	211.85
878.96	211.80
879.27	211.74
879.58	211.64
879.89	211.55
880.20	211.64
880.51	211.60
880.82	211.57
881.12	211.55
881.43	211.46
881.74	211.43
882.05	211.41
882.36	211.38
882.67	211.41
882.97	211.02
883.28	211.01
883.59	211.05
883.90	211.09
884.21	211.17
884.51	211.15
884.82	211.11
885.13	211.11
885.44	211.12
885.74	211.13
886.05	211.18
886.36	211.22
886.67	211.05
886.98	211.23
887.28	211.20
887.59	211.20
887.90	211.18
888.20	211.21
888.51	211.31
888.82	211.40
889.13	211.38
889.43	211.71
889.74	211.64
890.05	211.57
890.35	211.57
890.66	211.49
890.97	211.40
891.28	211.42
891.58	211.44
891.89	211.45
892.20	211.44
892.50	211.36
892.81	211.31
893.12	211.39
893.42	211.21
893.73	211.25
894.04	211.26
894.34	211.26
894.65	211.28
894.95	211.23
895.26	211.18
895.57	211.33
895.87	211.00
896.18	211.12
896.48	211.14
896.79	211.09
897.10	211.13
897.40	211.14
897.71	211.12
898.01	211.08
898.32	211.10
898.63	211.11
898.93	211.11
899.24	211.19
899.54	211.10
899.85	211.13
900.15	211.10
900.46	211.14
900.76	211.22
901.07	211.20
901.38	211.15
901.68	211.24
901.99	211.09
902.29	211.10
902.60	211.03
902.90	211.08
903.21	211.12
903.51	211.17
903.82	211.25
904.12	211.30
904.43	211.39
904.73	211.47
905.03	211.46
905.34	211.84
905.64	211.76
905.95	211.75
906.25	211.78
906.56	211.72
906.86	211.66
907.17	211.61
907.47	211.67
907.77	211.67
908.08	211.50
908.38	211.58
908.69	211.54
908.99	211.61
909.30	211.63
909.60	211.63
909.90	211.61
910.21	211.55
910.51	211.49
910.81	211.40
911.12	211.37
911.42	211.38
911.73	210.99
912.03	211.01
912.33	211.11
912.64	211.07
912.94	211.07
913.24	211.02
913.55	210.99
913.85	210.91
914.15	210.94
914.46	211.07
914.76	210.96
915.06	211.01
915.37	210.97
915.67	210.92
915.97	210.96
916.27	210.88
916.58	210.86
916.88	210.83
917.18	210.88
917.49	211.10
917.79	211.06
918.09	211.17
918.39	211.29
918.70	211.19
919.00	211.22
919.30	211.43
919.60	211.39
919.91	211.38
920.21	211.43
920.51	211.40
920.81	211.38
921.12	211.39
921.42	211.35
921.72	211.39
922.02	211.48
922.32	211.56
922.63	211.61
922.93	211.84
923.23	211.87
923.53	211.78
923.83	211.54
924.13	211.58
924.44	211.60
924.74	211.67
925.04	211.80
925.34	211.77
925.64	211.59
925.94	211.67
926.24	211.93
926.55	211.85
926.85	211.92
927.15	211.85
927.45	211.91
927.75	211.93
928.05	211.92
928.35	211.89
928.65	211.85
928.95	211.90
929.26	211.72
929.56	211.75
929.86	211.80
930.16	211.77
930.46	211.79
930.76	211.76
931.06	211.56
931.36	211.47
931.66	211.53
931.96	211.58
932.26	211.56
932.56	211.33
932.86	211.40
933.16	211.29
933.46	211.33
933.76	211.31
934.06	211.38
934.36	211.53
934.66	211.42
934.96	211.36
935.26	211.30
935.56	211.37
935.86	211.35
936.16	211.31
936.46	211.33
936.76	211.32
937.06	211.30
937.36	211.28
937.66	211.31
937.96	211.28
938.26	211.22
938.56	211.14
938.86	211.17
939.16	211.18
939.46	211.30
939.76	211.28
940.06	211.23
940.35	211.12
940.65	210.90
940.95	210.96
941.25	210.89
941.55	210.86
941.85	210.78
942.15	210.90
942.45	211.08
942.75	211.04
943.04	211.04
943.34	211.12
943.64	211.15
943.94	211.08
944.24	211.06
944.54	211.12
944.84	211.12
945.13	211.08
945.43	211.03
945.73	210.97
946.03	210.99
946.33	211.00
946.62	211.02
946.92	210.97
947.22	210.99
947.52	211.03
947.82	211.02
948.11	210.95
948.41	210.83
948.71	210.63
949.01	210.64
949.31	210.59
949.60	210.53
949.90	210.58
950.20	210.59
950.50	210.51
950.79	210.46
951.09	210.56
951.39	210.56
951.69	210.54
951.98	210.60
952.28	210.57
952.58	210.55
952.87	210.61
953.17	210.70
953.47	210.72
953.76	210.66
954.06	210.64
954.36	210.67
954.66	210.58
954.95	210.70
955.25	210.73
955.55	210.80
955.84	210.78
956.14	210.72
956.44	210.70
956.73	210.71
957.03	210.77
957.32	210.73
957.62	210.73
957.92	210.87
958.21	210.92
958.51	211.33
958.81	211.38
959.10	211.32
959.40	211.36
959.69	211.38
959.99	211.49
960.29	211.51
960.58	211.55
960.88	211.72
961.17	211.70
961.47	211.71
961.76	211.67
962.06	211.72
962.36	211.76
962.65	211.81
962.95	211.80
963.24	211.76
963.54	211.77
963.83	211.75
964.13	211.71
964.42	211.61
964.72	211.34
965.01	211.33
965.31	211.27
965.60	211.23
965.90	211.36
966.19	211.24
966.49	211.29
966.78	211.22
967.08	211.16
967.37	211.11
967.67	211.07
967.96	211.19
968.26	211.15
968.55	211.20
968.85	211.16
969.14	211.22
969.43	211.19
969.73	211.14
970.02	211.10
970.32	211.04
970.61	210.95
970.91	210.84
971.20	210.78
971.49	210.83
971.79	210.79
972.08	210.60
972.38	210.69
972.67	210.70
972.96	210.73
973.26	210.72
973.55	210.85
973.85	210.83
974.14	210.70
974.43	210.77
974.73	210.72
975.02	210.71
975.31	210.67
975.61	210.65
975.90	210.63
976.19	210.66
976.49	210.72
976.78	210.75
977.07	210.78
977.37	210.84
977.66	210.87
977.95	210.86
978.24	210.89
978.54	210.91
978.83	210.81
979.12	210.82
979.42	210.77
979.71	210.75
980.00	210.74
980.29	210.87
980.59	210.74
980.88	210.77
981.17	210.79
981.46	210.84
981.76	210.88
982.05	210.98
982.34	211.00
982.63	210.97
982.93	211.06
983.22	211.17
983.51	211.20
983.80	211.24
984.09	211.27
984.39	211.24
984.68	211.19
984.97	211.35
985.26	211.34
985.55	211.41
985.85	211.30
986.14	211.35
986.43	211.32
986.72	211.38
987.01	211.34
987.30	211.34
987.59	211.27
987.89	211.34
988.18	211.34
988.47	211.28
988.76	211.25
989.05	211.20
989.34	211.11
989.63	211.21
989.92	211.17
990.22	211.13
990.51	211.14
990.80	211.17
991.09	211.06
991.38	211.03
991.67	211.05
991.96	211.05
992.25	211.09
992.54	211.00
992.83	210.97
993.12	210.96
993.41	211.03
993.70	211.22
993.99	211.22
994.28	211.19
994.58	211.28
994.87	211.27
995.16	211.27
995.45	211.28
995.74	211.12
996.03	211.10
996.32	211.14
996.61	211.20
996.90	211.13
997.19	211.17
997.48	211.22
997.77	211.05
998.06	211.04
998.34	211.01
998.63	211.02
998.92	211.00
999.21	210.97
999.50	211.05
999.79	210.89
1000.08	210.89
1000.37	210.90
1000.66	210.78
1000.95	210.82
1001.24	210.81
1001.53	210.81
1001.82	210.88
1002.11	210.89
1002.40	210.91
1002.68	211.03
1002.97	211.28
1003.26	211.23
1003.55	211.23
1003.84	211.37
1004.13	211.45
1004.42	211.41
1004.71	211.43
1004.99	211.46
1005.28	211.64
1005.57	211.53
1005.86	211.49
1006.15	211.50
1006.44	211.47
1006.72	211.59
1007.01	211.56
1007.30	211.56
1007.59	211.50
1007.88	211.41
1008.17	211.42
1008.45	211.40
1008.74	211.20
1009.03	211.05
1009.32	211.05
1009.60	210.95
1009.89	210.85
1010.18	210.75
1010.47	210.72
1010.76	210.70
1011.04	210.71
1011.33	210.63
1011.62	210.66
1011.91	210.69
1012.19	210.67
1012.48	210.60
1012.77	210.59
1013.05	210.73
1013.34	210.73
1013.63	210.68
1013.92	210.77
1014.20	210.74
1014.49	210.72
1014.78	210.75
1015.06	210.64
1015.35	210.66
1015.64	210.83
1015.92	210.91
1016.21	210.96
1016.50	210.95
1016.78	210.95
1017.07	210.89
1017.36	210.83
1017.64	210.79
1017.93	210.83
1018.22	210.83
1018.50	210.81
1018.79	210.86
1019.08	210.74
1019.36	210.73
1019.65	210.75
1019.93	210.83
1020.22	210.91
1020.51	211.04
1020.79	211.04
1021.08	210.90
1021.36	208.85
1021.65	212.20
1021.94	211.25
1022.22	210.95
1022.51	210.30
1022.79	213.10
1023.08	211.80
1023.36	213.95
1023.65	210.20
>>>>>End Processed Spectral Data<<<<<
