SpectraSuite Data File
++++++++++++++++++++++++++++++++++++
Date: Mon Feb 25 17:08:16 EST 2013
User: group
Dark Spectrum Present: No
Reference Spectrum Present: No
Number of Sampled Component Spectra: 1
Spectrometers: USB2E7196
Integration Time (usec): 104000 (USB2E7196)
Spectra Averaged: 20 (USB2E7196)
Boxcar Smoothing: 10 (USB2E7196)
Correct for Electrical Dark: No (USB2E7196)
Strobe/Lamp Enabled: No (USB2E7196)
Correct for Detector Non-linearity: No (USB2E7196)
Correct for Stray Light: No (USB2E7196)
Number of Pixels in Processed Spectrum: 2048
>>>>>Begin Processed Spectral Data<<<<<
339.09	0.00
339.48	200.55
339.86	200.70
340.24	201.20
340.63	202.70
341.01	209.30
341.39	205.20
341.78	206.35
342.16	210.20
342.54	209.00
342.93	198.50
343.31	208.47
343.69	208.96
344.07	209.41
344.46	209.91
344.84	210.35
345.22	210.38
345.60	210.65
345.99	210.89
346.37	210.92
346.75	210.95
347.13	210.94
347.52	210.86
347.90	210.95
348.28	210.96
348.66	211.06
349.05	210.91
349.43	210.94
349.81	210.93
350.19	211.04
350.57	211.09
350.96	211.17
351.34	211.26
351.72	211.25
352.10	211.29
352.48	211.32
352.87	211.28
353.25	211.34
353.63	211.35
354.01	211.34
354.39	211.40
354.77	211.48
355.15	211.64
355.54	211.63
355.92	211.60
356.30	211.62
356.68	211.83
357.06	211.88
357.44	211.94
357.82	212.01
358.20	212.00
358.58	212.11
358.97	212.18
359.35	212.32
359.73	212.42
360.11	212.45
360.49	212.40
360.87	212.45
361.25	212.46
361.63	212.65
362.01	212.72
362.39	212.77
362.77	212.83
363.15	212.80
363.53	212.90
363.91	212.96
364.29	213.04
364.67	212.81
365.05	212.88
365.43	212.91
365.81	212.93
366.19	213.13
366.57	213.29
366.95	213.24
367.33	213.13
367.71	213.17
368.09	213.26
368.47	213.34
368.85	213.40
369.23	213.54
369.61	213.40
369.99	213.54
370.37	213.50
370.75	213.73
371.13	213.67
371.51	213.61
371.89	213.58
372.27	213.64
372.65	213.58
373.03	213.48
373.41	213.40
373.78	213.35
374.16	213.03
374.54	212.85
374.92	212.80
375.30	212.78
375.68	212.72
376.06	212.70
376.44	212.60
376.82	212.58
377.19	212.49
377.57	212.41
377.95	212.22
378.33	212.14
378.71	211.82
379.09	211.86
379.47	211.85
379.84	211.81
380.22	211.63
380.60	211.54
380.98	211.54
381.36	211.49
381.73	211.38
382.11	211.44
382.49	211.42
382.87	211.36
383.25	211.30
383.62	211.54
384.00	211.37
384.38	211.30
384.76	211.37
385.13	211.41
385.51	211.35
385.89	211.33
386.27	211.28
386.64	211.26
387.02	211.20
387.40	211.15
387.78	211.06
388.15	211.04
388.53	210.95
388.91	210.96
389.29	210.92
389.66	210.96
390.04	210.93
390.42	210.88
390.79	210.90
391.17	210.84
391.55	210.48
391.92	210.47
392.30	210.49
392.68	210.37
393.05	210.40
393.43	210.46
393.81	210.37
394.18	210.37
394.56	210.40
394.94	210.43
395.31	210.36
395.69	210.47
396.06	210.47
396.44	210.58
396.82	210.56
397.19	210.75
397.57	210.70
397.95	210.75
398.32	210.63
398.70	210.56
399.07	210.71
399.45	210.72
399.82	210.72
400.20	210.70
400.58	210.68
400.95	210.55
401.33	210.56
401.70	210.87
402.08	210.92
402.45	210.94
402.83	211.01
403.20	211.07
403.58	211.04
403.95	211.21
404.33	211.22
404.71	211.32
405.08	211.47
405.46	211.60
405.83	211.69
406.21	211.84
406.58	212.00
406.96	212.06
407.33	212.16
407.70	212.36
408.08	212.78
408.45	212.90
408.83	213.13
409.20	213.27
409.58	213.20
409.95	213.44
410.33	213.65
410.70	213.77
411.08	214.15
411.45	214.41
411.82	214.64
412.20	214.98
412.57	215.47
412.95	215.55
413.32	215.95
413.69	216.32
414.07	216.73
414.44	217.15
414.82	217.62
415.19	218.22
415.56	218.73
415.94	219.15
416.31	219.83
416.68	220.52
417.06	221.28
417.43	222.16
417.81	222.93
418.18	223.75
418.55	224.70
418.93	225.55
419.30	226.59
419.67	227.59
420.04	228.68
420.42	229.70
420.79	231.23
421.16	232.45
421.54	233.88
421.91	235.28
422.28	236.78
422.66	238.34
423.03	240.07
423.40	241.62
423.77	243.33
424.15	245.09
424.52	246.80
424.89	248.73
425.26	250.50
425.64	252.37
426.01	254.32
426.38	256.36
426.75	258.56
427.13	260.64
427.50	262.94
427.87	265.22
428.24	267.48
428.61	269.47
428.99	272.21
429.36	274.79
429.73	277.50
430.10	280.07
430.47	282.78
430.85	285.40
431.22	288.37
431.59	291.68
431.96	294.60
432.33	298.02
432.70	301.32
433.08	305.03
433.45	308.59
433.82	312.30
434.19	316.25
434.56	320.07
434.93	323.83
435.30	327.60
435.68	331.70
436.05	335.82
436.42	339.96
436.79	343.60
437.16	347.51
437.53	351.72
437.90	355.98
438.27	360.15
438.64	364.41
439.01	368.47
439.38	371.88
439.75	375.45
440.13	379.32
440.50	383.02
440.87	386.22
441.24	389.38
441.61	392.82
441.98	395.35
442.35	398.40
442.72	401.45
443.09	404.49
443.46	406.29
443.83	407.55
444.20	408.76
444.57	410.30
444.94	411.34
445.31	412.20
445.68	413.45
446.05	413.78
446.42	413.54
446.79	413.18
447.16	412.67
447.53	412.41
447.90	410.89
448.27	409.30
448.64	407.25
449.01	405.77
449.37	403.15
449.74	400.62
450.11	397.82
450.48	394.47
450.85	390.86
451.22	388.02
451.59	385.24
451.96	382.44
452.33	378.77
452.70	375.32
453.07	371.30
453.43	366.82
453.80	363.04
454.17	359.28
454.54	355.78
454.91	352.10
455.28	348.34
455.65	344.92
456.02	342.07
456.38	339.17
456.75	335.56
457.12	332.46
457.49	329.47
457.86	326.16
458.23	323.75
458.59	321.02
458.96	318.19
459.33	315.70
459.70	313.25
460.07	311.27
460.43	308.90
460.80	306.77
461.17	304.92
461.54	302.93
461.91	301.08
462.27	299.15
462.64	297.47
463.01	295.76
463.38	294.16
463.74	291.95
464.11	290.30
464.48	288.96
464.85	287.45
465.21	286.35
465.58	285.16
465.95	283.62
466.32	282.44
466.68	281.25
467.05	280.06
467.42	278.89
467.78	277.67
468.15	276.63
468.52	275.80
468.88	274.65
469.25	273.58
469.62	272.80
469.98	271.93
470.35	271.10
470.72	270.21
471.08	269.21
471.45	268.50
471.82	267.86
472.18	267.04
472.55	266.48
472.92	265.79
473.28	265.19
473.65	264.59
474.02	263.96
474.38	263.49
474.75	263.13
475.11	262.63
475.48	262.27
475.85	261.93
476.21	261.55
476.58	261.33
476.94	261.13
477.31	260.82
477.67	260.56
478.04	260.41
478.41	260.34
478.77	260.56
479.14	260.35
479.50	260.24
479.87	260.27
480.23	260.23
480.60	260.14
480.96	260.06
481.33	260.20
481.69	260.22
482.06	260.32
482.42	260.34
482.79	260.45
483.15	260.50
483.52	260.78
483.88	260.93
484.25	261.03
484.61	261.30
484.98	261.52
485.34	261.90
485.71	262.18
486.07	262.45
486.44	262.49
486.80	262.97
487.17	263.29
487.53	263.91
487.90	264.50
488.26	265.18
488.62	265.96
488.99	266.56
489.35	267.33
489.72	267.95
490.08	268.68
490.44	269.50
490.81	270.40
491.17	271.11
491.54	272.02
491.90	273.10
492.26	274.00
492.63	274.98
492.99	275.99
493.36	277.12
493.72	278.33
494.08	279.53
494.45	280.79
494.81	282.15
495.17	283.29
495.54	284.70
495.90	286.02
496.26	287.34
496.63	288.80
496.99	290.26
497.35	291.92
497.72	293.57
498.08	295.10
498.44	296.81
498.80	298.73
499.17	300.54
499.53	302.27
499.89	304.20
500.26	306.21
500.62	308.12
500.98	310.10
501.34	312.10
501.71	314.25
502.07	316.43
502.43	318.59
502.79	320.72
503.16	322.80
503.52	325.00
503.88	327.24
504.24	329.64
504.60	332.04
504.97	334.45
505.33	336.88
505.69	339.51
506.05	342.00
506.41	344.55
506.78	347.14
507.14	349.81
507.50	352.43
507.86	355.17
508.22	357.97
508.59	360.79
508.95	363.66
509.31	366.72
509.67	369.56
510.03	372.52
510.39	375.66
510.75	378.75
511.12	381.90
511.48	385.14
511.84	388.29
512.20	391.45
512.56	394.76
512.92	398.05
513.28	401.40
513.64	404.75
514.00	408.02
514.37	411.45
514.73	415.03
515.09	418.68
515.45	422.08
515.81	425.52
516.17	429.08
516.53	432.67
516.89	436.09
517.25	439.70
517.61	443.49
517.97	447.23
518.33	450.93
518.69	454.87
519.05	458.57
519.41	462.36
519.77	466.49
520.13	470.22
520.49	474.03
520.85	477.80
521.21	481.89
521.57	485.89
521.93	489.71
522.29	493.62
522.65	497.43
523.01	501.56
523.37	505.66
523.73	509.77
524.09	513.87
524.45	518.06
524.81	522.30
525.17	526.46
525.53	530.58
525.89	534.80
526.25	538.90
526.61	543.00
526.97	547.29
527.33	551.46
527.68	556.08
528.04	560.41
528.40	564.60
528.76	568.89
529.12	573.37
529.48	577.98
529.84	582.30
530.20	586.97
530.56	591.48
530.91	596.13
531.27	600.83
531.63	605.36
531.99	609.83
532.35	614.21
532.71	618.61
533.07	623.22
533.42	628.15
533.78	632.64
534.14	637.35
534.50	641.65
534.86	646.14
535.21	650.19
535.57	654.62
535.93	659.05
536.29	663.52
536.65	667.90
537.00	672.07
537.36	676.35
537.72	680.36
538.08	684.51
538.44	688.56
538.79	692.49
539.15	696.52
539.51	700.64
539.87	704.99
540.22	709.13
540.58	713.25
540.94	716.94
541.29	720.78
541.65	724.52
542.01	728.43
542.37	732.18
542.72	736.21
543.08	739.98
543.44	743.94
543.79	747.37
544.15	751.04
544.51	754.84
544.87	758.60
545.22	762.20
545.58	765.50
545.94	768.69
546.29	771.88
546.65	775.05
547.01	777.90
547.36	780.80
547.72	783.75
548.07	786.50
548.43	789.05
548.79	791.61
549.14	794.27
549.50	796.85
549.86	799.23
550.21	801.55
550.57	804.12
550.92	806.27
551.28	808.41
551.64	810.45
551.99	812.52
552.35	814.42
552.70	816.31
553.06	818.47
553.41	820.45
553.77	822.56
554.13	824.43
554.48	826.55
554.84	828.43
555.19	830.02
555.55	831.73
555.90	833.36
556.26	835.06
556.61	836.46
556.97	837.75
557.32	839.08
557.68	840.31
558.03	841.36
558.39	842.58
558.74	844.08
559.10	845.27
559.45	846.48
559.81	847.69
560.16	848.82
560.52	849.90
560.87	851.03
561.23	851.64
561.58	852.81
561.94	853.41
562.29	853.98
562.64	854.89
563.00	855.69
563.35	856.59
563.71	857.38
564.06	858.31
564.42	859.41
564.77	860.40
565.12	861.30
565.48	862.37
565.83	863.06
566.19	863.50
566.54	863.88
566.89	864.06
567.25	864.52
567.60	865.07
567.96	865.38
568.31	865.71
568.66	866.00
569.02	865.92
569.37	865.82
569.72	865.86
570.08	865.67
570.43	865.40
570.78	865.01
571.14	864.74
571.49	864.14
571.84	863.53
572.20	862.70
572.55	862.07
572.90	861.10
573.26	860.18
573.61	859.37
573.96	858.67
574.31	857.75
574.67	856.47
575.02	855.14
575.37	853.81
575.72	852.39
576.08	851.37
576.43	850.09
576.78	849.04
577.13	847.93
577.49	846.74
577.84	845.44
578.19	844.38
578.54	843.27
578.90	842.37
579.25	841.29
579.60	840.15
579.95	838.69
580.30	837.51
580.66	836.44
581.01	835.12
581.36	833.64
581.71	832.26
582.06	831.20
582.42	830.05
582.77	828.60
583.12	827.34
583.47	826.04
583.82	824.95
584.17	823.72
584.53	822.56
584.88	821.47
585.23	820.35
585.58	819.05
585.93	817.73
586.28	816.50
586.63	815.08
586.98	813.75
587.34	812.81
587.69	811.23
588.04	809.82
588.39	808.59
588.74	807.13
589.09	806.04
589.44	804.27
589.79	802.99
590.14	801.84
590.49	800.53
590.84	799.09
591.19	797.84
591.54	796.43
591.89	794.59
592.25	793.03
592.60	791.32
592.95	789.32
593.30	787.23
593.65	785.17
594.00	783.33
594.35	782.44
594.70	780.38
595.05	778.65
595.40	776.87
595.75	774.89
596.10	773.31
596.45	771.62
596.80	770.39
597.15	768.85
597.50	767.14
597.85	765.60
598.19	763.78
598.54	761.78
598.89	760.22
599.24	759.01
599.59	757.19
599.94	755.70
600.29	754.44
600.64	753.16
600.99	751.53
601.34	750.06
601.69	747.66
602.04	746.09
602.39	744.53
602.74	743.10
603.08	741.95
603.43	740.84
603.78	739.28
604.13	737.56
604.48	735.71
604.83	734.38
605.18	732.92
605.53	731.32
605.87	729.83
606.22	728.24
606.57	726.27
606.92	724.71
607.27	722.87
607.62	721.17
607.96	719.62
608.31	718.21
608.66	716.55
609.01	714.64
609.36	712.79
609.70	710.95
610.05	708.94
610.40	706.94
610.75	704.54
611.10	702.64
611.44	700.40
611.79	698.27
612.14	695.89
612.49	693.27
612.83	691.20
613.18	688.89
613.53	686.48
613.88	684.10
614.22	681.75
614.57	679.64
614.92	677.25
615.27	674.82
615.61	672.31
615.96	669.98
616.31	667.84
616.65	665.90
617.00	663.67
617.35	661.45
617.70	658.90
618.04	656.51
618.39	653.86
618.74	651.53
619.08	649.09
619.43	646.81
619.78	644.76
620.12	642.47
620.47	640.32
620.82	637.86
621.16	635.56
621.51	633.30
621.85	630.85
622.20	628.55
622.55	626.14
622.89	623.77
623.24	621.37
623.59	618.85
623.93	616.29
624.28	613.90
624.62	611.99
624.97	609.81
625.32	607.58
625.66	605.41
626.01	603.19
626.35	601.02
626.70	598.57
627.04	596.41
627.39	594.11
627.73	591.83
628.08	589.83
628.43	587.42
628.77	585.15
629.12	582.91
629.46	580.92
629.81	578.68
630.15	576.39
630.50	573.97
630.84	571.64
631.19	569.38
631.53	567.24
631.88	564.45
632.22	562.08
632.57	560.03
632.91	557.84
633.26	555.77
633.60	553.60
633.95	551.62
634.29	549.27
634.64	547.26
634.98	544.91
635.32	542.83
635.67	540.99
636.01	538.92
636.36	536.73
636.70	534.68
637.05	532.70
637.39	530.86
637.73	529.08
638.08	527.51
638.42	525.75
638.77	523.81
639.11	522.07
639.45	520.10
639.80	517.88
640.14	515.77
640.49	513.65
640.83	511.56
641.17	509.60
641.52	507.61
641.86	505.48
642.20	503.61
642.55	501.29
642.89	499.19
643.23	496.91
643.58	495.05
643.92	492.67
644.26	490.64
644.61	488.58
644.95	486.38
645.29	484.10
645.64	481.86
645.98	479.68
646.32	477.56
646.66	475.48
647.01	473.41
647.35	471.43
647.69	469.30
648.04	467.37
648.38	465.16
648.72	463.16
649.06	461.01
649.41	458.78
649.75	456.85
650.09	454.84
650.43	452.80
650.78	450.59
651.12	448.59
651.46	446.43
651.80	444.44
652.14	442.58
652.49	440.71
652.83	438.66
653.17	436.61
653.51	434.58
653.85	432.65
654.20	430.93
654.54	428.87
654.88	427.03
655.22	425.05
655.56	423.02
655.90	421.06
656.25	419.13
656.59	417.34
656.93	415.48
657.27	413.75
657.61	411.82
657.95	410.12
658.29	408.29
658.64	406.67
658.98	404.80
659.32	402.90
659.66	401.00
660.00	399.22
660.34	397.53
660.68	395.68
661.02	393.87
661.36	391.95
661.70	390.35
662.05	388.70
662.39	387.26
662.73	385.88
663.07	384.46
663.41	382.92
663.75	381.19
664.09	379.60
664.43	377.84
664.77	376.46
665.11	374.88
665.45	373.45
665.79	371.90
666.13	370.45
666.47	368.99
666.81	367.48
667.15	365.98
667.49	364.70
667.83	363.42
668.17	362.05
668.51	360.74
668.85	359.42
669.19	358.23
669.53	356.60
669.87	355.20
670.21	353.72
670.55	352.41
670.89	351.38
671.23	350.18
671.57	349.03
671.91	347.79
672.25	346.45
672.58	345.31
672.92	343.90
673.26	342.74
673.60	341.48
673.94	340.30
674.28	339.17
674.62	337.97
674.96	336.74
675.30	335.63
675.64	334.39
675.97	333.20
676.31	331.98
676.65	330.93
676.99	329.95
677.33	328.83
677.67	327.77
678.01	326.49
678.34	325.37
678.68	324.26
679.02	323.20
679.36	322.21
679.70	321.13
680.04	320.23
680.37	319.05
680.71	318.05
681.05	317.19
681.39	316.12
681.73	315.03
682.06	314.13
682.40	313.12
682.74	312.19
683.08	311.39
683.42	310.28
683.75	309.34
684.09	308.26
684.43	307.32
684.77	306.24
685.10	305.30
685.44	304.33
685.78	303.32
686.12	302.34
686.45	301.44
686.79	300.36
687.13	299.44
687.46	298.57
687.80	297.75
688.14	296.72
688.48	295.93
688.81	295.04
689.15	294.17
689.49	293.22
689.82	292.51
690.16	291.42
690.50	290.52
690.83	289.64
691.17	288.73
691.51	287.81
691.84	287.04
692.18	286.23
692.52	285.51
692.85	284.84
693.19	284.23
693.52	283.40
693.86	282.72
694.20	281.95
694.53	281.14
694.87	280.29
695.21	279.53
695.54	278.71
695.88	277.88
696.21	277.04
696.55	276.39
696.88	275.57
697.22	274.87
697.56	274.28
697.89	273.60
698.23	272.95
698.56	272.18
698.90	271.53
699.23	270.88
699.57	270.15
699.90	269.45
700.24	268.64
700.58	268.03
700.91	267.36
701.25	267.01
701.58	266.63
701.92	266.11
702.25	265.47
702.59	264.94
702.92	264.45
703.26	263.90
703.59	263.38
703.93	263.11
704.26	262.65
704.60	262.05
704.93	261.47
705.26	260.94
705.60	260.54
705.93	260.03
706.27	259.58
706.60	259.17
706.94	258.75
707.27	258.24
707.61	257.69
707.94	257.20
708.27	256.45
708.61	255.79
708.94	255.32
709.28	254.92
709.61	254.39
709.94	253.99
710.28	253.58
710.61	253.13
710.95	252.35
711.28	252.12
711.61	251.64
711.95	251.36
712.28	250.98
712.61	250.52
712.95	250.27
713.28	249.94
713.61	249.45
713.95	249.01
714.28	248.72
714.61	248.34
714.95	247.96
715.28	247.51
715.61	247.10
715.95	246.67
716.28	246.22
716.61	245.88
716.95	245.38
717.28	245.03
717.61	244.66
717.94	244.29
718.28	243.61
718.61	243.35
718.94	242.91
719.27	242.50
719.61	242.15
719.94	241.76
720.27	241.27
720.60	240.89
720.94	240.55
721.27	240.26
721.60	240.01
721.93	239.69
722.27	239.63
722.60	239.42
722.93	239.10
723.26	238.83
723.59	238.54
723.93	238.38
724.26	238.04
724.59	237.75
724.92	237.55
725.25	237.43
725.59	237.11
725.92	236.88
726.25	236.64
726.58	236.43
726.91	236.11
727.24	235.95
727.57	235.75
727.91	235.35
728.24	235.10
728.57	234.78
728.90	234.58
729.23	234.21
729.56	234.07
729.89	233.87
730.22	233.62
730.55	233.31
730.89	233.03
731.22	232.86
731.55	232.72
731.88	232.47
732.21	232.26
732.54	232.03
732.87	231.82
733.20	231.64
733.53	231.41
733.86	231.26
734.19	231.01
734.52	230.83
734.85	230.91
735.18	230.65
735.51	230.54
735.84	230.36
736.17	230.20
736.50	229.82
736.83	230.04
737.16	229.93
737.49	229.80
737.82	229.56
738.15	229.34
738.48	229.04
738.81	228.85
739.14	228.58
739.47	228.39
739.80	228.19
740.13	228.06
740.46	227.86
740.79	227.63
741.12	227.44
741.45	227.21
741.78	226.88
742.11	226.76
742.44	226.53
742.77	226.39
743.10	226.22
743.43	226.10
743.75	225.54
744.08	225.76
744.41	225.63
744.74	225.50
745.07	225.34
745.40	225.20
745.73	225.20
746.06	225.00
746.39	224.91
746.71	224.76
747.04	224.48
747.37	224.38
747.70	224.31
748.03	224.18
748.36	224.09
748.68	223.97
749.01	223.82
749.34	223.73
749.67	223.64
750.00	223.50
750.33	223.68
750.65	223.57
750.98	223.00
751.31	222.87
751.64	222.74
751.97	222.79
752.29	222.61
752.62	222.30
752.95	222.21
753.28	222.00
753.60	221.87
753.93	221.92
754.26	221.78
754.59	221.50
754.91	221.34
755.24	221.23
755.57	221.10
755.90	220.93
756.22	220.74
756.55	220.59
756.88	220.40
757.20	220.04
757.53	219.85
757.86	219.80
758.19	219.71
758.51	219.60
758.84	219.30
759.17	219.25
759.49	219.21
759.82	219.27
760.15	219.23
760.47	219.05
760.80	218.77
761.13	218.69
761.45	218.61
761.78	218.52
762.11	218.41
762.43	218.30
762.76	218.20
763.08	218.14
763.41	218.03
763.74	218.01
764.06	217.84
764.39	217.79
764.71	217.70
765.04	217.57
765.37	217.50
765.69	217.44
766.02	217.32
766.34	217.25
766.67	217.05
767.00	217.09
767.32	217.23
767.65	217.41
767.97	217.39
768.30	217.34
768.62	217.30
768.95	217.22
769.27	217.15
769.60	217.12
769.92	217.08
770.25	216.98
770.57	216.83
770.90	216.83
771.22	216.73
771.55	216.70
771.87	216.65
772.20	216.60
772.52	216.90
772.85	217.33
773.17	217.28
773.50	217.20
773.82	217.05
774.15	216.85
774.47	216.67
774.80	216.59
775.12	216.53
775.45	216.43
775.77	216.42
776.09	216.38
776.42	216.40
776.74	216.42
777.07	216.31
777.39	216.23
777.72	216.14
778.04	216.12
778.36	216.01
778.69	215.99
779.01	215.93
779.33	215.61
779.66	215.11
779.98	215.00
780.31	215.00
780.63	215.10
780.95	215.20
781.28	215.11
781.60	215.02
781.92	215.05
782.25	215.03
782.57	214.89
782.89	214.85
783.22	214.78
783.54	214.67
783.86	214.70
784.19	214.67
784.51	214.82
784.83	214.75
785.16	214.74
785.48	214.71
785.80	214.65
786.12	214.57
786.45	214.60
786.77	214.64
787.09	214.57
787.42	214.41
787.74	214.33
788.06	214.25
788.38	214.23
788.71	214.08
789.03	214.02
789.35	214.13
789.67	214.02
789.99	214.03
790.32	213.94
790.64	214.01
790.96	214.33
791.28	214.13
791.61	214.09
791.93	214.06
792.25	214.00
792.57	214.29
792.89	214.24
793.21	214.24
793.54	214.15
793.86	214.07
794.18	214.10
794.50	214.01
794.82	214.05
795.14	214.01
795.47	214.06
795.79	214.08
796.11	213.95
796.43	213.94
796.75	213.83
797.07	213.88
797.39	213.78
797.71	213.47
798.04	213.48
798.36	213.51
798.68	213.45
799.00	213.45
799.32	213.21
799.64	213.19
799.96	213.09
800.28	213.10
800.60	213.13
800.92	213.08
801.24	213.03
801.56	213.01
801.89	212.95
802.21	212.95
802.53	212.82
802.85	212.93
803.17	213.08
803.49	213.05
803.81	212.97
804.13	212.95
804.45	212.90
804.77	212.84
805.09	212.76
805.41	212.73
805.73	212.70
806.05	212.56
806.37	212.64
806.69	212.72
807.01	212.72
807.33	212.75
807.65	212.65
807.97	212.80
808.28	212.75
808.60	212.74
808.92	212.71
809.24	212.93
809.56	212.80
809.88	212.65
810.20	212.58
810.52	212.69
810.84	212.63
811.16	212.56
811.48	212.55
811.80	212.64
812.12	212.69
812.43	212.71
812.75	212.77
813.07	212.66
813.39	212.56
813.71	212.47
814.03	212.38
814.35	212.42
814.67	212.34
814.98	212.32
815.30	212.32
815.62	212.29
815.94	212.07
816.26	212.08
816.58	212.05
816.89	212.13
817.21	211.92
817.53	211.97
817.85	212.05
818.17	211.96
818.48	211.86
818.80	211.91
819.12	211.78
819.44	211.70
819.76	211.68
820.07	211.72
820.39	211.72
820.71	211.68
821.03	211.61
821.34	211.51
821.66	211.55
821.98	211.63
822.30	211.55
822.61	211.78
822.93	211.80
823.25	211.80
823.57	211.78
823.88	211.93
824.20	211.91
824.52	211.95
824.83	211.99
825.15	211.91
825.47	211.81
825.79	211.87
826.10	211.94
826.42	211.87
826.74	211.95
827.05	211.90
827.37	212.02
827.69	212.05
828.00	212.09
828.32	212.03
828.64	211.88
828.95	212.07
829.27	211.98
829.58	211.93
829.90	211.94
830.22	212.03
830.53	211.93
830.85	211.89
831.17	211.75
831.48	211.83
831.80	211.85
832.11	211.88
832.43	211.85
832.75	211.82
833.06	212.09
833.38	211.90
833.69	211.92
834.01	211.89
834.32	211.92
834.64	211.81
834.96	211.84
835.27	211.90
835.59	211.81
835.90	211.80
836.22	211.78
836.53	211.74
836.85	211.68
837.16	212.03
837.48	212.00
837.79	212.10
838.11	212.12
838.42	212.13
838.74	212.20
839.05	212.21
839.37	212.11
839.68	211.89
840.00	211.92
840.31	212.01
840.63	212.02
840.94	211.99
841.26	211.98
841.57	212.03
841.88	212.13
842.20	212.10
842.51	212.00
842.83	212.02
843.14	212.30
843.46	212.21
843.77	212.02
844.08	212.03
844.40	211.96
844.71	211.88
845.03	211.92
845.34	211.88
845.65	211.87
845.97	212.00
846.28	212.03
846.60	212.07
846.91	211.96
847.22	211.92
847.54	211.92
847.85	212.00
848.16	211.96
848.48	211.82
848.79	211.91
849.10	211.94
849.42	211.95
849.73	211.63
850.04	211.69
850.36	211.55
850.67	211.66
850.98	211.68
851.30	211.76
851.61	211.75
851.92	211.70
852.23	211.84
852.55	211.83
852.86	211.84
853.17	211.87
853.49	211.95
853.80	212.06
854.11	212.08
854.42	212.12
854.74	212.00
855.05	212.02
855.36	211.88
855.67	211.90
855.99	211.86
856.30	212.38
856.61	212.33
856.92	212.35
857.23	212.32
857.55	212.25
857.86	212.18
858.17	212.21
858.48	212.19
858.79	212.06
859.11	212.06
859.42	212.02
859.73	211.92
860.04	211.93
860.35	211.82
860.66	211.74
860.98	211.75
861.29	211.82
861.60	211.70
861.91	211.81
862.22	211.72
862.53	211.68
862.84	211.16
863.16	211.26
863.47	211.20
863.78	211.15
864.09	211.23
864.40	211.22
864.71	211.16
865.02	211.22
865.33	211.16
865.64	211.09
865.95	211.05
866.27	211.23
866.58	211.21
866.89	211.23
867.20	211.20
867.51	211.02
867.82	210.97
868.13	211.12
868.44	210.96
868.75	211.01
869.06	211.01
869.37	211.08
869.68	211.00
869.99	211.11
870.30	211.14
870.61	211.10
870.92	211.08
871.23	211.11
871.54	211.09
871.85	211.21
872.16	211.22
872.47	211.23
872.78	211.10
873.09	211.03
873.40	211.03
873.71	211.12
874.02	211.23
874.33	211.23
874.64	211.15
874.95	211.32
875.26	211.33
875.56	211.38
875.87	211.36
876.18	211.31
876.49	211.59
876.80	211.49
877.11	211.42
877.42	211.42
877.73	211.41
878.04	211.34
878.35	211.33
878.66	211.39
878.96	211.39
879.27	211.34
879.58	211.35
879.89	211.28
880.20	211.38
880.51	211.40
880.82	211.55
881.12	211.68
881.43	211.51
881.74	211.45
882.05	211.44
882.36	211.49
882.67	211.51
882.97	211.09
883.28	211.12
883.59	211.11
883.90	211.13
884.21	211.14
884.51	211.14
884.82	211.10
885.13	211.10
885.44	211.12
885.74	211.17
886.05	211.15
886.36	211.16
886.67	211.00
886.98	211.17
887.28	211.09
887.59	211.02
887.90	211.04
888.20	211.04
888.51	211.11
888.82	211.06
889.13	211.10
889.43	211.40
889.74	211.39
890.05	211.36
890.35	211.24
890.66	211.22
890.97	211.24
891.28	211.19
891.58	211.18
891.89	211.16
892.20	211.09
892.50	211.08
892.81	211.05
893.12	211.07
893.42	210.88
893.73	210.87
894.04	210.90
894.34	210.98
894.65	210.92
894.95	210.87
895.26	210.83
895.57	211.03
895.87	210.72
896.18	210.84
896.48	210.90
896.79	210.98
897.10	211.01
897.40	210.95
897.71	210.96
898.01	211.00
898.32	211.04
898.63	211.05
898.93	211.00
899.24	211.07
899.54	211.04
899.85	211.01
900.15	211.00
900.46	210.95
900.76	210.97
901.07	210.96
901.38	210.86
901.68	211.00
901.99	210.81
902.29	210.88
902.60	210.76
902.90	210.75
903.21	210.75
903.51	210.75
903.82	210.89
904.12	210.94
904.43	210.90
904.73	210.84
905.03	210.83
905.34	211.22
905.64	211.21
905.95	211.26
906.25	211.25
906.56	211.21
906.86	211.27
907.17	211.26
907.47	211.34
907.77	211.37
908.08	211.27
908.38	211.28
908.69	211.33
908.99	211.43
909.30	211.44
909.60	211.45
909.90	211.43
910.21	211.36
910.51	211.30
910.81	211.25
911.12	211.34
911.42	211.41
911.73	211.06
912.03	211.04
912.33	211.04
912.64	211.06
912.94	211.08
913.24	210.92
913.55	210.85
913.85	210.79
914.15	210.91
914.46	210.93
914.76	210.81
915.06	210.73
915.37	210.64
915.67	210.63
915.97	210.62
916.27	210.57
916.58	210.57
916.88	210.52
917.18	210.54
917.49	210.71
917.79	210.65
918.09	210.74
918.39	210.81
918.70	210.82
919.00	210.84
919.30	210.94
919.60	211.03
919.91	210.98
920.21	211.05
920.51	210.97
920.81	210.99
921.12	211.13
921.42	211.16
921.72	211.18
922.02	211.24
922.32	211.35
922.63	211.36
922.93	211.51
923.23	211.61
923.53	211.63
923.83	211.40
924.13	211.41
924.44	211.43
924.74	211.50
925.04	211.53
925.34	211.51
925.64	211.42
925.94	211.49
926.24	211.72
926.55	211.63
926.85	211.68
927.15	211.61
927.45	211.51
927.75	211.52
928.05	211.59
928.35	211.59
928.65	211.61
928.95	211.66
929.26	211.52
929.56	211.57
929.86	211.57
930.16	211.58
930.46	211.61
930.76	211.53
931.06	211.36
931.36	211.30
931.66	211.35
931.96	211.36
932.26	211.31
932.56	211.17
932.86	211.26
933.16	211.29
933.46	211.32
933.76	211.35
934.06	211.45
934.36	211.50
934.66	211.41
934.96	211.31
935.26	211.31
935.56	211.48
935.86	211.35
936.16	211.31
936.46	211.30
936.76	211.29
937.06	211.21
937.36	211.20
937.66	211.23
937.96	211.16
938.26	211.09
938.56	211.08
938.86	211.11
939.16	211.15
939.46	211.12
939.76	211.19
940.06	211.24
940.35	211.13
940.65	210.92
940.95	211.06
941.25	211.02
941.55	211.00
941.85	210.92
942.15	211.02
942.45	211.10
942.75	211.10
943.04	211.14
943.34	211.28
943.64	211.29
943.94	211.24
944.24	211.35
944.54	211.42
944.84	211.41
945.13	211.32
945.43	211.30
945.73	211.30
946.03	211.22
946.33	211.14
946.62	211.14
946.92	211.21
947.22	211.14
947.52	211.19
947.82	211.24
948.11	211.15
948.41	211.10
948.71	211.02
949.01	211.05
949.31	210.98
949.60	210.99
949.90	211.07
950.20	211.04
950.50	210.96
950.79	210.95
951.09	211.03
951.39	211.10
951.69	211.08
951.98	211.19
952.28	211.18
952.58	211.19
952.87	211.16
953.17	211.18
953.47	211.20
953.76	211.24
954.06	211.10
954.36	211.01
954.66	210.96
954.95	211.12
955.25	211.11
955.55	211.17
955.84	211.15
956.14	211.17
956.44	211.27
956.73	211.25
957.03	211.29
957.32	211.22
957.62	211.16
957.92	211.24
958.21	211.15
958.51	211.57
958.81	211.61
959.10	211.68
959.40	211.82
959.69	211.82
959.99	211.85
960.29	211.93
960.58	212.02
960.88	212.14
961.17	212.12
961.47	212.18
961.76	212.17
962.06	212.19
962.36	212.15
962.65	212.08
962.95	212.17
963.24	212.13
963.54	212.21
963.83	212.35
964.13	212.35
964.42	212.31
964.72	212.02
965.01	212.06
965.31	212.00
965.60	211.89
965.90	212.07
966.19	211.92
966.49	211.98
966.78	211.90
967.08	211.89
967.37	211.79
967.67	211.73
967.96	211.70
968.26	211.65
968.55	211.76
968.85	211.78
969.14	211.66
969.43	211.74
969.73	211.66
970.02	211.49
970.32	211.41
970.61	211.34
970.91	211.19
971.20	211.11
971.49	211.14
971.79	211.21
972.08	211.01
972.38	211.07
972.67	210.96
972.96	211.07
973.26	211.04
973.55	211.13
973.85	211.07
974.14	211.10
974.43	211.15
974.73	211.09
975.02	211.04
975.31	211.10
975.61	210.97
975.90	210.96
976.19	210.94
976.49	211.02
976.78	211.10
977.07	211.14
977.37	211.16
977.66	211.18
977.95	211.07
978.24	211.06
978.54	211.16
978.83	211.16
979.12	211.17
979.42	211.20
979.71	211.17
980.00	211.16
980.29	211.20
980.59	211.11
980.88	211.19
981.17	211.23
981.46	211.24
981.76	211.26
982.05	211.32
982.34	211.37
982.63	211.35
982.93	211.30
983.22	211.34
983.51	211.35
983.80	211.38
984.09	211.44
984.39	211.42
984.68	211.33
984.97	211.37
985.26	211.32
985.55	211.26
985.85	211.15
986.14	211.30
986.43	211.29
986.72	211.30
987.01	211.14
987.30	211.08
987.59	211.07
987.89	211.08
988.18	211.03
988.47	211.02
988.76	210.97
989.05	210.95
989.34	210.88
989.63	210.98
989.92	210.85
990.22	210.79
990.51	210.72
990.80	210.75
991.09	210.74
991.38	210.74
991.67	210.74
991.96	210.72
992.25	210.60
992.54	210.51
992.83	210.53
993.12	210.56
993.41	210.66
993.70	210.76
993.99	210.84
994.28	210.84
994.58	210.95
994.87	210.87
995.16	210.88
995.45	210.90
995.74	210.77
996.03	210.92
996.32	210.98
996.61	211.10
996.90	211.03
997.19	211.04
997.48	211.06
997.77	211.04
998.06	211.10
998.34	211.09
998.63	211.08
998.92	211.02
999.21	211.06
999.50	210.97
999.79	210.81
1000.08	210.73
1000.37	210.74
1000.66	210.65
1000.95	210.81
1001.24	210.84
1001.53	210.87
1001.82	210.91
1002.11	210.78
1002.40	210.76
1002.68	210.83
1002.97	211.07
1003.26	211.02
1003.55	210.95
1003.84	210.99
1004.13	211.03
1004.42	211.01
1004.71	211.03
1004.99	210.99
1005.28	211.02
1005.57	211.07
1005.86	211.00
1006.15	211.06
1006.44	210.96
1006.72	210.97
1007.01	210.78
1007.30	210.81
1007.59	210.75
1007.88	210.66
1008.17	210.70
1008.45	210.63
1008.74	210.46
1009.03	210.36
1009.32	210.34
1009.60	210.37
1009.89	210.31
1010.18	210.23
1010.47	210.18
1010.76	210.20
1011.04	210.22
1011.33	210.23
1011.62	210.23
1011.91	210.33
1012.19	210.30
1012.48	210.34
1012.77	210.35
1013.05	210.53
1013.34	210.51
1013.63	210.49
1013.92	210.55
1014.20	210.53
1014.49	210.54
1014.78	210.55
1015.06	210.38
1015.35	210.37
1015.64	210.32
1015.92	210.34
1016.21	210.39
1016.50	210.44
1016.78	210.46
1017.07	210.55
1017.36	210.49
1017.64	210.43
1017.93	210.37
1018.22	210.34
1018.50	210.34
1018.79	210.32
1019.08	210.16
1019.36	210.17
1019.65	210.11
1019.93	210.17
1020.22	210.21
1020.51	210.37
1020.79	210.35
1021.08	209.85
1021.36	210.10
1021.65	210.55
1021.94	209.10
1022.22	211.20
1022.51	208.90
1022.79	211.90
1023.08	211.00
1023.36	213.25
1023.65	209.15
>>>>>End Processed Spectral Data<<<<<
