SpectraSuite Data File
++++++++++++++++++++++++++++++++++++
Date: Mon Feb 25 17:08:33 EST 2013
User: group
Dark Spectrum Present: No
Reference Spectrum Present: No
Number of Sampled Component Spectra: 1
Spectrometers: USB2E7196
Integration Time (usec): 104000 (USB2E7196)
Spectra Averaged: 20 (USB2E7196)
Boxcar Smoothing: 10 (USB2E7196)
Correct for Electrical Dark: No (USB2E7196)
Strobe/Lamp Enabled: No (USB2E7196)
Correct for Detector Non-linearity: No (USB2E7196)
Correct for Stray Light: No (USB2E7196)
Number of Pixels in Processed Spectrum: 2048
>>>>>Begin Processed Spectral Data<<<<<
339.09	0.00
339.48	198.15
339.86	199.05
340.24	200.30
340.63	202.45
341.01	208.70
341.39	204.90
341.78	207.35
342.16	208.75
342.54	208.85
342.93	197.86
343.31	207.86
343.69	208.40
344.07	208.89
344.46	209.35
344.84	209.67
345.22	209.72
345.60	209.94
345.99	210.11
346.37	210.14
346.75	210.19
347.13	210.19
347.52	210.22
347.90	210.39
348.28	210.39
348.66	210.38
349.05	210.33
349.43	210.34
349.81	210.35
350.19	210.40
350.57	210.40
350.96	210.45
351.34	210.52
351.72	210.63
352.10	210.74
352.48	210.80
352.87	210.87
353.25	210.97
353.63	211.06
354.01	211.12
354.39	211.25
354.77	211.29
355.15	211.53
355.54	211.56
355.92	211.49
356.30	211.57
356.68	211.83
357.06	211.91
357.44	211.98
357.82	212.08
358.20	212.22
358.58	212.30
358.97	212.37
359.35	212.54
359.73	212.68
360.11	212.72
360.49	212.77
360.87	212.82
361.25	212.82
361.63	212.94
362.01	212.98
362.39	212.98
362.77	213.06
363.15	213.04
363.53	213.16
363.91	213.30
364.29	213.38
364.67	213.12
365.05	213.06
365.43	213.06
365.81	213.16
366.19	213.29
366.57	213.47
366.95	213.49
367.33	213.42
367.71	213.40
368.09	213.50
368.47	213.48
368.85	213.50
369.23	213.67
369.61	213.61
369.99	213.70
370.37	213.79
370.75	213.98
371.13	213.92
371.51	213.76
371.89	213.76
372.27	213.73
372.65	213.70
373.03	213.73
373.41	213.69
373.78	213.62
374.16	213.33
374.54	213.16
374.92	213.14
375.30	213.05
375.68	212.91
376.06	212.83
376.44	212.73
376.82	212.75
377.19	212.59
377.57	212.52
377.95	212.35
378.33	212.25
378.71	211.96
379.09	211.96
379.47	212.07
379.84	211.96
380.22	211.90
380.60	211.79
380.98	211.71
381.36	211.63
381.73	211.45
382.11	211.45
382.49	211.39
382.87	211.29
383.25	211.22
383.62	211.52
384.00	211.42
384.38	211.42
384.76	211.42
385.13	211.56
385.51	211.60
385.89	211.52
386.27	211.46
386.64	211.43
387.02	211.33
387.40	211.21
387.78	211.19
388.15	211.14
388.53	211.08
388.91	211.05
389.29	210.96
389.66	211.01
390.04	210.94
390.42	211.01
390.79	211.01
391.17	210.97
391.55	210.57
391.92	210.58
392.30	210.63
392.68	210.57
393.05	210.51
393.43	210.42
393.81	210.46
394.18	210.40
394.56	210.41
394.94	210.50
395.31	210.43
395.69	210.48
396.06	210.60
396.44	210.65
396.82	210.64
397.19	210.87
397.57	210.93
397.95	211.06
398.32	210.91
398.70	210.93
399.07	211.03
399.45	211.06
399.82	211.06
400.20	211.02
400.58	210.97
400.95	210.86
401.33	210.94
401.70	211.15
402.08	211.22
402.45	211.25
402.83	211.26
403.20	211.41
403.58	211.39
403.95	211.40
404.33	211.49
404.71	211.56
405.08	211.78
405.46	211.78
405.83	211.85
406.21	212.01
406.58	212.11
406.96	212.21
407.33	212.39
407.70	212.54
408.08	212.94
408.45	213.20
408.83	213.37
409.20	213.54
409.58	213.55
409.95	213.80
410.33	214.02
410.70	214.20
411.08	214.38
411.45	214.60
411.82	214.85
412.20	215.17
412.57	215.65
412.95	215.66
413.32	216.11
413.69	216.46
414.07	216.79
414.44	217.20
414.82	217.73
415.19	218.35
415.56	218.82
415.94	219.17
416.31	219.78
416.68	220.38
417.06	221.06
417.43	221.89
417.81	222.61
418.18	223.48
418.55	224.36
418.93	225.28
419.30	226.26
419.67	227.20
420.04	228.31
420.42	229.35
420.79	230.83
421.16	232.06
421.54	233.52
421.91	234.96
422.28	236.30
422.66	237.71
423.03	239.32
423.40	240.80
423.77	242.44
424.15	244.08
424.52	245.84
424.89	247.79
425.26	249.55
425.64	251.40
426.01	253.26
426.38	255.30
426.75	257.53
427.13	259.67
427.50	261.96
427.87	264.25
428.24	266.58
428.61	268.65
428.99	271.25
429.36	273.80
429.73	276.43
430.10	279.16
430.47	281.93
430.85	284.45
431.22	287.51
431.59	290.80
431.96	293.72
432.33	297.04
432.70	300.27
433.08	303.98
433.45	307.46
433.82	311.09
434.19	315.05
434.56	318.86
434.93	322.53
435.30	326.18
435.68	330.27
436.05	334.26
436.42	338.32
436.79	341.98
437.16	345.95
437.53	350.19
437.90	354.27
438.27	358.35
438.64	362.64
439.01	366.67
439.38	369.99
439.75	373.45
440.13	377.30
440.50	380.94
440.87	383.89
441.24	386.96
441.61	390.33
441.98	392.92
442.35	395.79
442.72	398.76
443.09	401.71
443.46	403.48
443.83	404.75
444.20	405.69
444.57	407.17
444.94	408.04
445.31	408.81
445.68	409.95
446.05	410.29
446.42	410.07
446.79	409.72
447.16	409.33
447.53	409.17
447.90	407.87
448.27	406.43
448.64	404.56
449.01	403.22
449.37	400.66
449.74	398.05
450.11	395.26
450.48	391.92
450.85	388.55
451.22	385.58
451.59	382.81
451.96	380.27
452.33	376.72
452.70	373.42
453.07	369.44
453.43	365.20
453.80	361.43
454.17	357.71
454.54	354.18
454.91	350.44
455.28	346.61
455.65	343.18
456.02	340.28
456.38	337.35
456.75	333.68
457.12	330.62
457.49	327.64
457.86	324.56
458.23	322.28
458.59	319.49
458.96	316.68
459.33	314.14
459.70	311.71
460.07	309.77
460.43	307.45
460.80	305.42
461.17	303.64
461.54	301.73
461.91	299.84
462.27	297.91
462.64	296.29
463.01	294.66
463.38	292.99
463.74	290.75
464.11	289.22
464.48	288.00
464.85	286.51
465.21	285.44
465.58	284.28
465.95	282.85
466.32	281.76
466.68	280.64
467.05	279.56
467.42	278.30
467.78	276.98
468.15	275.79
468.52	275.00
468.88	273.74
469.25	272.61
469.62	271.95
469.98	271.06
470.35	270.19
470.72	269.29
471.08	268.30
471.45	267.68
471.82	267.00
472.18	266.24
472.55	265.79
472.92	265.11
473.28	264.45
473.65	263.77
474.02	263.15
474.38	262.85
474.75	262.53
475.11	262.10
475.48	261.79
475.85	261.54
476.21	261.10
476.58	260.88
476.94	260.72
477.31	260.32
477.67	260.11
478.04	260.03
478.41	260.03
478.77	260.35
479.14	260.05
479.50	259.92
479.87	259.87
480.23	259.74
480.60	259.59
480.96	259.49
481.33	259.64
481.69	259.76
482.06	259.73
482.42	259.75
482.79	259.89
483.15	260.03
483.52	260.28
483.88	260.42
484.25	260.60
484.61	260.90
484.98	261.06
485.34	261.44
485.71	261.81
486.07	262.05
486.44	262.14
486.80	262.59
487.17	263.03
487.53	263.60
487.90	264.19
488.26	264.94
488.62	265.69
488.99	266.32
489.35	266.88
489.72	267.54
490.08	268.26
490.44	269.00
490.81	269.78
491.17	270.58
491.54	271.57
491.90	272.55
492.26	273.55
492.63	274.69
492.99	275.69
493.36	276.81
493.72	278.10
494.08	279.25
494.45	280.59
494.81	281.99
495.17	283.29
495.54	284.66
495.90	286.08
496.26	287.56
496.63	289.04
496.99	290.64
497.35	292.32
497.72	294.00
498.08	295.62
498.44	297.42
498.80	299.25
499.17	301.06
499.53	302.97
499.89	304.97
500.26	306.99
500.62	309.01
500.98	311.21
501.34	313.29
501.71	315.64
502.07	317.91
502.43	320.12
502.79	322.40
503.16	324.76
503.52	327.02
503.88	329.34
504.24	331.88
504.60	334.52
504.97	337.17
505.33	339.72
505.69	342.79
506.05	345.47
506.41	348.23
506.78	351.10
507.14	353.98
507.50	356.84
507.86	359.82
508.22	362.90
508.59	365.84
508.95	368.93
509.31	372.07
509.67	375.26
510.03	378.53
510.39	381.80
510.75	385.25
511.12	388.73
511.48	392.16
511.84	395.50
512.20	398.86
512.56	402.42
512.92	406.15
513.28	409.61
513.64	413.32
514.00	417.06
514.37	420.69
514.73	424.39
515.09	428.18
515.45	431.93
515.81	435.62
516.17	439.43
516.53	443.36
516.89	447.11
517.25	451.03
517.61	454.96
517.97	458.94
518.33	462.75
518.69	466.88
519.05	471.04
519.41	475.28
519.77	479.71
520.13	483.80
520.49	487.70
520.85	491.89
521.21	496.25
521.57	500.51
521.93	504.70
522.29	509.19
522.65	513.45
523.01	517.83
523.37	522.19
523.73	526.58
524.09	530.98
524.45	535.50
524.81	539.95
525.17	544.50
525.53	548.98
525.89	553.74
526.25	558.29
526.61	562.73
526.97	567.26
527.33	571.80
527.68	576.73
528.04	581.51
528.40	586.10
528.76	590.68
529.12	595.45
529.48	600.49
529.84	605.14
530.20	609.99
530.56	614.79
530.91	619.71
531.27	624.68
531.63	629.56
531.99	634.30
532.35	638.94
532.71	643.66
533.07	648.48
533.42	653.40
533.78	658.16
534.14	663.05
534.50	667.65
534.86	672.40
535.21	676.69
535.57	681.50
535.93	686.00
536.29	690.75
536.65	695.41
537.00	699.59
537.36	703.84
537.72	708.09
538.08	712.47
538.44	716.89
538.79	721.06
539.15	725.33
539.51	729.57
539.87	734.16
540.22	738.41
540.58	742.85
540.94	746.98
541.29	750.95
541.65	754.83
542.01	758.75
542.37	762.42
542.72	766.30
543.08	769.92
543.44	774.05
543.79	777.39
544.15	780.87
544.51	784.63
544.87	788.51
545.22	792.05
545.58	795.43
545.94	798.63
546.29	801.93
546.65	804.95
547.01	808.06
547.36	811.04
547.72	814.05
548.07	816.74
548.43	819.11
548.79	821.80
549.14	824.37
549.50	827.13
549.86	829.54
550.21	831.93
550.57	834.52
550.92	836.47
551.28	838.80
551.64	841.07
551.99	843.42
552.35	845.35
552.70	847.37
553.06	849.36
553.41	851.47
553.77	853.27
554.13	855.08
554.48	856.92
554.84	858.78
555.19	860.43
555.55	862.31
555.90	863.87
556.26	865.29
556.61	866.71
556.97	867.79
557.32	869.22
557.68	870.41
558.03	871.43
558.39	872.56
558.74	873.75
559.10	874.82
559.45	875.89
559.81	877.03
560.16	878.26
560.52	879.29
560.87	880.15
561.23	880.83
561.58	882.05
561.94	882.50
562.29	882.80
562.64	883.47
563.00	883.87
563.35	884.83
563.71	885.72
564.06	886.59
564.42	887.46
564.77	888.26
565.12	889.10
565.48	889.86
565.83	890.67
566.19	891.25
566.54	891.52
566.89	891.65
567.25	892.10
567.60	892.37
567.96	892.76
568.31	893.07
568.66	893.41
569.02	892.99
569.37	892.80
569.72	892.80
570.08	892.53
570.43	892.05
570.78	891.45
571.14	890.72
571.49	889.86
571.84	889.24
572.20	888.33
572.55	887.71
572.90	886.55
573.26	885.36
573.61	884.35
573.96	883.33
574.31	882.29
574.67	880.89
575.02	879.27
575.37	877.87
575.72	876.25
576.08	874.96
576.43	873.65
576.78	872.57
577.13	871.31
577.49	870.03
577.84	868.79
578.19	867.80
578.54	866.98
578.90	866.13
579.25	864.72
579.60	863.29
579.95	861.45
580.30	860.52
580.66	859.53
581.01	858.15
581.36	856.57
581.71	855.01
582.06	853.85
582.42	852.63
582.77	851.04
583.12	849.71
583.47	848.29
583.82	847.06
584.17	845.68
584.53	844.38
584.88	842.88
585.23	841.58
585.58	840.01
585.93	838.27
586.28	836.82
586.63	835.43
586.98	834.25
587.34	833.43
587.69	831.76
588.04	830.20
588.39	828.74
588.74	827.26
589.09	825.86
589.44	823.85
589.79	822.29
590.14	820.80
590.49	819.18
590.84	817.55
591.19	816.07
591.54	814.51
591.89	812.58
592.25	811.15
592.60	809.20
592.95	807.14
593.30	805.13
593.65	803.09
594.00	801.04
594.35	799.94
594.70	797.67
595.05	795.90
595.40	793.98
595.75	792.05
596.10	790.42
596.45	788.70
596.80	787.28
597.15	785.78
597.50	783.95
597.85	782.30
598.19	780.52
598.54	778.64
598.89	777.23
599.24	775.75
599.59	773.93
599.94	772.47
600.29	770.90
600.64	769.29
600.99	767.65
601.34	766.25
601.69	763.58
602.04	761.78
602.39	760.08
602.74	758.55
603.08	757.17
603.43	755.95
603.78	754.30
604.13	752.61
604.48	750.77
604.83	749.50
605.18	748.21
605.53	746.53
605.87	744.91
606.22	743.03
606.57	741.12
606.92	739.26
607.27	737.43
607.62	735.82
607.96	734.33
608.31	732.73
608.66	730.83
609.01	729.05
609.36	727.26
609.70	725.31
610.05	723.31
610.40	721.17
610.75	718.85
611.10	716.95
611.44	714.55
611.79	712.20
612.14	709.64
612.49	706.99
612.83	704.62
613.18	702.21
613.53	699.87
613.88	697.40
614.22	695.10
614.57	692.84
614.92	690.31
615.27	687.76
615.61	685.11
615.96	682.86
616.31	680.67
616.65	678.67
617.00	676.32
617.35	673.90
617.70	671.44
618.04	668.80
618.39	666.06
618.74	663.88
619.08	661.53
619.43	659.07
619.78	656.67
620.12	654.46
620.47	652.08
620.82	649.53
621.16	647.27
621.51	645.02
621.85	642.50
622.20	639.95
622.55	637.45
622.89	635.07
623.24	632.61
623.59	629.97
623.93	627.28
624.28	624.80
624.62	622.63
624.97	620.38
625.32	618.02
625.66	615.78
626.01	613.32
626.35	611.16
626.70	608.96
627.04	606.93
627.39	604.60
627.73	602.46
628.08	600.28
628.43	597.68
628.77	595.22
629.12	592.81
629.46	590.96
629.81	588.63
630.15	586.41
630.50	583.90
630.84	581.48
631.19	579.17
631.53	576.85
631.88	574.08
632.22	571.51
632.57	569.41
632.91	567.10
633.26	564.98
633.60	562.66
633.95	560.37
634.29	557.77
634.64	555.72
634.98	553.21
635.32	551.11
635.67	549.38
636.01	547.27
636.36	545.10
636.70	542.76
637.05	540.77
637.39	538.61
637.73	536.80
638.08	535.05
638.42	533.16
638.77	531.23
639.11	529.26
639.45	527.22
639.80	524.93
640.14	522.80
640.49	520.55
640.83	518.34
641.17	516.27
641.52	514.13
641.86	511.70
642.20	509.76
642.55	507.30
642.89	504.91
643.23	502.57
643.58	500.79
643.92	498.53
644.26	496.27
644.61	494.23
644.95	491.94
645.29	489.72
645.64	487.38
645.98	485.22
646.32	483.12
646.66	480.98
647.01	478.93
647.35	476.94
647.69	474.80
648.04	472.74
648.38	470.65
648.72	468.53
649.06	466.52
649.41	464.31
649.75	462.24
650.09	460.22
650.43	458.34
650.78	455.95
651.12	453.83
651.46	451.77
651.80	449.68
652.14	447.64
652.49	445.63
652.83	443.66
653.17	441.51
653.51	439.42
653.85	437.58
654.20	435.70
654.54	433.54
654.88	431.58
655.22	429.66
655.56	427.65
655.90	425.85
656.25	423.88
656.59	421.93
656.93	420.17
657.27	418.48
657.61	416.40
657.95	414.65
658.29	412.90
658.64	411.19
658.98	409.19
659.32	407.30
659.66	405.44
660.00	403.64
660.34	401.73
660.68	399.90
661.02	397.99
661.36	396.17
661.70	394.51
662.05	392.96
662.39	391.36
662.73	389.80
663.07	388.32
663.41	386.80
663.75	385.23
664.09	383.61
664.43	381.80
664.77	380.25
665.11	378.65
665.45	377.07
665.79	375.50
666.13	373.95
666.47	372.55
666.81	371.04
667.15	369.42
667.49	368.22
667.83	366.96
668.17	365.53
668.51	364.11
668.85	362.79
669.19	361.51
669.53	359.97
669.87	358.44
670.21	357.03
670.55	355.62
670.89	354.47
671.23	353.14
671.57	351.83
671.91	350.59
672.25	349.16
672.58	347.97
672.92	346.65
673.26	345.53
673.60	344.28
673.94	343.00
674.28	341.79
674.62	340.52
674.96	339.27
675.30	338.17
675.64	336.99
675.97	335.81
676.31	334.44
676.65	333.35
676.99	332.40
677.33	331.10
677.67	329.99
678.01	328.63
678.34	327.56
678.68	326.49
679.02	325.40
679.36	324.42
679.70	323.22
680.04	322.16
680.37	321.03
680.71	319.99
681.05	319.05
681.39	318.06
681.73	316.98
682.06	316.04
682.40	314.98
682.74	313.97
683.08	312.97
683.42	311.93
683.75	310.97
684.09	309.88
684.43	308.88
684.77	307.81
685.10	306.92
685.44	305.81
685.78	304.87
686.12	303.93
686.45	302.92
686.79	302.03
687.13	301.16
687.46	300.25
687.80	299.39
688.14	298.40
688.48	297.58
688.81	296.66
689.15	295.74
689.49	294.83
689.82	294.04
690.16	292.92
690.50	292.07
690.83	291.10
691.17	290.18
691.51	289.34
691.84	288.56
692.18	287.76
692.52	287.06
692.85	286.29
693.19	285.63
693.52	284.90
693.86	284.02
694.20	283.26
694.53	282.57
694.87	281.68
695.21	280.86
695.54	280.00
695.88	279.19
696.21	278.30
696.55	277.57
696.88	276.72
697.22	276.12
697.56	275.52
697.89	274.86
698.23	274.19
698.56	273.52
698.90	272.90
699.23	272.18
699.57	271.56
699.90	270.85
700.24	270.03
700.58	269.37
700.91	268.85
701.25	268.36
701.58	267.76
701.92	267.12
702.25	266.58
702.59	265.92
702.92	265.40
703.26	264.88
703.59	264.31
703.93	264.05
704.26	263.50
704.60	262.96
704.93	262.33
705.26	261.74
705.60	261.24
705.93	260.53
706.27	260.18
706.60	259.65
706.94	259.24
707.27	258.69
707.61	258.12
707.94	257.54
708.27	256.82
708.61	256.18
708.94	255.76
709.28	255.24
709.61	254.83
709.94	254.38
710.28	253.96
710.61	253.55
710.95	252.77
711.28	252.55
711.61	252.00
711.95	251.67
712.28	251.22
712.61	250.75
712.95	250.55
713.28	250.12
713.61	249.67
713.95	249.17
714.28	248.83
714.61	248.36
714.95	247.96
715.28	247.51
715.61	247.13
715.95	246.80
716.28	246.37
716.61	246.05
716.95	245.61
717.28	245.23
717.61	244.83
717.94	244.53
718.28	243.83
718.61	243.53
718.94	243.15
719.27	242.80
719.61	242.48
719.94	242.12
720.27	241.68
720.60	241.33
720.94	241.00
721.27	240.72
721.60	240.53
721.93	240.25
722.27	240.06
722.60	239.79
722.93	239.35
723.26	239.14
723.59	238.83
723.93	238.58
724.26	238.31
724.59	238.05
724.92	237.73
725.25	237.68
725.59	237.39
725.92	237.10
726.25	236.83
726.58	236.56
726.91	236.22
727.24	235.97
727.57	235.73
727.91	235.41
728.24	235.14
728.57	234.87
728.90	234.64
729.23	234.42
729.56	234.40
729.89	234.24
730.22	233.95
730.55	233.72
730.89	233.47
731.22	233.24
731.55	232.98
731.88	232.79
732.21	232.48
732.54	232.27
732.87	232.09
733.20	231.94
733.53	231.74
733.86	231.58
734.19	231.34
734.52	231.20
734.85	231.29
735.18	231.05
735.51	230.99
735.84	230.76
736.17	230.64
736.50	230.17
736.83	230.32
737.16	230.15
737.49	229.98
737.82	229.72
738.15	229.60
738.48	229.42
738.81	229.20
739.14	228.96
739.47	228.75
739.80	228.53
740.13	228.36
740.46	228.09
740.79	227.87
741.12	227.70
741.45	227.47
741.78	227.08
742.11	226.96
742.44	226.68
742.77	226.63
743.10	226.37
743.43	226.30
743.75	225.82
744.08	226.14
744.41	225.93
744.74	225.83
745.07	225.58
745.40	225.55
745.73	225.58
746.06	225.49
746.39	225.38
746.71	225.20
747.04	225.05
747.37	224.92
747.70	224.82
748.03	224.79
748.36	224.68
748.68	224.61
749.01	224.39
749.34	224.30
749.67	224.12
750.00	223.94
750.33	224.07
750.65	223.99
750.98	223.37
751.31	223.23
751.64	223.13
751.97	223.26
752.29	223.05
752.62	222.76
752.95	222.62
753.28	222.41
753.60	222.32
753.93	222.22
754.26	222.16
754.59	222.00
754.91	221.75
755.24	221.64
755.57	221.44
755.90	221.36
756.22	221.19
756.55	221.01
756.88	220.87
757.20	220.46
757.53	220.26
757.86	220.19
758.19	220.20
758.51	220.09
758.84	219.74
759.17	219.67
759.49	219.55
759.82	219.58
760.15	219.55
760.47	219.40
760.80	219.22
761.13	219.18
761.45	219.08
761.78	218.98
762.11	218.84
762.43	218.76
762.76	218.63
763.08	218.52
763.41	218.48
763.74	218.45
764.06	218.38
764.39	218.32
764.71	218.19
765.04	217.94
765.37	217.85
765.69	217.79
766.02	217.64
766.34	217.57
766.67	217.39
767.00	217.45
767.32	217.60
767.65	217.82
767.97	217.79
768.30	217.67
768.62	217.66
768.95	217.58
769.27	217.50
769.60	217.51
769.92	217.50
770.25	217.45
770.57	217.35
770.90	217.28
771.22	217.09
771.55	217.06
771.87	217.11
772.20	217.04
772.52	217.26
772.85	217.64
773.17	217.61
773.50	217.52
773.82	217.34
774.15	217.10
774.47	216.77
774.80	216.66
775.12	216.64
775.45	216.56
775.77	216.53
776.09	216.53
776.42	216.46
776.74	216.47
777.07	216.39
777.39	216.34
777.72	216.25
778.04	216.41
778.36	216.33
778.69	216.34
779.01	216.31
779.33	216.00
779.66	215.55
779.98	215.46
780.31	215.45
780.63	215.55
780.95	215.59
781.28	215.50
781.60	215.40
781.92	215.33
782.25	215.22
782.57	215.11
782.89	215.00
783.22	214.98
783.54	214.89
783.86	214.92
784.19	214.84
784.51	215.04
784.83	214.90
785.16	214.90
785.48	214.82
785.80	214.80
786.12	214.74
786.45	214.70
786.77	214.72
787.09	214.62
787.42	214.48
787.74	214.43
788.06	214.45
788.38	214.41
788.71	214.40
789.03	214.44
789.35	214.49
789.67	214.47
789.99	214.45
790.32	214.30
790.64	214.28
790.96	214.60
791.28	214.40
791.61	214.31
791.93	214.30
792.25	214.28
792.57	214.49
792.89	214.43
793.21	214.39
793.54	214.31
793.86	214.26
794.18	214.26
794.50	214.21
794.82	214.15
795.14	214.17
795.47	214.19
795.79	214.10
796.11	213.98
796.43	213.92
796.75	213.84
797.07	213.90
797.39	213.83
797.71	213.46
798.04	213.43
798.36	213.46
798.68	213.40
799.00	213.30
799.32	213.09
799.64	213.17
799.96	213.18
800.28	213.24
800.60	213.20
800.92	213.19
801.24	213.10
801.56	213.18
801.89	213.13
802.21	213.16
802.53	213.18
802.85	213.29
803.17	213.39
803.49	213.39
803.81	213.34
804.13	213.28
804.45	213.30
804.77	213.30
805.09	213.21
805.41	213.10
805.73	213.12
806.05	213.01
806.37	212.92
806.69	212.86
807.01	212.83
807.33	212.91
807.65	212.78
807.97	212.88
808.28	212.80
808.60	212.78
808.92	212.65
809.24	212.80
809.56	212.68
809.88	212.58
810.20	212.57
810.52	212.62
810.84	212.62
811.16	212.61
811.48	212.59
811.80	212.75
812.12	212.75
812.43	212.80
812.75	212.82
813.07	212.74
813.39	212.76
813.71	212.73
814.03	212.66
814.35	212.72
814.67	212.62
814.98	212.55
815.30	212.53
815.62	212.51
815.94	212.25
816.26	212.33
816.58	212.28
816.89	212.33
817.21	212.17
817.53	212.21
817.85	212.24
818.17	212.21
818.48	212.14
818.80	212.25
819.12	212.17
819.44	212.10
819.76	212.09
820.07	212.15
820.39	212.13
820.71	212.16
821.03	212.12
821.34	212.14
821.66	212.23
821.98	212.22
822.30	212.24
822.61	212.59
822.93	212.54
823.25	212.50
823.57	212.45
823.88	212.63
824.20	212.55
824.52	212.48
824.83	212.42
825.15	212.39
825.47	212.44
825.79	212.48
826.10	212.49
826.42	212.48
826.74	212.50
827.05	212.44
827.37	212.45
827.69	212.45
828.00	212.50
828.32	212.50
828.64	212.49
828.95	212.61
829.27	212.39
829.58	212.41
829.90	212.48
830.22	212.50
830.53	212.35
830.85	212.31
831.17	212.24
831.48	212.30
831.80	212.34
832.11	212.25
832.43	212.15
832.75	212.11
833.06	212.36
833.38	212.26
833.69	212.27
834.01	212.31
834.32	212.25
834.64	212.13
834.96	212.12
835.27	212.12
835.59	212.04
835.90	212.03
836.22	211.98
836.53	211.95
836.85	211.83
837.16	212.15
837.48	212.18
837.79	212.34
838.11	212.30
838.42	212.23
838.74	212.32
839.05	212.32
839.37	212.31
839.68	212.05
840.00	212.00
840.31	212.02
840.63	211.88
840.94	211.86
841.26	211.86
841.57	211.83
841.88	211.88
842.20	211.85
842.51	211.79
842.83	211.79
843.14	212.14
843.46	212.26
843.77	212.09
844.08	212.12
844.40	212.03
844.71	212.04
845.03	212.01
845.34	211.92
845.65	211.91
845.97	211.95
846.28	212.00
846.60	212.02
846.91	211.97
847.22	212.05
847.54	212.13
847.85	212.18
848.16	212.21
848.48	212.14
848.79	212.25
849.10	212.27
849.42	212.26
849.73	211.81
850.04	211.76
850.36	211.67
850.67	211.69
850.98	211.66
851.30	211.69
851.61	211.77
851.92	211.79
852.23	211.91
852.55	211.85
852.86	211.80
853.17	211.83
853.49	211.89
853.80	211.94
854.11	211.98
854.42	211.98
854.74	211.86
855.05	211.87
855.36	211.69
855.67	211.73
855.99	211.73
856.30	212.23
856.61	212.23
856.92	212.17
857.23	212.15
857.55	212.12
857.86	212.13
858.17	212.07
858.48	212.01
858.79	211.92
859.11	211.99
859.42	211.97
859.73	211.92
860.04	211.98
860.35	211.83
860.66	211.71
860.98	211.67
861.29	211.71
861.60	211.63
861.91	211.72
862.22	211.63
862.53	211.62
862.84	211.15
863.16	211.22
863.47	211.13
863.78	211.19
864.09	211.22
864.40	211.19
864.71	211.14
865.02	211.15
865.33	211.11
865.64	211.07
865.95	211.15
866.27	211.39
866.58	211.39
866.89	211.49
867.20	211.45
867.51	211.45
867.82	211.47
868.13	211.60
868.44	211.48
868.75	211.61
869.06	211.63
869.37	211.62
869.68	211.53
869.99	211.69
870.30	211.65
870.61	211.66
870.92	211.63
871.23	211.70
871.54	211.81
871.85	211.83
872.16	211.85
872.47	211.81
872.78	211.54
873.09	211.50
873.40	211.45
873.71	211.50
874.02	211.42
874.33	211.38
874.64	211.27
874.95	211.36
875.26	211.28
875.56	211.26
875.87	211.34
876.18	211.30
876.49	211.60
876.80	211.50
877.11	211.44
877.42	211.37
877.73	211.35
878.04	211.22
878.35	211.31
878.66	211.35
878.96	211.33
879.27	211.41
879.58	211.32
879.89	211.33
880.20	211.43
880.51	211.50
880.82	211.52
881.12	211.58
881.43	211.55
881.74	211.43
882.05	211.43
882.36	211.37
882.67	211.44
882.97	211.03
883.28	211.06
883.59	211.08
883.90	211.24
884.21	211.32
884.51	211.28
884.82	211.14
885.13	211.12
885.44	211.06
885.74	211.05
886.05	211.01
886.36	211.00
886.67	210.79
886.98	210.87
887.28	210.95
887.59	210.92
887.90	210.86
888.20	210.87
888.51	210.93
888.82	210.88
889.13	210.91
889.43	211.22
889.74	211.20
890.05	211.13
890.35	210.97
890.66	210.90
890.97	210.90
891.28	210.96
891.58	210.94
891.89	210.95
892.20	210.87
892.50	210.87
892.81	210.82
893.12	210.86
893.42	210.79
893.73	210.74
894.04	210.77
894.34	210.77
894.65	210.83
894.95	210.75
895.26	210.75
895.57	210.90
895.87	210.56
896.18	210.63
896.48	210.68
896.79	210.71
897.10	210.70
897.40	210.74
897.71	210.74
898.01	210.73
898.32	210.77
898.63	210.77
898.93	210.86
899.24	210.93
899.54	210.97
899.85	210.89
900.15	210.85
900.46	210.82
900.76	210.86
901.07	210.82
901.38	210.86
901.68	210.95
901.99	210.73
902.29	210.74
902.60	210.68
902.90	210.66
903.21	210.72
903.51	210.71
903.82	210.81
904.12	210.75
904.43	210.71
904.73	210.65
905.03	210.73
905.34	211.03
905.64	210.98
905.95	211.00
906.25	211.01
906.56	210.98
906.86	211.00
907.17	210.99
907.47	211.01
907.77	210.92
908.08	210.84
908.38	210.87
908.69	210.91
908.99	210.98
909.30	211.02
909.60	210.99
909.90	211.00
910.21	210.86
910.51	210.90
910.81	210.96
911.12	211.03
911.42	211.05
911.73	210.70
912.03	210.76
912.33	210.79
912.64	210.82
912.94	210.86
913.24	210.81
913.55	210.82
913.85	210.85
914.15	210.95
914.46	211.03
914.76	211.05
915.06	211.02
915.37	210.99
915.67	210.99
915.97	211.02
916.27	210.98
916.58	210.98
916.88	210.96
917.18	210.92
917.49	211.21
917.79	211.24
918.09	211.29
918.39	211.33
918.70	211.35
919.00	211.31
919.30	211.48
919.60	211.41
919.91	211.39
920.21	211.40
920.51	211.35
920.81	211.29
921.12	211.38
921.42	211.45
921.72	211.52
922.02	211.49
922.32	211.52
922.63	211.52
922.93	211.74
923.23	211.67
923.53	211.66
923.83	211.39
924.13	211.37
924.44	211.33
924.74	211.36
925.04	211.42
925.34	211.43
925.64	211.31
925.94	211.39
926.24	211.60
926.55	211.49
926.85	211.54
927.15	211.52
927.45	211.46
927.75	211.45
928.05	211.42
928.35	211.45
928.65	211.45
928.95	211.49
929.26	211.37
929.56	211.50
929.86	211.55
930.16	211.53
930.46	211.52
930.76	211.58
931.06	211.47
931.36	211.39
931.66	211.43
931.96	211.42
932.26	211.41
932.56	211.23
932.86	211.25
933.16	211.28
933.46	211.33
933.76	211.29
934.06	211.28
934.36	211.36
934.66	211.34
934.96	211.34
935.26	211.37
935.56	211.40
935.86	211.24
936.16	211.29
936.46	211.27
936.76	211.24
937.06	211.19
937.36	211.16
937.66	211.19
937.96	211.22
938.26	211.18
938.56	211.20
938.86	211.20
939.16	211.31
939.46	211.26
939.76	211.20
940.06	211.14
940.35	211.09
940.65	210.98
940.95	211.02
941.25	210.95
941.55	210.88
941.85	210.86
942.15	210.99
942.45	210.98
942.75	210.94
943.04	210.96
943.34	211.09
943.64	211.06
943.94	211.01
944.24	211.01
944.54	211.10
944.84	211.08
945.13	211.05
945.43	211.03
945.73	211.02
946.03	211.00
946.33	210.97
946.62	210.97
946.92	210.95
947.22	210.90
947.52	210.92
947.82	210.96
948.11	210.94
948.41	210.85
948.71	210.78
949.01	210.80
949.31	210.78
949.60	210.68
949.90	210.73
950.20	210.67
950.50	210.61
950.79	210.44
951.09	210.45
951.39	210.46
951.69	210.41
951.98	210.55
952.28	210.62
952.58	210.60
952.87	210.62
953.17	210.58
953.47	210.60
953.76	210.60
954.06	210.55
954.36	210.48
954.66	210.45
954.95	210.56
955.25	210.61
955.55	210.68
955.84	210.63
956.14	210.70
956.44	210.72
956.73	210.73
957.03	210.83
957.32	210.85
957.62	210.84
957.92	210.88
958.21	210.78
958.51	211.18
958.81	211.31
959.10	211.29
959.40	211.46
959.69	211.49
959.99	211.50
960.29	211.47
960.58	211.47
960.88	211.69
961.17	211.62
961.47	211.60
961.76	211.49
962.06	211.55
962.36	211.45
962.65	211.45
962.95	211.43
963.24	211.47
963.54	211.50
963.83	211.55
964.13	211.50
964.42	211.40
964.72	211.08
965.01	211.05
965.31	211.11
965.60	211.00
965.90	211.21
966.19	211.15
966.49	211.26
966.78	211.32
967.08	211.27
967.37	211.25
967.67	211.19
967.96	211.28
968.26	211.24
968.55	211.29
968.85	211.26
969.14	211.20
969.43	211.12
969.73	211.04
970.02	211.02
970.32	211.11
970.61	211.13
970.91	211.05
971.20	210.96
971.49	210.88
971.79	210.85
972.08	210.63
972.38	210.70
972.67	210.65
972.96	210.65
973.26	210.51
973.55	210.60
973.85	210.60
974.14	210.55
974.43	210.62
974.73	210.65
975.02	210.67
975.31	210.75
975.61	210.80
975.90	210.83
976.19	210.82
976.49	210.78
976.78	210.79
977.07	210.77
977.37	210.82
977.66	210.84
977.95	210.79
978.24	210.83
978.54	210.84
978.83	210.72
979.12	210.66
979.42	210.69
979.71	210.64
980.00	210.61
980.29	210.64
980.59	210.54
980.88	210.56
981.17	210.60
981.46	210.58
981.76	210.51
982.05	210.59
982.34	210.66
982.63	210.63
982.93	210.67
983.22	210.81
983.51	210.83
983.80	210.95
984.09	211.04
984.39	210.93
984.68	210.88
984.97	211.01
985.26	210.95
985.55	210.91
985.85	210.94
986.14	211.02
986.43	211.05
986.72	211.03
987.01	210.92
987.30	210.87
987.59	210.85
987.89	210.88
988.18	210.81
988.47	210.73
988.76	210.72
989.05	210.72
989.34	210.53
989.63	210.63
989.92	210.54
990.22	210.45
990.51	210.44
990.80	210.48
991.09	210.46
991.38	210.53
991.67	210.60
991.96	210.47
992.25	210.46
992.54	210.39
992.83	210.43
993.12	210.51
993.41	210.55
993.70	210.78
993.99	210.82
994.28	210.90
994.58	210.99
994.87	210.98
995.16	210.95
995.45	211.05
995.74	210.89
996.03	210.97
996.32	211.08
996.61	211.19
996.90	211.17
997.19	211.19
997.48	211.24
997.77	211.20
998.06	211.25
998.34	211.20
998.63	211.23
998.92	211.21
999.21	211.19
999.50	211.23
999.79	211.03
1000.08	211.02
1000.37	210.95
1000.66	210.87
1000.95	211.01
1001.24	211.04
1001.53	211.02
1001.82	211.05
1002.11	210.91
1002.40	210.95
1002.68	211.00
1002.97	211.22
1003.26	211.16
1003.55	211.07
1003.84	211.08
1004.13	211.19
1004.42	211.17
1004.71	211.12
1004.99	211.10
1005.28	211.17
1005.57	211.15
1005.86	211.15
1006.15	211.12
1006.44	211.00
1006.72	211.03
1007.01	210.94
1007.30	210.95
1007.59	210.93
1007.88	210.91
1008.17	210.92
1008.45	210.82
1008.74	210.74
1009.03	210.53
1009.32	210.51
1009.60	210.49
1009.89	210.48
1010.18	210.33
1010.47	210.37
1010.76	210.36
1011.04	210.36
1011.33	210.39
1011.62	210.33
1011.91	210.28
1012.19	210.29
1012.48	210.33
1012.77	210.35
1013.05	210.46
1013.34	210.46
1013.63	210.42
1013.92	210.44
1014.20	210.50
1014.49	210.55
1014.78	210.62
1015.06	210.57
1015.35	210.58
1015.64	210.58
1015.92	210.68
1016.21	210.75
1016.50	210.67
1016.78	210.74
1017.07	210.80
1017.36	210.73
1017.64	210.73
1017.93	210.79
1018.22	210.79
1018.50	210.83
1018.79	210.77
1019.08	210.62
1019.36	210.65
1019.65	210.71
1019.93	210.80
1020.22	210.78
1020.51	210.94
1020.79	210.84
1021.08	210.75
1021.36	210.50
1021.65	209.95
1021.94	210.20
1022.22	211.90
1022.51	211.20
1022.79	212.10
1023.08	210.20
1023.36	215.55
1023.65	209.90
>>>>>End Processed Spectral Data<<<<<
