SpectraSuite Data File
++++++++++++++++++++++++++++++++++++
Date: Mon Feb 25 17:10:03 EST 2013
User: group
Dark Spectrum Present: No
Reference Spectrum Present: No
Number of Sampled Component Spectra: 1
Spectrometers: USB2E7196
Integration Time (usec): 104000 (USB2E7196)
Spectra Averaged: 20 (USB2E7196)
Boxcar Smoothing: 10 (USB2E7196)
Correct for Electrical Dark: No (USB2E7196)
Strobe/Lamp Enabled: No (USB2E7196)
Correct for Detector Non-linearity: No (USB2E7196)
Correct for Stray Light: No (USB2E7196)
Number of Pixels in Processed Spectrum: 2048
>>>>>Begin Processed Spectral Data<<<<<
339.09	0.00
339.48	200.05
339.86	200.95
340.24	201.45
340.63	204.45
341.01	210.45
341.39	206.45
341.78	207.30
342.16	209.75
342.54	208.55
342.93	198.55
343.31	208.57
343.69	209.04
344.07	209.47
344.46	209.95
344.84	210.24
345.22	210.17
345.60	210.35
345.99	210.58
346.37	210.65
346.75	210.72
347.13	210.69
347.52	210.67
347.90	210.79
348.28	210.77
348.66	210.79
349.05	210.67
349.43	210.71
349.81	210.71
350.19	210.63
350.57	210.65
350.96	210.73
351.34	210.71
351.72	210.79
352.10	210.84
352.48	210.83
352.87	210.84
353.25	210.94
353.63	210.97
354.01	210.93
354.39	210.98
354.77	210.99
355.15	211.10
355.54	211.11
355.92	211.01
356.30	211.08
356.68	211.30
357.06	211.40
357.44	211.46
357.82	211.50
358.20	211.63
358.58	211.68
358.97	211.79
359.35	212.00
359.73	212.09
360.11	212.10
360.49	212.14
360.87	212.24
361.25	212.35
361.63	212.52
362.01	212.66
362.39	212.62
362.77	212.80
363.15	212.80
363.53	212.86
363.91	212.94
364.29	212.97
364.67	212.77
365.05	212.74
365.43	212.79
365.81	212.87
366.19	213.04
366.57	213.25
366.95	213.20
367.33	213.09
367.71	213.10
368.09	213.20
368.47	213.22
368.85	213.15
369.23	213.23
369.61	213.12
369.99	213.18
370.37	213.24
370.75	213.40
371.13	213.29
371.51	213.23
371.89	213.29
372.27	213.30
372.65	213.31
373.03	213.40
373.41	213.36
373.78	213.36
374.16	213.15
374.54	213.04
374.92	212.97
375.30	212.98
375.68	212.88
376.06	212.90
376.44	212.85
376.82	212.94
377.19	212.81
377.57	212.76
377.95	212.64
378.33	212.64
378.71	212.36
379.09	212.42
379.47	212.36
379.84	212.21
380.22	212.17
380.60	212.05
380.98	211.88
381.36	211.84
381.73	211.75
382.11	211.78
382.49	211.74
382.87	211.71
383.25	211.65
383.62	212.05
384.00	211.85
384.38	211.85
384.76	211.90
385.13	212.02
385.51	211.99
385.89	211.83
386.27	211.71
386.64	211.72
387.02	211.63
387.40	211.57
387.78	211.63
388.15	211.62
388.53	211.53
388.91	211.56
389.29	211.51
389.66	211.53
390.04	211.51
390.42	211.49
390.79	211.50
391.17	211.46
391.55	211.04
391.92	211.06
392.30	211.02
392.68	210.80
393.05	210.65
393.43	210.64
393.81	210.69
394.18	210.63
394.56	210.61
394.94	210.68
395.31	210.78
395.69	210.87
396.06	210.84
396.44	210.96
396.82	210.94
397.19	211.10
397.57	210.98
397.95	211.02
398.32	210.93
398.70	210.95
399.07	211.03
399.45	211.03
399.82	211.04
400.20	210.98
400.58	211.03
400.95	210.97
401.33	211.03
401.70	211.25
402.08	211.26
402.45	211.26
402.83	211.37
403.20	211.41
403.58	211.37
403.95	211.50
404.33	211.52
404.71	211.60
405.08	211.80
405.46	211.91
405.83	211.91
406.21	211.95
406.58	212.01
406.96	212.09
407.33	212.24
407.70	212.36
408.08	212.80
408.45	213.04
408.83	213.28
409.20	213.41
409.58	213.43
409.95	213.74
410.33	214.03
410.70	214.10
411.08	214.26
411.45	214.54
411.82	214.75
412.20	215.17
412.57	215.61
412.95	215.65
413.32	216.08
413.69	216.47
414.07	216.95
414.44	217.36
414.82	217.78
415.19	218.33
415.56	218.82
415.94	219.16
416.31	219.75
416.68	220.36
417.06	221.11
417.43	221.88
417.81	222.57
418.18	223.44
418.55	224.29
418.93	225.21
419.30	226.16
419.67	227.14
420.04	228.05
420.42	229.02
420.79	230.49
421.16	231.75
421.54	233.21
421.91	234.54
422.28	235.95
422.66	237.31
423.03	238.84
423.40	240.34
423.77	241.87
424.15	243.39
424.52	245.01
424.89	246.89
425.26	248.51
425.64	250.20
426.01	251.76
426.38	253.68
426.75	255.66
427.13	257.59
427.50	259.67
427.87	261.86
428.24	264.06
428.61	265.93
428.99	268.25
429.36	270.50
429.73	272.96
430.10	275.46
430.47	278.11
430.85	280.57
431.22	283.41
431.59	286.56
431.96	289.39
432.33	292.56
432.70	295.51
433.08	299.05
433.45	302.51
433.82	306.00
434.19	309.73
434.56	313.38
434.93	316.78
435.30	320.25
435.68	324.08
436.05	327.80
436.42	331.52
436.79	334.99
437.16	338.83
437.53	342.62
437.90	346.35
438.27	350.19
438.64	354.11
439.01	357.75
439.38	360.76
439.75	363.94
440.13	367.56
440.50	370.99
440.87	373.81
441.24	376.64
441.61	379.85
441.98	382.24
442.35	384.91
442.72	387.75
443.09	390.65
443.46	392.38
443.83	393.58
444.20	394.61
444.57	395.91
444.94	396.61
445.31	397.43
445.68	398.60
446.05	398.84
446.42	398.57
446.79	398.35
447.16	398.08
447.53	397.92
447.90	396.49
448.27	395.05
448.64	393.05
449.01	391.59
449.37	389.12
449.74	386.74
450.11	384.14
450.48	380.99
450.85	377.43
451.22	374.51
451.59	371.87
451.96	369.31
452.33	365.92
452.70	362.71
453.07	358.96
453.43	354.77
453.80	351.24
454.17	347.76
454.54	344.26
454.91	340.76
455.28	337.29
455.65	334.05
456.02	331.38
456.38	328.74
456.75	325.39
457.12	322.47
457.49	319.56
457.86	316.69
458.23	314.47
458.59	311.96
458.96	309.46
459.33	307.13
459.70	304.86
460.07	303.14
460.43	301.03
460.80	299.18
461.17	297.62
461.54	295.85
461.91	294.22
462.27	292.52
462.64	290.90
463.01	289.22
463.38	287.79
463.74	285.71
464.11	284.24
464.48	283.00
464.85	281.68
465.21	280.73
465.58	279.57
465.95	278.25
466.32	277.21
466.68	276.07
467.05	275.07
467.42	274.07
467.78	272.82
468.15	271.84
468.52	271.09
468.88	269.95
469.25	268.97
469.62	268.18
469.98	267.39
470.35	266.71
470.72	265.91
471.08	265.02
471.45	264.37
471.82	263.76
472.18	263.10
472.55	262.58
472.92	261.93
473.28	261.36
473.65	260.69
474.02	260.31
474.38	259.98
474.75	259.62
475.11	259.13
475.48	258.91
475.85	258.62
476.21	258.32
476.58	258.14
476.94	258.05
477.31	257.73
477.67	257.54
478.04	257.37
478.41	257.40
478.77	257.65
479.14	257.54
479.50	257.50
479.87	257.55
480.23	257.59
480.60	257.61
480.96	257.64
481.33	257.98
481.69	258.02
482.06	258.12
482.42	258.20
482.79	258.41
483.15	258.59
483.52	258.94
483.88	259.08
484.25	259.36
484.61	259.54
484.98	259.98
485.34	260.44
485.71	260.91
486.07	261.36
486.44	261.56
486.80	262.10
487.17	262.65
487.53	263.30
487.90	263.94
488.26	264.75
488.62	265.57
488.99	266.19
489.35	266.99
489.72	267.79
490.08	268.68
490.44	269.60
490.81	270.62
491.17	271.57
491.54	272.71
491.90	273.82
492.26	275.04
492.63	276.30
492.99	277.58
493.36	279.03
493.72	280.46
494.08	281.87
494.45	283.44
494.81	285.18
495.17	286.66
495.54	288.43
495.90	290.18
496.26	291.96
496.63	293.84
496.99	295.73
497.35	297.81
497.72	299.91
498.08	302.08
498.44	304.33
498.80	306.84
499.17	309.27
499.53	311.79
499.89	314.48
500.26	316.99
500.62	319.62
500.98	322.33
501.34	325.16
501.71	328.31
502.07	331.31
502.43	334.34
502.79	337.42
503.16	340.66
503.52	343.92
503.88	347.32
504.24	350.98
504.60	354.63
504.97	358.44
505.33	362.22
505.69	366.20
506.05	370.19
506.41	374.01
506.78	377.90
507.14	381.89
507.50	386.08
507.86	390.54
508.22	394.90
508.59	399.22
508.95	403.78
509.31	408.36
509.67	413.11
510.03	417.95
510.39	422.95
510.75	427.88
511.12	432.87
511.48	437.94
511.84	442.92
512.20	448.12
512.56	453.37
512.92	458.68
513.28	464.07
513.64	469.48
514.00	474.97
514.37	480.65
514.73	486.46
515.09	492.25
515.45	497.90
515.81	503.74
516.17	509.74
516.53	515.59
516.89	521.46
517.25	527.28
517.61	533.15
517.97	539.32
518.33	545.46
518.69	551.59
519.05	557.77
519.41	563.95
519.77	570.43
520.13	576.68
520.49	582.91
520.85	589.21
521.21	595.79
521.57	602.35
521.93	608.67
522.29	615.24
522.65	621.65
523.01	628.23
523.37	634.57
523.73	641.04
524.09	647.57
524.45	654.17
524.81	660.81
525.17	667.59
525.53	674.20
525.89	680.78
526.25	687.72
526.61	694.18
526.97	700.95
527.33	707.46
527.68	714.47
528.04	721.11
528.40	727.49
528.76	733.85
529.12	740.61
529.48	747.46
529.84	753.92
530.20	760.64
530.56	767.23
530.91	774.19
531.27	780.86
531.63	787.52
531.99	794.03
532.35	800.48
532.71	806.94
533.07	813.31
533.42	820.02
533.78	826.20
534.14	832.71
534.50	838.56
534.86	844.86
535.21	850.33
535.57	856.57
535.93	862.64
536.29	868.67
536.65	874.42
537.00	880.09
537.36	885.73
537.72	890.97
538.08	896.61
538.44	901.79
538.79	907.20
539.15	912.57
539.51	917.70
539.87	923.36
540.22	928.57
540.58	933.98
540.94	938.80
541.29	943.76
541.65	948.25
542.01	953.15
542.37	957.76
542.72	962.48
543.08	966.72
543.44	971.45
543.79	975.60
544.15	979.77
544.51	984.15
544.87	988.70
545.22	992.85
545.58	996.55
545.94	1000.44
546.29	1003.88
546.65	1007.13
547.01	1010.80
547.36	1014.04
547.72	1017.06
548.07	1019.89
548.43	1022.66
548.79	1025.28
549.14	1028.23
549.50	1031.19
549.86	1033.65
550.21	1036.22
550.57	1038.85
550.92	1040.72
551.28	1042.97
551.64	1044.99
551.99	1047.20
552.35	1048.72
552.70	1050.57
553.06	1052.57
553.41	1054.18
553.77	1056.33
554.13	1058.24
554.48	1059.69
554.84	1061.00
555.19	1062.38
555.55	1063.72
555.90	1064.86
556.26	1065.83
556.61	1066.78
556.97	1067.59
557.32	1068.19
557.68	1068.66
558.03	1069.33
558.39	1070.06
558.74	1070.71
559.10	1071.43
559.45	1071.79
559.81	1072.67
560.16	1072.89
560.52	1073.40
560.87	1074.01
561.23	1073.80
561.58	1074.11
561.94	1074.15
562.29	1073.86
562.64	1073.94
563.00	1073.74
563.35	1074.02
563.71	1074.41
564.06	1074.56
564.42	1074.48
564.77	1074.68
565.12	1074.97
565.48	1075.25
565.83	1075.25
566.19	1075.42
566.54	1074.76
566.89	1074.18
567.25	1073.77
567.60	1073.60
567.96	1073.10
568.31	1072.37
568.66	1071.86
569.02	1070.95
569.37	1069.85
569.72	1069.25
570.08	1068.31
570.43	1067.41
570.78	1066.06
571.14	1064.66
571.49	1063.09
571.84	1062.11
572.20	1060.62
572.55	1059.30
572.90	1057.24
573.26	1055.62
573.61	1053.82
573.96	1052.32
574.31	1050.39
574.67	1048.03
575.02	1045.84
575.37	1043.38
575.72	1041.19
576.08	1039.32
576.43	1036.90
576.78	1035.20
577.13	1033.33
577.49	1031.17
577.84	1029.01
578.19	1027.31
578.54	1025.47
578.90	1024.02
579.25	1021.82
579.60	1019.41
579.95	1017.05
580.30	1015.25
580.66	1013.30
581.01	1010.99
581.36	1008.43
581.71	1006.39
582.06	1004.31
582.42	1002.34
582.77	999.91
583.12	997.49
583.47	995.26
583.82	993.34
584.17	991.07
584.53	988.83
584.88	986.87
585.23	984.71
585.58	982.35
585.93	979.94
586.28	977.71
586.63	975.34
586.98	973.51
587.34	971.56
587.69	968.81
588.04	966.34
588.39	964.08
588.74	961.93
589.09	959.90
589.44	957.64
589.79	955.53
590.14	953.61
590.49	951.56
590.84	949.18
591.19	947.35
591.54	944.95
591.89	942.23
592.25	939.76
592.60	937.19
592.95	934.24
593.30	931.36
593.65	928.35
594.00	925.64
594.35	924.12
594.70	921.30
595.05	919.34
595.40	916.88
595.75	914.06
596.10	911.81
596.45	909.23
596.80	906.98
597.15	904.55
597.50	902.08
597.85	899.84
598.19	897.32
598.54	894.74
598.89	892.58
599.24	890.77
599.59	888.47
599.94	886.54
600.29	884.65
600.64	882.66
600.99	880.44
601.34	878.27
601.69	874.86
602.04	872.39
602.39	869.87
602.74	867.65
603.08	865.84
603.43	864.02
603.78	861.72
604.13	859.40
604.48	856.89
604.83	855.08
605.18	853.15
605.53	851.04
605.87	848.57
606.22	846.28
606.57	843.71
606.92	841.38
607.27	838.82
607.62	836.30
607.96	834.06
608.31	832.00
608.66	829.51
609.01	827.20
609.36	824.81
609.70	822.26
610.05	819.60
610.40	816.85
610.75	813.99
611.10	811.47
611.44	808.25
611.79	805.44
612.14	802.34
612.49	798.75
612.83	795.79
613.18	792.71
613.53	789.81
613.88	786.62
614.22	783.63
614.57	780.38
614.92	777.37
615.27	774.41
615.61	771.21
615.96	768.36
616.31	765.28
616.65	762.68
617.00	759.72
617.35	756.90
617.70	753.93
618.04	750.61
618.39	747.20
618.74	744.53
619.08	741.39
619.43	738.27
619.78	735.61
620.12	732.42
620.47	729.43
620.82	725.86
621.16	722.65
621.51	719.62
621.85	716.84
622.20	713.75
622.55	710.43
622.89	707.34
623.24	704.16
623.59	701.17
623.93	697.81
624.28	694.68
624.62	691.83
624.97	689.01
625.32	686.14
625.66	683.49
626.01	680.56
626.35	677.86
626.70	675.04
627.04	672.39
627.39	669.71
627.73	667.01
628.08	664.65
628.43	661.89
628.77	658.86
629.12	656.05
629.46	653.43
629.81	650.87
630.15	648.05
630.50	645.28
630.84	642.30
631.19	639.63
631.53	637.05
631.88	633.88
632.22	630.71
632.57	628.07
632.91	625.19
633.26	622.54
633.60	619.76
633.95	617.05
634.29	614.09
634.64	611.62
634.98	608.83
635.32	606.11
635.67	603.65
636.01	601.02
636.36	598.22
636.70	595.65
637.05	592.99
637.39	590.60
637.73	588.21
638.08	586.16
638.42	583.74
638.77	581.25
639.11	578.87
639.45	576.51
639.80	573.83
640.14	571.22
640.49	568.54
640.83	565.90
641.17	563.42
641.52	560.80
641.86	557.97
642.20	555.53
642.55	552.66
642.89	549.97
643.23	547.51
643.58	545.23
643.92	542.53
644.26	539.89
644.61	537.41
644.95	534.87
645.29	532.05
645.64	529.42
645.98	526.74
646.32	524.28
646.66	521.65
647.01	519.25
647.35	516.92
647.69	514.40
648.04	512.05
648.38	509.58
648.72	507.27
649.06	504.76
649.41	502.32
649.75	500.06
650.09	497.89
650.43	495.45
650.78	492.82
651.12	490.38
651.46	488.05
651.80	485.60
652.14	483.13
652.49	480.80
652.83	478.29
653.17	475.76
653.51	473.26
653.85	471.09
654.20	468.81
654.54	466.34
654.88	463.99
655.22	461.56
655.56	459.11
655.90	456.68
656.25	454.40
656.59	451.97
656.93	449.80
657.27	447.46
657.61	445.12
657.95	443.00
658.29	440.91
658.64	438.74
658.98	436.40
659.32	434.15
659.66	432.01
660.00	429.84
660.34	427.83
660.68	425.56
661.02	423.32
661.36	421.13
661.70	419.19
662.05	417.31
662.39	415.54
662.73	413.76
663.07	411.99
663.41	410.12
663.75	408.27
664.09	406.28
664.43	404.23
664.77	402.45
665.11	400.60
665.45	398.74
665.79	397.00
666.13	395.22
666.47	393.42
666.81	391.59
667.15	389.94
667.49	388.35
667.83	386.92
668.17	385.30
668.51	383.69
668.85	382.07
669.19	380.59
669.53	378.86
669.87	377.14
670.21	375.48
670.55	373.84
670.89	372.42
671.23	370.95
671.57	369.55
671.91	367.93
672.25	366.38
672.58	364.95
672.92	363.35
673.26	362.06
673.60	360.71
673.94	359.29
674.28	357.87
674.62	356.51
674.96	355.05
675.30	353.68
675.64	352.33
675.97	350.96
676.31	349.59
676.65	348.25
676.99	347.13
677.33	345.73
677.67	344.47
678.01	343.06
678.34	341.84
678.68	340.57
679.02	339.33
679.36	338.12
679.70	336.79
680.04	335.63
680.37	334.24
680.71	333.01
681.05	331.91
681.39	330.75
681.73	329.51
682.06	328.40
682.40	327.25
682.74	326.17
683.08	325.12
683.42	323.85
683.75	322.85
684.09	321.51
684.43	320.50
684.77	319.42
685.10	318.29
685.44	317.05
685.78	315.95
686.12	314.93
686.45	313.89
686.79	312.89
687.13	311.94
687.46	310.98
687.80	309.98
688.14	308.83
688.48	307.90
688.81	306.89
689.15	305.90
689.49	304.83
689.82	303.81
690.16	302.63
690.50	301.64
690.83	300.54
691.17	299.52
691.51	298.48
691.84	297.54
692.18	296.69
692.52	295.79
692.85	294.96
693.19	294.16
693.52	293.27
693.86	292.35
694.20	291.44
694.53	290.55
694.87	289.67
695.21	288.80
695.54	287.92
695.88	286.96
696.21	285.95
696.55	285.15
696.88	284.29
697.22	283.46
697.56	282.71
697.89	281.90
698.23	281.20
698.56	280.37
698.90	279.63
699.23	278.81
699.57	278.14
699.90	277.38
700.24	276.51
700.58	275.78
700.91	275.06
701.25	274.53
701.58	273.94
701.92	273.27
702.25	272.56
702.59	271.78
702.92	271.19
703.26	270.56
703.59	269.97
703.93	269.66
704.26	269.07
704.60	268.43
704.93	267.78
705.26	267.07
705.60	266.51
705.93	265.80
706.27	265.26
706.60	264.69
706.94	264.24
707.27	263.66
707.61	263.15
707.94	262.46
708.27	261.64
708.61	260.90
708.94	260.30
709.28	259.80
709.61	259.29
709.94	258.78
710.28	258.29
710.61	257.70
710.95	256.79
711.28	256.52
711.61	255.96
711.95	255.56
712.28	255.07
712.61	254.65
712.95	254.42
713.28	254.08
713.61	253.65
713.95	253.09
714.28	252.65
714.61	252.07
714.95	251.69
715.28	251.16
715.61	250.73
715.95	250.28
716.28	249.81
716.61	249.42
716.95	248.90
717.28	248.57
717.61	248.22
717.94	247.88
718.28	247.27
718.61	246.89
718.94	246.43
719.27	246.04
719.61	245.66
719.94	245.16
720.27	244.64
720.60	244.18
720.94	243.82
721.27	243.50
721.60	243.22
721.93	242.83
722.27	242.70
722.60	242.37
722.93	242.14
723.26	241.76
723.59	241.45
723.93	241.23
724.26	240.85
724.59	240.57
724.92	240.29
725.25	240.06
725.59	239.75
725.92	239.52
726.25	239.28
726.58	238.99
726.91	238.74
727.24	238.44
727.57	238.18
727.91	237.86
728.24	237.57
728.57	237.24
728.90	237.08
729.23	236.71
729.56	236.63
729.89	236.31
730.22	236.07
730.55	235.81
730.89	235.53
731.22	235.29
731.55	235.00
731.88	234.74
732.21	234.44
732.54	234.18
732.87	233.85
733.20	233.61
733.53	233.39
733.86	233.08
734.19	232.87
734.52	232.67
734.85	232.73
735.18	232.46
735.51	232.41
735.84	232.24
736.17	232.14
736.50	231.78
736.83	231.96
737.16	231.81
737.49	231.62
737.82	231.30
738.15	231.15
738.48	230.98
738.81	230.72
739.14	230.54
739.47	230.37
739.80	230.27
740.13	230.05
740.46	229.79
740.79	229.56
741.12	229.34
741.45	229.12
741.78	228.63
742.11	228.53
742.44	228.21
742.77	228.05
743.10	227.77
743.43	227.57
743.75	227.02
744.08	227.35
744.41	227.11
744.74	227.04
745.07	226.81
745.40	226.68
745.73	226.66
746.06	226.45
746.39	226.32
746.71	226.10
747.04	225.93
747.37	225.80
747.70	225.68
748.03	225.50
748.36	225.38
748.68	225.30
749.01	225.12
749.34	225.04
749.67	224.93
750.00	224.89
750.33	225.05
750.65	224.97
750.98	224.33
751.31	224.24
751.64	224.26
751.97	224.42
752.29	224.21
752.62	223.96
752.95	223.84
753.28	223.66
753.60	223.62
753.93	223.71
754.26	223.62
754.59	223.44
754.91	223.25
755.24	223.19
755.57	223.06
755.90	222.93
756.22	222.75
756.55	222.53
756.88	222.37
757.20	222.00
757.53	221.85
757.86	221.71
758.19	221.60
758.51	221.33
758.84	220.93
759.17	220.90
759.49	220.80
759.82	220.83
760.15	220.75
760.47	220.56
760.80	220.29
761.13	220.25
761.45	220.20
761.78	220.25
762.11	220.11
762.43	220.03
762.76	219.93
763.08	219.89
763.41	219.88
763.74	219.82
764.06	219.72
764.39	219.60
764.71	219.55
765.04	219.52
765.37	219.50
765.69	219.46
766.02	219.31
766.34	219.21
766.67	219.08
767.00	219.07
767.32	219.16
767.65	219.25
767.97	219.11
768.30	219.06
768.62	218.94
768.95	218.84
769.27	218.74
769.60	218.73
769.92	218.57
770.25	218.46
770.57	218.25
770.90	218.20
771.22	218.14
771.55	218.02
771.87	217.90
772.20	217.73
772.52	217.95
772.85	218.32
773.17	218.28
773.50	218.21
773.82	218.15
774.15	217.91
774.47	217.61
774.80	217.49
775.12	217.35
775.45	217.26
775.77	217.12
776.09	217.04
776.42	216.97
776.74	217.00
777.07	216.88
777.39	216.89
777.72	216.72
778.04	216.73
778.36	216.74
778.69	216.60
779.01	216.59
779.33	216.29
779.66	215.80
779.98	215.70
780.31	215.62
780.63	215.66
780.95	215.71
781.28	215.70
781.60	215.68
781.92	215.64
782.25	215.56
782.57	215.60
782.89	215.52
783.22	215.43
783.54	215.31
783.86	215.28
784.19	215.12
784.51	215.25
784.83	215.10
785.16	214.99
785.48	214.99
785.80	215.00
786.12	214.89
786.45	214.85
786.77	214.85
787.09	214.82
787.42	214.67
787.74	214.63
788.06	214.65
788.38	214.58
788.71	214.54
789.03	214.58
789.35	214.57
789.67	214.55
789.99	214.54
790.32	214.45
790.64	214.48
790.96	214.74
791.28	214.59
791.61	214.55
791.93	214.54
792.25	214.50
792.57	214.66
792.89	214.52
793.21	214.57
793.54	214.52
793.86	214.45
794.18	214.41
794.50	214.33
794.82	214.25
795.14	214.27
795.47	214.33
795.79	214.29
796.11	214.14
796.43	214.08
796.75	214.06
797.07	214.19
797.39	214.19
797.71	214.00
798.04	213.97
798.36	214.00
798.68	214.01
799.00	214.05
799.32	213.86
799.64	213.99
799.96	213.97
800.28	213.95
800.60	213.90
800.92	213.94
801.24	213.84
801.56	213.86
801.89	213.79
802.21	213.79
802.53	213.73
802.85	213.81
803.17	214.03
803.49	213.95
803.81	213.85
804.13	213.71
804.45	213.68
804.77	213.70
805.09	213.63
805.41	213.55
805.73	213.44
806.05	213.35
806.37	213.30
806.69	213.14
807.01	213.16
807.33	213.15
807.65	213.01
807.97	213.22
808.28	213.15
808.60	213.21
808.92	213.16
809.24	213.40
809.56	213.36
809.88	213.20
810.20	213.21
810.52	213.20
810.84	213.23
811.16	213.14
811.48	213.16
811.80	213.30
812.12	213.20
812.43	213.23
812.75	213.22
813.07	213.18
813.39	213.21
813.71	213.15
814.03	213.10
814.35	213.04
814.67	212.83
814.98	212.81
815.30	212.72
815.62	212.66
815.94	212.36
816.26	212.35
816.58	212.25
816.89	212.24
817.21	212.19
817.53	212.12
817.85	212.12
818.17	212.09
818.48	212.03
818.80	212.09
819.12	212.04
819.44	212.03
819.76	211.95
820.07	211.99
820.39	211.98
820.71	212.00
821.03	212.00
821.34	211.99
821.66	212.04
821.98	212.08
822.30	212.04
822.61	212.23
822.93	212.24
823.25	212.20
823.57	212.17
823.88	212.25
824.20	212.35
824.52	212.45
824.83	212.42
825.15	212.29
825.47	212.33
825.79	212.33
826.10	212.32
826.42	212.34
826.74	212.37
827.05	212.34
827.37	212.34
827.69	212.35
828.00	212.43
828.32	212.40
828.64	212.46
828.95	212.64
829.27	212.62
829.58	212.50
829.90	212.54
830.22	212.56
830.53	212.44
830.85	212.34
831.17	212.24
831.48	212.22
831.80	212.25
832.11	212.14
832.43	212.12
832.75	212.04
833.06	212.20
833.38	212.03
833.69	212.02
834.01	212.05
834.32	212.03
834.64	212.00
834.96	211.92
835.27	211.80
835.59	211.63
835.90	211.45
836.22	211.50
836.53	211.44
836.85	211.41
837.16	211.75
837.48	211.77
837.79	211.85
838.11	211.82
838.42	211.79
838.74	211.92
839.05	211.88
839.37	211.89
839.68	211.68
840.00	211.75
840.31	211.75
840.63	211.73
840.94	211.69
841.26	211.63
841.57	211.71
841.88	211.73
842.20	211.70
842.51	211.72
842.83	211.73
843.14	211.93
843.46	211.91
843.77	211.70
844.08	211.64
844.40	211.52
844.71	211.49
845.03	211.50
845.34	211.44
845.65	211.45
845.97	211.41
846.28	211.42
846.60	211.45
846.91	211.42
847.22	211.42
847.54	211.54
847.85	211.54
848.16	211.46
848.48	211.40
848.79	211.59
849.10	211.66
849.42	211.70
849.73	211.50
850.04	211.52
850.36	211.45
850.67	211.53
850.98	211.57
851.30	211.61
851.61	211.61
851.92	211.58
852.23	211.76
852.55	211.82
852.86	211.86
853.17	211.89
853.49	211.95
853.80	211.97
854.11	211.94
854.42	212.03
854.74	212.04
855.05	212.07
855.36	211.84
855.67	211.88
855.99	211.81
856.30	212.19
856.61	212.13
856.92	212.01
857.23	212.04
857.55	211.95
857.86	211.92
858.17	211.96
858.48	211.90
858.79	211.79
859.11	211.88
859.42	211.80
859.73	211.70
860.04	211.70
860.35	211.62
860.66	211.51
860.98	211.43
861.29	211.45
861.60	211.41
861.91	211.52
862.22	211.35
862.53	211.31
862.84	210.91
863.16	211.07
863.47	211.12
863.78	211.07
864.09	211.15
864.40	211.21
864.71	211.18
865.02	211.29
865.33	211.21
865.64	211.15
865.95	211.18
866.27	211.42
866.58	211.44
866.89	211.56
867.20	211.61
867.51	211.57
867.82	211.51
868.13	211.66
868.44	211.61
868.75	211.67
869.06	211.69
869.37	211.65
869.68	211.54
869.99	211.60
870.30	211.58
870.61	211.61
870.92	211.54
871.23	211.60
871.54	211.56
871.85	211.65
872.16	211.60
872.47	211.58
872.78	211.34
873.09	211.32
873.40	211.20
873.71	211.23
874.02	211.23
874.33	211.20
874.64	211.08
874.95	211.12
875.26	211.08
875.56	211.09
875.87	211.19
876.18	211.18
876.49	211.46
876.80	211.43
877.11	211.35
877.42	211.43
877.73	211.38
878.04	211.40
878.35	211.40
878.66	211.45
878.96	211.40
879.27	211.44
879.58	211.40
879.89	211.41
880.20	211.46
880.51	211.53
880.82	211.58
881.12	211.50
881.43	211.45
881.74	211.43
882.05	211.41
882.36	211.38
882.67	211.36
882.97	211.08
883.28	211.04
883.59	211.06
883.90	211.03
884.21	211.03
884.51	211.00
884.82	210.96
885.13	210.95
885.44	211.00
885.74	211.01
886.05	211.05
886.36	211.01
886.67	210.87
886.98	210.99
887.28	211.01
887.59	211.10
887.90	211.10
888.20	211.13
888.51	211.22
888.82	211.20
889.13	211.25
889.43	211.50
889.74	211.54
890.05	211.51
890.35	211.50
890.66	211.50
890.97	211.50
891.28	211.49
891.58	211.47
891.89	211.45
892.20	211.42
892.50	211.37
892.81	211.44
893.12	211.46
893.42	211.37
893.73	211.40
894.04	211.47
894.34	211.54
894.65	211.55
894.95	211.48
895.26	211.49
895.57	211.58
895.87	211.30
896.18	211.36
896.48	211.32
896.79	211.28
897.10	211.36
897.40	211.32
897.71	211.33
898.01	211.35
898.32	211.43
898.63	211.40
898.93	211.52
899.24	211.54
899.54	211.53
899.85	211.44
900.15	211.45
900.46	211.47
900.76	211.45
901.07	211.35
901.38	211.47
901.68	211.45
901.99	211.31
902.29	211.30
902.60	211.23
902.90	211.33
903.21	211.35
903.51	211.24
903.82	211.36
904.12	211.31
904.43	211.32
904.73	211.29
905.03	211.27
905.34	211.46
905.64	211.40
905.95	211.35
906.25	211.32
906.56	211.32
906.86	211.28
907.17	211.27
907.47	211.33
907.77	211.21
908.08	211.16
908.38	211.24
908.69	211.24
908.99	211.37
909.30	211.34
909.60	211.35
909.90	211.40
910.21	211.27
910.51	211.28
910.81	211.28
911.12	211.33
911.42	211.36
911.73	211.02
912.03	211.04
912.33	211.15
912.64	211.10
912.94	211.03
913.24	210.91
913.55	210.83
913.85	210.85
914.15	210.94
914.46	210.97
914.76	210.88
915.06	210.83
915.37	210.70
915.67	210.70
915.97	210.72
916.27	210.62
916.58	210.61
916.88	210.50
917.18	210.40
917.49	210.58
917.79	210.60
918.09	210.72
918.39	210.80
918.70	210.74
919.00	210.82
919.30	210.98
919.60	210.95
919.91	211.01
920.21	210.98
920.51	210.80
920.81	210.85
921.12	210.97
921.42	211.00
921.72	211.13
922.02	211.19
922.32	211.21
922.63	211.24
922.93	211.46
923.23	211.57
923.53	211.62
923.83	211.45
924.13	211.46
924.44	211.47
924.74	211.53
925.04	211.64
925.34	211.65
925.64	211.61
925.94	211.67
926.24	211.80
926.55	211.79
926.85	211.93
927.15	211.90
927.45	211.89
927.75	211.91
928.05	211.84
928.35	211.74
928.65	211.80
928.95	211.84
929.26	211.68
929.56	211.69
929.86	211.79
930.16	211.73
930.46	211.66
930.76	211.61
931.06	211.43
931.36	211.40
931.66	211.50
931.96	211.45
932.26	211.47
932.56	211.29
932.86	211.38
933.16	211.35
933.46	211.34
933.76	211.22
934.06	211.32
934.36	211.45
934.66	211.39
934.96	211.28
935.26	211.30
935.56	211.34
935.86	211.26
936.16	211.16
936.46	211.11
936.76	211.13
937.06	211.09
937.36	211.11
937.66	211.07
937.96	211.01
938.26	210.92
938.56	210.91
938.86	210.95
939.16	210.93
939.46	211.00
939.76	211.01
940.06	211.05
940.35	210.91
940.65	210.77
940.95	210.88
941.25	210.90
941.55	210.81
941.85	210.82
942.15	210.93
942.45	211.03
942.75	211.09
943.04	211.11
943.34	211.18
943.64	211.21
943.94	211.14
944.24	211.10
944.54	211.18
944.84	211.18
945.13	211.12
945.43	211.10
945.73	211.00
946.03	210.98
946.33	210.97
946.62	210.89
946.92	210.80
947.22	210.78
947.52	210.78
947.82	210.85
948.11	210.80
948.41	210.73
948.71	210.65
949.01	210.65
949.31	210.63
949.60	210.57
949.90	210.52
950.20	210.52
950.50	210.51
950.79	210.41
951.09	210.46
951.39	210.47
951.69	210.44
951.98	210.53
952.28	210.53
952.58	210.55
952.87	210.65
953.17	210.72
953.47	210.70
953.76	210.70
954.06	210.67
954.36	210.62
954.66	210.62
954.95	210.69
955.25	210.74
955.55	210.81
955.84	210.77
956.14	210.86
956.44	210.90
956.73	210.88
957.03	210.98
957.32	211.00
957.62	210.98
957.92	211.04
958.21	211.00
958.51	211.44
958.81	211.47
959.10	211.54
959.40	211.64
959.69	211.66
959.99	211.69
960.29	211.66
960.58	211.68
960.88	211.80
961.17	211.80
961.47	211.79
961.76	211.68
962.06	211.78
962.36	211.75
962.65	211.78
962.95	211.82
963.24	211.78
963.54	211.77
963.83	211.77
964.13	211.78
964.42	211.74
964.72	211.46
965.01	211.44
965.31	211.38
965.60	211.30
965.90	211.50
966.19	211.42
966.49	211.44
966.78	211.45
967.08	211.45
967.37	211.39
967.67	211.29
967.96	211.40
968.26	211.41
968.55	211.45
968.85	211.43
969.14	211.37
969.43	211.37
969.73	211.36
970.02	211.44
970.32	211.40
970.61	211.40
970.91	211.28
971.20	211.25
971.49	211.18
971.79	211.26
972.08	211.03
972.38	211.05
972.67	210.98
972.96	211.04
973.26	210.94
973.55	211.11
973.85	211.16
974.14	211.14
974.43	211.15
974.73	211.07
975.02	211.05
975.31	211.12
975.61	211.14
975.90	211.07
976.19	210.99
976.49	211.00
976.78	211.02
977.07	210.97
977.37	211.03
977.66	211.10
977.95	210.97
978.24	211.01
978.54	211.18
978.83	211.19
979.12	211.13
979.42	211.17
979.71	211.09
980.00	211.10
980.29	211.05
980.59	210.96
980.88	211.06
981.17	211.09
981.46	211.01
981.76	210.98
982.05	211.15
982.34	211.21
982.63	211.21
982.93	211.18
983.22	211.33
983.51	211.30
983.80	211.34
984.09	211.42
984.39	211.37
984.68	211.31
984.97	211.40
985.26	211.39
985.55	211.38
985.85	211.28
986.14	211.28
986.43	211.38
986.72	211.37
987.01	211.30
987.30	211.25
987.59	211.27
987.89	211.26
988.18	211.06
988.47	210.97
988.76	210.97
989.05	210.93
989.34	210.81
989.63	210.89
989.92	210.88
990.22	210.90
990.51	210.85
990.80	210.80
991.09	210.79
991.38	210.87
991.67	210.80
991.96	210.75
992.25	210.77
992.54	210.68
992.83	210.73
993.12	210.69
993.41	210.74
993.70	210.82
993.99	210.95
994.28	211.04
994.58	211.05
994.87	211.03
995.16	211.00
995.45	211.01
995.74	210.87
996.03	210.87
996.32	210.81
996.61	210.97
996.90	210.97
997.19	210.93
997.48	210.92
997.77	210.94
998.06	211.08
998.34	211.05
998.63	211.01
998.92	211.02
999.21	211.05
999.50	211.07
999.79	211.03
1000.08	210.98
1000.37	210.92
1000.66	210.96
1000.95	211.03
1001.24	211.11
1001.53	211.08
1001.82	211.11
1002.11	210.98
1002.40	211.02
1002.68	211.04
1002.97	211.26
1003.26	211.25
1003.55	211.23
1003.84	211.18
1004.13	211.22
1004.42	211.26
1004.71	211.34
1004.99	211.31
1005.28	211.40
1005.57	211.39
1005.86	211.28
1006.15	211.26
1006.44	211.27
1006.72	211.25
1007.01	211.18
1007.30	211.15
1007.59	211.18
1007.88	211.13
1008.17	211.27
1008.45	211.20
1008.74	211.11
1009.03	210.95
1009.32	210.98
1009.60	210.97
1009.89	211.02
1010.18	210.87
1010.47	210.82
1010.76	210.76
1011.04	210.74
1011.33	210.74
1011.62	210.76
1011.91	210.83
1012.19	210.83
1012.48	210.89
1012.77	210.92
1013.05	211.17
1013.34	211.16
1013.63	211.17
1013.92	211.25
1014.20	211.18
1014.49	211.23
1014.78	211.15
1015.06	211.00
1015.35	210.93
1015.64	210.92
1015.92	210.94
1016.21	211.02
1016.50	211.02
1016.78	211.12
1017.07	211.13
1017.36	211.04
1017.64	210.89
1017.93	210.92
1018.22	210.91
1018.50	210.83
1018.79	210.76
1019.08	210.54
1019.36	210.57
1019.65	210.48
1019.93	210.59
1020.22	210.68
1020.51	210.84
1020.79	210.85
1021.08	210.60
1021.36	210.05
1021.65	209.80
1021.94	210.90
1022.22	210.60
1022.51	209.30
1022.79	213.45
1023.08	212.30
1023.36	214.65
1023.65	209.75
>>>>>End Processed Spectral Data<<<<<
