SpectraSuite Data File
++++++++++++++++++++++++++++++++++++
Date: Mon Feb 25 17:10:01 EST 2013
User: group
Dark Spectrum Present: No
Reference Spectrum Present: No
Number of Sampled Component Spectra: 1
Spectrometers: USB2E7196
Integration Time (usec): 104000 (USB2E7196)
Spectra Averaged: 20 (USB2E7196)
Boxcar Smoothing: 10 (USB2E7196)
Correct for Electrical Dark: No (USB2E7196)
Strobe/Lamp Enabled: No (USB2E7196)
Correct for Detector Non-linearity: No (USB2E7196)
Correct for Stray Light: No (USB2E7196)
Number of Pixels in Processed Spectrum: 2048
>>>>>Begin Processed Spectral Data<<<<<
339.09	0.00
339.48	198.00
339.86	199.00
340.24	201.35
340.63	203.30
341.01	209.50
341.39	205.05
341.78	207.45
342.16	208.95
342.54	208.50
342.93	198.22
343.31	208.22
343.69	208.76
344.07	209.33
344.46	209.83
344.84	210.19
345.22	210.21
345.60	210.48
345.99	210.61
346.37	210.66
346.75	210.74
347.13	210.73
347.52	210.81
347.90	211.01
348.28	210.91
348.66	210.96
349.05	210.82
349.43	210.81
349.81	210.90
350.19	210.86
350.57	210.88
350.96	210.88
351.34	210.94
351.72	211.05
352.10	211.09
352.48	211.07
352.87	211.17
353.25	211.24
353.63	211.25
354.01	211.28
354.39	211.40
354.77	211.50
355.15	211.69
355.54	211.70
355.92	211.68
356.30	211.80
356.68	212.06
357.06	212.25
357.44	212.35
357.82	212.33
358.20	212.43
358.58	212.56
358.97	212.52
359.35	212.63
359.73	212.74
360.11	212.72
360.49	212.78
360.87	212.73
361.25	212.88
361.63	213.00
362.01	213.09
362.39	213.04
362.77	213.11
363.15	213.13
363.53	213.19
363.91	213.20
364.29	213.21
364.67	212.97
365.05	213.00
365.43	213.03
365.81	213.10
366.19	213.31
366.57	213.35
366.95	213.50
367.33	213.40
367.71	213.43
368.09	213.56
368.47	213.55
368.85	213.60
369.23	213.57
369.61	213.48
369.99	213.54
370.37	213.62
370.75	213.73
371.13	213.65
371.51	213.59
371.89	213.60
372.27	213.62
372.65	213.62
373.03	213.50
373.41	213.38
373.78	213.25
374.16	212.97
374.54	212.85
374.92	212.75
375.30	212.69
375.68	212.58
376.06	212.50
376.44	212.45
376.82	212.37
377.19	212.32
377.57	212.31
377.95	212.13
378.33	212.06
378.71	211.84
379.09	211.86
379.47	211.78
379.84	211.65
380.22	211.53
380.60	211.40
380.98	211.37
381.36	211.35
381.73	211.35
382.11	211.42
382.49	211.38
382.87	211.27
383.25	211.26
383.62	211.59
384.00	211.50
384.38	211.52
384.76	211.55
385.13	211.70
385.51	211.66
385.89	211.65
386.27	211.66
386.64	211.59
387.02	211.51
387.40	211.48
387.78	211.51
388.15	211.53
388.53	211.49
388.91	211.44
389.29	211.36
389.66	211.35
390.04	211.22
390.42	211.26
390.79	211.25
391.17	211.24
391.55	210.83
391.92	210.79
392.30	210.74
392.68	210.64
393.05	210.56
393.43	210.50
393.81	210.56
394.18	210.43
394.56	210.45
394.94	210.50
395.31	210.46
395.69	210.49
396.06	210.53
396.44	210.54
396.82	210.57
397.19	210.78
397.57	210.73
397.95	210.82
398.32	210.75
398.70	210.84
399.07	210.94
399.45	210.87
399.82	210.90
400.20	210.89
400.58	210.90
400.95	210.66
401.33	210.77
401.70	210.97
402.08	211.08
402.45	211.15
402.83	211.23
403.20	211.27
403.58	211.35
403.95	211.45
404.33	211.53
404.71	211.57
405.08	211.80
405.46	211.87
405.83	211.98
406.21	212.08
406.58	212.09
406.96	212.14
407.33	212.38
407.70	212.50
408.08	212.91
408.45	213.09
408.83	213.46
409.20	213.58
409.58	213.52
409.95	213.71
410.33	213.82
410.70	213.93
411.08	214.20
411.45	214.38
411.82	214.51
412.20	214.82
412.57	215.28
412.95	215.26
413.32	215.63
413.69	215.90
414.07	216.27
414.44	216.73
414.82	217.14
415.19	217.65
415.56	218.16
415.94	218.44
416.31	219.09
416.68	219.63
417.06	220.35
417.43	221.10
417.81	221.85
418.18	222.78
418.55	223.65
418.93	224.56
419.30	225.53
419.67	226.57
420.04	227.64
420.42	228.60
420.79	230.06
421.16	231.28
421.54	232.75
421.91	234.08
422.28	235.41
422.66	236.94
423.03	238.53
423.40	240.04
423.77	241.62
424.15	243.10
424.52	244.75
424.89	246.64
425.26	248.32
425.64	250.01
426.01	251.77
426.38	253.69
426.75	255.69
427.13	257.63
427.50	259.70
427.87	261.87
428.24	264.00
428.61	265.96
428.99	268.39
429.36	270.74
429.73	273.15
430.10	275.77
430.47	278.29
430.85	280.75
431.22	283.54
431.59	286.78
431.96	289.66
432.33	292.80
432.70	295.85
433.08	299.47
433.45	302.80
433.82	306.20
434.19	309.92
434.56	313.55
434.93	317.03
435.30	320.55
435.68	324.44
436.05	328.34
436.42	331.96
436.79	335.46
437.16	339.19
437.53	343.17
437.90	347.01
438.27	350.78
438.64	354.70
439.01	358.41
439.38	361.46
439.75	364.72
440.13	368.39
440.50	371.74
440.87	374.52
441.24	377.36
441.61	380.51
441.98	382.90
442.35	385.57
442.72	388.43
443.09	391.24
443.46	392.87
443.83	393.99
444.20	395.15
444.57	396.52
444.94	397.27
445.31	398.03
445.68	399.14
446.05	399.57
446.42	399.24
446.79	398.77
447.16	398.33
447.53	398.04
447.90	396.60
448.27	395.23
448.64	393.31
449.01	392.03
449.37	389.60
449.74	387.16
450.11	384.57
450.48	381.33
450.85	377.95
451.22	375.18
451.59	372.50
451.96	369.93
452.33	366.47
452.70	363.30
453.07	359.63
453.43	355.36
453.80	351.74
454.17	348.29
454.54	345.06
454.91	341.51
455.28	337.93
455.65	334.72
456.02	331.97
456.38	329.17
456.75	325.73
457.12	322.80
457.49	320.01
457.86	317.00
458.23	314.77
458.59	312.21
458.96	309.61
459.33	307.35
459.70	305.05
460.07	303.29
460.43	301.20
460.80	299.23
461.17	297.71
461.54	295.93
461.91	294.24
462.27	292.48
462.64	291.08
463.01	289.54
463.38	288.14
463.74	286.00
464.11	284.62
464.48	283.46
464.85	282.13
465.21	281.17
465.58	280.12
465.95	278.74
466.32	277.67
466.68	276.61
467.05	275.52
467.42	274.44
467.78	273.23
468.15	272.15
468.52	271.44
468.88	270.22
469.25	269.25
469.62	268.53
469.98	267.66
470.35	266.81
470.72	266.10
471.08	265.14
471.45	264.64
471.82	264.05
472.18	263.33
472.55	262.91
472.92	262.16
473.28	261.57
473.65	260.95
474.02	260.40
474.38	259.93
474.75	259.56
475.11	259.14
475.48	258.91
475.85	258.57
476.21	258.12
476.58	257.97
476.94	257.80
477.31	257.55
477.67	257.44
478.04	257.36
478.41	257.25
478.77	257.53
479.14	257.30
479.50	257.22
479.87	257.14
480.23	257.12
480.60	257.18
480.96	257.20
481.33	257.42
481.69	257.49
482.06	257.64
482.42	257.73
482.79	257.97
483.15	258.14
483.52	258.57
483.88	258.78
484.25	259.06
484.61	259.31
484.98	259.63
485.34	260.10
485.71	260.50
486.07	260.91
486.44	261.09
486.80	261.51
487.17	262.01
487.53	262.72
487.90	263.40
488.26	264.17
488.62	264.99
488.99	265.73
489.35	266.57
489.72	267.47
490.08	268.37
490.44	269.25
490.81	270.27
491.17	271.23
491.54	272.38
491.90	273.45
492.26	274.74
492.63	275.99
492.99	277.14
493.36	278.50
493.72	279.91
494.08	281.40
494.45	283.10
494.81	284.75
495.17	286.27
495.54	288.02
495.90	289.77
496.26	291.57
496.63	293.50
496.99	295.40
497.35	297.39
497.72	299.54
498.08	301.71
498.44	303.96
498.80	306.36
499.17	308.74
499.53	311.20
499.89	313.76
500.26	316.39
500.62	319.16
500.98	321.99
501.34	324.95
501.71	327.94
502.07	330.95
502.43	333.99
502.79	337.16
503.16	340.26
503.52	343.45
503.88	346.80
504.24	350.28
504.60	353.92
504.97	357.54
505.33	361.12
505.69	365.09
506.05	369.02
506.41	372.90
506.78	376.87
507.14	380.90
507.50	385.05
507.86	389.26
508.22	393.56
508.59	397.83
508.95	402.25
509.31	406.89
509.67	411.52
510.03	416.36
510.39	421.24
510.75	426.41
511.12	431.40
511.48	436.56
511.84	441.62
512.20	446.66
512.56	451.95
512.92	457.34
513.28	462.68
513.64	467.95
514.00	473.51
514.37	479.12
514.73	484.88
515.09	490.55
515.45	496.25
515.81	502.03
516.17	507.84
516.53	513.58
516.89	519.21
517.25	525.13
517.61	531.11
517.97	537.10
518.33	542.87
518.69	548.89
519.05	554.91
519.41	561.18
519.77	567.72
520.13	573.95
520.49	579.94
520.85	586.10
521.21	592.72
521.57	599.16
521.93	605.20
522.29	611.74
522.65	618.18
523.01	624.61
523.37	630.95
523.73	637.48
524.09	644.15
524.45	650.79
524.81	657.33
525.17	663.96
525.53	670.64
525.89	677.18
526.25	683.82
526.61	690.31
526.97	696.82
527.33	703.21
527.68	710.11
528.04	716.78
528.40	723.10
528.76	729.44
529.12	736.02
529.48	743.10
529.84	749.39
530.20	756.07
530.56	762.80
530.91	769.57
531.27	776.21
531.63	782.54
531.99	789.07
532.35	795.25
532.71	801.33
533.07	807.88
533.42	814.40
533.78	820.86
534.14	827.20
534.50	833.02
534.86	839.37
535.21	844.94
535.57	851.30
535.93	857.28
536.29	863.16
536.65	868.81
537.00	874.13
537.36	879.51
537.72	884.79
538.08	890.16
538.44	895.41
538.79	900.83
539.15	906.17
539.51	911.31
539.87	916.87
540.22	922.30
540.58	927.33
540.94	932.26
541.29	937.03
541.65	941.71
542.01	946.75
542.37	951.26
542.72	955.86
543.08	960.01
543.44	964.89
543.79	968.98
544.15	973.20
544.51	977.61
544.87	982.21
545.22	986.30
545.58	990.27
545.94	993.88
546.29	997.28
546.65	1000.73
547.01	1004.09
547.36	1007.39
547.72	1010.38
548.07	1013.42
548.43	1016.26
548.79	1018.84
549.14	1021.27
549.50	1023.95
549.86	1026.20
550.21	1028.77
550.57	1031.41
550.92	1033.12
551.28	1035.09
551.64	1037.10
551.99	1039.35
552.35	1041.04
552.70	1042.86
553.06	1044.43
553.41	1046.18
553.77	1047.95
554.13	1049.86
554.48	1051.49
554.84	1052.83
555.19	1054.17
555.55	1055.27
555.90	1056.33
556.26	1057.49
556.61	1058.65
556.97	1059.30
557.32	1060.27
557.68	1060.68
558.03	1061.25
558.39	1062.02
558.74	1063.25
559.10	1063.85
559.45	1064.11
559.81	1064.81
560.16	1065.13
560.52	1065.83
560.87	1066.36
561.23	1066.57
561.58	1066.83
561.94	1067.03
562.29	1067.03
562.64	1067.35
563.00	1067.43
563.35	1067.82
563.71	1068.30
564.06	1068.54
564.42	1068.87
564.77	1069.10
565.12	1069.54
565.48	1069.79
565.83	1069.67
566.19	1069.64
566.54	1069.20
566.89	1068.92
567.25	1068.58
567.60	1068.48
567.96	1067.99
568.31	1067.63
568.66	1067.01
569.02	1066.23
569.37	1065.28
569.72	1064.64
570.08	1063.50
570.43	1062.44
570.78	1061.21
571.14	1059.65
571.49	1058.19
571.84	1056.80
572.20	1055.35
572.55	1054.01
572.90	1052.07
573.26	1050.44
573.61	1048.48
573.96	1046.91
574.31	1045.02
574.67	1042.98
575.02	1040.50
575.37	1038.24
575.72	1035.85
576.08	1033.98
576.43	1031.62
576.78	1029.57
577.13	1027.43
577.49	1025.46
577.84	1023.35
578.19	1021.36
578.54	1019.43
578.90	1017.88
579.25	1015.77
579.60	1013.41
579.95	1010.89
580.30	1008.98
580.66	1007.23
581.01	1004.95
581.36	1002.66
581.71	1000.54
582.06	998.49
582.42	996.60
582.77	994.39
583.12	992.26
583.47	990.02
583.82	987.95
584.17	985.80
584.53	983.89
584.88	981.72
585.23	979.70
585.58	977.50
585.93	975.36
586.28	973.09
586.63	971.10
586.98	969.06
587.34	967.13
587.69	964.70
588.04	962.40
588.39	960.44
588.74	957.91
589.09	955.79
589.44	953.29
589.79	951.12
590.14	949.22
590.49	946.89
590.84	944.57
591.19	942.73
591.54	940.44
591.89	937.53
592.25	935.16
592.60	932.60
592.95	930.00
593.30	927.40
593.65	924.53
594.00	921.78
594.35	920.37
594.70	917.84
595.05	915.60
595.40	913.00
595.75	910.17
596.10	908.11
596.45	905.65
596.80	903.62
597.15	901.55
597.50	898.72
597.85	896.65
598.19	894.28
598.54	891.75
598.89	889.30
599.24	887.40
599.59	885.15
599.94	883.12
600.29	880.88
600.64	878.72
600.99	876.42
601.34	874.31
601.69	870.86
602.04	868.45
602.39	866.08
602.74	863.85
603.08	862.13
603.43	860.21
603.78	857.84
604.13	855.39
604.48	852.81
604.83	851.17
605.18	849.20
605.53	846.86
605.87	844.45
606.22	842.36
606.57	840.23
606.92	837.89
607.27	835.29
607.62	832.95
607.96	830.75
608.31	828.65
608.66	826.20
609.01	823.80
609.36	821.31
609.70	818.75
610.05	816.15
610.40	813.44
610.75	810.62
611.10	808.36
611.44	805.32
611.79	802.50
612.14	799.20
612.49	795.66
612.83	792.85
613.18	789.80
613.53	786.78
613.88	783.41
614.22	780.62
614.57	777.52
614.92	774.39
615.27	771.23
615.61	768.04
615.96	765.13
616.31	762.21
616.65	759.58
617.00	756.85
617.35	754.08
617.70	751.05
618.04	747.77
618.39	744.40
618.74	741.54
619.08	738.56
619.43	735.65
619.78	732.90
620.12	729.75
620.47	726.77
620.82	723.59
621.16	720.37
621.51	717.11
621.85	714.26
622.20	711.25
622.55	707.95
622.89	704.98
623.24	701.85
623.59	698.70
623.93	695.50
624.28	692.40
624.62	689.70
624.97	686.61
625.32	683.86
625.66	680.99
626.01	678.16
626.35	675.28
626.70	672.34
627.04	669.79
627.39	667.15
627.73	664.41
628.08	661.85
628.43	659.06
628.77	656.18
629.12	653.28
629.46	650.73
629.81	648.30
630.15	645.56
630.50	642.78
630.84	639.96
631.19	637.20
631.53	634.38
631.88	631.03
632.22	628.08
632.57	625.41
632.91	622.66
633.26	620.06
633.60	617.39
633.95	614.89
634.29	611.96
634.64	609.37
634.98	606.63
635.32	604.17
635.67	601.76
636.01	599.35
636.36	596.81
636.70	594.25
637.05	591.60
637.39	589.09
637.73	586.74
638.08	584.57
638.42	582.12
638.77	579.79
639.11	577.49
639.45	575.06
639.80	572.35
640.14	569.81
640.49	567.26
640.83	564.57
641.17	562.07
641.52	559.48
641.86	556.86
642.20	554.46
642.55	551.47
642.89	548.79
643.23	546.08
643.58	543.80
643.92	541.14
644.26	538.45
644.61	535.90
644.95	533.23
645.29	530.61
645.64	528.10
645.98	525.49
646.32	522.98
646.66	520.44
647.01	518.18
647.35	515.79
647.69	513.15
648.04	510.90
648.38	508.39
648.72	505.89
649.06	503.38
649.41	500.91
649.75	498.64
650.09	496.50
650.43	494.03
650.78	491.40
651.12	488.83
651.46	486.52
651.80	484.34
652.14	482.10
652.49	479.81
652.83	477.38
653.17	474.78
653.51	472.21
653.85	469.95
654.20	467.57
654.54	465.09
654.88	462.80
655.22	460.57
655.56	458.22
655.90	455.95
656.25	453.64
656.59	451.24
656.93	449.04
657.27	446.77
657.61	444.45
657.95	442.24
658.29	440.20
658.64	438.13
658.98	435.65
659.32	433.16
659.66	430.90
660.00	428.73
660.34	426.63
660.68	424.58
661.02	422.35
661.36	420.41
661.70	418.44
662.05	416.53
662.39	414.52
662.73	412.63
663.07	410.84
663.41	408.96
663.75	407.08
664.09	405.03
664.43	403.11
664.77	401.39
665.11	399.56
665.45	397.70
665.79	395.99
666.13	394.32
666.47	392.74
666.81	390.88
667.15	389.06
667.49	387.56
667.83	386.12
668.17	384.70
668.51	383.02
668.85	381.43
669.19	379.97
669.53	378.20
669.87	376.50
670.21	374.90
670.55	373.40
670.89	372.06
671.23	370.68
671.57	369.07
671.91	367.51
672.25	366.09
672.58	364.74
672.92	363.03
673.26	361.64
673.60	360.28
673.94	358.94
674.28	357.55
674.62	356.13
674.96	354.65
675.30	353.15
675.64	351.70
675.97	350.37
676.31	348.91
676.65	347.70
676.99	346.58
677.33	345.10
677.67	343.71
678.01	342.25
678.34	340.99
678.68	339.73
679.02	338.44
679.36	337.13
679.70	335.79
680.04	334.59
680.37	333.22
680.71	331.93
681.05	330.79
681.39	329.68
681.73	328.52
682.06	327.40
682.40	326.29
682.74	325.17
683.08	324.10
683.42	322.94
683.75	321.85
684.09	320.56
684.43	319.54
684.77	318.42
685.10	317.35
685.44	316.22
685.78	315.16
686.12	314.23
686.45	313.15
686.79	312.09
687.13	311.11
687.46	310.15
687.80	309.13
688.14	308.01
688.48	307.00
688.81	305.95
689.15	304.92
689.49	303.89
689.82	302.92
690.16	301.74
690.50	300.72
690.83	299.75
691.17	298.73
691.51	297.74
691.84	296.78
692.18	295.79
692.52	294.85
692.85	293.95
693.19	293.10
693.52	292.23
693.86	291.36
694.20	290.51
694.53	289.66
694.87	288.80
695.21	288.01
695.54	287.13
695.88	286.24
696.21	285.36
696.55	284.62
696.88	283.78
697.22	282.92
697.56	282.16
697.89	281.22
698.23	280.50
698.56	279.71
698.90	279.06
699.23	278.25
699.57	277.50
699.90	276.69
700.24	275.76
700.58	275.01
700.91	274.26
701.25	273.82
701.58	273.17
701.92	272.46
702.25	271.82
702.59	271.01
702.92	270.39
703.26	269.70
703.59	269.01
703.93	268.71
704.26	268.24
704.60	267.55
704.93	266.97
705.26	266.31
705.60	265.83
705.93	265.20
706.27	264.76
706.60	264.29
706.94	263.91
707.27	263.35
707.61	262.68
707.94	262.09
708.27	261.22
708.61	260.60
708.94	260.05
709.28	259.50
709.61	259.00
709.94	258.48
710.28	258.02
710.61	257.53
710.95	256.61
711.28	256.33
711.61	255.90
711.95	255.56
712.28	255.08
712.61	254.58
712.95	254.25
713.28	253.86
713.61	253.33
713.95	252.72
714.28	252.31
714.61	251.97
714.95	251.58
715.28	251.13
715.61	250.67
715.95	250.24
716.28	249.79
716.61	249.45
716.95	249.00
717.28	248.64
717.61	248.25
717.94	247.90
718.28	247.20
718.61	246.79
718.94	246.36
719.27	245.98
719.61	245.60
719.94	245.16
720.27	244.68
720.60	244.34
720.94	244.00
721.27	243.65
721.60	243.36
721.93	242.99
722.27	242.74
722.60	242.45
722.93	242.14
723.26	241.79
723.59	241.45
723.93	241.10
724.26	240.69
724.59	240.39
724.92	240.10
725.25	240.01
725.59	239.78
725.92	239.48
726.25	239.15
726.58	238.84
726.91	238.52
727.24	238.29
727.57	237.94
727.91	237.65
728.24	237.41
728.57	237.14
728.90	236.90
729.23	236.58
729.56	236.56
729.89	236.30
730.22	236.02
730.55	235.76
730.89	235.54
731.22	235.34
731.55	235.05
731.88	234.77
732.21	234.33
732.54	233.96
732.87	233.68
733.20	233.52
733.53	233.29
733.86	233.07
734.19	232.75
734.52	232.56
734.85	232.61
735.18	232.30
735.51	232.18
735.84	232.02
736.17	231.89
736.50	231.43
736.83	231.67
737.16	231.46
737.49	231.26
737.82	231.00
738.15	230.77
738.48	230.54
738.81	230.33
739.14	230.06
739.47	229.91
739.80	229.66
740.13	229.50
740.46	229.27
740.79	228.99
741.12	228.83
741.45	228.69
741.78	228.30
742.11	228.30
742.44	227.96
742.77	227.81
743.10	227.54
743.43	227.37
743.75	226.77
744.08	227.10
744.41	226.89
744.74	226.76
745.07	226.66
745.40	226.56
745.73	226.54
746.06	226.48
746.39	226.35
746.71	226.23
747.04	226.03
747.37	225.89
747.70	225.85
748.03	225.70
748.36	225.59
748.68	225.41
749.01	225.12
749.34	224.98
749.67	224.87
750.00	224.75
750.33	224.80
750.65	224.71
750.98	224.15
751.31	224.08
751.64	223.96
751.97	223.97
752.29	223.84
752.62	223.58
752.95	223.48
753.28	223.29
753.60	223.20
753.93	223.19
754.26	223.09
754.59	222.77
754.91	222.58
755.24	222.40
755.57	222.29
755.90	222.26
756.22	222.16
756.55	221.96
756.88	221.83
757.20	221.55
757.53	221.32
757.86	221.20
758.19	221.10
758.51	220.98
758.84	220.64
759.17	220.50
759.49	220.39
759.82	220.44
760.15	220.31
760.47	220.10
760.80	219.90
761.13	219.87
761.45	219.80
761.78	219.77
762.11	219.68
762.43	219.52
762.76	219.37
763.08	219.32
763.41	219.27
763.74	219.17
764.06	219.11
764.39	219.07
764.71	218.91
765.04	218.82
765.37	218.69
765.69	218.67
766.02	218.50
766.34	218.49
766.67	218.25
767.00	218.26
767.32	218.33
767.65	218.41
767.97	218.26
768.30	218.27
768.62	218.15
768.95	218.03
769.27	217.99
769.60	218.05
769.92	217.93
770.25	217.85
770.57	217.77
770.90	217.67
771.22	217.58
771.55	217.52
771.87	217.50
772.20	217.48
772.52	217.65
772.85	218.10
773.17	218.08
773.50	218.04
773.82	217.96
774.15	217.79
774.47	217.52
774.80	217.38
775.12	217.37
775.45	217.34
775.77	217.37
776.09	217.34
776.42	217.18
776.74	217.22
777.07	217.17
777.39	217.12
777.72	217.06
778.04	217.07
778.36	217.06
778.69	217.06
779.01	217.00
779.33	216.71
779.66	216.26
779.98	216.19
780.31	216.10
780.63	216.19
780.95	216.27
781.28	216.25
781.60	216.27
781.92	216.18
782.25	216.15
782.57	216.09
782.89	215.97
783.22	215.93
783.54	215.79
783.86	215.71
784.19	215.68
784.51	215.69
784.83	215.52
785.16	215.50
785.48	215.40
785.80	215.36
786.12	215.34
786.45	215.29
786.77	215.25
787.09	215.18
787.42	214.94
787.74	214.87
788.06	214.86
788.38	214.79
788.71	214.68
789.03	214.66
789.35	214.68
789.67	214.63
789.99	214.66
790.32	214.56
790.64	214.57
790.96	214.82
791.28	214.70
791.61	214.69
791.93	214.55
792.25	214.45
792.57	214.64
792.89	214.48
793.21	214.51
793.54	214.34
793.86	214.33
794.18	214.39
794.50	214.29
794.82	214.22
795.14	214.21
795.47	214.30
795.79	214.28
796.11	214.21
796.43	214.19
796.75	214.09
797.07	214.07
797.39	214.04
797.71	213.82
798.04	213.75
798.36	213.83
798.68	213.88
799.00	213.93
799.32	213.82
799.64	213.83
799.96	213.80
800.28	213.86
800.60	213.84
800.92	213.83
801.24	213.75
801.56	213.81
801.89	213.83
802.21	213.76
802.53	213.71
802.85	213.74
803.17	213.90
803.49	213.85
803.81	213.85
804.13	213.89
804.45	213.76
804.77	213.86
805.09	213.82
805.41	213.77
805.73	213.64
806.05	213.59
806.37	213.55
806.69	213.48
807.01	213.54
807.33	213.57
807.65	213.43
807.97	213.65
808.28	213.58
808.60	213.51
808.92	213.54
809.24	213.66
809.56	213.57
809.88	213.42
810.20	213.41
810.52	213.47
810.84	213.32
811.16	213.32
811.48	213.24
811.80	213.31
812.12	213.21
812.43	213.34
812.75	213.27
813.07	213.29
813.39	213.32
813.71	213.19
814.03	213.07
814.35	213.05
814.67	212.84
814.98	212.75
815.30	212.74
815.62	212.68
815.94	212.49
816.26	212.46
816.58	212.44
816.89	212.47
817.21	212.40
817.53	212.36
817.85	212.37
818.17	212.40
818.48	212.29
818.80	212.41
819.12	212.30
819.44	212.24
819.76	212.20
820.07	212.17
820.39	212.15
820.71	212.23
821.03	212.27
821.34	212.25
821.66	212.34
821.98	212.35
822.30	212.30
822.61	212.43
822.93	212.40
823.25	212.34
823.57	212.34
823.88	212.41
824.20	212.43
824.52	212.47
824.83	212.46
825.15	212.33
825.47	212.31
825.79	212.37
826.10	212.32
826.42	212.26
826.74	212.30
827.05	212.32
827.37	212.35
827.69	212.30
828.00	212.38
828.32	212.40
828.64	212.40
828.95	212.56
829.27	212.46
829.58	212.47
829.90	212.53
830.22	212.56
830.53	212.44
830.85	212.48
831.17	212.40
831.48	212.36
831.80	212.50
832.11	212.39
832.43	212.29
832.75	212.33
833.06	212.58
833.38	212.45
833.69	212.37
834.01	212.33
834.32	212.35
834.64	212.28
834.96	212.23
835.27	212.17
835.59	212.06
835.90	212.05
836.22	212.06
836.53	212.05
836.85	211.96
837.16	212.30
837.48	212.25
837.79	212.29
838.11	212.29
838.42	212.20
838.74	212.31
839.05	212.29
839.37	212.31
839.68	212.04
840.00	212.04
840.31	212.12
840.63	212.06
840.94	211.96
841.26	211.91
841.57	211.87
841.88	211.82
842.20	211.73
842.51	211.69
842.83	211.69
843.14	211.94
843.46	211.99
843.77	211.80
844.08	211.70
844.40	211.66
844.71	211.54
845.03	211.53
845.34	211.47
845.65	211.47
845.97	211.46
846.28	211.57
846.60	211.61
846.91	211.52
847.22	211.52
847.54	211.67
847.85	211.70
848.16	211.62
848.48	211.67
848.79	211.84
849.10	211.87
849.42	211.84
849.73	211.53
850.04	211.46
850.36	211.33
850.67	211.47
850.98	211.46
851.30	211.62
851.61	211.63
851.92	211.68
852.23	211.83
852.55	211.77
852.86	211.78
853.17	211.82
853.49	211.95
853.80	212.05
854.11	212.08
854.42	212.15
854.74	212.20
855.05	212.27
855.36	212.12
855.67	212.12
855.99	212.14
856.30	212.55
856.61	212.52
856.92	212.52
857.23	212.49
857.55	212.45
857.86	212.35
858.17	212.36
858.48	212.26
858.79	212.14
859.11	212.22
859.42	212.12
859.73	212.06
860.04	211.90
860.35	211.78
860.66	211.58
860.98	211.54
861.29	211.61
861.60	211.50
861.91	211.50
862.22	211.49
862.53	211.42
862.84	210.98
863.16	211.13
863.47	211.06
863.78	211.03
864.09	211.01
864.40	211.07
864.71	211.01
865.02	211.03
865.33	211.02
865.64	210.93
865.95	210.93
866.27	211.15
866.58	211.20
866.89	211.25
867.20	211.30
867.51	211.21
867.82	211.15
868.13	211.26
868.44	211.17
868.75	211.13
869.06	211.15
869.37	211.19
869.68	211.07
869.99	211.07
870.30	211.11
870.61	211.14
870.92	211.10
871.23	211.14
871.54	211.22
871.85	211.32
872.16	211.35
872.47	211.31
872.78	211.07
873.09	211.05
873.40	211.02
873.71	211.07
874.02	211.14
874.33	211.10
874.64	211.00
874.95	211.05
875.26	211.04
875.56	211.03
875.87	211.00
876.18	210.95
876.49	211.32
876.80	211.29
877.11	211.24
877.42	211.21
877.73	211.17
878.04	211.12
878.35	211.08
878.66	211.10
878.96	211.11
879.27	211.15
879.58	211.14
879.89	211.07
880.20	211.16
880.51	211.11
880.82	211.11
881.12	211.15
881.43	211.11
881.74	211.07
882.05	211.06
882.36	211.09
882.67	211.10
882.97	210.68
883.28	210.70
883.59	210.71
883.90	210.86
884.21	211.00
884.51	210.95
884.82	210.88
885.13	210.87
885.44	210.90
885.74	210.89
886.05	210.91
886.36	210.97
886.67	210.86
886.98	211.01
887.28	211.03
887.59	211.03
887.90	211.05
888.20	211.02
888.51	211.09
888.82	211.05
889.13	211.15
889.43	211.44
889.74	211.42
890.05	211.43
890.35	211.30
890.66	211.19
890.97	211.23
891.28	211.22
891.58	211.27
891.89	211.24
892.20	211.21
892.50	211.23
892.81	211.20
893.12	211.19
893.42	211.03
893.73	211.08
894.04	211.08
894.34	211.10
894.65	211.20
894.95	211.17
895.26	211.20
895.57	211.30
895.87	211.05
896.18	211.03
896.48	211.00
896.79	211.03
897.10	211.08
897.40	211.14
897.71	211.16
898.01	211.07
898.32	211.14
898.63	211.08
898.93	211.12
899.24	211.18
899.54	211.17
899.85	211.18
900.15	211.17
900.46	211.16
900.76	211.30
901.07	211.24
901.38	211.28
901.68	211.33
901.99	211.21
902.29	211.20
902.60	211.25
902.90	211.29
903.21	211.32
903.51	211.31
903.82	211.34
904.12	211.38
904.43	211.43
904.73	211.36
905.03	211.44
905.34	211.76
905.64	211.72
905.95	211.73
906.25	211.79
906.56	211.75
906.86	211.77
907.17	211.65
907.47	211.65
907.77	211.66
908.08	211.60
908.38	211.64
908.69	211.72
908.99	211.82
909.30	211.92
909.60	211.85
909.90	211.88
910.21	211.80
910.51	211.77
910.81	211.84
911.12	211.92
911.42	211.90
911.73	211.53
912.03	211.60
912.33	211.68
912.64	211.65
912.94	211.69
913.24	211.63
913.55	211.65
913.85	211.61
914.15	211.57
914.46	211.65
914.76	211.61
915.06	211.60
915.37	211.54
915.67	211.47
915.97	211.47
916.27	211.39
916.58	211.36
916.88	211.30
917.18	211.17
917.49	211.37
917.79	211.43
918.09	211.45
918.39	211.48
918.70	211.38
919.00	211.44
919.30	211.52
919.60	211.54
919.91	211.48
920.21	211.51
920.51	211.42
920.81	211.37
921.12	211.39
921.42	211.33
921.72	211.29
922.02	211.32
922.32	211.39
922.63	211.41
922.93	211.55
923.23	211.66
923.53	211.66
923.83	211.40
924.13	211.36
924.44	211.38
924.74	211.42
925.04	211.50
925.34	211.38
925.64	211.23
925.94	211.30
926.24	211.49
926.55	211.51
926.85	211.62
927.15	211.58
927.45	211.58
927.75	211.60
928.05	211.60
928.35	211.49
928.65	211.53
928.95	211.60
929.26	211.47
929.56	211.50
929.86	211.53
930.16	211.60
930.46	211.63
930.76	211.65
931.06	211.52
931.36	211.45
931.66	211.53
931.96	211.55
932.26	211.45
932.56	211.28
932.86	211.30
933.16	211.37
933.46	211.35
933.76	211.27
934.06	211.33
934.36	211.45
934.66	211.45
934.96	211.36
935.26	211.28
935.56	211.36
935.86	211.23
936.16	211.24
936.46	211.10
936.76	211.08
937.06	211.05
937.36	211.05
937.66	211.00
937.96	211.01
938.26	211.03
938.56	211.05
938.86	211.04
939.16	211.10
939.46	211.07
939.76	211.08
940.06	211.07
940.35	211.05
940.65	210.90
940.95	210.97
941.25	210.89
941.55	210.91
941.85	210.86
942.15	210.90
942.45	210.99
942.75	211.06
943.04	211.03
943.34	211.05
943.64	211.10
943.94	211.08
944.24	211.11
944.54	211.10
944.84	211.14
945.13	211.17
945.43	211.11
945.73	210.97
946.03	211.03
946.33	211.02
946.62	210.94
946.92	210.88
947.22	210.91
947.52	210.99
947.82	210.98
948.11	211.01
948.41	210.98
948.71	210.88
949.01	210.86
949.31	210.83
949.60	210.82
949.90	210.72
950.20	210.70
950.50	210.64
950.79	210.60
951.09	210.64
951.39	210.62
951.69	210.53
951.98	210.76
952.28	210.74
952.58	210.79
952.87	210.77
953.17	210.78
953.47	210.75
953.76	210.74
954.06	210.68
954.36	210.64
954.66	210.60
954.95	210.68
955.25	210.64
955.55	210.71
955.84	210.65
956.14	210.75
956.44	210.75
956.73	210.70
957.03	210.72
957.32	210.69
957.62	210.66
957.92	210.69
958.21	210.57
958.51	210.99
958.81	210.99
959.10	211.02
959.40	211.20
959.69	211.10
959.99	211.12
960.29	211.20
960.58	211.13
960.88	211.31
961.17	211.29
961.47	211.37
961.76	211.34
962.06	211.41
962.36	211.32
962.65	211.35
962.95	211.40
963.24	211.33
963.54	211.30
963.83	211.31
964.13	211.28
964.42	211.17
964.72	210.87
965.01	210.92
965.31	210.92
965.60	210.86
965.90	211.10
966.19	211.03
966.49	211.03
966.78	211.06
967.08	210.99
967.37	210.96
967.67	210.90
967.96	210.95
968.26	210.85
968.55	210.92
968.85	210.93
969.14	210.97
969.43	211.02
969.73	210.99
970.02	211.00
970.32	211.04
970.61	211.03
970.91	210.84
971.20	210.75
971.49	210.64
971.79	210.65
972.08	210.48
972.38	210.53
972.67	210.49
972.96	210.54
973.26	210.51
973.55	210.57
973.85	210.58
974.14	210.53
974.43	210.64
974.73	210.60
975.02	210.55
975.31	210.52
975.61	210.49
975.90	210.52
976.19	210.49
976.49	210.54
976.78	210.55
977.07	210.60
977.37	210.60
977.66	210.70
977.95	210.63
978.24	210.68
978.54	210.70
978.83	210.69
979.12	210.72
979.42	210.67
979.71	210.70
980.00	210.62
980.29	210.67
980.59	210.56
980.88	210.64
981.17	210.63
981.46	210.66
981.76	210.75
982.05	210.81
982.34	210.85
982.63	210.88
982.93	210.97
983.22	211.01
983.51	211.12
983.80	211.19
984.09	211.25
984.39	211.16
984.68	211.18
984.97	211.20
985.26	211.10
985.55	211.13
985.85	211.06
986.14	211.17
986.43	211.14
986.72	211.18
987.01	211.09
987.30	211.12
987.59	211.07
987.89	211.03
988.18	210.94
988.47	210.93
988.76	210.92
989.05	210.87
989.34	210.77
989.63	210.87
989.92	210.77
990.22	210.77
990.51	210.77
990.80	210.73
991.09	210.78
991.38	210.81
991.67	210.83
991.96	210.78
992.25	210.80
992.54	210.82
992.83	210.85
993.12	210.82
993.41	210.84
993.70	211.02
993.99	211.07
994.28	211.15
994.58	211.20
994.87	211.14
995.16	211.16
995.45	211.24
995.74	211.07
996.03	211.19
996.32	211.22
996.61	211.30
996.90	211.25
997.19	211.22
997.48	211.26
997.77	211.10
998.06	211.16
998.34	211.12
998.63	211.10
998.92	211.14
999.21	211.19
999.50	211.21
999.79	211.03
1000.08	211.04
1000.37	211.05
1000.66	210.99
1000.95	211.08
1001.24	211.04
1001.53	211.11
1001.82	211.05
1002.11	210.95
1002.40	211.01
1002.68	211.06
1002.97	211.36
1003.26	211.36
1003.55	211.27
1003.84	211.38
1004.13	211.52
1004.42	211.47
1004.71	211.50
1004.99	211.47
1005.28	211.62
1005.57	211.62
1005.86	211.61
1006.15	211.60
1006.44	211.50
1006.72	211.50
1007.01	211.46
1007.30	211.49
1007.59	211.42
1007.88	211.43
1008.17	211.48
1008.45	211.33
1008.74	211.24
1009.03	211.07
1009.32	210.99
1009.60	210.99
1009.89	210.96
1010.18	210.80
1010.47	210.89
1010.76	210.76
1011.04	210.70
1011.33	210.69
1011.62	210.73
1011.91	210.79
1012.19	210.88
1012.48	210.92
1012.77	210.99
1013.05	211.16
1013.34	211.18
1013.63	211.15
1013.92	211.22
1014.20	211.21
1014.49	211.27
1014.78	211.28
1015.06	211.21
1015.35	211.18
1015.64	211.24
1015.92	211.31
1016.21	211.34
1016.50	211.25
1016.78	211.44
1017.07	211.49
1017.36	211.36
1017.64	211.36
1017.93	211.37
1018.22	211.25
1018.50	211.25
1018.79	211.18
1019.08	210.97
1019.36	210.97
1019.65	210.99
1019.93	211.04
1020.22	211.09
1020.51	211.23
1020.79	211.20
1021.08	210.85
1021.36	210.75
1021.65	210.45
1021.94	210.50
1022.22	211.00
1022.51	210.85
1022.79	212.65
1023.08	211.80
1023.36	214.80
1023.65	210.30
>>>>>End Processed Spectral Data<<<<<
