SpectraSuite Data File
++++++++++++++++++++++++++++++++++++
Date: Mon Feb 25 17:07:00 EST 2013
User: group
Dark Spectrum Present: No
Reference Spectrum Present: No
Number of Sampled Component Spectra: 1
Spectrometers: USB2E7196
Integration Time (usec): 104000 (USB2E7196)
Spectra Averaged: 20 (USB2E7196)
Boxcar Smoothing: 10 (USB2E7196)
Correct for Electrical Dark: No (USB2E7196)
Strobe/Lamp Enabled: No (USB2E7196)
Correct for Detector Non-linearity: No (USB2E7196)
Correct for Stray Light: No (USB2E7196)
Number of Pixels in Processed Spectrum: 2048
>>>>>Begin Processed Spectral Data<<<<<
339.09	0.00
339.48	199.05
339.86	200.50
340.24	201.80
340.63	202.20
341.01	209.90
341.39	206.75
341.78	209.30
342.16	209.40
342.54	209.25
342.93	198.79
343.31	208.80
343.69	209.38
344.07	209.81
344.46	210.30
344.84	210.66
345.22	210.71
345.60	210.93
345.99	210.98
346.37	211.04
346.75	211.09
347.13	211.14
347.52	211.15
347.90	211.30
348.28	211.31
348.66	211.36
349.05	211.14
349.43	211.30
349.81	211.37
350.19	211.28
350.57	211.26
350.96	211.28
351.34	211.36
351.72	211.36
352.10	211.39
352.48	211.40
352.87	211.47
353.25	211.43
353.63	211.42
354.01	211.48
354.39	211.53
354.77	211.57
355.15	211.72
355.54	211.68
355.92	211.65
356.30	211.63
356.68	211.90
357.06	212.00
357.44	211.91
357.82	211.91
358.20	211.98
358.58	211.97
358.97	212.05
359.35	212.13
359.73	212.22
360.11	212.29
360.49	212.36
360.87	212.46
361.25	212.61
361.63	212.84
362.01	212.94
362.39	212.94
362.77	212.99
363.15	212.95
363.53	212.97
363.91	213.01
364.29	213.08
364.67	212.74
365.05	212.77
365.43	212.82
365.81	212.81
366.19	213.05
366.57	213.19
366.95	213.17
367.33	213.09
367.71	213.09
368.09	213.14
368.47	213.15
368.85	213.07
369.23	213.10
369.61	212.95
369.99	212.99
370.37	213.07
370.75	213.20
371.13	213.13
371.51	213.14
371.89	213.12
372.27	213.14
372.65	213.22
373.03	213.20
373.41	213.15
373.78	213.13
374.16	212.88
374.54	212.80
374.92	212.72
375.30	212.73
375.68	212.61
376.06	212.58
376.44	212.43
376.82	212.46
377.19	212.36
377.57	212.26
377.95	212.07
378.33	212.02
378.71	211.82
379.09	211.85
379.47	211.84
379.84	211.80
380.22	211.64
380.60	211.50
380.98	211.36
381.36	211.32
381.73	211.22
382.11	211.22
382.49	211.11
382.87	211.10
383.25	211.03
383.62	211.36
384.00	211.26
384.38	211.15
384.76	211.12
385.13	211.25
385.51	211.24
385.89	211.19
386.27	211.11
386.64	211.12
387.02	211.05
387.40	210.93
387.78	210.90
388.15	210.89
388.53	210.84
388.91	210.85
389.29	210.83
389.66	210.83
390.04	210.78
390.42	210.88
390.79	210.83
391.17	210.78
391.55	210.46
391.92	210.46
392.30	210.61
392.68	210.52
393.05	210.52
393.43	210.45
393.81	210.44
394.18	210.35
394.56	210.33
394.94	210.39
395.31	210.44
395.69	210.54
396.06	210.64
396.44	210.60
396.82	210.55
397.19	210.69
397.57	210.72
397.95	210.80
398.32	210.72
398.70	210.75
399.07	210.87
399.45	210.85
399.82	210.86
400.20	210.78
400.58	210.77
400.95	210.57
401.33	210.71
401.70	211.01
402.08	211.11
402.45	211.17
402.83	211.20
403.20	211.14
403.58	211.14
403.95	211.21
404.33	211.41
404.71	211.54
405.08	211.77
405.46	211.89
405.83	211.90
406.21	211.90
406.58	211.99
406.96	212.10
407.33	212.30
407.70	212.46
408.08	212.94
408.45	213.17
408.83	213.48
409.20	213.58
409.58	213.58
409.95	213.77
410.33	213.97
410.70	214.18
411.08	214.55
411.45	214.78
411.82	215.02
412.20	215.41
412.57	215.93
412.95	216.00
413.32	216.33
413.69	216.76
414.07	217.26
414.44	217.78
414.82	218.27
415.19	218.77
415.56	219.35
415.94	219.77
416.31	220.51
416.68	221.22
417.06	222.06
417.43	222.94
417.81	223.86
418.18	224.75
418.55	225.72
418.93	226.77
419.30	227.93
419.67	229.05
420.04	230.09
420.42	231.17
420.79	232.82
421.16	234.33
421.54	235.98
421.91	237.53
422.28	239.04
422.66	240.69
423.03	242.57
423.40	244.23
423.77	246.04
424.15	247.82
424.52	249.72
424.89	251.86
425.26	253.79
425.64	255.68
426.01	257.77
426.38	259.97
426.75	262.22
427.13	264.54
427.50	266.96
427.87	269.54
428.24	272.15
428.61	274.42
428.99	277.15
429.36	279.83
429.73	282.80
430.10	285.77
430.47	288.68
430.85	291.59
431.22	294.83
431.59	298.49
431.96	301.78
432.33	305.42
432.70	308.95
433.08	313.16
433.45	317.18
433.82	321.14
434.19	325.52
434.56	329.90
434.93	333.92
435.30	338.12
435.68	342.76
436.05	347.27
436.42	351.75
436.79	355.94
437.16	360.37
437.53	364.93
437.90	369.60
438.27	374.25
438.64	378.99
439.01	383.52
439.38	387.17
439.75	391.08
440.13	395.45
440.50	399.48
440.87	402.82
441.24	406.24
441.61	410.21
441.98	413.09
442.35	416.42
442.72	419.94
443.09	423.35
443.46	425.29
443.83	426.66
444.20	427.85
444.57	429.44
444.94	430.46
445.31	431.47
445.68	432.61
446.05	433.15
446.42	432.84
446.79	432.42
447.16	432.14
447.53	431.90
447.90	430.31
448.27	428.84
448.64	426.69
449.01	425.34
449.37	422.48
449.74	419.73
450.11	416.54
450.48	412.74
450.85	408.81
451.22	405.54
451.59	402.51
451.96	399.56
452.33	395.78
452.70	392.13
453.07	387.80
453.43	383.10
453.80	378.84
454.17	374.76
454.54	370.80
454.91	366.61
455.28	362.43
455.65	358.64
456.02	355.33
456.38	352.07
456.75	347.98
457.12	344.57
457.49	341.30
457.86	337.93
458.23	335.30
458.59	332.24
458.96	329.24
459.33	326.50
459.70	323.79
460.07	321.45
460.43	318.96
460.80	316.63
461.17	314.65
461.54	312.50
461.91	310.55
462.27	308.58
462.64	306.80
463.01	304.84
463.38	303.08
463.74	300.73
464.11	298.98
464.48	297.48
464.85	295.83
465.21	294.60
465.58	293.35
465.95	291.68
466.32	290.42
466.68	289.09
467.05	287.85
467.42	286.61
467.78	285.32
468.15	284.08
468.52	283.13
468.88	281.83
469.25	280.60
469.62	279.65
469.98	278.66
470.35	277.72
470.72	276.93
471.08	275.88
471.45	275.10
471.82	274.40
472.18	273.47
472.55	272.87
472.92	272.02
473.28	271.19
473.65	270.47
474.02	269.83
474.38	269.34
474.75	268.87
475.11	268.29
475.48	267.83
475.85	267.43
476.21	267.00
476.58	266.66
476.94	266.46
477.31	266.13
477.67	265.85
478.04	265.62
478.41	265.42
478.77	265.61
479.14	265.38
479.50	265.19
479.87	265.21
480.23	265.18
480.60	265.07
480.96	264.97
481.33	265.14
481.69	265.15
482.06	265.21
482.42	265.20
482.79	265.38
483.15	265.40
483.52	265.55
483.88	265.66
484.25	265.83
484.61	266.03
484.98	266.20
485.34	266.61
485.71	266.86
486.07	267.14
486.44	267.05
486.80	267.36
487.17	267.79
487.53	268.18
487.90	268.52
488.26	269.25
488.62	269.89
488.99	270.33
489.35	270.92
489.72	271.47
490.08	272.07
490.44	272.64
490.81	273.50
491.17	274.22
491.54	275.06
491.90	275.92
492.26	276.69
492.63	277.66
492.99	278.38
493.36	279.37
493.72	280.51
494.08	281.65
494.45	282.81
494.81	283.93
495.17	285.14
495.54	286.40
495.90	287.58
496.26	288.72
496.63	290.10
496.99	291.38
497.35	292.67
497.72	294.06
498.08	295.47
498.44	296.87
498.80	298.38
499.17	299.90
499.53	301.41
499.89	303.13
500.26	304.64
500.62	306.26
500.98	307.89
501.34	309.49
501.71	311.29
502.07	312.97
502.43	314.62
502.79	316.16
503.16	317.86
503.52	319.47
503.88	321.21
504.24	322.92
504.60	324.73
504.97	326.65
505.33	328.37
505.69	330.45
506.05	332.36
506.41	334.22
506.78	336.01
507.14	337.67
507.50	339.49
507.86	341.49
508.22	343.44
508.59	345.33
508.95	347.30
509.31	349.12
509.67	351.10
510.03	353.12
510.39	355.20
510.75	357.21
511.12	359.26
511.48	361.28
511.84	363.24
512.20	365.25
512.56	367.28
512.92	369.43
513.28	371.38
513.64	373.41
514.00	375.48
514.37	377.67
514.73	380.02
515.09	382.14
515.45	384.13
515.81	386.27
516.17	388.41
516.53	390.55
516.89	392.68
517.25	394.81
517.61	396.99
517.97	399.27
518.33	401.52
518.69	403.71
519.05	406.09
519.41	408.55
519.77	411.18
520.13	413.59
520.49	415.96
520.85	418.36
521.21	420.99
521.57	423.50
521.93	425.87
522.29	428.47
522.65	431.09
523.01	433.64
523.37	436.22
523.73	439.01
524.09	441.57
524.45	444.30
524.81	447.05
525.17	449.79
525.53	452.58
525.89	455.59
526.25	458.43
526.61	461.10
526.97	463.90
527.33	466.55
527.68	469.89
528.04	472.89
528.40	475.87
528.76	478.69
529.12	481.84
529.48	484.93
529.84	488.00
530.20	491.15
530.56	494.48
530.91	497.80
531.27	500.96
531.63	504.32
531.99	507.62
532.35	510.95
532.71	514.24
533.07	517.57
533.42	521.16
533.78	524.55
534.14	528.13
534.50	531.31
534.86	534.88
535.21	537.71
535.57	541.29
535.93	544.63
536.29	548.31
536.65	551.65
537.00	555.12
537.36	558.45
537.72	561.65
538.08	565.00
538.44	568.24
538.79	571.60
539.15	574.97
539.51	578.38
539.87	581.75
540.22	585.20
540.58	588.68
540.94	591.61
541.29	594.90
541.65	597.99
542.01	601.52
542.37	604.57
542.72	607.92
543.08	610.91
543.44	614.33
543.79	617.15
544.15	620.27
544.51	623.50
544.87	626.75
545.22	629.92
545.58	632.95
545.94	635.91
546.29	639.00
546.65	641.76
547.01	644.44
547.36	647.51
547.72	650.40
548.07	652.98
548.43	655.62
548.79	658.32
549.14	661.03
549.50	663.59
549.86	666.07
550.21	668.60
550.57	671.29
550.92	673.43
551.28	675.83
551.64	678.10
551.99	680.55
552.35	682.64
552.70	684.76
553.06	686.98
553.41	689.20
553.77	691.28
554.13	693.34
554.48	695.70
554.84	697.66
555.19	699.69
555.55	701.85
555.90	703.77
556.26	705.50
556.61	707.36
556.97	709.00
557.32	710.81
557.68	712.31
558.03	713.77
558.39	715.49
558.74	717.32
559.10	719.00
559.45	720.50
559.81	722.24
560.16	723.79
560.52	725.25
560.87	726.62
561.23	727.68
561.58	729.42
561.94	730.52
562.29	731.56
562.64	732.67
563.00	733.73
563.35	735.01
563.71	736.38
564.06	737.38
564.42	738.75
564.77	739.96
565.12	741.37
565.48	742.81
565.83	743.91
566.19	744.95
566.54	745.86
566.89	746.55
567.25	747.60
567.60	748.74
567.96	749.90
568.31	750.89
568.66	751.71
569.02	752.02
569.37	752.38
569.72	753.09
570.08	753.48
570.43	753.83
570.78	753.99
571.14	754.13
571.49	754.39
571.84	754.47
572.20	754.43
572.55	754.57
572.90	754.15
573.26	753.95
573.61	753.57
573.96	753.38
574.31	753.06
574.67	752.26
575.02	751.41
575.37	750.62
575.72	749.75
576.08	749.33
576.43	748.68
576.78	748.38
577.13	747.69
577.49	747.18
577.84	746.51
578.19	746.20
578.54	745.76
578.90	745.46
579.25	744.72
579.60	744.08
579.95	743.05
580.30	742.56
580.66	741.93
581.01	741.24
581.36	740.30
581.71	739.48
582.06	738.93
582.42	738.27
582.77	737.35
583.12	736.68
583.47	735.87
583.82	735.41
584.17	734.68
584.53	733.93
584.88	733.13
585.23	732.48
585.58	731.49
585.93	730.46
586.28	729.45
586.63	728.87
586.98	727.97
587.34	727.39
587.69	726.25
588.04	725.24
588.39	724.21
588.74	723.19
589.09	722.51
589.44	721.29
589.79	720.47
590.14	719.59
590.49	718.63
590.84	717.54
591.19	716.44
591.54	715.25
591.89	713.93
592.25	712.95
592.60	711.40
592.95	710.25
593.30	708.94
593.65	707.60
594.00	705.97
594.35	705.76
594.70	704.21
595.05	703.07
595.40	701.86
595.75	700.31
596.10	699.22
596.45	697.96
596.80	696.86
597.15	695.62
597.50	694.17
597.85	692.93
598.19	691.50
598.54	690.30
598.89	688.97
599.24	687.90
599.59	686.47
599.94	685.61
600.29	684.33
600.64	683.21
600.99	681.81
601.34	680.85
601.69	678.46
602.04	677.21
602.39	675.78
602.74	674.53
603.08	673.69
603.43	672.63
603.78	671.23
604.13	670.01
604.48	668.73
604.83	667.88
605.18	666.95
605.53	665.94
605.87	664.45
606.22	663.50
606.57	662.25
606.92	660.95
607.27	659.49
607.62	658.12
607.96	657.11
608.31	656.13
608.66	654.60
609.01	653.31
609.36	651.79
609.70	650.34
610.05	648.76
610.40	647.27
610.75	645.61
611.10	644.19
611.44	642.38
611.79	640.52
612.14	638.50
612.49	636.35
612.83	634.59
613.18	632.87
613.53	630.93
613.88	628.96
614.22	627.00
614.57	625.01
614.92	623.20
615.27	621.15
615.61	619.08
615.96	617.32
616.31	615.47
616.65	613.85
617.00	612.08
617.35	610.17
617.70	608.11
618.04	606.03
618.39	603.97
618.74	602.11
619.08	600.25
619.43	598.31
619.78	596.47
620.12	594.41
620.47	592.51
620.82	590.14
621.16	588.16
621.51	586.40
621.85	584.56
622.20	582.49
622.55	580.19
622.89	578.10
623.24	576.04
623.59	573.90
623.93	571.82
624.28	569.82
624.62	568.11
624.97	566.24
625.32	564.24
625.66	562.28
626.01	560.28
626.35	558.39
626.70	556.53
627.04	554.85
627.39	552.95
627.73	551.01
628.08	549.48
628.43	547.32
628.77	545.28
629.12	543.40
629.46	541.62
629.81	539.83
630.15	537.90
630.50	535.84
630.84	533.85
631.19	531.92
631.53	530.05
631.88	527.77
632.22	525.68
632.57	524.10
632.91	522.22
633.26	520.43
633.60	518.42
633.95	516.54
634.29	514.45
634.64	512.69
634.98	510.68
635.32	508.80
635.67	507.23
636.01	505.48
636.36	503.50
636.70	501.74
637.05	499.87
637.39	498.14
637.73	496.52
638.08	495.05
638.42	493.33
638.77	491.73
639.11	490.16
639.45	488.46
639.80	486.52
640.14	484.75
640.49	482.90
640.83	481.15
641.17	479.43
641.52	477.54
641.86	475.58
642.20	473.88
642.55	471.85
642.89	469.95
643.23	467.91
643.58	466.35
643.92	464.36
644.26	462.58
644.61	460.83
644.95	458.98
645.29	457.09
645.64	455.50
645.98	453.52
646.32	451.66
646.66	449.70
647.01	447.81
647.35	446.01
647.69	444.20
648.04	442.55
648.38	440.75
648.72	439.11
649.06	437.45
649.41	435.57
649.75	433.92
650.09	432.20
650.43	430.58
650.78	428.59
651.12	426.77
651.46	425.06
651.80	423.31
652.14	421.55
652.49	419.90
652.83	417.99
653.17	416.15
653.51	414.32
653.85	412.87
654.20	411.21
654.54	409.38
654.88	407.63
655.22	405.82
655.56	404.00
655.90	402.18
656.25	400.40
656.59	398.76
656.93	397.06
657.27	395.48
657.61	393.75
657.95	392.26
658.29	390.81
658.64	389.25
658.98	387.61
659.32	385.91
659.66	384.16
660.00	382.56
660.34	380.94
660.68	379.31
661.02	377.61
661.36	375.93
661.70	374.50
662.05	373.06
662.39	371.75
662.73	370.42
663.07	369.16
663.41	367.80
663.75	366.36
664.09	364.94
664.43	363.45
664.77	362.05
665.11	360.62
665.45	359.17
665.79	357.83
666.13	356.44
666.47	355.20
666.81	353.76
667.15	352.40
667.49	351.35
667.83	350.21
668.17	348.96
668.51	347.86
668.85	346.57
669.19	345.41
669.53	343.98
669.87	342.68
670.21	341.36
670.55	340.23
670.89	339.28
671.23	338.17
671.57	337.06
671.91	336.04
672.25	334.90
672.58	333.88
672.92	332.65
673.26	331.63
673.60	330.54
673.94	329.61
674.28	328.47
674.62	327.41
674.96	326.45
675.30	325.48
675.64	324.35
675.97	323.34
676.31	322.33
676.65	321.35
676.99	320.52
677.33	319.54
677.67	318.49
678.01	317.23
678.34	316.25
678.68	315.32
679.02	314.27
679.36	313.28
679.70	312.34
680.04	311.44
680.37	310.42
680.71	309.55
681.05	308.61
681.39	307.77
681.73	306.77
682.06	305.79
682.40	304.94
682.74	304.16
683.08	303.43
683.42	302.44
683.75	301.59
684.09	300.55
684.43	299.65
684.77	298.71
685.10	297.92
685.44	297.12
685.78	296.26
686.12	295.42
686.45	294.63
686.79	293.64
687.13	292.99
687.46	292.24
687.80	291.46
688.14	290.64
688.48	289.80
688.81	288.99
689.15	288.28
689.49	287.44
689.82	286.59
690.16	285.61
690.50	284.84
690.83	284.05
691.17	283.23
691.51	282.40
691.84	281.76
692.18	281.10
692.52	280.33
692.85	279.69
693.19	279.07
693.52	278.33
693.86	277.59
694.20	276.77
694.53	276.14
694.87	275.32
695.21	274.70
695.54	274.07
695.88	273.35
696.21	272.54
696.55	271.84
696.88	271.23
697.22	270.67
697.56	270.17
697.89	269.47
698.23	268.91
698.56	268.38
698.90	267.75
699.23	267.04
699.57	266.40
699.90	265.64
700.24	264.90
700.58	264.28
700.91	263.81
701.25	263.45
701.58	262.91
701.92	262.49
702.25	261.89
702.59	261.28
702.92	260.75
703.26	260.23
703.59	259.74
703.93	259.46
704.26	258.89
704.60	258.34
704.93	257.89
705.26	257.30
705.60	256.83
705.93	256.23
706.27	255.81
706.60	255.47
706.94	255.20
707.27	254.76
707.61	254.37
707.94	253.87
708.27	253.15
708.61	252.58
708.94	252.01
709.28	251.63
709.61	251.26
709.94	250.93
710.28	250.59
710.61	250.24
710.95	249.59
711.28	249.36
711.61	248.93
711.95	248.65
712.28	248.29
712.61	247.88
712.95	247.78
713.28	247.60
713.61	247.13
713.95	246.65
714.28	246.34
714.61	245.95
714.95	245.63
715.28	245.21
715.61	244.83
715.95	244.47
716.28	244.05
716.61	243.67
716.95	243.19
717.28	242.86
717.61	242.53
717.94	242.08
718.28	241.64
718.61	241.30
718.94	240.94
719.27	240.55
719.61	240.27
719.94	239.85
720.27	239.33
720.60	239.10
720.94	238.78
721.27	238.52
721.60	238.30
721.93	237.98
722.27	237.85
722.60	237.66
722.93	237.42
723.26	237.16
723.59	236.89
723.93	236.71
724.26	236.40
724.59	236.07
724.92	235.97
725.25	235.78
725.59	235.50
725.92	235.27
726.25	235.11
726.58	234.92
726.91	234.67
727.24	234.53
727.57	234.30
727.91	234.05
728.24	233.82
728.57	233.52
728.90	233.42
729.23	233.14
729.56	233.07
729.89	232.79
730.22	232.58
730.55	232.31
730.89	232.08
731.22	231.90
731.55	231.64
731.88	231.42
732.21	231.15
732.54	230.93
732.87	230.74
733.20	230.58
733.53	230.38
733.86	230.18
734.19	229.99
734.52	229.82
734.85	229.92
735.18	229.67
735.51	229.64
735.84	229.43
736.17	229.30
736.50	228.92
736.83	229.20
737.16	228.99
737.49	228.90
737.82	228.75
738.15	228.67
738.48	228.52
738.81	228.31
739.14	228.10
739.47	228.00
739.80	227.79
740.13	227.66
740.46	227.41
740.79	227.24
741.12	227.02
741.45	226.80
741.78	226.46
742.11	226.47
742.44	226.23
742.77	226.12
743.10	225.98
743.43	225.81
743.75	225.29
744.08	225.65
744.41	225.45
744.74	225.31
745.07	225.01
745.40	224.92
745.73	224.95
746.06	224.81
746.39	224.62
746.71	224.50
747.04	224.26
747.37	224.13
747.70	224.00
748.03	223.91
748.36	223.79
748.68	223.59
749.01	223.30
749.34	223.18
749.67	223.08
750.00	222.94
750.33	223.10
750.65	223.00
750.98	222.40
751.31	222.27
751.64	222.17
751.97	222.32
752.29	222.20
752.62	221.90
752.95	221.82
753.28	221.71
753.60	221.56
753.93	221.62
754.26	221.50
754.59	221.29
754.91	221.05
755.24	220.93
755.57	220.78
755.90	220.69
756.22	220.54
756.55	220.29
756.88	220.11
757.20	219.68
757.53	219.43
757.86	219.35
758.19	219.34
758.51	219.20
758.84	218.90
759.17	218.70
759.49	218.63
759.82	218.64
760.15	218.57
760.47	218.47
760.80	218.28
761.13	218.24
761.45	218.16
761.78	218.16
762.11	218.09
762.43	218.03
762.76	217.97
763.08	218.00
763.41	218.00
763.74	217.94
764.06	217.94
764.39	217.99
764.71	217.88
765.04	217.73
765.37	217.55
765.69	217.47
766.02	217.52
766.34	217.43
766.67	217.28
767.00	217.27
767.32	217.36
767.65	217.47
767.97	217.34
768.30	217.34
768.62	217.33
768.95	217.21
769.27	217.22
769.60	217.14
769.92	216.92
770.25	216.78
770.57	216.74
770.90	216.74
771.22	216.70
771.55	216.69
771.87	216.67
772.20	216.67
772.52	216.83
772.85	217.14
773.17	217.03
773.50	216.96
773.82	216.80
774.15	216.59
774.47	216.25
774.80	216.23
775.12	216.13
775.45	215.96
775.77	215.95
776.09	215.86
776.42	215.82
776.74	215.94
777.07	215.87
777.39	215.85
777.72	215.68
778.04	215.64
778.36	215.56
778.69	215.55
779.01	215.55
779.33	215.33
779.66	214.92
779.98	214.96
780.31	214.91
780.63	215.05
780.95	215.05
781.28	215.10
781.60	214.99
781.92	214.97
782.25	214.96
782.57	214.93
782.89	214.86
783.22	214.71
783.54	214.56
783.86	214.64
784.19	214.57
784.51	214.70
784.83	214.61
785.16	214.58
785.48	214.52
785.80	214.48
786.12	214.42
786.45	214.36
786.77	214.32
787.09	214.31
787.42	214.18
787.74	214.19
788.06	214.14
788.38	214.25
788.71	214.20
789.03	214.15
789.35	214.14
789.67	214.11
789.99	214.18
790.32	214.16
790.64	214.15
790.96	214.41
791.28	214.29
791.61	214.20
791.93	214.20
792.25	214.15
792.57	214.36
792.89	214.34
793.21	214.39
793.54	214.37
793.86	214.29
794.18	214.30
794.50	214.25
794.82	214.27
795.14	214.23
795.47	214.32
795.79	214.38
796.11	214.32
796.43	214.31
796.75	214.32
797.07	214.27
797.39	214.20
797.71	213.91
798.04	213.88
798.36	213.90
798.68	213.82
799.00	213.84
799.32	213.70
799.64	213.72
799.96	213.65
800.28	213.69
800.60	213.67
800.92	213.60
801.24	213.54
801.56	213.56
801.89	213.54
802.21	213.44
802.53	213.40
802.85	213.47
803.17	213.62
803.49	213.52
803.81	213.44
804.13	213.38
804.45	213.29
804.77	213.30
805.09	213.29
805.41	213.31
805.73	213.25
806.05	213.15
806.37	213.09
806.69	213.05
807.01	212.97
807.33	212.93
807.65	212.86
807.97	212.98
808.28	212.90
808.60	212.82
808.92	212.82
809.24	212.99
809.56	212.88
809.88	212.75
810.20	212.83
810.52	212.95
810.84	212.95
811.16	212.99
811.48	212.94
811.80	213.02
812.12	212.96
812.43	212.97
812.75	212.93
813.07	212.88
813.39	212.88
813.71	212.82
814.03	212.79
814.35	212.82
814.67	212.62
814.98	212.54
815.30	212.58
815.62	212.50
815.94	212.20
816.26	212.20
816.58	212.11
816.89	212.08
817.21	211.94
817.53	211.92
817.85	211.86
818.17	211.89
818.48	211.78
818.80	211.86
819.12	211.84
819.44	211.80
819.76	211.79
820.07	211.74
820.39	211.68
820.71	211.73
821.03	211.68
821.34	211.73
821.66	211.77
821.98	211.77
822.30	211.73
822.61	211.99
822.93	211.92
823.25	211.87
823.57	211.80
823.88	211.91
824.20	211.87
824.52	211.94
824.83	211.90
825.15	211.78
825.47	211.75
825.79	211.68
826.10	211.62
826.42	211.60
826.74	211.76
827.05	211.81
827.37	211.79
827.69	211.82
828.00	211.78
828.32	211.81
828.64	211.66
828.95	211.88
829.27	211.79
829.58	211.78
829.90	211.80
830.22	211.84
830.53	211.69
830.85	211.66
831.17	211.59
831.48	211.57
831.80	211.71
832.11	211.66
832.43	211.69
832.75	211.76
833.06	211.95
833.38	211.71
833.69	211.73
834.01	211.75
834.32	211.66
834.64	211.69
834.96	211.73
835.27	211.79
835.59	211.63
835.90	211.51
836.22	211.63
836.53	211.55
836.85	211.55
837.16	211.95
837.48	212.03
837.79	212.06
838.11	212.07
838.42	211.99
838.74	212.02
839.05	211.93
839.37	211.86
839.68	211.61
840.00	211.64
840.31	211.65
840.63	211.62
840.94	211.67
841.26	211.54
841.57	211.46
841.88	211.47
842.20	211.50
842.51	211.56
842.83	211.46
843.14	211.85
843.46	211.83
843.77	211.68
844.08	211.62
844.40	211.62
844.71	211.58
845.03	211.59
845.34	211.56
845.65	211.59
845.97	211.64
846.28	211.73
846.60	211.69
846.91	211.65
847.22	211.71
847.54	211.78
847.85	211.84
848.16	211.83
848.48	211.76
848.79	211.82
849.10	211.75
849.42	211.75
849.73	211.40
850.04	211.38
850.36	211.21
850.67	211.30
850.98	211.36
851.30	211.49
851.61	211.51
851.92	211.58
852.23	211.70
852.55	211.77
852.86	211.72
853.17	211.83
853.49	211.93
853.80	211.94
854.11	211.93
854.42	211.97
854.74	212.00
855.05	212.00
855.36	211.90
855.67	211.96
855.99	212.01
856.30	212.44
856.61	212.43
856.92	212.49
857.23	212.45
857.55	212.29
857.86	212.17
858.17	212.18
858.48	212.05
858.79	211.96
859.11	211.95
859.42	211.93
859.73	211.86
860.04	211.88
860.35	211.75
860.66	211.67
860.98	211.76
861.29	211.68
861.60	211.69
861.91	211.79
862.22	211.67
862.53	211.52
862.84	211.11
863.16	211.18
863.47	211.11
863.78	211.07
864.09	211.12
864.40	211.26
864.71	211.23
865.02	211.27
865.33	211.20
865.64	211.14
865.95	211.16
866.27	211.42
866.58	211.33
866.89	211.40
867.20	211.40
867.51	211.34
867.82	211.49
868.13	211.58
868.44	211.47
868.75	211.62
869.06	211.71
869.37	211.80
869.68	211.70
869.99	211.71
870.30	211.75
870.61	211.77
870.92	211.55
871.23	211.54
871.54	211.61
871.85	211.73
872.16	211.79
872.47	211.78
872.78	211.56
873.09	211.59
873.40	211.51
873.71	211.57
874.02	211.52
874.33	211.39
874.64	211.37
874.95	211.39
875.26	211.32
875.56	211.31
875.87	211.31
876.18	211.34
876.49	211.66
876.80	211.61
877.11	211.58
877.42	211.68
877.73	211.65
878.04	211.61
878.35	211.66
878.66	211.60
878.96	211.62
879.27	211.50
879.58	211.46
879.89	211.45
880.20	211.51
880.51	211.55
880.82	211.56
881.12	211.52
881.43	211.50
881.74	211.42
882.05	211.43
882.36	211.43
882.67	211.45
882.97	211.14
883.28	211.12
883.59	211.12
883.90	211.17
884.21	211.32
884.51	211.32
884.82	211.17
885.13	211.16
885.44	211.13
885.74	211.24
886.05	211.27
886.36	211.28
886.67	211.14
886.98	211.33
887.28	211.33
887.59	211.26
887.90	211.25
888.20	211.27
888.51	211.27
888.82	211.20
889.13	211.19
889.43	211.50
889.74	211.49
890.05	211.47
890.35	211.45
890.66	211.29
890.97	211.32
891.28	211.39
891.58	211.44
891.89	211.40
892.20	211.38
892.50	211.30
892.81	211.29
893.12	211.28
893.42	211.04
893.73	211.09
894.04	211.11
894.34	211.15
894.65	211.13
894.95	211.12
895.26	211.15
895.57	211.31
895.87	210.89
896.18	210.95
896.48	211.00
896.79	210.94
897.10	211.03
897.40	210.97
897.71	210.94
898.01	210.88
898.32	210.88
898.63	210.90
898.93	211.00
899.24	210.98
899.54	210.97
899.85	211.05
900.15	211.01
900.46	211.07
900.76	211.14
901.07	211.15
901.38	211.20
901.68	211.23
901.99	211.04
902.29	211.12
902.60	211.08
902.90	211.01
903.21	211.07
903.51	211.05
903.82	211.08
904.12	211.15
904.43	211.15
904.73	211.22
905.03	211.16
905.34	211.47
905.64	211.50
905.95	211.52
906.25	211.42
906.56	211.42
906.86	211.44
907.17	211.36
907.47	211.46
907.77	211.38
908.08	211.30
908.38	211.35
908.69	211.43
908.99	211.48
909.30	211.51
909.60	211.46
909.90	211.44
910.21	211.37
910.51	211.31
910.81	211.32
911.12	211.39
911.42	211.44
911.73	211.04
912.03	211.09
912.33	211.15
912.64	211.23
912.94	211.22
913.24	211.18
913.55	211.12
913.85	210.99
914.15	211.07
914.46	211.10
914.76	211.10
915.06	211.05
915.37	211.03
915.67	211.10
915.97	211.11
916.27	211.07
916.58	211.08
916.88	211.05
917.18	211.02
917.49	211.22
917.79	211.22
918.09	211.29
918.39	211.35
918.70	211.34
919.00	211.37
919.30	211.51
919.60	211.55
919.91	211.62
920.21	211.69
920.51	211.64
920.81	211.63
921.12	211.67
921.42	211.64
921.72	211.68
922.02	211.63
922.32	211.72
922.63	211.75
922.93	211.99
923.23	211.99
923.53	211.96
923.83	211.70
924.13	211.72
924.44	211.81
924.74	211.88
925.04	211.87
925.34	211.79
925.64	211.62
925.94	211.60
926.24	211.65
926.55	211.60
926.85	211.62
927.15	211.63
927.45	211.62
927.75	211.64
928.05	211.59
928.35	211.61
928.65	211.68
928.95	211.68
929.26	211.58
929.56	211.70
929.86	211.82
930.16	211.75
930.46	211.68
930.76	211.58
931.06	211.38
931.36	211.38
931.66	211.53
931.96	211.61
932.26	211.54
932.56	211.47
932.86	211.47
933.16	211.46
933.46	211.39
933.76	211.30
934.06	211.40
934.36	211.51
934.66	211.45
934.96	211.34
935.26	211.32
935.56	211.33
935.86	211.17
936.16	211.08
936.46	211.10
936.76	211.18
937.06	211.18
937.36	211.22
937.66	211.22
937.96	211.11
938.26	211.07
938.56	211.11
938.86	211.17
939.16	211.30
939.46	211.32
939.76	211.34
940.06	211.37
940.35	211.28
940.65	211.12
940.95	211.18
941.25	211.09
941.55	211.09
941.85	211.01
942.15	211.15
942.45	211.32
942.75	211.32
943.04	211.30
943.34	211.33
943.64	211.35
943.94	211.33
944.24	211.35
944.54	211.33
944.84	211.33
945.13	211.28
945.43	211.27
945.73	211.28
946.03	211.30
946.33	211.30
946.62	211.26
946.92	211.29
947.22	211.33
947.52	211.41
947.82	211.45
948.11	211.37
948.41	211.24
948.71	211.08
949.01	211.16
949.31	211.09
949.60	211.03
949.90	211.14
950.20	211.09
950.50	211.03
950.79	211.04
951.09	211.07
951.39	211.03
951.69	210.93
951.98	210.99
952.28	210.93
952.58	210.90
952.87	210.90
953.17	210.99
953.47	210.98
953.76	210.98
954.06	210.93
954.36	210.93
954.66	210.96
954.95	211.05
955.25	210.97
955.55	210.96
955.84	210.92
956.14	210.86
956.44	210.85
956.73	210.80
957.03	210.78
957.32	210.80
957.62	210.82
957.92	210.87
958.21	210.79
958.51	211.24
958.81	211.28
959.10	211.30
959.40	211.30
959.69	211.25
959.99	211.26
960.29	211.25
960.58	211.21
960.88	211.34
961.17	211.31
961.47	211.41
961.76	211.46
962.06	211.54
962.36	211.50
962.65	211.65
962.95	211.73
963.24	211.68
963.54	211.64
963.83	211.68
964.13	211.67
964.42	211.62
964.72	211.27
965.01	211.23
965.31	211.22
965.60	211.05
965.90	211.25
966.19	211.15
966.49	211.20
966.78	211.23
967.08	211.23
967.37	211.22
967.67	211.09
967.96	211.10
968.26	211.09
968.55	211.13
968.85	211.03
969.14	211.01
969.43	211.08
969.73	211.04
970.02	210.89
970.32	210.92
970.61	210.84
970.91	210.79
971.20	210.73
971.49	210.64
971.79	210.69
972.08	210.49
972.38	210.50
972.67	210.43
972.96	210.47
973.26	210.39
973.55	210.41
973.85	210.41
974.14	210.37
974.43	210.41
974.73	210.38
975.02	210.43
975.31	210.43
975.61	210.38
975.90	210.43
976.19	210.49
976.49	210.50
976.78	210.65
977.07	210.67
977.37	210.74
977.66	210.85
977.95	210.84
978.24	210.80
978.54	210.94
978.83	210.88
979.12	210.88
979.42	210.87
979.71	210.83
980.00	210.94
980.29	210.96
980.59	210.85
980.88	210.91
981.17	210.84
981.46	210.85
981.76	210.89
982.05	210.96
982.34	210.97
982.63	210.97
982.93	210.92
983.22	211.02
983.51	211.07
983.80	211.10
984.09	211.18
984.39	211.25
984.68	211.18
984.97	211.27
985.26	211.27
985.55	211.35
985.85	211.28
986.14	211.25
986.43	211.35
986.72	211.36
987.01	211.29
987.30	211.30
987.59	211.27
987.89	211.25
988.18	211.15
988.47	211.13
988.76	211.13
989.05	211.07
989.34	211.02
989.63	211.10
989.92	211.10
990.22	211.02
990.51	211.00
990.80	210.94
991.09	210.95
991.38	211.02
991.67	210.92
991.96	211.00
992.25	211.00
992.54	210.91
992.83	210.99
993.12	210.95
993.41	210.98
993.70	211.14
993.99	211.20
994.28	211.25
994.58	211.31
994.87	211.24
995.16	211.34
995.45	211.28
995.74	211.09
996.03	211.10
996.32	211.20
996.61	211.25
996.90	211.24
997.19	211.20
997.48	211.17
997.77	211.23
998.06	211.18
998.34	211.23
998.63	211.23
998.92	211.20
999.21	211.24
999.50	211.29
999.79	211.18
1000.08	211.13
1000.37	211.08
1000.66	211.06
1000.95	211.18
1001.24	211.11
1001.53	211.12
1001.82	211.11
1002.11	211.01
1002.40	210.99
1002.68	211.12
1002.97	211.36
1003.26	211.29
1003.55	211.24
1003.84	211.20
1004.13	211.29
1004.42	211.21
1004.71	211.21
1004.99	211.15
1005.28	211.26
1005.57	211.31
1005.86	211.27
1006.15	211.24
1006.44	211.23
1006.72	211.17
1007.01	211.08
1007.30	211.11
1007.59	211.06
1007.88	211.09
1008.17	211.14
1008.45	211.02
1008.74	210.85
1009.03	210.71
1009.32	210.74
1009.60	210.70
1009.89	210.62
1010.18	210.44
1010.47	210.43
1010.76	210.41
1011.04	210.38
1011.33	210.35
1011.62	210.27
1011.91	210.24
1012.19	210.25
1012.48	210.29
1012.77	210.35
1013.05	210.52
1013.34	210.46
1013.63	210.49
1013.92	210.49
1014.20	210.44
1014.49	210.53
1014.78	210.53
1015.06	210.38
1015.35	210.35
1015.64	210.42
1015.92	210.50
1016.21	210.55
1016.50	210.54
1016.78	210.53
1017.07	210.61
1017.36	210.47
1017.64	210.48
1017.93	210.57
1018.22	210.55
1018.50	210.50
1018.79	210.45
1019.08	210.34
1019.36	210.38
1019.65	210.36
1019.93	210.46
1020.22	210.57
1020.51	210.67
1020.79	210.64
1021.08	209.95
1021.36	209.65
1021.65	209.75
1021.94	211.95
1022.22	210.65
1022.51	210.50
1022.79	211.65
1023.08	211.95
1023.36	213.45
1023.65	210.25
>>>>>End Processed Spectral Data<<<<<
