SpectraSuite Data File
++++++++++++++++++++++++++++++++++++
Date: Mon Feb 25 16:56:51 EST 2013
User: group
Dark Spectrum Present: No
Reference Spectrum Present: No
Number of Sampled Component Spectra: 1
Spectrometers: USB2E7196
Integration Time (usec): 104000 (USB2E7196)
Spectra Averaged: 20 (USB2E7196)
Boxcar Smoothing: 10 (USB2E7196)
Correct for Electrical Dark: No (USB2E7196)
Strobe/Lamp Enabled: No (USB2E7196)
Correct for Detector Non-linearity: No (USB2E7196)
Correct for Stray Light: No (USB2E7196)
Number of Pixels in Processed Spectrum: 2048
>>>>>Begin Processed Spectral Data<<<<<
339.09	0.00
339.48	199.80
339.86	201.00
340.24	201.25
340.63	203.25
341.01	210.15
341.39	205.55
341.78	207.60
342.16	208.45
342.54	209.35
342.93	198.71
343.31	208.73
343.69	209.22
344.07	209.64
344.46	210.07
344.84	210.49
345.22	210.52
345.60	210.75
345.99	210.89
346.37	211.04
346.75	211.08
347.13	211.22
347.52	211.31
347.90	211.42
348.28	211.39
348.66	211.53
349.05	211.38
349.43	211.45
349.81	211.54
350.19	211.50
350.57	211.57
350.96	211.60
351.34	211.72
351.72	211.81
352.10	211.91
352.48	211.95
352.87	212.02
353.25	212.05
353.63	212.17
354.01	212.26
354.39	212.26
354.77	212.38
355.15	212.42
355.54	212.40
355.92	212.30
356.30	212.39
356.68	212.55
357.06	212.65
357.44	212.65
357.82	212.66
358.20	212.72
358.58	212.77
358.97	212.90
359.35	212.95
359.73	213.09
360.11	213.10
360.49	213.14
360.87	213.09
361.25	213.20
361.63	213.29
362.01	213.34
362.39	213.38
362.77	213.41
363.15	213.46
363.53	213.51
363.91	213.60
364.29	213.57
364.67	213.34
365.05	213.32
365.43	213.33
365.81	213.37
366.19	213.50
366.57	213.62
366.95	213.59
367.33	213.55
367.71	213.55
368.09	213.62
368.47	213.65
368.85	213.67
369.23	213.71
369.61	213.62
369.99	213.66
370.37	213.70
370.75	213.82
371.13	213.74
371.51	213.69
371.89	213.64
372.27	213.67
372.65	213.65
373.03	213.68
373.41	213.60
373.78	213.54
374.16	213.41
374.54	213.24
374.92	213.25
375.30	213.22
375.68	213.08
376.06	213.08
376.44	213.07
376.82	213.07
377.19	212.94
377.57	212.86
377.95	212.71
378.33	212.64
378.71	212.48
379.09	212.48
379.47	212.45
379.84	212.38
380.22	212.31
380.60	212.24
380.98	212.17
381.36	212.17
381.73	212.14
382.11	212.16
382.49	212.15
382.87	212.01
383.25	212.01
383.62	212.33
384.00	212.21
384.38	212.13
384.76	212.16
385.13	212.37
385.51	212.33
385.89	212.37
386.27	212.35
386.64	212.35
387.02	212.35
387.40	212.39
387.78	212.37
388.15	212.37
388.53	212.31
388.91	212.26
389.29	212.24
389.66	212.26
390.04	212.20
390.42	212.27
390.79	212.29
391.17	212.23
391.55	211.89
391.92	211.83
392.30	211.94
392.68	211.87
393.05	211.79
393.43	211.85
393.81	211.84
394.18	211.82
394.56	211.82
394.94	211.81
395.31	211.71
395.69	211.89
396.06	211.98
396.44	212.04
396.82	212.12
397.19	212.36
397.57	212.31
397.95	212.39
398.32	212.25
398.70	212.35
399.07	212.44
399.45	212.46
399.82	212.49
400.20	212.54
400.58	212.61
400.95	212.57
401.33	212.69
401.70	213.00
402.08	213.15
402.45	213.27
402.83	213.47
403.20	213.60
403.58	213.63
403.95	213.85
404.33	214.13
404.71	214.31
405.08	214.64
405.46	214.99
405.83	215.36
406.21	215.74
406.58	216.12
406.96	216.50
407.33	216.97
407.70	217.53
408.08	218.22
408.45	218.76
408.83	219.37
409.20	219.99
409.58	220.40
409.95	221.15
410.33	221.93
410.70	222.63
411.08	223.55
411.45	224.51
411.82	225.40
412.20	226.43
412.57	227.82
412.95	228.65
413.32	230.01
413.69	231.24
414.07	232.70
414.44	234.26
414.82	235.95
415.19	237.75
415.56	239.68
415.94	241.58
416.31	243.84
416.68	246.09
417.06	248.68
417.43	251.25
417.81	254.00
418.18	256.93
418.55	260.13
418.93	263.48
419.30	266.90
419.67	270.62
420.04	274.42
420.42	278.29
420.79	283.07
421.16	287.67
421.54	292.62
421.91	297.64
422.28	302.84
422.66	308.35
423.03	313.97
423.40	319.64
423.77	325.71
424.15	331.89
424.52	338.38
424.89	345.47
425.26	352.39
425.64	359.10
426.01	366.30
426.38	373.93
426.75	381.74
427.13	389.78
427.50	398.08
427.87	406.91
428.24	415.64
428.61	424.01
428.99	433.26
429.36	443.28
429.73	453.24
430.10	463.18
430.47	473.29
430.85	483.86
431.22	495.03
431.59	506.79
431.96	518.37
432.33	531.14
432.70	543.36
433.08	557.74
433.45	571.33
433.82	584.98
434.19	599.95
434.56	614.80
434.93	629.27
435.30	643.68
435.68	659.82
436.05	675.94
436.42	691.96
436.79	706.74
437.16	722.44
437.53	739.07
437.90	755.64
438.27	772.14
438.64	789.25
439.01	805.18
439.38	819.90
439.75	833.66
440.13	849.39
440.50	864.43
440.87	876.98
441.24	890.18
441.61	904.60
441.98	915.68
442.35	928.25
442.72	940.97
443.09	953.29
443.46	961.22
443.83	966.78
444.20	971.97
444.57	978.88
444.94	982.84
445.31	987.07
445.68	991.00
446.05	993.48
446.42	993.40
446.79	992.79
447.16	991.66
447.53	991.38
447.90	986.66
448.27	981.90
448.64	974.70
449.01	969.55
449.37	959.64
449.74	950.13
450.11	938.61
450.48	925.91
450.85	912.98
451.22	901.90
451.59	891.63
451.96	881.61
452.33	867.68
452.70	855.40
453.07	840.20
453.43	824.91
453.80	810.08
454.17	795.63
454.54	782.43
454.91	767.95
455.28	753.93
455.65	740.73
456.02	727.55
456.38	716.37
456.75	702.15
457.12	690.55
457.49	679.02
457.86	667.57
458.23	657.85
458.59	647.29
458.96	636.41
459.33	626.63
459.70	616.90
460.07	609.23
460.43	600.45
460.80	592.20
461.17	584.96
461.54	577.45
461.91	570.22
462.27	562.86
462.64	556.67
463.01	549.71
463.38	543.06
463.74	536.16
464.11	530.21
464.48	525.40
464.85	519.73
465.21	515.58
465.58	511.10
465.95	505.62
466.32	500.99
466.68	496.43
467.05	491.89
467.42	487.27
467.78	482.72
468.15	478.13
468.52	474.63
468.88	470.14
469.25	466.07
469.62	462.96
469.98	459.38
470.35	456.23
470.72	453.25
471.08	449.86
471.45	447.15
471.82	444.15
472.18	440.85
472.55	438.60
472.92	435.70
473.28	433.54
473.65	431.16
474.02	428.93
474.38	427.08
474.75	425.53
475.11	423.96
475.48	422.53
475.85	421.38
476.21	420.31
476.58	419.42
476.94	418.79
477.31	417.89
477.67	417.12
478.04	416.50
478.41	415.94
478.77	415.86
479.14	415.49
479.50	415.51
479.87	415.69
480.23	415.77
480.60	415.79
480.96	415.74
481.33	416.39
481.69	416.92
482.06	417.35
482.42	417.65
482.79	418.02
483.15	418.82
483.52	419.92
483.88	420.96
484.25	421.99
484.61	423.03
484.98	424.09
485.34	425.58
485.71	427.30
486.07	429.02
486.44	430.65
486.80	432.60
487.17	434.52
487.53	436.85
487.90	439.37
488.26	442.07
488.62	444.91
488.99	447.64
489.35	450.40
489.72	453.54
490.08	456.85
490.44	460.14
490.81	463.60
491.17	466.98
491.54	470.69
491.90	474.66
492.26	478.75
492.63	483.06
492.99	487.40
493.36	491.87
493.72	496.63
494.08	501.40
494.45	506.45
494.81	511.66
495.17	516.79
495.54	522.23
495.90	527.78
496.26	533.41
496.63	539.42
496.99	545.53
497.35	551.83
497.72	558.45
498.08	565.00
498.44	571.81
498.80	578.87
499.17	585.96
499.53	593.00
499.89	600.46
500.26	607.75
500.62	614.96
500.98	622.55
501.34	630.13
501.71	638.08
502.07	645.89
502.43	653.79
502.79	661.55
503.16	669.46
503.52	677.44
503.88	685.44
504.24	693.37
504.60	701.35
504.97	709.58
505.33	717.41
505.69	726.30
506.05	734.73
506.41	742.98
506.78	751.13
507.14	759.23
507.50	767.36
507.86	775.60
508.22	783.93
508.59	791.84
508.95	800.29
509.31	808.25
509.67	816.40
510.03	824.52
510.39	832.90
510.75	841.17
511.12	849.22
511.48	857.33
511.84	865.39
512.20	873.30
512.56	881.07
512.92	889.22
513.28	896.78
513.64	904.13
514.00	911.60
514.37	918.80
514.73	926.51
515.09	933.73
515.45	940.81
515.81	947.76
516.17	954.81
516.53	961.48
516.89	968.10
517.25	974.39
517.61	980.70
517.97	986.73
518.33	992.42
518.69	998.20
519.05	1004.05
519.41	1009.81
519.77	1015.96
520.13	1021.49
520.49	1026.65
520.85	1031.83
521.21	1037.20
521.57	1042.63
521.93	1047.22
522.29	1052.20
522.65	1056.98
523.01	1062.07
523.37	1066.67
523.73	1071.31
524.09	1075.74
524.45	1080.31
524.81	1085.11
525.17	1089.72
525.53	1094.25
525.89	1098.67
526.25	1103.20
526.61	1107.00
526.97	1110.91
527.33	1114.71
527.68	1118.75
528.04	1122.68
528.40	1125.95
528.76	1129.31
529.12	1132.54
529.48	1137.04
529.84	1140.39
530.20	1143.90
530.56	1147.03
530.91	1150.86
531.27	1154.20
531.63	1157.48
531.99	1160.74
532.35	1163.47
532.71	1166.25
533.07	1169.61
533.42	1172.66
533.78	1175.77
534.14	1179.00
534.50	1181.45
534.86	1184.33
535.21	1186.79
535.57	1189.77
535.93	1192.54
536.29	1195.18
536.65	1197.81
537.00	1199.74
537.36	1201.90
537.72	1203.95
538.08	1206.38
538.44	1208.28
538.79	1210.56
539.15	1212.88
539.51	1215.14
539.87	1217.56
540.22	1219.84
540.58	1222.40
540.94	1224.55
541.29	1226.20
541.65	1227.56
542.01	1229.37
542.37	1231.01
542.72	1232.96
543.08	1234.42
543.44	1236.51
543.79	1237.95
544.15	1239.55
544.51	1241.63
544.87	1243.53
545.22	1245.24
545.58	1246.48
545.94	1247.64
546.29	1248.55
546.65	1249.12
547.01	1249.85
547.36	1250.71
547.72	1251.65
548.07	1251.55
548.43	1251.78
548.79	1252.01
549.14	1252.88
549.50	1253.55
549.86	1253.64
550.21	1253.68
550.57	1254.34
550.92	1254.25
551.28	1254.58
551.64	1254.75
551.99	1254.89
552.35	1254.68
552.70	1254.82
553.06	1254.95
553.41	1255.44
553.77	1256.04
554.13	1256.74
554.48	1257.32
554.84	1258.08
555.19	1258.21
555.55	1258.77
555.90	1259.11
556.26	1259.43
556.61	1259.35
556.97	1259.42
557.32	1259.77
557.68	1259.99
558.03	1259.45
558.39	1259.17
558.74	1259.14
559.10	1258.92
559.45	1258.80
559.81	1259.24
560.16	1259.00
560.52	1258.90
560.87	1258.73
561.23	1258.06
561.58	1257.63
561.94	1256.88
562.29	1255.79
562.64	1255.44
563.00	1254.84
563.35	1254.56
563.71	1254.97
564.06	1254.86
564.42	1254.99
564.77	1254.95
565.12	1254.95
565.48	1255.21
565.83	1255.25
566.19	1255.52
566.54	1255.43
566.89	1254.67
567.25	1254.50
567.60	1254.34
567.96	1254.20
568.31	1254.05
568.66	1253.58
569.02	1252.63
569.37	1251.79
569.72	1251.05
570.08	1250.21
570.43	1249.04
570.78	1248.13
571.14	1246.38
571.49	1244.96
571.84	1243.48
572.20	1241.85
572.55	1240.28
572.90	1238.09
573.26	1236.09
573.61	1233.80
573.96	1231.92
574.31	1229.91
574.67	1227.27
575.02	1224.58
575.37	1221.68
575.72	1218.49
576.08	1216.20
576.43	1213.68
576.78	1211.13
577.13	1208.72
577.49	1206.24
577.84	1203.77
578.19	1201.20
578.54	1199.09
578.90	1197.33
579.25	1194.80
579.60	1191.80
579.95	1188.62
580.30	1185.99
580.66	1183.62
581.01	1180.71
581.36	1177.52
581.71	1174.53
582.06	1171.45
582.42	1168.56
582.77	1165.53
583.12	1162.41
583.47	1159.50
583.82	1156.57
584.17	1153.70
584.53	1150.67
584.88	1147.26
585.23	1143.99
585.58	1140.49
585.93	1136.93
586.28	1133.02
586.63	1129.63
586.98	1126.50
587.34	1123.53
587.69	1120.07
588.04	1116.70
588.39	1113.55
588.74	1109.86
589.09	1106.58
589.44	1102.92
589.79	1099.69
590.14	1096.61
590.49	1093.33
590.84	1089.54
591.19	1086.55
591.54	1083.03
591.89	1079.11
592.25	1075.88
592.60	1072.34
592.95	1068.57
593.30	1064.34
593.65	1060.29
594.00	1056.29
594.35	1053.80
594.70	1049.66
595.05	1046.22
595.40	1042.39
595.75	1038.15
596.10	1034.90
596.45	1031.28
596.80	1028.11
597.15	1024.63
597.50	1020.58
597.85	1016.99
598.19	1013.25
598.54	1009.33
598.89	1005.83
599.24	1002.74
599.59	998.91
599.94	995.26
600.29	991.81
600.64	988.57
600.99	984.99
601.34	981.48
601.69	976.38
602.04	972.77
602.39	968.86
602.74	965.03
603.08	961.84
603.43	958.63
603.78	954.81
604.13	950.90
604.48	947.17
604.83	944.08
605.18	940.91
605.53	937.26
605.87	933.53
606.22	929.90
606.57	925.79
606.92	921.85
607.27	917.84
607.62	914.10
607.96	910.43
608.31	907.30
608.66	903.47
609.01	899.87
609.36	896.03
609.70	892.02
610.05	888.02
610.40	884.01
610.75	879.52
611.10	875.95
611.44	871.64
611.79	867.37
612.14	863.00
612.49	858.34
612.83	854.30
613.18	849.95
613.53	845.61
613.88	841.32
614.22	837.23
614.57	833.15
614.92	829.14
615.27	824.87
615.61	820.17
615.96	816.30
616.31	812.53
616.65	808.72
617.00	805.02
617.35	801.10
617.70	797.15
618.04	792.97
618.39	788.50
618.74	784.70
619.08	780.67
619.43	776.91
619.78	773.33
620.12	769.54
620.47	765.97
620.82	761.89
621.16	757.83
621.51	753.97
621.85	750.29
622.20	746.12
622.55	742.10
622.89	738.16
623.24	734.06
623.59	729.66
623.93	725.78
624.28	721.95
624.62	718.68
624.97	714.83
625.32	711.08
625.66	707.66
626.01	703.92
626.35	700.31
626.70	696.32
627.04	692.47
627.39	688.88
627.73	685.30
628.08	682.33
628.43	678.84
628.77	675.53
629.12	671.87
629.46	668.73
629.81	665.61
630.15	662.53
630.50	659.20
630.84	655.98
631.19	652.72
631.53	649.25
631.88	645.35
632.22	642.04
632.57	639.06
632.91	635.82
633.26	632.58
633.60	629.31
633.95	626.36
634.29	623.21
634.64	620.17
634.98	616.80
635.32	613.51
635.67	610.84
636.01	607.70
636.36	604.65
636.70	601.62
637.05	598.49
637.39	595.52
637.73	592.72
638.08	590.19
638.42	587.52
638.77	584.82
639.11	582.27
639.45	579.51
639.80	576.72
640.14	573.60
640.49	570.80
640.83	568.14
641.17	565.26
641.52	562.46
641.86	559.49
642.20	556.91
642.55	553.75
642.89	550.86
643.23	548.00
643.58	545.76
643.92	542.97
644.26	540.27
644.61	537.68
644.95	534.96
645.29	532.17
645.64	529.33
645.98	526.64
646.32	523.86
646.66	521.12
647.01	518.30
647.35	516.03
647.69	513.40
648.04	510.83
648.38	508.24
648.72	505.72
649.06	503.23
649.41	500.62
649.75	498.22
650.09	495.64
650.43	493.10
650.78	490.24
651.12	487.66
651.46	485.08
651.80	482.59
652.14	480.26
652.49	477.89
652.83	475.48
653.17	472.91
653.51	470.45
653.85	468.28
654.20	466.02
654.54	463.53
654.88	461.16
655.22	458.80
655.56	456.55
655.90	454.25
656.25	451.79
656.59	449.52
656.93	447.26
657.27	445.23
657.61	442.94
657.95	440.80
658.29	438.69
658.64	436.77
658.98	434.40
659.32	431.98
659.66	429.66
660.00	427.32
660.34	425.10
660.68	422.94
661.02	420.63
661.36	418.44
661.70	416.41
662.05	414.46
662.39	412.61
662.73	410.80
663.07	409.02
663.41	407.24
663.75	405.27
664.09	403.54
664.43	401.42
664.77	399.68
665.11	397.69
665.45	395.88
665.79	394.05
666.13	392.35
666.47	390.68
666.81	388.92
667.15	387.28
667.49	385.81
667.83	384.39
668.17	382.73
668.51	381.24
668.85	379.61
669.19	378.30
669.53	376.55
669.87	374.83
670.21	373.14
670.55	371.54
670.89	370.27
671.23	368.77
671.57	367.42
671.91	365.83
672.25	364.36
672.58	362.87
672.92	361.30
673.26	359.93
673.60	358.49
673.94	357.10
674.28	355.81
674.62	354.48
674.96	353.07
675.30	351.81
675.64	350.51
675.97	349.17
676.31	347.73
676.65	346.45
676.99	345.35
677.33	344.15
677.67	342.94
678.01	341.48
678.34	340.24
678.68	339.05
679.02	337.93
679.36	336.80
679.70	335.65
680.04	334.56
680.37	333.45
680.71	332.39
681.05	331.35
681.39	330.19
681.73	329.03
682.06	327.85
682.40	326.76
682.74	325.67
683.08	324.67
683.42	323.37
683.75	322.36
684.09	321.01
684.43	319.91
684.77	318.83
685.10	317.82
685.44	316.67
685.78	315.52
686.12	314.53
686.45	313.59
686.79	312.57
687.13	311.58
687.46	310.55
687.80	309.66
688.14	308.53
688.48	307.59
688.81	306.57
689.15	305.63
689.49	304.51
689.82	303.55
690.16	302.54
690.50	301.70
690.83	300.73
691.17	299.77
691.51	298.80
691.84	297.92
692.18	296.93
692.52	296.00
692.85	295.21
693.19	294.45
693.52	293.57
693.86	292.66
694.20	291.73
694.53	290.92
694.87	289.95
695.21	289.11
695.54	288.18
695.88	287.21
696.21	286.33
696.55	285.59
696.88	284.68
697.22	283.85
697.56	283.13
697.89	282.25
698.23	281.60
698.56	280.87
698.90	280.14
699.23	279.35
699.57	278.69
699.90	277.92
700.24	277.06
700.58	276.23
700.91	275.56
701.25	275.19
701.58	274.58
701.92	274.00
702.25	273.32
702.59	272.68
702.92	272.15
703.26	271.44
703.59	270.82
703.93	270.52
704.26	269.97
704.60	269.32
704.93	268.77
705.26	268.08
705.60	267.48
705.93	266.69
706.27	266.22
706.60	265.75
706.94	265.39
707.27	264.71
707.61	264.25
707.94	263.67
708.27	262.75
708.61	262.04
708.94	261.44
709.28	260.93
709.61	260.39
709.94	259.84
710.28	259.49
710.61	259.12
710.95	258.27
711.28	257.98
711.61	257.46
711.95	257.04
712.28	256.56
712.61	256.12
712.95	255.90
713.28	255.59
713.61	254.98
713.95	254.29
714.28	253.91
714.61	253.42
714.95	252.94
715.28	252.54
715.61	252.09
715.95	251.64
716.28	251.22
716.61	250.80
716.95	250.39
717.28	249.87
717.61	249.31
717.94	248.92
718.28	248.27
718.61	247.94
718.94	247.47
719.27	247.10
719.61	246.73
719.94	246.29
720.27	245.75
720.60	245.42
720.94	245.12
721.27	244.85
721.60	244.55
721.93	244.20
722.27	244.01
722.60	243.82
722.93	243.42
723.26	243.10
723.59	242.80
723.93	242.59
724.26	242.35
724.59	242.07
724.92	241.79
725.25	241.60
725.59	241.25
725.92	241.03
726.25	240.71
726.58	240.35
726.91	240.09
727.24	239.83
727.57	239.47
727.91	239.07
728.24	238.81
728.57	238.51
728.90	238.24
729.23	237.91
729.56	237.70
729.89	237.47
730.22	237.19
730.55	236.85
730.89	236.55
731.22	236.22
731.55	235.95
731.88	235.66
732.21	235.37
732.54	235.10
732.87	234.80
733.20	234.58
733.53	234.36
733.86	234.14
734.19	233.88
734.52	233.74
734.85	233.85
735.18	233.48
735.51	233.26
735.84	233.09
736.17	232.95
736.50	232.67
736.83	232.85
737.16	232.67
737.49	232.51
737.82	232.20
738.15	232.06
738.48	231.83
738.81	231.66
739.14	231.36
739.47	231.13
739.80	230.90
740.13	230.74
740.46	230.48
740.79	230.14
741.12	229.92
741.45	229.66
741.78	229.23
742.11	229.18
742.44	229.00
742.77	228.90
743.10	228.61
743.43	228.29
743.75	227.75
744.08	227.98
744.41	227.83
744.74	227.67
745.07	227.38
745.40	227.26
745.73	227.26
746.06	227.07
746.39	226.97
746.71	226.78
747.04	226.54
747.37	226.36
747.70	226.33
748.03	226.19
748.36	226.09
748.68	225.96
749.01	225.69
749.34	225.51
749.67	225.35
750.00	225.30
750.33	225.39
750.65	225.24
750.98	224.67
751.31	224.50
751.64	224.41
751.97	224.49
752.29	224.35
752.62	224.03
752.95	223.89
753.28	223.70
753.60	223.63
753.93	223.68
754.26	223.61
754.59	223.38
754.91	223.26
755.24	223.18
755.57	223.03
755.90	222.93
756.22	222.80
756.55	222.58
756.88	222.43
757.20	222.08
757.53	221.89
757.86	221.80
758.19	221.76
758.51	221.60
758.84	221.30
759.17	221.12
759.49	221.06
759.82	221.20
760.15	221.14
760.47	220.99
760.80	220.79
761.13	220.74
761.45	220.58
761.78	220.48
762.11	220.29
762.43	220.16
762.76	220.08
763.08	220.00
763.41	220.01
763.74	219.90
764.06	219.90
764.39	219.81
764.71	219.70
765.04	219.50
765.37	219.41
765.69	219.33
766.02	219.29
766.34	219.11
766.67	218.84
767.00	218.84
767.32	218.96
767.65	219.10
767.97	218.93
768.30	218.92
768.62	218.86
768.95	218.78
769.27	218.74
769.60	218.67
769.92	218.58
770.25	218.36
770.57	218.17
770.90	217.98
771.22	217.79
771.55	217.79
771.87	217.76
772.20	217.64
772.52	217.78
772.85	218.17
773.17	218.19
773.50	218.10
773.82	217.92
774.15	217.68
774.47	217.32
774.80	217.29
775.12	217.26
775.45	217.15
775.77	217.08
776.09	217.04
776.42	216.94
776.74	216.98
777.07	216.90
777.39	216.89
777.72	216.86
778.04	216.97
778.36	216.85
778.69	216.77
779.01	216.77
779.33	216.55
779.66	216.07
779.98	215.98
780.31	215.98
780.63	216.10
780.95	216.12
781.28	216.09
781.60	215.96
781.92	215.84
782.25	215.78
782.57	215.76
782.89	215.69
783.22	215.64
783.54	215.49
783.86	215.48
784.19	215.44
784.51	215.49
784.83	215.36
785.16	215.32
785.48	215.35
785.80	215.26
786.12	215.23
786.45	215.13
786.77	215.13
787.09	215.01
787.42	214.81
787.74	214.77
788.06	214.78
788.38	214.78
788.71	214.67
789.03	214.64
789.35	214.69
789.67	214.65
789.99	214.69
790.32	214.70
790.64	214.73
790.96	214.98
791.28	214.86
791.61	214.80
791.93	214.71
792.25	214.60
792.57	214.87
792.89	214.70
793.21	214.71
793.54	214.68
793.86	214.70
794.18	214.72
794.50	214.64
794.82	214.62
795.14	214.58
795.47	214.67
795.79	214.70
796.11	214.62
796.43	214.53
796.75	214.60
797.07	214.55
797.39	214.52
797.71	214.30
798.04	214.27
798.36	214.29
798.68	214.30
799.00	214.37
799.32	214.16
799.64	214.32
799.96	214.34
800.28	214.35
800.60	214.31
800.92	214.34
801.24	214.30
801.56	214.29
801.89	214.32
802.21	214.36
802.53	214.30
802.85	214.29
803.17	214.47
803.49	214.31
803.81	214.28
804.13	214.21
804.45	214.20
804.77	214.23
805.09	214.21
805.41	214.19
805.73	214.06
806.05	214.04
806.37	213.95
806.69	213.95
807.01	213.88
807.33	213.84
807.65	213.68
807.97	213.81
808.28	213.77
808.60	213.67
808.92	213.61
809.24	213.82
809.56	213.75
809.88	213.65
810.20	213.64
810.52	213.68
810.84	213.63
811.16	213.48
811.48	213.42
811.80	213.49
812.12	213.48
812.43	213.56
812.75	213.54
813.07	213.47
813.39	213.40
813.71	213.37
814.03	213.39
814.35	213.35
814.67	213.19
814.98	213.17
815.30	213.24
815.62	213.11
815.94	212.79
816.26	212.74
816.58	212.66
816.89	212.68
817.21	212.59
817.53	212.65
817.85	212.67
818.17	212.64
818.48	212.55
818.80	212.65
819.12	212.53
819.44	212.46
819.76	212.44
820.07	212.37
820.39	212.33
820.71	212.31
821.03	212.31
821.34	212.26
821.66	212.28
821.98	212.24
822.30	212.18
822.61	212.39
822.93	212.41
823.25	212.34
823.57	212.27
823.88	212.34
824.20	212.35
824.52	212.35
824.83	212.40
825.15	212.30
825.47	212.23
825.79	212.30
826.10	212.29
826.42	212.24
826.74	212.32
827.05	212.26
827.37	212.22
827.69	212.20
828.00	212.22
828.32	212.21
828.64	212.22
828.95	212.44
829.27	212.40
829.58	212.36
829.90	212.43
830.22	212.40
830.53	212.32
830.85	212.20
831.17	212.14
831.48	212.09
831.80	212.10
832.11	212.02
832.43	211.99
832.75	211.94
833.06	212.13
833.38	212.05
833.69	212.13
834.01	212.12
834.32	212.15
834.64	212.10
834.96	212.08
835.27	212.06
835.59	211.98
835.90	211.86
836.22	211.84
836.53	211.80
836.85	211.82
837.16	212.15
837.48	212.16
837.79	212.30
838.11	212.34
838.42	212.43
838.74	212.47
839.05	212.37
839.37	212.40
839.68	212.22
840.00	212.21
840.31	212.26
840.63	212.23
840.94	212.16
841.26	212.20
841.57	212.13
841.88	212.16
842.20	212.10
842.51	212.10
842.83	212.11
843.14	212.42
843.46	212.32
843.77	212.15
844.08	212.21
844.40	212.06
844.71	212.02
845.03	211.89
845.34	211.89
845.65	211.86
845.97	211.85
846.28	211.85
846.60	211.93
846.91	211.83
847.22	211.88
847.54	211.93
847.85	211.92
848.16	211.94
848.48	211.89
848.79	212.07
849.10	212.07
849.42	212.06
849.73	211.69
850.04	211.76
850.36	211.55
850.67	211.51
850.98	211.48
851.30	211.54
851.61	211.58
851.92	211.60
852.23	211.73
852.55	211.69
852.86	211.65
853.17	211.66
853.49	211.74
853.80	211.79
854.11	211.83
854.42	211.87
854.74	211.81
855.05	211.78
855.36	211.61
855.67	211.58
855.99	211.58
856.30	212.03
856.61	211.99
856.92	212.03
857.23	212.00
857.55	212.03
857.86	212.00
858.17	212.00
858.48	211.86
858.79	211.86
859.11	211.87
859.42	211.87
859.73	211.77
860.04	211.71
860.35	211.63
860.66	211.52
860.98	211.48
861.29	211.50
861.60	211.46
861.91	211.45
862.22	211.40
862.53	211.38
862.84	210.95
863.16	211.12
863.47	211.09
863.78	211.11
864.09	211.15
864.40	211.17
864.71	211.23
865.02	211.33
865.33	211.26
865.64	211.30
865.95	211.35
866.27	211.53
866.58	211.58
866.89	211.61
867.20	211.68
867.51	211.65
867.82	211.66
868.13	211.87
868.44	211.77
868.75	211.90
869.06	211.94
869.37	212.01
869.68	211.85
869.99	211.89
870.30	211.92
870.61	211.95
870.92	211.89
871.23	211.86
871.54	211.91
871.85	211.95
872.16	211.99
872.47	211.93
872.78	211.80
873.09	211.69
873.40	211.73
873.71	211.71
874.02	211.73
874.33	211.73
874.64	211.62
874.95	211.81
875.26	211.73
875.56	211.67
875.87	211.61
876.18	211.59
876.49	211.89
876.80	211.88
877.11	211.77
877.42	211.74
877.73	211.71
878.04	211.66
878.35	211.67
878.66	211.70
878.96	211.75
879.27	211.70
879.58	211.78
879.89	211.62
880.20	211.81
880.51	211.78
880.82	211.80
881.12	211.77
881.43	211.66
881.74	211.62
882.05	211.63
882.36	211.67
882.67	211.70
882.97	211.34
883.28	211.29
883.59	211.34
883.90	211.37
884.21	211.47
884.51	211.39
884.82	211.34
885.13	211.36
885.44	211.40
885.74	211.37
886.05	211.36
886.36	211.38
886.67	211.23
886.98	211.42
887.28	211.47
887.59	211.50
887.90	211.46
888.20	211.50
888.51	211.62
888.82	211.57
889.13	211.67
889.43	211.99
889.74	212.01
890.05	211.95
890.35	211.99
890.66	211.95
890.97	211.97
891.28	211.96
891.58	211.91
891.89	211.87
892.20	211.88
892.50	211.84
892.81	211.84
893.12	211.83
893.42	211.61
893.73	211.59
894.04	211.62
894.34	211.63
894.65	211.62
894.95	211.50
895.26	211.50
895.57	211.61
895.87	211.29
896.18	211.40
896.48	211.46
896.79	211.40
897.10	211.42
897.40	211.48
897.71	211.54
898.01	211.49
898.32	211.49
898.63	211.48
898.93	211.48
899.24	211.54
899.54	211.45
899.85	211.50
900.15	211.54
900.46	211.53
900.76	211.61
901.07	211.61
901.38	211.68
901.68	211.78
901.99	211.65
902.29	211.68
902.60	211.61
902.90	211.55
903.21	211.55
903.51	211.57
903.82	211.61
904.12	211.64
904.43	211.60
904.73	211.61
905.03	211.62
905.34	211.99
905.64	211.95
905.95	212.00
906.25	212.04
906.56	212.04
906.86	212.01
907.17	211.95
907.47	212.06
907.77	212.03
908.08	211.94
908.38	211.86
908.69	211.89
908.99	211.93
909.30	211.96
909.60	211.96
909.90	211.94
910.21	211.86
910.51	211.81
910.81	211.91
911.12	211.91
911.42	211.94
911.73	211.57
912.03	211.58
912.33	211.62
912.64	211.51
912.94	211.42
913.24	211.36
913.55	211.28
913.85	211.16
914.15	211.19
914.46	211.22
914.76	211.20
915.06	211.16
915.37	211.07
915.67	211.08
915.97	211.08
916.27	210.95
916.58	210.99
916.88	210.95
917.18	210.87
917.49	211.06
917.79	211.11
918.09	211.13
918.39	211.27
918.70	211.22
919.00	211.28
919.30	211.40
919.60	211.35
919.91	211.38
920.21	211.42
920.51	211.31
920.81	211.23
921.12	211.30
921.42	211.27
921.72	211.35
922.02	211.35
922.32	211.40
922.63	211.46
922.93	211.57
923.23	211.52
923.53	211.45
923.83	211.27
924.13	211.26
924.44	211.27
924.74	211.24
925.04	211.38
925.34	211.37
925.64	211.27
925.94	211.36
926.24	211.52
926.55	211.42
926.85	211.52
927.15	211.57
927.45	211.53
927.75	211.52
928.05	211.45
928.35	211.43
928.65	211.50
928.95	211.53
929.26	211.41
929.56	211.54
929.86	211.69
930.16	211.62
930.46	211.60
930.76	211.61
931.06	211.47
931.36	211.27
931.66	211.36
931.96	211.43
932.26	211.37
932.56	211.21
932.86	211.29
933.16	211.27
933.46	211.22
933.76	211.20
934.06	211.29
934.36	211.44
934.66	211.40
934.96	211.30
935.26	211.30
935.56	211.31
935.86	211.19
936.16	211.05
936.46	211.02
936.76	210.95
937.06	210.88
937.36	210.92
937.66	210.99
937.96	210.90
938.26	210.75
938.56	210.78
938.86	210.85
939.16	211.00
939.46	211.01
939.76	211.05
940.06	211.03
940.35	210.98
940.65	210.78
940.95	210.87
941.25	210.89
941.55	210.88
941.85	210.85
942.15	210.99
942.45	211.14
942.75	211.16
943.04	211.20
943.34	211.30
943.64	211.26
943.94	211.19
944.24	211.17
944.54	211.21
944.84	211.17
945.13	211.10
945.43	210.95
945.73	210.92
946.03	210.92
946.33	210.89
946.62	210.82
946.92	210.80
947.22	210.81
947.52	210.78
947.82	210.81
948.11	210.80
948.41	210.69
948.71	210.57
949.01	210.52
949.31	210.54
949.60	210.54
949.90	210.62
950.20	210.64
950.50	210.64
950.79	210.65
951.09	210.68
951.39	210.65
951.69	210.63
951.98	210.65
952.28	210.67
952.58	210.74
952.87	210.86
953.17	210.94
953.47	210.87
953.76	210.91
954.06	210.79
954.36	210.80
954.66	210.74
954.95	210.84
955.25	210.90
955.55	210.96
955.84	210.87
956.14	210.84
956.44	210.86
956.73	210.88
957.03	210.90
957.32	210.97
957.62	210.88
957.92	210.99
958.21	210.96
958.51	211.36
958.81	211.35
959.10	211.32
959.40	211.36
959.69	211.45
959.99	211.41
960.29	211.49
960.58	211.34
960.88	211.51
961.17	211.47
961.47	211.49
961.76	211.40
962.06	211.40
962.36	211.43
962.65	211.48
962.95	211.47
963.24	211.42
963.54	211.35
963.83	211.50
964.13	211.43
964.42	211.30
964.72	211.02
965.01	211.05
965.31	211.03
965.60	210.94
965.90	211.13
966.19	211.13
966.49	211.17
966.78	211.16
967.08	211.14
967.37	211.15
967.67	211.14
967.96	211.19
968.26	211.24
968.55	211.27
968.85	211.27
969.14	211.31
969.43	211.30
969.73	211.32
970.02	211.31
970.32	211.31
970.61	211.42
970.91	211.27
971.20	211.20
971.49	211.15
971.79	211.28
972.08	211.02
972.38	211.00
972.67	210.92
972.96	211.08
973.26	211.00
973.55	211.20
973.85	211.16
974.14	211.15
974.43	211.15
974.73	211.11
975.02	211.05
975.31	211.04
975.61	211.10
975.90	211.08
976.19	211.01
976.49	210.98
976.78	211.06
977.07	211.08
977.37	211.17
977.66	211.26
977.95	211.22
978.24	211.20
978.54	211.34
978.83	211.27
979.12	211.25
979.42	211.35
979.71	211.18
980.00	211.16
980.29	211.20
980.59	211.19
980.88	211.28
981.17	211.31
981.46	211.34
981.76	211.31
982.05	211.42
982.34	211.51
982.63	211.56
982.93	211.54
983.22	211.71
983.51	211.72
983.80	211.77
984.09	211.77
984.39	211.81
984.68	211.69
984.97	211.86
985.26	211.80
985.55	211.74
985.85	211.66
986.14	211.75
986.43	211.75
986.72	211.70
987.01	211.59
987.30	211.52
987.59	211.45
987.89	211.50
988.18	211.39
988.47	211.31
988.76	211.29
989.05	211.25
989.34	211.21
989.63	211.23
989.92	211.15
990.22	211.12
990.51	211.09
990.80	211.06
991.09	210.97
991.38	211.03
991.67	210.97
991.96	211.01
992.25	210.95
992.54	210.94
992.83	210.96
993.12	210.95
993.41	211.06
993.70	211.17
993.99	211.17
994.28	211.29
994.58	211.33
994.87	211.31
995.16	211.27
995.45	211.09
995.74	210.97
996.03	211.03
996.32	211.10
996.61	211.13
996.90	211.19
997.19	211.16
997.48	211.19
997.77	211.17
998.06	211.15
998.34	211.07
998.63	211.01
998.92	211.07
999.21	211.10
999.50	211.09
999.79	210.97
1000.08	210.95
1000.37	210.90
1000.66	210.81
1000.95	210.83
1001.24	210.85
1001.53	210.93
1001.82	210.97
1002.11	210.89
1002.40	210.88
1002.68	210.95
1002.97	211.16
1003.26	211.16
1003.55	211.06
1003.84	211.11
1004.13	211.22
1004.42	211.22
1004.71	211.31
1004.99	211.17
1005.28	211.19
1005.57	211.12
1005.86	211.06
1006.15	211.04
1006.44	210.95
1006.72	211.05
1007.01	211.01
1007.30	211.05
1007.59	211.01
1007.88	210.97
1008.17	210.97
1008.45	210.95
1008.74	210.84
1009.03	210.70
1009.32	210.64
1009.60	210.71
1009.89	210.65
1010.18	210.54
1010.47	210.62
1010.76	210.45
1011.04	210.52
1011.33	210.62
1011.62	210.67
1011.91	210.75
1012.19	210.76
1012.48	210.78
1012.77	210.75
1013.05	210.88
1013.34	210.89
1013.63	210.88
1013.92	210.87
1014.20	210.86
1014.49	210.85
1014.78	210.91
1015.06	210.80
1015.35	210.83
1015.64	210.84
1015.92	210.95
1016.21	210.99
1016.50	210.96
1016.78	211.11
1017.07	211.10
1017.36	210.97
1017.64	210.87
1017.93	210.88
1018.22	210.88
1018.50	210.84
1018.79	210.88
1019.08	210.77
1019.36	210.80
1019.65	210.79
1019.93	210.97
1020.22	211.01
1020.51	211.15
1020.79	211.04
1021.08	210.85
1021.36	209.40
1021.65	211.40
1021.94	210.90
1022.22	211.90
1022.51	210.30
1022.79	213.50
1023.08	211.55
1023.36	214.70
1023.65	209.45
>>>>>End Processed Spectral Data<<<<<
