SpectraSuite Data File
++++++++++++++++++++++++++++++++++++
Date: Mon Feb 25 17:14:38 EST 2013
User: group
Dark Spectrum Present: No
Reference Spectrum Present: No
Number of Sampled Component Spectra: 1
Spectrometers: USB2E7196
Integration Time (usec): 104000 (USB2E7196)
Spectra Averaged: 20 (USB2E7196)
Boxcar Smoothing: 10 (USB2E7196)
Correct for Electrical Dark: No (USB2E7196)
Strobe/Lamp Enabled: No (USB2E7196)
Correct for Detector Non-linearity: No (USB2E7196)
Correct for Stray Light: No (USB2E7196)
Number of Pixels in Processed Spectrum: 2048
>>>>>Begin Processed Spectral Data<<<<<
339.09	0.00
339.48	198.95
339.86	200.40
340.24	202.20
340.63	203.40
341.01	209.10
341.39	205.50
341.78	208.40
342.16	209.95
342.54	209.15
342.93	198.45
343.31	208.43
343.69	208.94
344.07	209.35
344.46	209.75
344.84	210.11
345.22	210.12
345.60	210.35
345.99	210.46
346.37	210.47
346.75	210.60
347.13	210.56
347.52	210.57
347.90	210.68
348.28	210.70
348.66	210.77
349.05	210.70
349.43	210.72
349.81	210.79
350.19	210.70
350.57	210.82
350.96	210.88
351.34	210.96
351.72	211.06
352.10	211.16
352.48	211.15
352.87	211.20
353.25	211.31
353.63	211.40
354.01	211.42
354.39	211.58
354.77	211.66
355.15	211.90
355.54	212.01
355.92	212.00
356.30	212.13
356.68	212.47
357.06	212.59
357.44	212.68
357.82	212.71
358.20	212.92
358.58	212.90
358.97	213.01
359.35	213.16
359.73	213.31
360.11	213.37
360.49	213.55
360.87	213.62
361.25	213.71
361.63	213.90
362.01	214.06
362.39	214.11
362.77	214.13
363.15	214.18
363.53	214.18
363.91	214.26
364.29	214.23
364.67	213.91
365.05	213.96
365.43	213.93
365.81	214.01
366.19	214.16
366.57	214.35
366.95	214.39
367.33	214.31
367.71	214.24
368.09	214.34
368.47	214.27
368.85	214.26
369.23	214.34
369.61	214.18
369.99	214.25
370.37	214.20
370.75	214.36
371.13	214.21
371.51	214.19
371.89	214.21
372.27	214.27
372.65	214.31
373.03	214.30
373.41	214.28
373.78	214.23
374.16	213.97
374.54	213.79
374.92	213.69
375.30	213.68
375.68	213.64
376.06	213.62
376.44	213.64
376.82	213.57
377.19	213.49
377.57	213.42
377.95	213.25
378.33	213.23
378.71	213.02
379.09	213.10
379.47	213.08
379.84	212.94
380.22	212.85
380.60	212.71
380.98	212.62
381.36	212.54
381.73	212.42
382.11	212.49
382.49	212.49
382.87	212.42
383.25	212.33
383.62	212.64
384.00	212.45
384.38	212.35
384.76	212.40
385.13	212.51
385.51	212.48
385.89	212.44
386.27	212.38
386.64	212.33
387.02	212.28
387.40	212.20
387.78	212.11
388.15	212.08
388.53	212.04
388.91	211.99
389.29	211.96
389.66	211.98
390.04	211.85
390.42	211.84
390.79	211.79
391.17	211.75
391.55	211.38
391.92	211.47
392.30	211.50
392.68	211.40
393.05	211.29
393.43	211.35
393.81	211.35
394.18	211.28
394.56	211.30
394.94	211.33
395.31	211.30
395.69	211.49
396.06	211.55
396.44	211.54
396.82	211.52
397.19	211.74
397.57	211.69
397.95	211.79
398.32	211.71
398.70	211.84
399.07	211.93
399.45	211.96
399.82	211.91
400.20	211.96
400.58	212.06
400.95	211.89
401.33	211.91
401.70	212.18
402.08	212.25
402.45	212.24
402.83	212.35
403.20	212.47
403.58	212.55
403.95	212.66
404.33	212.82
404.71	212.90
405.08	213.11
405.46	213.30
405.83	213.36
406.21	213.41
406.58	213.51
406.96	213.68
407.33	213.82
407.70	214.05
408.08	214.41
408.45	214.61
408.83	215.03
409.20	215.22
409.58	215.19
409.95	215.45
410.33	215.71
410.70	215.82
411.08	216.16
411.45	216.37
411.82	216.61
412.20	216.94
412.57	217.51
412.95	217.62
413.32	218.04
413.69	218.42
414.07	218.98
414.44	219.44
414.82	219.95
415.19	220.53
415.56	221.01
415.94	221.48
416.31	222.23
416.68	222.84
417.06	223.70
417.43	224.59
417.81	225.51
418.18	226.50
418.55	227.55
418.93	228.60
419.30	229.71
419.67	230.83
420.04	232.01
420.42	233.16
420.79	234.77
421.16	236.24
421.54	237.91
421.91	239.55
422.28	241.20
422.66	242.82
423.03	244.73
423.40	246.57
423.77	248.38
424.15	250.11
424.52	252.08
424.89	254.17
425.26	256.26
425.64	258.20
426.01	260.24
426.38	262.38
426.75	264.73
427.13	267.05
427.50	269.50
427.87	272.12
428.24	274.66
428.61	276.91
428.99	279.64
429.36	282.47
429.73	285.26
430.10	288.14
430.47	291.21
430.85	294.03
431.22	297.23
431.59	300.85
431.96	304.21
432.33	307.78
432.70	311.26
433.08	315.26
433.45	319.15
433.82	323.00
434.19	327.31
434.56	331.46
434.93	335.41
435.30	339.32
435.68	343.60
436.05	347.98
436.42	352.28
436.79	356.22
437.16	360.42
437.53	364.76
437.90	369.18
438.27	373.47
438.64	377.83
439.01	382.02
439.38	385.41
439.75	388.88
440.13	392.98
440.50	396.75
440.87	399.88
441.24	403.04
441.61	406.63
441.98	409.25
442.35	412.23
442.72	415.32
443.09	418.46
443.46	420.34
443.83	421.52
444.20	422.64
444.57	423.98
444.94	424.52
445.31	425.24
445.68	426.22
446.05	426.48
446.42	426.03
446.79	425.46
447.16	424.90
447.53	424.51
447.90	422.86
448.27	421.20
448.64	418.83
449.01	417.21
449.37	414.17
449.74	411.25
450.11	408.08
450.48	404.38
450.85	400.47
451.22	397.14
451.59	393.87
451.96	390.86
452.33	386.90
452.70	383.32
453.07	379.11
453.43	374.46
453.80	370.33
454.17	366.45
454.54	362.69
454.91	358.69
455.28	354.75
455.65	350.99
456.02	347.73
456.38	344.67
456.75	340.85
457.12	337.65
457.49	334.55
457.86	331.17
458.23	328.55
458.59	325.70
458.96	322.81
459.33	320.34
459.70	317.76
460.07	315.74
460.43	313.43
460.80	311.21
461.17	309.33
461.54	307.26
461.91	305.28
462.27	303.25
462.64	301.57
463.01	299.75
463.38	298.15
463.74	295.91
464.11	294.32
464.48	292.86
464.85	291.32
465.21	290.25
465.58	289.04
465.95	287.51
466.32	286.34
466.68	285.13
467.05	283.91
467.42	282.77
467.78	281.57
468.15	280.45
468.52	279.73
468.88	278.53
469.25	277.41
469.62	276.74
469.98	275.94
470.35	275.15
470.72	274.43
471.08	273.42
471.45	272.82
471.82	272.20
472.18	271.48
472.55	271.13
472.92	270.48
473.28	270.06
473.65	269.64
474.02	269.15
474.38	268.80
474.75	268.57
475.11	268.15
475.48	268.03
475.85	267.84
476.21	267.53
476.58	267.47
476.94	267.60
477.31	267.42
477.67	267.39
478.04	267.48
478.41	267.49
478.77	268.03
479.14	268.11
479.50	268.24
479.87	268.52
480.23	268.72
480.60	268.93
480.96	269.08
481.33	269.58
481.69	269.91
482.06	270.34
482.42	270.79
482.79	271.30
483.15	271.72
483.52	272.46
483.88	273.05
484.25	273.74
484.61	274.42
484.98	275.24
485.34	276.17
485.71	277.06
486.07	278.14
486.44	278.84
486.80	279.95
487.17	281.13
487.53	282.46
487.90	283.81
488.26	285.37
488.62	286.97
488.99	288.40
489.35	290.16
489.72	291.92
490.08	293.71
490.44	295.69
490.81	297.87
491.17	299.95
491.54	302.35
491.90	304.83
492.26	307.40
492.63	310.10
492.99	312.78
493.36	315.78
493.72	318.90
494.08	322.13
494.45	325.62
494.81	329.16
495.17	332.79
495.54	336.76
495.90	340.73
496.26	345.00
496.63	349.48
496.99	353.96
497.35	358.66
497.72	363.67
498.08	368.66
498.44	373.88
498.80	379.64
499.17	385.48
499.53	391.22
499.89	397.50
500.26	403.80
500.62	410.36
500.98	417.12
501.34	424.02
501.71	431.35
502.07	438.79
502.43	446.50
502.79	454.23
503.16	462.29
503.52	470.57
503.88	478.99
504.24	487.67
504.60	496.62
504.97	506.05
505.33	515.55
505.69	525.82
506.05	535.99
506.41	546.30
506.78	556.70
507.14	567.39
507.50	578.36
507.86	589.72
508.22	601.25
508.59	612.81
508.95	624.87
509.31	637.05
509.67	649.55
510.03	662.32
510.39	675.48
510.75	688.77
511.12	702.17
511.48	715.91
511.84	730.04
512.20	744.34
512.56	758.79
512.92	773.43
513.28	788.05
513.64	803.16
514.00	818.04
514.37	833.30
514.73	848.94
515.09	864.30
515.45	879.73
515.81	895.52
516.17	911.62
516.53	927.53
516.89	943.70
517.25	959.82
517.61	976.17
517.97	992.45
518.33	1008.70
518.69	1025.23
519.05	1042.13
519.41	1058.80
519.77	1075.84
520.13	1092.30
520.49	1108.80
520.85	1125.37
521.21	1142.01
521.57	1159.08
521.93	1175.50
522.29	1192.71
522.65	1209.78
523.01	1226.68
523.37	1243.47
523.73	1260.24
524.09	1276.95
524.45	1293.64
524.81	1310.58
525.17	1327.31
525.53	1344.10
525.89	1360.94
526.25	1377.83
526.61	1393.56
526.97	1409.73
527.33	1425.55
527.68	1442.14
528.04	1457.97
528.40	1473.56
528.76	1489.05
529.12	1504.60
529.48	1520.89
529.84	1536.25
530.20	1551.87
530.56	1567.19
530.91	1582.79
531.27	1598.23
531.63	1613.41
531.99	1628.35
532.35	1642.75
532.71	1656.85
533.07	1671.58
533.42	1685.55
533.78	1699.54
534.14	1713.63
534.50	1726.37
534.86	1740.05
535.21	1752.45
535.57	1765.88
535.93	1778.80
536.29	1791.33
536.65	1803.72
537.00	1815.25
537.36	1826.69
537.72	1837.30
538.08	1848.72
538.44	1859.75
538.79	1870.43
539.15	1880.96
539.51	1891.24
539.87	1902.23
540.22	1912.81
540.58	1923.13
540.94	1933.36
541.29	1942.29
541.65	1950.99
542.01	1960.26
542.37	1968.41
542.72	1977.26
543.08	1985.00
543.44	1993.69
543.79	2001.14
544.15	2008.16
544.51	2015.80
544.87	2023.41
545.22	2030.55
545.58	2036.53
545.94	2041.79
546.29	2046.86
546.65	2051.55
547.01	2056.21
547.36	2060.53
547.72	2064.72
548.07	2068.07
548.43	2071.00
548.79	2074.44
549.14	2077.92
549.50	2081.54
549.86	2084.14
550.21	2086.41
550.57	2089.24
550.92	2090.45
551.28	2092.24
551.64	2094.16
551.99	2095.95
552.35	2096.56
552.70	2097.88
553.06	2099.42
553.41	2100.87
553.77	2102.35
554.13	2103.47
554.48	2104.67
554.84	2105.15
555.19	2105.24
555.55	2104.79
555.90	2104.51
556.26	2103.74
556.61	2103.29
556.97	2101.60
557.32	2101.06
557.68	2099.56
558.03	2098.09
558.39	2097.16
558.74	2096.79
559.10	2095.97
559.45	2093.97
559.81	2093.06
560.16	2091.10
560.52	2089.30
560.87	2087.02
561.23	2084.23
561.58	2082.44
561.94	2079.51
562.29	2076.68
562.64	2074.23
563.00	2072.48
563.35	2070.67
563.71	2069.53
564.06	2067.17
564.42	2065.65
564.77	2063.82
565.12	2062.17
565.48	2059.98
565.83	2057.58
566.19	2054.98
566.54	2051.56
566.89	2048.50
567.25	2045.49
567.60	2043.00
567.96	2039.65
568.31	2036.92
568.66	2033.68
569.02	2029.64
569.37	2025.83
569.72	2022.11
570.08	2018.35
570.43	2013.93
570.78	2009.47
571.14	2004.17
571.49	1999.49
571.84	1995.18
572.20	1989.66
572.55	1985.08
572.90	1979.52
573.26	1973.91
573.61	1968.15
573.96	1962.62
574.31	1956.71
574.67	1950.18
575.02	1943.34
575.37	1937.22
575.72	1930.49
576.08	1924.73
576.43	1918.37
576.78	1912.75
577.13	1907.10
577.49	1901.08
577.84	1894.74
578.19	1889.15
578.54	1883.83
578.90	1878.52
579.25	1872.26
579.60	1865.88
579.95	1858.97
580.30	1853.46
580.66	1847.85
581.01	1841.51
581.36	1835.10
581.71	1829.11
582.06	1823.44
582.42	1817.70
582.77	1811.26
583.12	1805.37
583.47	1799.56
583.82	1794.16
584.17	1787.89
584.53	1781.85
584.88	1775.55
585.23	1769.90
585.58	1763.44
585.93	1757.01
586.28	1750.74
586.63	1744.52
586.98	1738.69
587.34	1733.31
587.69	1726.91
588.04	1720.57
588.39	1714.89
588.74	1708.62
589.09	1703.04
589.44	1696.71
589.79	1690.98
590.14	1685.71
590.49	1679.65
590.84	1673.42
591.19	1667.95
591.54	1662.16
591.89	1655.25
592.25	1649.31
592.60	1642.88
592.95	1636.53
593.30	1629.54
593.65	1622.70
594.00	1616.24
594.35	1611.46
594.70	1604.90
595.05	1598.86
595.40	1592.73
595.75	1586.11
596.10	1580.63
596.45	1574.67
596.80	1569.31
597.15	1563.43
597.50	1557.07
597.85	1551.56
598.19	1545.48
598.54	1539.25
598.89	1533.72
599.24	1529.04
599.59	1523.71
599.94	1518.83
600.29	1513.49
600.64	1508.51
600.99	1502.81
601.34	1497.49
601.69	1490.48
602.04	1484.89
602.39	1479.00
602.74	1473.49
603.08	1468.67
603.43	1464.00
603.78	1458.48
604.13	1452.81
604.48	1447.40
604.83	1442.94
605.18	1438.25
605.53	1433.05
605.87	1427.61
606.22	1422.37
606.57	1416.64
606.92	1410.89
607.27	1404.97
607.62	1399.18
607.96	1394.08
608.31	1389.17
608.66	1383.50
609.01	1377.85
609.36	1372.28
609.70	1366.61
610.05	1360.68
610.40	1354.56
610.75	1347.74
611.10	1342.23
611.44	1335.63
611.79	1329.05
612.14	1321.85
612.49	1314.55
612.83	1308.38
613.18	1301.65
613.53	1294.83
613.88	1287.90
614.22	1281.35
614.57	1274.59
614.92	1268.15
615.27	1261.19
615.61	1254.55
615.96	1248.15
616.31	1242.34
616.65	1236.33
617.00	1230.42
617.35	1224.31
617.70	1217.93
618.04	1211.37
618.39	1204.19
618.74	1198.08
619.08	1192.09
619.43	1185.90
619.78	1179.90
620.12	1173.49
620.47	1167.70
620.82	1161.33
621.16	1154.91
621.51	1148.69
621.85	1142.51
622.20	1136.06
622.55	1129.82
622.89	1123.31
623.24	1117.06
623.59	1110.43
623.93	1103.94
624.28	1097.66
624.62	1091.76
624.97	1085.84
625.32	1079.93
625.66	1074.25
626.01	1068.37
626.35	1062.36
626.70	1056.52
627.04	1050.76
627.39	1045.13
627.73	1039.12
628.08	1033.70
628.43	1028.06
628.77	1022.29
629.12	1016.57
629.46	1011.54
629.81	1006.16
630.15	1000.76
630.50	995.03
630.84	989.26
631.19	983.70
631.53	978.14
631.88	972.10
632.22	966.20
632.57	960.96
632.91	955.35
633.26	950.12
633.60	944.79
633.95	939.87
634.29	934.48
634.64	929.26
634.98	923.84
635.32	918.52
635.67	913.64
636.01	908.66
636.36	903.40
636.70	898.18
637.05	892.94
637.39	888.14
637.73	883.57
638.08	879.35
638.42	874.91
638.77	870.06
639.11	865.33
639.45	860.47
639.80	855.28
640.14	850.28
640.49	845.13
640.83	840.15
641.17	835.09
641.52	830.08
641.86	825.07
642.20	820.35
642.55	815.05
642.89	809.96
643.23	804.79
643.58	800.20
643.92	795.14
644.26	790.28
644.61	785.36
644.95	780.39
645.29	775.23
645.64	769.98
645.98	765.07
646.32	760.44
646.66	755.59
647.01	751.10
647.35	746.63
647.69	741.62
648.04	736.87
648.38	732.13
648.72	727.58
649.06	722.90
649.41	718.30
649.75	713.93
650.09	709.40
650.43	704.88
650.78	700.05
651.12	695.33
651.46	690.76
651.80	686.18
652.14	681.84
652.49	677.45
652.83	672.95
653.17	668.37
653.51	663.75
653.85	659.60
654.20	655.18
654.54	650.64
654.88	646.43
655.22	642.18
655.56	637.75
655.90	633.35
656.25	628.88
656.59	624.60
656.93	620.48
657.27	616.52
657.61	612.25
657.95	608.20
658.29	604.30
658.64	600.50
658.98	596.48
659.32	592.00
659.66	588.04
660.00	584.08
660.34	580.05
660.68	576.01
661.02	572.06
661.36	568.22
661.70	564.65
662.05	561.13
662.39	557.73
662.73	554.21
663.07	550.85
663.41	547.39
663.75	543.88
664.09	540.11
664.43	536.40
664.77	533.07
665.11	529.85
665.45	526.59
665.79	523.16
666.13	519.93
666.47	516.95
666.81	513.71
667.15	510.49
667.49	507.76
667.83	504.89
668.17	501.84
668.51	499.00
668.85	496.09
669.19	493.36
669.53	490.29
669.87	487.30
670.21	484.36
670.55	481.61
670.89	479.01
671.23	476.67
671.57	474.10
671.91	471.50
672.25	468.70
672.58	465.97
672.92	463.35
673.26	460.88
673.60	458.37
673.94	455.81
674.28	453.52
674.62	451.04
674.96	448.64
675.30	446.18
675.64	443.64
675.97	441.22
676.31	438.80
676.65	436.61
676.99	434.62
677.33	432.28
677.67	430.00
678.01	427.62
678.34	425.20
678.68	422.89
679.02	420.54
679.36	418.47
679.70	416.32
680.04	414.14
680.37	411.90
680.71	409.69
681.05	407.77
681.39	405.67
681.73	403.60
682.06	401.63
682.40	399.84
682.74	397.96
683.08	396.02
683.42	393.88
683.75	391.86
684.09	389.63
684.43	387.72
684.77	385.65
685.10	383.68
685.44	381.68
685.78	379.77
686.12	378.09
686.45	376.17
686.79	374.37
687.13	372.71
687.46	371.00
687.80	369.38
688.14	367.33
688.48	365.58
688.81	363.79
689.15	362.12
689.49	360.25
689.82	358.49
690.16	356.61
690.50	354.92
690.83	353.21
691.17	351.55
691.51	349.83
691.84	348.39
692.18	346.95
692.52	345.45
692.85	344.11
693.19	342.74
693.52	341.28
693.86	339.64
694.20	338.12
694.53	336.54
694.87	335.07
695.21	333.65
695.54	332.07
695.88	330.45
696.21	328.75
696.55	327.38
696.88	326.01
697.22	324.61
697.56	323.32
697.89	321.87
698.23	320.59
698.56	319.24
698.90	317.96
699.23	316.54
699.57	315.21
699.90	313.82
700.24	312.34
700.58	311.12
700.91	310.03
701.25	309.03
701.58	307.93
701.92	306.71
702.25	305.60
702.59	304.50
702.92	303.49
703.26	302.45
703.59	301.38
703.93	300.60
704.26	299.67
704.60	298.53
704.93	297.49
705.26	296.47
705.60	295.56
705.93	294.45
706.27	293.53
706.60	292.74
706.94	291.94
707.27	291.04
707.61	290.05
707.94	289.06
708.27	287.86
708.61	286.90
708.94	286.02
709.28	285.21
709.61	284.33
709.94	283.53
710.28	282.68
710.61	281.89
710.95	280.68
711.28	279.96
711.61	279.26
711.95	278.55
712.28	277.79
712.61	276.96
712.95	276.45
713.28	275.80
713.61	275.05
713.95	274.22
714.28	273.54
714.61	272.76
714.95	272.01
715.28	271.28
715.61	270.59
715.95	269.88
716.28	269.07
716.61	268.43
716.95	267.78
717.28	267.20
717.61	266.56
717.94	265.94
718.28	265.16
718.61	264.51
718.94	263.84
719.27	263.22
719.61	262.75
719.94	262.01
720.27	261.26
720.60	260.62
720.94	260.04
721.27	259.43
721.60	259.00
721.93	258.47
722.27	258.10
722.60	257.58
722.93	257.04
723.26	256.57
723.59	255.97
723.93	255.49
724.26	254.97
724.59	254.47
724.92	253.98
725.25	253.58
725.59	253.10
725.92	252.79
726.25	252.32
726.58	251.82
726.91	251.39
727.24	251.04
727.57	250.61
727.91	250.11
728.24	249.74
728.57	249.30
728.90	249.00
729.23	248.55
729.56	248.25
729.89	247.89
730.22	247.45
730.55	247.11
730.89	246.68
731.22	246.29
731.55	245.85
731.88	245.52
732.21	245.13
732.54	244.70
732.87	244.30
733.20	243.91
733.53	243.57
733.86	243.25
734.19	242.82
734.52	242.53
734.85	242.46
735.18	242.10
735.51	241.91
735.84	241.52
736.17	241.23
736.50	240.76
736.83	240.86
737.16	240.58
737.49	240.28
737.82	240.04
738.15	239.71
738.48	239.46
738.81	239.19
739.14	238.83
739.47	238.59
739.80	238.24
740.13	237.95
740.46	237.58
740.79	237.29
741.12	237.06
741.45	236.67
741.78	236.13
742.11	235.85
742.44	235.43
742.77	235.32
743.10	235.03
743.43	234.79
743.75	234.19
744.08	234.33
744.41	234.09
744.74	233.75
745.07	233.50
745.40	233.31
745.73	233.17
746.06	232.95
746.39	232.76
746.71	232.46
747.04	232.21
747.37	232.01
747.70	231.78
748.03	231.52
748.36	231.34
748.68	231.17
749.01	230.90
749.34	230.70
749.67	230.38
750.00	230.20
750.33	230.21
750.65	229.97
750.98	229.35
751.31	229.12
751.64	228.89
751.97	228.84
752.29	228.59
752.62	228.21
752.95	227.94
753.28	227.71
753.60	227.50
753.93	227.52
754.26	227.36
754.59	227.08
754.91	226.87
755.24	226.75
755.57	226.58
755.90	226.46
756.22	226.20
756.55	226.05
756.88	225.73
757.20	225.29
757.53	224.93
757.86	224.75
758.19	224.62
758.51	224.50
758.84	224.22
759.17	224.05
759.49	223.94
759.82	224.05
760.15	223.98
760.47	223.85
760.80	223.59
761.13	223.46
761.45	223.33
761.78	223.15
762.11	223.06
762.43	222.82
762.76	222.63
763.08	222.59
763.41	222.46
763.74	222.41
764.06	222.39
764.39	222.40
764.71	222.28
765.04	222.15
765.37	222.07
765.69	221.93
766.02	221.77
766.34	221.65
766.67	221.43
767.00	221.39
767.32	221.53
767.65	221.60
767.97	221.47
768.30	221.38
768.62	221.31
768.95	221.14
769.27	221.14
769.60	221.12
769.92	220.98
770.25	220.83
770.57	220.69
770.90	220.62
771.22	220.54
771.55	220.47
771.87	220.37
772.20	220.19
772.52	220.39
772.85	220.65
773.17	220.55
773.50	220.27
773.82	220.04
774.15	219.76
774.47	219.47
774.80	219.31
775.12	219.29
775.45	219.23
775.77	219.17
776.09	219.10
776.42	219.00
776.74	219.01
777.07	218.97
777.39	218.88
777.72	218.70
778.04	218.66
778.36	218.58
778.69	218.53
779.01	218.50
779.33	218.11
779.66	217.77
779.98	217.74
780.31	217.80
780.63	217.91
780.95	217.89
781.28	217.76
781.60	217.68
781.92	217.56
782.25	217.54
782.57	217.43
782.89	217.36
783.22	217.27
783.54	217.10
783.86	217.00
784.19	216.91
784.51	216.94
784.83	216.74
785.16	216.69
785.48	216.65
785.80	216.64
786.12	216.69
786.45	216.57
786.77	216.52
787.09	216.49
787.42	216.34
787.74	216.29
788.06	216.34
788.38	216.36
788.71	216.33
789.03	216.28
789.35	216.21
789.67	216.12
789.99	216.13
790.32	216.07
790.64	216.10
790.96	216.40
791.28	216.30
791.61	216.30
791.93	216.28
792.25	216.24
792.57	216.46
792.89	216.32
793.21	216.34
793.54	216.27
793.86	216.20
794.18	216.16
794.50	216.09
794.82	215.96
795.14	215.91
795.47	215.90
795.79	215.85
796.11	215.82
796.43	215.80
796.75	215.74
797.07	215.82
797.39	215.70
797.71	215.30
798.04	215.24
798.36	215.29
798.68	215.16
799.00	215.14
799.32	214.85
799.64	214.84
799.96	214.81
800.28	214.86
800.60	214.76
800.92	214.70
801.24	214.57
801.56	214.57
801.89	214.57
802.21	214.55
802.53	214.39
802.85	214.38
803.17	214.46
803.49	214.45
803.81	214.29
804.13	214.24
804.45	214.25
804.77	214.20
805.09	214.15
805.41	214.18
805.73	214.11
806.05	214.04
806.37	214.03
806.69	213.92
807.01	213.78
807.33	213.72
807.65	213.67
807.97	213.85
808.28	213.78
808.60	213.73
808.92	213.67
809.24	213.88
809.56	213.86
809.88	213.75
810.20	213.70
810.52	213.79
810.84	213.80
811.16	213.72
811.48	213.76
811.80	213.80
812.12	213.74
812.43	213.73
812.75	213.75
813.07	213.72
813.39	213.74
813.71	213.71
814.03	213.68
814.35	213.64
814.67	213.51
814.98	213.52
815.30	213.51
815.62	213.40
815.94	213.12
816.26	213.10
816.58	213.00
816.89	212.97
817.21	212.88
817.53	212.84
817.85	212.88
818.17	212.76
818.48	212.72
818.80	212.75
819.12	212.72
819.44	212.58
819.76	212.55
820.07	212.56
820.39	212.61
820.71	212.64
821.03	212.55
821.34	212.54
821.66	212.54
821.98	212.56
822.30	212.60
822.61	212.85
822.93	212.79
823.25	212.79
823.57	212.71
823.88	212.73
824.20	212.75
824.52	212.87
824.83	212.90
825.15	212.81
825.47	212.82
825.79	212.86
826.10	212.91
826.42	212.88
826.74	212.90
827.05	212.87
827.37	212.94
827.69	212.95
828.00	212.91
828.32	212.87
828.64	212.81
828.95	212.99
829.27	212.93
829.58	212.95
829.90	213.05
830.22	213.06
830.53	213.01
830.85	212.94
831.17	212.78
831.48	212.74
831.80	212.75
832.11	212.68
832.43	212.60
832.75	212.55
833.06	212.77
833.38	212.62
833.69	212.54
834.01	212.55
834.32	212.57
834.64	212.60
834.96	212.66
835.27	212.63
835.59	212.49
835.90	212.40
836.22	212.37
836.53	212.23
836.85	212.27
837.16	212.65
837.48	212.57
837.79	212.74
838.11	212.80
838.42	212.77
838.74	212.82
839.05	212.81
839.37	212.83
839.68	212.54
840.00	212.62
840.31	212.66
840.63	212.57
840.94	212.52
841.26	212.48
841.57	212.42
841.88	212.53
842.20	212.44
842.51	212.36
842.83	212.35
843.14	212.70
843.46	212.70
843.77	212.49
844.08	212.55
844.40	212.40
844.71	212.39
845.03	212.36
845.34	212.39
845.65	212.39
845.97	212.44
846.28	212.48
846.60	212.48
846.91	212.46
847.22	212.49
847.54	212.61
847.85	212.61
848.16	212.58
848.48	212.40
848.79	212.55
849.10	212.64
849.42	212.62
849.73	212.26
850.04	212.16
850.36	212.01
850.67	212.06
850.98	212.06
851.30	212.08
851.61	212.10
851.92	212.18
852.23	212.27
852.55	212.20
852.86	212.22
853.17	212.22
853.49	212.25
853.80	212.26
854.11	212.27
854.42	212.28
854.74	212.24
855.05	212.31
855.36	212.16
855.67	212.13
855.99	212.14
856.30	212.67
856.61	212.70
856.92	212.71
857.23	212.68
857.55	212.66
857.86	212.61
858.17	212.61
858.48	212.44
858.79	212.39
859.11	212.43
859.42	212.35
859.73	212.30
860.04	212.30
860.35	212.25
860.66	212.14
860.98	212.10
861.29	212.16
861.60	212.12
861.91	212.19
862.22	212.14
862.53	212.16
862.84	211.62
863.16	211.71
863.47	211.70
863.78	211.65
864.09	211.66
864.40	211.67
864.71	211.71
865.02	211.77
865.33	211.69
865.64	211.61
865.95	211.63
866.27	211.79
866.58	211.76
866.89	211.79
867.20	211.79
867.51	211.75
867.82	211.68
868.13	211.80
868.44	211.70
868.75	211.75
869.06	211.78
869.37	211.88
869.68	211.75
869.99	211.74
870.30	211.75
870.61	211.78
870.92	211.76
871.23	211.70
871.54	211.70
871.85	211.79
872.16	211.85
872.47	211.82
872.78	211.66
873.09	211.70
873.40	211.69
873.71	211.71
874.02	211.76
874.33	211.80
874.64	211.75
874.95	211.81
875.26	211.76
875.56	211.73
875.87	211.73
876.18	211.79
876.49	212.12
876.80	212.09
877.11	211.99
877.42	211.98
877.73	211.99
878.04	211.91
878.35	211.94
878.66	211.93
878.96	211.99
879.27	212.01
879.58	211.99
879.89	212.01
880.20	212.10
880.51	212.09
880.82	212.07
881.12	212.12
881.43	212.02
881.74	212.04
882.05	212.00
882.36	211.91
882.67	211.92
882.97	211.56
883.28	211.60
883.59	211.60
883.90	211.67
884.21	211.74
884.51	211.76
884.82	211.67
885.13	211.59
885.44	211.65
885.74	211.61
886.05	211.60
886.36	211.52
886.67	211.36
886.98	211.56
887.28	211.60
887.59	211.56
887.90	211.68
888.20	211.57
888.51	211.66
888.82	211.67
889.13	211.60
889.43	211.90
889.74	211.96
890.05	211.99
890.35	211.90
890.66	211.90
890.97	211.83
891.28	211.83
891.58	211.86
891.89	211.71
892.20	211.73
892.50	211.66
892.81	211.65
893.12	211.64
893.42	211.42
893.73	211.39
894.04	211.33
894.34	211.29
894.65	211.30
894.95	211.25
895.26	211.28
895.57	211.55
895.87	211.25
896.18	211.25
896.48	211.22
896.79	211.19
897.10	211.14
897.40	211.20
897.71	211.24
898.01	211.30
898.32	211.42
898.63	211.40
898.93	211.46
899.24	211.48
899.54	211.56
899.85	211.57
900.15	211.58
900.46	211.63
900.76	211.65
901.07	211.69
901.38	211.64
901.68	211.72
901.99	211.52
902.29	211.55
902.60	211.54
902.90	211.55
903.21	211.57
903.51	211.51
903.82	211.58
904.12	211.51
904.43	211.48
904.73	211.43
905.03	211.46
905.34	211.81
905.64	211.82
905.95	211.71
906.25	211.74
906.56	211.70
906.86	211.70
907.17	211.66
907.47	211.66
907.77	211.61
908.08	211.47
908.38	211.43
908.69	211.50
908.99	211.48
909.30	211.50
909.60	211.51
909.90	211.59
910.21	211.50
910.51	211.45
910.81	211.49
911.12	211.57
911.42	211.53
911.73	211.09
912.03	211.14
912.33	211.24
912.64	211.15
912.94	211.13
913.24	211.07
913.55	211.06
913.85	211.04
914.15	211.17
914.46	211.22
914.76	211.27
915.06	211.15
915.37	211.18
915.67	211.07
915.97	211.03
916.27	210.97
916.58	210.94
916.88	210.96
917.18	210.90
917.49	211.05
917.79	211.05
918.09	211.14
918.39	211.23
918.70	211.18
919.00	211.18
919.30	211.37
919.60	211.35
919.91	211.26
920.21	211.33
920.51	211.24
920.81	211.25
921.12	211.27
921.42	211.21
921.72	211.17
922.02	211.22
922.32	211.34
922.63	211.42
922.93	211.62
923.23	211.65
923.53	211.63
923.83	211.41
924.13	211.42
924.44	211.41
924.74	211.42
925.04	211.50
925.34	211.45
925.64	211.30
925.94	211.35
926.24	211.54
926.55	211.51
926.85	211.58
927.15	211.53
927.45	211.54
927.75	211.65
928.05	211.63
928.35	211.61
928.65	211.66
928.95	211.62
929.26	211.50
929.56	211.56
929.86	211.61
930.16	211.61
930.46	211.60
930.76	211.61
931.06	211.46
931.36	211.40
931.66	211.54
931.96	211.61
932.26	211.55
932.56	211.47
932.86	211.45
933.16	211.44
933.46	211.45
933.76	211.40
934.06	211.49
934.36	211.64
934.66	211.70
934.96	211.56
935.26	211.57
935.56	211.59
935.86	211.61
936.16	211.57
936.46	211.55
936.76	211.51
937.06	211.49
937.36	211.51
937.66	211.51
937.96	211.43
938.26	211.34
938.56	211.36
938.86	211.40
939.16	211.51
939.46	211.53
939.76	211.47
940.06	211.45
940.35	211.28
940.65	211.12
940.95	211.12
941.25	211.12
941.55	211.10
941.85	211.09
942.15	211.09
942.45	211.21
942.75	211.18
943.04	211.25
943.34	211.30
943.64	211.26
943.94	211.21
944.24	211.33
944.54	211.38
944.84	211.37
945.13	211.31
945.43	211.20
945.73	211.22
946.03	211.33
946.33	211.36
946.62	211.38
946.92	211.35
947.22	211.45
947.52	211.45
947.82	211.51
948.11	211.52
948.41	211.42
948.71	211.26
949.01	211.35
949.31	211.35
949.60	211.35
949.90	211.47
950.20	211.46
950.50	211.39
950.79	211.38
951.09	211.45
951.39	211.42
951.69	211.37
951.98	211.44
952.28	211.40
952.58	211.35
952.87	211.39
953.17	211.47
953.47	211.39
953.76	211.38
954.06	211.30
954.36	211.29
954.66	211.29
954.95	211.45
955.25	211.42
955.55	211.39
955.84	211.31
956.14	211.32
956.44	211.38
956.73	211.35
957.03	211.32
957.32	211.28
957.62	211.29
957.92	211.39
958.21	211.33
958.51	211.78
958.81	211.84
959.10	211.88
959.40	212.00
959.69	211.97
959.99	212.04
960.29	212.05
960.58	211.94
960.88	212.04
961.17	212.02
961.47	212.06
961.76	212.05
962.06	212.15
962.36	212.06
962.65	212.08
962.95	212.12
963.24	212.10
963.54	212.11
963.83	212.16
964.13	212.18
964.42	212.02
964.72	211.71
965.01	211.71
965.31	211.67
965.60	211.59
965.90	211.76
966.19	211.70
966.49	211.71
966.78	211.76
967.08	211.80
967.37	211.74
967.67	211.70
967.96	211.82
968.26	211.77
968.55	211.85
968.85	211.80
969.14	211.73
969.43	211.74
969.73	211.71
970.02	211.67
970.32	211.62
970.61	211.74
970.91	211.66
971.20	211.57
971.49	211.52
971.79	211.51
972.08	211.30
972.38	211.28
972.67	211.28
972.96	211.34
973.26	211.24
973.55	211.38
973.85	211.41
974.14	211.27
974.43	211.34
974.73	211.27
975.02	211.26
975.31	211.37
975.61	211.39
975.90	211.36
976.19	211.30
976.49	211.25
976.78	211.21
977.07	211.15
977.37	211.18
977.66	211.27
977.95	211.25
978.24	211.30
978.54	211.44
978.83	211.47
979.12	211.42
979.42	211.45
979.71	211.40
980.00	211.36
980.29	211.43
980.59	211.29
980.88	211.38
981.17	211.40
981.46	211.34
981.76	211.36
982.05	211.45
982.34	211.52
982.63	211.59
982.93	211.64
983.22	211.75
983.51	211.84
983.80	211.87
984.09	211.86
984.39	211.85
984.68	211.80
984.97	211.71
985.26	211.70
985.55	211.68
985.85	211.57
986.14	211.58
986.43	211.62
986.72	211.60
987.01	211.49
987.30	211.42
987.59	211.41
987.89	211.46
988.18	211.41
988.47	211.40
988.76	211.38
989.05	211.30
989.34	211.24
989.63	211.26
989.92	211.12
990.22	211.11
990.51	211.05
990.80	211.03
991.09	211.05
991.38	211.10
991.67	211.12
991.96	211.08
992.25	211.08
992.54	211.04
992.83	211.06
993.12	211.00
993.41	211.12
993.70	211.25
993.99	211.29
994.28	211.30
994.58	211.30
994.87	211.24
995.16	211.23
995.45	211.21
995.74	211.05
996.03	211.19
996.32	211.23
996.61	211.33
996.90	211.33
997.19	211.39
997.48	211.42
997.77	211.33
998.06	211.37
998.34	211.34
998.63	211.32
998.92	211.34
999.21	211.38
999.50	211.32
999.79	211.17
1000.08	211.10
1000.37	211.13
1000.66	211.13
1000.95	211.26
1001.24	211.30
1001.53	211.28
1001.82	211.24
1002.11	211.10
1002.40	211.17
1002.68	211.16
1002.97	211.32
1003.26	211.24
1003.55	211.09
1003.84	211.12
1004.13	211.20
1004.42	211.14
1004.71	211.10
1004.99	211.09
1005.28	211.22
1005.57	211.23
1005.86	211.24
1006.15	211.26
1006.44	211.18
1006.72	211.21
1007.01	211.10
1007.30	211.10
1007.59	211.12
1007.88	211.14
1008.17	211.12
1008.45	211.00
1008.74	211.00
1009.03	210.84
1009.32	210.85
1009.60	210.94
1009.89	210.90
1010.18	210.78
1010.47	210.84
1010.76	210.82
1011.04	210.86
1011.33	210.86
1011.62	210.88
1011.91	210.93
1012.19	210.87
1012.48	210.88
1012.77	210.83
1013.05	211.02
1013.34	211.05
1013.63	210.97
1013.92	211.01
1014.20	211.06
1014.49	211.04
1014.78	211.02
1015.06	210.90
1015.35	210.89
1015.64	210.94
1015.92	211.01
1016.21	211.07
1016.50	211.06
1016.78	211.11
1017.07	211.04
1017.36	210.97
1017.64	210.88
1017.93	210.88
1018.22	210.84
1018.50	210.75
1018.79	210.82
1019.08	210.62
1019.36	210.60
1019.65	210.70
1019.93	210.76
1020.22	210.79
1020.51	211.01
1020.79	210.91
1021.08	209.70
1021.36	208.90
1021.65	211.85
1021.94	210.45
1022.22	210.75
1022.51	211.80
1022.79	211.85
1023.08	211.10
1023.36	215.50
1023.65	209.00
>>>>>End Processed Spectral Data<<<<<
