SpectraSuite Data File
++++++++++++++++++++++++++++++++++++
Date: Mon Feb 25 17:14:20 EST 2013
User: group
Dark Spectrum Present: No
Reference Spectrum Present: No
Number of Sampled Component Spectra: 1
Spectrometers: USB2E7196
Integration Time (usec): 104000 (USB2E7196)
Spectra Averaged: 20 (USB2E7196)
Boxcar Smoothing: 10 (USB2E7196)
Correct for Electrical Dark: No (USB2E7196)
Strobe/Lamp Enabled: No (USB2E7196)
Correct for Detector Non-linearity: No (USB2E7196)
Correct for Stray Light: No (USB2E7196)
Number of Pixels in Processed Spectrum: 2048
>>>>>Begin Processed Spectral Data<<<<<
339.09	0.00
339.48	198.90
339.86	199.70
340.24	202.45
340.63	202.60
341.01	209.80
341.39	204.65
341.78	207.50
342.16	208.65
342.54	209.25
342.93	198.36
343.31	208.34
343.69	208.85
344.07	209.38
344.46	209.79
344.84	210.18
345.22	210.20
345.60	210.49
345.99	210.67
346.37	210.76
346.75	210.77
347.13	210.75
347.52	210.77
347.90	210.90
348.28	210.95
348.66	211.04
349.05	210.90
349.43	210.91
349.81	210.96
350.19	211.02
350.57	211.09
350.96	211.08
351.34	211.19
351.72	211.31
352.10	211.35
352.48	211.36
352.87	211.41
353.25	211.49
353.63	211.50
354.01	211.49
354.39	211.57
354.77	211.70
355.15	211.90
355.54	211.83
355.92	211.79
356.30	211.88
356.68	212.19
357.06	212.30
357.44	212.31
357.82	212.37
358.20	212.51
358.58	212.55
358.97	212.60
359.35	212.73
359.73	212.82
360.11	212.87
360.49	212.94
360.87	212.95
361.25	213.09
361.63	213.30
362.01	213.40
362.39	213.41
362.77	213.47
363.15	213.47
363.53	213.54
363.91	213.58
364.29	213.54
364.67	213.22
365.05	213.24
365.43	213.36
365.81	213.39
366.19	213.49
366.57	213.66
366.95	213.69
367.33	213.63
367.71	213.63
368.09	213.73
368.47	213.71
368.85	213.75
369.23	213.73
369.61	213.59
369.99	213.74
370.37	213.79
370.75	213.90
371.13	213.89
371.51	213.85
371.89	213.85
372.27	213.84
372.65	213.81
373.03	213.82
373.41	213.69
373.78	213.60
374.16	213.48
374.54	213.37
374.92	213.27
375.30	213.24
375.68	213.16
376.06	213.12
376.44	213.10
376.82	213.12
377.19	213.14
377.57	213.10
377.95	212.89
378.33	212.86
378.71	212.65
379.09	212.66
379.47	212.67
379.84	212.61
380.22	212.62
380.60	212.62
380.98	212.46
381.36	212.43
381.73	212.37
382.11	212.30
382.49	212.20
382.87	212.16
383.25	212.13
383.62	212.47
384.00	212.37
384.38	212.36
384.76	212.41
385.13	212.47
385.51	212.42
385.89	212.37
386.27	212.30
386.64	212.30
387.02	212.25
387.40	212.22
387.78	212.27
388.15	212.27
388.53	212.22
388.91	212.28
389.29	212.31
389.66	212.38
390.04	212.40
390.42	212.45
390.79	212.45
391.17	212.40
391.55	212.04
391.92	212.01
392.30	211.97
392.68	211.73
393.05	211.67
393.43	211.72
393.81	211.67
394.18	211.62
394.56	211.67
394.94	211.73
395.31	211.62
395.69	211.66
396.06	211.63
396.44	211.65
396.82	211.63
397.19	211.79
397.57	211.78
397.95	211.78
398.32	211.68
398.70	211.77
399.07	211.88
399.45	211.88
399.82	211.92
400.20	211.91
400.58	211.98
400.95	211.87
401.33	211.92
401.70	212.27
402.08	212.31
402.45	212.33
402.83	212.35
403.20	212.50
403.58	212.45
403.95	212.57
404.33	212.70
404.71	212.80
405.08	213.04
405.46	213.09
405.83	213.22
406.21	213.38
406.58	213.50
406.96	213.56
407.33	213.71
407.70	213.85
408.08	214.35
408.45	214.63
408.83	214.85
409.20	214.98
409.58	214.91
409.95	215.26
410.33	215.51
410.70	215.68
411.08	215.91
411.45	216.26
411.82	216.55
412.20	216.89
412.57	217.48
412.95	217.50
413.32	217.97
413.69	218.37
414.07	218.80
414.44	219.21
414.82	219.76
415.19	220.31
415.56	220.88
415.94	221.30
416.31	222.01
416.68	222.73
417.06	223.61
417.43	224.50
417.81	225.38
418.18	226.32
418.55	227.29
418.93	228.40
419.30	229.42
419.67	230.59
420.04	231.76
420.42	232.86
420.79	234.52
421.16	235.85
421.54	237.53
421.91	238.96
422.28	240.59
422.66	242.22
423.03	244.13
423.40	245.88
423.77	247.64
424.15	249.49
424.52	251.40
424.89	253.42
425.26	255.44
425.64	257.40
426.01	259.36
426.38	261.55
426.75	263.74
427.13	266.09
427.50	268.36
427.87	270.84
428.24	273.20
428.61	275.47
428.99	278.29
429.36	280.95
429.73	283.84
430.10	286.70
430.47	289.62
430.85	292.35
431.22	295.53
431.59	299.09
431.96	302.17
432.33	305.67
432.70	309.12
433.08	313.03
433.45	316.68
433.82	320.49
434.19	324.65
434.56	328.77
434.93	332.58
435.30	336.48
435.68	340.75
436.05	345.10
436.42	349.21
436.79	353.03
437.16	357.13
437.53	361.57
437.90	365.77
438.27	370.04
438.64	374.32
439.01	378.43
439.38	381.78
439.75	385.23
440.13	389.27
440.50	392.85
440.87	395.87
441.24	398.99
441.61	402.48
441.98	404.99
442.35	407.80
442.72	410.84
443.09	413.96
443.46	415.65
443.83	416.70
444.20	417.67
444.57	419.03
444.94	419.68
445.31	420.25
445.68	421.20
446.05	421.37
446.42	421.03
446.79	420.41
447.16	419.78
447.53	419.39
447.90	417.59
448.27	415.99
448.64	413.65
449.01	411.92
449.37	408.97
449.74	406.05
450.11	403.04
450.48	399.37
450.85	395.40
451.22	392.20
451.59	389.22
451.96	386.29
452.33	382.32
452.70	378.79
453.07	374.54
453.43	370.05
453.80	366.05
454.17	362.15
454.54	358.44
454.91	354.54
455.28	350.60
455.65	347.03
456.02	343.96
456.38	340.98
456.75	337.33
457.12	334.26
457.49	331.23
457.86	327.94
458.23	325.48
458.59	322.70
458.96	319.92
459.33	317.39
459.70	314.96
460.07	312.97
460.43	310.65
460.80	308.55
461.17	306.73
461.54	304.67
461.91	302.67
462.27	300.72
462.64	299.03
463.01	297.33
463.38	295.70
463.74	293.47
464.11	292.00
464.48	290.70
464.85	289.11
465.21	288.10
465.58	286.96
465.95	285.48
466.32	284.30
466.68	283.11
467.05	281.97
467.42	280.80
467.78	279.67
468.15	278.59
468.52	277.85
468.88	276.70
469.25	275.72
469.62	275.05
469.98	274.23
470.35	273.53
470.72	272.81
471.08	271.99
471.45	271.35
471.82	270.73
472.18	269.99
472.55	269.58
472.92	268.99
473.28	268.50
473.65	267.95
474.02	267.60
474.38	267.34
474.75	267.04
475.11	266.67
475.48	266.48
475.85	266.28
476.21	266.02
476.58	265.83
476.94	265.71
477.31	265.58
477.67	265.51
478.04	265.53
478.41	265.64
478.77	266.08
479.14	266.15
479.50	266.32
479.87	266.58
480.23	266.78
480.60	266.85
480.96	267.10
481.33	267.64
481.69	267.87
482.06	268.17
482.42	268.51
482.79	269.02
483.15	269.50
483.52	270.19
483.88	270.79
484.25	271.47
484.61	272.23
484.98	272.92
485.34	273.88
485.71	274.81
486.07	275.68
486.44	276.33
486.80	277.46
487.17	278.58
487.53	279.79
487.90	281.16
488.26	282.81
488.62	284.33
488.99	285.78
489.35	287.52
489.72	289.21
490.08	290.98
490.44	292.86
490.81	294.88
491.17	296.91
491.54	299.16
491.90	301.49
492.26	303.97
492.63	306.57
492.99	309.01
493.36	311.76
493.72	314.77
494.08	317.75
494.45	320.95
494.81	324.33
495.17	327.82
495.54	331.60
495.90	335.28
496.26	339.28
496.63	343.43
496.99	347.72
497.35	352.32
497.72	357.06
498.08	361.86
498.44	366.85
498.80	372.17
499.17	377.61
499.53	383.22
499.89	389.13
500.26	395.09
500.62	401.42
500.98	407.92
501.34	414.57
501.71	421.60
502.07	428.58
502.43	435.88
502.79	443.34
503.16	451.02
503.52	459.09
503.88	467.10
504.24	475.35
504.60	483.77
504.97	492.55
505.33	501.50
505.69	511.14
506.05	520.67
506.41	530.41
506.78	540.35
507.14	550.43
507.50	560.69
507.86	571.42
508.22	582.47
508.59	593.45
508.95	604.80
509.31	616.41
509.67	628.24
510.03	640.15
510.39	652.55
510.75	665.02
511.12	677.73
511.48	690.75
511.84	704.13
512.20	717.43
512.56	731.10
512.92	745.13
513.28	759.01
513.64	772.99
514.00	787.16
514.37	801.42
514.73	816.43
515.09	831.23
515.45	845.86
515.81	860.74
516.17	875.77
516.53	891.00
516.89	906.25
517.25	921.51
517.61	936.91
517.97	952.06
518.33	967.58
518.69	983.04
519.05	998.63
519.41	1014.36
519.77	1030.79
520.13	1046.49
520.49	1062.04
520.85	1077.82
521.21	1093.94
521.57	1110.06
521.93	1125.91
522.29	1142.00
522.65	1158.30
523.01	1174.47
523.37	1190.03
523.73	1206.18
524.09	1221.88
524.45	1237.81
524.81	1253.89
525.17	1269.95
525.53	1286.02
525.89	1301.95
526.25	1317.57
526.61	1333.12
526.97	1348.45
527.33	1363.68
527.68	1379.29
528.04	1394.53
528.40	1409.10
528.76	1423.96
529.12	1439.13
529.48	1454.64
529.84	1469.21
530.20	1483.68
530.56	1498.66
530.91	1513.90
531.27	1528.65
531.63	1543.24
531.99	1557.44
532.35	1571.28
532.71	1584.98
533.07	1599.12
533.42	1612.47
533.78	1626.36
534.14	1639.52
534.50	1651.98
534.86	1664.95
535.21	1676.75
535.57	1689.49
535.93	1701.86
536.29	1713.92
536.65	1725.70
537.00	1736.62
537.36	1747.69
537.72	1758.19
538.08	1768.65
538.44	1778.84
538.79	1789.25
539.15	1799.68
539.51	1810.05
539.87	1820.44
540.22	1830.22
540.58	1839.94
540.94	1849.67
541.29	1858.23
541.65	1866.68
542.01	1875.45
542.37	1883.30
542.72	1892.07
543.08	1899.42
543.44	1907.71
543.79	1914.75
544.15	1921.26
544.51	1928.52
544.87	1935.74
545.22	1942.59
545.58	1948.59
545.94	1953.89
546.29	1958.39
546.65	1963.03
547.01	1967.68
547.36	1971.97
547.72	1976.23
548.07	1979.72
548.43	1982.83
548.79	1986.00
549.14	1989.23
549.50	1992.46
549.86	1994.83
550.21	1997.16
550.57	1999.84
550.92	2001.38
551.28	2003.34
551.64	2005.43
551.99	2007.50
552.35	2008.30
552.70	2009.50
553.06	2010.86
553.41	2012.35
553.77	2013.88
554.13	2014.32
554.48	2014.81
554.84	2015.66
555.19	2016.08
555.55	2016.12
555.90	2015.74
556.26	2015.33
556.61	2015.20
556.97	2014.33
557.32	2014.24
557.68	2012.75
558.03	2011.37
558.39	2010.25
558.74	2009.84
559.10	2008.62
559.45	2007.18
559.81	2006.40
560.16	2004.83
560.52	2003.29
560.87	2001.64
561.23	1999.28
561.58	1998.15
561.94	1995.74
562.29	1992.61
562.64	1990.36
563.00	1988.21
563.35	1986.74
563.71	1985.40
564.06	1983.60
564.42	1981.89
564.77	1979.91
565.12	1978.40
565.48	1976.77
565.83	1974.83
566.19	1972.42
566.54	1969.46
566.89	1966.32
567.25	1963.28
567.60	1960.32
567.96	1957.15
568.31	1954.23
568.66	1951.16
569.02	1947.47
569.37	1943.75
569.72	1940.73
570.08	1936.82
570.43	1932.95
570.78	1928.45
571.14	1923.99
571.49	1919.21
571.84	1915.13
572.20	1909.73
572.55	1905.15
572.90	1899.65
573.26	1894.20
573.61	1888.66
573.96	1883.83
574.31	1878.19
574.67	1872.18
575.02	1866.17
575.37	1860.32
575.72	1853.87
576.08	1848.60
576.43	1842.30
576.78	1836.91
577.13	1831.60
577.49	1825.94
577.84	1820.08
578.19	1814.64
578.54	1809.45
578.90	1804.53
579.25	1798.49
579.60	1792.84
579.95	1786.66
580.30	1781.54
580.66	1776.16
581.01	1770.36
581.36	1763.95
581.71	1757.77
582.06	1752.43
582.42	1746.98
582.77	1740.84
583.12	1735.02
583.47	1729.35
583.82	1724.36
584.17	1718.52
584.53	1712.58
584.88	1706.92
585.23	1701.28
585.58	1695.61
585.93	1689.42
586.28	1683.38
586.63	1677.64
586.98	1672.17
587.34	1666.85
587.69	1661.05
588.04	1655.45
588.39	1649.88
588.74	1644.12
589.09	1639.06
589.44	1632.97
589.79	1627.61
590.14	1622.77
590.49	1617.22
590.84	1611.22
591.19	1605.98
591.54	1600.45
591.89	1593.82
592.25	1587.81
592.60	1581.60
592.95	1575.44
593.30	1568.75
593.65	1562.14
594.00	1555.90
594.35	1551.16
594.70	1545.34
595.05	1539.56
595.40	1533.41
595.75	1527.25
596.10	1521.89
596.45	1516.34
596.80	1511.37
597.15	1505.89
597.50	1499.82
597.85	1494.62
598.19	1489.00
598.54	1483.02
598.89	1477.66
599.24	1473.20
599.59	1468.19
599.94	1463.58
600.29	1458.51
600.64	1453.89
600.99	1448.63
601.34	1443.43
601.69	1436.92
602.04	1430.91
602.39	1425.61
602.74	1420.58
603.08	1416.03
603.43	1411.41
603.78	1406.40
604.13	1401.07
604.48	1395.92
604.83	1391.57
605.18	1387.06
605.53	1381.97
605.87	1376.46
606.22	1371.55
606.57	1366.25
606.92	1360.94
607.27	1355.29
607.62	1350.05
607.96	1345.18
608.31	1340.61
608.66	1335.27
609.01	1329.97
609.36	1324.70
609.70	1318.75
610.05	1313.02
610.40	1307.34
610.75	1301.38
611.10	1295.85
611.44	1289.41
611.79	1282.92
612.14	1276.20
612.49	1269.40
612.83	1263.44
613.18	1257.40
613.53	1250.74
613.88	1244.16
614.22	1237.93
614.57	1231.67
614.92	1225.17
615.27	1218.46
615.61	1211.70
615.96	1205.71
616.31	1199.89
616.65	1194.55
617.00	1188.97
617.35	1183.04
617.70	1176.74
618.04	1170.17
618.39	1163.41
618.74	1157.55
619.08	1151.59
619.43	1145.53
619.78	1139.61
620.12	1133.52
620.47	1127.66
620.82	1121.54
621.16	1115.24
621.51	1109.34
621.85	1103.48
622.20	1097.43
622.55	1091.54
622.89	1085.75
623.24	1079.86
623.59	1073.66
623.93	1067.45
624.28	1061.48
624.62	1055.96
624.97	1050.39
625.32	1044.95
625.66	1039.53
626.01	1034.14
626.35	1028.87
626.70	1023.28
627.04	1018.07
627.39	1012.79
627.73	1007.48
628.08	1002.55
628.43	997.27
628.77	991.63
629.12	985.96
629.46	981.13
629.81	975.87
630.15	970.65
630.50	965.07
630.84	959.49
631.19	954.05
631.53	948.80
631.88	942.95
632.22	937.44
632.57	932.35
632.91	927.12
633.26	921.71
633.60	916.72
633.95	911.97
634.29	906.71
634.64	901.65
634.98	896.21
635.32	891.19
635.67	886.53
636.01	881.94
636.36	877.01
636.70	872.01
637.05	867.20
637.39	862.43
637.73	858.15
638.08	854.30
638.42	849.91
638.77	845.25
639.11	840.75
639.45	835.97
639.80	831.22
640.14	826.30
640.49	821.63
640.83	816.84
641.17	812.00
641.52	807.29
641.86	802.37
642.20	797.87
642.55	792.71
642.89	787.79
643.23	782.79
643.58	778.40
643.92	773.52
644.26	768.72
644.61	763.98
644.95	759.09
645.29	753.97
645.64	749.18
645.98	744.50
646.32	740.05
646.66	735.32
647.01	730.78
647.35	726.38
647.69	721.62
648.04	717.07
648.38	712.63
648.72	708.22
649.06	703.67
649.41	699.22
649.75	694.85
650.09	690.53
650.43	686.11
650.78	681.60
651.12	676.95
651.46	672.60
651.80	668.40
652.14	664.27
652.49	659.99
652.83	655.65
653.17	651.12
653.51	646.65
653.85	642.71
654.20	638.43
654.54	634.11
654.88	630.01
655.22	625.77
655.56	621.42
655.90	617.09
656.25	612.99
656.59	608.75
656.93	604.89
657.27	600.86
657.61	596.70
657.95	592.80
658.29	589.03
658.64	585.39
658.98	581.46
659.32	577.32
659.66	573.60
660.00	569.80
660.34	566.14
660.68	562.31
661.02	558.45
661.36	554.97
661.70	551.44
662.05	548.15
662.39	544.68
662.73	541.47
663.07	538.29
663.41	535.07
663.75	531.89
664.09	528.49
664.43	525.17
664.77	521.97
665.11	518.65
665.45	515.64
665.79	512.36
666.13	509.18
666.47	506.05
666.81	502.84
667.15	499.68
667.49	496.88
667.83	494.32
668.17	491.49
668.51	488.51
668.85	485.84
669.19	483.14
669.53	480.34
669.87	477.43
670.21	474.58
670.55	471.72
670.89	469.20
671.23	466.71
671.57	464.25
671.91	461.75
672.25	459.20
672.58	456.72
672.92	454.17
673.26	451.82
673.60	449.46
673.94	447.15
674.28	444.91
674.62	442.66
674.96	440.15
675.30	437.79
675.64	435.41
675.97	433.10
676.31	430.73
676.65	428.50
676.99	426.53
677.33	424.34
677.67	422.29
678.01	419.95
678.34	417.77
678.68	415.56
679.02	413.38
679.36	411.29
679.70	409.27
680.04	407.20
680.37	405.07
680.71	403.07
681.05	401.11
681.39	399.11
681.73	397.02
682.06	395.27
682.40	393.45
682.74	391.59
683.08	389.69
683.42	387.66
683.75	385.83
684.09	383.83
684.43	381.97
684.77	379.89
685.10	378.09
685.44	376.20
685.78	374.39
686.12	372.79
686.45	371.10
686.79	369.21
687.13	367.61
687.46	365.95
687.80	364.33
688.14	362.58
688.48	360.87
688.81	359.04
689.15	357.25
689.49	355.46
689.82	353.82
690.16	352.04
690.50	350.45
690.83	348.78
691.17	347.05
691.51	345.44
691.84	344.17
692.18	342.65
692.52	341.24
692.85	339.92
693.19	338.47
693.52	336.97
693.86	335.51
694.20	334.00
694.53	332.55
694.87	331.03
695.21	329.50
695.54	328.06
695.88	326.65
696.21	325.17
696.55	323.83
696.88	322.39
697.22	321.08
697.56	319.86
697.89	318.55
698.23	317.39
698.56	316.16
698.90	314.92
699.23	313.65
699.57	312.31
699.90	310.95
700.24	309.64
700.58	308.45
700.91	307.38
701.25	306.37
701.58	305.29
701.92	304.18
702.25	303.14
702.59	302.07
702.92	300.99
703.26	299.92
703.59	298.82
703.93	298.12
704.26	297.13
704.60	296.12
704.93	295.12
705.26	294.05
705.60	293.19
705.93	292.15
706.27	291.26
706.60	290.51
706.94	289.72
707.27	288.74
707.61	287.86
707.94	286.78
708.27	285.78
708.61	284.84
708.94	284.00
709.28	283.20
709.61	282.30
709.94	281.58
710.28	280.83
710.61	280.04
710.95	279.03
711.28	278.41
711.61	277.56
711.95	276.93
712.28	276.20
712.61	275.35
712.95	274.73
713.28	274.10
713.61	273.21
713.95	272.46
714.28	271.86
714.61	271.05
714.95	270.40
715.28	269.65
715.61	268.90
715.95	268.21
716.28	267.49
716.61	266.90
716.95	266.24
717.28	265.67
717.61	265.10
717.94	264.45
718.28	263.70
718.61	263.12
718.94	262.45
719.27	261.91
719.61	261.31
719.94	260.66
720.27	259.92
720.60	259.36
720.94	258.79
721.27	258.22
721.60	257.80
721.93	257.24
722.27	256.81
722.60	256.43
722.93	255.93
723.26	255.36
723.59	254.91
723.93	254.36
724.26	253.89
724.59	253.33
724.92	252.91
725.25	252.56
725.59	252.07
725.92	251.67
726.25	251.17
726.58	250.79
726.91	250.43
727.24	250.10
727.57	249.76
727.91	249.25
728.24	248.93
728.57	248.51
728.90	248.23
729.23	247.74
729.56	247.59
729.89	247.20
730.22	246.83
730.55	246.39
730.89	246.10
731.22	245.66
731.55	245.37
731.88	244.97
732.21	244.55
732.54	244.25
732.87	243.91
733.20	243.62
733.53	243.26
733.86	242.82
734.19	242.38
734.52	242.07
734.85	242.02
735.18	241.58
735.51	241.34
735.84	241.09
736.17	240.90
736.50	240.30
736.83	240.34
737.16	240.15
737.49	239.85
737.82	239.49
738.15	239.25
738.48	238.96
738.81	238.66
739.14	238.30
739.47	237.93
739.80	237.53
740.13	237.23
740.46	236.91
740.79	236.64
741.12	236.37
741.45	235.97
741.78	235.41
742.11	235.26
742.44	234.95
742.77	234.70
743.10	234.37
743.43	234.10
743.75	233.52
744.08	233.66
744.41	233.37
744.74	233.06
745.07	232.77
745.40	232.64
745.73	232.59
746.06	232.40
746.39	232.22
746.71	232.02
747.04	231.75
747.37	231.56
747.70	231.45
748.03	231.25
748.36	231.17
748.68	231.06
749.01	230.70
749.34	230.45
749.67	230.21
750.00	230.08
750.33	230.19
750.65	230.00
750.98	229.39
751.31	229.22
751.64	229.08
751.97	229.04
752.29	228.80
752.62	228.49
752.95	228.29
753.28	228.08
753.60	227.84
753.93	227.78
754.26	227.63
754.59	227.25
754.91	227.03
755.24	226.83
755.57	226.64
755.90	226.49
756.22	226.32
756.55	226.07
756.88	225.82
757.20	225.35
757.53	225.13
757.86	224.98
758.19	224.82
758.51	224.67
758.84	224.37
759.17	224.11
759.49	223.93
759.82	223.92
760.15	223.83
760.47	223.75
760.80	223.49
761.13	223.37
761.45	223.27
761.78	223.14
762.11	222.94
762.43	222.70
762.76	222.60
763.08	222.54
763.41	222.44
763.74	222.32
764.06	222.21
764.39	222.07
764.71	221.88
765.04	221.73
765.37	221.64
765.69	221.51
766.02	221.36
766.34	221.28
766.67	221.03
767.00	220.95
767.32	221.04
767.65	221.16
767.97	221.02
768.30	220.95
768.62	220.93
768.95	220.84
769.27	220.81
769.60	220.80
769.92	220.63
770.25	220.52
770.57	220.35
770.90	220.23
771.22	220.13
771.55	220.08
771.87	219.98
772.20	219.86
772.52	220.09
772.85	220.46
773.17	220.36
773.50	220.27
773.82	220.12
774.15	219.89
774.47	219.50
774.80	219.39
775.12	219.28
775.45	219.14
775.77	219.09
776.09	219.04
776.42	218.99
776.74	218.98
777.07	218.85
777.39	218.84
777.72	218.73
778.04	218.72
778.36	218.68
778.69	218.66
779.01	218.63
779.33	218.29
779.66	217.83
779.98	217.73
780.31	217.66
780.63	217.76
780.95	217.75
781.28	217.69
781.60	217.61
781.92	217.56
782.25	217.53
782.57	217.40
782.89	217.34
783.22	217.25
783.54	217.20
783.86	217.22
784.19	217.17
784.51	217.23
784.83	217.09
785.16	217.05
785.48	217.04
785.80	217.00
786.12	216.97
786.45	216.96
786.77	217.01
787.09	216.96
787.42	216.72
787.74	216.61
788.06	216.62
788.38	216.50
788.71	216.37
789.03	216.34
789.35	216.42
789.67	216.30
789.99	216.22
790.32	216.08
790.64	216.05
790.96	216.28
791.28	216.12
791.61	216.04
791.93	215.96
792.25	215.86
792.57	216.03
792.89	215.89
793.21	215.80
793.54	215.67
793.86	215.62
794.18	215.63
794.50	215.56
794.82	215.57
795.14	215.66
795.47	215.80
795.79	215.75
796.11	215.59
796.43	215.52
796.75	215.50
797.07	215.52
797.39	215.49
797.71	215.20
798.04	215.18
798.36	215.25
798.68	215.20
799.00	215.20
799.32	214.98
799.64	215.11
799.96	215.08
800.28	215.14
800.60	215.04
800.92	215.05
801.24	214.97
801.56	214.97
801.89	214.90
802.21	214.86
802.53	214.75
802.85	214.81
803.17	214.96
803.49	214.82
803.81	214.75
804.13	214.71
804.45	214.62
804.77	214.58
805.09	214.50
805.41	214.43
805.73	214.34
806.05	214.28
806.37	214.14
806.69	214.07
807.01	213.96
807.33	214.02
807.65	213.86
807.97	214.02
808.28	213.91
808.60	213.88
808.92	213.82
809.24	214.02
809.56	213.86
809.88	213.76
810.20	213.75
810.52	213.76
810.84	213.73
811.16	213.69
811.48	213.74
811.80	213.87
812.12	213.88
812.43	213.93
812.75	213.87
813.07	213.84
813.39	213.87
813.71	213.90
814.03	213.79
814.35	213.81
814.67	213.63
814.98	213.62
815.30	213.63
815.62	213.46
815.94	213.25
816.26	213.35
816.58	213.20
816.89	213.26
817.21	213.19
817.53	213.10
817.85	213.15
818.17	213.10
818.48	213.00
818.80	213.04
819.12	212.96
819.44	212.88
819.76	212.87
820.07	212.82
820.39	212.75
820.71	212.86
821.03	212.85
821.34	212.87
821.66	212.92
821.98	212.88
822.30	212.98
822.61	213.17
822.93	213.13
823.25	213.16
823.57	213.09
823.88	213.18
824.20	213.21
824.52	213.15
824.83	213.15
825.15	213.05
825.47	212.99
825.79	212.96
826.10	212.99
826.42	212.96
826.74	213.04
827.05	213.00
827.37	212.91
827.69	212.95
828.00	212.92
828.32	212.83
828.64	212.87
828.95	213.00
829.27	212.90
829.58	212.81
829.90	212.82
830.22	212.87
830.53	212.78
830.85	212.77
831.17	212.72
831.48	212.75
831.80	212.75
832.11	212.81
832.43	212.81
832.75	212.75
833.06	212.98
833.38	212.90
833.69	212.92
834.01	212.93
834.32	212.84
834.64	212.80
834.96	212.84
835.27	212.80
835.59	212.67
835.90	212.59
836.22	212.62
836.53	212.60
836.85	212.53
837.16	212.82
837.48	212.76
837.79	212.92
838.11	212.89
838.42	212.86
838.74	212.85
839.05	212.80
839.37	212.82
839.68	212.50
840.00	212.45
840.31	212.46
840.63	212.46
840.94	212.47
841.26	212.39
841.57	212.40
841.88	212.41
842.20	212.33
842.51	212.29
842.83	212.25
843.14	212.52
843.46	212.47
843.77	212.31
844.08	212.34
844.40	212.24
844.71	212.12
845.03	212.12
845.34	212.09
845.65	212.08
845.97	212.10
846.28	212.20
846.60	212.25
846.91	212.17
847.22	212.18
847.54	212.21
847.85	212.27
848.16	212.22
848.48	212.13
848.79	212.33
849.10	212.35
849.42	212.41
849.73	212.14
850.04	212.20
850.36	212.05
850.67	212.15
850.98	212.11
851.30	212.20
851.61	212.22
851.92	212.19
852.23	212.26
852.55	212.28
852.86	212.25
853.17	212.25
853.49	212.35
853.80	212.31
854.11	212.38
854.42	212.43
854.74	212.34
855.05	212.41
855.36	212.19
855.67	212.20
855.99	212.24
856.30	212.61
856.61	212.61
856.92	212.71
857.23	212.62
857.55	212.61
857.86	212.56
858.17	212.59
858.48	212.54
858.79	212.45
859.11	212.51
859.42	212.45
859.73	212.39
860.04	212.36
860.35	212.34
860.66	212.19
860.98	212.12
861.29	212.18
861.60	212.16
861.91	212.21
862.22	212.18
862.53	212.09
862.84	211.69
863.16	211.73
863.47	211.57
863.78	211.55
864.09	211.57
864.40	211.60
864.71	211.64
865.02	211.61
865.33	211.64
865.64	211.56
865.95	211.68
866.27	211.92
866.58	211.95
866.89	211.94
867.20	211.97
867.51	212.00
867.82	211.98
868.13	212.06
868.44	211.99
868.75	212.07
869.06	212.07
869.37	212.09
869.68	212.04
869.99	212.16
870.30	212.17
870.61	212.15
870.92	212.11
871.23	212.05
871.54	212.12
871.85	212.20
872.16	212.22
872.47	212.11
872.78	211.90
873.09	211.87
873.40	211.83
873.71	211.82
874.02	211.77
874.33	211.75
874.64	211.67
874.95	211.71
875.26	211.62
875.56	211.67
875.87	211.63
876.18	211.62
876.49	211.94
876.80	211.93
877.11	211.90
877.42	211.96
877.73	211.95
878.04	211.94
878.35	211.93
878.66	211.96
878.96	211.98
879.27	211.97
879.58	211.95
879.89	211.94
880.20	212.04
880.51	212.05
880.82	212.06
881.12	212.07
881.43	212.08
881.74	212.01
882.05	211.97
882.36	212.06
882.67	212.03
882.97	211.68
883.28	211.65
883.59	211.65
883.90	211.67
884.21	211.68
884.51	211.68
884.82	211.58
885.13	211.62
885.44	211.61
885.74	211.60
886.05	211.65
886.36	211.65
886.67	211.59
886.98	211.79
887.28	211.87
887.59	211.87
887.90	211.86
888.20	211.88
888.51	211.89
888.82	211.76
889.13	211.85
889.43	212.03
889.74	212.05
890.05	212.05
890.35	212.02
890.66	211.98
890.97	211.91
891.28	211.88
891.58	211.80
891.89	211.78
892.20	211.73
892.50	211.60
892.81	211.62
893.12	211.58
893.42	211.39
893.73	211.34
894.04	211.30
894.34	211.28
894.65	211.22
894.95	211.17
895.26	211.17
895.57	211.25
895.87	210.96
896.18	210.91
896.48	210.95
896.79	210.96
897.10	211.06
897.40	211.12
897.71	211.23
898.01	211.24
898.32	211.39
898.63	211.34
898.93	211.42
899.24	211.37
899.54	211.33
899.85	211.41
900.15	211.47
900.46	211.44
900.76	211.47
901.07	211.53
901.38	211.57
901.68	211.65
901.99	211.51
902.29	211.54
902.60	211.59
902.90	211.56
903.21	211.50
903.51	211.50
903.82	211.58
904.12	211.51
904.43	211.50
904.73	211.39
905.03	211.40
905.34	211.74
905.64	211.80
905.95	211.78
906.25	211.65
906.56	211.59
906.86	211.61
907.17	211.64
907.47	211.65
907.77	211.64
908.08	211.63
908.38	211.64
908.69	211.73
908.99	211.75
909.30	211.77
909.60	211.82
909.90	211.79
910.21	211.69
910.51	211.70
910.81	211.72
911.12	211.76
911.42	211.78
911.73	211.41
912.03	211.43
912.33	211.57
912.64	211.72
912.94	211.67
913.24	211.67
913.55	211.64
913.85	211.62
914.15	211.72
914.46	211.75
914.76	211.69
915.06	211.61
915.37	211.62
915.67	211.57
915.97	211.58
916.27	211.52
916.58	211.51
916.88	211.49
917.18	211.47
917.49	211.67
917.79	211.69
918.09	211.84
918.39	211.87
918.70	211.88
919.00	211.77
919.30	211.90
919.60	211.87
919.91	211.89
920.21	211.95
920.51	211.89
920.81	211.85
921.12	211.88
921.42	211.97
921.72	211.94
922.02	211.98
922.32	211.98
922.63	212.04
922.93	212.22
923.23	212.33
923.53	212.27
923.83	212.07
924.13	212.15
924.44	212.03
924.74	212.13
925.04	212.18
925.34	212.23
925.64	212.13
925.94	212.24
926.24	212.32
926.55	212.27
926.85	212.25
927.15	212.29
927.45	212.28
927.75	212.19
928.05	212.23
928.35	212.12
928.65	212.24
928.95	212.22
929.26	212.10
929.56	212.08
929.86	212.19
930.16	212.17
930.46	212.12
930.76	212.24
931.06	212.06
931.36	211.97
931.66	211.92
931.96	211.94
932.26	211.95
932.56	211.87
932.86	211.89
933.16	211.89
933.46	211.84
933.76	211.80
934.06	211.88
934.36	212.04
934.66	212.11
934.96	212.00
935.26	212.02
935.56	212.06
935.86	211.90
936.16	211.85
936.46	211.76
936.76	211.76
937.06	211.62
937.36	211.58
937.66	211.58
937.96	211.60
938.26	211.53
938.56	211.50
938.86	211.50
939.16	211.53
939.46	211.59
939.76	211.59
940.06	211.67
940.35	211.64
940.65	211.40
940.95	211.44
941.25	211.37
941.55	211.29
941.85	211.30
942.15	211.44
942.45	211.52
942.75	211.51
943.04	211.54
943.34	211.65
943.64	211.71
943.94	211.66
944.24	211.66
944.54	211.64
944.84	211.60
945.13	211.47
945.43	211.41
945.73	211.41
946.03	211.40
946.33	211.34
946.62	211.30
946.92	211.27
947.22	211.28
947.52	211.31
947.82	211.33
948.11	211.26
948.41	211.24
948.71	211.12
949.01	211.18
949.31	211.10
949.60	211.01
949.90	211.07
950.20	211.07
950.50	211.07
950.79	211.05
951.09	211.08
951.39	211.12
951.69	211.16
951.98	211.22
952.28	211.21
952.58	211.21
952.87	211.17
953.17	211.27
953.47	211.22
953.76	211.25
954.06	211.21
954.36	211.18
954.66	211.14
954.95	211.20
955.25	211.30
955.55	211.39
955.84	211.33
956.14	211.25
956.44	211.24
956.73	211.23
957.03	211.30
957.32	211.36
957.62	211.39
957.92	211.38
958.21	211.25
958.51	211.74
958.81	211.75
959.10	211.82
959.40	211.87
959.69	211.92
959.99	211.91
960.29	211.96
960.58	211.96
960.88	212.08
961.17	212.11
961.47	212.09
961.76	212.03
962.06	212.20
962.36	212.21
962.65	212.21
962.95	212.25
963.24	212.19
963.54	212.22
963.83	212.27
964.13	212.28
964.42	212.28
964.72	211.91
965.01	211.95
965.31	211.98
965.60	211.85
965.90	212.02
966.19	212.00
966.49	211.95
966.78	211.87
967.08	211.78
967.37	211.77
967.67	211.75
967.96	211.81
968.26	211.78
968.55	211.81
968.85	211.90
969.14	211.85
969.43	211.90
969.73	211.82
970.02	211.74
970.32	211.71
970.61	211.67
970.91	211.58
971.20	211.56
971.49	211.48
971.79	211.53
972.08	211.37
972.38	211.40
972.67	211.45
972.96	211.53
973.26	211.50
973.55	211.50
973.85	211.42
974.14	211.35
974.43	211.33
974.73	211.29
975.02	211.21
975.31	211.23
975.61	211.18
975.90	211.13
976.19	211.16
976.49	211.16
976.78	211.16
977.07	211.15
977.37	211.12
977.66	211.16
977.95	211.18
978.24	211.13
978.54	211.20
978.83	211.12
979.12	211.17
979.42	211.17
979.71	211.22
980.00	211.25
980.29	211.30
980.59	211.21
980.88	211.33
981.17	211.31
981.46	211.33
981.76	211.34
982.05	211.48
982.34	211.48
982.63	211.52
982.93	211.49
983.22	211.60
983.51	211.63
983.80	211.68
984.09	211.65
984.39	211.63
984.68	211.52
984.97	211.57
985.26	211.48
985.55	211.52
985.85	211.39
986.14	211.39
986.43	211.38
986.72	211.41
987.01	211.19
987.30	211.20
987.59	211.21
987.89	211.26
988.18	211.13
988.47	211.13
988.76	211.08
989.05	211.15
989.34	211.15
989.63	211.23
989.92	211.19
990.22	211.20
990.51	211.21
990.80	211.21
991.09	211.28
991.38	211.35
991.67	211.29
991.96	211.26
992.25	211.27
992.54	211.25
992.83	211.22
993.12	211.24
993.41	211.29
993.70	211.39
993.99	211.46
994.28	211.50
994.58	211.53
994.87	211.54
995.16	211.56
995.45	211.46
995.74	211.34
996.03	211.43
996.32	211.48
996.61	211.54
996.90	211.51
997.19	211.44
997.48	211.41
997.77	211.42
998.06	211.43
998.34	211.43
998.63	211.41
998.92	211.43
999.21	211.49
999.50	211.51
999.79	211.36
1000.08	211.23
1000.37	211.22
1000.66	211.11
1000.95	211.21
1001.24	211.13
1001.53	211.17
1001.82	211.12
1002.11	210.96
1002.40	210.94
1002.68	211.02
1002.97	211.32
1003.26	211.28
1003.55	211.25
1003.84	211.20
1004.13	211.35
1004.42	211.32
1004.71	211.34
1004.99	211.35
1005.28	211.40
1005.57	211.30
1005.86	211.27
1006.15	211.34
1006.44	211.27
1006.72	211.40
1007.01	211.31
1007.30	211.35
1007.59	211.26
1007.88	211.31
1008.17	211.35
1008.45	211.24
1008.74	211.07
1009.03	210.87
1009.32	210.84
1009.60	210.84
1009.89	210.84
1010.18	210.63
1010.47	210.56
1010.76	210.51
1011.04	210.47
1011.33	210.53
1011.62	210.58
1011.91	210.62
1012.19	210.57
1012.48	210.59
1012.77	210.52
1013.05	210.66
1013.34	210.64
1013.63	210.66
1013.92	210.65
1014.20	210.61
1014.49	210.63
1014.78	210.65
1015.06	210.54
1015.35	210.58
1015.64	210.61
1015.92	210.69
1016.21	210.77
1016.50	210.81
1016.78	210.91
1017.07	210.92
1017.36	210.82
1017.64	210.73
1017.93	210.80
1018.22	210.76
1018.50	210.79
1018.79	210.75
1019.08	210.60
1019.36	210.61
1019.65	210.53
1019.93	210.64
1020.22	210.71
1020.51	210.93
1020.79	210.87
1021.08	209.70
1021.36	210.95
1021.65	209.90
1021.94	211.00
1022.22	210.60
1022.51	209.20
1022.79	212.25
1023.08	211.55
1023.36	214.90
1023.65	209.40
>>>>>End Processed Spectral Data<<<<<
