SpectraSuite Data File
++++++++++++++++++++++++++++++++++++
Date: Mon Feb 25 16:55:38 EST 2013
User: group
Dark Spectrum Present: No
Reference Spectrum Present: No
Number of Sampled Component Spectra: 1
Spectrometers: USB2E7196
Integration Time (usec): 104000 (USB2E7196)
Spectra Averaged: 20 (USB2E7196)
Boxcar Smoothing: 10 (USB2E7196)
Correct for Electrical Dark: No (USB2E7196)
Strobe/Lamp Enabled: No (USB2E7196)
Correct for Detector Non-linearity: No (USB2E7196)
Correct for Stray Light: No (USB2E7196)
Number of Pixels in Processed Spectrum: 2048
>>>>>Begin Processed Spectral Data<<<<<
339.09	0.00
339.48	197.80
339.86	200.45
340.24	200.25
340.63	203.55
341.01	209.00
341.39	206.35
341.78	208.05
342.16	207.70
342.54	208.05
342.93	198.04
343.31	207.99
343.69	208.52
344.07	208.99
344.46	209.52
344.84	209.92
345.22	210.06
345.60	210.28
345.99	210.44
346.37	210.60
346.75	210.72
347.13	210.85
347.52	210.92
347.90	211.02
348.28	211.03
348.66	211.15
349.05	211.03
349.43	211.10
349.81	211.20
350.19	211.27
350.57	211.30
350.96	211.48
351.34	211.67
351.72	211.86
352.10	211.95
352.48	211.99
352.87	211.97
353.25	211.96
353.63	212.04
354.01	212.11
354.39	212.24
354.77	212.38
355.15	212.53
355.54	212.60
355.92	212.64
356.30	212.75
356.68	213.03
357.06	213.19
357.44	213.19
357.82	213.25
358.20	213.34
358.58	213.40
358.97	213.43
359.35	213.53
359.73	213.71
360.11	213.76
360.49	213.78
360.87	213.95
361.25	214.03
361.63	214.14
362.01	214.20
362.39	214.15
362.77	214.17
363.15	214.14
363.53	214.12
363.91	214.19
364.29	214.14
364.67	213.85
365.05	213.85
365.43	213.91
365.81	214.03
366.19	214.16
366.57	214.36
366.95	214.33
367.33	214.20
367.71	214.11
368.09	214.22
368.47	214.24
368.85	214.19
369.23	214.26
369.61	214.16
369.99	214.18
370.37	214.23
370.75	214.38
371.13	214.33
371.51	214.30
371.89	214.30
372.27	214.33
372.65	214.37
373.03	214.33
373.41	214.34
373.78	214.22
374.16	214.01
374.54	213.84
374.92	213.82
375.30	213.86
375.68	213.71
376.06	213.67
376.44	213.67
376.82	213.62
377.19	213.58
377.57	213.48
377.95	213.38
378.33	213.27
378.71	213.04
379.09	213.04
379.47	213.10
379.84	212.94
380.22	212.83
380.60	212.65
380.98	212.58
381.36	212.46
381.73	212.42
382.11	212.51
382.49	212.52
382.87	212.43
383.25	212.33
383.62	212.66
384.00	212.51
384.38	212.49
384.76	212.50
385.13	212.65
385.51	212.67
385.89	212.64
386.27	212.72
386.64	212.68
387.02	212.65
387.40	212.57
387.78	212.62
388.15	212.71
388.53	212.72
388.91	212.72
389.29	212.69
389.66	212.65
390.04	212.48
390.42	212.50
390.79	212.58
391.17	212.57
391.55	212.25
391.92	212.26
392.30	212.32
392.68	212.24
393.05	212.14
393.43	212.15
393.81	212.16
394.18	212.09
394.56	212.15
394.94	212.24
395.31	212.26
395.69	212.39
396.06	212.40
396.44	212.44
396.82	212.51
397.19	212.73
397.57	212.75
397.95	212.94
398.32	212.88
398.70	212.93
399.07	213.05
399.45	213.12
399.82	213.21
400.20	213.23
400.58	213.33
400.95	213.24
401.33	213.41
401.70	213.73
402.08	213.96
402.45	214.15
402.83	214.32
403.20	214.49
403.58	214.62
403.95	214.95
404.33	215.29
404.71	215.53
405.08	215.96
405.46	216.32
405.83	216.60
406.21	216.91
406.58	217.27
406.96	217.70
407.33	218.11
407.70	218.60
408.08	219.35
408.45	219.96
408.83	220.72
409.20	221.32
409.58	221.83
409.95	222.50
410.33	223.32
410.70	224.15
411.08	225.10
411.45	226.00
411.82	226.90
412.20	228.03
412.57	229.40
412.95	230.39
413.32	231.75
413.69	233.29
414.07	234.93
414.44	236.71
414.82	238.52
415.19	240.67
415.56	242.70
415.94	244.78
416.31	247.27
416.68	249.70
417.06	252.58
417.43	255.45
417.81	258.58
418.18	261.75
418.55	265.20
418.93	268.89
419.30	272.76
419.67	276.85
420.04	281.14
420.42	285.54
420.79	290.63
421.16	295.85
421.54	301.11
421.91	306.64
422.28	312.32
422.66	318.38
423.03	324.21
423.40	330.51
423.77	337.30
424.15	344.13
424.52	351.25
424.89	358.90
425.26	366.42
425.64	373.76
426.01	381.69
426.38	389.85
426.75	398.23
427.13	406.98
427.50	416.16
427.87	425.71
428.24	435.35
428.61	444.69
428.99	454.84
429.36	465.89
429.73	476.66
430.10	487.39
430.47	498.52
430.85	510.21
431.22	522.51
431.59	535.40
431.96	547.85
432.33	561.60
432.70	575.21
433.08	591.00
433.45	605.95
433.82	620.78
434.19	637.32
434.56	653.80
434.93	669.80
435.30	685.72
435.68	703.47
436.05	721.04
436.42	738.41
436.79	754.43
437.16	771.69
437.53	790.04
437.90	808.30
438.27	826.42
438.64	845.19
439.01	862.79
439.38	878.68
439.75	893.86
440.13	911.61
440.50	928.08
440.87	941.90
441.24	956.05
441.61	971.99
441.98	984.32
442.35	998.36
442.72	1012.08
443.09	1025.37
443.46	1033.92
443.83	1040.07
444.20	1045.67
444.57	1053.24
444.94	1057.80
445.31	1062.27
445.68	1066.44
446.05	1068.95
446.42	1068.70
446.79	1067.94
447.16	1067.00
447.53	1067.02
447.90	1061.70
448.27	1056.50
448.64	1048.24
449.01	1042.80
449.37	1032.00
449.74	1021.42
450.11	1008.51
450.48	994.65
450.85	980.50
451.22	968.29
451.59	956.67
451.96	945.82
452.33	930.64
452.70	916.87
453.07	900.42
453.43	883.75
453.80	867.70
454.17	852.15
454.54	837.41
454.91	821.49
455.28	805.88
455.65	791.36
456.02	776.40
456.38	764.27
456.75	748.78
457.12	736.08
457.49	723.50
457.86	710.99
458.23	700.38
458.59	688.76
458.96	677.07
459.33	666.63
459.70	655.94
460.07	647.62
460.43	638.04
460.80	628.96
461.17	621.07
461.54	612.60
461.91	604.64
462.27	596.62
462.64	589.89
463.01	582.16
463.38	574.78
463.74	567.72
464.11	561.34
464.48	555.94
464.85	549.76
465.21	545.01
465.58	540.05
465.95	533.96
466.32	529.05
466.68	523.94
467.05	519.10
467.42	514.14
467.78	508.90
468.15	503.84
468.52	500.18
468.88	495.35
469.25	491.08
469.62	487.74
469.98	483.99
470.35	480.43
470.72	477.24
471.08	473.70
471.45	470.77
471.82	467.58
472.18	464.00
472.55	461.49
472.92	458.56
473.28	456.13
473.65	453.73
474.02	451.19
474.38	449.27
474.75	447.51
475.11	445.62
475.48	444.35
475.85	443.12
476.21	441.74
476.58	440.87
476.94	440.28
477.31	439.17
477.67	438.30
478.04	437.71
478.41	437.23
478.77	437.11
479.14	436.58
479.50	436.46
479.87	436.69
480.23	436.86
480.60	436.89
480.96	436.88
481.33	437.55
481.69	438.25
482.06	438.73
482.42	439.13
482.79	439.87
483.15	440.80
483.52	442.15
483.88	443.39
484.25	444.44
484.61	445.62
484.98	447.04
485.34	448.82
485.71	450.57
486.07	452.57
486.44	454.39
486.80	456.57
487.17	458.97
487.53	461.56
487.90	464.24
488.26	467.15
488.62	470.46
488.99	473.47
489.35	476.78
489.72	480.27
490.08	484.02
490.44	487.73
490.81	491.62
491.17	495.37
491.54	499.71
491.90	504.10
492.26	508.86
492.63	513.62
492.99	518.43
493.36	523.56
493.72	529.03
494.08	534.64
494.45	540.64
494.81	546.68
495.17	552.73
495.54	559.17
495.90	565.75
496.26	572.30
496.63	579.02
496.99	585.92
497.35	593.27
497.72	600.70
498.08	608.32
498.44	616.21
498.80	624.53
499.17	632.70
499.53	641.05
499.89	649.45
500.26	658.09
500.62	666.70
500.98	675.76
501.34	684.65
501.71	693.83
502.07	702.77
502.43	711.86
502.79	720.99
503.16	730.42
503.52	739.93
503.88	749.60
504.24	759.33
504.60	769.15
504.97	778.95
505.33	788.51
505.69	799.04
506.05	808.95
506.41	818.85
506.78	828.61
507.14	838.42
507.50	848.49
507.86	858.56
508.22	868.69
508.59	878.47
508.95	888.52
509.31	898.44
509.67	908.75
510.03	918.90
510.39	929.42
510.75	939.42
511.12	949.38
511.48	959.16
511.84	969.16
512.20	978.87
512.56	988.85
512.92	998.85
513.28	1008.19
513.64	1017.88
514.00	1027.13
514.37	1036.53
514.73	1046.27
515.09	1055.53
515.45	1064.76
515.81	1073.82
516.17	1082.84
516.53	1091.42
516.89	1099.92
517.25	1108.17
517.61	1116.40
517.97	1124.25
518.33	1131.88
518.69	1139.72
519.05	1147.66
519.41	1155.33
519.77	1163.11
520.13	1170.12
520.49	1177.38
520.85	1184.46
521.21	1191.50
521.57	1198.92
521.93	1205.37
522.29	1211.99
522.65	1218.77
523.01	1224.97
523.37	1231.07
523.73	1237.31
524.09	1243.21
524.45	1249.23
524.81	1255.10
525.17	1261.22
525.53	1266.94
525.89	1272.70
526.25	1278.31
526.61	1283.05
526.97	1288.09
527.33	1293.04
527.68	1298.52
528.04	1303.23
528.40	1307.48
528.76	1311.81
529.12	1316.23
529.48	1321.52
529.84	1325.90
530.20	1329.83
530.56	1334.29
530.91	1338.96
531.27	1343.15
531.63	1347.77
531.99	1351.98
532.35	1355.85
532.71	1359.20
533.07	1363.55
533.42	1367.38
533.78	1371.02
534.14	1375.12
534.50	1378.18
534.86	1381.82
535.21	1384.48
535.57	1388.20
535.93	1391.63
536.29	1394.76
536.65	1397.75
537.00	1400.00
537.36	1402.55
537.72	1405.30
538.08	1407.82
538.44	1410.26
538.79	1412.79
539.15	1415.15
539.51	1417.54
539.87	1420.39
540.22	1422.99
540.58	1425.54
540.94	1428.06
541.29	1429.90
541.65	1431.38
542.01	1433.67
542.37	1435.55
542.72	1437.37
543.08	1438.62
543.44	1440.71
543.79	1441.80
544.15	1442.90
544.51	1444.83
544.87	1446.87
545.22	1448.19
545.58	1449.14
545.94	1449.90
546.29	1450.33
546.65	1450.33
547.01	1450.61
547.36	1450.76
547.72	1451.17
548.07	1450.76
548.43	1450.40
548.79	1450.13
549.14	1450.19
549.50	1450.05
549.86	1449.48
550.21	1449.31
550.57	1449.60
550.92	1448.88
551.28	1448.78
551.64	1448.75
551.99	1448.33
552.35	1447.40
552.70	1446.93
553.06	1446.71
553.41	1446.27
553.77	1446.16
554.13	1446.36
554.48	1446.48
554.84	1446.47
555.19	1445.90
555.55	1445.56
555.90	1445.03
556.26	1444.97
556.61	1444.41
556.97	1443.61
557.32	1443.00
557.68	1442.23
558.03	1440.91
558.39	1439.88
558.74	1439.34
559.10	1438.33
559.45	1437.20
559.81	1436.46
560.16	1435.00
560.52	1433.98
560.87	1433.03
561.23	1431.59
561.58	1430.63
561.94	1428.92
562.29	1426.87
562.64	1425.80
563.00	1424.56
563.35	1423.60
563.71	1422.64
564.06	1421.78
564.42	1421.07
564.77	1420.60
565.12	1420.06
565.48	1419.63
565.83	1419.03
566.19	1418.49
566.54	1417.42
566.89	1416.30
567.25	1415.60
567.60	1414.93
567.96	1414.18
568.31	1413.66
568.66	1412.87
569.02	1411.05
569.37	1409.47
569.72	1408.54
570.08	1407.13
570.43	1405.52
570.78	1403.82
571.14	1401.81
571.49	1399.84
571.84	1397.88
572.20	1395.35
572.55	1393.03
572.90	1390.12
573.26	1387.33
573.61	1384.27
573.96	1381.67
574.31	1378.92
574.67	1375.62
575.02	1372.37
575.37	1368.87
575.72	1364.71
576.08	1361.38
576.43	1358.10
576.78	1354.93
577.13	1351.57
577.49	1348.12
577.84	1344.52
578.19	1341.21
578.54	1338.29
578.90	1335.31
579.25	1331.90
579.60	1328.09
579.95	1324.23
580.30	1320.79
580.66	1317.48
581.01	1313.65
581.36	1309.71
581.71	1305.72
582.06	1302.09
582.42	1298.44
582.77	1294.15
583.12	1290.36
583.47	1286.55
583.82	1282.85
584.17	1279.02
584.53	1275.32
584.88	1271.09
585.23	1267.08
585.58	1262.93
585.93	1258.70
586.28	1254.47
586.63	1250.42
586.98	1246.81
587.34	1243.20
587.69	1238.93
588.04	1235.04
588.39	1231.24
588.74	1227.11
589.09	1223.30
589.44	1218.61
589.79	1214.56
590.14	1210.94
590.49	1207.00
590.84	1202.64
591.19	1198.93
591.54	1194.97
591.89	1190.03
592.25	1186.24
592.60	1181.79
592.95	1177.25
593.30	1172.57
593.65	1167.80
594.00	1163.17
594.35	1159.67
594.70	1154.74
595.05	1150.65
595.40	1145.74
595.75	1141.04
596.10	1136.81
596.45	1132.67
596.80	1128.83
597.15	1124.82
597.50	1120.33
597.85	1116.14
598.19	1111.87
598.54	1107.45
598.89	1103.10
599.24	1099.46
599.59	1094.97
599.94	1091.19
600.29	1087.14
600.64	1082.83
600.99	1078.47
601.34	1074.50
601.69	1069.14
602.04	1064.98
602.39	1060.63
602.74	1056.60
603.08	1052.87
603.43	1049.00
603.78	1044.60
604.13	1040.40
604.48	1036.17
604.83	1032.40
605.18	1028.46
605.53	1024.30
605.87	1019.73
606.22	1015.63
606.57	1011.31
606.92	1006.67
607.27	1001.97
607.62	997.51
607.96	993.27
608.31	989.39
608.66	984.67
609.01	980.22
609.36	975.68
609.70	971.10
610.05	966.46
610.40	961.60
610.75	956.68
611.10	952.36
611.44	947.24
611.79	942.08
612.14	937.15
612.49	931.94
612.83	927.07
613.18	922.39
613.53	917.46
613.88	912.43
614.22	907.76
614.57	903.05
614.92	898.45
615.27	893.71
615.61	888.80
615.96	884.45
616.31	879.97
616.65	875.96
617.00	871.52
617.35	867.08
617.70	862.54
618.04	857.85
618.39	852.73
618.74	848.49
619.08	844.03
619.43	839.66
619.78	835.55
620.12	831.46
620.47	827.15
620.82	822.59
621.16	817.89
621.51	813.73
621.85	809.43
622.20	805.00
622.55	800.57
622.89	796.12
623.24	791.64
623.59	787.19
623.93	782.63
624.28	778.46
624.62	774.57
624.97	770.34
625.32	766.24
625.66	762.41
626.01	758.25
626.35	754.27
626.70	749.99
627.04	745.94
627.39	741.86
627.73	738.00
628.08	734.52
628.43	730.77
628.77	726.72
629.12	722.67
629.46	718.96
629.81	715.18
630.15	711.62
630.50	707.79
630.84	703.95
631.19	700.15
631.53	696.42
631.88	692.30
632.22	688.55
632.57	684.99
632.91	681.34
633.26	677.72
633.60	674.08
633.95	670.62
634.29	666.98
634.64	663.49
634.98	659.61
635.32	656.05
635.67	652.94
636.01	649.70
636.36	646.35
636.70	643.13
637.05	639.97
637.39	636.73
637.73	633.75
638.08	630.90
638.42	627.86
638.77	624.81
639.11	621.65
639.45	618.61
639.80	615.31
640.14	612.06
640.49	608.87
640.83	605.71
641.17	602.51
641.52	599.44
641.86	596.27
642.20	593.45
642.55	589.95
642.89	586.60
643.23	583.35
643.58	580.59
643.92	577.39
644.26	574.25
644.61	571.21
644.95	568.00
645.29	564.71
645.64	561.61
645.98	558.51
646.32	555.77
646.66	552.77
647.01	549.98
647.35	547.13
647.69	544.21
648.04	541.35
648.38	538.48
648.72	535.58
649.06	532.70
649.41	529.75
649.75	527.12
650.09	524.56
650.43	521.85
650.78	518.88
651.12	516.02
651.46	513.32
651.80	510.60
652.14	507.93
652.49	505.38
652.83	502.60
653.17	499.76
653.51	496.91
653.85	494.36
654.20	491.68
654.54	489.00
654.88	486.41
655.22	483.98
655.56	481.35
655.90	478.69
656.25	475.94
656.59	473.40
656.93	470.88
657.27	468.44
657.61	465.74
657.95	463.26
658.29	460.86
658.64	458.49
658.98	455.96
659.32	453.44
659.66	450.95
660.00	448.57
660.34	446.25
660.68	443.86
661.02	441.29
661.36	439.07
661.70	436.85
662.05	434.61
662.39	432.47
662.73	430.56
663.07	428.61
663.41	426.75
663.75	424.70
664.09	422.59
664.43	420.25
664.77	418.42
665.11	416.50
665.45	414.49
665.79	412.53
666.13	410.56
666.47	408.58
666.81	406.70
667.15	404.72
667.49	402.84
667.83	401.08
668.17	399.39
668.51	397.68
668.85	395.94
669.19	394.30
669.53	392.43
669.87	390.50
670.21	388.65
670.55	386.82
670.89	385.35
671.23	383.73
671.57	382.11
671.91	380.49
672.25	378.78
672.58	377.26
672.92	375.67
673.26	374.15
673.60	372.81
673.94	371.21
674.28	369.72
674.62	368.29
674.96	366.84
675.30	365.40
675.64	363.75
675.97	362.35
676.31	360.85
676.65	359.58
676.99	358.24
677.33	356.83
677.67	355.44
678.01	353.79
678.34	352.39
678.68	351.19
679.02	349.79
679.36	348.49
679.70	347.14
680.04	345.70
680.37	344.35
680.71	342.93
681.05	341.78
681.39	340.61
681.73	339.26
682.06	338.07
682.40	336.93
682.74	335.80
683.08	334.67
683.42	333.37
683.75	332.16
684.09	330.83
684.43	329.64
684.77	328.31
685.10	327.13
685.44	325.90
685.78	324.66
686.12	323.56
686.45	322.32
686.79	321.15
687.13	320.22
687.46	319.12
687.80	318.11
688.14	316.99
688.48	315.97
688.81	315.00
689.15	313.93
689.49	312.75
689.82	311.71
690.16	310.36
690.50	309.24
690.83	307.95
691.17	306.85
691.51	305.77
691.84	304.89
692.18	303.94
692.52	303.09
692.85	302.19
693.19	301.30
693.52	300.43
693.86	299.39
694.20	298.35
694.53	297.40
694.87	296.38
695.21	295.32
695.54	294.33
695.88	293.31
696.21	292.28
696.55	291.38
696.88	290.46
697.22	289.64
697.56	289.00
697.89	288.25
698.23	287.53
698.56	286.59
698.90	285.83
699.23	284.95
699.57	284.06
699.90	283.05
700.24	282.09
700.58	281.34
700.91	280.76
701.25	280.16
701.58	279.54
701.92	278.81
702.25	278.14
702.59	277.30
702.92	276.60
703.26	275.86
703.59	275.18
703.93	274.71
704.26	274.11
704.60	273.39
704.93	272.76
705.26	271.96
705.60	271.50
705.93	270.80
706.27	270.29
706.60	269.84
706.94	269.47
707.27	268.90
707.61	268.25
707.94	267.46
708.27	266.62
708.61	265.88
708.94	265.32
709.28	264.76
709.61	264.25
709.94	263.69
710.28	263.16
710.61	262.65
710.95	261.83
711.28	261.47
711.61	260.78
711.95	260.26
712.28	259.86
712.61	259.32
712.95	258.95
713.28	258.52
713.61	257.89
713.95	257.27
714.28	256.85
714.61	256.33
714.95	255.85
715.28	255.36
715.61	254.96
715.95	254.48
716.28	253.95
716.61	253.46
716.95	252.97
717.28	252.55
717.61	252.00
717.94	251.66
718.28	251.05
718.61	250.69
718.94	250.26
719.27	249.78
719.61	249.36
719.94	248.82
720.27	248.27
720.60	247.85
720.94	247.49
721.27	247.04
721.60	246.79
721.93	246.47
722.27	246.25
722.60	245.94
722.93	245.56
723.26	245.28
723.59	244.95
723.93	244.64
724.26	244.31
724.59	244.03
724.92	243.63
725.25	243.32
725.59	243.01
725.92	242.74
726.25	242.47
726.58	242.24
726.91	241.99
727.24	241.68
727.57	241.32
727.91	240.87
728.24	240.66
728.57	240.32
728.90	240.03
729.23	239.68
729.56	239.43
729.89	239.15
730.22	238.79
730.55	238.55
730.89	238.30
731.22	237.96
731.55	237.60
731.88	237.32
732.21	236.98
732.54	236.74
732.87	236.41
733.20	236.15
733.53	235.81
733.86	235.46
734.19	235.15
734.52	234.99
734.85	235.02
735.18	234.70
735.51	234.50
735.84	234.23
736.17	234.06
736.50	233.67
736.83	233.81
737.16	233.66
737.49	233.39
737.82	233.11
738.15	232.94
738.48	232.80
738.81	232.60
739.14	232.40
739.47	232.14
739.80	231.95
740.13	231.74
740.46	231.47
740.79	231.22
741.12	231.01
741.45	230.81
741.78	230.40
742.11	230.33
742.44	230.06
742.77	229.97
743.10	229.72
743.43	229.54
743.75	229.03
744.08	229.22
744.41	228.97
744.74	228.83
745.07	228.62
745.40	228.53
745.73	228.46
746.06	228.26
746.39	228.14
746.71	227.89
747.04	227.69
747.37	227.55
747.70	227.49
748.03	227.36
748.36	227.19
748.68	227.09
749.01	226.80
749.34	226.65
749.67	226.47
750.00	226.40
750.33	226.51
750.65	226.37
750.98	225.77
751.31	225.67
751.64	225.45
751.97	225.41
752.29	225.17
752.62	224.89
752.95	224.73
753.28	224.51
753.60	224.32
753.93	224.20
754.26	224.06
754.59	223.81
754.91	223.59
755.24	223.40
755.57	223.22
755.90	223.10
756.22	222.92
756.55	222.72
756.88	222.46
757.20	222.05
757.53	221.82
757.86	221.63
758.19	221.44
758.51	221.36
758.84	221.10
759.17	220.94
759.49	220.83
759.82	220.92
760.15	220.88
760.47	220.79
760.80	220.64
761.13	220.58
761.45	220.53
761.78	220.55
762.11	220.50
762.43	220.33
762.76	220.23
763.08	220.20
763.41	220.14
763.74	220.05
764.06	220.03
764.39	220.00
764.71	219.90
765.04	219.83
765.37	219.79
765.69	219.74
766.02	219.73
766.34	219.58
766.67	219.27
767.00	219.19
767.32	219.31
767.65	219.42
767.97	219.27
768.30	219.12
768.62	219.01
768.95	218.87
769.27	218.88
769.60	218.82
769.92	218.64
770.25	218.52
770.57	218.32
770.90	218.18
771.22	218.01
771.55	218.03
771.87	217.99
772.20	217.85
772.52	218.06
772.85	218.37
773.17	218.32
773.50	218.37
773.82	218.37
774.15	218.14
774.47	217.85
774.80	217.81
775.12	217.83
775.45	217.72
775.77	217.70
776.09	217.72
776.42	217.71
776.74	217.83
777.07	217.76
777.39	217.83
777.72	217.72
778.04	217.78
778.36	217.74
778.69	217.70
779.01	217.63
779.33	217.19
779.66	216.78
779.98	216.74
780.31	216.63
780.63	216.67
780.95	216.69
781.28	216.77
781.60	216.65
781.92	216.51
782.25	216.50
782.57	216.46
782.89	216.35
783.22	216.23
783.54	216.08
783.86	216.13
784.19	216.06
784.51	216.22
784.83	216.11
785.16	216.08
785.48	216.08
785.80	216.10
786.12	216.15
786.45	216.05
786.77	216.01
787.09	215.87
787.42	215.70
787.74	215.67
788.06	215.60
788.38	215.60
788.71	215.60
789.03	215.59
789.35	215.57
789.67	215.42
789.99	215.40
790.32	215.30
790.64	215.30
790.96	215.51
791.28	215.31
791.61	215.23
791.93	215.21
792.25	215.19
792.57	215.39
792.89	215.37
793.21	215.35
793.54	215.34
793.86	215.35
794.18	215.31
794.50	215.20
794.82	215.13
795.14	215.10
795.47	215.11
795.79	215.12
796.11	215.02
796.43	215.01
796.75	214.99
797.07	215.00
797.39	214.89
797.71	214.63
798.04	214.62
798.36	214.66
798.68	214.53
799.00	214.47
799.32	214.26
799.64	214.28
799.96	214.30
800.28	214.32
800.60	214.36
800.92	214.30
801.24	214.25
801.56	214.23
801.89	214.20
802.21	214.19
802.53	214.07
802.85	214.13
803.17	214.27
803.49	214.17
803.81	214.13
804.13	214.10
804.45	214.07
804.77	214.13
805.09	214.04
805.41	214.07
805.73	214.03
806.05	213.97
806.37	213.90
806.69	213.78
807.01	213.76
807.33	213.75
807.65	213.71
807.97	213.91
808.28	213.84
808.60	213.86
808.92	213.83
809.24	214.05
809.56	213.97
809.88	213.82
810.20	213.88
810.52	213.95
810.84	213.86
811.16	213.89
811.48	213.83
811.80	214.00
812.12	213.90
812.43	213.94
812.75	213.89
813.07	213.87
813.39	213.97
813.71	213.87
814.03	213.81
814.35	213.81
814.67	213.64
814.98	213.66
815.30	213.65
815.62	213.58
815.94	213.28
816.26	213.24
816.58	213.16
816.89	213.12
817.21	212.98
817.53	213.01
817.85	212.95
818.17	212.86
818.48	212.70
818.80	212.80
819.12	212.64
819.44	212.62
819.76	212.61
820.07	212.49
820.39	212.44
820.71	212.40
821.03	212.33
821.34	212.25
821.66	212.26
821.98	212.22
822.30	212.21
822.61	212.41
822.93	212.38
823.25	212.37
823.57	212.42
823.88	212.48
824.20	212.46
824.52	212.57
824.83	212.55
825.15	212.49
825.47	212.47
825.79	212.50
826.10	212.50
826.42	212.40
826.74	212.48
827.05	212.50
827.37	212.50
827.69	212.54
828.00	212.50
828.32	212.41
828.64	212.39
828.95	212.58
829.27	212.50
829.58	212.50
829.90	212.57
830.22	212.52
830.53	212.35
830.85	212.28
831.17	212.11
831.48	212.20
831.80	212.15
832.11	212.11
832.43	212.10
832.75	212.05
833.06	212.28
833.38	212.16
833.69	212.15
834.01	212.22
834.32	212.12
834.64	212.12
834.96	212.22
835.27	212.23
835.59	212.09
835.90	212.04
836.22	212.02
836.53	211.96
836.85	211.93
837.16	212.33
837.48	212.34
837.79	212.47
838.11	212.45
838.42	212.57
838.74	212.55
839.05	212.54
839.37	212.56
839.68	212.38
840.00	212.30
840.31	212.34
840.63	212.23
840.94	212.21
841.26	212.20
841.57	212.10
841.88	212.12
842.20	212.02
842.51	211.88
842.83	211.89
843.14	212.19
843.46	212.21
843.77	212.04
844.08	212.05
844.40	211.92
844.71	211.80
845.03	211.72
845.34	211.73
845.65	211.68
845.97	211.67
846.28	211.65
846.60	211.75
846.91	211.72
847.22	211.65
847.54	211.75
847.85	211.77
848.16	211.84
848.48	211.80
848.79	211.96
849.10	212.04
849.42	212.06
849.73	211.70
850.04	211.67
850.36	211.56
850.67	211.67
850.98	211.69
851.30	211.77
851.61	211.78
851.92	211.75
852.23	211.92
852.55	211.90
852.86	211.96
853.17	212.00
853.49	212.08
853.80	212.21
854.11	212.28
854.42	212.27
854.74	212.14
855.05	212.17
855.36	212.03
855.67	212.04
855.99	212.04
856.30	212.46
856.61	212.40
856.92	212.45
857.23	212.42
857.55	212.36
857.86	212.30
858.17	212.31
858.48	212.28
858.79	212.17
859.11	212.21
859.42	212.14
859.73	212.04
860.04	212.01
860.35	211.91
860.66	211.80
860.98	211.76
861.29	211.84
861.60	211.73
861.91	211.74
862.22	211.70
862.53	211.61
862.84	211.26
863.16	211.37
863.47	211.26
863.78	211.20
864.09	211.27
864.40	211.34
864.71	211.32
865.02	211.35
865.33	211.35
865.64	211.31
865.95	211.33
866.27	211.62
866.58	211.58
866.89	211.73
867.20	211.69
867.51	211.75
867.82	211.77
868.13	211.89
868.44	211.85
868.75	211.92
869.06	212.01
869.37	212.00
869.68	211.93
869.99	211.99
870.30	211.96
870.61	211.94
870.92	211.88
871.23	211.86
871.54	211.95
871.85	212.04
872.16	212.07
872.47	212.03
872.78	211.78
873.09	211.77
873.40	211.62
873.71	211.65
874.02	211.68
874.33	211.66
874.64	211.55
874.95	211.62
875.26	211.58
875.56	211.55
875.87	211.53
876.18	211.50
876.49	211.84
876.80	211.79
877.11	211.76
877.42	211.80
877.73	211.86
878.04	211.78
878.35	211.72
878.66	211.68
878.96	211.70
879.27	211.71
879.58	211.68
879.89	211.70
880.20	211.84
880.51	211.77
880.82	211.71
881.12	211.77
881.43	211.70
881.74	211.67
882.05	211.65
882.36	211.69
882.67	211.67
882.97	211.24
883.28	211.28
883.59	211.26
883.90	211.28
884.21	211.33
884.51	211.30
884.82	211.28
885.13	211.33
885.44	211.36
885.74	211.34
886.05	211.34
886.36	211.36
886.67	211.19
886.98	211.39
887.28	211.49
887.59	211.56
887.90	211.56
888.20	211.49
888.51	211.53
888.82	211.51
889.13	211.55
889.43	211.85
889.74	211.83
890.05	211.83
890.35	211.83
890.66	211.70
890.97	211.69
891.28	211.57
891.58	211.51
891.89	211.46
892.20	211.44
892.50	211.40
892.81	211.37
893.12	211.38
893.42	211.24
893.73	211.21
894.04	211.10
894.34	211.10
894.65	211.18
894.95	211.17
895.26	211.14
895.57	211.26
895.87	210.96
896.18	211.00
896.48	211.08
896.79	211.02
897.10	211.04
897.40	211.07
897.71	211.15
898.01	211.16
898.32	211.15
898.63	211.11
898.93	211.18
899.24	211.20
899.54	211.18
899.85	211.11
900.15	211.14
900.46	211.17
900.76	211.23
901.07	211.17
901.38	211.10
901.68	211.15
901.99	211.03
902.29	211.06
902.60	211.08
902.90	211.02
903.21	211.04
903.51	211.04
903.82	211.14
904.12	211.13
904.43	211.17
904.73	211.25
905.03	211.31
905.34	211.65
905.64	211.60
905.95	211.65
906.25	211.66
906.56	211.60
906.86	211.54
907.17	211.54
907.47	211.64
907.77	211.66
908.08	211.60
908.38	211.63
908.69	211.69
908.99	211.69
909.30	211.68
909.60	211.63
909.90	211.70
910.21	211.56
910.51	211.59
910.81	211.56
911.12	211.58
911.42	211.61
911.73	211.22
912.03	211.34
912.33	211.38
912.64	211.33
912.94	211.32
913.24	211.33
913.55	211.23
913.85	211.21
914.15	211.28
914.46	211.34
914.76	211.32
915.06	211.31
915.37	211.30
915.67	211.30
915.97	211.36
916.27	211.31
916.58	211.31
916.88	211.20
917.18	211.23
917.49	211.40
917.79	211.40
918.09	211.42
918.39	211.41
918.70	211.35
919.00	211.41
919.30	211.59
919.60	211.57
919.91	211.57
920.21	211.52
920.51	211.41
920.81	211.39
921.12	211.43
921.42	211.40
921.72	211.40
922.02	211.41
922.32	211.40
922.63	211.36
922.93	211.55
923.23	211.55
923.53	211.51
923.83	211.25
924.13	211.21
924.44	211.16
924.74	211.20
925.04	211.34
925.34	211.31
925.64	211.18
925.94	211.24
926.24	211.44
926.55	211.44
926.85	211.51
927.15	211.46
927.45	211.42
927.75	211.39
928.05	211.42
928.35	211.38
928.65	211.44
928.95	211.48
929.26	211.43
929.56	211.54
929.86	211.54
930.16	211.53
930.46	211.51
930.76	211.59
931.06	211.45
931.36	211.32
931.66	211.35
931.96	211.30
932.26	211.24
932.56	211.07
932.86	211.09
933.16	211.11
933.46	211.08
933.76	211.05
934.06	211.15
934.36	211.22
934.66	211.24
934.96	211.25
935.26	211.28
935.56	211.29
935.86	211.22
936.16	211.17
936.46	211.12
936.76	211.07
937.06	211.10
937.36	211.05
937.66	211.09
937.96	211.08
938.26	211.11
938.56	211.02
938.86	211.07
939.16	211.15
939.46	211.13
939.76	211.25
940.06	211.30
940.35	211.20
940.65	211.09
940.95	211.12
941.25	211.00
941.55	210.99
941.85	210.85
942.15	210.97
942.45	211.06
942.75	211.11
943.04	211.19
943.34	211.22
943.64	211.29
943.94	211.20
944.24	211.17
944.54	211.19
944.84	211.28
945.13	211.18
945.43	211.08
945.73	211.11
946.03	211.03
946.33	210.94
946.62	210.93
946.92	210.90
947.22	210.91
947.52	211.03
947.82	211.01
948.11	211.01
948.41	210.95
948.71	210.93
949.01	210.96
949.31	210.91
949.60	210.89
949.90	210.89
950.20	210.88
950.50	210.87
950.79	210.87
951.09	210.85
951.39	210.90
951.69	210.93
951.98	211.06
952.28	211.05
952.58	211.07
952.87	211.06
953.17	211.12
953.47	211.03
953.76	210.94
954.06	210.83
954.36	210.81
954.66	210.82
954.95	210.90
955.25	210.95
955.55	210.97
955.84	210.93
956.14	210.99
956.44	211.06
956.73	211.06
957.03	211.08
957.32	211.18
957.62	211.17
957.92	211.24
958.21	211.11
958.51	211.52
958.81	211.54
959.10	211.60
959.40	211.66
959.69	211.73
959.99	211.77
960.29	211.86
960.58	211.93
960.88	211.99
961.17	211.84
961.47	211.84
961.76	211.86
962.06	211.92
962.36	211.89
962.65	211.89
962.95	211.88
963.24	211.81
963.54	211.81
963.83	211.81
964.13	211.80
964.42	211.74
964.72	211.41
965.01	211.47
965.31	211.49
965.60	211.45
965.90	211.70
966.19	211.65
966.49	211.70
966.78	211.73
967.08	211.66
967.37	211.76
967.67	211.60
967.96	211.57
968.26	211.50
968.55	211.59
968.85	211.57
969.14	211.58
969.43	211.62
969.73	211.59
970.02	211.56
970.32	211.57
970.61	211.57
970.91	211.53
971.20	211.46
971.49	211.40
971.79	211.37
972.08	211.07
972.38	211.04
972.67	210.97
972.96	210.94
973.26	210.91
973.55	211.00
973.85	211.02
974.14	211.07
974.43	211.09
974.73	211.01
975.02	210.95
975.31	210.91
975.61	210.94
975.90	210.86
976.19	210.83
976.49	210.79
976.78	210.82
977.07	210.73
977.37	210.75
977.66	210.75
977.95	210.70
978.24	210.72
978.54	210.89
978.83	210.85
979.12	210.81
979.42	210.81
979.71	210.75
980.00	210.83
980.29	210.82
980.59	210.84
980.88	210.84
981.17	210.88
981.46	210.91
981.76	210.86
982.05	211.03
982.34	211.01
982.63	211.03
982.93	211.00
983.22	211.16
983.51	211.11
983.80	211.27
984.09	211.34
984.39	211.29
984.68	211.16
984.97	211.21
985.26	211.19
985.55	211.24
985.85	211.09
986.14	211.12
986.43	211.20
986.72	211.12
987.01	211.08
987.30	211.05
987.59	211.02
987.89	211.05
988.18	210.94
988.47	210.99
988.76	210.89
989.05	210.86
989.34	210.83
989.63	210.91
989.92	210.78
990.22	210.69
990.51	210.75
990.80	210.72
991.09	210.67
991.38	210.72
991.67	210.66
991.96	210.71
992.25	210.72
992.54	210.60
992.83	210.57
993.12	210.57
993.41	210.60
993.70	210.73
993.99	210.78
994.28	210.83
994.58	210.85
994.87	210.92
995.16	210.96
995.45	210.92
995.74	210.84
996.03	210.90
996.32	210.97
996.61	211.04
996.90	211.06
997.19	211.15
997.48	211.18
997.77	211.17
998.06	211.15
998.34	211.10
998.63	211.14
998.92	211.21
999.21	211.22
999.50	211.27
999.79	211.15
1000.08	211.09
1000.37	211.07
1000.66	211.00
1000.95	211.06
1001.24	211.10
1001.53	211.10
1001.82	211.09
1002.11	210.93
1002.40	211.00
1002.68	211.10
1002.97	211.33
1003.26	211.28
1003.55	211.21
1003.84	211.30
1004.13	211.47
1004.42	211.46
1004.71	211.46
1004.99	211.44
1005.28	211.51
1005.57	211.47
1005.86	211.50
1006.15	211.57
1006.44	211.46
1006.72	211.51
1007.01	211.39
1007.30	211.39
1007.59	211.35
1007.88	211.31
1008.17	211.40
1008.45	211.33
1008.74	211.19
1009.03	211.06
1009.32	211.06
1009.60	211.06
1009.89	210.93
1010.18	210.75
1010.47	210.70
1010.76	210.73
1011.04	210.70
1011.33	210.77
1011.62	210.80
1011.91	210.74
1012.19	210.71
1012.48	210.74
1012.77	210.75
1013.05	210.97
1013.34	210.95
1013.63	210.99
1013.92	211.08
1014.20	211.09
1014.49	211.07
1014.78	211.05
1015.06	210.95
1015.35	210.94
1015.64	211.00
1015.92	211.05
1016.21	211.10
1016.50	211.10
1016.78	211.13
1017.07	211.14
1017.36	211.07
1017.64	210.99
1017.93	211.03
1018.22	211.02
1018.50	211.02
1018.79	211.00
1019.08	210.80
1019.36	210.83
1019.65	210.75
1019.93	210.76
1020.22	210.76
1020.51	210.98
1020.79	210.92
1021.08	211.25
1021.36	209.65
1021.65	210.90
1021.94	210.15
1022.22	211.15
1022.51	209.85
1022.79	211.55
1023.08	210.80
1023.36	215.60
1023.65	209.25
>>>>>End Processed Spectral Data<<<<<
