SpectraSuite Data File
++++++++++++++++++++++++++++++++++++
Date: Mon Feb 25 17:18:38 EST 2013
User: group
Dark Spectrum Present: No
Reference Spectrum Present: No
Number of Sampled Component Spectra: 1
Spectrometers: USB2E7196
Integration Time (usec): 104000 (USB2E7196)
Spectra Averaged: 20 (USB2E7196)
Boxcar Smoothing: 10 (USB2E7196)
Correct for Electrical Dark: No (USB2E7196)
Strobe/Lamp Enabled: No (USB2E7196)
Correct for Detector Non-linearity: No (USB2E7196)
Correct for Stray Light: No (USB2E7196)
Number of Pixels in Processed Spectrum: 2048
>>>>>Begin Processed Spectral Data<<<<<
339.09	0.00
339.48	198.95
339.86	200.30
340.24	201.10
340.63	203.70
341.01	209.75
341.39	205.00
341.78	206.75
342.16	210.95
342.54	209.25
342.93	198.73
343.31	208.79
343.69	209.37
344.07	209.80
344.46	210.32
344.84	210.71
345.22	210.83
345.60	211.19
345.99	211.47
346.37	211.50
346.75	211.63
347.13	211.76
347.52	211.83
347.90	211.98
348.28	211.97
348.66	212.16
349.05	212.16
349.43	212.30
349.81	212.32
350.19	212.35
350.57	212.42
350.96	212.49
351.34	212.61
351.72	212.67
352.10	212.80
352.48	212.85
352.87	212.84
353.25	212.91
353.63	212.88
354.01	212.93
354.39	212.98
354.77	213.00
355.15	213.10
355.54	213.11
355.92	213.03
356.30	213.14
356.68	213.42
357.06	213.57
357.44	213.55
357.82	213.60
358.20	213.63
358.58	213.76
358.97	213.89
359.35	213.98
359.73	214.15
360.11	214.24
360.49	214.30
360.87	214.36
361.25	214.34
361.63	214.59
362.01	214.63
362.39	214.66
362.77	214.76
363.15	214.74
363.53	214.73
363.91	214.74
364.29	214.76
364.67	214.35
365.05	214.29
365.43	214.24
365.81	214.37
366.19	214.54
366.57	214.61
366.95	214.52
367.33	214.42
367.71	214.39
368.09	214.40
368.47	214.38
368.85	214.36
369.23	214.42
369.61	214.19
369.99	214.28
370.37	214.28
370.75	214.43
371.13	214.40
371.51	214.40
371.89	214.45
372.27	214.38
372.65	214.40
373.03	214.38
373.41	214.40
373.78	214.38
374.16	214.25
374.54	214.09
374.92	214.15
375.30	214.13
375.68	214.04
376.06	214.08
376.44	213.99
376.82	213.96
377.19	213.96
377.57	213.94
377.95	213.78
378.33	213.74
378.71	213.46
379.09	213.46
379.47	213.45
379.84	213.35
380.22	213.27
380.60	213.21
380.98	213.13
381.36	213.10
381.73	212.84
382.11	212.82
382.49	212.83
382.87	212.62
383.25	212.59
383.62	212.85
384.00	212.71
384.38	212.71
384.76	212.82
385.13	212.91
385.51	212.94
385.89	212.81
386.27	212.82
386.64	212.85
387.02	212.77
387.40	212.66
387.78	212.71
388.15	212.72
388.53	212.70
388.91	212.72
389.29	212.66
389.66	212.82
390.04	212.75
390.42	212.75
390.79	212.82
391.17	212.77
391.55	212.50
391.92	212.47
392.30	212.53
392.68	212.48
393.05	212.45
393.43	212.41
393.81	212.54
394.18	212.47
394.56	212.46
394.94	212.57
395.31	212.64
395.69	212.70
396.06	212.76
396.44	212.78
396.82	212.74
397.19	212.88
397.57	212.82
397.95	212.95
398.32	212.85
398.70	212.96
399.07	213.10
399.45	213.00
399.82	213.08
400.20	212.99
400.58	212.92
400.95	212.77
401.33	212.94
401.70	213.19
402.08	213.35
402.45	213.46
402.83	213.55
403.20	213.59
403.58	213.66
403.95	213.84
404.33	213.99
404.71	214.13
405.08	214.51
405.46	214.64
405.83	214.78
406.21	215.04
406.58	215.25
406.96	215.40
407.33	215.70
407.70	215.92
408.08	216.49
408.45	216.90
408.83	217.31
409.20	217.54
409.58	217.70
409.95	218.05
410.33	218.51
410.70	218.81
411.08	219.29
411.45	219.74
411.82	220.13
412.20	220.75
412.57	221.55
412.95	221.80
413.32	222.51
413.69	223.20
414.07	223.85
414.44	224.55
414.82	225.32
415.19	226.24
415.56	227.21
415.94	228.07
416.31	229.14
416.68	230.23
417.06	231.44
417.43	232.67
417.81	234.01
418.18	235.38
418.55	236.88
418.93	238.46
419.30	240.09
419.67	241.87
420.04	243.62
420.42	245.32
420.79	247.66
421.16	249.82
421.54	252.15
421.91	254.49
422.28	256.82
422.66	259.30
423.03	261.87
423.40	264.45
423.77	267.17
424.15	269.85
424.52	272.74
424.89	275.98
425.26	279.00
425.64	281.85
426.01	284.96
426.38	288.35
426.75	291.90
427.13	295.42
427.50	299.15
427.87	302.94
428.24	306.81
428.61	310.33
428.99	314.42
429.36	318.66
429.73	322.96
430.10	327.30
430.47	331.80
430.85	336.16
431.22	340.91
431.59	346.15
431.96	351.00
432.33	356.40
432.70	361.62
433.08	367.70
433.45	373.39
433.82	379.09
434.19	385.30
434.56	391.32
434.93	397.27
435.30	403.13
435.68	409.62
436.05	416.01
436.42	422.30
436.79	428.09
437.16	434.28
437.53	440.94
437.90	447.47
438.27	453.99
438.64	460.80
439.01	466.94
439.38	472.25
439.75	477.69
440.13	483.77
440.50	489.46
440.87	493.94
441.24	498.97
441.61	504.34
441.98	508.32
442.35	512.82
442.72	517.44
443.09	522.03
443.46	524.74
443.83	526.57
444.20	528.09
444.57	530.35
444.94	531.35
445.31	532.36
445.68	533.52
446.05	533.84
446.42	533.08
446.79	532.25
447.16	531.28
447.53	530.60
447.90	527.98
448.27	525.40
448.64	522.04
449.01	519.40
449.37	514.93
449.74	510.60
450.11	505.74
450.48	500.00
450.85	494.04
451.22	489.13
451.59	484.45
451.96	480.16
452.33	474.19
452.70	468.79
453.07	462.33
453.43	455.71
453.80	449.46
454.17	443.45
454.54	437.82
454.91	431.84
455.28	425.88
455.65	420.26
456.02	415.15
456.38	410.57
456.75	404.84
457.12	400.11
457.49	395.35
457.86	390.50
458.23	386.77
458.59	382.49
458.96	378.16
459.33	374.28
459.70	370.30
460.07	367.24
460.43	363.83
460.80	360.65
461.17	357.82
461.54	354.79
461.91	352.02
462.27	349.19
462.64	346.68
463.01	344.00
463.38	341.62
463.74	338.55
464.11	336.16
464.48	334.14
464.85	331.85
465.21	330.27
465.58	328.55
465.95	326.38
466.32	324.68
466.68	322.92
467.05	321.18
467.42	319.47
467.78	317.69
468.15	316.01
468.52	314.75
468.88	313.11
469.25	311.70
469.62	310.58
469.98	309.40
470.35	308.28
470.72	307.20
471.08	305.98
471.45	305.10
471.82	304.22
472.18	303.15
472.55	302.51
472.92	301.61
473.28	300.92
473.65	300.15
474.02	299.40
474.38	298.94
474.75	298.60
475.11	298.30
475.48	298.07
475.85	297.82
476.21	297.62
476.58	297.59
476.94	297.67
477.31	297.67
477.67	297.63
478.04	297.78
478.41	298.00
478.77	298.55
479.14	298.86
479.50	299.23
479.87	299.78
480.23	300.34
480.60	300.93
480.96	301.47
481.33	302.43
481.69	303.26
482.06	304.02
482.42	304.83
482.79	305.70
483.15	306.84
483.52	308.12
483.88	309.30
484.25	310.50
484.61	311.75
484.98	313.12
485.34	314.82
485.71	316.57
486.07	318.45
486.44	320.15
486.80	322.16
487.17	324.31
487.53	326.67
487.90	329.14
488.26	331.92
488.62	334.73
488.99	337.52
489.35	340.63
489.72	343.81
490.08	347.16
490.44	350.65
490.81	354.28
491.17	358.14
491.54	362.26
491.90	366.70
492.26	371.25
492.63	376.01
492.99	380.87
493.36	386.18
493.72	391.70
494.08	397.36
494.45	403.38
494.81	409.65
495.17	416.15
495.54	423.07
495.90	430.05
496.26	437.47
496.63	445.21
496.99	453.24
497.35	461.72
497.72	470.49
498.08	479.55
498.44	489.00
498.80	499.05
499.17	509.44
499.53	519.92
499.89	530.95
500.26	542.28
500.62	553.88
500.98	565.99
501.34	578.58
501.71	591.73
502.07	604.93
502.43	618.69
502.79	632.77
503.16	647.21
503.52	662.15
503.88	677.45
504.24	693.34
504.60	709.53
504.97	726.32
505.33	743.38
505.69	761.50
506.05	779.73
506.41	798.34
506.78	817.11
507.14	836.33
507.50	856.25
507.86	876.53
508.22	897.28
508.59	918.07
508.95	939.57
509.31	961.40
509.67	983.96
510.03	1007.10
510.39	1030.70
510.75	1054.44
511.12	1078.68
511.48	1103.23
511.84	1128.05
512.20	1152.91
512.56	1178.76
512.92	1204.94
513.28	1230.99
513.64	1257.37
514.00	1283.85
514.37	1310.83
514.73	1338.53
515.09	1366.01
515.45	1393.48
515.81	1421.05
516.17	1449.21
516.53	1477.26
516.89	1505.44
517.25	1533.78
517.61	1561.86
517.97	1590.11
518.33	1618.25
518.69	1646.81
519.05	1675.49
519.41	1704.61
519.77	1734.06
520.13	1762.34
520.49	1790.40
520.85	1819.24
521.21	1848.09
521.57	1877.35
521.93	1905.64
522.29	1934.21
522.65	1962.79
523.01	1991.28
523.37	2019.36
523.73	2047.82
524.09	2075.96
524.45	2104.43
524.81	2132.57
525.17	2161.05
525.53	2189.18
525.89	2217.62
526.25	2245.00
526.61	2271.65
526.97	2298.07
527.33	2324.70
527.68	2351.47
528.04	2377.69
528.40	2402.53
528.76	2427.91
529.12	2453.29
529.48	2479.73
529.84	2505.00
530.20	2530.15
530.56	2555.30
530.91	2581.38
531.27	2606.46
531.63	2631.07
531.99	2654.90
532.35	2678.16
532.71	2700.66
533.07	2723.96
533.42	2745.88
533.78	2768.51
534.14	2790.78
534.50	2811.52
534.86	2832.82
535.21	2852.80
535.57	2874.28
535.93	2894.75
536.29	2914.69
536.65	2934.02
537.00	2951.87
537.36	2969.57
537.72	2986.83
538.08	3004.26
538.44	3021.35
538.79	3038.28
539.15	3054.74
539.51	3071.17
539.87	3088.26
540.22	3104.65
540.58	3120.62
540.94	3136.33
541.29	3150.22
541.65	3163.26
542.01	3177.49
542.37	3190.71
542.72	3204.61
543.08	3216.64
543.44	3230.17
543.79	3241.41
544.15	3251.78
544.51	3263.25
544.87	3274.83
545.22	3285.31
545.58	3294.94
545.94	3302.78
546.29	3309.58
546.65	3316.63
547.01	3323.43
547.36	3329.78
547.72	3335.63
548.07	3340.39
548.43	3344.73
548.79	3349.10
549.14	3354.08
549.50	3358.05
549.86	3361.09
550.21	3363.84
550.57	3367.31
550.92	3368.55
551.28	3370.52
551.64	3372.82
551.99	3375.03
552.35	3375.96
552.70	3376.85
553.06	3377.72
553.41	3378.95
553.77	3380.15
554.13	3380.90
554.48	3381.58
554.84	3381.66
555.19	3380.99
555.55	3379.53
555.90	3378.06
556.26	3376.56
556.61	3374.94
556.97	3372.66
557.32	3371.11
557.68	3368.16
558.03	3364.93
558.39	3362.23
558.74	3360.37
559.10	3358.18
559.45	3354.50
559.81	3351.57
560.16	3347.65
560.52	3344.25
560.87	3340.27
561.23	3335.41
561.58	3331.24
561.94	3325.86
562.29	3319.71
562.64	3315.40
563.00	3311.27
563.35	3307.86
563.71	3304.81
564.06	3300.83
564.42	3296.81
564.77	3292.51
565.12	3288.62
565.48	3283.98
565.83	3279.41
566.19	3275.09
566.54	3268.87
566.89	3263.03
567.25	3257.43
567.60	3252.41
567.96	3246.23
568.31	3240.49
568.66	3234.23
569.02	3227.38
569.37	3220.09
569.72	3213.92
570.08	3207.00
570.43	3199.25
570.78	3190.80
571.14	3181.63
571.49	3172.77
571.84	3165.47
572.20	3156.22
572.55	3147.57
572.90	3138.33
573.26	3128.21
573.61	3117.57
573.96	3108.17
574.31	3097.90
574.67	3086.78
575.02	3075.25
575.37	3064.47
575.72	3052.83
576.08	3043.21
576.43	3031.93
576.78	3021.99
577.13	3011.81
577.49	3000.84
577.84	2990.56
578.19	2981.03
578.54	2971.87
578.90	2962.73
579.25	2951.63
579.60	2940.39
579.95	2929.30
580.30	2919.04
580.66	2909.84
581.01	2899.20
581.36	2887.90
581.71	2877.26
582.06	2867.31
582.42	2857.37
582.77	2846.23
583.12	2835.61
583.47	2825.16
583.82	2815.53
584.17	2804.78
584.53	2794.53
584.88	2783.87
585.23	2773.22
585.58	2761.97
585.93	2750.54
586.28	2739.79
586.63	2729.17
586.98	2719.28
587.34	2709.75
587.69	2699.03
588.04	2688.10
588.39	2678.05
588.74	2667.48
589.09	2657.55
589.44	2646.52
589.79	2636.80
590.14	2627.36
590.49	2617.10
590.84	2606.62
591.19	2597.33
591.54	2586.99
591.89	2575.13
592.25	2564.52
592.60	2553.42
592.95	2542.50
593.30	2530.97
593.65	2518.95
594.00	2507.51
594.35	2498.11
594.70	2486.93
595.05	2476.71
595.40	2466.35
595.75	2455.19
596.10	2445.19
596.45	2435.29
596.80	2426.02
597.15	2415.98
597.50	2405.53
597.85	2395.88
598.19	2385.42
598.54	2375.02
598.89	2365.85
599.24	2357.74
599.59	2348.40
599.94	2340.38
600.29	2331.41
600.64	2322.47
600.99	2313.11
601.34	2304.56
601.69	2293.70
602.04	2283.59
602.39	2273.65
602.74	2264.56
603.08	2256.40
603.43	2248.32
603.78	2238.77
604.13	2229.35
604.48	2219.97
604.83	2212.04
605.18	2204.30
605.53	2195.47
605.87	2186.08
606.22	2177.20
606.57	2167.80
606.92	2158.66
607.27	2148.52
607.62	2138.99
607.96	2130.45
608.31	2122.52
608.66	2112.75
609.01	2103.74
609.36	2094.61
609.70	2084.94
610.05	2074.65
610.40	2064.57
610.75	2054.03
611.10	2044.87
611.44	2033.80
611.79	2023.12
612.14	2011.52
612.49	1999.69
612.83	1989.18
613.18	1977.97
613.53	1966.99
613.88	1955.42
614.22	1944.83
614.57	1934.06
614.92	1923.12
615.27	1911.62
615.61	1900.16
615.96	1889.64
616.31	1879.46
616.65	1869.89
617.00	1860.06
617.35	1850.03
617.70	1839.23
618.04	1827.91
618.39	1816.41
618.74	1806.57
619.08	1796.08
619.43	1786.02
619.78	1776.13
620.12	1766.05
620.47	1756.37
620.82	1745.29
621.16	1734.67
621.51	1724.27
621.85	1714.10
622.20	1703.73
622.55	1693.53
622.89	1683.29
623.24	1673.31
623.59	1662.65
623.93	1651.88
624.28	1641.85
624.62	1631.68
624.97	1621.90
625.32	1612.85
625.66	1603.82
626.01	1594.41
626.35	1585.47
626.70	1575.76
627.04	1566.80
627.39	1557.69
627.73	1548.31
628.08	1540.00
628.43	1530.80
628.77	1521.20
629.12	1511.61
629.46	1503.55
629.81	1494.84
630.15	1485.88
630.50	1476.44
630.84	1467.16
631.19	1458.30
631.53	1449.38
631.88	1440.18
632.22	1430.71
632.57	1422.13
632.91	1412.62
633.26	1403.50
633.60	1394.55
633.95	1386.33
634.29	1376.97
634.64	1368.07
634.98	1358.88
635.32	1350.18
635.67	1342.33
636.01	1334.46
636.36	1325.81
636.70	1317.11
637.05	1308.71
637.39	1300.68
637.73	1293.29
638.08	1286.19
638.42	1278.54
638.77	1270.65
639.11	1262.67
639.45	1254.97
639.80	1246.58
640.14	1238.39
640.49	1230.33
640.83	1221.96
641.17	1213.68
641.52	1205.85
641.86	1197.32
642.20	1189.51
642.55	1180.82
642.89	1172.29
643.23	1163.59
643.58	1156.17
643.92	1147.68
644.26	1139.57
644.61	1131.46
644.95	1122.90
645.29	1114.55
645.64	1106.14
645.98	1098.20
646.32	1090.50
646.66	1082.57
647.01	1074.78
647.35	1067.57
647.69	1059.32
648.04	1051.99
648.38	1044.28
648.72	1036.38
649.06	1028.96
649.41	1021.35
649.75	1014.00
650.09	1006.78
650.43	999.44
650.78	991.67
651.12	984.16
651.46	976.81
651.80	969.78
652.14	962.54
652.49	955.05
652.83	947.83
653.17	939.88
653.51	932.35
653.85	925.23
654.20	918.08
654.54	910.47
654.88	903.69
655.22	896.25
655.56	888.95
655.90	882.01
656.25	874.94
656.59	868.08
656.93	861.36
657.27	854.63
657.61	847.63
657.95	840.90
658.29	834.46
658.64	828.03
658.98	821.17
659.32	814.36
659.66	807.94
660.00	801.36
660.34	794.90
660.68	788.43
661.02	781.86
661.36	775.58
661.70	769.62
662.05	763.61
662.39	758.00
662.73	752.44
663.07	746.78
663.41	741.20
663.75	735.27
664.09	729.40
664.43	723.49
664.77	718.10
665.11	712.55
665.45	707.07
665.79	701.70
666.13	696.41
666.47	691.34
666.81	686.03
667.15	680.71
667.49	676.00
667.83	671.30
668.17	666.44
668.51	661.70
668.85	657.21
669.19	652.74
669.53	647.79
669.87	642.92
670.21	638.20
670.55	633.54
670.89	629.48
671.23	625.33
671.57	621.08
671.91	616.59
672.25	612.20
672.58	607.81
672.92	603.40
673.26	599.35
673.60	595.30
673.94	591.20
674.28	587.37
674.62	583.51
674.96	579.45
675.30	575.66
675.64	571.68
675.97	567.49
676.31	563.61
676.65	560.00
676.99	556.59
677.33	552.83
677.67	549.05
678.01	545.17
678.34	541.37
678.68	537.79
679.02	534.22
679.36	530.84
679.70	527.42
680.04	524.09
680.37	520.47
680.71	517.00
681.05	513.83
681.39	510.54
681.73	507.05
682.06	503.85
682.40	500.66
682.74	497.52
683.08	494.47
683.42	491.16
683.75	487.94
684.09	484.50
684.43	481.36
684.77	478.26
685.10	475.11
685.44	472.06
685.78	469.00
686.12	466.29
686.45	463.36
686.79	460.50
687.13	457.66
687.46	454.89
687.80	452.09
688.14	449.00
688.48	446.26
688.81	443.53
689.15	440.87
689.49	438.10
689.82	435.33
690.16	432.39
690.50	429.64
690.83	426.94
691.17	424.26
691.51	421.68
691.84	419.27
692.18	416.83
692.52	414.51
692.85	412.07
693.19	409.70
693.52	407.38
693.86	404.98
694.20	402.54
694.53	400.31
694.87	397.91
695.21	395.60
695.54	393.26
695.88	390.80
696.21	388.54
696.55	386.42
696.88	384.18
697.22	382.11
697.56	380.13
697.89	378.07
698.23	376.03
698.56	373.99
698.90	372.08
699.23	369.98
699.57	367.82
699.90	365.87
700.24	363.74
700.58	361.77
700.91	359.90
701.25	358.34
701.58	356.45
701.92	354.70
702.25	353.06
702.59	351.22
702.92	349.71
703.26	347.88
703.59	346.19
703.93	344.94
704.26	343.38
704.60	341.79
704.93	340.10
705.26	338.46
705.60	337.00
705.93	335.38
706.27	333.99
706.60	332.61
706.94	331.29
707.27	329.81
707.61	328.38
707.94	326.90
708.27	325.22
708.61	323.66
708.94	322.28
709.28	320.80
709.61	319.44
709.94	318.10
710.28	316.79
710.61	315.52
710.95	313.88
711.28	312.73
711.61	311.50
711.95	310.40
712.28	309.26
712.61	307.97
712.95	306.93
713.28	305.93
713.61	304.79
713.95	303.56
714.28	302.55
714.61	301.41
714.95	300.41
715.28	299.25
715.61	298.20
715.95	297.13
716.28	296.10
716.61	295.17
716.95	294.04
717.28	293.20
717.61	292.21
717.94	291.28
718.28	290.14
718.61	289.15
718.94	288.13
719.27	287.18
719.61	286.44
719.94	285.53
720.27	284.48
720.60	283.60
720.94	282.72
721.27	281.81
721.60	281.02
721.93	280.08
722.27	279.52
722.60	278.88
722.93	278.11
723.26	277.50
723.59	276.65
723.93	276.02
724.26	275.28
724.59	274.51
724.92	273.76
725.25	273.24
725.59	272.54
725.92	271.97
726.25	271.32
726.58	270.57
726.91	269.81
727.24	269.16
727.57	268.55
727.91	267.90
728.24	267.43
728.57	266.77
728.90	266.28
729.23	265.54
729.56	265.03
729.89	264.43
730.22	263.75
730.55	263.15
730.89	262.60
731.22	261.95
731.55	261.43
731.88	260.93
732.21	260.25
732.54	259.62
732.87	259.03
733.20	258.59
733.53	258.03
733.86	257.57
734.19	256.99
734.52	256.54
734.85	256.35
735.18	255.75
735.51	255.37
735.84	254.92
736.17	254.46
736.50	253.77
736.83	253.71
737.16	253.29
737.49	252.90
737.82	252.37
738.15	251.97
738.48	251.48
738.81	251.00
739.14	250.48
739.47	250.10
739.80	249.63
740.13	249.15
740.46	248.66
740.79	248.13
741.12	247.75
741.45	247.25
741.78	246.56
742.11	246.19
742.44	245.70
742.77	245.32
743.10	244.98
743.43	244.60
743.75	243.83
744.08	243.85
744.41	243.43
744.74	243.05
745.07	242.64
745.40	242.39
745.73	242.13
746.06	241.84
746.39	241.52
746.71	241.08
747.04	240.69
747.37	240.37
747.70	240.15
748.03	239.83
748.36	239.51
748.68	239.23
749.01	238.85
749.34	238.55
749.67	238.30
750.00	238.01
750.33	237.90
750.65	237.61
750.98	236.82
751.31	236.50
751.64	236.22
751.97	236.15
752.29	235.78
752.62	235.42
752.95	235.11
753.28	234.78
753.60	234.53
753.93	234.35
754.26	234.08
754.59	233.63
754.91	233.36
755.24	233.09
755.57	232.77
755.90	232.52
756.22	232.24
756.55	231.83
756.88	231.43
757.20	230.99
757.53	230.67
757.86	230.43
758.19	230.29
758.51	230.07
758.84	229.61
759.17	229.39
759.49	229.15
759.82	229.14
760.15	228.95
760.47	228.74
760.80	228.38
761.13	228.23
761.45	228.10
761.78	227.85
762.11	227.65
762.43	227.42
762.76	227.23
763.08	227.07
763.41	226.94
763.74	226.84
764.06	226.72
764.39	226.55
764.71	226.37
765.04	226.15
765.37	225.95
765.69	225.74
766.02	225.59
766.34	225.35
766.67	224.98
767.00	224.89
767.32	224.92
767.65	225.01
767.97	224.80
768.30	224.59
768.62	224.53
768.95	224.34
769.27	224.22
769.60	224.10
769.92	223.94
770.25	223.72
770.57	223.47
770.90	223.27
771.22	223.10
771.55	223.01
771.87	222.80
772.20	222.65
772.52	222.82
772.85	223.01
773.17	222.94
773.50	222.78
773.82	222.60
774.15	222.31
774.47	221.99
774.80	221.87
775.12	221.90
775.45	221.77
775.77	221.71
776.09	221.66
776.42	221.51
776.74	221.45
777.07	221.32
777.39	221.28
777.72	221.14
778.04	221.09
778.36	220.96
778.69	220.93
779.01	220.88
779.33	220.48
779.66	220.05
779.98	219.88
780.31	219.82
780.63	219.90
780.95	219.86
781.28	219.74
781.60	219.60
781.92	219.48
782.25	219.40
782.57	219.32
782.89	219.18
783.22	219.14
783.54	218.99
783.86	218.93
784.19	218.84
784.51	218.89
784.83	218.76
785.16	218.65
785.48	218.57
785.80	218.54
786.12	218.55
786.45	218.50
786.77	218.44
787.09	218.41
787.42	218.12
787.74	218.11
788.06	218.09
788.38	218.02
788.71	217.92
789.03	217.79
789.35	217.74
789.67	217.68
789.99	217.65
790.32	217.60
790.64	217.62
790.96	217.85
791.28	217.67
791.61	217.67
791.93	217.65
792.25	217.54
792.57	217.68
792.89	217.50
793.21	217.43
793.54	217.42
793.86	217.32
794.18	217.35
794.50	217.21
794.82	217.17
795.14	217.20
795.47	217.20
795.79	217.24
796.11	217.08
796.43	216.98
796.75	216.85
797.07	216.83
797.39	216.80
797.71	216.49
798.04	216.50
798.36	216.43
798.68	216.38
799.00	216.41
799.32	216.25
799.64	216.30
799.96	216.33
800.28	216.35
800.60	216.30
800.92	216.27
801.24	216.23
801.56	216.22
801.89	216.10
802.21	216.03
802.53	215.90
802.85	216.01
803.17	216.17
803.49	216.12
803.81	216.04
804.13	215.94
804.45	215.86
804.77	215.83
805.09	215.90
805.41	215.83
805.73	215.65
806.05	215.57
806.37	215.50
806.69	215.40
807.01	215.32
807.33	215.32
807.65	215.21
807.97	215.31
808.28	215.25
808.60	215.27
808.92	215.29
809.24	215.50
809.56	215.43
809.88	215.25
810.20	215.26
810.52	215.32
810.84	215.24
811.16	215.13
811.48	215.14
811.80	215.19
812.12	215.18
812.43	215.33
812.75	215.29
813.07	215.24
813.39	215.26
813.71	215.17
814.03	215.07
814.35	215.07
814.67	214.95
814.98	214.88
815.30	214.83
815.62	214.75
815.94	214.46
816.26	214.38
816.58	214.28
816.89	214.29
817.21	214.22
817.53	214.31
817.85	214.36
818.17	214.27
818.48	214.05
818.80	214.02
819.12	213.93
819.44	213.81
819.76	213.74
820.07	213.72
820.39	213.81
820.71	213.78
821.03	213.74
821.34	213.70
821.66	213.73
821.98	213.75
822.30	213.75
822.61	213.97
822.93	213.96
823.25	213.97
823.57	213.88
823.88	213.88
824.20	213.77
824.52	213.80
824.83	213.76
825.15	213.67
825.47	213.69
825.79	213.68
826.10	213.65
826.42	213.68
826.74	213.69
827.05	213.55
827.37	213.61
827.69	213.58
828.00	213.58
828.32	213.56
828.64	213.50
828.95	213.65
829.27	213.48
829.58	213.49
829.90	213.56
830.22	213.60
830.53	213.56
830.85	213.52
831.17	213.42
831.48	213.40
831.80	213.42
832.11	213.44
832.43	213.37
832.75	213.33
833.06	213.50
833.38	213.31
833.69	213.38
834.01	213.41
834.32	213.43
834.64	213.38
834.96	213.33
835.27	213.23
835.59	213.04
835.90	213.04
836.22	213.01
836.53	212.93
836.85	212.83
837.16	213.12
837.48	213.16
837.79	213.26
838.11	213.29
838.42	213.30
838.74	213.30
839.05	213.33
839.37	213.32
839.68	213.12
840.00	213.15
840.31	213.12
840.63	213.04
840.94	213.00
841.26	212.96
841.57	212.95
841.88	213.06
842.20	213.05
842.51	212.95
842.83	212.92
843.14	213.14
843.46	213.17
843.77	212.94
844.08	212.84
844.40	212.71
844.71	212.62
845.03	212.55
845.34	212.47
845.65	212.37
845.97	212.37
846.28	212.38
846.60	212.38
846.91	212.30
847.22	212.25
847.54	212.26
847.85	212.23
848.16	212.25
848.48	212.20
848.79	212.29
849.10	212.36
849.42	212.35
849.73	212.06
850.04	212.03
850.36	211.94
850.67	212.03
850.98	212.05
851.30	212.13
851.61	212.17
851.92	212.20
852.23	212.32
852.55	212.38
852.86	212.37
853.17	212.41
853.49	212.50
853.80	212.62
854.11	212.66
854.42	212.72
854.74	212.68
855.05	212.67
855.36	212.53
855.67	212.51
855.99	212.50
856.30	212.90
856.61	212.84
856.92	212.88
857.23	212.89
857.55	212.92
857.86	212.87
858.17	212.96
858.48	212.86
858.79	212.77
859.11	212.75
859.42	212.78
859.73	212.72
860.04	212.72
860.35	212.66
860.66	212.59
860.98	212.54
861.29	212.61
861.60	212.55
861.91	212.61
862.22	212.63
862.53	212.61
862.84	212.22
863.16	212.39
863.47	212.28
863.78	212.31
864.09	212.29
864.40	212.25
864.71	212.21
865.02	212.30
865.33	212.28
865.64	212.22
865.95	212.25
866.27	212.45
866.58	212.42
866.89	212.44
867.20	212.48
867.51	212.44
867.82	212.37
868.13	212.51
868.44	212.42
868.75	212.43
869.06	212.47
869.37	212.54
869.68	212.39
869.99	212.48
870.30	212.44
870.61	212.52
870.92	212.51
871.23	212.52
871.54	212.52
871.85	212.68
872.16	212.73
872.47	212.62
872.78	212.50
873.09	212.59
873.40	212.60
873.71	212.55
874.02	212.62
874.33	212.68
874.64	212.53
874.95	212.63
875.26	212.53
875.56	212.50
875.87	212.45
876.18	212.50
876.49	212.73
876.80	212.60
877.11	212.52
877.42	212.59
877.73	212.53
878.04	212.49
878.35	212.40
878.66	212.38
878.96	212.35
879.27	212.28
879.58	212.18
879.89	212.09
880.20	212.23
880.51	212.14
880.82	212.09
881.12	212.17
881.43	212.08
881.74	212.09
882.05	212.04
882.36	212.06
882.67	212.11
882.97	211.85
883.28	211.83
883.59	211.78
883.90	211.85
884.21	211.89
884.51	211.82
884.82	211.80
885.13	211.84
885.44	211.84
885.74	211.86
886.05	211.91
886.36	211.95
886.67	211.79
886.98	211.99
887.28	211.99
887.59	212.01
887.90	212.01
888.20	211.99
888.51	212.13
888.82	212.06
889.13	212.10
889.43	212.38
889.74	212.46
890.05	212.49
890.35	212.42
890.66	212.37
890.97	212.42
891.28	212.38
891.58	212.42
891.89	212.47
892.20	212.42
892.50	212.38
892.81	212.28
893.12	212.35
893.42	212.18
893.73	212.23
894.04	212.23
894.34	212.24
894.65	212.23
894.95	212.08
895.26	212.17
895.57	212.26
895.87	211.92
896.18	211.95
896.48	211.93
896.79	211.80
897.10	211.88
897.40	211.85
897.71	211.84
898.01	211.75
898.32	211.80
898.63	211.80
898.93	211.75
899.24	211.77
899.54	211.75
899.85	211.78
900.15	211.76
900.46	211.75
900.76	211.77
901.07	211.84
901.38	211.88
901.68	211.85
901.99	211.72
902.29	211.73
902.60	211.74
902.90	211.77
903.21	211.83
903.51	211.80
903.82	211.83
904.12	211.89
904.43	211.95
904.73	211.96
905.03	212.00
905.34	212.42
905.64	212.47
905.95	212.43
906.25	212.38
906.56	212.39
906.86	212.33
907.17	212.34
907.47	212.30
907.77	212.31
908.08	212.26
908.38	212.21
908.69	212.19
908.99	212.21
909.30	212.23
909.60	212.24
909.90	212.28
910.21	212.21
910.51	212.13
910.81	212.12
911.12	212.11
911.42	212.14
911.73	211.75
912.03	211.73
912.33	211.78
912.64	211.80
912.94	211.74
913.24	211.72
913.55	211.73
913.85	211.74
914.15	211.83
914.46	211.87
914.76	211.94
915.06	211.91
915.37	211.88
915.67	211.78
915.97	211.80
916.27	211.72
916.58	211.74
916.88	211.73
917.18	211.68
917.49	211.87
917.79	211.90
918.09	211.92
918.39	212.05
918.70	211.99
919.00	211.91
919.30	212.06
919.60	212.00
919.91	211.95
920.21	211.92
920.51	211.71
920.81	211.68
921.12	211.69
921.42	211.76
921.72	211.77
922.02	211.83
922.32	211.85
922.63	211.88
922.93	212.09
923.23	212.15
923.53	212.01
923.83	211.84
924.13	211.71
924.44	211.78
924.74	211.77
925.04	211.93
925.34	212.02
925.64	211.88
925.94	211.85
926.24	212.02
926.55	211.97
926.85	212.01
927.15	212.00
927.45	212.01
927.75	211.96
928.05	211.93
928.35	211.91
928.65	211.97
928.95	211.96
929.26	211.81
929.56	211.87
929.86	211.97
930.16	211.91
930.46	212.00
930.76	211.94
931.06	211.76
931.36	211.64
931.66	211.67
931.96	211.66
932.26	211.76
932.56	211.60
932.86	211.62
933.16	211.66
933.46	211.58
933.76	211.53
934.06	211.59
934.36	211.78
934.66	211.75
934.96	211.69
935.26	211.69
935.56	211.77
935.86	211.65
936.16	211.65
936.46	211.65
936.76	211.56
937.06	211.51
937.36	211.60
937.66	211.63
937.96	211.60
938.26	211.60
938.56	211.55
938.86	211.63
939.16	211.73
939.46	211.74
939.76	211.83
940.06	211.78
940.35	211.71
940.65	211.47
940.95	211.48
941.25	211.43
941.55	211.42
941.85	211.30
942.15	211.38
942.45	211.50
942.75	211.49
943.04	211.59
943.34	211.60
943.64	211.55
943.94	211.49
944.24	211.48
944.54	211.45
944.84	211.48
945.13	211.37
945.43	211.30
945.73	211.35
946.03	211.29
946.33	211.16
946.62	211.20
946.92	211.18
947.22	211.21
947.52	211.18
947.82	211.23
948.11	211.25
948.41	211.14
948.71	211.03
949.01	211.03
949.31	210.93
949.60	210.94
949.90	210.94
950.20	210.89
950.50	210.85
950.79	210.84
951.09	210.89
951.39	210.96
951.69	210.95
951.98	210.91
952.28	210.94
952.58	211.07
952.87	211.05
953.17	211.16
953.47	211.15
953.76	211.17
954.06	211.09
954.36	211.05
954.66	211.15
954.95	211.23
955.25	211.23
955.55	211.30
955.84	211.23
956.14	211.23
956.44	211.20
956.73	211.14
957.03	211.18
957.32	211.11
957.62	211.12
957.92	211.17
958.21	211.20
958.51	211.59
958.81	211.64
959.10	211.60
959.40	211.67
959.69	211.69
959.99	211.69
960.29	211.72
960.58	211.73
960.88	211.79
961.17	211.77
961.47	211.81
961.76	211.75
962.06	211.89
962.36	211.90
962.65	211.97
962.95	212.01
963.24	211.98
963.54	211.96
963.83	211.90
964.13	211.90
964.42	211.75
964.72	211.46
965.01	211.46
965.31	211.41
965.60	211.29
965.90	211.46
966.19	211.39
966.49	211.36
966.78	211.27
967.08	211.24
967.37	211.17
967.67	211.11
967.96	211.19
968.26	211.13
968.55	211.16
968.85	211.20
969.14	211.15
969.43	211.14
969.73	211.17
970.02	211.14
970.32	211.07
970.61	211.10
970.91	210.95
971.20	210.90
971.49	210.90
971.79	210.95
972.08	210.72
972.38	210.79
972.67	210.80
972.96	210.89
973.26	210.87
973.55	211.01
973.85	211.00
974.14	210.98
974.43	210.96
974.73	210.91
975.02	210.81
975.31	210.82
975.61	210.83
975.90	210.77
976.19	210.73
976.49	210.75
976.78	210.81
977.07	210.80
977.37	210.77
977.66	210.80
977.95	210.71
978.24	210.75
978.54	210.77
978.83	210.68
979.12	210.64
979.42	210.59
979.71	210.52
980.00	210.50
980.29	210.51
980.59	210.42
980.88	210.47
981.17	210.49
981.46	210.55
981.76	210.55
982.05	210.62
982.34	210.69
982.63	210.64
982.93	210.61
983.22	210.72
983.51	210.78
983.80	210.88
984.09	210.97
984.39	210.91
984.68	210.88
984.97	210.99
985.26	210.96
985.55	211.00
985.85	210.94
986.14	210.96
986.43	210.99
986.72	211.04
987.01	210.95
987.30	210.94
987.59	210.90
987.89	210.91
988.18	210.89
988.47	210.88
988.76	210.93
989.05	210.86
989.34	210.82
989.63	210.89
989.92	210.79
990.22	210.72
990.51	210.76
990.80	210.79
991.09	210.82
991.38	210.88
991.67	210.85
991.96	210.82
992.25	210.85
992.54	210.80
992.83	210.78
993.12	210.82
993.41	210.90
993.70	211.15
993.99	211.19
994.28	211.21
994.58	211.25
994.87	211.22
995.16	211.27
995.45	211.25
995.74	211.16
996.03	211.28
996.32	211.33
996.61	211.40
996.90	211.38
997.19	211.29
997.48	211.27
997.77	211.29
998.06	211.24
998.34	211.21
998.63	211.19
998.92	211.23
999.21	211.22
999.50	211.21
999.79	210.97
1000.08	210.98
1000.37	211.03
1000.66	210.96
1000.95	211.05
1001.24	211.03
1001.53	211.11
1001.82	211.04
1002.11	210.91
1002.40	210.96
1002.68	210.99
1002.97	211.22
1003.26	211.18
1003.55	211.15
1003.84	211.13
1004.13	211.30
1004.42	211.28
1004.71	211.28
1004.99	211.26
1005.28	211.38
1005.57	211.37
1005.86	211.37
1006.15	211.35
1006.44	211.28
1006.72	211.36
1007.01	211.30
1007.30	211.37
1007.59	211.31
1007.88	211.33
1008.17	211.39
1008.45	211.29
1008.74	211.19
1009.03	211.01
1009.32	211.04
1009.60	211.05
1009.89	211.04
1010.18	210.94
1010.47	210.98
1010.76	210.94
1011.04	210.95
1011.33	210.85
1011.62	210.80
1011.91	210.82
1012.19	210.83
1012.48	210.82
1012.77	210.78
1013.05	210.98
1013.34	210.95
1013.63	210.93
1013.92	211.00
1014.20	210.89
1014.49	210.94
1014.78	211.02
1015.06	210.95
1015.35	211.03
1015.64	211.08
1015.92	211.05
1016.21	211.07
1016.50	211.10
1016.78	211.16
1017.07	211.13
1017.36	211.16
1017.64	211.16
1017.93	211.24
1018.22	211.21
1018.50	211.20
1018.79	211.19
1019.08	211.05
1019.36	211.04
1019.65	211.00
1019.93	211.05
1020.22	211.12
1020.51	211.33
1020.79	211.24
1021.08	210.40
1021.36	210.25
1021.65	211.10
1021.94	211.80
1022.22	210.85
1022.51	209.65
1022.79	212.25
1023.08	210.95
1023.36	215.70
1023.65	210.30
>>>>>End Processed Spectral Data<<<<<
