SpectraSuite Data File
++++++++++++++++++++++++++++++++++++
Date: Mon Feb 25 17:00:09 EST 2013
User: group
Dark Spectrum Present: No
Reference Spectrum Present: No
Number of Sampled Component Spectra: 1
Spectrometers: USB2E7196
Integration Time (usec): 104000 (USB2E7196)
Spectra Averaged: 20 (USB2E7196)
Boxcar Smoothing: 10 (USB2E7196)
Correct for Electrical Dark: No (USB2E7196)
Strobe/Lamp Enabled: No (USB2E7196)
Correct for Detector Non-linearity: No (USB2E7196)
Correct for Stray Light: No (USB2E7196)
Number of Pixels in Processed Spectrum: 2048
>>>>>Begin Processed Spectral Data<<<<<
339.09	0.00
339.48	198.95
339.86	199.40
340.24	201.50
340.63	202.85
341.01	209.10
341.39	206.00
341.78	208.40
342.16	209.40
342.54	209.75
342.93	198.59
343.31	208.62
343.69	209.19
344.07	209.73
344.46	210.21
344.84	210.62
345.22	210.65
345.60	210.93
345.99	211.09
346.37	211.18
346.75	211.23
347.13	211.28
347.52	211.39
347.90	211.54
348.28	211.60
348.66	211.64
349.05	211.55
349.43	211.56
349.81	211.66
350.19	211.65
350.57	211.66
350.96	211.73
351.34	211.83
351.72	211.87
352.10	211.89
352.48	211.90
352.87	211.90
353.25	211.98
353.63	212.00
354.01	212.06
354.39	212.06
354.77	212.15
355.15	212.27
355.54	212.23
355.92	212.18
356.30	212.16
356.68	212.48
357.06	212.50
357.44	212.50
357.82	212.43
358.20	212.53
358.58	212.60
358.97	212.62
359.35	212.71
359.73	212.80
360.11	212.83
360.49	212.88
360.87	212.92
361.25	213.08
361.63	213.20
362.01	213.16
362.39	213.15
362.77	213.13
363.15	213.09
363.53	213.13
363.91	213.13
364.29	213.18
364.67	212.85
365.05	212.83
365.43	212.89
365.81	213.03
366.19	213.15
366.57	213.26
366.95	213.23
367.33	213.13
367.71	213.11
368.09	213.21
368.47	213.16
368.85	213.14
369.23	213.01
369.61	212.88
369.99	213.02
370.37	213.13
370.75	213.25
371.13	213.14
371.51	213.00
371.89	212.99
372.27	212.95
372.65	212.98
373.03	212.94
373.41	212.89
373.78	212.84
374.16	212.65
374.54	212.48
374.92	212.50
375.30	212.45
375.68	212.37
376.06	212.31
376.44	212.25
376.82	212.26
377.19	212.27
377.57	212.18
377.95	212.00
378.33	211.85
378.71	211.68
379.09	211.72
379.47	211.80
379.84	211.73
380.22	211.68
380.60	211.55
380.98	211.47
381.36	211.36
381.73	211.20
382.11	211.21
382.49	211.21
382.87	211.15
383.25	211.13
383.62	211.48
384.00	211.38
384.38	211.35
384.76	211.38
385.13	211.50
385.51	211.48
385.89	211.34
386.27	211.38
386.64	211.42
387.02	211.33
387.40	211.26
387.78	211.20
388.15	211.24
388.53	211.19
388.91	211.16
389.29	211.18
389.66	211.21
390.04	211.10
390.42	211.09
390.79	211.12
391.17	211.11
391.55	210.71
391.92	210.68
392.30	210.72
392.68	210.60
393.05	210.53
393.43	210.63
393.81	210.69
394.18	210.65
394.56	210.64
394.94	210.78
395.31	210.72
395.69	210.95
396.06	210.97
396.44	211.04
396.82	211.02
397.19	211.27
397.57	211.28
397.95	211.35
398.32	211.27
398.70	211.27
399.07	211.38
399.45	211.38
399.82	211.49
400.20	211.50
400.58	211.58
400.95	211.49
401.33	211.57
401.70	211.90
402.08	211.95
402.45	211.95
402.83	212.06
403.20	212.20
403.58	212.23
403.95	212.42
404.33	212.55
404.71	212.69
405.08	212.93
405.46	213.10
405.83	213.37
406.21	213.58
406.58	213.84
406.96	214.05
407.33	214.35
407.70	214.61
408.08	215.27
408.45	215.68
408.83	216.20
409.20	216.59
409.58	216.83
409.95	217.39
410.33	217.91
410.70	218.33
411.08	218.87
411.45	219.41
411.82	219.96
412.20	220.63
412.57	221.59
412.95	222.01
413.32	222.92
413.69	223.77
414.07	224.72
414.44	225.70
414.82	226.68
415.19	227.96
415.56	229.22
415.94	230.32
416.31	231.76
416.68	233.16
417.06	234.80
417.43	236.46
417.81	238.27
418.18	240.15
418.55	242.25
418.93	244.50
419.30	246.68
419.67	249.10
420.04	251.65
420.42	254.14
420.79	257.38
421.16	260.44
421.54	263.67
421.91	266.96
422.28	270.36
422.66	274.04
423.03	277.66
423.40	281.29
423.77	285.19
424.15	289.19
424.52	293.37
424.89	297.86
425.26	302.27
425.64	306.56
426.01	311.33
426.38	316.20
426.75	321.12
427.13	326.39
427.50	331.80
427.87	337.32
428.24	342.96
428.61	348.25
428.99	354.25
429.36	360.61
429.73	366.95
430.10	373.25
430.47	379.75
430.85	386.37
431.22	393.71
431.59	401.44
431.96	408.76
432.33	416.90
432.70	424.82
433.08	434.19
433.45	443.02
433.82	451.62
434.19	461.32
434.56	470.95
434.93	480.13
435.30	489.31
435.68	499.54
436.05	509.75
436.42	519.91
436.79	529.11
437.16	539.07
437.53	549.72
437.90	560.36
438.27	570.77
438.64	581.74
439.01	591.71
439.38	600.64
439.75	609.43
440.13	619.42
440.50	629.00
440.87	636.72
441.24	644.86
441.61	654.14
441.98	660.95
442.35	668.83
442.72	676.73
443.09	684.46
443.46	689.53
443.83	693.06
444.20	696.33
444.57	700.67
444.94	703.26
445.31	705.87
445.68	708.34
446.05	709.93
446.42	709.82
446.79	709.42
447.16	708.86
447.53	708.79
447.90	705.83
448.27	702.67
448.64	697.99
449.01	694.67
449.37	688.30
449.74	682.46
450.11	675.33
450.48	667.42
450.85	659.19
451.22	651.97
451.59	645.40
451.96	638.85
452.33	630.22
452.70	622.18
453.07	612.47
453.43	602.67
453.80	593.22
454.17	584.06
454.54	575.51
454.91	566.29
455.28	557.20
455.65	548.60
456.02	540.39
456.38	533.21
456.75	524.28
457.12	516.75
457.49	509.13
457.86	501.66
458.23	495.47
458.59	488.63
458.96	481.80
459.33	475.50
459.70	469.49
460.07	464.46
460.43	458.89
460.80	453.66
461.17	448.95
461.54	444.14
461.91	439.44
462.27	434.75
462.64	430.75
463.01	426.26
463.38	422.14
463.74	417.57
464.11	413.85
464.48	410.59
464.85	407.01
465.21	404.25
465.58	401.38
465.95	397.73
466.32	394.82
466.68	391.96
467.05	389.15
467.42	386.11
467.78	383.06
468.15	380.09
468.52	377.83
468.88	375.10
469.25	372.49
469.62	370.48
469.98	368.16
470.35	366.12
470.72	364.09
471.08	361.83
471.45	360.06
471.82	358.21
472.18	356.13
472.55	354.65
472.92	352.87
473.28	351.28
473.65	349.74
474.02	348.21
474.38	346.96
474.75	345.86
475.11	344.74
475.48	343.84
475.85	343.06
476.21	342.23
476.58	341.53
476.94	340.99
477.31	340.28
477.67	339.75
478.04	339.21
478.41	338.86
478.77	338.82
479.14	338.42
479.50	338.21
479.87	338.25
480.23	338.23
480.60	338.11
480.96	337.99
481.33	338.25
481.69	338.46
482.06	338.61
482.42	338.75
482.79	338.95
483.15	339.24
483.52	339.79
483.88	340.25
484.25	340.54
484.61	341.01
484.98	341.45
485.34	342.09
485.71	342.90
486.07	343.77
486.44	344.37
486.80	345.32
487.17	346.22
487.53	347.34
487.90	348.51
488.26	349.85
488.62	351.25
488.99	352.58
489.35	353.87
489.72	355.35
490.08	356.95
490.44	358.47
490.81	360.21
491.17	361.88
491.54	363.74
491.90	365.75
492.26	367.76
492.63	369.86
492.99	371.95
493.36	374.10
493.72	376.46
494.08	378.64
494.45	381.14
494.81	383.80
495.17	386.19
495.54	388.80
495.90	391.40
496.26	393.94
496.63	396.64
496.99	399.50
497.35	402.29
497.72	405.12
498.08	408.15
498.44	411.05
498.80	414.20
499.17	417.31
499.53	420.31
499.89	423.52
500.26	426.60
500.62	429.66
500.98	432.90
501.34	436.02
501.71	439.25
502.07	442.26
502.43	445.18
502.79	448.10
503.16	451.06
503.52	454.08
503.88	457.10
504.24	460.12
504.60	463.00
504.97	465.99
505.33	468.92
505.69	472.05
506.05	475.04
506.41	477.68
506.78	480.16
507.14	482.74
507.50	485.23
507.86	487.79
508.22	490.36
508.59	492.61
508.95	494.85
509.31	497.45
509.67	499.73
510.03	501.88
510.39	504.32
510.75	506.57
511.12	508.60
511.48	510.67
511.84	512.52
512.20	514.26
512.56	516.18
512.92	517.96
513.28	519.45
513.64	520.89
514.00	522.43
514.37	523.91
514.73	525.52
515.09	526.92
515.45	528.12
515.81	529.25
516.17	530.35
516.53	531.48
516.89	532.19
517.25	533.09
517.61	534.19
517.97	534.84
518.33	535.40
518.69	536.19
519.05	537.02
519.41	537.70
519.77	538.80
520.13	539.22
520.49	539.65
520.85	540.10
521.21	540.90
521.57	541.30
521.93	541.53
522.29	542.02
522.65	542.21
523.01	542.83
523.37	543.15
523.73	543.64
524.09	544.04
524.45	544.47
524.81	545.05
525.17	545.54
525.53	546.11
525.89	546.65
526.25	547.13
526.61	547.35
526.97	547.77
527.33	548.26
527.68	549.20
528.04	549.85
528.40	550.21
528.76	550.65
529.12	551.47
529.48	552.62
529.84	553.40
530.20	554.55
530.56	555.40
530.91	556.57
531.27	557.68
531.63	558.76
531.99	559.88
532.35	560.95
532.71	562.07
533.07	563.31
533.42	564.84
533.78	566.30
534.14	567.88
534.50	569.32
534.86	570.79
535.21	571.92
535.57	573.65
535.93	575.37
536.29	577.09
536.65	578.81
537.00	580.28
537.36	581.82
537.72	583.41
538.08	585.18
538.44	586.89
538.79	588.76
539.15	590.73
539.51	592.89
539.87	594.90
540.22	596.92
540.58	599.23
540.94	601.31
541.29	603.19
541.65	605.17
542.01	607.33
542.37	609.48
542.72	611.62
543.08	613.71
543.44	616.13
543.79	618.22
544.15	620.59
544.51	623.21
544.87	625.90
545.22	628.38
545.58	630.82
545.94	633.12
546.29	635.53
546.65	637.83
547.01	640.00
547.36	642.40
547.72	644.93
548.07	647.22
548.43	649.43
548.79	651.70
549.14	654.08
549.50	656.57
549.86	658.81
550.21	661.54
550.57	664.23
550.92	666.51
551.28	669.10
551.64	671.54
551.99	674.17
552.35	676.46
552.70	678.76
553.06	681.31
553.41	683.99
553.77	686.67
554.13	689.25
554.48	691.90
554.84	694.69
555.19	697.19
555.55	699.91
555.90	702.37
556.26	704.90
556.61	707.36
556.97	709.60
557.32	712.14
557.68	714.22
558.03	716.30
558.39	718.60
558.74	720.85
559.10	723.03
559.45	724.96
559.81	727.29
560.16	729.50
560.52	731.60
560.87	733.69
561.23	735.41
561.58	737.80
561.94	739.58
562.29	741.12
562.64	743.02
563.00	744.75
563.35	746.80
563.71	749.07
564.06	751.00
564.42	753.21
564.77	754.96
565.12	757.20
565.48	759.40
565.83	761.47
566.19	763.43
566.54	765.20
566.89	766.98
567.25	768.77
567.60	770.68
567.96	772.77
568.31	774.75
568.66	776.67
569.02	777.76
569.37	779.17
569.72	780.89
570.08	782.09
570.43	783.37
570.78	784.46
571.14	785.34
571.49	786.36
571.84	787.40
572.20	788.35
572.55	788.97
572.90	789.31
573.26	789.79
573.61	790.18
573.96	790.74
574.31	790.99
574.67	791.23
575.02	791.24
575.37	790.95
575.72	790.48
576.08	790.40
576.43	790.15
576.78	790.25
577.13	790.14
577.49	790.21
577.84	789.87
578.19	789.95
578.54	790.15
578.90	790.25
579.25	789.86
579.60	789.44
579.95	788.95
580.30	788.85
580.66	788.53
581.01	787.91
581.36	787.08
581.71	786.65
582.06	786.19
582.42	785.76
582.77	785.02
583.12	784.48
583.47	783.74
583.82	783.07
584.17	782.34
584.53	781.76
584.88	780.81
585.23	780.21
585.58	779.11
585.93	777.89
586.28	776.90
586.63	776.19
586.98	775.48
587.34	774.72
587.69	773.50
588.04	772.58
588.39	771.91
588.74	770.87
589.09	769.95
589.44	768.49
589.79	767.41
590.14	766.41
590.49	765.41
590.84	764.33
591.19	763.66
591.54	762.59
591.89	760.86
592.25	760.04
592.60	758.54
592.95	757.16
593.30	755.76
593.65	754.12
594.00	752.36
594.35	751.77
594.70	750.19
595.05	748.85
595.40	747.34
595.75	745.59
596.10	744.44
596.45	743.05
596.80	741.85
597.15	740.34
597.50	738.76
597.85	737.34
598.19	735.74
598.54	734.14
598.89	732.67
599.24	731.51
599.59	729.87
599.94	728.51
600.29	726.96
600.64	725.43
600.99	723.86
601.34	722.38
601.69	719.82
602.04	718.02
602.39	716.20
602.74	714.62
603.08	713.14
603.43	711.58
603.78	709.71
604.13	708.00
604.48	706.45
604.83	705.09
605.18	703.43
605.53	701.57
605.87	699.73
606.22	697.95
606.57	696.11
606.92	694.04
607.27	692.06
607.62	690.28
607.96	688.59
608.31	686.94
608.66	685.01
609.01	683.05
609.36	681.22
609.70	679.30
610.05	677.22
610.40	675.20
610.75	673.07
611.10	671.39
611.44	669.06
611.79	666.63
612.14	664.39
612.49	661.99
612.83	660.11
613.18	657.84
613.53	655.58
613.88	653.16
614.22	651.00
614.57	648.96
614.92	646.74
615.27	644.36
615.61	641.99
615.96	639.76
616.31	637.67
616.65	635.92
617.00	633.75
617.35	631.49
617.70	629.27
618.04	626.75
618.39	624.10
618.74	621.99
619.08	619.79
619.43	617.44
619.78	615.32
620.12	613.01
620.47	610.91
620.82	608.39
621.16	605.90
621.51	603.82
621.85	601.43
622.20	599.06
622.55	596.75
622.89	594.47
623.24	592.41
623.59	589.81
623.93	587.21
624.28	585.14
624.62	583.30
624.97	581.19
625.32	579.03
625.66	576.84
626.01	574.68
626.35	572.67
626.70	570.29
627.04	568.27
627.39	565.87
627.73	563.75
628.08	561.95
628.43	559.90
628.77	557.49
629.12	555.12
629.46	553.12
629.81	551.02
630.15	548.80
630.50	546.52
630.84	544.52
631.19	542.40
631.53	540.23
631.88	537.66
632.22	535.40
632.57	533.51
632.91	531.47
633.26	529.20
633.60	526.95
633.95	525.04
634.29	522.70
634.64	520.90
634.98	518.62
635.32	516.61
635.67	514.82
636.01	512.99
636.36	511.00
636.70	509.19
637.05	507.20
637.39	505.27
637.73	503.54
638.08	501.94
638.42	500.23
638.77	498.34
639.11	496.51
639.45	494.56
639.80	492.49
640.14	490.45
640.49	488.71
640.83	486.75
641.17	484.82
641.52	482.87
641.86	480.87
642.20	479.06
642.55	476.83
642.89	474.76
643.23	472.66
643.58	471.08
643.92	468.94
644.26	467.07
644.61	465.28
644.95	463.15
645.29	461.12
645.64	459.18
645.98	457.16
646.32	455.40
646.66	453.35
647.01	451.53
647.35	449.81
647.69	447.85
648.04	446.22
648.38	444.42
648.72	442.67
649.06	440.78
649.41	438.95
649.75	437.20
650.09	435.57
650.43	433.77
650.78	431.67
651.12	429.78
651.46	427.93
651.80	426.24
652.14	424.57
652.49	422.79
652.83	420.95
653.17	419.21
653.51	417.32
653.85	415.82
654.20	414.10
654.54	412.30
654.88	410.51
655.22	408.76
655.56	407.00
655.90	405.18
656.25	403.47
656.59	401.74
656.93	400.06
657.27	398.32
657.61	396.57
657.95	395.08
658.29	393.55
658.64	392.11
658.98	390.33
659.32	388.55
659.66	386.97
660.00	385.30
660.34	383.55
660.68	381.97
661.02	380.19
661.36	378.64
661.70	377.07
662.05	375.61
662.39	374.10
662.73	372.73
663.07	371.54
663.41	370.14
663.75	368.52
664.09	367.05
664.43	365.58
664.77	364.32
665.11	362.97
665.45	361.65
665.79	360.21
666.13	358.88
666.47	357.60
666.81	356.21
667.15	354.84
667.49	353.81
667.83	352.58
668.17	351.46
668.51	350.14
668.85	349.04
669.19	347.99
669.53	346.66
669.87	345.34
670.21	343.98
670.55	342.73
670.89	341.88
671.23	340.89
671.57	339.81
671.91	338.62
672.25	337.39
672.58	336.22
672.92	335.03
673.26	333.94
673.60	332.79
673.94	331.67
674.28	330.58
674.62	329.43
674.96	328.30
675.30	327.29
675.64	326.26
675.97	325.14
676.31	324.00
676.65	323.01
676.99	322.17
677.33	321.08
677.67	320.07
678.01	318.82
678.34	317.78
678.68	316.77
679.02	315.74
679.36	314.75
679.70	313.78
680.04	312.87
680.37	311.91
680.71	310.95
681.05	310.10
681.39	309.21
681.73	308.24
682.06	307.41
682.40	306.53
682.74	305.74
683.08	304.98
683.42	304.05
683.75	303.22
684.09	302.27
684.43	301.49
684.77	300.55
685.10	299.69
685.44	298.79
685.78	297.95
686.12	297.30
686.45	296.43
686.79	295.57
687.13	294.77
687.46	293.96
687.80	293.31
688.14	292.40
688.48	291.67
688.81	290.87
689.15	290.15
689.49	289.27
689.82	288.52
690.16	287.58
690.50	286.74
690.83	285.95
691.17	285.06
691.51	284.28
691.84	283.67
692.18	283.08
692.52	282.42
692.85	281.82
693.19	281.11
693.52	280.39
693.86	279.70
694.20	278.99
694.53	278.32
694.87	277.54
695.21	276.87
695.54	276.18
695.88	275.51
696.21	274.73
696.55	274.09
696.88	273.29
697.22	272.65
697.56	272.18
697.89	271.46
698.23	270.80
698.56	270.16
698.90	269.57
699.23	268.82
699.57	268.21
699.90	267.47
700.24	266.73
700.58	266.20
700.91	265.59
701.25	265.21
701.58	264.73
701.92	264.25
702.25	263.76
702.59	263.13
702.92	262.60
703.26	262.06
703.59	261.49
703.93	261.29
704.26	260.78
704.60	260.17
704.93	259.67
705.26	259.16
705.60	258.73
705.93	258.15
706.27	257.80
706.60	257.35
706.94	257.08
707.27	256.65
707.61	256.20
707.94	255.76
708.27	255.02
708.61	254.38
708.94	253.85
709.28	253.39
709.61	252.94
709.94	252.48
710.28	251.98
710.61	251.65
710.95	250.93
711.28	250.80
711.61	250.43
711.95	250.10
712.28	249.73
712.61	249.32
712.95	249.07
713.28	248.74
713.61	248.26
713.95	247.78
714.28	247.37
714.61	246.91
714.95	246.49
715.28	246.11
715.61	245.70
715.95	245.35
716.28	244.92
716.61	244.57
716.95	244.23
717.28	243.96
717.61	243.62
717.94	243.31
718.28	242.67
718.61	242.28
718.94	241.91
719.27	241.59
719.61	241.30
719.94	240.93
720.27	240.44
720.60	240.04
720.94	239.68
721.27	239.40
721.60	239.21
721.93	238.90
722.27	238.74
722.60	238.64
722.93	238.39
723.26	238.27
723.59	238.00
723.93	237.79
724.26	237.55
724.59	237.20
724.92	236.92
725.25	236.82
725.59	236.57
725.92	236.40
726.25	236.20
726.58	235.98
726.91	235.73
727.24	235.57
727.57	235.38
727.91	235.05
728.24	234.75
728.57	234.47
728.90	234.37
729.23	234.10
729.56	234.00
729.89	233.74
730.22	233.39
730.55	233.11
730.89	232.83
731.22	232.52
731.55	232.38
731.88	232.22
732.21	231.96
732.54	231.70
732.87	231.45
733.20	231.25
733.53	231.03
733.86	230.85
734.19	230.58
734.52	230.47
734.85	230.62
735.18	230.44
735.51	230.36
735.84	230.15
736.17	230.07
736.50	229.71
736.83	229.95
737.16	229.78
737.49	229.64
737.82	229.46
738.15	229.39
738.48	229.22
738.81	228.95
739.14	228.65
739.47	228.55
739.80	228.38
740.13	228.25
740.46	227.94
740.79	227.71
741.12	227.57
741.45	227.35
741.78	226.95
742.11	226.92
742.44	226.69
742.77	226.49
743.10	226.26
743.43	226.06
743.75	225.55
744.08	225.80
744.41	225.63
744.74	225.47
745.07	225.25
745.40	225.07
745.73	225.13
746.06	225.08
746.39	225.03
746.71	224.88
747.04	224.65
747.37	224.58
747.70	224.58
748.03	224.46
748.36	224.38
748.68	224.20
749.01	223.99
749.34	223.86
749.67	223.77
750.00	223.79
750.33	223.91
750.65	223.80
750.98	223.33
751.31	223.19
751.64	223.10
751.97	223.12
752.29	222.99
752.62	222.72
752.95	222.55
753.28	222.34
753.60	222.15
753.93	222.22
754.26	222.18
754.59	221.97
754.91	221.83
755.24	221.68
755.57	221.58
755.90	221.45
756.22	221.24
756.55	221.09
756.88	220.77
757.20	220.45
757.53	220.24
757.86	220.04
758.19	220.07
758.51	219.96
758.84	219.72
759.17	219.63
759.49	219.54
759.82	219.63
760.15	219.58
760.47	219.52
760.80	219.22
761.13	219.14
761.45	218.97
761.78	218.87
762.11	218.82
762.43	218.75
762.76	218.67
763.08	218.68
763.41	218.62
763.74	218.58
764.06	218.50
764.39	218.45
764.71	218.45
765.04	218.32
765.37	218.17
765.69	218.11
766.02	218.06
766.34	217.98
766.67	217.70
767.00	217.61
767.32	217.69
767.65	217.85
767.97	217.76
768.30	217.78
768.62	217.78
768.95	217.59
769.27	217.46
769.60	217.41
769.92	217.26
770.25	217.16
770.57	217.09
770.90	217.02
771.22	216.92
771.55	216.84
771.87	216.77
772.20	216.72
772.52	216.92
772.85	217.30
773.17	217.31
773.50	217.27
773.82	217.22
774.15	217.06
774.47	216.78
774.80	216.65
775.12	216.55
775.45	216.50
775.77	216.56
776.09	216.59
776.42	216.49
776.74	216.51
777.07	216.39
777.39	216.39
777.72	216.31
778.04	216.22
778.36	216.15
778.69	216.08
779.01	216.06
779.33	215.73
779.66	215.22
779.98	215.08
780.31	215.04
780.63	215.07
780.95	215.06
781.28	215.07
781.60	215.03
781.92	214.98
782.25	214.91
782.57	214.85
782.89	214.72
783.22	214.71
783.54	214.58
783.86	214.62
784.19	214.50
784.51	214.59
784.83	214.61
785.16	214.51
785.48	214.48
785.80	214.45
786.12	214.52
786.45	214.55
786.77	214.53
787.09	214.53
787.42	214.45
787.74	214.42
788.06	214.28
788.38	214.21
788.71	214.12
789.03	214.08
789.35	214.10
789.67	214.15
789.99	214.19
790.32	214.21
790.64	214.25
790.96	214.50
791.28	214.31
791.61	214.22
791.93	214.21
792.25	214.20
792.57	214.39
792.89	214.28
793.21	214.21
793.54	214.20
793.86	214.07
794.18	214.02
794.50	213.91
794.82	213.98
795.14	214.06
795.47	214.14
795.79	214.15
796.11	214.06
796.43	213.94
796.75	213.97
797.07	213.94
797.39	213.90
797.71	213.72
798.04	213.72
798.36	213.75
798.68	213.77
799.00	213.73
799.32	213.55
799.64	213.59
799.96	213.60
800.28	213.59
800.60	213.64
800.92	213.71
801.24	213.66
801.56	213.71
801.89	213.69
802.21	213.66
802.53	213.55
802.85	213.60
803.17	213.74
803.49	213.60
803.81	213.57
804.13	213.54
804.45	213.40
804.77	213.42
805.09	213.43
805.41	213.36
805.73	213.30
806.05	213.17
806.37	213.13
806.69	213.07
807.01	213.04
807.33	213.00
807.65	212.80
807.97	212.98
808.28	212.87
808.60	212.77
808.92	212.70
809.24	212.96
809.56	212.89
809.88	212.78
810.20	212.81
810.52	212.85
810.84	212.76
811.16	212.76
811.48	212.77
811.80	212.81
812.12	212.81
812.43	212.90
812.75	212.94
813.07	212.95
813.39	212.94
813.71	212.91
814.03	212.91
814.35	212.90
814.67	212.76
814.98	212.81
815.30	212.88
815.62	212.89
815.94	212.66
816.26	212.65
816.58	212.58
816.89	212.60
817.21	212.50
817.53	212.50
817.85	212.47
818.17	212.48
818.48	212.38
818.80	212.42
819.12	212.33
819.44	212.23
819.76	212.10
820.07	212.09
820.39	212.04
820.71	212.03
821.03	212.13
821.34	212.10
821.66	212.08
821.98	212.09
822.30	212.04
822.61	212.14
822.93	212.08
823.25	212.17
823.57	212.12
823.88	212.19
824.20	212.20
824.52	212.29
824.83	212.15
825.15	212.15
825.47	212.19
825.79	212.27
826.10	212.29
826.42	212.35
826.74	212.39
827.05	212.51
827.37	212.48
827.69	212.38
828.00	212.33
828.32	212.31
828.64	212.21
828.95	212.39
829.27	212.30
829.58	212.34
829.90	212.33
830.22	212.36
830.53	212.28
830.85	212.25
831.17	212.12
831.48	212.16
831.80	212.19
832.11	212.10
832.43	212.03
832.75	212.01
833.06	212.17
833.38	212.02
833.69	211.83
834.01	211.83
834.32	211.85
834.64	211.88
834.96	211.86
835.27	211.87
835.59	211.74
835.90	211.72
836.22	211.73
836.53	211.62
836.85	211.60
837.16	211.98
837.48	211.97
837.79	212.15
838.11	212.23
838.42	212.20
838.74	212.25
839.05	212.25
839.37	212.27
839.68	212.04
840.00	212.15
840.31	212.29
840.63	212.31
840.94	212.29
841.26	212.22
841.57	212.25
841.88	212.24
842.20	212.16
842.51	212.08
842.83	212.06
843.14	212.33
843.46	212.32
843.77	212.13
844.08	212.13
844.40	211.94
844.71	211.95
845.03	211.94
845.34	211.91
845.65	211.85
845.97	211.83
846.28	211.84
846.60	211.80
846.91	211.71
847.22	211.73
847.54	211.75
847.85	211.78
848.16	211.77
848.48	211.74
848.79	211.88
849.10	211.98
849.42	211.91
849.73	211.70
850.04	211.72
850.36	211.53
850.67	211.56
850.98	211.59
851.30	211.53
851.61	211.44
851.92	211.41
852.23	211.48
852.55	211.53
852.86	211.62
853.17	211.64
853.49	211.71
853.80	211.75
854.11	211.82
854.42	211.89
854.74	211.85
855.05	211.87
855.36	211.71
855.67	211.69
855.99	211.73
856.30	212.12
856.61	212.04
856.92	212.18
857.23	212.22
857.55	212.18
857.86	212.18
858.17	212.25
858.48	212.21
858.79	212.21
859.11	212.24
859.42	212.18
859.73	212.12
860.04	212.13
860.35	212.05
860.66	211.97
860.98	211.88
861.29	211.94
861.60	211.90
861.91	212.01
862.22	212.00
862.53	211.90
862.84	211.49
863.16	211.56
863.47	211.42
863.78	211.41
864.09	211.46
864.40	211.52
864.71	211.56
865.02	211.63
865.33	211.60
865.64	211.48
865.95	211.48
866.27	211.68
866.58	211.63
866.89	211.62
867.20	211.60
867.51	211.56
867.82	211.44
868.13	211.53
868.44	211.44
868.75	211.55
869.06	211.62
869.37	211.63
869.68	211.51
869.99	211.60
870.30	211.59
870.61	211.62
870.92	211.54
871.23	211.50
871.54	211.56
871.85	211.58
872.16	211.67
872.47	211.61
872.78	211.39
873.09	211.46
873.40	211.46
873.71	211.48
874.02	211.56
874.33	211.55
874.64	211.53
874.95	211.64
875.26	211.50
875.56	211.53
875.87	211.52
876.18	211.53
876.49	211.88
876.80	211.83
877.11	211.71
877.42	211.69
877.73	211.73
878.04	211.69
878.35	211.78
878.66	211.79
878.96	211.78
879.27	211.84
879.58	211.80
879.89	211.79
880.20	211.91
880.51	211.89
880.82	212.00
881.12	211.93
881.43	211.76
881.74	211.65
882.05	211.65
882.36	211.62
882.67	211.64
882.97	211.21
883.28	211.16
883.59	211.13
883.90	211.10
884.21	211.11
884.51	210.96
884.82	210.80
885.13	210.74
885.44	210.74
885.74	210.75
886.05	210.70
886.36	210.63
886.67	210.46
886.98	210.59
887.28	210.53
887.59	210.59
887.90	210.65
888.20	210.71
888.51	210.73
888.82	210.71
889.13	210.73
889.43	211.03
889.74	210.97
890.05	211.00
890.35	211.00
890.66	210.89
890.97	210.93
891.28	210.96
891.58	210.98
891.89	211.02
892.20	211.02
892.50	210.97
892.81	210.96
893.12	210.98
893.42	210.83
893.73	210.89
894.04	210.85
894.34	210.86
894.65	210.87
894.95	210.86
895.26	210.86
895.57	211.03
895.87	210.69
896.18	210.83
896.48	210.86
896.79	210.85
897.10	210.92
897.40	210.97
897.71	210.92
898.01	210.96
898.32	210.98
898.63	210.92
898.93	211.02
899.24	211.03
899.54	211.00
899.85	210.92
900.15	210.85
900.46	210.83
900.76	210.89
901.07	210.86
901.38	210.83
901.68	210.89
901.99	210.71
902.29	210.72
902.60	210.69
902.90	210.72
903.21	210.73
903.51	210.82
903.82	210.88
904.12	210.93
904.43	210.89
904.73	210.88
905.03	210.92
905.34	211.19
905.64	211.25
905.95	211.21
906.25	211.32
906.56	211.35
906.86	211.40
907.17	211.35
907.47	211.38
907.77	211.33
908.08	211.27
908.38	211.35
908.69	211.43
908.99	211.53
909.30	211.55
909.60	211.59
909.90	211.55
910.21	211.47
910.51	211.44
910.81	211.54
911.12	211.54
911.42	211.54
911.73	211.21
912.03	211.21
912.33	211.36
912.64	211.34
912.94	211.29
913.24	211.25
913.55	211.24
913.85	211.23
914.15	211.34
914.46	211.43
914.76	211.33
915.06	211.29
915.37	211.19
915.67	211.15
915.97	211.16
916.27	211.07
916.58	211.10
916.88	211.08
917.18	210.96
917.49	211.26
917.79	211.24
918.09	211.33
918.39	211.45
918.70	211.43
919.00	211.45
919.30	211.64
919.60	211.62
919.91	211.67
920.21	211.71
920.51	211.61
920.81	211.55
921.12	211.62
921.42	211.58
921.72	211.56
922.02	211.62
922.32	211.65
922.63	211.66
922.93	211.89
923.23	211.92
923.53	211.90
923.83	211.64
924.13	211.64
924.44	211.54
924.74	211.49
925.04	211.58
925.34	211.47
925.64	211.32
925.94	211.25
926.24	211.38
926.55	211.29
926.85	211.41
927.15	211.38
927.45	211.38
927.75	211.40
928.05	211.44
928.35	211.38
928.65	211.43
928.95	211.48
929.26	211.22
929.56	211.24
929.86	211.27
930.16	211.23
930.46	211.21
930.76	211.24
931.06	211.15
931.36	210.96
931.66	211.09
931.96	211.14
932.26	211.20
932.56	210.99
932.86	211.04
933.16	210.97
933.46	211.00
933.76	210.90
934.06	211.00
934.36	211.04
934.66	210.99
934.96	210.91
935.26	210.92
935.56	211.02
935.86	210.96
936.16	210.96
936.46	210.89
936.76	210.89
937.06	210.84
937.36	210.83
937.66	210.85
937.96	210.83
938.26	210.80
938.56	210.80
938.86	210.92
939.16	210.95
939.46	211.00
939.76	210.96
940.06	210.95
940.35	210.89
940.65	210.79
940.95	210.84
941.25	210.79
941.55	210.77
941.85	210.74
942.15	210.84
942.45	210.95
942.75	210.92
943.04	210.97
943.34	211.07
943.64	210.98
943.94	211.00
944.24	210.95
944.54	210.90
944.84	210.91
945.13	210.85
945.43	210.81
945.73	210.70
946.03	210.64
946.33	210.63
946.62	210.54
946.92	210.53
947.22	210.53
947.52	210.53
947.82	210.49
948.11	210.51
948.41	210.38
948.71	210.28
949.01	210.37
949.31	210.35
949.60	210.39
949.90	210.56
950.20	210.53
950.50	210.54
950.79	210.61
951.09	210.58
951.39	210.55
951.69	210.50
951.98	210.65
952.28	210.76
952.58	210.75
952.87	210.84
953.17	210.88
953.47	210.84
953.76	210.89
954.06	210.80
954.36	210.70
954.66	210.76
954.95	210.79
955.25	210.78
955.55	210.79
955.84	210.60
956.14	210.58
956.44	210.59
956.73	210.54
957.03	210.54
957.32	210.61
957.62	210.59
957.92	210.66
958.21	210.67
958.51	211.00
958.81	211.07
959.10	211.07
959.40	211.25
959.69	211.32
959.99	211.39
960.29	211.47
960.58	211.44
960.88	211.59
961.17	211.52
961.47	211.62
961.76	211.55
962.06	211.74
962.36	211.64
962.65	211.70
962.95	211.73
963.24	211.66
963.54	211.63
963.83	211.65
964.13	211.69
964.42	211.54
964.72	211.25
965.01	211.20
965.31	211.15
965.60	211.00
965.90	211.29
966.19	211.24
966.49	211.24
966.78	211.28
967.08	211.19
967.37	211.27
967.67	211.14
967.96	211.28
968.26	211.22
968.55	211.24
968.85	211.20
969.14	211.23
969.43	211.20
969.73	211.24
970.02	211.21
970.32	211.15
970.61	211.19
970.91	211.05
971.20	211.10
971.49	211.13
971.79	211.19
972.08	210.87
972.38	210.85
972.67	210.84
972.96	210.88
973.26	210.86
973.55	210.93
973.85	210.95
974.14	210.86
974.43	210.93
974.73	210.95
975.02	210.93
975.31	210.95
975.61	210.96
975.90	210.87
976.19	210.93
976.49	210.90
976.78	210.93
977.07	211.01
977.37	210.99
977.66	210.90
977.95	210.83
978.24	210.80
978.54	210.85
978.83	210.83
979.12	210.82
979.42	210.82
979.71	210.73
980.00	210.72
980.29	210.76
980.59	210.63
980.88	210.67
981.17	210.66
981.46	210.66
981.76	210.69
982.05	210.81
982.34	210.83
982.63	210.84
982.93	210.77
983.22	210.84
983.51	210.94
983.80	211.00
984.09	211.08
984.39	211.17
984.68	211.06
984.97	211.06
985.26	211.00
985.55	211.00
985.85	210.98
986.14	211.02
986.43	211.06
986.72	211.06
987.01	211.03
987.30	211.02
987.59	211.00
987.89	211.08
988.18	210.99
988.47	210.89
988.76	210.89
989.05	210.90
989.34	210.79
989.63	210.86
989.92	210.84
990.22	210.76
990.51	210.65
990.80	210.70
991.09	210.71
991.38	210.78
991.67	210.73
991.96	210.65
992.25	210.63
992.54	210.50
992.83	210.54
993.12	210.49
993.41	210.48
993.70	210.59
993.99	210.57
994.28	210.59
994.58	210.65
994.87	210.69
995.16	210.69
995.45	210.67
995.74	210.51
996.03	210.63
996.32	210.73
996.61	210.86
996.90	210.84
997.19	210.89
997.48	210.89
997.77	210.86
998.06	210.87
998.34	210.83
998.63	210.89
998.92	210.90
999.21	210.96
999.50	211.01
999.79	210.92
1000.08	210.86
1000.37	210.86
1000.66	210.82
1000.95	210.81
1001.24	210.83
1001.53	210.97
1001.82	210.95
1002.11	210.85
1002.40	210.85
1002.68	210.95
1002.97	211.23
1003.26	211.17
1003.55	211.12
1003.84	211.11
1004.13	211.30
1004.42	211.31
1004.71	211.29
1004.99	211.24
1005.28	211.38
1005.57	211.35
1005.86	211.27
1006.15	211.27
1006.44	211.22
1006.72	211.31
1007.01	211.30
1007.30	211.29
1007.59	211.24
1007.88	211.29
1008.17	211.33
1008.45	211.24
1008.74	211.07
1009.03	210.84
1009.32	210.75
1009.60	210.80
1009.89	210.87
1010.18	210.69
1010.47	210.65
1010.76	210.69
1011.04	210.72
1011.33	210.67
1011.62	210.69
1011.91	210.68
1012.19	210.70
1012.48	210.70
1012.77	210.60
1013.05	210.77
1013.34	210.83
1013.63	210.77
1013.92	210.76
1014.20	210.68
1014.49	210.71
1014.78	210.71
1015.06	210.61
1015.35	210.64
1015.64	210.66
1015.92	210.63
1016.21	210.67
1016.50	210.74
1016.78	210.75
1017.07	210.78
1017.36	210.73
1017.64	210.68
1017.93	210.70
1018.22	210.66
1018.50	210.66
1018.79	210.76
1019.08	210.62
1019.36	210.61
1019.65	210.58
1019.93	210.62
1020.22	210.65
1020.51	210.79
1020.79	210.74
1021.08	210.15
1021.36	209.40
1021.65	211.80
1021.94	211.15
1022.22	211.25
1022.51	210.05
1022.79	211.50
1023.08	210.40
1023.36	214.35
1023.65	209.55
>>>>>End Processed Spectral Data<<<<<
