SpectraSuite Data File
++++++++++++++++++++++++++++++++++++
Date: Mon Feb 25 16:55:34 EST 2013
User: group
Dark Spectrum Present: No
Reference Spectrum Present: No
Number of Sampled Component Spectra: 1
Spectrometers: USB2E7196
Integration Time (usec): 104000 (USB2E7196)
Spectra Averaged: 20 (USB2E7196)
Boxcar Smoothing: 10 (USB2E7196)
Correct for Electrical Dark: No (USB2E7196)
Strobe/Lamp Enabled: No (USB2E7196)
Correct for Detector Non-linearity: No (USB2E7196)
Correct for Stray Light: No (USB2E7196)
Number of Pixels in Processed Spectrum: 2048
>>>>>Begin Processed Spectral Data<<<<<
339.09	0.00
339.48	197.35
339.86	200.55
340.24	201.10
340.63	201.70
341.01	210.00
341.39	205.80
341.78	207.35
342.16	208.80
342.54	209.15
342.93	198.18
343.31	208.22
343.69	208.82
344.07	209.28
344.46	209.70
344.84	210.14
345.22	210.22
345.60	210.45
345.99	210.60
346.37	210.78
346.75	210.87
347.13	210.89
347.52	211.00
347.90	211.16
348.28	211.21
348.66	211.36
349.05	211.20
349.43	211.29
349.81	211.40
350.19	211.45
350.57	211.53
350.96	211.60
351.34	211.70
351.72	211.83
352.10	211.93
352.48	212.13
352.87	212.21
353.25	212.21
353.63	212.28
354.01	212.39
354.39	212.41
354.77	212.51
355.15	212.71
355.54	212.67
355.92	212.66
356.30	212.75
356.68	213.13
357.06	213.31
357.44	213.28
357.82	213.39
358.20	213.54
358.58	213.64
358.97	213.77
359.35	213.84
359.73	213.93
360.11	213.93
360.49	213.99
360.87	214.07
361.25	214.23
361.63	214.45
362.01	214.54
362.39	214.61
362.77	214.69
363.15	214.69
363.53	214.84
363.91	214.91
364.29	214.95
364.67	214.66
365.05	214.69
365.43	214.78
365.81	214.91
366.19	214.97
366.57	215.18
366.95	215.19
367.33	215.20
367.71	215.24
368.09	215.38
368.47	215.39
368.85	215.37
369.23	215.48
369.61	215.40
369.99	215.47
370.37	215.56
370.75	215.68
371.13	215.64
371.51	215.54
371.89	215.56
372.27	215.54
372.65	215.53
373.03	215.41
373.41	215.35
373.78	215.26
374.16	215.12
374.54	214.92
374.92	214.81
375.30	214.77
375.68	214.62
376.06	214.60
376.44	214.45
376.82	214.41
377.19	214.27
377.57	214.15
377.95	214.04
378.33	213.93
378.71	213.73
379.09	213.81
379.47	213.85
379.84	213.70
380.22	213.62
380.60	213.52
380.98	213.52
381.36	213.45
381.73	213.30
382.11	213.33
382.49	213.27
382.87	213.20
383.25	213.11
383.62	213.55
384.00	213.41
384.38	213.41
384.76	213.45
385.13	213.50
385.51	213.40
385.89	213.31
386.27	213.27
386.64	213.25
387.02	213.08
387.40	213.01
387.78	212.97
388.15	212.99
388.53	212.89
388.91	212.95
389.29	212.91
389.66	212.98
390.04	212.88
390.42	212.88
390.79	212.92
391.17	212.98
391.55	212.55
391.92	212.58
392.30	212.64
392.68	212.58
393.05	212.56
393.43	212.65
393.81	212.61
394.18	212.52
394.56	212.56
394.94	212.66
395.31	212.66
395.69	212.82
396.06	212.86
396.44	212.98
396.82	212.95
397.19	213.18
397.57	213.21
397.95	213.40
398.32	213.40
398.70	213.49
399.07	213.52
399.45	213.57
399.82	213.63
400.20	213.65
400.58	213.70
400.95	213.66
401.33	213.80
401.70	214.25
402.08	214.42
402.45	214.50
402.83	214.68
403.20	214.86
403.58	214.96
403.95	215.18
404.33	215.38
404.71	215.55
405.08	215.96
405.46	216.26
405.83	216.49
406.21	216.83
406.58	217.22
406.96	217.60
407.33	218.09
407.70	218.59
408.08	219.37
408.45	220.02
408.83	220.68
409.20	221.31
409.58	221.74
409.95	222.52
410.33	223.36
410.70	224.14
411.08	225.11
411.45	226.11
411.82	227.04
412.20	228.26
412.57	229.76
412.95	230.68
413.32	232.01
413.69	233.45
414.07	235.04
414.44	236.78
414.82	238.66
415.19	240.70
415.56	242.76
415.94	244.85
416.31	247.30
416.68	249.83
417.06	252.67
417.43	255.40
417.81	258.50
418.18	261.75
418.55	265.27
418.93	268.96
419.30	272.71
419.67	276.86
420.04	280.97
420.42	285.38
420.79	290.59
421.16	295.79
421.54	301.11
421.91	306.46
422.28	312.20
422.66	318.23
423.03	324.26
423.40	330.41
423.77	337.13
424.15	343.91
424.52	350.92
424.89	358.60
425.26	366.16
425.64	373.39
426.01	381.43
426.38	389.71
426.75	398.21
427.13	406.97
427.50	416.11
427.87	425.84
428.24	435.47
428.61	444.71
428.99	454.78
429.36	465.93
429.73	476.85
430.10	487.63
430.47	498.76
430.85	510.26
431.22	522.64
431.59	535.56
431.96	548.01
432.33	561.96
432.70	575.57
433.08	591.39
433.45	606.08
433.82	620.91
434.19	637.64
434.56	653.89
434.93	669.88
435.30	685.84
435.68	703.46
436.05	720.90
436.42	738.35
436.79	754.30
437.16	771.72
437.53	790.19
437.90	808.49
438.27	826.52
438.64	845.48
439.01	863.09
439.38	878.91
439.75	894.35
440.13	911.91
440.50	928.59
440.87	942.35
441.24	956.96
441.61	972.81
441.98	984.73
442.35	998.69
442.72	1012.51
443.09	1025.90
443.46	1034.55
443.83	1040.80
444.20	1046.45
444.57	1054.32
444.94	1058.51
445.31	1063.17
445.68	1067.34
446.05	1070.12
446.42	1069.68
446.79	1068.87
447.16	1068.11
447.53	1068.05
447.90	1062.73
448.27	1057.46
448.64	1049.52
449.01	1044.22
449.37	1033.29
449.74	1023.02
450.11	1010.19
450.48	996.16
450.85	982.01
451.22	969.69
451.59	958.22
451.96	947.06
452.33	931.76
452.70	918.06
453.07	901.31
453.43	884.57
453.80	868.29
454.17	852.63
454.54	837.92
454.91	821.89
455.28	806.08
455.65	791.54
456.02	776.58
456.38	764.21
456.75	748.44
457.12	735.76
457.49	722.93
457.86	710.62
458.23	699.98
458.59	688.32
458.96	676.70
459.33	666.01
459.70	655.59
460.07	647.26
460.43	637.71
460.80	628.53
461.17	620.52
461.54	612.25
461.91	604.49
462.27	596.55
462.64	589.77
463.01	582.22
463.38	575.00
463.74	567.90
464.11	561.50
464.48	555.96
464.85	549.71
465.21	545.01
465.58	540.05
465.95	534.20
466.32	529.17
466.68	524.25
467.05	519.35
467.42	514.38
467.78	509.13
468.15	504.17
468.52	500.64
468.88	495.82
469.25	491.48
469.62	487.95
469.98	484.10
470.35	480.47
470.72	477.12
471.08	473.36
471.45	470.25
471.82	467.08
472.18	463.81
472.55	461.43
472.92	458.42
473.28	455.78
473.65	453.18
474.02	450.78
474.38	448.65
474.75	447.07
475.11	445.29
475.48	444.05
475.85	442.75
476.21	441.47
476.58	440.51
476.94	439.78
477.31	438.79
477.67	437.99
478.04	437.49
478.41	437.17
478.77	437.26
479.14	436.87
479.50	436.80
479.87	436.87
480.23	437.08
480.60	437.26
480.96	437.37
481.33	438.19
481.69	438.74
482.06	439.19
482.42	439.50
482.79	440.14
483.15	441.04
483.52	442.43
483.88	443.51
484.25	444.82
484.61	446.06
484.98	447.46
485.34	449.29
485.71	451.14
486.07	453.09
486.44	454.84
486.80	457.06
487.17	459.47
487.53	462.08
487.90	464.78
488.26	467.73
488.62	470.92
488.99	474.02
489.35	477.09
489.72	480.71
490.08	484.44
490.44	488.14
490.81	492.03
491.17	495.83
491.54	500.09
491.90	504.52
492.26	509.32
492.63	514.15
492.99	518.93
493.36	524.12
493.72	529.49
494.08	535.09
494.45	540.75
494.81	546.85
495.17	553.15
495.54	559.49
495.90	565.99
496.26	572.46
496.63	579.21
496.99	586.41
497.35	593.53
497.72	601.18
498.08	608.82
498.44	616.55
498.80	624.72
499.17	633.00
499.53	641.29
499.89	649.79
500.26	658.38
500.62	666.94
500.98	675.69
501.34	684.61
501.71	693.73
502.07	702.99
502.43	712.02
502.79	720.92
503.16	730.45
503.52	739.96
503.88	749.74
504.24	759.43
504.60	768.97
504.97	778.90
505.33	788.65
505.69	799.02
506.05	809.20
506.41	819.00
506.78	828.73
507.14	838.53
507.50	848.43
507.86	858.31
508.22	868.54
508.59	878.54
508.95	888.84
509.31	898.82
509.67	908.86
510.03	919.03
510.39	929.36
510.75	939.31
511.12	949.20
511.48	959.06
511.84	969.01
512.20	978.94
512.56	988.85
512.92	998.56
513.28	1008.10
513.64	1017.58
514.00	1027.15
514.37	1036.46
514.73	1046.03
515.09	1055.06
515.45	1064.34
515.81	1073.27
516.17	1081.94
516.53	1090.37
516.89	1098.98
517.25	1107.34
517.61	1115.62
517.97	1123.71
518.33	1131.35
518.69	1139.03
519.05	1146.91
519.41	1154.62
519.77	1162.56
520.13	1169.69
520.49	1176.85
520.85	1183.92
521.21	1190.86
521.57	1198.15
521.93	1204.72
522.29	1211.29
522.65	1218.11
523.01	1224.83
523.37	1231.10
523.73	1237.62
524.09	1243.64
524.45	1249.58
524.81	1255.71
525.17	1261.64
525.53	1267.69
525.89	1273.65
526.25	1279.51
526.61	1284.46
526.97	1289.40
527.33	1294.34
527.68	1299.60
528.04	1304.64
528.40	1309.10
528.76	1313.65
529.12	1318.10
529.48	1323.51
529.84	1328.05
530.20	1332.47
530.56	1336.50
530.91	1341.06
531.27	1345.46
531.63	1349.63
531.99	1353.93
532.35	1357.72
532.71	1361.18
533.07	1365.25
533.42	1368.94
533.78	1372.79
534.14	1376.63
534.50	1380.03
534.86	1383.70
535.21	1386.89
535.57	1390.34
535.93	1393.37
536.29	1396.68
536.65	1399.96
537.00	1402.12
537.36	1404.44
537.72	1406.92
538.08	1409.45
538.44	1411.66
538.79	1414.11
539.15	1416.80
539.51	1419.02
539.87	1421.76
540.22	1424.42
540.58	1426.86
540.94	1429.38
541.29	1431.22
541.65	1432.84
542.01	1434.65
542.37	1436.04
542.72	1437.78
543.08	1438.96
543.44	1441.15
543.79	1442.14
544.15	1442.99
544.51	1445.02
544.87	1446.87
545.22	1447.99
545.58	1449.40
545.94	1450.21
546.29	1450.56
546.65	1450.95
547.01	1451.20
547.36	1451.47
547.72	1451.61
548.07	1451.26
548.43	1450.67
548.79	1450.32
549.14	1450.48
549.50	1450.75
549.86	1450.46
550.21	1450.25
550.57	1450.64
550.92	1450.03
551.28	1449.73
551.64	1449.56
551.99	1449.17
552.35	1448.71
552.70	1448.25
553.06	1447.76
553.41	1447.56
553.77	1447.43
554.13	1447.07
554.48	1447.21
554.84	1447.14
555.19	1446.90
555.55	1446.67
555.90	1446.49
556.26	1446.04
556.61	1445.52
556.97	1444.78
557.32	1444.40
557.68	1443.50
558.03	1442.14
558.39	1440.75
558.74	1440.13
559.10	1439.38
559.45	1438.35
559.81	1437.67
560.16	1436.74
560.52	1435.61
560.87	1434.61
561.23	1433.04
561.58	1432.21
561.94	1430.50
562.29	1428.65
562.64	1427.35
563.00	1425.98
563.35	1425.01
563.71	1424.72
564.06	1423.67
564.42	1422.70
564.77	1422.03
565.12	1421.58
565.48	1421.18
565.83	1420.74
566.19	1420.45
566.54	1419.11
566.89	1417.89
567.25	1416.85
567.60	1416.03
567.96	1415.53
568.31	1414.85
568.66	1414.26
569.02	1412.41
569.37	1411.09
569.72	1409.89
570.08	1408.47
570.43	1406.74
570.78	1404.74
571.14	1402.17
571.49	1400.00
571.84	1398.15
572.20	1395.52
572.55	1393.09
572.90	1390.14
573.26	1387.65
573.61	1384.49
573.96	1382.05
574.31	1379.26
574.67	1376.02
575.02	1372.45
575.37	1368.34
575.72	1364.39
576.08	1360.85
576.43	1357.73
576.78	1354.46
577.13	1351.23
577.49	1347.92
577.84	1344.31
578.19	1341.30
578.54	1338.47
578.90	1336.02
579.25	1332.24
579.60	1328.60
579.95	1324.60
580.30	1321.47
580.66	1318.14
581.01	1314.39
581.36	1310.42
581.71	1306.40
582.06	1302.84
582.42	1299.42
582.77	1295.62
583.12	1291.92
583.47	1288.25
583.82	1284.36
584.17	1280.30
584.53	1276.48
584.88	1272.23
585.23	1268.42
585.58	1264.08
585.93	1259.67
586.28	1255.12
586.63	1251.10
586.98	1247.41
587.34	1244.11
587.69	1239.84
588.04	1235.81
588.39	1232.07
588.74	1227.76
589.09	1224.05
589.44	1219.65
589.79	1215.85
590.14	1212.25
590.49	1208.20
590.84	1203.84
591.19	1200.37
591.54	1196.44
591.89	1191.67
592.25	1187.89
592.60	1183.65
592.95	1179.04
593.30	1174.42
593.65	1169.49
594.00	1164.91
594.35	1161.54
594.70	1156.89
595.05	1152.50
595.40	1147.85
595.75	1142.90
596.10	1139.01
596.45	1134.76
596.80	1130.75
597.15	1126.40
597.50	1121.60
597.85	1117.43
598.19	1113.05
598.54	1108.41
598.89	1104.27
599.24	1100.67
599.59	1096.26
599.94	1092.19
600.29	1088.16
600.64	1084.11
600.99	1079.92
601.34	1075.95
601.69	1070.35
602.04	1065.74
602.39	1061.09
602.74	1056.92
603.08	1053.14
603.43	1049.10
603.78	1044.43
604.13	1039.98
604.48	1035.76
604.83	1032.28
605.18	1028.31
605.53	1024.15
605.87	1019.85
606.22	1015.35
606.57	1010.65
606.92	1005.99
607.27	1001.31
607.62	997.03
607.96	992.83
608.31	988.98
608.66	984.61
609.01	980.32
609.36	975.89
609.70	971.70
610.05	966.91
610.40	962.36
610.75	957.40
611.10	953.30
611.44	948.27
611.79	943.45
612.14	938.51
612.49	933.22
612.83	928.83
613.18	923.81
613.53	919.06
613.88	914.10
614.22	909.52
614.57	904.89
614.92	900.15
615.27	895.21
615.61	890.40
615.96	885.91
616.31	881.56
616.65	877.40
617.00	872.91
617.35	868.51
617.70	863.88
618.04	859.06
618.39	854.03
618.74	849.58
619.08	844.94
619.43	840.51
619.78	836.44
620.12	832.00
620.47	827.77
620.82	823.38
621.16	818.80
621.51	814.31
621.85	810.07
622.20	805.81
622.55	801.45
622.89	796.81
623.24	792.33
623.59	787.67
623.93	783.11
624.28	778.93
624.62	775.14
624.97	770.95
625.32	766.89
625.66	762.89
626.01	759.05
626.35	755.07
626.70	750.78
627.04	746.67
627.39	742.46
627.73	738.55
628.08	734.87
628.43	731.27
628.77	727.53
629.12	723.34
629.46	719.49
629.81	715.67
630.15	712.12
630.50	708.21
630.84	704.46
631.19	700.86
631.53	697.15
631.88	692.97
632.22	689.22
632.57	685.93
632.91	682.31
633.26	678.60
633.60	674.80
633.95	671.20
634.29	667.64
634.64	664.27
634.98	660.50
635.32	657.09
635.67	653.82
636.01	650.62
636.36	647.21
636.70	643.88
637.05	640.65
637.39	637.40
637.73	634.47
638.08	631.63
638.42	628.47
638.77	625.24
639.11	622.23
639.45	619.18
639.80	615.81
640.14	612.55
640.49	609.36
640.83	606.32
641.17	603.30
641.52	600.01
641.86	596.89
642.20	594.05
642.55	590.63
642.89	587.25
643.23	583.81
643.58	581.15
643.92	578.00
644.26	575.02
644.61	572.09
644.95	568.83
645.29	565.58
645.64	562.54
645.98	559.47
646.32	556.35
646.66	553.22
647.01	550.36
647.35	547.69
647.69	544.69
648.04	541.95
648.38	539.12
648.72	536.50
649.06	533.41
649.41	530.41
649.75	527.72
650.09	525.15
650.43	522.44
650.78	519.34
651.12	516.56
651.46	513.67
651.80	510.83
652.14	508.27
652.49	505.61
652.83	502.82
653.17	500.06
653.51	497.41
653.85	494.88
654.20	492.24
654.54	489.35
654.88	486.79
655.22	484.05
655.56	481.32
655.90	478.50
656.25	475.88
656.59	473.50
656.93	470.89
657.27	468.47
657.61	465.91
657.95	463.64
658.29	461.16
658.64	458.96
658.98	456.46
659.32	453.85
659.66	451.41
660.00	448.90
660.34	446.53
660.68	444.23
661.02	441.76
661.36	439.32
661.70	437.20
662.05	434.98
662.39	432.96
662.73	430.98
663.07	429.01
663.41	427.08
663.75	424.84
664.09	422.88
664.43	420.60
664.77	418.68
665.11	416.52
665.45	414.55
665.79	412.43
666.13	410.47
666.47	408.58
666.81	406.63
667.15	404.80
667.49	403.03
667.83	401.15
668.17	399.34
668.51	397.63
668.85	395.79
669.19	394.20
669.53	392.25
669.87	390.28
670.21	388.36
670.55	386.59
670.89	385.08
671.23	383.43
671.57	381.81
671.91	380.24
672.25	378.62
672.58	377.12
672.92	375.56
673.26	373.97
673.60	372.37
673.94	370.85
674.28	369.23
674.62	367.73
674.96	366.30
675.30	364.90
675.64	363.55
675.97	362.16
676.31	360.72
676.65	359.35
676.99	358.16
677.33	356.82
677.67	355.46
678.01	353.89
678.34	352.44
678.68	351.18
679.02	349.64
679.36	348.30
679.70	346.93
680.04	345.60
680.37	344.31
680.71	342.96
681.05	341.78
681.39	340.63
681.73	339.38
682.06	338.13
682.40	336.99
682.74	335.79
683.08	334.65
683.42	333.34
683.75	332.19
684.09	330.83
684.43	329.72
684.77	328.43
685.10	327.24
685.44	325.97
685.78	324.73
686.12	323.69
686.45	322.59
686.79	321.47
687.13	320.43
687.46	319.37
687.80	318.42
688.14	317.16
688.48	316.14
688.81	315.03
689.15	314.03
689.49	312.81
689.82	311.60
690.16	310.38
690.50	309.24
690.83	308.09
691.17	307.00
691.51	305.83
691.84	304.91
692.18	303.98
692.52	303.04
692.85	302.10
693.19	301.29
693.52	300.34
693.86	299.22
694.20	298.22
694.53	297.34
694.87	296.40
695.21	295.55
695.54	294.53
695.88	293.55
696.21	292.52
696.55	291.73
696.88	290.85
697.22	289.94
697.56	289.29
697.89	288.45
698.23	287.71
698.56	286.94
698.90	286.18
699.23	285.29
699.57	284.51
699.90	283.74
700.24	282.71
700.58	281.84
700.91	281.17
701.25	280.68
701.58	279.94
701.92	279.25
702.25	278.52
702.59	277.75
702.92	277.09
703.26	276.37
703.59	275.59
703.93	275.14
704.26	274.42
704.60	273.61
704.93	273.00
705.26	272.30
705.60	271.64
705.93	270.81
706.27	270.26
706.60	269.71
706.94	269.18
707.27	268.62
707.61	268.05
707.94	267.37
708.27	266.40
708.61	265.71
708.94	265.04
709.28	264.42
709.61	263.89
709.94	263.24
710.28	262.69
710.61	262.19
710.95	261.41
711.28	261.21
711.61	260.66
711.95	260.16
712.28	259.61
712.61	259.14
712.95	258.86
713.28	258.41
713.61	257.89
713.95	257.31
714.28	256.80
714.61	256.34
714.95	255.90
715.28	255.41
715.61	254.90
715.95	254.46
716.28	253.97
716.61	253.56
716.95	253.00
717.28	252.55
717.61	252.10
717.94	251.67
718.28	251.02
718.61	250.65
718.94	250.19
719.27	249.79
719.61	249.45
719.94	248.90
720.27	248.39
720.60	247.92
720.94	247.50
721.27	247.12
721.60	246.74
721.93	246.41
722.27	246.23
722.60	245.91
722.93	245.51
723.26	245.23
723.59	244.80
723.93	244.68
724.26	244.33
724.59	243.92
724.92	243.61
725.25	243.35
725.59	243.10
725.92	242.81
726.25	242.47
726.58	242.20
726.91	242.04
727.24	241.80
727.57	241.54
727.91	241.16
728.24	240.92
728.57	240.61
728.90	240.35
729.23	239.95
729.56	239.83
729.89	239.55
730.22	239.22
730.55	238.96
730.89	238.63
731.22	238.36
731.55	238.15
731.88	237.92
732.21	237.61
732.54	237.27
732.87	237.01
733.20	236.84
733.53	236.53
733.86	236.26
734.19	235.91
734.52	235.66
734.85	235.73
735.18	235.43
735.51	235.33
735.84	235.06
736.17	234.94
736.50	234.52
736.83	234.69
737.16	234.48
737.49	234.31
737.82	234.03
738.15	233.75
738.48	233.50
738.81	233.30
739.14	232.95
739.47	232.69
739.80	232.44
740.13	232.25
740.46	231.98
740.79	231.69
741.12	231.50
741.45	231.18
741.78	230.72
742.11	230.61
742.44	230.27
742.77	230.25
743.10	229.97
743.43	229.80
743.75	229.18
744.08	229.44
744.41	229.25
744.74	229.08
745.07	228.91
745.40	228.83
745.73	228.77
746.06	228.68
746.39	228.46
746.71	228.26
747.04	227.95
747.37	227.75
747.70	227.58
748.03	227.37
748.36	227.35
748.68	227.12
749.01	226.82
749.34	226.68
749.67	226.45
750.00	226.34
750.33	226.41
750.65	226.30
750.98	225.75
751.31	225.54
751.64	225.40
751.97	225.49
752.29	225.33
752.62	224.97
752.95	224.77
753.28	224.61
753.60	224.42
753.93	224.40
754.26	224.30
754.59	224.11
754.91	223.93
755.24	223.80
755.57	223.69
755.90	223.53
756.22	223.41
756.55	223.12
756.88	222.94
757.20	222.55
757.53	222.40
757.86	222.18
758.19	222.11
758.51	221.95
758.84	221.64
759.17	221.49
759.49	221.38
759.82	221.48
760.15	221.34
760.47	221.28
760.80	221.07
761.13	221.01
761.45	220.89
761.78	220.82
762.11	220.66
762.43	220.52
762.76	220.42
763.08	220.29
763.41	220.23
763.74	220.11
764.06	220.03
764.39	219.88
764.71	219.87
765.04	219.65
765.37	219.55
765.69	219.44
766.02	219.35
766.34	219.30
766.67	219.03
767.00	219.14
767.32	219.24
767.65	219.37
767.97	219.25
768.30	219.12
768.62	219.02
768.95	218.97
769.27	218.94
769.60	218.91
769.92	218.82
770.25	218.77
770.57	218.68
770.90	218.64
771.22	218.66
771.55	218.51
771.87	218.49
772.20	218.46
772.52	218.66
772.85	218.92
773.17	218.83
773.50	218.79
773.82	218.59
774.15	218.34
774.47	218.02
774.80	217.95
775.12	217.98
775.45	217.95
775.77	217.97
776.09	217.99
776.42	217.97
776.74	217.96
777.07	217.91
777.39	217.88
777.72	217.74
778.04	217.66
778.36	217.60
778.69	217.61
779.01	217.55
779.33	217.25
779.66	216.77
779.98	216.68
780.31	216.60
780.63	216.73
780.95	216.72
781.28	216.75
781.60	216.64
781.92	216.53
782.25	216.52
782.57	216.33
782.89	216.12
783.22	216.06
783.54	216.03
783.86	215.94
784.19	215.87
784.51	215.92
784.83	215.81
785.16	215.76
785.48	215.70
785.80	215.67
786.12	215.63
786.45	215.68
786.77	215.73
787.09	215.70
787.42	215.54
787.74	215.46
788.06	215.37
788.38	215.29
788.71	215.25
789.03	215.26
789.35	215.35
789.67	215.37
789.99	215.32
790.32	215.26
790.64	215.28
790.96	215.56
791.28	215.42
791.61	215.38
791.93	215.35
792.25	215.27
792.57	215.49
792.89	215.41
793.21	215.38
793.54	215.23
793.86	215.21
794.18	215.22
794.50	215.15
794.82	215.15
795.14	215.22
795.47	215.26
795.79	215.20
796.11	214.97
796.43	214.83
796.75	214.78
797.07	214.69
797.39	214.64
797.71	214.37
798.04	214.33
798.36	214.35
798.68	214.31
799.00	214.38
799.32	214.17
799.64	214.17
799.96	214.13
800.28	214.23
800.60	214.09
800.92	214.07
801.24	214.08
801.56	214.13
801.89	214.05
802.21	214.02
802.53	213.92
802.85	214.09
803.17	214.38
803.49	214.32
803.81	214.30
804.13	214.33
804.45	214.22
804.77	214.25
805.09	214.17
805.41	214.09
805.73	213.99
806.05	213.89
806.37	213.83
806.69	213.78
807.01	213.72
807.33	213.80
807.65	213.66
807.97	213.81
808.28	213.65
808.60	213.65
808.92	213.63
809.24	213.84
809.56	213.76
809.88	213.59
810.20	213.59
810.52	213.65
810.84	213.54
811.16	213.57
811.48	213.60
811.80	213.73
812.12	213.80
812.43	213.91
812.75	213.90
813.07	213.92
813.39	214.03
813.71	213.96
814.03	213.93
814.35	213.91
814.67	213.78
814.98	213.80
815.30	213.78
815.62	213.76
815.94	213.53
816.26	213.49
816.58	213.39
816.89	213.45
817.21	213.37
817.53	213.39
817.85	213.40
818.17	213.33
818.48	213.20
818.80	213.23
819.12	213.09
819.44	213.04
819.76	213.02
820.07	212.96
820.39	212.95
820.71	212.96
821.03	212.93
821.34	212.85
821.66	212.84
821.98	212.83
822.30	212.73
822.61	212.92
822.93	212.85
823.25	212.86
823.57	212.80
823.88	212.88
824.20	212.82
824.52	212.84
824.83	212.85
825.15	212.85
825.47	212.75
825.79	212.79
826.10	212.82
826.42	212.81
826.74	212.88
827.05	212.82
827.37	212.83
827.69	212.83
828.00	212.84
828.32	212.88
828.64	212.84
828.95	213.08
829.27	212.94
829.58	212.93
829.90	213.01
830.22	212.95
830.53	212.79
830.85	212.80
831.17	212.72
831.48	212.64
831.80	212.65
832.11	212.66
832.43	212.60
832.75	212.58
833.06	212.70
833.38	212.50
833.69	212.54
834.01	212.50
834.32	212.53
834.64	212.44
834.96	212.44
835.27	212.48
835.59	212.32
835.90	212.24
836.22	212.23
836.53	212.12
836.85	212.10
837.16	212.43
837.48	212.31
837.79	212.39
838.11	212.40
838.42	212.34
838.74	212.33
839.05	212.25
839.37	212.23
839.68	212.08
840.00	212.07
840.31	212.08
840.63	212.06
840.94	211.97
841.26	211.95
841.57	211.93
841.88	211.85
842.20	211.83
842.51	211.86
842.83	211.89
843.14	212.25
843.46	212.28
843.77	212.17
844.08	212.25
844.40	212.14
844.71	212.17
845.03	212.12
845.34	212.18
845.65	212.23
845.97	212.26
846.28	212.19
846.60	212.30
846.91	212.20
847.22	212.19
847.54	212.29
847.85	212.38
848.16	212.37
848.48	212.41
848.79	212.57
849.10	212.62
849.42	212.64
849.73	212.25
850.04	212.30
850.36	212.16
850.67	212.23
850.98	212.26
851.30	212.26
851.61	212.31
851.92	212.28
852.23	212.40
852.55	212.35
852.86	212.43
853.17	212.42
853.49	212.53
853.80	212.64
854.11	212.65
854.42	212.70
854.74	212.70
855.05	212.65
855.36	212.42
855.67	212.36
855.99	212.34
856.30	212.79
856.61	212.74
856.92	212.70
857.23	212.68
857.55	212.65
857.86	212.61
858.17	212.65
858.48	212.58
858.79	212.55
859.11	212.67
859.42	212.68
859.73	212.58
860.04	212.62
860.35	212.43
860.66	212.34
860.98	212.30
861.29	212.40
861.60	212.41
861.91	212.48
862.22	212.46
862.53	212.43
862.84	211.99
863.16	212.12
863.47	212.08
863.78	211.98
864.09	212.09
864.40	212.09
864.71	212.12
865.02	212.15
865.33	212.07
865.64	211.93
865.95	211.95
866.27	212.21
866.58	212.15
866.89	212.29
867.20	212.32
867.51	212.24
867.82	212.16
868.13	212.25
868.44	212.18
868.75	212.28
869.06	212.27
869.37	212.36
869.68	212.17
869.99	212.19
870.30	212.29
870.61	212.30
870.92	212.23
871.23	212.13
871.54	212.18
871.85	212.22
872.16	212.30
872.47	212.23
872.78	211.97
873.09	212.00
873.40	211.95
873.71	212.00
874.02	212.01
874.33	211.91
874.64	211.80
874.95	211.82
875.26	211.68
875.56	211.68
875.87	211.63
876.18	211.58
876.49	211.96
876.80	211.92
877.11	211.75
877.42	211.81
877.73	211.81
878.04	211.76
878.35	211.78
878.66	211.72
878.96	211.66
879.27	211.63
879.58	211.54
879.89	211.48
880.20	211.50
880.51	211.48
880.82	211.58
881.12	211.62
881.43	211.58
881.74	211.64
882.05	211.59
882.36	211.60
882.67	211.70
882.97	211.31
883.28	211.18
883.59	211.21
883.90	211.25
884.21	211.35
884.51	211.31
884.82	211.30
885.13	211.32
885.44	211.38
885.74	211.36
886.05	211.43
886.36	211.51
886.67	211.42
886.98	211.59
887.28	211.54
887.59	211.57
887.90	211.59
888.20	211.56
888.51	211.70
888.82	211.64
889.13	211.65
889.43	211.92
889.74	211.97
890.05	212.00
890.35	211.99
890.66	211.93
890.97	211.86
891.28	211.81
891.58	211.80
891.89	211.78
892.20	211.83
892.50	211.79
892.81	211.76
893.12	211.72
893.42	211.55
893.73	211.55
894.04	211.46
894.34	211.49
894.65	211.43
894.95	211.36
895.26	211.36
895.57	211.42
895.87	211.13
896.18	211.19
896.48	211.18
896.79	211.14
897.10	211.13
897.40	211.17
897.71	211.18
898.01	211.18
898.32	211.21
898.63	211.22
898.93	211.23
899.24	211.19
899.54	211.21
899.85	211.18
900.15	211.19
900.46	211.17
900.76	211.12
901.07	211.14
901.38	211.15
901.68	211.20
901.99	211.13
902.29	211.09
902.60	211.00
902.90	210.90
903.21	210.80
903.51	210.78
903.82	210.89
904.12	210.89
904.43	210.85
904.73	210.83
905.03	210.82
905.34	211.16
905.64	211.14
905.95	211.06
906.25	211.07
906.56	210.97
906.86	211.04
907.17	211.04
907.47	211.01
907.77	210.91
908.08	210.80
908.38	210.82
908.69	210.95
908.99	211.06
909.30	211.17
909.60	211.20
909.90	211.26
910.21	211.10
910.51	211.04
910.81	211.09
911.12	211.01
911.42	210.96
911.73	210.55
912.03	210.56
912.33	210.60
912.64	210.69
912.94	210.75
913.24	210.70
913.55	210.70
913.85	210.71
914.15	210.84
914.46	210.91
914.76	210.93
915.06	210.85
915.37	210.83
915.67	210.80
915.97	210.84
916.27	210.83
916.58	210.92
916.88	210.90
917.18	210.94
917.49	211.23
917.79	211.29
918.09	211.39
918.39	211.52
918.70	211.62
919.00	211.60
919.30	211.78
919.60	211.75
919.91	211.69
920.21	211.78
920.51	211.72
920.81	211.74
921.12	211.72
921.42	211.78
921.72	211.81
922.02	211.94
922.32	212.01
922.63	212.03
922.93	212.23
923.23	212.23
923.53	212.16
923.83	211.97
924.13	211.96
924.44	211.96
924.74	211.99
925.04	212.00
925.34	212.01
925.64	211.83
925.94	211.80
926.24	211.99
926.55	211.94
926.85	211.99
927.15	211.94
927.45	211.95
927.75	211.91
928.05	211.86
928.35	211.75
928.65	211.76
928.95	211.73
929.26	211.58
929.56	211.72
929.86	211.71
930.16	211.72
930.46	211.70
930.76	211.68
931.06	211.63
931.36	211.56
931.66	211.62
931.96	211.69
932.26	211.81
932.56	211.74
932.86	211.76
933.16	211.78
933.46	211.76
933.76	211.73
934.06	211.79
934.36	211.95
934.66	211.94
934.96	211.90
935.26	211.91
935.56	212.01
935.86	211.88
936.16	211.89
936.46	211.83
936.76	211.83
937.06	211.77
937.36	211.67
937.66	211.67
937.96	211.62
938.26	211.51
938.56	211.37
938.86	211.38
939.16	211.39
939.46	211.35
939.76	211.38
940.06	211.37
940.35	211.23
940.65	211.01
940.95	211.05
941.25	210.97
941.55	210.89
941.85	210.80
942.15	210.88
942.45	210.92
942.75	210.87
943.04	210.90
943.34	211.03
943.64	211.01
943.94	210.93
944.24	210.95
944.54	210.97
944.84	211.00
945.13	210.97
945.43	210.96
945.73	210.97
946.03	210.94
946.33	210.92
946.62	210.95
946.92	210.96
947.22	210.92
947.52	210.94
947.82	211.01
948.11	210.91
948.41	210.84
948.71	210.80
949.01	210.83
949.31	210.80
949.60	210.72
949.90	210.75
950.20	210.82
950.50	210.75
950.79	210.80
951.09	210.84
951.39	210.83
951.69	210.83
951.98	210.90
952.28	211.02
952.58	211.08
952.87	211.11
953.17	211.22
953.47	211.22
953.76	211.29
954.06	211.30
954.36	211.34
954.66	211.36
954.95	211.34
955.25	211.37
955.55	211.44
955.84	211.33
956.14	211.36
956.44	211.35
956.73	211.36
957.03	211.30
957.32	211.39
957.62	211.38
957.92	211.42
958.21	211.38
958.51	211.66
958.81	211.65
959.10	211.63
959.40	211.67
959.69	211.71
959.99	211.75
960.29	211.75
960.58	211.73
960.88	211.86
961.17	211.92
961.47	212.00
961.76	211.92
962.06	212.08
962.36	212.06
962.65	212.05
962.95	212.08
963.24	212.04
963.54	212.02
963.83	212.00
964.13	212.02
964.42	211.88
964.72	211.70
965.01	211.74
965.31	211.75
965.60	211.67
965.90	211.88
966.19	211.85
966.49	211.79
966.78	211.80
967.08	211.75
967.37	211.79
967.67	211.67
967.96	211.76
968.26	211.74
968.55	211.84
968.85	211.84
969.14	211.81
969.43	211.85
969.73	211.80
970.02	211.85
970.32	211.78
970.61	211.82
970.91	211.65
971.20	211.55
971.49	211.52
971.79	211.62
972.08	211.40
972.38	211.32
972.67	211.29
972.96	211.29
973.26	211.23
973.55	211.32
973.85	211.38
974.14	211.35
974.43	211.39
974.73	211.30
975.02	211.27
975.31	211.26
975.61	211.22
975.90	211.16
976.19	211.12
976.49	211.13
976.78	211.15
977.07	211.18
977.37	211.20
977.66	211.32
977.95	211.19
978.24	211.19
978.54	211.34
978.83	211.30
979.12	211.27
979.42	211.26
979.71	211.17
980.00	211.06
980.29	211.10
980.59	210.97
980.88	211.07
981.17	211.09
981.46	211.12
981.76	211.15
982.05	211.25
982.34	211.27
982.63	211.29
982.93	211.27
983.22	211.40
983.51	211.47
983.80	211.40
984.09	211.48
984.39	211.41
984.68	211.33
984.97	211.42
985.26	211.40
985.55	211.45
985.85	211.38
986.14	211.48
986.43	211.45
986.72	211.46
987.01	211.32
987.30	211.31
987.59	211.29
987.89	211.33
988.18	211.29
988.47	211.21
988.76	211.19
989.05	211.19
989.34	211.06
989.63	211.09
989.92	211.11
990.22	211.05
990.51	211.10
990.80	211.08
991.09	211.08
991.38	211.11
991.67	211.10
991.96	211.09
992.25	211.09
992.54	211.05
992.83	211.04
993.12	211.00
993.41	211.02
993.70	211.17
993.99	211.21
994.28	211.29
994.58	211.37
994.87	211.31
995.16	211.30
995.45	211.26
995.74	211.10
996.03	211.12
996.32	211.16
996.61	211.20
996.90	211.20
997.19	211.21
997.48	211.20
997.77	211.19
998.06	211.23
998.34	211.28
998.63	211.26
998.92	211.28
999.21	211.36
999.50	211.44
999.79	211.34
1000.08	211.27
1000.37	211.25
1000.66	211.20
1000.95	211.29
1001.24	211.32
1001.53	211.34
1001.82	211.28
1002.11	211.14
1002.40	211.14
1002.68	211.20
1002.97	211.49
1003.26	211.39
1003.55	211.35
1003.84	211.36
1004.13	211.44
1004.42	211.34
1004.71	211.27
1004.99	211.33
1005.28	211.40
1005.57	211.34
1005.86	211.30
1006.15	211.23
1006.44	211.18
1006.72	211.22
1007.01	211.16
1007.30	211.18
1007.59	211.22
1007.88	211.25
1008.17	211.33
1008.45	211.32
1008.74	211.16
1009.03	210.91
1009.32	210.90
1009.60	210.94
1009.89	210.91
1010.18	210.69
1010.47	210.69
1010.76	210.64
1011.04	210.64
1011.33	210.70
1011.62	210.69
1011.91	210.69
1012.19	210.74
1012.48	210.75
1012.77	210.75
1013.05	210.97
1013.34	210.89
1013.63	210.85
1013.92	210.93
1014.20	210.91
1014.49	210.87
1014.78	210.91
1015.06	210.80
1015.35	210.85
1015.64	210.86
1015.92	210.90
1016.21	210.98
1016.50	211.00
1016.78	211.15
1017.07	211.14
1017.36	211.06
1017.64	211.00
1017.93	211.00
1018.22	210.97
1018.50	210.98
1018.79	210.94
1019.08	210.77
1019.36	210.85
1019.65	210.91
1019.93	210.94
1020.22	210.98
1020.51	211.17
1020.79	211.21
1021.08	210.40
1021.36	210.90
1021.65	210.30
1021.94	211.55
1022.22	211.60
1022.51	212.00
1022.79	212.10
1023.08	211.20
1023.36	214.85
1023.65	210.90
>>>>>End Processed Spectral Data<<<<<
