SpectraSuite Data File
++++++++++++++++++++++++++++++++++++
Date: Mon Feb 25 17:20:26 EST 2013
User: group
Dark Spectrum Present: No
Reference Spectrum Present: No
Number of Sampled Component Spectra: 1
Spectrometers: USB2E7196
Integration Time (usec): 104000 (USB2E7196)
Spectra Averaged: 20 (USB2E7196)
Boxcar Smoothing: 10 (USB2E7196)
Correct for Electrical Dark: No (USB2E7196)
Strobe/Lamp Enabled: No (USB2E7196)
Correct for Detector Non-linearity: No (USB2E7196)
Correct for Stray Light: No (USB2E7196)
Number of Pixels in Processed Spectrum: 2048
>>>>>Begin Processed Spectral Data<<<<<
339.09	0.00
339.48	199.20
339.86	198.85
340.24	201.00
340.63	203.30
341.01	209.60
341.39	204.90
341.78	207.65
342.16	209.35
342.54	208.85
342.93	198.33
343.31	208.35
343.69	208.86
344.07	209.44
344.46	210.01
344.84	210.48
345.22	210.63
345.60	211.01
345.99	211.24
346.37	211.40
346.75	211.56
347.13	211.71
347.52	211.72
347.90	211.93
348.28	212.06
348.66	212.22
349.05	212.15
349.43	212.24
349.81	212.35
350.19	212.47
350.57	212.56
350.96	212.69
351.34	212.86
351.72	213.05
352.10	213.20
352.48	213.18
352.87	213.18
353.25	213.27
353.63	213.27
354.01	213.29
354.39	213.40
354.77	213.46
355.15	213.62
355.54	213.67
355.92	213.63
356.30	213.77
356.68	213.96
357.06	214.10
357.44	214.11
357.82	214.09
358.20	214.16
358.58	214.25
358.97	214.37
359.35	214.44
359.73	214.53
360.11	214.58
360.49	214.68
360.87	214.73
361.25	214.74
361.63	214.93
362.01	215.07
362.39	215.08
362.77	215.17
363.15	215.21
363.53	215.29
363.91	215.41
364.29	215.44
364.67	215.20
365.05	215.22
365.43	215.31
365.81	215.48
366.19	215.58
366.57	215.71
366.95	215.68
367.33	215.67
367.71	215.64
368.09	215.68
368.47	215.68
368.85	215.65
369.23	215.70
369.61	215.59
369.99	215.72
370.37	215.75
370.75	215.84
371.13	215.70
371.51	215.66
371.89	215.59
372.27	215.57
372.65	215.55
373.03	215.47
373.41	215.42
373.78	215.33
374.16	215.13
374.54	215.05
374.92	215.05
375.30	214.96
375.68	214.89
376.06	214.81
376.44	214.75
376.82	214.72
377.19	214.64
377.57	214.56
377.95	214.29
378.33	214.24
378.71	214.09
379.09	214.08
379.47	214.04
379.84	213.96
380.22	213.82
380.60	213.71
380.98	213.70
381.36	213.64
381.73	213.55
382.11	213.65
382.49	213.60
382.87	213.54
383.25	213.53
383.62	213.83
384.00	213.80
384.38	213.76
384.76	213.81
385.13	213.96
385.51	213.94
385.89	213.91
386.27	213.83
386.64	213.75
387.02	213.70
387.40	213.65
387.78	213.67
388.15	213.67
388.53	213.67
388.91	213.62
389.29	213.60
389.66	213.65
390.04	213.56
390.42	213.58
390.79	213.50
391.17	213.48
391.55	213.10
391.92	213.05
392.30	213.07
392.68	213.04
393.05	212.99
393.43	213.04
393.81	213.08
394.18	213.06
394.56	213.17
394.94	213.35
395.31	213.36
395.69	213.46
396.06	213.54
396.44	213.54
396.82	213.55
397.19	213.74
397.57	213.73
397.95	213.87
398.32	213.81
398.70	213.92
399.07	214.05
399.45	214.12
399.82	214.16
400.20	214.18
400.58	214.23
400.95	214.15
401.33	214.29
401.70	214.58
402.08	214.71
402.45	214.74
402.83	214.81
403.20	215.03
403.58	215.12
403.95	215.37
404.33	215.53
404.71	215.74
405.08	216.09
405.46	216.25
405.83	216.40
406.21	216.64
406.58	216.86
406.96	217.08
407.33	217.31
407.70	217.72
408.08	218.32
408.45	218.74
408.83	219.20
409.20	219.49
409.58	219.69
409.95	220.16
410.33	220.65
410.70	220.99
411.08	221.46
411.45	221.96
411.82	222.36
412.20	223.11
412.57	223.96
412.95	224.35
413.32	225.21
413.69	225.98
414.07	226.93
414.44	227.87
414.82	228.83
415.19	230.05
415.56	231.15
415.94	232.15
416.31	233.43
416.68	234.76
417.06	236.36
417.43	237.93
417.81	239.50
418.18	241.27
418.55	243.21
418.93	245.20
419.30	247.22
419.67	249.43
420.04	251.63
420.42	253.81
420.79	256.64
421.16	259.25
421.54	262.13
421.91	264.89
422.28	267.84
422.66	270.99
423.03	274.12
423.40	277.30
423.77	280.67
424.15	284.08
424.52	287.57
424.89	291.39
425.26	295.09
425.64	298.69
426.01	302.59
426.38	306.56
426.75	310.65
427.13	314.97
427.50	319.51
427.87	324.18
428.24	328.93
428.61	333.25
428.99	338.29
429.36	343.54
429.73	348.73
430.10	353.87
430.47	359.12
430.85	364.45
431.22	370.20
431.59	376.64
431.96	382.50
432.33	389.11
432.70	395.47
433.08	402.95
433.45	410.08
433.82	417.09
434.19	424.98
434.56	432.72
434.93	439.96
435.30	447.16
435.68	455.16
436.05	463.02
436.42	470.82
436.79	477.91
437.16	485.57
437.53	493.73
437.90	501.85
438.27	509.81
438.64	518.04
439.01	525.83
439.38	532.39
439.75	539.17
440.13	546.72
440.50	553.72
440.87	559.51
441.24	565.45
441.61	571.97
441.98	576.73
442.35	582.33
442.72	587.98
443.09	593.61
443.46	596.80
443.83	598.94
444.20	600.84
444.57	603.66
444.94	604.92
445.31	606.22
445.68	607.60
446.05	608.16
446.42	607.27
446.79	606.08
447.16	604.88
447.53	603.98
447.90	600.70
448.27	597.64
448.64	593.15
449.01	589.96
449.37	584.38
449.74	579.10
450.11	572.98
450.48	566.27
450.85	559.16
451.22	553.24
451.59	547.55
451.96	542.18
452.33	534.87
452.70	528.37
453.07	520.55
453.43	512.40
453.80	504.79
454.17	497.56
454.54	490.64
454.91	483.40
455.28	476.10
455.65	469.48
456.02	462.99
456.38	457.43
456.75	450.32
457.12	444.56
457.49	438.63
457.86	432.71
458.23	427.77
458.59	422.54
458.96	417.14
459.33	412.36
459.70	407.60
460.07	403.84
460.43	399.41
460.80	395.41
461.17	392.03
461.54	388.23
461.91	384.70
462.27	381.29
462.64	378.18
463.01	374.92
463.38	371.82
463.74	368.30
464.11	365.42
464.48	363.02
464.85	360.33
465.21	358.47
465.58	356.40
465.95	353.82
466.32	351.60
466.68	349.46
467.05	347.42
467.42	345.32
467.78	343.09
468.15	341.07
468.52	339.53
468.88	337.40
469.25	335.78
469.62	334.57
469.98	333.03
470.35	331.69
470.72	330.39
471.08	328.89
471.45	327.79
471.82	326.68
472.18	325.46
472.55	324.56
472.92	323.45
473.28	322.51
473.65	321.68
474.02	320.95
474.38	320.45
474.75	319.97
475.11	319.41
475.48	319.16
475.85	319.05
476.21	318.93
476.58	318.93
476.94	319.01
477.31	318.95
477.67	319.00
478.04	319.17
478.41	319.57
478.77	320.25
479.14	320.65
479.50	321.18
479.87	321.88
480.23	322.63
480.60	323.35
480.96	324.12
481.33	325.27
481.69	326.21
482.06	327.15
482.42	328.30
482.79	329.57
483.15	330.97
483.52	332.52
483.88	334.01
484.25	335.60
484.61	337.16
484.98	338.95
485.34	341.05
485.71	343.34
486.07	345.53
486.44	347.63
486.80	350.20
487.17	352.86
487.53	355.82
487.90	358.97
488.26	362.36
488.62	365.95
488.99	369.42
489.35	373.28
489.72	377.36
490.08	381.59
490.44	385.93
490.81	390.51
491.17	395.23
491.54	400.42
491.90	405.89
492.26	411.72
492.63	417.65
492.99	423.91
493.36	430.41
493.72	437.50
494.08	444.66
494.45	452.26
494.81	460.21
495.17	468.24
495.54	476.87
495.90	485.67
496.26	494.88
496.63	504.65
496.99	514.73
497.35	525.28
497.72	536.28
498.08	547.50
498.44	559.30
498.80	571.84
499.17	584.75
499.53	598.03
499.89	611.81
500.26	625.99
500.62	640.54
500.98	655.82
501.34	671.52
501.71	687.72
502.07	704.32
502.43	721.44
502.79	739.00
503.16	757.19
503.52	776.11
503.88	795.34
504.24	815.01
504.60	835.30
504.97	856.27
505.33	877.68
505.69	900.81
506.05	923.90
506.41	947.18
506.78	970.53
507.14	994.63
507.50	1019.39
507.86	1044.81
508.22	1070.94
508.59	1097.00
508.95	1123.96
509.31	1151.51
509.67	1179.65
510.03	1208.29
510.39	1237.95
510.75	1267.68
511.12	1297.73
511.48	1328.25
511.84	1359.48
512.20	1390.61
512.56	1422.66
512.92	1455.05
513.28	1487.02
513.64	1519.60
514.00	1552.53
514.37	1585.78
514.73	1619.51
515.09	1653.13
515.45	1686.77
515.81	1720.51
516.17	1754.78
516.53	1788.89
516.89	1823.51
517.25	1858.12
517.61	1892.74
517.97	1926.84
518.33	1961.44
518.69	1996.06
519.05	2031.09
519.41	2065.99
519.77	2101.42
520.13	2135.90
520.49	2170.44
520.85	2205.40
521.21	2240.56
521.57	2275.81
521.93	2310.41
522.29	2345.77
522.65	2381.60
523.01	2416.45
523.37	2450.37
523.73	2484.89
524.09	2519.10
524.45	2553.09
524.81	2587.07
525.17	2621.51
525.53	2655.64
525.89	2689.26
526.25	2722.74
526.61	2754.50
526.97	2786.84
527.33	2818.94
527.68	2851.42
528.04	2882.72
528.40	2912.63
528.76	2942.69
529.12	2973.90
529.48	3005.76
529.84	3036.05
530.20	3065.34
530.56	3095.34
530.91	3126.56
531.27	3156.42
531.63	3185.78
531.99	3214.94
532.35	3242.75
532.71	3269.92
533.07	3298.00
533.42	3324.82
533.78	3351.76
534.14	3378.33
534.50	3403.28
534.86	3428.85
535.21	3452.43
535.57	3478.00
535.93	3502.50
536.29	3526.15
536.65	3548.60
537.00	3569.68
537.36	3590.06
537.72	3610.61
538.08	3630.47
538.44	3650.10
538.79	3670.36
539.15	3690.17
539.51	3709.06
539.87	3729.08
540.22	3747.92
540.58	3766.83
540.94	3785.00
541.29	3801.25
541.65	3816.97
542.01	3833.24
542.37	3848.44
542.72	3864.44
543.08	3877.96
543.44	3893.21
543.79	3906.31
544.15	3918.31
544.51	3931.76
544.87	3945.57
545.22	3957.72
545.58	3969.15
545.94	3978.56
546.29	3986.51
546.65	3994.21
547.01	4001.85
547.36	4008.76
547.72	4015.46
548.07	4020.29
548.43	4025.59
548.79	4030.48
549.14	4035.93
549.50	4041.05
549.86	4044.89
550.21	4047.95
550.57	4051.83
550.92	4053.64
551.28	4055.82
551.64	4058.31
551.99	4060.21
552.35	4061.12
552.70	4062.28
553.06	4063.85
553.41	4065.18
553.77	4066.13
554.13	4066.56
554.48	4067.26
554.84	4067.90
555.19	4067.55
555.55	4066.18
555.90	4063.84
556.26	4062.27
556.61	4060.09
556.97	4056.63
557.32	4054.26
557.68	4050.57
558.03	4046.86
558.39	4043.55
558.74	4041.36
559.10	4038.92
559.45	4035.01
559.81	4031.65
560.16	4026.64
560.52	4022.11
560.87	4017.74
561.23	4012.18
561.58	4007.67
561.94	4001.47
562.29	3994.19
562.64	3988.24
563.00	3983.02
563.35	3978.52
563.71	3974.26
564.06	3969.33
564.42	3964.89
564.77	3960.03
565.12	3955.67
565.48	3949.89
565.83	3944.36
566.19	3939.25
566.54	3931.64
566.89	3924.46
567.25	3917.52
567.60	3911.46
567.96	3904.14
568.31	3896.72
568.66	3889.28
569.02	3880.64
569.37	3872.19
569.72	3864.97
570.08	3856.47
570.43	3847.35
570.78	3837.78
571.14	3827.57
571.49	3817.48
571.84	3808.09
572.20	3796.48
572.55	3786.19
572.90	3775.11
573.26	3763.69
573.61	3751.23
573.96	3739.44
574.31	3726.56
574.67	3713.25
575.02	3699.35
575.37	3686.17
575.72	3672.20
576.08	3660.49
576.43	3647.37
576.78	3635.05
577.13	3622.33
577.49	3609.65
577.84	3597.16
578.19	3585.51
578.54	3573.95
578.90	3562.69
579.25	3549.41
579.60	3536.01
579.95	3522.43
580.30	3510.46
580.66	3498.51
581.01	3485.11
581.36	3471.60
581.71	3459.20
582.06	3446.52
582.42	3434.17
582.77	3420.72
583.12	3407.65
583.47	3394.64
583.82	3382.44
584.17	3369.28
584.53	3356.70
584.88	3343.75
585.23	3330.58
585.58	3316.47
585.93	3302.00
586.28	3288.88
586.63	3275.91
586.98	3263.46
587.34	3251.40
587.69	3238.10
588.04	3224.66
588.39	3212.31
588.74	3199.40
589.09	3187.53
589.44	3174.72
589.79	3163.02
590.14	3151.71
590.49	3139.65
590.84	3126.98
591.19	3115.67
591.54	3103.42
591.89	3088.56
592.25	3075.14
592.60	3061.45
592.95	3047.84
593.30	3033.88
593.65	3019.50
594.00	3005.75
594.35	2994.44
594.70	2981.07
595.05	2968.45
595.40	2955.74
595.75	2941.99
596.10	2930.31
596.45	2917.68
596.80	2906.00
597.15	2893.90
597.50	2880.78
597.85	2868.63
598.19	2855.96
598.54	2843.29
598.89	2831.88
599.24	2822.23
599.59	2811.03
599.94	2801.14
600.29	2790.55
600.64	2780.03
600.99	2768.13
601.34	2757.23
601.69	2744.09
602.04	2731.66
602.39	2719.90
602.74	2708.61
603.08	2698.60
603.43	2688.02
603.78	2676.51
604.13	2665.29
604.48	2653.84
604.83	2644.65
605.18	2635.40
605.53	2624.16
605.87	2612.33
606.22	2601.38
606.57	2589.68
606.92	2578.56
607.27	2566.34
607.62	2554.81
607.96	2544.02
608.31	2534.26
608.66	2522.56
609.01	2511.22
609.36	2499.92
609.70	2487.69
610.05	2475.46
610.40	2463.19
610.75	2450.68
611.10	2439.56
611.44	2425.58
611.79	2412.30
612.14	2398.09
612.49	2383.71
612.83	2371.03
613.18	2357.93
613.53	2344.28
613.88	2330.19
614.22	2317.15
614.57	2304.17
614.92	2291.15
615.27	2277.65
615.61	2264.34
615.96	2251.76
616.31	2239.99
616.65	2228.92
617.00	2217.30
617.35	2205.35
617.70	2192.60
618.04	2179.35
618.39	2165.33
618.74	2153.66
619.08	2141.18
619.43	2128.88
619.78	2116.79
620.12	2104.93
620.47	2093.15
620.82	2080.10
621.16	2067.81
621.51	2055.55
621.85	2043.45
622.20	2030.85
622.55	2018.50
622.89	2005.59
623.24	1993.13
623.59	1980.09
623.93	1967.12
624.28	1954.95
624.62	1942.61
624.97	1930.84
625.32	1919.62
625.66	1908.83
626.01	1897.56
626.35	1886.72
626.70	1875.03
627.04	1864.15
627.39	1852.91
627.73	1841.73
628.08	1831.60
628.43	1820.07
628.77	1808.40
629.12	1796.92
629.46	1786.75
629.81	1775.94
630.15	1765.61
630.50	1754.78
630.84	1743.86
631.19	1732.95
631.53	1722.31
631.88	1710.88
632.22	1699.44
632.57	1688.71
632.91	1677.38
633.26	1666.26
633.60	1655.48
633.95	1645.43
634.29	1634.20
634.64	1623.75
634.98	1612.69
635.32	1602.10
635.67	1592.83
636.01	1583.08
636.36	1572.74
636.70	1562.68
637.05	1552.66
637.39	1542.74
637.73	1533.46
638.08	1524.52
638.42	1515.33
638.77	1505.43
639.11	1496.03
639.45	1486.88
639.80	1476.62
640.14	1466.63
640.49	1456.97
640.83	1446.88
641.17	1436.82
641.52	1427.21
641.86	1416.96
642.20	1407.41
642.55	1397.00
642.89	1386.61
643.23	1376.44
643.58	1367.34
643.92	1356.88
644.26	1346.87
644.61	1337.04
644.95	1326.92
645.29	1316.84
645.64	1306.57
645.98	1297.03
646.32	1287.60
646.66	1277.72
647.01	1268.63
647.35	1259.43
647.69	1249.33
648.04	1240.11
648.38	1230.82
648.72	1221.27
649.06	1212.01
649.41	1202.73
649.75	1193.60
650.09	1184.56
650.43	1175.51
650.78	1165.51
651.12	1156.12
651.46	1147.17
651.80	1138.33
652.14	1129.36
652.49	1120.17
652.83	1111.05
653.17	1101.36
653.51	1091.98
653.85	1083.28
654.20	1074.24
654.54	1065.23
654.88	1056.90
655.22	1047.70
655.56	1038.53
655.90	1029.75
656.25	1021.02
656.59	1012.46
656.93	1004.20
657.27	996.00
657.61	987.15
657.95	979.16
658.29	971.41
658.64	963.55
658.98	955.17
659.32	946.89
659.66	939.14
660.00	931.19
660.34	923.17
660.68	915.32
661.02	907.23
661.36	899.72
661.70	892.56
662.05	885.29
662.39	878.62
662.73	871.69
663.07	865.12
663.41	858.11
663.75	851.25
664.09	844.16
664.43	836.89
664.77	830.27
665.11	823.50
665.45	816.83
665.79	809.82
666.13	803.19
666.47	796.56
666.81	789.96
667.15	783.45
667.49	777.81
667.83	771.83
668.17	765.80
668.51	759.85
668.85	753.90
669.19	748.18
669.53	741.89
669.87	735.95
670.21	729.87
670.55	724.06
670.89	718.68
671.23	713.41
671.57	708.23
671.91	703.06
672.25	697.77
672.58	692.27
672.92	687.16
673.26	682.13
673.60	677.40
673.94	672.36
674.28	667.55
674.62	662.47
674.96	657.76
675.30	653.08
675.64	648.16
675.97	643.38
676.31	638.90
676.65	634.59
676.99	630.64
677.33	626.15
677.67	621.99
678.01	617.17
678.34	612.76
678.68	608.24
679.02	603.71
679.36	599.39
679.70	595.24
680.04	590.93
680.37	586.57
680.71	582.11
681.05	578.10
681.39	574.09
681.73	570.05
682.06	566.03
682.40	562.25
682.74	558.40
683.08	554.48
683.42	550.30
683.75	546.33
684.09	542.22
684.43	538.43
684.77	534.48
685.10	530.77
685.44	526.80
685.78	523.25
686.12	519.85
686.45	516.22
686.79	512.70
687.13	509.53
687.46	506.24
687.80	502.94
688.14	499.36
688.48	496.10
688.81	492.66
689.15	489.25
689.49	485.81
689.82	482.40
690.16	478.77
690.50	475.31
690.83	472.08
691.17	468.59
691.51	465.30
691.84	462.11
692.18	459.16
692.52	456.26
692.85	453.47
693.19	450.54
693.52	447.64
693.86	444.54
694.20	441.59
694.53	438.75
694.87	435.82
695.21	433.03
695.54	429.97
695.88	427.05
696.21	424.27
696.55	421.64
696.88	419.05
697.22	416.63
697.56	414.27
697.89	411.72
698.23	409.31
698.56	406.90
698.90	404.70
699.23	402.15
699.57	399.70
699.90	397.20
700.24	394.74
700.58	392.49
700.91	390.33
701.25	388.32
701.58	386.04
701.92	383.95
702.25	381.86
702.59	379.87
702.92	377.94
703.26	375.83
703.59	373.73
703.93	371.95
704.26	369.89
704.60	367.89
704.93	365.97
705.26	364.08
705.60	362.32
705.93	360.30
706.27	358.52
706.60	356.97
706.94	355.28
707.27	353.40
707.61	351.47
707.94	349.77
708.27	347.61
708.61	345.85
708.94	344.15
709.28	342.49
709.61	340.93
709.94	339.40
710.28	338.03
710.61	336.54
710.95	334.73
711.28	333.51
711.61	332.04
711.95	330.55
712.28	329.08
712.61	327.57
712.95	326.33
713.28	325.04
713.61	323.46
713.95	322.13
714.28	320.89
714.61	319.64
714.95	318.35
715.28	317.05
715.61	315.65
715.95	314.30
716.28	312.93
716.61	311.56
716.95	310.20
717.28	308.89
717.61	307.74
717.94	306.71
718.28	305.21
718.61	304.06
718.94	302.88
719.27	301.74
719.61	300.68
719.94	299.46
720.27	298.27
720.60	297.26
720.94	296.14
721.27	295.08
721.60	294.13
721.93	293.09
722.27	292.27
722.60	291.55
722.93	290.64
723.26	289.81
723.59	288.89
723.93	288.08
724.26	287.16
724.59	286.26
724.92	285.37
725.25	284.74
725.59	283.83
725.92	283.12
726.25	282.35
726.58	281.52
726.91	280.74
727.24	280.07
727.57	279.27
727.91	278.47
728.24	277.77
728.57	277.00
728.90	276.44
729.23	275.69
729.56	275.08
729.89	274.34
730.22	273.60
730.55	272.90
730.89	272.20
731.22	271.45
731.55	270.74
731.88	269.94
732.21	269.18
732.54	268.57
732.87	267.82
733.20	267.17
733.53	266.43
733.86	265.82
734.19	265.05
734.52	264.49
734.85	264.17
735.18	263.47
735.51	262.95
735.84	262.25
736.17	261.65
736.50	260.82
736.83	260.69
737.16	260.17
737.49	259.55
737.82	258.84
738.15	258.37
738.48	257.83
738.81	257.32
739.14	256.78
739.47	256.18
739.80	255.59
740.13	255.09
740.46	254.66
740.79	254.13
741.12	253.59
741.45	253.02
741.78	252.35
742.11	252.02
742.44	251.49
742.77	251.13
743.10	250.70
743.43	250.34
743.75	249.58
744.08	249.51
744.41	249.10
744.74	248.72
745.07	248.25
745.40	247.92
745.73	247.67
746.06	247.25
746.39	246.94
746.71	246.60
747.04	246.18
747.37	245.73
747.70	245.31
748.03	245.05
748.36	244.65
748.68	244.24
749.01	243.75
749.34	243.45
749.67	243.14
750.00	242.80
750.33	242.63
750.65	242.20
750.98	241.43
751.31	241.11
751.64	240.80
751.97	240.69
752.29	240.31
752.62	239.85
752.95	239.45
753.28	239.06
753.60	238.74
753.93	238.58
754.26	238.31
754.59	238.01
754.91	237.60
755.24	237.38
755.57	237.06
755.90	236.72
756.22	236.36
756.55	235.91
756.88	235.60
757.20	235.07
757.53	234.75
757.86	234.50
758.19	234.25
758.51	233.95
758.84	233.53
759.17	233.20
759.49	232.98
759.82	232.91
760.15	232.65
760.47	232.43
760.80	231.92
761.13	231.69
761.45	231.39
761.78	231.19
762.11	230.94
762.43	230.69
762.76	230.49
763.08	230.26
763.41	230.14
763.74	229.90
764.06	229.71
764.39	229.50
764.71	229.20
765.04	229.03
765.37	228.78
765.69	228.57
766.02	228.41
766.34	228.11
766.67	227.80
767.00	227.75
767.32	227.75
767.65	227.79
767.97	227.61
768.30	227.49
768.62	227.35
768.95	227.08
769.27	226.89
769.60	226.84
769.92	226.60
770.25	226.32
770.57	226.09
770.90	225.93
771.22	225.79
771.55	225.66
771.87	225.50
772.20	225.31
772.52	225.40
772.85	225.64
773.17	225.55
773.50	225.33
773.82	225.08
774.15	224.81
774.47	224.42
774.80	224.26
775.12	224.06
775.45	223.86
775.77	223.80
776.09	223.66
776.42	223.47
776.74	223.44
777.07	223.30
777.39	223.19
777.72	223.00
778.04	222.83
778.36	222.68
778.69	222.52
779.01	222.60
779.33	222.19
779.66	221.69
779.98	221.54
780.31	221.47
780.63	221.48
780.95	221.30
781.28	221.23
781.60	221.13
781.92	221.02
782.25	220.95
782.57	220.78
782.89	220.60
783.22	220.54
783.54	220.37
783.86	220.34
784.19	220.21
784.51	220.19
784.83	220.08
785.16	220.04
785.48	219.97
785.80	219.81
786.12	219.76
786.45	219.63
786.77	219.59
787.09	219.45
787.42	219.31
787.74	219.26
788.06	219.12
788.38	219.00
788.71	218.93
789.03	218.81
789.35	218.81
789.67	218.76
789.99	218.63
790.32	218.54
790.64	218.44
790.96	218.67
791.28	218.53
791.61	218.47
791.93	218.43
792.25	218.33
792.57	218.50
792.89	218.43
793.21	218.39
793.54	218.27
793.86	218.24
794.18	218.14
794.50	217.95
794.82	217.99
795.14	217.94
795.47	217.90
795.79	217.90
796.11	217.80
796.43	217.72
796.75	217.69
797.07	217.70
797.39	217.65
797.71	217.33
798.04	217.26
798.36	217.21
798.68	217.10
799.00	217.09
799.32	216.85
799.64	216.85
799.96	216.76
800.28	216.78
800.60	216.74
800.92	216.72
801.24	216.76
801.56	216.71
801.89	216.73
802.21	216.78
802.53	216.69
802.85	216.74
803.17	216.83
803.49	216.70
803.81	216.62
804.13	216.52
804.45	216.48
804.77	216.49
805.09	216.45
805.41	216.37
805.73	216.22
806.05	216.07
806.37	216.03
806.69	215.95
807.01	215.83
807.33	215.83
807.65	215.69
807.97	215.77
808.28	215.74
808.60	215.60
808.92	215.48
809.24	215.71
809.56	215.62
809.88	215.51
810.20	215.53
810.52	215.52
810.84	215.45
811.16	215.34
811.48	215.31
811.80	215.39
812.12	215.35
812.43	215.36
812.75	215.39
813.07	215.32
813.39	215.36
813.71	215.33
814.03	215.23
814.35	215.25
814.67	215.11
814.98	215.00
815.30	215.01
815.62	214.94
815.94	214.58
816.26	214.46
816.58	214.32
816.89	214.30
817.21	214.18
817.53	214.20
817.85	214.28
818.17	214.23
818.48	214.09
818.80	214.11
819.12	214.09
819.44	214.01
819.76	213.95
820.07	213.90
820.39	213.88
820.71	213.91
821.03	213.81
821.34	213.74
821.66	213.83
821.98	213.82
822.30	213.75
822.61	213.94
822.93	213.93
823.25	213.91
823.57	213.81
823.88	213.87
824.20	213.82
824.52	213.83
824.83	213.80
825.15	213.78
825.47	213.86
825.79	213.87
826.10	213.89
826.42	213.86
826.74	213.88
827.05	213.91
827.37	213.89
827.69	213.90
828.00	213.90
828.32	213.83
828.64	213.78
828.95	213.96
829.27	213.90
829.58	213.88
829.90	213.95
830.22	213.95
830.53	213.84
830.85	213.85
831.17	213.78
831.48	213.77
831.80	213.73
832.11	213.65
832.43	213.63
832.75	213.58
833.06	213.73
833.38	213.65
833.69	213.55
834.01	213.56
834.32	213.57
834.64	213.61
834.96	213.64
835.27	213.65
835.59	213.56
835.90	213.47
836.22	213.54
836.53	213.48
836.85	213.49
837.16	213.91
837.48	213.94
837.79	214.02
838.11	213.93
838.42	213.87
838.74	213.87
839.05	213.80
839.37	213.79
839.68	213.62
840.00	213.61
840.31	213.66
840.63	213.60
840.94	213.60
841.26	213.51
841.57	213.53
841.88	213.54
842.20	213.40
842.51	213.37
842.83	213.25
843.14	213.60
843.46	213.58
843.77	213.27
844.08	213.19
844.40	213.03
844.71	213.03
845.03	213.08
845.34	213.10
845.65	213.12
845.97	213.01
846.28	213.03
846.60	213.01
846.91	213.00
847.22	213.01
847.54	213.00
847.85	213.01
848.16	212.96
848.48	212.84
848.79	213.04
849.10	213.05
849.42	213.11
849.73	212.73
850.04	212.75
850.36	212.66
850.67	212.76
850.98	212.86
851.30	212.92
851.61	212.94
851.92	212.88
852.23	212.98
852.55	213.10
852.86	213.09
853.17	213.11
853.49	213.14
853.80	213.16
854.11	213.19
854.42	213.19
854.74	213.13
855.05	213.17
855.36	212.95
855.67	212.94
855.99	212.93
856.30	213.40
856.61	213.33
856.92	213.42
857.23	213.35
857.55	213.23
857.86	213.27
858.17	213.30
858.48	213.25
858.79	213.13
859.11	213.12
859.42	213.12
859.73	213.08
860.04	213.07
860.35	213.01
860.66	212.90
860.98	212.86
861.29	212.89
861.60	212.85
861.91	212.94
862.22	212.94
862.53	212.89
862.84	212.40
863.16	212.45
863.47	212.34
863.78	212.31
864.09	212.30
864.40	212.33
864.71	212.28
865.02	212.30
865.33	212.30
865.64	212.23
865.95	212.21
866.27	212.40
866.58	212.35
866.89	212.35
867.20	212.35
867.51	212.30
867.82	212.27
868.13	212.43
868.44	212.41
868.75	212.40
869.06	212.39
869.37	212.51
869.68	212.45
869.99	212.54
870.30	212.58
870.61	212.62
870.92	212.39
871.23	212.45
871.54	212.49
871.85	212.50
872.16	212.53
872.47	212.49
872.78	212.28
873.09	212.36
873.40	212.36
873.71	212.40
874.02	212.53
874.33	212.56
874.64	212.41
874.95	212.41
875.26	212.40
875.56	212.39
875.87	212.31
876.18	212.26
876.49	212.61
876.80	212.62
877.11	212.58
877.42	212.60
877.73	212.57
878.04	212.49
878.35	212.50
878.66	212.50
878.96	212.48
879.27	212.49
879.58	212.39
879.89	212.40
880.20	212.46
880.51	212.38
880.82	212.31
881.12	212.36
881.43	212.30
881.74	212.27
882.05	212.26
882.36	212.30
882.67	212.43
882.97	212.03
883.28	212.00
883.59	212.03
883.90	212.15
884.21	212.12
884.51	212.15
884.82	212.08
885.13	212.05
885.44	212.05
885.74	212.04
886.05	212.00
886.36	211.99
886.67	211.89
886.98	212.08
887.28	212.20
887.59	212.16
887.90	212.15
888.20	212.21
888.51	212.24
888.82	212.19
889.13	212.19
889.43	212.40
889.74	212.40
890.05	212.40
890.35	212.35
890.66	212.30
890.97	212.26
891.28	212.25
891.58	212.25
891.89	212.29
892.20	212.29
892.50	212.23
892.81	212.17
893.12	212.13
893.42	211.92
893.73	211.84
894.04	211.78
894.34	211.84
894.65	211.76
894.95	211.76
895.26	211.75
895.57	211.81
895.87	211.51
896.18	211.56
896.48	211.56
896.79	211.54
897.10	211.62
897.40	211.68
897.71	211.67
898.01	211.70
898.32	211.75
898.63	211.77
898.93	211.85
899.24	211.93
899.54	211.97
899.85	212.02
900.15	212.05
900.46	212.10
900.76	212.13
901.07	212.10
901.38	212.10
901.68	212.22
901.99	212.06
902.29	212.08
902.60	212.00
902.90	211.95
903.21	212.00
903.51	211.97
903.82	212.03
904.12	212.05
904.43	212.02
904.73	212.01
905.03	212.01
905.34	212.36
905.64	212.24
905.95	212.21
906.25	212.25
906.56	212.23
906.86	212.24
907.17	212.22
907.47	212.27
907.77	212.25
908.08	212.19
908.38	212.17
908.69	212.25
908.99	212.29
909.30	212.39
909.60	212.44
909.90	212.45
910.21	212.31
910.51	212.27
910.81	212.37
911.12	212.30
911.42	212.27
911.73	211.90
912.03	212.00
912.33	212.07
912.64	212.01
912.94	212.01
913.24	211.99
913.55	211.91
913.85	211.91
914.15	211.91
914.46	211.88
914.76	211.85
915.06	211.87
915.37	211.87
915.67	211.79
915.97	211.70
916.27	211.64
916.58	211.69
916.88	211.64
917.18	211.54
917.49	211.85
917.79	211.85
918.09	211.85
918.39	211.93
918.70	211.91
919.00	211.91
919.30	212.07
919.60	212.02
919.91	211.94
920.21	212.00
920.51	211.92
920.81	211.93
921.12	212.06
921.42	212.02
921.72	212.03
922.02	212.04
922.32	212.09
922.63	212.14
922.93	212.27
923.23	212.40
923.53	212.38
923.83	212.11
924.13	212.14
924.44	212.19
924.74	212.21
925.04	212.29
925.34	212.26
925.64	212.09
925.94	212.15
926.24	212.42
926.55	212.35
926.85	212.39
927.15	212.39
927.45	212.33
927.75	212.23
928.05	212.19
928.35	212.21
928.65	212.33
928.95	212.30
929.26	212.29
929.56	212.41
929.86	212.45
930.16	212.50
930.46	212.52
930.76	212.50
931.06	212.36
931.36	212.24
931.66	212.38
931.96	212.43
932.26	212.40
932.56	212.24
932.86	212.29
933.16	212.32
933.46	212.30
933.76	212.21
934.06	212.34
934.36	212.47
934.66	212.34
934.96	212.30
935.26	212.31
935.56	212.22
935.86	212.03
936.16	212.00
936.46	211.92
936.76	211.87
937.06	211.84
937.36	211.85
937.66	211.81
937.96	211.74
938.26	211.66
938.56	211.65
938.86	211.66
939.16	211.69
939.46	211.75
939.76	211.75
940.06	211.83
940.35	211.74
940.65	211.56
940.95	211.66
941.25	211.49
941.55	211.43
941.85	211.43
942.15	211.51
942.45	211.61
942.75	211.51
943.04	211.49
943.34	211.56
943.64	211.48
943.94	211.48
944.24	211.47
944.54	211.47
944.84	211.48
945.13	211.40
945.43	211.37
945.73	211.27
946.03	211.31
946.33	211.29
946.62	211.27
946.92	211.22
947.22	211.19
947.52	211.25
947.82	211.35
948.11	211.25
948.41	211.13
948.71	211.10
949.01	211.18
949.31	211.22
949.60	211.21
949.90	211.30
950.20	211.28
950.50	211.30
950.79	211.27
951.09	211.36
951.39	211.42
951.69	211.37
951.98	211.47
952.28	211.44
952.58	211.39
952.87	211.42
953.17	211.53
953.47	211.52
953.76	211.54
954.06	211.48
954.36	211.53
954.66	211.54
954.95	211.57
955.25	211.57
955.55	211.57
955.84	211.49
956.14	211.48
956.44	211.54
956.73	211.45
957.03	211.47
957.32	211.48
957.62	211.45
957.92	211.54
958.21	211.45
958.51	211.83
958.81	211.91
959.10	211.90
959.40	211.95
959.69	212.00
959.99	212.04
960.29	212.04
960.58	211.98
960.88	212.12
961.17	212.02
961.47	212.07
961.76	212.04
962.06	212.06
962.36	212.05
962.65	212.04
962.95	212.03
963.24	212.07
963.54	212.00
963.83	211.99
964.13	211.87
964.42	211.88
964.72	211.59
965.01	211.58
965.31	211.61
965.60	211.52
965.90	211.74
966.19	211.65
966.49	211.64
966.78	211.65
967.08	211.57
967.37	211.54
967.67	211.50
967.96	211.54
968.26	211.66
968.55	211.66
968.85	211.67
969.14	211.72
969.43	211.67
969.73	211.68
970.02	211.67
970.32	211.73
970.61	211.67
970.91	211.56
971.20	211.46
971.49	211.45
971.79	211.52
972.08	211.26
972.38	211.28
972.67	211.30
972.96	211.41
973.26	211.42
973.55	211.57
973.85	211.56
974.14	211.51
974.43	211.48
974.73	211.49
975.02	211.43
975.31	211.40
975.61	211.35
975.90	211.29
976.19	211.26
976.49	211.20
976.78	211.22
977.07	211.18
977.37	211.28
977.66	211.29
977.95	211.19
978.24	211.26
978.54	211.34
978.83	211.27
979.12	211.28
979.42	211.28
979.71	211.20
980.00	211.22
980.29	211.28
980.59	211.15
980.88	211.25
981.17	211.28
981.46	211.29
981.76	211.38
982.05	211.60
982.34	211.63
982.63	211.71
982.93	211.72
983.22	211.81
983.51	211.78
983.80	211.79
984.09	211.91
984.39	211.78
984.68	211.70
984.97	211.75
985.26	211.67
985.55	211.70
985.85	211.68
986.14	211.67
986.43	211.68
986.72	211.69
987.01	211.52
987.30	211.52
987.59	211.54
987.89	211.53
988.18	211.35
988.47	211.38
988.76	211.37
989.05	211.36
989.34	211.34
989.63	211.46
989.92	211.48
990.22	211.39
990.51	211.46
990.80	211.47
991.09	211.51
991.38	211.55
991.67	211.52
991.96	211.45
992.25	211.52
992.54	211.47
992.83	211.41
993.12	211.46
993.41	211.55
993.70	211.67
993.99	211.68
994.28	211.69
994.58	211.73
994.87	211.63
995.16	211.58
995.45	211.55
995.74	211.39
996.03	211.39
996.32	211.47
996.61	211.52
996.90	211.54
997.19	211.51
997.48	211.52
997.77	211.44
998.06	211.51
998.34	211.48
998.63	211.50
998.92	211.54
999.21	211.60
999.50	211.56
999.79	211.44
1000.08	211.36
1000.37	211.36
1000.66	211.25
1000.95	211.35
1001.24	211.41
1001.53	211.52
1001.82	211.52
1002.11	211.50
1002.40	211.54
1002.68	211.60
1002.97	211.80
1003.26	211.73
1003.55	211.66
1003.84	211.75
1004.13	211.87
1004.42	211.83
1004.71	211.81
1004.99	211.81
1005.28	211.87
1005.57	211.88
1005.86	211.83
1006.15	211.91
1006.44	211.96
1006.72	212.08
1007.01	212.05
1007.30	212.07
1007.59	211.99
1007.88	211.97
1008.17	211.94
1008.45	211.84
1008.74	211.71
1009.03	211.50
1009.32	211.50
1009.60	211.50
1009.89	211.42
1010.18	211.28
1010.47	211.25
1010.76	211.23
1011.04	211.22
1011.33	211.24
1011.62	211.25
1011.91	211.27
1012.19	211.23
1012.48	211.13
1012.77	211.09
1013.05	211.20
1013.34	211.15
1013.63	211.11
1013.92	211.11
1014.20	211.12
1014.49	211.17
1014.78	211.20
1015.06	211.08
1015.35	211.13
1015.64	211.17
1015.92	211.25
1016.21	211.24
1016.50	211.30
1016.78	211.33
1017.07	211.36
1017.36	211.28
1017.64	211.24
1017.93	211.36
1018.22	211.39
1018.50	211.39
1018.79	211.40
1019.08	211.24
1019.36	211.29
1019.65	211.31
1019.93	211.38
1020.22	211.38
1020.51	211.48
1020.79	211.44
1021.08	211.60
1021.36	210.15
1021.65	211.70
1021.94	211.20
1022.22	211.20
1022.51	210.85
1022.79	211.95
1023.08	211.20
1023.36	214.40
1023.65	210.55
>>>>>End Processed Spectral Data<<<<<
