SpectraSuite Data File
++++++++++++++++++++++++++++++++++++
Date: Mon Feb 25 17:13:44 EST 2013
User: group
Dark Spectrum Present: No
Reference Spectrum Present: No
Number of Sampled Component Spectra: 1
Spectrometers: USB2E7196
Integration Time (usec): 104000 (USB2E7196)
Spectra Averaged: 20 (USB2E7196)
Boxcar Smoothing: 10 (USB2E7196)
Correct for Electrical Dark: No (USB2E7196)
Strobe/Lamp Enabled: No (USB2E7196)
Correct for Detector Non-linearity: No (USB2E7196)
Correct for Stray Light: No (USB2E7196)
Number of Pixels in Processed Spectrum: 2048
>>>>>Begin Processed Spectral Data<<<<<
339.09	0.00
339.48	198.50
339.86	199.70
340.24	201.55
340.63	201.45
341.01	209.85
341.39	205.00
341.78	206.55
342.16	208.55
342.54	208.85
342.93	197.95
343.31	207.95
343.69	208.50
344.07	208.97
344.46	209.42
344.84	209.87
345.22	209.88
345.60	210.18
345.99	210.46
346.37	210.63
346.75	210.76
347.13	210.84
347.52	210.95
347.90	211.19
348.28	211.26
348.66	211.33
349.05	211.31
349.43	211.38
349.81	211.48
350.19	211.56
350.57	211.65
350.96	211.84
351.34	211.91
351.72	212.04
352.10	212.17
352.48	212.25
352.87	212.35
353.25	212.46
353.63	212.49
354.01	212.50
354.39	212.51
354.77	212.53
355.15	212.65
355.54	212.64
355.92	212.51
356.30	212.53
356.68	212.82
357.06	212.95
357.44	212.91
357.82	212.94
358.20	213.00
358.58	213.01
358.97	213.05
359.35	213.26
359.73	213.40
360.11	213.40
360.49	213.46
360.87	213.45
361.25	213.62
361.63	213.76
362.01	213.90
362.39	213.98
362.77	214.03
363.15	213.95
363.53	214.02
363.91	214.07
364.29	214.14
364.67	213.81
365.05	213.83
365.43	213.91
365.81	214.02
366.19	214.15
366.57	214.31
366.95	214.32
367.33	214.19
367.71	214.17
368.09	214.27
368.47	214.28
368.85	214.29
369.23	214.27
369.61	214.17
369.99	214.16
370.37	214.14
370.75	214.30
371.13	214.32
371.51	214.22
371.89	214.19
372.27	214.14
372.65	214.15
373.03	214.13
373.41	214.07
373.78	213.97
374.16	213.70
374.54	213.55
374.92	213.43
375.30	213.47
375.68	213.29
376.06	213.24
376.44	213.13
376.82	213.08
377.19	213.04
377.57	212.94
377.95	212.77
378.33	212.66
378.71	212.46
379.09	212.50
379.47	212.54
379.84	212.51
380.22	212.52
380.60	212.43
380.98	212.31
381.36	212.24
381.73	212.15
382.11	212.19
382.49	212.24
382.87	212.18
383.25	212.04
383.62	212.42
384.00	212.25
384.38	212.22
384.76	212.29
385.13	212.39
385.51	212.35
385.89	212.32
386.27	212.34
386.64	212.33
387.02	212.20
387.40	212.11
387.78	212.08
388.15	212.00
388.53	212.00
388.91	212.03
389.29	211.98
389.66	212.00
390.04	211.97
390.42	211.88
390.79	211.95
391.17	211.91
391.55	211.52
391.92	211.54
392.30	211.60
392.68	211.47
393.05	211.28
393.43	211.39
393.81	211.39
394.18	211.30
394.56	211.30
394.94	211.42
395.31	211.40
395.69	211.51
396.06	211.54
396.44	211.55
396.82	211.49
397.19	211.68
397.57	211.64
397.95	211.77
398.32	211.74
398.70	211.70
399.07	211.85
399.45	211.85
399.82	211.89
400.20	211.82
400.58	211.84
400.95	211.82
401.33	211.90
401.70	212.11
402.08	212.19
402.45	212.21
402.83	212.28
403.20	212.32
403.58	212.19
403.95	212.25
404.33	212.33
404.71	212.43
405.08	212.63
405.46	212.80
405.83	212.85
406.21	212.90
406.58	213.04
406.96	213.08
407.33	213.18
407.70	213.33
408.08	213.67
408.45	213.90
408.83	214.12
409.20	214.22
409.58	214.26
409.95	214.52
410.33	214.81
410.70	214.92
411.08	215.22
411.45	215.63
411.82	215.95
412.20	216.39
412.57	216.91
412.95	217.06
413.32	217.45
413.69	217.76
414.07	218.19
414.44	218.63
414.82	219.15
415.19	219.81
415.56	220.37
415.94	220.87
416.31	221.52
416.68	222.14
417.06	222.96
417.43	223.79
417.81	224.64
418.18	225.45
418.55	226.39
418.93	227.37
419.30	228.37
419.67	229.45
420.04	230.46
420.42	231.50
420.79	232.93
421.16	234.22
421.54	235.82
421.91	237.34
422.28	238.80
422.66	240.40
423.03	242.17
423.40	243.75
423.77	245.47
424.15	247.18
424.52	249.03
424.89	250.93
425.26	252.76
425.64	254.53
426.01	256.48
426.38	258.56
426.75	260.73
427.13	262.96
427.50	265.20
427.87	267.56
428.24	270.01
428.61	272.11
428.99	274.77
429.36	277.27
429.73	279.93
430.10	282.66
430.47	285.42
430.85	288.02
431.22	291.06
431.59	294.36
431.96	297.36
432.33	300.67
432.70	303.97
433.08	307.83
433.45	311.49
433.82	315.13
434.19	319.16
434.56	323.04
434.93	326.60
435.30	330.20
435.68	334.32
436.05	338.22
436.42	342.31
436.79	345.99
437.16	349.93
437.53	354.08
437.90	358.19
438.27	362.21
438.64	366.45
439.01	370.29
439.38	373.59
439.75	376.97
440.13	380.85
440.50	384.44
440.87	387.28
441.24	390.21
441.61	393.47
441.98	395.83
442.35	398.54
442.72	401.64
443.09	404.67
443.46	406.29
443.83	407.50
444.20	408.53
444.57	409.81
444.94	410.48
445.31	411.14
445.68	412.03
446.05	412.28
446.42	411.76
446.79	411.32
447.16	410.70
447.53	410.44
447.90	408.78
448.27	407.13
448.64	405.02
449.01	403.55
449.37	400.88
449.74	398.23
450.11	395.45
450.48	391.90
450.85	388.13
451.22	385.15
451.59	382.23
451.96	379.37
452.33	375.79
452.70	372.52
453.07	368.55
453.43	364.22
453.80	360.32
454.17	356.59
454.54	353.09
454.91	349.35
455.28	345.55
455.65	342.14
456.02	339.22
456.38	336.26
456.75	332.54
457.12	329.42
457.49	326.44
457.86	323.29
458.23	320.83
458.59	318.19
458.96	315.40
459.33	312.95
459.70	310.55
460.07	308.62
460.43	306.30
460.80	304.33
461.17	302.65
461.54	300.80
461.91	298.92
462.27	297.02
462.64	295.35
463.01	293.65
463.38	292.08
463.74	290.00
464.11	288.52
464.48	287.29
464.85	285.85
465.21	284.85
465.58	283.79
465.95	282.31
466.32	281.20
466.68	280.05
467.05	278.97
467.42	277.85
467.78	276.69
468.15	275.72
468.52	274.85
468.88	273.68
469.25	272.74
469.62	272.11
469.98	271.34
470.35	270.76
470.72	270.06
471.08	269.18
471.45	268.52
471.82	267.95
472.18	267.26
472.55	266.84
472.92	266.15
473.28	265.61
473.65	265.16
474.02	264.74
474.38	264.46
474.75	264.26
475.11	263.96
475.48	263.65
475.85	263.38
476.21	263.15
476.58	262.99
476.94	262.89
477.31	262.81
477.67	262.70
478.04	262.64
478.41	262.68
478.77	263.07
479.14	263.04
479.50	263.10
479.87	263.31
480.23	263.52
480.60	263.78
480.96	263.96
481.33	264.35
481.69	264.60
482.06	264.89
482.42	265.20
482.79	265.59
483.15	266.16
483.52	266.75
483.88	267.37
484.25	267.98
484.61	268.57
484.98	269.20
485.34	270.11
485.71	270.95
486.07	271.77
486.44	272.40
486.80	273.49
487.17	274.47
487.53	275.67
487.90	276.88
488.26	278.22
488.62	279.61
488.99	280.98
489.35	282.56
489.72	284.12
490.08	285.75
490.44	287.38
490.81	289.20
491.17	291.03
491.54	292.96
491.90	295.06
492.26	297.16
492.63	299.35
492.99	301.66
493.36	304.14
493.72	306.84
494.08	309.64
494.45	312.51
494.81	315.68
495.17	318.67
495.54	322.09
495.90	325.47
496.26	329.13
496.63	332.85
496.99	336.67
497.35	340.85
497.72	344.94
498.08	349.31
498.44	353.76
498.80	358.56
499.17	363.43
499.53	368.52
499.89	374.00
500.26	379.57
500.62	385.13
500.98	390.89
501.34	396.94
501.71	403.22
502.07	409.65
502.43	416.02
502.79	422.82
503.16	429.70
503.52	436.75
503.88	443.94
504.24	451.45
504.60	459.16
504.97	467.06
505.33	475.16
505.69	483.99
506.05	492.61
506.41	501.38
506.78	510.26
507.14	519.30
507.50	528.55
507.86	538.19
508.22	548.00
508.59	557.87
508.95	567.87
509.31	578.25
509.67	588.63
510.03	599.52
510.39	610.72
510.75	622.00
511.12	633.36
511.48	645.09
511.84	656.91
512.20	668.89
512.56	681.01
512.92	693.42
513.28	705.51
513.64	718.10
514.00	730.84
514.37	743.91
514.73	756.94
515.09	770.22
515.45	783.39
515.81	796.69
516.17	810.43
516.53	823.90
516.89	837.63
517.25	851.52
517.61	865.38
517.97	879.03
518.33	892.70
518.69	906.79
519.05	920.68
519.41	934.88
519.77	949.35
520.13	963.57
520.49	977.67
520.85	992.08
521.21	1006.64
521.57	1021.02
521.93	1035.04
522.29	1049.92
522.65	1064.54
523.01	1078.86
523.37	1093.00
523.73	1107.34
524.09	1121.81
524.45	1136.29
524.81	1150.60
525.17	1165.38
525.53	1179.79
525.89	1194.33
526.25	1208.75
526.61	1222.81
526.97	1236.82
527.33	1250.52
527.68	1264.61
528.04	1278.35
528.40	1291.56
528.76	1305.05
529.12	1318.79
529.48	1333.09
529.84	1346.39
530.20	1359.39
530.56	1372.98
530.91	1386.99
531.27	1400.21
531.63	1413.43
531.99	1426.25
532.35	1438.87
532.71	1451.10
533.07	1464.03
533.42	1476.47
533.78	1488.60
534.14	1500.57
534.50	1511.80
534.86	1523.77
535.21	1534.61
535.57	1546.31
535.93	1557.78
536.29	1568.56
536.65	1579.36
537.00	1589.38
537.36	1599.37
537.72	1609.53
538.08	1619.34
538.44	1628.70
538.79	1638.50
539.15	1647.85
539.51	1657.05
539.87	1666.74
540.22	1675.86
540.58	1684.73
540.94	1693.24
541.29	1701.14
541.65	1709.05
542.01	1717.38
542.37	1725.08
542.72	1732.96
543.08	1740.10
543.44	1747.75
543.79	1754.06
544.15	1760.62
544.51	1767.42
544.87	1774.02
545.22	1779.82
545.58	1785.27
545.94	1790.47
546.29	1795.12
546.65	1799.88
547.01	1804.40
547.36	1808.34
547.72	1812.30
548.07	1815.71
548.43	1819.14
548.79	1822.43
549.14	1825.58
549.50	1828.54
549.86	1830.87
550.21	1833.25
550.57	1835.82
550.92	1837.18
551.28	1839.41
551.64	1841.10
551.99	1842.81
552.35	1844.16
552.70	1845.89
553.06	1847.42
553.41	1848.93
553.77	1850.13
554.13	1850.80
554.48	1851.77
554.84	1852.95
555.19	1853.29
555.55	1853.57
555.90	1853.05
556.26	1853.12
556.61	1852.76
556.97	1851.99
557.32	1851.65
557.68	1850.43
558.03	1849.52
558.39	1848.88
558.74	1848.65
559.10	1848.27
559.45	1847.20
559.81	1846.50
560.16	1844.78
560.52	1843.43
560.87	1841.69
561.23	1839.89
561.58	1839.07
561.94	1836.67
562.29	1834.10
562.64	1832.29
563.00	1830.56
563.35	1829.55
563.71	1828.48
564.06	1827.02
564.42	1825.57
564.77	1824.08
565.12	1823.07
565.48	1821.44
565.83	1819.80
566.19	1817.98
566.54	1815.02
566.89	1812.39
567.25	1810.02
567.60	1808.03
567.96	1805.53
568.31	1803.16
568.66	1800.43
569.02	1797.08
569.37	1794.00
569.72	1791.24
570.08	1788.06
570.43	1784.56
570.78	1780.67
571.14	1776.40
571.49	1772.40
571.84	1768.95
572.20	1764.49
572.55	1760.36
572.90	1755.60
573.26	1750.64
573.61	1745.76
573.96	1741.20
574.31	1736.31
574.67	1730.75
575.02	1725.00
575.37	1719.55
575.72	1713.85
576.08	1708.88
576.43	1703.33
576.78	1698.70
577.13	1693.97
577.49	1688.88
577.84	1683.57
578.19	1678.86
578.54	1674.17
578.90	1669.74
579.25	1664.47
579.60	1659.02
579.95	1653.41
580.30	1648.69
580.66	1644.17
581.01	1638.86
581.36	1633.53
581.71	1628.16
582.06	1623.25
582.42	1618.24
582.77	1612.78
583.12	1607.48
583.47	1602.43
583.82	1597.70
584.17	1592.30
584.53	1587.14
584.88	1582.10
585.23	1576.84
585.58	1571.57
585.93	1565.94
586.28	1560.84
586.63	1555.29
586.98	1550.36
587.34	1545.84
587.69	1540.20
588.04	1535.02
588.39	1529.87
588.74	1524.45
589.09	1519.61
589.44	1514.22
589.79	1509.60
590.14	1505.20
590.49	1500.56
590.84	1495.20
591.19	1490.42
591.54	1485.18
591.89	1478.86
592.25	1473.43
592.60	1468.07
592.95	1462.27
593.30	1456.51
593.65	1450.45
594.00	1445.14
594.35	1441.22
594.70	1435.57
595.05	1430.63
595.40	1425.14
595.75	1419.54
596.10	1414.56
596.45	1409.65
596.80	1404.84
597.15	1399.87
597.50	1394.32
597.85	1389.40
598.19	1384.40
598.54	1379.21
598.89	1374.71
599.24	1370.93
599.59	1366.21
599.94	1362.17
600.29	1357.92
600.64	1353.75
600.99	1348.88
601.34	1344.36
601.69	1338.13
602.04	1333.17
602.39	1328.25
602.74	1323.53
603.08	1319.63
603.43	1315.53
603.78	1310.78
604.13	1306.06
604.48	1301.37
604.83	1297.64
605.18	1293.48
605.53	1288.71
605.87	1283.82
606.22	1279.36
606.57	1274.30
606.92	1269.53
607.27	1264.16
607.62	1259.04
607.96	1254.52
608.31	1250.53
608.66	1245.61
609.01	1240.59
609.36	1235.54
609.70	1230.58
610.05	1225.50
610.40	1220.13
610.75	1214.68
611.10	1209.80
611.44	1203.94
611.79	1197.93
612.14	1191.75
612.49	1185.67
612.83	1180.17
613.18	1174.70
613.53	1168.70
613.88	1162.66
614.22	1157.00
614.57	1151.23
614.92	1145.76
615.27	1139.65
615.61	1133.56
615.96	1127.99
616.31	1122.90
616.65	1117.99
617.00	1112.64
617.35	1107.22
617.70	1101.27
618.04	1095.36
618.39	1089.12
618.74	1083.96
619.08	1078.76
619.43	1073.28
619.78	1067.99
620.12	1062.50
620.47	1056.97
620.82	1051.17
621.16	1045.58
621.51	1040.11
621.85	1035.02
622.20	1029.26
622.55	1023.90
622.89	1018.40
623.24	1012.83
623.59	1007.05
623.93	1001.50
624.28	995.96
624.62	990.69
624.97	985.60
625.32	980.73
625.66	975.89
626.01	970.86
626.35	965.82
626.70	960.88
627.04	955.98
627.39	951.06
627.73	946.20
628.08	941.68
628.43	936.73
628.77	931.43
629.12	926.24
629.46	921.79
629.81	916.96
630.15	912.06
630.50	907.16
630.84	902.33
631.19	897.41
631.53	892.86
631.88	887.60
632.22	882.50
632.57	877.77
632.91	872.85
633.26	868.06
633.60	863.35
633.95	858.78
634.29	853.85
634.64	849.36
634.98	844.37
635.32	839.83
635.67	835.68
636.01	831.42
636.36	826.77
636.70	822.34
637.05	817.72
637.39	813.49
637.73	809.40
638.08	805.49
638.42	801.51
638.77	797.05
639.11	792.79
639.45	788.73
639.80	784.07
640.14	779.39
640.49	775.08
640.83	770.80
641.17	766.46
641.52	762.13
641.86	757.58
642.20	753.47
642.55	748.82
642.89	744.27
643.23	739.72
643.58	735.81
643.92	731.16
644.26	727.04
644.61	722.75
644.95	718.39
645.29	713.78
645.64	709.27
645.98	705.11
646.32	701.13
646.66	696.79
647.01	692.80
647.35	689.03
647.69	684.46
648.04	680.35
648.38	676.08
648.72	672.01
649.06	667.87
649.41	663.72
649.75	659.67
650.09	655.81
650.43	651.98
650.78	647.64
651.12	643.53
651.46	639.50
651.80	635.56
652.14	631.59
652.49	627.79
652.83	623.90
653.17	619.60
653.51	615.49
653.85	611.63
654.20	607.75
654.54	603.78
654.88	600.18
655.22	596.23
655.56	592.36
655.90	588.37
656.25	584.59
656.59	580.77
656.93	577.07
657.27	573.32
657.61	569.36
657.95	565.81
658.29	562.33
658.64	558.89
658.98	555.25
659.32	551.60
659.66	547.98
660.00	544.35
660.34	541.01
660.68	537.54
661.02	534.11
661.36	530.80
661.70	527.53
662.05	524.23
662.39	521.31
662.73	518.30
663.07	515.39
663.41	512.33
663.75	509.25
664.09	506.12
664.43	503.02
664.77	500.21
665.11	497.21
665.45	494.24
665.79	491.27
666.13	488.33
666.47	485.47
666.81	482.67
667.15	479.79
667.49	477.29
667.83	474.66
668.17	472.05
668.51	469.40
668.85	466.90
669.19	464.46
669.53	461.78
669.87	458.96
670.21	456.34
670.55	453.82
670.89	451.72
671.23	449.51
671.57	447.20
671.91	444.75
672.25	442.37
672.58	440.09
672.92	437.72
673.26	435.61
673.60	433.57
673.94	431.34
674.28	429.15
674.62	426.93
674.96	424.78
675.30	422.62
675.64	420.48
675.97	418.29
676.31	416.29
676.65	414.24
676.99	412.52
677.33	410.46
677.67	408.54
678.01	406.20
678.34	404.13
678.68	402.06
679.02	400.09
679.36	398.19
679.70	396.27
680.04	394.34
680.37	392.32
680.71	390.22
681.05	388.47
681.39	386.68
681.73	384.79
682.06	383.06
682.40	381.31
682.74	379.51
683.08	377.78
683.42	375.83
683.75	374.04
684.09	372.18
684.43	370.39
684.77	368.64
685.10	367.00
685.44	365.23
685.78	363.57
686.12	362.00
686.45	360.36
686.79	358.64
687.13	357.10
687.46	355.49
687.80	354.02
688.14	352.39
688.48	350.90
688.81	349.25
689.15	347.71
689.49	346.13
689.82	344.68
690.16	342.95
690.50	341.35
690.83	339.76
691.17	338.06
691.51	336.61
691.84	335.20
692.18	333.85
692.52	332.47
692.85	331.13
693.19	329.83
693.52	328.46
693.86	327.19
694.20	325.80
694.53	324.44
694.87	322.99
695.21	321.56
695.54	320.05
695.88	318.67
696.21	317.24
696.55	315.95
696.88	314.58
697.22	313.35
697.56	312.34
697.89	311.16
698.23	310.12
698.56	308.91
698.90	307.83
699.23	306.52
699.57	305.41
699.90	304.16
700.24	302.98
700.58	301.89
700.91	300.81
701.25	299.99
701.58	299.01
701.92	298.10
702.25	297.15
702.59	296.24
702.92	295.28
703.26	294.34
703.59	293.40
703.93	292.78
704.26	291.95
704.60	291.07
704.93	290.15
705.26	289.19
705.60	288.36
705.93	287.36
706.27	286.68
706.60	285.83
706.94	285.15
707.27	284.23
707.61	283.32
707.94	282.48
708.27	281.37
708.61	280.49
708.94	279.69
709.28	278.88
709.61	278.07
709.94	277.34
710.28	276.58
710.61	275.90
710.95	274.81
711.28	274.25
711.61	273.45
711.95	272.82
712.28	272.05
712.61	271.32
712.95	270.80
713.28	270.14
713.61	269.42
713.95	268.65
714.28	268.08
714.61	267.45
714.95	266.82
715.28	266.16
715.61	265.53
715.95	264.87
716.28	264.17
716.61	263.60
716.95	262.92
717.28	262.38
717.61	261.76
717.94	261.33
718.28	260.56
718.61	259.98
718.94	259.40
719.27	258.95
719.61	258.47
719.94	257.84
720.27	257.17
720.60	256.64
720.94	256.13
721.27	255.61
721.60	255.14
721.93	254.63
722.27	254.24
722.60	253.81
722.93	253.28
723.26	252.96
723.59	252.49
723.93	252.15
724.26	251.70
724.59	251.23
724.92	250.70
725.25	250.33
725.59	249.93
725.92	249.57
726.25	249.10
726.58	248.69
726.91	248.38
727.24	248.04
727.57	247.70
727.91	247.26
728.24	246.97
728.57	246.57
728.90	246.25
729.23	245.84
729.56	245.62
729.89	245.36
730.22	244.99
730.55	244.60
730.89	244.24
731.22	243.89
731.55	243.54
731.88	243.29
732.21	242.99
732.54	242.66
732.87	242.25
733.20	241.96
733.53	241.68
733.86	241.33
734.19	241.04
734.52	240.79
734.85	240.77
735.18	240.43
735.51	240.24
735.84	239.98
736.17	239.72
736.50	239.37
736.83	239.49
737.16	239.17
737.49	238.93
737.82	238.63
738.15	238.35
738.48	238.11
738.81	237.80
739.14	237.33
739.47	237.02
739.80	236.70
740.13	236.43
740.46	236.05
740.79	235.69
741.12	235.35
741.45	234.97
741.78	234.56
742.11	234.34
742.44	234.07
742.77	233.92
743.10	233.70
743.43	233.35
743.75	232.72
744.08	232.95
744.41	232.60
744.74	232.31
745.07	232.06
745.40	231.89
745.73	231.90
746.06	231.75
746.39	231.59
746.71	231.35
747.04	231.10
747.37	230.91
747.70	230.77
748.03	230.57
748.36	230.45
748.68	230.16
749.01	229.83
749.34	229.59
749.67	229.31
750.00	229.11
750.33	229.19
750.65	229.01
750.98	228.37
751.31	228.23
751.64	228.10
751.97	228.12
752.29	227.85
752.62	227.45
752.95	227.18
753.28	226.99
753.60	226.82
753.93	226.84
754.26	226.70
754.59	226.45
754.91	226.22
755.24	226.02
755.57	225.89
755.90	225.80
756.22	225.58
756.55	225.41
756.88	225.22
757.20	224.76
757.53	224.49
757.86	224.29
758.19	224.20
758.51	224.05
758.84	223.69
759.17	223.57
759.49	223.32
759.82	223.39
760.15	223.21
760.47	223.09
760.80	222.73
761.13	222.64
761.45	222.53
761.78	222.49
762.11	222.37
762.43	222.24
762.76	222.02
763.08	221.95
763.41	221.79
763.74	221.69
764.06	221.62
764.39	221.48
764.71	221.36
765.04	221.25
765.37	221.03
765.69	220.86
766.02	220.76
766.34	220.70
766.67	220.43
767.00	220.38
767.32	220.43
767.65	220.60
767.97	220.50
768.30	220.42
768.62	220.30
768.95	220.14
769.27	220.05
769.60	220.01
769.92	219.95
770.25	219.77
770.57	219.59
770.90	219.46
771.22	219.37
771.55	219.33
771.87	219.19
772.20	219.15
772.52	219.38
772.85	219.63
773.17	219.55
773.50	219.53
773.82	219.33
774.15	219.11
774.47	218.80
774.80	218.65
775.12	218.53
775.45	218.41
775.77	218.34
776.09	218.24
776.42	218.24
776.74	218.17
777.07	218.15
777.39	218.11
777.72	218.07
778.04	218.07
778.36	217.99
778.69	218.03
779.01	218.04
779.33	217.75
779.66	217.31
779.98	217.23
780.31	217.09
780.63	217.24
780.95	217.25
781.28	217.18
781.60	217.09
781.92	217.05
782.25	217.05
782.57	217.03
782.89	217.01
783.22	216.89
783.54	216.79
783.86	216.72
784.19	216.65
784.51	216.62
784.83	216.56
785.16	216.50
785.48	216.44
785.80	216.33
786.12	216.24
786.45	216.20
786.77	216.18
787.09	216.20
787.42	216.04
787.74	216.02
788.06	216.03
788.38	215.97
788.71	215.90
789.03	215.81
789.35	215.86
789.67	215.74
789.99	215.68
790.32	215.61
790.64	215.64
790.96	215.85
791.28	215.77
791.61	215.69
791.93	215.62
792.25	215.51
792.57	215.69
792.89	215.65
793.21	215.64
793.54	215.64
793.86	215.54
794.18	215.47
794.50	215.37
794.82	215.25
795.14	215.29
795.47	215.27
795.79	215.32
796.11	215.21
796.43	215.18
796.75	215.15
797.07	215.14
797.39	215.02
797.71	214.71
798.04	214.74
798.36	214.72
798.68	214.75
799.00	214.72
799.32	214.58
799.64	214.58
799.96	214.55
800.28	214.55
800.60	214.57
800.92	214.59
801.24	214.56
801.56	214.58
801.89	214.48
802.21	214.52
802.53	214.38
802.85	214.40
803.17	214.56
803.49	214.53
803.81	214.52
804.13	214.51
804.45	214.47
804.77	214.39
805.09	214.30
805.41	214.21
805.73	214.12
806.05	213.99
806.37	213.93
806.69	213.84
807.01	213.77
807.33	213.74
807.65	213.62
807.97	213.70
808.28	213.69
808.60	213.71
808.92	213.59
809.24	213.75
809.56	213.60
809.88	213.42
810.20	213.35
810.52	213.37
810.84	213.36
811.16	213.34
811.48	213.28
811.80	213.42
812.12	213.37
812.43	213.44
812.75	213.40
813.07	213.39
813.39	213.40
813.71	213.32
814.03	213.28
814.35	213.22
814.67	213.15
814.98	213.03
815.30	212.98
815.62	212.96
815.94	212.80
816.26	212.83
816.58	212.77
816.89	212.75
817.21	212.59
817.53	212.56
817.85	212.57
818.17	212.59
818.48	212.49
818.80	212.61
819.12	212.57
819.44	212.50
819.76	212.42
820.07	212.44
820.39	212.41
820.71	212.43
821.03	212.47
821.34	212.40
821.66	212.49
821.98	212.49
822.30	212.45
822.61	212.63
822.93	212.58
823.25	212.55
823.57	212.50
823.88	212.64
824.20	212.57
824.52	212.58
824.83	212.55
825.15	212.43
825.47	212.37
825.79	212.30
826.10	212.33
826.42	212.35
826.74	212.37
827.05	212.45
827.37	212.44
827.69	212.46
828.00	212.56
828.32	212.61
828.64	212.61
828.95	212.79
829.27	212.64
829.58	212.70
829.90	212.79
830.22	212.80
830.53	212.69
830.85	212.70
831.17	212.64
831.48	212.62
831.80	212.67
832.11	212.65
832.43	212.64
832.75	212.59
833.06	212.77
833.38	212.61
833.69	212.57
834.01	212.52
834.32	212.50
834.64	212.33
834.96	212.27
835.27	212.31
835.59	212.20
835.90	212.15
836.22	212.11
836.53	212.06
836.85	212.04
837.16	212.33
837.48	212.29
837.79	212.39
838.11	212.41
838.42	212.46
838.74	212.47
839.05	212.46
839.37	212.47
839.68	212.29
840.00	212.30
840.31	212.36
840.63	212.35
840.94	212.28
841.26	212.22
841.57	212.19
841.88	212.17
842.20	212.13
842.51	212.10
842.83	212.14
843.14	212.44
843.46	212.38
843.77	212.27
844.08	212.33
844.40	212.29
844.71	212.27
845.03	212.25
845.34	212.17
845.65	212.20
845.97	212.14
846.28	212.15
846.60	212.19
846.91	212.09
847.22	212.05
847.54	212.10
847.85	212.17
848.16	212.12
848.48	212.04
848.79	212.19
849.10	212.24
849.42	212.19
849.73	211.88
850.04	211.96
850.36	211.80
850.67	211.80
850.98	211.70
851.30	211.69
851.61	211.66
851.92	211.72
852.23	211.74
852.55	211.82
852.86	211.80
853.17	211.78
853.49	211.84
853.80	211.93
854.11	211.97
854.42	212.07
854.74	212.07
855.05	212.05
855.36	211.82
855.67	211.75
855.99	211.71
856.30	212.03
856.61	212.02
856.92	211.96
857.23	211.99
857.55	212.04
857.86	212.01
858.17	211.98
858.48	211.93
858.79	211.92
859.11	211.94
859.42	211.93
859.73	211.93
860.04	211.92
860.35	211.82
860.66	211.68
860.98	211.58
861.29	211.63
861.60	211.64
861.91	211.72
862.22	211.70
862.53	211.73
862.84	211.37
863.16	211.44
863.47	211.43
863.78	211.32
864.09	211.34
864.40	211.40
864.71	211.44
865.02	211.46
865.33	211.47
865.64	211.40
865.95	211.41
866.27	211.61
866.58	211.53
866.89	211.59
867.20	211.62
867.51	211.59
867.82	211.52
868.13	211.64
868.44	211.56
868.75	211.68
869.06	211.65
869.37	211.64
869.68	211.52
869.99	211.61
870.30	211.68
870.61	211.67
870.92	211.65
871.23	211.61
871.54	211.66
871.85	211.67
872.16	211.70
872.47	211.67
872.78	211.46
873.09	211.55
873.40	211.53
873.71	211.52
874.02	211.62
874.33	211.62
874.64	211.53
874.95	211.60
875.26	211.49
875.56	211.53
875.87	211.58
876.18	211.60
876.49	211.95
876.80	211.97
877.11	211.98
877.42	211.96
877.73	211.96
878.04	211.91
878.35	211.92
878.66	211.97
878.96	211.95
879.27	211.95
879.58	211.90
879.89	211.85
880.20	212.01
880.51	211.92
880.82	211.94
881.12	211.97
881.43	211.89
881.74	211.89
882.05	211.82
882.36	211.85
882.67	211.83
882.97	211.44
883.28	211.40
883.59	211.33
883.90	211.39
884.21	211.46
884.51	211.40
884.82	211.36
885.13	211.33
885.44	211.35
885.74	211.29
886.05	211.26
886.36	211.35
886.67	211.23
886.98	211.43
887.28	211.44
887.59	211.46
887.90	211.47
888.20	211.40
888.51	211.45
888.82	211.35
889.13	211.44
889.43	211.69
889.74	211.65
890.05	211.63
890.35	211.58
890.66	211.55
890.97	211.54
891.28	211.47
891.58	211.47
891.89	211.45
892.20	211.52
892.50	211.50
892.81	211.45
893.12	211.39
893.42	211.24
893.73	211.21
894.04	211.14
894.34	211.10
894.65	211.14
894.95	211.06
895.26	211.07
895.57	211.14
895.87	210.86
896.18	210.91
896.48	210.97
896.79	210.97
897.10	211.03
897.40	211.04
897.71	211.15
898.01	211.18
898.32	211.19
898.63	211.20
898.93	211.28
899.24	211.29
899.54	211.34
899.85	211.27
900.15	211.27
900.46	211.32
900.76	211.38
901.07	211.34
901.38	211.33
901.68	211.39
901.99	211.16
902.29	211.17
902.60	211.09
902.90	211.07
903.21	211.05
903.51	210.91
903.82	210.99
904.12	210.95
904.43	210.95
904.73	210.98
905.03	210.97
905.34	211.29
905.64	211.23
905.95	211.24
906.25	211.21
906.56	211.26
906.86	211.26
907.17	211.22
907.47	211.32
907.77	211.37
908.08	211.30
908.38	211.43
908.69	211.42
908.99	211.55
909.30	211.57
909.60	211.54
909.90	211.66
910.21	211.54
910.51	211.49
910.81	211.41
911.12	211.40
911.42	211.42
911.73	211.04
912.03	211.07
912.33	211.15
912.64	211.13
912.94	211.07
913.24	210.98
913.55	210.99
913.85	210.94
914.15	211.01
914.46	211.01
914.76	210.99
915.06	211.06
915.37	211.02
915.67	211.00
915.97	211.11
916.27	211.02
916.58	211.09
916.88	211.10
917.18	211.19
917.49	211.40
917.79	211.34
918.09	211.40
918.39	211.49
918.70	211.43
919.00	211.47
919.30	211.59
919.60	211.57
919.91	211.57
920.21	211.58
920.51	211.47
920.81	211.46
921.12	211.52
921.42	211.51
921.72	211.51
922.02	211.55
922.32	211.50
922.63	211.52
922.93	211.73
923.23	211.73
923.53	211.66
923.83	211.45
924.13	211.51
924.44	211.55
924.74	211.51
925.04	211.54
925.34	211.54
925.64	211.45
925.94	211.46
926.24	211.62
926.55	211.57
926.85	211.70
927.15	211.75
927.45	211.70
927.75	211.70
928.05	211.70
928.35	211.67
928.65	211.74
928.95	211.76
929.26	211.61
929.56	211.70
929.86	211.70
930.16	211.74
930.46	211.74
930.76	211.65
931.06	211.59
931.36	211.55
931.66	211.60
931.96	211.61
932.26	211.65
932.56	211.43
932.86	211.47
933.16	211.51
933.46	211.44
933.76	211.39
934.06	211.46
934.36	211.50
934.66	211.41
934.96	211.31
935.26	211.32
935.56	211.36
935.86	211.33
936.16	211.30
936.46	211.28
936.76	211.26
937.06	211.30
937.36	211.33
937.66	211.38
937.96	211.44
938.26	211.46
938.56	211.40
938.86	211.51
939.16	211.61
939.46	211.55
939.76	211.57
940.06	211.57
940.35	211.49
940.65	211.37
940.95	211.47
941.25	211.48
941.55	211.38
941.85	211.37
942.15	211.40
942.45	211.47
942.75	211.42
943.04	211.40
943.34	211.45
943.64	211.40
943.94	211.34
944.24	211.26
944.54	211.25
944.84	211.36
945.13	211.31
945.43	211.25
945.73	211.31
946.03	211.29
946.33	211.25
946.62	211.19
946.92	211.16
947.22	211.22
947.52	211.19
947.82	211.25
948.11	211.18
948.41	211.01
948.71	210.99
949.01	210.98
949.31	211.05
949.60	210.95
949.90	211.02
950.20	210.96
950.50	210.99
950.79	210.93
951.09	211.01
951.39	211.00
951.69	210.94
951.98	210.96
952.28	211.00
952.58	211.02
952.87	211.04
953.17	211.11
953.47	211.00
953.76	211.04
954.06	211.02
954.36	210.96
954.66	211.02
954.95	211.05
955.25	211.09
955.55	211.03
955.84	211.03
956.14	211.00
956.44	211.07
956.73	210.93
957.03	210.94
957.32	210.87
957.62	210.85
957.92	210.91
958.21	210.85
958.51	211.24
958.81	211.29
959.10	211.29
959.40	211.34
959.69	211.42
959.99	211.44
960.29	211.44
960.58	211.51
960.88	211.63
961.17	211.62
961.47	211.63
961.76	211.62
962.06	211.66
962.36	211.60
962.65	211.59
962.95	211.67
963.24	211.60
963.54	211.60
963.83	211.60
964.13	211.56
964.42	211.44
964.72	211.16
965.01	211.15
965.31	211.08
965.60	211.00
965.90	211.18
966.19	211.10
966.49	211.15
966.78	211.09
967.08	211.10
967.37	211.13
967.67	211.13
967.96	211.24
968.26	211.25
968.55	211.35
968.85	211.30
969.14	211.27
969.43	211.31
969.73	211.27
970.02	211.32
970.32	211.29
970.61	211.30
970.91	211.16
971.20	211.11
971.49	211.12
971.79	211.17
972.08	210.86
972.38	210.96
972.67	210.81
972.96	210.85
973.26	210.70
973.55	210.84
973.85	210.80
974.14	210.74
974.43	210.66
974.73	210.58
975.02	210.58
975.31	210.61
975.61	210.60
975.90	210.65
976.19	210.60
976.49	210.72
976.78	210.80
977.07	210.85
977.37	210.87
977.66	211.00
977.95	210.89
978.24	210.99
978.54	211.02
978.83	211.07
979.12	210.97
979.42	211.05
979.71	210.93
980.00	210.84
980.29	210.84
980.59	210.88
980.88	211.01
981.17	211.02
981.46	211.01
981.76	211.05
982.05	211.12
982.34	211.08
982.63	211.05
982.93	210.97
983.22	211.03
983.51	211.05
983.80	211.09
984.09	211.16
984.39	211.15
984.68	211.14
984.97	211.17
985.26	211.24
985.55	211.21
985.85	211.14
986.14	211.23
986.43	211.30
986.72	211.23
987.01	211.07
987.30	211.09
987.59	211.05
987.89	211.06
988.18	210.90
988.47	210.93
988.76	210.83
989.05	210.87
989.34	210.87
989.63	210.99
989.92	210.92
990.22	210.93
990.51	210.84
990.80	210.70
991.09	210.69
991.38	210.83
991.67	210.83
991.96	210.76
992.25	210.81
992.54	210.68
992.83	210.72
993.12	210.72
993.41	210.78
993.70	210.93
993.99	210.99
994.28	211.01
994.58	211.04
994.87	211.04
995.16	211.02
995.45	210.99
995.74	210.80
996.03	210.86
996.32	210.92
996.61	211.00
996.90	211.03
997.19	211.04
997.48	210.95
997.77	210.98
998.06	211.08
998.34	211.06
998.63	211.12
998.92	211.12
999.21	211.20
999.50	211.21
999.79	211.13
1000.08	211.03
1000.37	211.09
1000.66	211.07
1000.95	211.16
1001.24	211.18
1001.53	211.18
1001.82	211.18
1002.11	211.09
1002.40	211.13
1002.68	211.20
1002.97	211.45
1003.26	211.37
1003.55	211.32
1003.84	211.29
1004.13	211.36
1004.42	211.26
1004.71	211.16
1004.99	211.18
1005.28	211.29
1005.57	211.27
1005.86	211.19
1006.15	211.28
1006.44	211.22
1006.72	211.23
1007.01	211.18
1007.30	211.14
1007.59	211.11
1007.88	211.13
1008.17	211.11
1008.45	211.02
1008.74	210.92
1009.03	210.77
1009.32	210.85
1009.60	210.87
1009.89	210.83
1010.18	210.69
1010.47	210.72
1010.76	210.76
1011.04	210.76
1011.33	210.69
1011.62	210.69
1011.91	210.74
1012.19	210.66
1012.48	210.65
1012.77	210.69
1013.05	210.86
1013.34	210.89
1013.63	210.91
1013.92	210.98
1014.20	211.01
1014.49	211.04
1014.78	211.09
1015.06	210.99
1015.35	211.00
1015.64	211.02
1015.92	211.13
1016.21	211.17
1016.50	211.16
1016.78	211.23
1017.07	211.25
1017.36	211.21
1017.64	211.17
1017.93	211.17
1018.22	211.20
1018.50	211.22
1018.79	211.15
1019.08	210.97
1019.36	211.00
1019.65	210.98
1019.93	211.07
1020.22	211.14
1020.51	211.29
1020.79	211.28
1021.08	210.60
1021.36	210.60
1021.65	210.10
1021.94	210.40
1022.22	211.25
1022.51	211.10
1022.79	213.15
1023.08	212.85
1023.36	214.55
1023.65	211.25
>>>>>End Processed Spectral Data<<<<<
