SpectraSuite Data File
++++++++++++++++++++++++++++++++++++
Date: Mon Feb 25 17:10:24 EST 2013
User: group
Dark Spectrum Present: No
Reference Spectrum Present: No
Number of Sampled Component Spectra: 1
Spectrometers: USB2E7196
Integration Time (usec): 104000 (USB2E7196)
Spectra Averaged: 20 (USB2E7196)
Boxcar Smoothing: 10 (USB2E7196)
Correct for Electrical Dark: No (USB2E7196)
Strobe/Lamp Enabled: No (USB2E7196)
Correct for Detector Non-linearity: No (USB2E7196)
Correct for Stray Light: No (USB2E7196)
Number of Pixels in Processed Spectrum: 2048
>>>>>Begin Processed Spectral Data<<<<<
339.09	0.00
339.48	198.35
339.86	199.95
340.24	201.70
340.63	202.45
341.01	209.70
341.39	204.95
341.78	208.10
342.16	209.50
342.54	208.35
342.93	198.35
343.31	208.37
343.69	208.95
344.07	209.41
344.46	209.82
344.84	210.18
345.22	210.28
345.60	210.50
345.99	210.65
346.37	210.72
346.75	210.82
347.13	210.81
347.52	210.84
347.90	210.99
348.28	210.91
348.66	211.04
349.05	210.95
349.43	210.94
349.81	210.92
350.19	210.97
350.57	210.94
350.96	210.99
351.34	211.05
351.72	211.09
352.10	211.16
352.48	211.18
352.87	211.22
353.25	211.22
353.63	211.30
354.01	211.24
354.39	211.32
354.77	211.33
355.15	211.44
355.54	211.51
355.92	211.46
356.30	211.55
356.68	211.83
357.06	211.88
357.44	211.93
357.82	211.93
358.20	211.98
358.58	212.06
358.97	212.11
359.35	212.19
359.73	212.29
360.11	212.30
360.49	212.40
360.87	212.46
361.25	212.55
361.63	212.69
362.01	212.80
362.39	212.79
362.77	212.94
363.15	213.00
363.53	213.02
363.91	213.10
364.29	213.11
364.67	212.74
365.05	212.71
365.43	212.72
365.81	212.82
366.19	212.94
366.57	213.08
366.95	213.07
367.33	212.95
367.71	212.94
368.09	213.05
368.47	213.05
368.85	213.04
369.23	213.11
369.61	213.05
369.99	213.19
370.37	213.21
370.75	213.32
371.13	213.21
371.51	213.14
371.89	213.13
372.27	213.12
372.65	213.13
373.03	213.09
373.41	213.03
373.78	213.00
374.16	212.77
374.54	212.57
374.92	212.52
375.30	212.56
375.68	212.40
376.06	212.32
376.44	212.25
376.82	212.25
377.19	212.12
377.57	211.95
377.95	211.74
378.33	211.67
378.71	211.45
379.09	211.42
379.47	211.44
379.84	211.35
380.22	211.35
380.60	211.25
380.98	211.26
381.36	211.29
381.73	211.17
382.11	211.21
382.49	211.31
382.87	211.22
383.25	211.19
383.62	211.62
384.00	211.52
384.38	211.50
384.76	211.48
385.13	211.66
385.51	211.65
385.89	211.59
386.27	211.57
386.64	211.55
387.02	211.55
387.40	211.39
387.78	211.32
388.15	211.27
388.53	211.19
388.91	211.19
389.29	211.12
389.66	211.17
390.04	211.08
390.42	211.08
390.79	211.09
391.17	211.14
391.55	210.75
391.92	210.75
392.30	210.72
392.68	210.67
393.05	210.52
393.43	210.57
393.81	210.63
394.18	210.54
394.56	210.55
394.94	210.63
395.31	210.72
395.69	210.85
396.06	210.94
396.44	211.02
396.82	211.04
397.19	211.23
397.57	211.18
397.95	211.35
398.32	211.24
398.70	211.35
399.07	211.34
399.45	211.28
399.82	211.28
400.20	211.30
400.58	211.28
400.95	211.18
401.33	211.31
401.70	211.56
402.08	211.65
402.45	211.73
402.83	211.78
403.20	211.85
403.58	211.87
403.95	211.88
404.33	211.99
404.71	211.98
405.08	212.19
405.46	212.34
405.83	212.38
406.21	212.39
406.58	212.51
406.96	212.56
407.33	212.67
407.70	212.85
408.08	213.31
408.45	213.51
408.83	213.75
409.20	213.87
409.58	213.75
409.95	214.00
410.33	214.17
410.70	214.29
411.08	214.55
411.45	214.73
411.82	214.97
412.20	215.25
412.57	215.76
412.95	215.72
413.32	216.00
413.69	216.28
414.07	216.76
414.44	217.05
414.82	217.53
415.19	218.13
415.56	218.65
415.94	218.87
416.31	219.50
416.68	220.06
417.06	220.65
417.43	221.44
417.81	222.24
418.18	223.08
418.55	223.97
418.93	224.77
419.30	225.80
419.67	226.80
420.04	227.75
420.42	228.64
420.79	230.13
421.16	231.39
421.54	232.93
421.91	234.25
422.28	235.59
422.66	236.97
423.03	238.54
423.40	239.95
423.77	241.65
424.15	243.14
424.52	244.87
424.89	246.83
425.26	248.56
425.64	250.12
426.01	251.88
426.38	253.75
426.75	255.79
427.13	257.75
427.50	259.82
427.87	262.10
428.24	264.36
428.61	266.23
428.99	268.58
429.36	270.80
429.73	273.18
430.10	275.68
430.47	278.21
430.85	280.66
431.22	283.32
431.59	286.36
431.96	289.16
432.33	292.19
432.70	295.17
433.08	298.67
433.45	301.96
433.82	305.25
434.19	308.84
434.56	312.41
434.93	315.89
435.30	319.31
435.68	323.10
436.05	326.79
436.42	330.60
436.79	334.03
437.16	337.78
437.53	341.66
437.90	345.45
438.27	349.28
438.64	353.13
439.01	356.90
439.38	359.99
439.75	363.24
440.13	366.91
440.50	370.18
440.87	373.00
441.24	375.87
441.61	379.00
441.98	381.51
442.35	384.12
442.72	386.89
443.09	389.72
443.46	391.31
443.83	392.41
444.20	393.42
444.57	394.84
444.94	395.55
445.31	396.45
445.68	397.66
446.05	397.97
446.42	397.64
446.79	397.27
447.16	396.79
447.53	396.61
447.90	395.11
448.27	393.61
448.64	391.70
449.01	390.29
449.37	387.84
449.74	385.33
450.11	382.78
450.48	379.52
450.85	376.10
451.22	373.30
451.59	370.79
451.96	368.13
452.33	364.64
452.70	361.56
453.07	357.72
453.43	353.54
453.80	349.88
454.17	346.51
454.54	343.31
454.91	339.69
455.28	336.09
455.65	332.95
456.02	330.49
456.38	327.76
456.75	324.45
457.12	321.56
457.49	318.71
457.86	315.74
458.23	313.62
458.59	311.13
458.96	308.60
459.33	306.24
459.70	304.01
460.07	302.21
460.43	300.07
460.80	298.16
461.17	296.52
461.54	294.80
461.91	293.04
462.27	291.15
462.64	289.73
463.01	288.17
463.38	286.63
463.74	284.49
464.11	282.99
464.48	281.85
464.85	280.57
465.21	279.69
465.58	278.59
465.95	277.19
466.32	276.07
466.68	274.98
467.05	273.91
467.42	272.75
467.78	271.59
468.15	270.59
468.52	269.89
468.88	268.83
469.25	267.90
469.62	267.25
469.98	266.66
470.35	266.00
470.72	265.27
471.08	264.49
471.45	263.97
471.82	263.46
472.18	262.76
472.55	262.34
472.92	261.69
473.28	261.13
473.65	260.53
474.02	260.00
474.38	259.64
474.75	259.31
475.11	259.05
475.48	258.84
475.85	258.56
476.21	258.25
476.58	258.05
476.94	257.88
477.31	257.66
477.67	257.30
478.04	257.13
478.41	257.04
478.77	257.28
479.14	256.99
479.50	256.94
479.87	256.96
480.23	256.87
480.60	256.89
480.96	256.95
481.33	257.29
481.69	257.50
482.06	257.63
482.42	257.78
482.79	257.93
483.15	258.18
483.52	258.53
483.88	258.73
484.25	258.95
484.61	259.25
484.98	259.55
485.34	260.21
485.71	260.73
486.07	261.24
486.44	261.45
486.80	262.07
487.17	262.67
487.53	263.38
487.90	264.15
488.26	265.03
488.62	265.90
488.99	266.57
489.35	267.40
489.72	268.28
490.08	269.23
490.44	270.23
490.81	271.20
491.17	272.23
491.54	273.45
491.90	274.70
492.26	275.97
492.63	277.30
492.99	278.45
493.36	279.88
493.72	281.48
494.08	283.03
494.45	284.73
494.81	286.52
495.17	288.14
495.54	290.01
495.90	291.78
496.26	293.68
496.63	295.68
496.99	297.80
497.35	300.05
497.72	302.39
498.08	304.69
498.44	307.17
498.80	309.65
499.17	312.23
499.53	314.89
499.89	317.75
500.26	320.56
500.62	323.51
500.98	326.58
501.34	329.65
501.71	332.98
502.07	336.20
502.43	339.37
502.79	342.78
503.16	346.32
503.52	349.89
503.88	353.69
504.24	357.52
504.60	361.33
504.97	365.18
505.33	369.11
505.69	373.50
506.05	377.76
506.41	382.20
506.78	386.56
507.14	391.07
507.50	395.56
507.86	400.37
508.22	405.25
508.59	409.90
508.95	414.80
509.31	419.87
509.67	425.04
510.03	430.29
510.39	435.69
510.75	441.06
511.12	446.60
511.48	452.21
511.84	457.79
512.20	463.63
512.56	469.58
512.92	475.61
513.28	481.66
513.64	487.81
514.00	493.89
514.37	500.03
514.73	506.34
515.09	512.60
515.45	518.76
515.81	525.05
516.17	531.54
516.53	538.08
516.89	544.44
517.25	551.09
517.61	557.81
517.97	564.35
518.33	570.86
518.69	577.66
519.05	584.34
519.41	591.22
519.77	598.21
520.13	605.09
520.49	611.78
520.85	618.38
521.21	625.40
521.57	632.45
521.93	639.45
522.29	646.61
522.65	653.87
523.01	660.97
523.37	668.06
523.73	675.22
524.09	682.33
524.45	689.61
524.81	696.69
525.17	703.76
525.53	711.07
525.89	718.54
526.25	725.80
526.61	732.90
526.97	740.13
527.33	747.23
527.68	754.52
528.04	761.89
528.40	768.90
528.76	775.92
529.12	783.05
529.48	790.56
529.84	797.57
530.20	804.69
530.56	812.06
530.91	819.40
531.27	826.65
531.63	833.79
531.99	840.74
532.35	847.71
532.71	854.82
533.07	861.99
533.42	869.08
533.78	875.84
534.14	882.50
534.50	888.81
534.86	895.77
535.21	902.00
535.57	908.70
535.93	915.14
536.29	921.56
536.65	927.84
537.00	933.52
537.36	939.42
537.72	945.20
538.08	951.01
538.44	956.60
538.79	962.48
539.15	967.96
539.51	973.64
539.87	979.61
540.22	985.11
540.58	990.58
540.94	995.81
541.29	1000.71
541.65	1005.72
542.01	1011.12
542.37	1015.75
542.72	1020.79
543.08	1025.21
543.44	1030.50
543.79	1034.68
544.15	1039.30
544.51	1043.98
544.87	1048.59
545.22	1052.75
545.58	1056.65
545.94	1060.37
546.29	1063.76
546.65	1067.42
547.01	1070.87
547.36	1074.10
547.72	1077.24
548.07	1080.01
548.43	1082.73
548.79	1085.65
549.14	1088.45
549.50	1091.17
549.86	1093.40
550.21	1095.89
550.57	1098.27
550.92	1100.09
551.28	1102.17
551.64	1104.10
551.99	1106.31
552.35	1107.96
552.70	1110.02
553.06	1111.88
553.41	1114.03
553.77	1115.84
554.13	1117.36
554.48	1119.06
554.84	1120.35
555.19	1121.63
555.55	1122.93
555.90	1123.87
556.26	1125.00
556.61	1125.78
556.97	1126.14
557.32	1127.05
557.68	1127.11
558.03	1127.50
558.39	1127.94
558.74	1128.83
559.10	1129.33
559.45	1129.54
559.81	1130.03
560.16	1129.85
560.52	1130.18
560.87	1130.10
561.23	1130.10
561.58	1130.51
561.94	1130.22
562.29	1129.64
562.64	1129.61
563.00	1129.37
563.35	1129.58
563.71	1129.76
564.06	1130.01
564.42	1130.36
564.77	1130.35
565.12	1130.66
565.48	1131.06
565.83	1131.00
566.19	1130.90
566.54	1130.29
566.89	1129.85
567.25	1129.27
567.60	1129.31
567.96	1128.61
568.31	1128.22
568.66	1127.40
569.02	1126.19
569.37	1125.01
569.72	1124.45
570.08	1123.51
570.43	1122.41
570.78	1120.70
571.14	1119.00
571.49	1117.27
571.84	1115.90
572.20	1114.00
572.55	1112.47
572.90	1110.27
573.26	1108.31
573.61	1106.16
573.96	1104.20
574.31	1101.90
574.67	1099.38
575.02	1096.47
575.37	1093.96
575.72	1091.03
576.08	1088.70
576.43	1086.33
576.78	1084.03
577.13	1081.78
577.49	1079.01
577.84	1076.60
578.19	1074.68
578.54	1072.57
578.90	1070.49
579.25	1067.98
579.60	1065.62
579.95	1063.05
580.30	1060.87
580.66	1058.80
581.01	1056.14
581.36	1053.51
581.71	1051.14
582.06	1049.12
582.42	1047.03
582.77	1044.57
583.12	1042.38
583.47	1040.21
583.82	1037.90
584.17	1035.55
584.53	1033.32
584.88	1031.20
585.23	1028.93
585.58	1026.57
585.93	1024.07
586.28	1021.90
586.63	1019.43
586.98	1017.08
587.34	1014.88
587.69	1012.40
588.04	1009.62
588.39	1007.47
588.74	1004.95
589.09	1002.83
589.44	1000.29
589.79	997.88
590.14	995.41
590.49	992.87
590.84	990.16
591.19	987.78
591.54	985.30
591.89	982.05
592.25	979.43
592.60	976.34
592.95	973.36
593.30	970.09
593.65	966.86
594.00	963.75
594.35	962.10
594.70	959.31
595.05	956.59
595.40	953.80
595.75	950.81
596.10	948.26
596.45	945.40
596.80	943.07
597.15	940.54
597.50	937.97
597.85	935.39
598.19	932.77
598.54	930.22
598.89	927.80
599.24	925.85
599.59	923.39
599.94	921.41
600.29	919.14
600.64	916.91
600.99	914.33
601.34	912.14
601.69	908.74
602.04	905.98
602.39	903.23
602.74	900.85
603.08	898.72
603.43	896.89
603.78	894.40
604.13	891.65
604.48	889.19
604.83	887.40
605.18	885.52
605.53	883.17
605.87	880.68
606.22	878.44
606.57	875.92
606.92	873.33
607.27	870.58
607.62	868.00
607.96	865.87
608.31	863.85
608.66	861.12
609.01	858.31
609.36	855.53
609.70	852.79
610.05	850.05
610.40	847.14
610.75	843.87
611.10	841.27
611.44	838.03
611.79	834.74
612.14	831.21
612.49	827.67
612.83	824.63
613.18	821.14
613.53	817.69
613.88	814.27
614.22	811.26
614.57	807.94
614.92	804.67
615.27	801.20
615.61	797.80
615.96	794.75
616.31	791.73
616.65	789.17
617.00	786.12
617.35	782.90
617.70	779.59
618.04	776.15
618.39	772.47
618.74	769.54
619.08	766.36
619.43	763.18
619.78	759.91
620.12	756.64
620.47	753.80
620.82	750.41
621.16	746.90
621.51	743.49
621.85	740.45
622.20	737.03
622.55	733.64
622.89	730.26
623.24	726.95
623.59	723.47
623.93	720.05
624.28	716.88
624.62	714.02
624.97	711.04
625.32	708.10
625.66	705.14
626.01	701.96
626.35	699.02
626.70	695.77
627.04	692.92
627.39	689.96
627.73	686.77
628.08	683.98
628.43	681.00
628.77	677.90
629.12	674.92
629.46	672.28
629.81	669.50
630.15	666.54
630.50	663.58
630.84	660.70
631.19	657.70
631.53	654.69
631.88	651.24
632.22	648.10
632.57	645.22
632.91	642.41
633.26	639.55
633.60	636.53
633.95	633.81
634.29	630.70
634.64	627.83
634.98	624.93
635.32	621.99
635.67	619.52
636.01	616.92
636.36	614.04
636.70	611.25
637.05	608.59
637.39	605.97
637.73	603.40
638.08	600.97
638.42	598.39
638.77	596.08
639.11	593.49
639.45	590.74
639.80	587.94
640.14	584.93
640.49	582.28
640.83	579.66
641.17	577.03
641.52	574.40
641.86	571.61
642.20	569.07
642.55	566.37
642.89	563.40
643.23	560.57
643.58	558.14
643.92	555.27
644.26	552.50
644.61	549.92
644.95	547.19
645.29	544.37
645.64	541.60
645.98	538.83
646.32	536.48
646.66	533.88
647.01	531.28
647.35	528.92
647.69	526.26
648.04	523.84
648.38	521.29
648.72	518.78
649.06	516.29
649.41	513.64
649.75	511.14
650.09	508.87
650.43	506.40
650.78	503.71
651.12	501.17
651.46	498.75
651.80	496.27
652.14	493.69
652.49	491.25
652.83	488.73
653.17	486.12
653.51	483.41
653.85	481.18
654.20	478.76
654.54	476.14
654.88	473.65
655.22	471.19
655.56	468.68
655.90	466.17
656.25	463.73
656.59	461.30
656.93	458.90
657.27	456.53
657.61	454.06
657.95	451.79
658.29	449.44
658.64	447.19
658.98	444.77
659.32	442.43
659.66	440.22
660.00	437.93
660.34	435.67
660.68	433.43
661.02	431.06
661.36	428.94
661.70	426.89
662.05	424.85
662.39	423.00
662.73	421.11
663.07	419.33
663.41	417.30
663.75	415.28
664.09	413.24
664.43	411.14
664.77	409.30
665.11	407.24
665.45	405.48
665.79	403.57
666.13	401.66
666.47	399.95
666.81	398.04
667.15	396.23
667.49	394.51
667.83	392.91
668.17	391.25
668.51	389.46
668.85	387.82
669.19	386.31
669.53	384.39
669.87	382.56
670.21	380.70
670.55	379.17
670.89	377.84
671.23	376.43
671.57	374.97
671.91	373.32
672.25	371.75
672.58	370.30
672.92	368.70
673.26	367.29
673.60	365.81
673.94	364.36
674.28	362.95
674.62	361.57
674.96	360.15
675.30	358.78
675.64	357.44
675.97	356.07
676.31	354.59
676.65	353.26
676.99	352.21
677.33	350.95
677.67	349.54
678.01	347.96
678.34	346.57
678.68	345.18
679.02	343.83
679.36	342.63
679.70	341.28
680.04	340.05
680.37	338.73
680.71	337.44
681.05	336.32
681.39	335.06
681.73	333.86
682.06	332.56
682.40	331.32
682.74	330.13
683.08	329.04
683.42	327.88
683.75	326.79
684.09	325.40
684.43	324.24
684.77	323.07
685.10	322.06
685.44	320.90
685.78	319.72
686.12	318.69
686.45	317.52
686.79	316.43
687.13	315.41
687.46	314.49
687.80	313.56
688.14	312.29
688.48	311.32
688.81	310.29
689.15	309.31
689.49	308.21
689.82	307.14
690.16	305.87
690.50	304.76
690.83	303.57
691.17	302.47
691.51	301.50
691.84	300.54
692.18	299.48
692.52	298.57
692.85	297.83
693.19	296.96
693.52	296.00
693.86	294.97
694.20	294.00
694.53	293.05
694.87	292.08
695.21	291.23
695.54	290.18
695.88	289.10
696.21	288.21
696.55	287.40
696.88	286.50
697.22	285.77
697.56	284.94
697.89	284.19
698.23	283.45
698.56	282.56
698.90	281.76
699.23	281.00
699.57	280.22
699.90	279.27
700.24	278.46
700.58	277.76
700.91	277.13
701.25	276.68
701.58	275.92
701.92	275.30
702.25	274.61
702.59	273.91
702.92	273.31
703.26	272.56
703.59	271.91
703.93	271.57
704.26	270.88
704.60	270.27
704.93	269.60
705.26	268.91
705.60	268.32
705.93	267.69
706.27	267.12
706.60	266.61
706.94	266.18
707.27	265.47
707.61	264.90
707.94	264.15
708.27	263.26
708.61	262.56
708.94	261.86
709.28	261.26
709.61	260.75
709.94	260.26
710.28	259.79
710.61	259.20
710.95	258.32
711.28	258.00
711.61	257.47
711.95	256.99
712.28	256.55
712.61	256.01
712.95	255.62
713.28	255.24
713.61	254.62
713.95	254.03
714.28	253.69
714.61	253.17
714.95	252.76
715.28	252.29
715.61	251.90
715.95	251.50
716.28	251.06
716.61	250.63
716.95	250.16
717.28	249.61
717.61	249.24
717.94	248.88
718.28	248.25
718.61	247.82
718.94	247.39
719.27	246.92
719.61	246.60
719.94	246.07
720.27	245.52
720.60	245.17
720.94	244.80
721.27	244.34
721.60	243.99
721.93	243.67
722.27	243.42
722.60	243.16
722.93	242.74
723.26	242.45
723.59	242.08
723.93	241.77
724.26	241.57
724.59	241.25
724.92	240.95
725.25	240.72
725.59	240.50
725.92	240.24
726.25	240.00
726.58	239.72
726.91	239.52
727.24	239.30
727.57	239.03
727.91	238.61
728.24	238.42
728.57	238.21
728.90	237.99
729.23	237.69
729.56	237.55
729.89	237.30
730.22	237.04
730.55	236.83
730.89	236.59
731.22	236.31
731.55	236.03
731.88	235.78
732.21	235.49
732.54	235.15
732.87	234.92
733.20	234.70
733.53	234.44
733.86	234.24
734.19	233.88
734.52	233.62
734.85	233.74
735.18	233.46
735.51	233.32
735.84	233.18
736.17	232.94
736.50	232.54
736.83	232.70
737.16	232.48
737.49	232.29
737.82	231.97
738.15	231.77
738.48	231.54
738.81	231.28
739.14	231.08
739.47	230.86
739.80	230.62
740.13	230.42
740.46	230.20
740.79	229.94
741.12	229.79
741.45	229.57
741.78	229.19
742.11	229.11
742.44	228.84
742.77	228.58
743.10	228.36
743.43	228.17
743.75	227.62
744.08	227.88
744.41	227.60
744.74	227.45
745.07	227.20
745.40	227.06
745.73	227.10
746.06	226.87
746.39	226.75
746.71	226.57
747.04	226.33
747.37	226.14
747.70	226.03
748.03	225.84
748.36	225.73
748.68	225.52
749.01	225.16
749.34	225.01
749.67	224.91
750.00	224.85
750.33	224.95
750.65	224.85
750.98	224.28
751.31	224.20
751.64	224.05
751.97	224.10
752.29	223.90
752.62	223.63
752.95	223.45
753.28	223.28
753.60	223.13
753.93	223.12
754.26	223.00
754.59	222.78
754.91	222.72
755.24	222.58
755.57	222.42
755.90	222.36
756.22	222.16
756.55	222.00
756.88	221.80
757.20	221.45
757.53	221.26
757.86	221.12
758.19	220.97
758.51	220.92
758.84	220.62
759.17	220.54
759.49	220.43
759.82	220.52
760.15	220.43
760.47	220.30
760.80	220.14
761.13	220.10
761.45	219.93
761.78	219.79
762.11	219.73
762.43	219.68
762.76	219.63
763.08	219.61
763.41	219.52
763.74	219.36
764.06	219.22
764.39	219.11
764.71	219.01
765.04	218.88
765.37	218.69
765.69	218.58
766.02	218.47
766.34	218.39
766.67	218.19
767.00	218.22
767.32	218.40
767.65	218.48
767.97	218.38
768.30	218.34
768.62	218.25
768.95	218.11
769.27	218.07
769.60	218.01
769.92	217.87
770.25	217.69
770.57	217.61
770.90	217.61
771.22	217.50
771.55	217.45
771.87	217.33
772.20	217.29
772.52	217.54
772.85	217.89
773.17	217.87
773.50	217.78
773.82	217.60
774.15	217.34
774.47	217.05
774.80	216.97
775.12	217.00
775.45	216.92
775.77	216.85
776.09	216.82
776.42	216.73
776.74	216.81
777.07	216.82
777.39	216.83
777.72	216.79
778.04	216.82
778.36	216.77
778.69	216.91
779.01	216.93
779.33	216.63
779.66	216.24
779.98	216.09
780.31	216.10
780.63	216.19
780.95	216.16
781.28	216.18
781.60	216.08
781.92	215.99
782.25	216.01
782.57	215.97
782.89	215.89
783.22	215.89
783.54	215.67
783.86	215.66
784.19	215.60
784.51	215.63
784.83	215.53
785.16	215.48
785.48	215.42
785.80	215.39
786.12	215.41
786.45	215.30
786.77	215.29
787.09	215.25
787.42	215.13
787.74	215.14
788.06	215.07
788.38	215.00
788.71	214.92
789.03	214.91
789.35	214.94
789.67	214.84
789.99	214.76
790.32	214.74
790.64	214.72
790.96	214.96
791.28	214.75
791.61	214.72
791.93	214.76
792.25	214.66
792.57	214.80
792.89	214.70
793.21	214.70
793.54	214.58
793.86	214.47
794.18	214.45
794.50	214.29
794.82	214.29
795.14	214.29
795.47	214.27
795.79	214.21
796.11	214.13
796.43	214.12
796.75	214.07
797.07	214.10
797.39	213.97
797.71	213.75
798.04	213.75
798.36	213.72
798.68	213.65
799.00	213.69
799.32	213.53
799.64	213.49
799.96	213.48
800.28	213.51
800.60	213.52
800.92	213.52
801.24	213.52
801.56	213.47
801.89	213.42
802.21	213.50
802.53	213.39
802.85	213.40
803.17	213.59
803.49	213.51
803.81	213.39
804.13	213.41
804.45	213.34
804.77	213.32
805.09	213.29
805.41	213.25
805.73	213.15
806.05	213.07
806.37	213.03
806.69	212.99
807.01	212.99
807.33	212.98
807.65	212.84
807.97	213.00
808.28	213.03
808.60	213.00
808.92	212.93
809.24	213.15
809.56	213.09
809.88	212.85
810.20	212.88
810.52	212.97
810.84	212.90
811.16	212.78
811.48	212.77
811.80	212.87
812.12	212.83
812.43	212.93
812.75	212.84
813.07	212.84
813.39	212.77
813.71	212.71
814.03	212.64
814.35	212.67
814.67	212.50
814.98	212.38
815.30	212.38
815.62	212.31
815.94	212.07
816.26	212.04
816.58	211.98
816.89	211.99
817.21	211.90
817.53	211.93
817.85	211.98
818.17	211.94
818.48	211.81
818.80	211.86
819.12	211.74
819.44	211.74
819.76	211.67
820.07	211.74
820.39	211.75
820.71	211.75
821.03	211.73
821.34	211.74
821.66	211.83
821.98	211.80
822.30	211.84
822.61	212.02
822.93	211.95
823.25	211.99
823.57	211.97
823.88	212.06
824.20	212.10
824.52	212.26
824.83	212.26
825.15	212.30
825.47	212.30
825.79	212.37
826.10	212.40
826.42	212.37
826.74	212.40
827.05	212.40
827.37	212.42
827.69	212.37
828.00	212.37
828.32	212.33
828.64	212.34
828.95	212.41
829.27	212.33
829.58	212.42
829.90	212.54
830.22	212.53
830.53	212.46
830.85	212.35
831.17	212.18
831.48	212.18
831.80	212.11
832.11	212.06
832.43	211.96
832.75	211.93
833.06	212.19
833.38	212.05
833.69	212.01
834.01	212.05
834.32	212.07
834.64	212.08
834.96	212.11
835.27	212.20
835.59	212.08
835.90	212.01
836.22	212.02
836.53	211.88
836.85	211.86
837.16	212.16
837.48	212.20
837.79	212.33
838.11	212.30
838.42	212.35
838.74	212.36
839.05	212.32
839.37	212.31
839.68	212.07
840.00	212.09
840.31	212.20
840.63	212.20
840.94	212.13
841.26	212.08
841.57	212.05
841.88	211.94
842.20	212.00
842.51	211.95
842.83	211.94
843.14	212.28
843.46	212.31
843.77	212.13
844.08	212.09
844.40	211.96
844.71	212.01
845.03	211.98
845.34	211.96
845.65	211.99
845.97	211.95
846.28	211.95
846.60	211.88
846.91	211.81
847.22	211.74
847.54	211.83
847.85	211.81
848.16	211.79
848.48	211.76
848.79	211.86
849.10	211.87
849.42	211.89
849.73	211.52
850.04	211.50
850.36	211.37
850.67	211.46
850.98	211.45
851.30	211.46
851.61	211.49
851.92	211.52
852.23	211.57
852.55	211.61
852.86	211.58
853.17	211.71
853.49	211.73
853.80	211.80
854.11	211.81
854.42	211.89
854.74	211.86
855.05	211.88
855.36	211.74
855.67	211.76
855.99	211.72
856.30	212.16
856.61	212.18
856.92	212.15
857.23	212.15
857.55	212.12
857.86	212.05
858.17	212.11
858.48	212.05
858.79	212.02
859.11	212.06
859.42	212.11
859.73	212.01
860.04	212.01
860.35	211.90
860.66	211.79
860.98	211.71
861.29	211.82
861.60	211.83
861.91	211.87
862.22	211.89
862.53	211.87
862.84	211.46
863.16	211.56
863.47	211.50
863.78	211.44
864.09	211.49
864.40	211.55
864.71	211.50
865.02	211.57
865.33	211.57
865.64	211.55
865.95	211.55
866.27	211.85
866.58	211.84
866.89	211.87
867.20	211.89
867.51	211.85
867.82	211.69
868.13	211.78
868.44	211.76
868.75	211.79
869.06	211.77
869.37	211.82
869.68	211.67
869.99	211.77
870.30	211.78
870.61	211.83
870.92	211.78
871.23	211.83
871.54	211.83
871.85	211.89
872.16	211.89
872.47	211.89
872.78	211.65
873.09	211.65
873.40	211.65
873.71	211.69
874.02	211.78
874.33	211.80
874.64	211.75
874.95	211.75
875.26	211.69
875.56	211.67
875.87	211.67
876.18	211.66
876.49	211.96
876.80	211.95
877.11	211.82
877.42	211.80
877.73	211.74
878.04	211.71
878.35	211.73
878.66	211.75
878.96	211.71
879.27	211.70
879.58	211.63
879.89	211.65
880.20	211.68
880.51	211.68
880.82	211.66
881.12	211.60
881.43	211.54
881.74	211.47
882.05	211.45
882.36	211.39
882.67	211.36
882.97	211.03
883.28	211.03
883.59	211.00
883.90	211.02
884.21	211.01
884.51	210.98
884.82	210.90
885.13	210.96
885.44	211.00
885.74	211.01
886.05	211.01
886.36	210.96
886.67	210.83
886.98	210.98
887.28	211.07
887.59	211.10
887.90	211.00
888.20	211.01
888.51	211.15
888.82	211.16
889.13	211.17
889.43	211.44
889.74	211.37
890.05	211.42
890.35	211.35
890.66	211.32
890.97	211.29
891.28	211.25
891.58	211.20
891.89	211.10
892.20	211.05
892.50	211.02
892.81	211.05
893.12	211.12
893.42	210.85
893.73	210.80
894.04	210.77
894.34	210.94
894.65	210.88
894.95	210.75
895.26	210.77
895.57	210.97
895.87	210.67
896.18	210.79
896.48	210.85
896.79	210.86
897.10	210.90
897.40	210.94
897.71	211.02
898.01	210.92
898.32	211.01
898.63	211.05
898.93	211.11
899.24	211.15
899.54	211.14
899.85	211.22
900.15	211.27
900.46	211.39
900.76	211.40
901.07	211.46
901.38	211.49
901.68	211.57
901.99	211.40
902.29	211.38
902.60	211.41
902.90	211.36
903.21	211.48
903.51	211.45
903.82	211.55
904.12	211.49
904.43	211.61
904.73	211.62
905.03	211.67
905.34	211.97
905.64	211.93
905.95	211.93
906.25	211.97
906.56	211.92
906.86	211.86
907.17	211.82
907.47	211.89
907.77	211.90
908.08	211.79
908.38	211.86
908.69	211.98
908.99	211.95
909.30	211.96
909.60	211.87
909.90	211.82
910.21	211.70
910.51	211.70
910.81	211.66
911.12	211.72
911.42	211.72
911.73	211.41
912.03	211.47
912.33	211.61
912.64	211.58
912.94	211.55
913.24	211.53
913.55	211.46
913.85	211.38
914.15	211.38
914.46	211.41
914.76	211.30
915.06	211.31
915.37	211.16
915.67	211.15
915.97	211.19
916.27	211.19
916.58	211.26
916.88	211.23
917.18	211.17
917.49	211.33
917.79	211.28
918.09	211.34
918.39	211.36
918.70	211.21
919.00	211.17
919.30	211.36
919.60	211.33
919.91	211.36
920.21	211.42
920.51	211.33
920.81	211.29
921.12	211.43
921.42	211.33
921.72	211.42
922.02	211.45
922.32	211.49
922.63	211.57
922.93	211.68
923.23	211.70
923.53	211.71
923.83	211.48
924.13	211.53
924.44	211.48
924.74	211.56
925.04	211.64
925.34	211.68
925.64	211.53
925.94	211.51
926.24	211.63
926.55	211.51
926.85	211.72
927.15	211.71
927.45	211.64
927.75	211.59
928.05	211.59
928.35	211.55
928.65	211.63
928.95	211.59
929.26	211.45
929.56	211.55
929.86	211.59
930.16	211.54
930.46	211.54
930.76	211.57
931.06	211.38
931.36	211.30
931.66	211.28
931.96	211.34
932.26	211.33
932.56	211.29
932.86	211.40
933.16	211.26
933.46	211.25
933.76	211.23
934.06	211.33
934.36	211.50
934.66	211.50
934.96	211.45
935.26	211.47
935.56	211.45
935.86	211.34
936.16	211.31
936.46	211.25
936.76	211.21
937.06	211.11
937.36	211.13
937.66	211.17
937.96	211.18
938.26	211.07
938.56	211.09
938.86	211.07
939.16	211.11
939.46	211.15
939.76	211.16
940.06	211.11
940.35	211.07
940.65	210.84
940.95	210.85
941.25	210.79
941.55	210.75
941.85	210.73
942.15	210.82
942.45	210.86
942.75	210.89
943.04	210.84
943.34	211.00
943.64	211.01
943.94	210.88
944.24	210.90
944.54	210.90
944.84	210.93
945.13	210.84
945.43	210.81
945.73	210.84
946.03	210.80
946.33	210.76
946.62	210.69
946.92	210.67
947.22	210.71
947.52	210.65
947.82	210.74
948.11	210.69
948.41	210.56
948.71	210.47
949.01	210.52
949.31	210.52
949.60	210.41
949.90	210.43
950.20	210.47
950.50	210.44
950.79	210.45
951.09	210.44
951.39	210.43
951.69	210.35
951.98	210.42
952.28	210.50
952.58	210.59
952.87	210.59
953.17	210.65
953.47	210.60
953.76	210.65
954.06	210.55
954.36	210.53
954.66	210.59
954.95	210.71
955.25	210.70
955.55	210.71
955.84	210.73
956.14	210.75
956.44	210.78
956.73	210.75
957.03	210.76
957.32	210.79
957.62	210.83
957.92	210.85
958.21	210.79
958.51	211.14
958.81	211.14
959.10	211.19
959.40	211.27
959.69	211.23
959.99	211.23
960.29	211.26
960.58	211.24
960.88	211.32
961.17	211.31
961.47	211.35
961.76	211.37
962.06	211.39
962.36	211.28
962.65	211.26
962.95	211.26
963.24	211.27
963.54	211.27
963.83	211.25
964.13	211.27
964.42	211.19
964.72	210.91
965.01	210.87
965.31	210.86
965.60	210.76
965.90	211.00
966.19	210.94
966.49	210.98
966.78	210.98
967.08	210.91
967.37	210.94
967.67	210.88
967.96	210.99
968.26	210.99
968.55	211.15
968.85	211.14
969.14	211.15
969.43	211.12
969.73	211.06
970.02	211.09
970.32	211.08
970.61	211.03
970.91	210.87
971.20	210.87
971.49	210.89
971.79	210.91
972.08	210.71
972.38	210.75
972.67	210.72
972.96	210.86
973.26	210.81
973.55	210.83
973.85	210.87
974.14	210.77
974.43	210.80
974.73	210.74
975.02	210.75
975.31	210.77
975.61	210.72
975.90	210.70
976.19	210.65
976.49	210.69
976.78	210.70
977.07	210.76
977.37	210.74
977.66	210.70
977.95	210.73
978.24	210.75
978.54	210.79
978.83	210.72
979.12	210.67
979.42	210.73
979.71	210.68
980.00	210.68
980.29	210.72
980.59	210.69
980.88	210.77
981.17	210.73
981.46	210.65
981.76	210.70
982.05	210.83
982.34	210.87
982.63	210.87
982.93	210.94
983.22	211.04
983.51	211.09
983.80	211.15
984.09	211.15
984.39	211.10
984.68	211.08
984.97	211.09
985.26	211.07
985.55	211.05
985.85	210.95
986.14	210.97
986.43	211.01
986.72	210.99
987.01	210.90
987.30	210.95
987.59	210.97
987.89	211.05
988.18	210.96
988.47	210.95
988.76	210.89
989.05	210.89
989.34	210.82
989.63	210.92
989.92	210.92
990.22	210.84
990.51	210.90
990.80	210.84
991.09	210.86
991.38	210.87
991.67	210.84
991.96	210.78
992.25	210.79
992.54	210.72
992.83	210.69
993.12	210.66
993.41	210.72
993.70	210.88
993.99	210.90
994.28	210.89
994.58	210.95
994.87	210.97
995.16	210.90
995.45	210.79
995.74	210.68
996.03	210.80
996.32	210.88
996.61	210.92
996.90	210.93
997.19	210.90
997.48	210.88
997.77	210.86
998.06	210.95
998.34	210.97
998.63	210.96
998.92	211.04
999.21	211.12
999.50	211.15
999.79	211.02
1000.08	210.96
1000.37	211.03
1000.66	211.00
1000.95	211.03
1001.24	211.08
1001.53	211.21
1001.82	211.20
1002.11	211.06
1002.40	211.12
1002.68	211.22
1002.97	211.46
1003.26	211.47
1003.55	211.49
1003.84	211.55
1004.13	211.66
1004.42	211.65
1004.71	211.64
1004.99	211.55
1005.28	211.62
1005.57	211.58
1005.86	211.53
1006.15	211.59
1006.44	211.48
1006.72	211.55
1007.01	211.45
1007.30	211.50
1007.59	211.48
1007.88	211.51
1008.17	211.52
1008.45	211.47
1008.74	211.31
1009.03	211.16
1009.32	211.15
1009.60	211.11
1009.89	211.05
1010.18	210.88
1010.47	210.84
1010.76	210.79
1011.04	210.80
1011.33	210.75
1011.62	210.78
1011.91	210.86
1012.19	210.82
1012.48	210.80
1012.77	210.77
1013.05	210.97
1013.34	210.90
1013.63	210.86
1013.92	210.83
1014.20	210.75
1014.49	210.76
1014.78	210.75
1015.06	210.70
1015.35	210.71
1015.64	210.77
1015.92	210.86
1016.21	210.94
1016.50	210.89
1016.78	211.00
1017.07	211.00
1017.36	210.97
1017.64	210.91
1017.93	210.90
1018.22	210.85
1018.50	210.86
1018.79	210.81
1019.08	210.65
1019.36	210.70
1019.65	210.66
1019.93	210.78
1020.22	210.82
1020.51	210.97
1020.79	210.94
1021.08	210.30
1021.36	209.55
1021.65	210.75
1021.94	210.30
1022.22	211.55
1022.51	209.55
1022.79	212.90
1023.08	209.90
1023.36	215.15
1023.65	209.40
>>>>>End Processed Spectral Data<<<<<
