SpectraSuite Data File
++++++++++++++++++++++++++++++++++++
Date: Mon Feb 25 16:57:07 EST 2013
User: group
Dark Spectrum Present: No
Reference Spectrum Present: No
Number of Sampled Component Spectra: 1
Spectrometers: USB2E7196
Integration Time (usec): 104000 (USB2E7196)
Spectra Averaged: 20 (USB2E7196)
Boxcar Smoothing: 10 (USB2E7196)
Correct for Electrical Dark: No (USB2E7196)
Strobe/Lamp Enabled: No (USB2E7196)
Correct for Detector Non-linearity: No (USB2E7196)
Correct for Stray Light: No (USB2E7196)
Number of Pixels in Processed Spectrum: 2048
>>>>>Begin Processed Spectral Data<<<<<
339.09	0.00
339.48	198.25
339.86	200.00
340.24	200.05
340.63	202.05
341.01	208.60
341.39	205.65
341.78	207.05
342.16	208.35
342.54	208.75
342.93	197.88
343.31	207.92
343.69	208.51
344.07	209.02
344.46	209.48
344.84	209.93
345.22	210.08
345.60	210.37
345.99	210.63
346.37	210.80
346.75	210.90
347.13	211.07
347.52	211.17
347.90	211.40
348.28	211.51
348.66	211.58
349.05	211.56
349.43	211.65
349.81	211.80
350.19	211.98
350.57	212.07
350.96	212.18
351.34	212.33
351.72	212.41
352.10	212.54
352.48	212.71
352.87	212.79
353.25	212.78
353.63	212.85
354.01	212.90
354.39	212.98
354.77	213.05
355.15	213.19
355.54	213.23
355.92	213.18
356.30	213.26
356.68	213.66
357.06	213.81
357.44	213.90
357.82	213.94
358.20	213.97
358.58	214.08
358.97	214.08
359.35	214.14
359.73	214.33
360.11	214.37
360.49	214.43
360.87	214.49
361.25	214.62
361.63	214.76
362.01	214.82
362.39	214.88
362.77	214.99
363.15	215.01
363.53	215.02
363.91	215.07
364.29	215.05
364.67	214.71
365.05	214.65
365.43	214.71
365.81	214.85
366.19	215.07
366.57	215.19
366.95	215.22
367.33	215.19
367.71	215.13
368.09	215.15
368.47	215.14
368.85	215.18
369.23	215.30
369.61	215.16
369.99	215.21
370.37	215.26
370.75	215.40
371.13	215.27
371.51	215.20
371.89	215.17
372.27	215.12
372.65	215.12
373.03	215.07
373.41	215.04
373.78	214.90
374.16	214.62
374.54	214.44
374.92	214.34
375.30	214.30
375.68	214.10
376.06	214.06
376.44	213.98
376.82	213.90
377.19	213.80
377.57	213.69
377.95	213.58
378.33	213.47
378.71	213.25
379.09	213.32
379.47	213.37
379.84	213.24
380.22	213.23
380.60	213.14
380.98	213.08
381.36	212.94
381.73	212.85
382.11	212.85
382.49	212.85
382.87	212.76
383.25	212.69
383.62	213.09
384.00	213.00
384.38	213.00
384.76	213.03
385.13	213.03
385.51	213.04
385.89	213.01
386.27	212.97
386.64	212.91
387.02	212.76
387.40	212.64
387.78	212.72
388.15	212.72
388.53	212.65
388.91	212.64
389.29	212.63
389.66	212.67
390.04	212.63
390.42	212.64
390.79	212.63
391.17	212.66
391.55	212.28
391.92	212.30
392.30	212.19
392.68	212.07
393.05	212.05
393.43	212.02
393.81	211.98
394.18	211.85
394.56	211.90
394.94	212.05
395.31	212.01
395.69	212.07
396.06	212.10
396.44	212.16
396.82	212.05
397.19	212.26
397.57	212.28
397.95	212.34
398.32	212.30
398.70	212.35
399.07	212.36
399.45	212.40
399.82	212.43
400.20	212.48
400.58	212.55
400.95	212.50
401.33	212.68
401.70	213.03
402.08	213.21
402.45	213.30
402.83	213.45
403.20	213.65
403.58	213.76
403.95	214.01
404.33	214.27
404.71	214.60
405.08	214.98
405.46	215.23
405.83	215.51
406.21	215.77
406.58	216.15
406.96	216.51
407.33	216.90
407.70	217.30
408.08	218.10
408.45	218.64
408.83	219.30
409.20	219.88
409.58	220.20
409.95	220.95
410.33	221.69
410.70	222.34
411.08	223.22
411.45	224.13
411.82	224.97
412.20	225.97
412.57	227.30
412.95	228.17
413.32	229.41
413.69	230.69
414.07	232.08
414.44	233.61
414.82	235.20
415.19	237.06
415.56	238.96
415.94	240.75
416.31	242.96
416.68	245.17
417.06	247.65
417.43	250.07
417.81	252.73
418.18	255.57
418.55	258.58
418.93	261.82
419.30	265.11
419.67	268.67
420.04	272.31
420.42	276.06
420.79	280.56
421.16	285.04
421.54	289.73
421.91	294.61
422.28	299.69
422.66	305.03
423.03	310.33
423.40	315.79
423.77	321.68
424.15	327.57
424.52	333.72
424.89	340.51
425.26	347.30
425.64	353.67
426.01	360.68
426.38	367.98
426.75	375.41
427.13	383.00
427.50	391.04
427.87	399.51
428.24	407.92
428.61	415.99
428.99	424.86
429.36	434.59
429.73	444.01
430.10	453.44
430.47	463.07
430.85	473.27
431.22	484.01
431.59	495.48
431.96	506.45
432.33	518.66
432.70	530.42
433.08	544.20
433.45	557.29
433.82	570.33
434.19	584.98
434.56	599.25
434.93	613.23
435.30	627.07
435.68	642.50
436.05	657.86
436.42	673.24
436.79	687.40
437.16	702.63
437.53	718.65
437.90	734.73
438.27	750.72
438.64	767.02
439.01	782.38
439.38	796.04
439.75	809.64
440.13	824.94
440.50	839.43
440.87	851.45
441.24	863.91
441.61	877.57
441.98	888.11
442.35	900.42
442.72	912.74
443.09	924.35
443.46	931.80
443.83	937.30
444.20	941.97
444.57	948.65
444.94	952.15
445.31	956.15
445.68	959.69
446.05	962.00
446.42	961.74
446.79	961.15
447.16	960.63
447.53	960.36
447.90	955.80
448.27	951.24
448.64	944.05
449.01	939.26
449.37	930.01
449.74	920.87
450.11	909.69
450.48	897.49
450.85	885.36
451.22	874.80
451.59	864.78
451.96	855.34
452.33	841.95
452.70	830.37
453.07	815.96
453.43	801.40
453.80	787.26
454.17	773.60
454.54	760.85
454.91	746.62
455.28	732.83
455.65	720.10
456.02	707.26
456.38	696.53
456.75	682.94
457.12	671.69
457.49	660.48
457.86	649.66
458.23	640.11
458.59	629.76
458.96	619.42
459.33	609.98
459.70	600.64
460.07	593.34
460.43	584.77
460.80	576.81
461.17	569.82
461.54	562.40
461.91	555.50
462.27	548.29
462.64	542.45
463.01	535.86
463.38	529.34
463.74	522.84
464.11	517.32
464.48	512.63
464.85	507.18
465.21	503.08
465.58	498.60
465.95	493.46
466.32	488.97
466.68	484.67
467.05	480.42
467.42	476.00
467.78	471.44
468.15	467.10
468.52	463.85
468.88	459.60
469.25	456.00
469.62	453.01
469.98	449.74
470.35	446.61
470.72	443.61
471.08	440.60
471.45	438.08
471.82	435.35
472.18	432.20
472.55	430.11
472.92	427.61
473.28	425.24
473.65	423.00
474.02	421.01
474.38	419.25
474.75	417.72
475.11	416.16
475.48	414.98
475.85	413.85
476.21	412.80
476.58	411.98
476.94	411.23
477.31	410.28
477.67	409.28
478.04	408.69
478.41	408.38
478.77	408.19
479.14	407.79
479.50	407.65
479.87	407.92
480.23	407.97
480.60	407.90
480.96	408.07
481.33	408.74
481.69	409.16
482.06	409.52
482.42	409.78
482.79	410.29
483.15	411.00
483.52	412.00
483.88	412.73
484.25	413.63
484.61	414.60
484.98	415.80
485.34	417.40
485.71	418.84
486.07	420.38
486.44	421.88
486.80	423.67
487.17	425.68
487.53	427.90
487.90	430.12
488.26	432.72
488.62	435.35
488.99	437.80
489.35	440.42
489.72	443.41
490.08	446.52
490.44	449.48
490.81	452.74
491.17	455.98
491.54	459.55
491.90	463.18
492.26	466.93
492.63	470.83
492.99	474.77
493.36	479.07
493.72	483.49
494.08	488.00
494.45	492.67
494.81	497.50
495.17	502.34
495.54	507.57
495.90	512.71
496.26	517.92
496.63	523.44
496.99	529.20
497.35	535.00
497.72	541.14
498.08	547.37
498.44	553.49
498.80	560.07
499.17	566.68
499.53	573.28
499.89	580.27
500.26	587.06
500.62	593.81
500.98	600.88
501.34	607.92
501.71	615.24
502.07	622.53
502.43	629.73
502.79	636.78
503.16	644.02
503.52	651.43
503.88	658.82
504.24	666.30
504.60	673.86
504.97	681.50
505.33	688.90
505.69	696.79
506.05	704.67
506.41	712.20
506.78	719.70
507.14	727.18
507.50	734.63
507.86	742.16
508.22	749.75
508.59	757.10
508.95	764.58
509.31	771.78
509.67	779.00
510.03	786.37
510.39	793.98
510.75	801.53
511.12	808.77
511.48	816.08
511.84	823.17
512.20	830.11
512.56	837.10
512.92	844.29
513.28	851.15
513.64	857.82
514.00	864.53
514.37	870.83
514.73	877.62
515.09	884.13
515.45	890.36
515.81	896.68
516.17	902.78
516.53	908.92
516.89	914.78
517.25	920.70
517.61	926.22
517.97	931.55
518.33	936.59
518.69	941.94
519.05	946.89
519.41	952.04
519.77	957.32
520.13	962.01
520.49	966.39
520.85	971.06
521.21	975.76
521.57	980.28
521.93	984.73
522.29	989.06
522.65	993.46
523.01	997.85
523.37	1001.93
523.73	1005.91
524.09	1009.59
524.45	1013.67
524.81	1017.59
525.17	1021.89
525.53	1025.97
525.89	1029.72
526.25	1033.40
526.61	1036.85
526.97	1040.34
527.33	1043.82
527.68	1047.53
528.04	1051.07
528.40	1053.93
528.76	1056.94
529.12	1060.23
529.48	1063.79
529.84	1066.77
530.20	1069.41
530.56	1072.33
530.91	1075.58
531.27	1078.93
531.63	1081.96
531.99	1084.92
532.35	1087.59
532.71	1090.00
533.07	1092.87
533.42	1095.87
533.78	1098.77
534.14	1101.79
534.50	1104.08
534.86	1106.56
535.21	1108.81
535.57	1111.72
535.93	1114.26
536.29	1116.87
536.65	1119.25
537.00	1121.38
537.36	1123.49
537.72	1125.73
538.08	1128.06
538.44	1129.91
538.79	1132.13
539.15	1134.33
539.51	1136.51
539.87	1139.01
540.22	1141.40
540.58	1144.02
540.94	1146.14
541.29	1147.76
541.65	1149.46
542.01	1151.59
542.37	1153.50
542.72	1155.30
543.08	1156.85
543.44	1159.08
543.79	1160.43
544.15	1161.92
544.51	1163.73
544.87	1165.82
545.22	1167.51
545.58	1168.94
545.94	1170.54
546.29	1171.49
546.65	1172.63
547.01	1173.44
547.36	1174.35
547.72	1175.12
548.07	1175.43
548.43	1175.99
548.79	1176.47
549.14	1177.38
549.50	1178.25
549.86	1178.65
550.21	1179.46
550.57	1180.30
550.92	1180.66
551.28	1181.66
551.64	1182.03
551.99	1182.86
552.35	1183.20
552.70	1183.72
553.06	1184.38
553.41	1184.85
553.77	1185.99
554.13	1186.83
554.48	1187.73
554.84	1188.83
555.19	1189.58
555.55	1190.47
555.90	1190.82
556.26	1191.50
556.61	1191.84
556.97	1192.04
557.32	1192.92
557.68	1192.94
558.03	1193.11
558.39	1192.97
558.74	1193.19
559.10	1193.67
559.45	1193.84
559.81	1194.38
560.16	1194.33
560.52	1194.53
560.87	1194.53
561.23	1193.83
561.58	1194.04
561.94	1193.72
562.29	1192.70
562.64	1192.62
563.00	1192.23
563.35	1192.75
563.71	1193.32
564.06	1193.47
564.42	1193.78
564.77	1193.84
565.12	1194.47
565.48	1194.72
565.83	1195.30
566.19	1195.42
566.54	1195.11
566.89	1194.70
567.25	1194.78
567.60	1195.14
567.96	1195.39
568.31	1195.79
568.66	1195.91
569.02	1195.25
569.37	1194.89
569.72	1195.09
570.08	1194.48
570.43	1193.78
570.78	1192.90
571.14	1191.81
571.49	1190.69
571.84	1189.84
572.20	1188.34
572.55	1187.19
572.90	1185.64
573.26	1184.03
573.61	1182.52
573.96	1181.32
574.31	1179.66
574.67	1177.42
575.02	1175.19
575.37	1172.75
575.72	1170.11
576.08	1168.12
576.43	1165.75
576.78	1163.53
577.13	1161.23
577.49	1159.08
577.84	1156.91
578.19	1154.69
578.54	1152.73
578.90	1151.05
579.25	1148.56
579.60	1146.14
579.95	1143.34
580.30	1141.10
580.66	1138.77
581.01	1135.99
581.36	1133.14
581.71	1130.38
582.06	1127.77
582.42	1125.21
582.77	1122.35
583.12	1119.66
583.47	1116.82
583.82	1114.22
584.17	1111.54
584.53	1108.93
584.88	1105.88
585.23	1102.97
585.58	1099.77
585.93	1096.49
586.28	1093.40
586.63	1090.38
586.98	1087.67
587.34	1085.14
587.69	1081.75
588.04	1078.78
588.39	1075.91
588.74	1072.59
589.09	1069.81
589.44	1066.27
589.79	1063.29
590.14	1060.39
590.49	1057.57
590.84	1054.31
591.19	1051.49
591.54	1048.28
591.89	1044.51
592.25	1041.45
592.60	1038.22
592.95	1034.74
593.30	1030.90
593.65	1026.92
594.00	1023.02
594.35	1020.40
594.70	1016.49
595.05	1013.23
595.40	1009.68
595.75	1005.84
596.10	1002.57
596.45	999.16
596.80	996.37
597.15	992.84
597.50	989.03
597.85	985.34
598.19	981.76
598.54	978.21
598.89	974.83
599.24	971.95
599.59	968.40
599.94	965.02
600.29	961.67
600.64	958.55
600.99	955.06
601.34	952.17
601.69	947.71
602.04	944.20
602.39	940.50
602.74	937.08
603.08	933.92
603.43	930.83
603.78	927.27
604.13	923.56
604.48	920.10
604.83	917.31
605.18	914.13
605.53	910.65
605.87	907.09
606.22	903.70
606.57	899.60
606.92	895.95
607.27	892.13
607.62	888.51
607.96	885.14
608.31	882.23
608.66	878.62
609.01	874.90
609.36	871.32
609.70	867.85
610.05	863.87
610.40	859.95
610.75	856.01
611.10	852.44
611.44	848.25
611.79	844.38
612.14	840.26
612.49	835.92
612.83	832.11
613.18	827.90
613.53	823.87
613.88	819.96
614.22	816.19
614.57	812.35
614.92	808.71
615.27	804.72
615.61	800.44
615.96	796.59
616.31	792.91
616.65	789.41
617.00	785.67
617.35	781.99
617.70	778.28
618.04	774.33
618.39	770.20
618.74	766.74
619.08	763.07
619.43	759.14
619.78	755.76
620.12	752.15
620.47	748.74
620.82	744.80
621.16	741.00
621.51	737.32
621.85	733.63
622.20	729.97
622.55	726.24
622.89	722.55
623.24	718.74
623.59	714.90
623.93	711.08
624.28	707.44
624.62	704.21
624.97	700.65
625.32	697.29
625.66	693.94
626.01	690.35
626.35	686.84
626.70	683.32
627.04	680.06
627.39	676.72
627.73	673.47
628.08	670.50
628.43	667.37
628.77	664.10
629.12	660.54
629.46	657.25
629.81	653.95
630.15	650.82
630.50	647.54
630.84	644.24
631.19	641.05
631.53	637.78
631.88	634.19
632.22	630.94
632.57	627.89
632.91	624.64
633.26	621.52
633.60	618.36
633.95	615.38
634.29	612.09
634.64	609.08
634.98	605.67
635.32	602.64
635.67	599.88
636.01	596.98
636.36	594.17
636.70	591.41
637.05	588.55
637.39	585.86
637.73	583.30
638.08	580.93
638.42	578.28
638.77	575.68
639.11	573.10
639.45	570.53
639.80	567.53
640.14	564.83
640.49	562.22
640.83	559.51
641.17	556.90
641.52	554.38
641.86	551.61
642.20	549.30
642.55	546.35
642.89	543.45
643.23	540.60
643.58	538.35
643.92	535.50
644.26	532.97
644.61	530.33
644.95	527.56
645.29	524.93
645.64	522.16
645.98	519.40
646.32	516.99
646.66	514.26
647.01	511.87
647.35	509.45
647.69	506.86
648.04	504.41
648.38	501.81
648.72	499.21
649.06	496.63
649.41	494.02
649.75	491.67
650.09	489.29
650.43	486.96
650.78	484.26
651.12	481.75
651.46	479.29
651.80	476.88
652.14	474.60
652.49	472.16
652.83	469.84
653.17	467.45
653.51	464.89
653.85	462.75
654.20	460.57
654.54	458.13
654.88	455.77
655.22	453.54
655.56	451.16
655.90	448.84
656.25	446.63
656.59	444.24
656.93	442.18
657.27	440.16
657.61	437.85
657.95	435.75
658.29	433.71
658.64	431.74
658.98	429.50
659.32	427.17
659.66	425.03
660.00	422.89
660.34	420.81
660.68	418.68
661.02	416.48
661.36	414.33
661.70	412.38
662.05	410.45
662.39	408.51
662.73	406.94
663.07	405.16
663.41	403.40
663.75	401.70
664.09	399.86
664.43	397.80
664.77	396.02
665.11	394.15
665.45	392.45
665.79	390.61
666.13	388.90
666.47	387.32
666.81	385.67
667.15	383.91
667.49	382.36
667.83	380.90
668.17	379.42
668.51	377.95
668.85	376.43
669.19	375.08
669.53	373.40
669.87	371.63
670.21	370.10
670.55	368.59
670.89	367.37
671.23	365.91
671.57	364.54
671.91	363.22
672.25	361.72
672.58	360.30
672.92	358.95
673.26	357.64
673.60	356.24
673.94	354.78
674.28	353.59
674.62	352.43
674.96	351.16
675.30	349.79
675.64	348.46
675.97	347.22
676.31	345.93
676.65	344.77
676.99	343.70
677.33	342.36
677.67	341.10
678.01	339.58
678.34	338.31
678.68	337.11
679.02	335.89
679.36	334.80
679.70	333.61
680.04	332.37
680.37	331.19
680.71	330.02
681.05	328.93
681.39	327.76
681.73	326.51
682.06	325.38
682.40	324.38
682.74	323.25
683.08	322.15
683.42	321.01
683.75	320.00
684.09	318.78
684.43	317.68
684.77	316.64
685.10	315.60
685.44	314.48
685.78	313.40
686.12	312.34
686.45	311.33
686.79	310.25
687.13	309.34
687.46	308.32
687.80	307.38
688.14	306.43
688.48	305.49
688.81	304.49
689.15	303.59
689.49	302.51
689.82	301.48
690.16	300.40
690.50	299.40
690.83	298.39
691.17	297.47
691.51	296.58
691.84	295.65
692.18	294.74
692.52	293.90
692.85	293.07
693.19	292.31
693.52	291.46
693.86	290.61
694.20	289.73
694.53	288.99
694.87	288.11
695.21	287.25
695.54	286.35
695.88	285.53
696.21	284.50
696.55	283.74
696.88	282.98
697.22	282.20
697.56	281.49
697.89	280.68
698.23	279.91
698.56	279.15
698.90	278.48
699.23	277.72
699.57	277.05
699.90	276.32
700.24	275.50
700.58	274.81
700.91	274.21
701.25	273.78
701.58	273.18
701.92	272.60
702.25	271.92
702.59	271.30
702.92	270.65
703.26	270.10
703.59	269.48
703.93	269.12
704.26	268.58
704.60	267.93
704.93	267.35
705.26	266.73
705.60	266.22
705.93	265.57
706.27	265.13
706.60	264.64
706.94	264.21
707.27	263.62
707.61	263.01
707.94	262.33
708.27	261.53
708.61	260.80
708.94	260.28
709.28	259.87
709.61	259.24
709.94	258.74
710.28	258.24
710.61	257.78
710.95	257.01
711.28	256.74
711.61	256.23
711.95	255.81
712.28	255.41
712.61	255.00
712.95	254.70
713.28	254.34
713.61	253.79
713.95	253.29
714.28	252.89
714.61	252.42
714.95	252.02
715.28	251.54
715.61	251.17
715.95	250.65
716.28	250.13
716.61	249.78
716.95	249.33
717.28	248.90
717.61	248.43
717.94	248.09
718.28	247.44
718.61	247.05
718.94	246.60
719.27	246.18
719.61	245.74
719.94	245.27
720.27	244.72
720.60	244.38
720.94	243.96
721.27	243.65
721.60	243.44
721.93	243.16
722.27	243.04
722.60	242.73
722.93	242.48
723.26	242.17
723.59	241.84
723.93	241.63
724.26	241.36
724.59	241.02
724.92	240.77
725.25	240.60
725.59	240.35
725.92	240.19
726.25	239.92
726.58	239.71
726.91	239.46
727.24	239.25
727.57	238.99
727.91	238.64
728.24	238.40
728.57	238.06
728.90	237.87
729.23	237.46
729.56	237.39
729.89	237.06
730.22	236.82
730.55	236.57
730.89	236.30
731.22	236.09
731.55	235.98
731.88	235.66
732.21	235.38
732.54	235.05
732.87	234.76
733.20	234.53
733.53	234.26
733.86	234.09
734.19	233.85
734.52	233.62
734.85	233.70
735.18	233.41
735.51	233.32
735.84	233.04
736.17	232.84
736.50	232.45
736.83	232.74
737.16	232.52
737.49	232.32
737.82	232.06
738.15	231.86
738.48	231.62
738.81	231.38
739.14	231.09
739.47	230.91
739.80	230.69
740.13	230.58
740.46	230.27
740.79	229.92
741.12	229.66
741.45	229.42
741.78	229.02
742.11	228.92
742.44	228.66
742.77	228.50
743.10	228.27
743.43	228.03
743.75	227.46
744.08	227.76
744.41	227.61
744.74	227.38
745.07	227.17
745.40	226.98
745.73	227.05
746.06	226.93
746.39	226.84
746.71	226.58
747.04	226.29
747.37	226.16
747.70	226.08
748.03	225.93
748.36	225.83
748.68	225.66
749.01	225.40
749.34	225.26
749.67	225.13
750.00	225.11
750.33	225.24
750.65	225.02
750.98	224.46
751.31	224.32
751.64	224.28
751.97	224.30
752.29	224.28
752.62	223.95
752.95	223.82
753.28	223.60
753.60	223.56
753.93	223.50
754.26	223.33
754.59	223.16
754.91	223.04
755.24	222.95
755.57	222.83
755.90	222.80
756.22	222.57
756.55	222.43
756.88	222.26
757.20	221.92
757.53	221.68
757.86	221.62
758.19	221.45
758.51	221.26
758.84	221.05
759.17	220.89
759.49	220.85
759.82	220.91
760.15	220.91
760.47	220.82
760.80	220.64
761.13	220.71
761.45	220.55
761.78	220.47
762.11	220.30
762.43	220.20
762.76	220.00
763.08	219.95
763.41	219.88
763.74	219.81
764.06	219.72
764.39	219.71
764.71	219.66
765.04	219.56
765.37	219.51
765.69	219.34
766.02	219.13
766.34	218.99
766.67	218.79
767.00	218.70
767.32	218.77
767.65	218.94
767.97	218.77
768.30	218.74
768.62	218.64
768.95	218.57
769.27	218.50
769.60	218.51
769.92	218.44
770.25	218.25
770.57	218.05
770.90	218.00
771.22	217.92
771.55	217.81
771.87	217.85
772.20	217.71
772.52	218.00
772.85	218.41
773.17	218.38
773.50	218.19
773.82	218.15
774.15	217.93
774.47	217.69
774.80	217.58
775.12	217.55
775.45	217.48
775.77	217.47
776.09	217.42
776.42	217.40
776.74	217.46
777.07	217.42
777.39	217.39
777.72	217.32
778.04	217.32
778.36	217.20
778.69	217.10
779.01	217.12
779.33	216.76
779.66	216.35
779.98	216.26
780.31	216.34
780.63	216.38
780.95	216.44
781.28	216.36
781.60	216.40
781.92	216.38
782.25	216.34
782.57	216.25
782.89	216.20
783.22	216.09
783.54	215.99
783.86	216.03
784.19	216.00
784.51	215.97
784.83	215.93
785.16	215.90
785.48	215.87
785.80	215.84
786.12	215.78
786.45	215.74
786.77	215.69
787.09	215.61
787.42	215.48
787.74	215.42
788.06	215.36
788.38	215.28
788.71	215.09
789.03	215.10
789.35	215.10
789.67	215.03
789.99	215.04
790.32	214.88
790.64	214.85
790.96	215.07
791.28	215.06
791.61	214.95
791.93	214.89
792.25	214.82
792.57	214.99
792.89	214.87
793.21	214.85
793.54	214.82
793.86	214.76
794.18	214.69
794.50	214.63
794.82	214.66
795.14	214.60
795.47	214.69
795.79	214.64
796.11	214.56
796.43	214.50
796.75	214.45
797.07	214.46
797.39	214.34
797.71	214.07
798.04	214.03
798.36	214.03
798.68	214.03
799.00	214.05
799.32	213.86
799.64	213.95
799.96	213.92
800.28	213.94
800.60	213.89
800.92	213.90
801.24	213.79
801.56	213.78
801.89	213.72
802.21	213.74
802.53	213.64
802.85	213.72
803.17	213.79
803.49	213.68
803.81	213.66
804.13	213.60
804.45	213.59
804.77	213.58
805.09	213.52
805.41	213.48
805.73	213.41
806.05	213.36
806.37	213.25
806.69	213.19
807.01	213.14
807.33	213.19
807.65	213.09
807.97	213.23
808.28	213.12
808.60	213.20
808.92	213.14
809.24	213.40
809.56	213.23
809.88	213.20
810.20	213.24
810.52	213.31
810.84	213.35
811.16	213.29
811.48	213.27
811.80	213.39
812.12	213.34
812.43	213.35
812.75	213.39
813.07	213.41
813.39	213.44
813.71	213.39
814.03	213.34
814.35	213.40
814.67	213.25
814.98	213.24
815.30	213.16
815.62	213.08
815.94	212.86
816.26	212.90
816.58	212.84
816.89	212.85
817.21	212.76
817.53	212.76
817.85	212.73
818.17	212.65
818.48	212.55
818.80	212.65
819.12	212.59
819.44	212.46
819.76	212.39
820.07	212.37
820.39	212.37
820.71	212.35
821.03	212.27
821.34	212.24
821.66	212.31
821.98	212.34
822.30	212.32
822.61	212.38
822.93	212.33
823.25	212.31
823.57	212.29
823.88	212.34
824.20	212.33
824.52	212.43
824.83	212.48
825.15	212.42
825.47	212.36
825.79	212.35
826.10	212.27
826.42	212.25
826.74	212.31
827.05	212.32
827.37	212.33
827.69	212.32
828.00	212.29
828.32	212.30
828.64	212.27
828.95	212.43
829.27	212.45
829.58	212.45
829.90	212.47
830.22	212.41
830.53	212.32
830.85	212.24
831.17	212.11
831.48	212.06
831.80	212.10
832.11	212.06
832.43	211.98
832.75	212.05
833.06	212.25
833.38	212.03
833.69	212.03
834.01	212.00
834.32	211.97
834.64	212.01
834.96	211.98
835.27	211.93
835.59	211.83
835.90	211.70
836.22	211.67
836.53	211.59
836.85	211.59
837.16	211.95
837.48	211.97
837.79	212.08
838.11	212.14
838.42	212.16
838.74	212.24
839.05	212.30
839.37	212.32
839.68	212.14
840.00	212.19
840.31	212.15
840.63	212.10
840.94	212.08
841.26	212.05
841.57	212.02
841.88	212.08
842.20	212.03
842.51	212.01
842.83	212.02
843.14	212.41
843.46	212.48
843.77	212.20
844.08	212.13
844.40	212.06
844.71	212.00
845.03	211.93
845.34	211.91
845.65	211.95
845.97	211.98
846.28	211.95
846.60	212.00
846.91	212.00
847.22	212.03
847.54	212.09
847.85	212.09
848.16	212.12
848.48	212.07
848.79	212.21
849.10	212.30
849.42	212.41
849.73	212.01
850.04	211.92
850.36	211.94
850.67	212.08
850.98	212.05
851.30	212.11
851.61	212.10
851.92	212.07
852.23	212.13
852.55	212.08
852.86	212.11
853.17	212.05
853.49	212.15
853.80	212.25
854.11	212.32
854.42	212.38
854.74	212.26
855.05	212.28
855.36	212.13
855.67	212.10
855.99	212.05
856.30	212.55
856.61	212.56
856.92	212.54
857.23	212.53
857.55	212.50
857.86	212.45
858.17	212.48
858.48	212.38
858.79	212.33
859.11	212.40
859.42	212.36
859.73	212.40
860.04	212.33
860.35	212.26
860.66	212.16
860.98	212.16
861.29	212.27
861.60	212.22
861.91	212.33
862.22	212.24
862.53	212.17
862.84	211.65
863.16	211.75
863.47	211.63
863.78	211.52
864.09	211.58
864.40	211.70
864.71	211.73
865.02	211.75
865.33	211.65
865.64	211.56
865.95	211.57
866.27	211.80
866.58	211.80
866.89	211.84
867.20	211.79
867.51	211.75
867.82	211.70
868.13	211.82
868.44	211.77
868.75	211.88
869.06	211.94
869.37	212.06
869.68	211.95
869.99	212.03
870.30	212.13
870.61	212.14
870.92	212.03
871.23	211.99
871.54	212.02
871.85	212.16
872.16	212.23
872.47	212.22
872.78	212.02
873.09	211.95
873.40	211.87
873.71	211.94
874.02	211.87
874.33	211.83
874.64	211.76
874.95	211.75
875.26	211.63
875.56	211.59
875.87	211.53
876.18	211.48
876.49	211.81
876.80	211.80
877.11	211.72
877.42	211.72
877.73	211.70
878.04	211.70
878.35	211.69
878.66	211.70
878.96	211.67
879.27	211.57
879.58	211.62
879.89	211.55
880.20	211.60
880.51	211.67
880.82	211.66
881.12	211.66
881.43	211.63
881.74	211.59
882.05	211.60
882.36	211.59
882.67	211.67
882.97	211.33
883.28	211.30
883.59	211.33
883.90	211.42
884.21	211.53
884.51	211.49
884.82	211.44
885.13	211.45
885.44	211.50
885.74	211.56
886.05	211.59
886.36	211.59
886.67	211.55
886.98	211.72
887.28	211.80
887.59	211.76
887.90	211.73
888.20	211.76
888.51	211.75
888.82	211.73
889.13	211.65
889.43	211.86
889.74	211.84
890.05	211.77
890.35	211.63
890.66	211.56
890.97	211.58
891.28	211.49
891.58	211.49
891.89	211.51
892.20	211.50
892.50	211.37
892.81	211.41
893.12	211.31
893.42	211.12
893.73	211.10
894.04	211.13
894.34	211.12
894.65	211.15
894.95	211.17
895.26	211.23
895.57	211.46
895.87	211.12
896.18	211.14
896.48	211.15
896.79	211.15
897.10	211.11
897.40	211.07
897.71	211.15
898.01	211.10
898.32	211.11
898.63	211.04
898.93	211.23
899.24	211.23
899.54	211.24
899.85	211.23
900.15	211.25
900.46	211.20
900.76	211.30
901.07	211.27
901.38	211.18
901.68	211.22
901.99	211.03
902.29	211.06
902.60	211.03
902.90	210.99
903.21	210.95
903.51	210.93
903.82	211.08
904.12	211.08
904.43	211.06
904.73	211.01
905.03	211.05
905.34	211.24
905.64	211.23
905.95	211.20
906.25	211.20
906.56	211.15
906.86	211.20
907.17	211.19
907.47	211.23
907.77	211.27
908.08	211.16
908.38	211.20
908.69	211.30
908.99	211.35
909.30	211.45
909.60	211.47
909.90	211.50
910.21	211.31
910.51	211.21
910.81	211.25
911.12	211.27
911.42	211.27
911.73	210.95
912.03	210.96
912.33	211.00
912.64	210.98
912.94	210.99
913.24	210.92
913.55	210.87
913.85	210.79
914.15	210.85
914.46	210.89
914.76	210.81
915.06	210.79
915.37	210.83
915.67	210.78
915.97	210.81
916.27	210.77
916.58	210.75
916.88	210.75
917.18	210.76
917.49	211.05
917.79	211.03
918.09	211.08
918.39	211.18
918.70	211.17
919.00	211.15
919.30	211.30
919.60	211.33
919.91	211.29
920.21	211.38
920.51	211.25
920.81	211.26
921.12	211.34
921.42	211.32
921.72	211.28
922.02	211.31
922.32	211.30
922.63	211.33
922.93	211.60
923.23	211.66
923.53	211.57
923.83	211.29
924.13	211.31
924.44	211.35
924.74	211.41
925.04	211.56
925.34	211.59
925.64	211.39
925.94	211.31
926.24	211.49
926.55	211.44
926.85	211.54
927.15	211.48
927.45	211.48
927.75	211.38
928.05	211.31
928.35	211.27
928.65	211.33
928.95	211.35
929.26	211.18
929.56	211.22
929.86	211.25
930.16	211.16
930.46	211.20
930.76	211.15
931.06	211.04
931.36	210.92
931.66	210.96
931.96	211.01
932.26	211.08
932.56	210.96
932.86	210.97
933.16	211.01
933.46	211.00
933.76	210.97
934.06	211.14
934.36	211.27
934.66	211.33
934.96	211.31
935.26	211.32
935.56	211.36
935.86	211.31
936.16	211.25
936.46	211.31
936.76	211.25
937.06	211.22
937.36	211.18
937.66	211.14
937.96	211.11
938.26	211.08
938.56	211.04
938.86	211.09
939.16	211.21
939.46	211.15
939.76	211.26
940.06	211.25
940.35	211.23
940.65	211.13
940.95	211.08
941.25	211.05
941.55	210.97
941.85	210.97
942.15	211.05
942.45	211.19
942.75	211.17
943.04	211.31
943.34	211.39
943.64	211.40
943.94	211.42
944.24	211.46
944.54	211.43
944.84	211.42
945.13	211.35
945.43	211.25
945.73	211.25
946.03	211.15
946.33	211.11
946.62	210.95
946.92	210.89
947.22	210.90
947.52	210.93
947.82	210.99
948.11	210.97
948.41	210.87
948.71	210.79
949.01	210.86
949.31	210.79
949.60	210.74
949.90	210.79
950.20	210.72
950.50	210.72
950.79	210.76
951.09	210.85
951.39	210.83
951.69	210.85
951.98	210.93
952.28	210.94
952.58	210.96
952.87	211.05
953.17	211.13
953.47	211.14
953.76	211.15
954.06	211.10
954.36	211.14
954.66	211.05
954.95	211.14
955.25	211.17
955.55	211.21
955.84	211.22
956.14	211.26
956.44	211.32
956.73	211.30
957.03	211.31
957.32	211.28
957.62	211.20
957.92	211.20
958.21	211.13
958.51	211.60
958.81	211.63
959.10	211.65
959.40	211.71
959.69	211.71
959.99	211.65
960.29	211.72
960.58	211.60
960.88	211.84
961.17	211.74
961.47	211.70
961.76	211.62
962.06	211.59
962.36	211.55
962.65	211.57
962.95	211.54
963.24	211.55
963.54	211.59
963.83	211.76
964.13	211.74
964.42	211.67
964.72	211.38
965.01	211.35
965.31	211.38
965.60	211.30
965.90	211.53
966.19	211.50
966.49	211.47
966.78	211.53
967.08	211.46
967.37	211.54
967.67	211.49
967.96	211.52
968.26	211.51
968.55	211.55
968.85	211.48
969.14	211.54
969.43	211.49
969.73	211.50
970.02	211.43
970.32	211.40
970.61	211.42
970.91	211.34
971.20	211.27
971.49	211.20
971.79	211.29
972.08	211.11
972.38	211.18
972.67	211.11
972.96	211.15
973.26	211.10
973.55	211.18
973.85	211.15
974.14	211.12
974.43	211.17
974.73	211.06
975.02	211.06
975.31	211.00
975.61	210.93
975.90	210.78
976.19	210.77
976.49	210.78
976.78	210.76
977.07	210.73
977.37	210.81
977.66	210.85
977.95	210.71
978.24	210.70
978.54	210.79
978.83	210.77
979.12	210.77
979.42	210.74
979.71	210.72
980.00	210.70
980.29	210.76
980.59	210.65
980.88	210.76
981.17	210.75
981.46	210.75
981.76	210.80
982.05	210.98
982.34	210.97
982.63	210.97
982.93	211.06
983.22	211.05
983.51	211.08
983.80	211.06
984.09	211.13
984.39	211.09
984.68	211.04
984.97	211.17
985.26	211.12
985.55	211.22
985.85	211.09
986.14	211.19
986.43	211.21
986.72	211.22
987.01	211.12
987.30	211.07
987.59	211.05
987.89	211.09
988.18	211.00
988.47	210.98
988.76	210.93
989.05	210.87
989.34	210.84
989.63	210.86
989.92	210.87
990.22	210.87
990.51	210.87
990.80	210.74
991.09	210.71
991.38	210.69
991.67	210.63
991.96	210.53
992.25	210.54
992.54	210.45
992.83	210.41
993.12	210.37
993.41	210.45
993.70	210.60
993.99	210.65
994.28	210.66
994.58	210.65
994.87	210.63
995.16	210.62
995.45	210.60
995.74	210.45
996.03	210.45
996.32	210.46
996.61	210.54
996.90	210.51
997.19	210.47
997.48	210.42
997.77	210.40
998.06	210.54
998.34	210.43
998.63	210.45
998.92	210.51
999.21	210.55
999.50	210.56
999.79	210.42
1000.08	210.35
1000.37	210.36
1000.66	210.40
1000.95	210.48
1001.24	210.43
1001.53	210.56
1001.82	210.60
1002.11	210.54
1002.40	210.60
1002.68	210.61
1002.97	210.91
1003.26	210.90
1003.55	210.93
1003.84	210.92
1004.13	210.98
1004.42	211.00
1004.71	210.96
1004.99	211.00
1005.28	211.15
1005.57	211.14
1005.86	211.16
1006.15	211.15
1006.44	211.04
1006.72	211.09
1007.01	211.08
1007.30	211.11
1007.59	211.08
1007.88	211.07
1008.17	211.10
1008.45	210.99
1008.74	210.88
1009.03	210.72
1009.32	210.75
1009.60	210.69
1009.89	210.67
1010.18	210.58
1010.47	210.57
1010.76	210.61
1011.04	210.56
1011.33	210.51
1011.62	210.59
1011.91	210.63
1012.19	210.68
1012.48	210.76
1012.77	210.72
1013.05	210.85
1013.34	210.86
1013.63	210.86
1013.92	210.91
1014.20	210.93
1014.49	211.05
1014.78	211.11
1015.06	210.99
1015.35	210.98
1015.64	211.09
1015.92	211.21
1016.21	211.21
1016.50	211.24
1016.78	211.25
1017.07	211.29
1017.36	211.26
1017.64	211.16
1017.93	211.17
1018.22	211.11
1018.50	211.08
1018.79	211.08
1019.08	210.87
1019.36	210.88
1019.65	210.79
1019.93	210.88
1020.22	210.91
1020.51	211.06
1020.79	211.08
1021.08	209.85
1021.36	210.15
1021.65	210.70
1021.94	209.20
1022.22	210.50
1022.51	210.05
1022.79	212.85
1023.08	211.30
1023.36	215.70
1023.65	211.75
>>>>>End Processed Spectral Data<<<<<
