SpectraSuite Data File
++++++++++++++++++++++++++++++++++++
Date: Mon Feb 25 17:01:29 EST 2013
User: group
Dark Spectrum Present: No
Reference Spectrum Present: No
Number of Sampled Component Spectra: 1
Spectrometers: USB2E7196
Integration Time (usec): 104000 (USB2E7196)
Spectra Averaged: 20 (USB2E7196)
Boxcar Smoothing: 10 (USB2E7196)
Correct for Electrical Dark: No (USB2E7196)
Strobe/Lamp Enabled: No (USB2E7196)
Correct for Detector Non-linearity: No (USB2E7196)
Correct for Stray Light: No (USB2E7196)
Number of Pixels in Processed Spectrum: 2048
>>>>>Begin Processed Spectral Data<<<<<
339.09	0.00
339.48	198.80
339.86	201.10
340.24	202.00
340.63	203.75
341.01	209.25
341.39	205.05
341.78	206.60
342.16	208.95
342.54	208.70
342.93	198.57
343.31	208.59
343.69	209.14
344.07	209.56
344.46	210.06
344.84	210.43
345.22	210.48
345.60	210.77
345.99	210.97
346.37	211.11
346.75	211.16
347.13	211.17
347.52	211.22
347.90	211.33
348.28	211.20
348.66	211.27
349.05	211.13
349.43	211.11
349.81	211.13
350.19	211.08
350.57	211.12
350.96	211.11
351.34	211.10
351.72	211.09
352.10	211.14
352.48	211.06
352.87	211.06
353.25	211.07
353.63	211.09
354.01	211.15
354.39	211.13
354.77	211.17
355.15	211.29
355.54	211.29
355.92	211.25
356.30	211.35
356.68	211.59
357.06	211.62
357.44	211.63
357.82	211.68
358.20	211.78
358.58	211.78
358.97	211.88
359.35	212.03
359.73	212.10
360.11	212.10
360.49	212.18
360.87	212.19
361.25	212.31
361.63	212.43
362.01	212.39
362.39	212.45
362.77	212.55
363.15	212.61
363.53	212.61
363.91	212.61
364.29	212.60
364.67	212.35
365.05	212.41
365.43	212.40
365.81	212.51
366.19	212.65
366.57	212.89
366.95	212.83
367.33	212.75
367.71	212.78
368.09	212.88
368.47	212.83
368.85	212.86
369.23	212.86
369.61	212.73
369.99	212.86
370.37	212.87
370.75	213.04
371.13	212.91
371.51	212.85
371.89	212.95
372.27	212.99
372.65	213.01
373.03	212.97
373.41	212.96
373.78	212.82
374.16	212.66
374.54	212.45
374.92	212.40
375.30	212.44
375.68	212.40
376.06	212.39
376.44	212.36
376.82	212.30
377.19	212.31
377.57	212.29
377.95	212.16
378.33	212.09
378.71	211.80
379.09	211.83
379.47	211.83
379.84	211.71
380.22	211.71
380.60	211.56
380.98	211.50
381.36	211.47
381.73	211.43
382.11	211.43
382.49	211.40
382.87	211.37
383.25	211.29
383.62	211.59
384.00	211.45
384.38	211.45
384.76	211.54
385.13	211.61
385.51	211.61
385.89	211.56
386.27	211.54
386.64	211.51
387.02	211.45
387.40	211.42
387.78	211.39
388.15	211.32
388.53	211.30
388.91	211.34
389.29	211.22
389.66	211.18
390.04	211.09
390.42	211.11
390.79	211.09
391.17	210.99
391.55	210.61
391.92	210.60
392.30	210.58
392.68	210.44
393.05	210.32
393.43	210.27
393.81	210.31
394.18	210.25
394.56	210.25
394.94	210.29
395.31	210.23
395.69	210.30
396.06	210.37
396.44	210.45
396.82	210.34
397.19	210.57
397.57	210.63
397.95	210.70
398.32	210.58
398.70	210.63
399.07	210.82
399.45	210.82
399.82	210.87
400.20	210.85
400.58	210.89
400.95	210.85
401.33	210.97
401.70	211.25
402.08	211.35
402.45	211.43
402.83	211.63
403.20	211.73
403.58	211.75
403.95	211.85
404.33	211.90
404.71	212.06
405.08	212.35
405.46	212.45
405.83	212.61
406.21	212.83
406.58	213.01
406.96	213.16
407.33	213.43
407.70	213.61
408.08	214.23
408.45	214.56
408.83	214.98
409.20	215.20
409.58	215.30
409.95	215.68
410.33	216.11
410.70	216.34
411.08	216.85
411.45	217.35
411.82	217.85
412.20	218.53
412.57	219.31
412.95	219.62
413.32	220.36
413.69	221.07
414.07	221.85
414.44	222.75
414.82	223.58
415.19	224.63
415.56	225.68
415.94	226.55
416.31	227.83
416.68	229.02
417.06	230.52
417.43	231.95
417.81	233.53
418.18	235.16
418.55	237.01
418.93	238.82
419.30	240.81
419.67	242.79
420.04	244.81
420.42	246.93
420.79	249.68
421.16	252.30
421.54	255.10
421.91	257.89
422.28	260.70
422.66	263.80
423.03	266.92
423.40	270.07
423.77	273.42
424.15	276.77
424.52	280.26
424.89	284.17
425.26	287.93
425.64	291.55
426.01	295.49
426.38	299.66
426.75	303.91
427.13	308.21
427.50	312.85
427.87	317.62
428.24	322.43
428.61	326.89
428.99	331.92
429.36	337.23
429.73	342.67
430.10	348.07
430.47	353.60
430.85	359.26
431.22	365.33
431.59	371.96
431.96	378.02
432.33	385.01
432.70	391.66
433.08	399.49
433.45	406.72
433.82	414.05
434.19	422.16
434.56	430.22
434.93	437.92
435.30	445.72
435.68	454.33
436.05	462.76
436.42	471.36
436.79	479.16
437.16	487.62
437.53	496.61
437.90	505.58
438.27	514.52
438.64	523.62
439.01	532.23
439.38	539.67
439.75	547.28
440.13	555.67
440.50	563.70
440.87	570.25
441.24	577.25
441.61	584.93
441.98	590.75
442.35	597.47
442.72	604.24
443.09	610.82
443.46	615.02
443.83	618.04
444.20	620.66
444.57	624.30
444.94	626.46
445.31	628.50
445.68	630.82
446.05	631.97
446.42	631.86
446.79	631.61
447.16	631.14
447.53	630.91
447.90	628.30
448.27	625.67
448.64	621.77
449.01	619.14
449.37	613.84
449.74	608.65
450.11	602.59
450.48	595.68
450.85	588.53
451.22	582.61
451.59	577.06
451.96	571.60
452.33	564.13
452.70	557.39
453.07	549.22
453.43	540.70
453.80	532.71
454.17	524.95
454.54	517.56
454.91	509.86
455.28	502.11
455.65	495.04
456.02	488.07
456.38	482.02
456.75	474.35
457.12	468.13
457.49	461.93
457.86	455.67
458.23	450.63
458.59	444.98
458.96	439.19
459.33	433.97
459.70	428.75
460.07	424.77
460.43	420.00
460.80	415.72
461.17	411.75
461.54	407.57
461.91	403.73
462.27	399.75
462.64	396.21
463.01	392.49
463.38	388.80
463.74	384.85
464.11	381.76
464.48	379.01
464.85	375.89
465.21	373.59
465.58	371.05
465.95	367.91
466.32	365.36
466.68	362.86
467.05	360.46
467.42	358.07
467.78	355.41
468.15	352.98
468.52	351.01
468.88	348.63
469.25	346.53
469.62	344.76
469.98	342.81
470.35	341.14
470.72	339.53
471.08	337.63
471.45	336.16
471.82	334.53
472.18	332.76
472.55	331.49
472.92	329.82
473.28	328.57
473.65	327.24
474.02	325.90
474.38	324.77
474.75	323.75
475.11	322.73
475.48	321.95
475.85	321.16
476.21	320.46
476.58	319.80
476.94	319.26
477.31	318.67
477.67	318.18
478.04	317.61
478.41	317.30
478.77	317.32
479.14	316.92
479.50	316.66
479.87	316.62
480.23	316.46
480.60	316.39
480.96	316.15
481.33	316.50
481.69	316.68
482.06	316.72
482.42	316.68
482.79	316.76
483.15	316.94
483.52	317.38
483.88	317.58
484.25	317.86
484.61	318.22
484.98	318.49
485.34	319.04
485.71	319.69
486.07	320.32
486.44	320.65
486.80	321.36
487.17	322.08
487.53	322.92
487.90	323.96
488.26	325.07
488.62	326.25
488.99	327.09
489.35	328.14
489.72	329.22
490.08	330.49
490.44	331.71
490.81	332.98
491.17	334.12
491.54	335.57
491.90	337.08
492.26	338.68
492.63	340.25
492.99	341.79
493.36	343.43
493.72	345.08
494.08	346.91
494.45	348.78
494.81	350.70
495.17	352.56
495.54	354.45
495.90	356.36
496.26	358.21
496.63	360.30
496.99	362.32
497.35	364.53
497.72	366.75
498.08	368.99
498.44	371.21
498.80	373.56
499.17	375.73
499.53	377.91
499.89	380.21
500.26	382.47
500.62	384.61
500.98	386.94
501.34	389.18
501.71	391.38
502.07	393.51
502.43	395.67
502.79	397.65
503.16	399.71
503.52	401.71
503.88	403.73
504.24	405.66
504.60	407.68
504.97	409.62
505.33	411.34
505.69	413.31
506.05	415.10
506.41	416.88
506.78	418.45
507.14	420.05
507.50	421.48
507.86	422.97
508.22	424.61
508.59	425.95
508.95	427.32
509.31	428.73
509.67	430.06
510.03	431.19
510.39	432.44
510.75	433.63
511.12	434.75
511.48	435.76
511.84	436.80
512.20	437.61
512.56	438.42
512.92	439.42
513.28	440.12
513.64	440.80
514.00	441.47
514.37	442.36
514.73	442.89
515.09	443.45
515.45	443.84
515.81	444.13
516.17	444.41
516.53	444.60
516.89	444.65
517.25	444.75
517.61	445.01
517.97	445.08
518.33	444.92
518.69	444.91
519.05	445.06
519.41	445.02
519.77	445.38
520.13	445.28
520.49	445.07
520.85	444.93
521.21	444.92
521.57	444.78
521.93	444.40
522.29	444.30
522.65	444.09
523.01	444.08
523.37	443.86
523.73	443.79
524.09	443.85
524.45	443.89
524.81	444.05
525.17	444.13
525.53	444.44
525.89	444.66
526.25	444.87
526.61	444.96
526.97	445.10
527.33	445.08
527.68	445.78
528.04	446.21
528.40	446.45
528.76	446.83
529.12	447.32
529.48	448.04
529.84	448.69
530.20	449.43
530.56	450.30
530.91	451.27
531.27	452.10
531.63	452.91
531.99	453.89
532.35	454.70
532.71	455.54
533.07	456.52
533.42	458.08
533.78	459.27
534.14	460.54
534.50	461.84
534.86	463.25
535.21	464.15
535.57	465.50
535.93	466.97
536.29	468.60
536.65	470.24
537.00	471.69
537.36	473.28
537.72	474.86
538.08	476.56
538.44	478.10
538.79	479.90
539.15	481.61
539.51	483.56
539.87	485.62
540.22	487.76
540.58	489.80
540.94	491.53
541.29	493.50
541.65	495.56
542.01	497.83
542.37	500.22
542.72	502.68
543.08	504.99
543.44	507.51
543.79	509.65
544.15	511.99
544.51	514.70
544.87	517.24
545.22	519.78
545.58	522.28
545.94	525.07
546.29	527.60
546.65	530.29
547.01	532.79
547.36	535.31
547.72	538.02
548.07	540.76
548.43	543.28
548.79	546.04
549.14	548.71
549.50	551.36
549.86	553.74
550.21	556.32
550.57	559.18
550.92	561.71
551.28	564.45
551.64	567.12
551.99	569.81
552.35	572.31
552.70	575.00
553.06	577.69
553.41	580.21
553.77	583.21
554.13	586.05
554.48	589.01
554.84	591.78
555.19	594.34
555.55	597.11
555.90	599.75
556.26	602.19
556.61	604.59
556.97	606.87
557.32	609.43
557.68	611.72
558.03	614.08
558.39	616.31
558.74	618.77
559.10	621.19
559.45	623.55
559.81	626.08
560.16	628.44
560.52	630.63
560.87	632.91
561.23	634.70
561.58	637.05
561.94	638.98
562.29	641.00
562.64	643.20
563.00	645.03
563.35	647.07
563.71	649.53
564.06	651.74
564.42	654.31
564.77	656.57
565.12	659.13
565.48	661.52
565.83	663.91
566.19	666.14
566.54	667.97
566.89	669.92
567.25	671.92
567.60	674.04
567.96	676.25
568.31	678.45
568.66	680.56
569.02	682.03
569.37	683.63
569.72	685.38
570.08	686.90
570.43	688.43
570.78	689.93
571.14	690.96
571.49	692.20
571.84	693.17
572.20	694.04
572.55	694.76
572.90	695.30
573.26	696.01
573.61	696.52
573.96	697.35
574.31	697.81
574.67	698.29
575.02	698.37
575.37	698.47
575.72	698.40
576.08	698.48
576.43	698.67
576.78	698.84
577.13	699.08
577.49	699.23
577.84	699.31
578.19	699.37
578.54	699.91
578.90	700.17
579.25	700.25
579.60	700.15
579.95	700.09
580.30	700.10
580.66	700.24
581.01	700.16
581.36	699.91
581.71	699.57
582.06	699.39
582.42	699.39
582.77	698.86
583.12	698.68
583.47	698.60
583.82	698.28
584.17	698.11
584.53	697.97
584.88	697.40
585.23	697.13
585.58	696.75
585.93	695.95
586.28	695.47
586.63	694.99
586.98	694.76
587.34	694.44
587.69	693.82
588.04	693.21
588.39	692.82
588.74	692.27
589.09	692.06
589.44	691.31
589.79	690.71
590.14	690.42
590.49	689.79
590.84	688.91
591.19	688.48
591.54	687.78
591.89	686.57
592.25	686.10
592.60	685.10
592.95	684.06
593.30	682.80
593.65	681.63
594.00	680.29
594.35	680.05
594.70	678.77
595.05	677.89
595.40	676.75
595.75	675.32
596.10	674.24
596.45	673.10
596.80	672.21
597.15	671.18
597.50	669.82
597.85	668.86
598.19	667.70
598.54	666.56
598.89	665.34
599.24	664.33
599.59	663.07
599.94	661.98
600.29	660.96
600.64	660.05
600.99	659.00
601.34	658.16
601.69	656.10
602.04	654.88
602.39	653.57
602.74	652.47
603.08	651.61
603.43	650.69
603.78	649.37
604.13	648.03
604.48	646.65
604.83	645.91
605.18	644.73
605.53	643.59
605.87	642.14
606.22	641.05
606.57	639.69
606.92	638.27
607.27	636.89
607.62	635.38
607.96	634.32
608.31	633.01
608.66	631.57
609.01	630.14
609.36	628.70
609.70	627.23
610.05	625.45
610.40	623.90
610.75	622.04
611.10	620.74
611.44	619.01
611.79	617.43
612.14	615.41
612.49	613.47
612.83	611.76
613.18	609.91
613.53	608.05
613.88	606.16
614.22	604.53
614.57	602.71
614.92	601.08
615.27	599.12
615.61	597.32
615.96	595.43
616.31	593.87
616.65	592.30
617.00	590.44
617.35	588.90
617.70	586.88
618.04	584.85
618.39	582.57
618.74	580.82
619.08	578.83
619.43	577.13
619.78	575.36
620.12	573.42
620.47	571.73
620.82	569.64
621.16	567.79
621.51	565.91
621.85	564.09
622.20	562.12
622.55	560.05
622.89	557.96
623.24	556.10
623.59	553.89
623.93	551.95
624.28	550.17
624.62	548.60
624.97	546.80
625.32	545.06
625.66	543.27
626.01	541.41
626.35	539.55
626.70	537.41
627.04	535.63
627.39	533.78
627.73	531.91
628.08	530.34
628.43	528.46
628.77	526.40
629.12	524.37
629.46	522.63
629.81	520.92
630.15	519.06
630.50	517.17
630.84	515.26
631.19	513.37
631.53	511.56
631.88	509.21
632.22	507.17
632.57	505.51
632.91	503.81
633.26	502.06
633.60	500.31
633.95	498.82
634.29	496.82
634.64	495.22
634.98	493.38
635.32	491.65
635.67	490.12
636.01	488.37
636.36	486.82
636.70	485.20
637.05	483.44
637.39	481.82
637.73	480.26
638.08	478.85
638.42	477.42
638.77	475.76
639.11	474.27
639.45	472.76
639.80	470.89
640.14	469.11
640.49	467.32
640.83	465.50
641.17	463.66
641.52	462.03
641.86	460.16
642.20	458.57
642.55	456.62
642.89	454.69
643.23	453.06
643.58	451.60
643.92	449.66
644.26	447.90
644.61	446.30
644.95	444.61
645.29	442.85
645.64	441.11
645.98	439.22
646.32	437.47
646.66	435.64
647.01	434.12
647.35	432.51
647.69	430.87
648.04	429.51
648.38	427.88
648.72	426.22
649.06	424.59
649.41	422.76
649.75	421.10
650.09	419.67
650.43	418.10
650.78	416.15
651.12	414.50
651.46	412.99
651.80	411.44
652.14	409.86
652.49	408.27
652.83	406.49
653.17	404.75
653.51	403.12
653.85	401.69
654.20	400.07
654.54	398.40
654.88	396.77
655.22	395.00
655.56	393.40
655.90	391.80
656.25	390.26
656.59	388.75
656.93	387.25
657.27	385.75
657.61	384.01
657.95	382.60
658.29	381.24
658.64	379.95
658.98	378.32
659.32	376.46
659.66	375.05
660.00	373.61
660.34	372.30
660.68	370.83
661.02	369.32
661.36	367.88
661.70	366.50
662.05	365.15
662.39	363.88
662.73	362.70
663.07	361.62
663.41	360.38
663.75	359.11
664.09	357.82
664.43	356.35
664.77	355.14
665.11	353.75
665.45	352.42
665.79	351.00
666.13	349.76
666.47	348.66
666.81	347.32
667.15	346.02
667.49	344.96
667.83	343.93
668.17	342.77
668.51	341.57
668.85	340.46
669.19	339.51
669.53	338.23
669.87	336.94
670.21	335.56
670.55	334.41
670.89	333.45
671.23	332.37
671.57	331.35
671.91	330.35
672.25	329.34
672.58	328.47
672.92	327.31
673.26	326.33
673.60	325.42
673.94	324.40
674.28	323.41
674.62	322.44
674.96	321.38
675.30	320.44
675.64	319.50
675.97	318.56
676.31	317.43
676.65	316.54
676.99	315.80
677.33	314.85
677.67	313.84
678.01	312.80
678.34	311.90
678.68	311.08
679.02	310.08
679.36	309.14
679.70	308.12
680.04	307.23
680.37	306.28
680.71	305.33
681.05	304.50
681.39	303.69
681.73	302.70
682.06	301.90
682.40	301.04
682.74	300.24
683.08	299.56
683.42	298.66
683.75	297.87
684.09	296.87
684.43	296.06
684.77	295.24
685.10	294.43
685.44	293.58
685.78	292.66
686.12	291.92
686.45	291.24
686.79	290.44
687.13	289.83
687.46	289.11
687.80	288.45
688.14	287.66
688.48	286.96
688.81	286.33
689.15	285.58
689.49	284.88
689.82	284.14
690.16	283.11
690.50	282.41
690.83	281.65
691.17	280.86
691.51	280.14
691.84	279.47
692.18	278.78
692.52	278.18
692.85	277.64
693.19	277.08
693.52	276.33
693.86	275.60
694.20	274.92
694.53	274.36
694.87	273.68
695.21	273.04
695.54	272.38
695.88	271.66
696.21	270.93
696.55	270.35
696.88	269.75
697.22	269.25
697.56	268.74
697.89	268.11
698.23	267.51
698.56	266.94
698.90	266.45
699.23	265.89
699.57	265.25
699.90	264.60
700.24	263.94
700.58	263.51
700.91	263.07
701.25	262.65
701.58	262.14
701.92	261.68
702.25	261.23
702.59	260.67
702.92	260.10
703.26	259.63
703.59	258.97
703.93	258.69
704.26	258.22
704.60	257.66
704.93	257.19
705.26	256.70
705.60	256.24
705.93	255.67
706.27	255.25
706.60	254.95
706.94	254.69
707.27	254.23
707.61	253.71
707.94	253.25
708.27	252.65
708.61	252.03
708.94	251.53
709.28	251.15
709.61	250.69
709.94	250.44
710.28	250.06
710.61	249.80
710.95	249.09
711.28	248.90
711.61	248.61
711.95	248.35
712.28	248.04
712.61	247.73
712.95	247.61
713.28	247.32
713.61	246.82
713.95	246.32
714.28	245.95
714.61	245.62
714.95	245.21
715.28	244.81
715.61	244.50
715.95	244.10
716.28	243.62
716.61	243.38
716.95	242.88
717.28	242.54
717.61	242.16
717.94	241.93
718.28	241.37
718.61	241.01
718.94	240.53
719.27	240.09
719.61	239.81
719.94	239.39
720.27	239.00
720.60	238.74
720.94	238.47
721.27	238.22
721.60	237.97
721.93	237.74
722.27	237.58
722.60	237.35
722.93	237.07
723.26	236.96
723.59	236.62
723.93	236.50
724.26	236.25
724.59	235.92
724.92	235.69
725.25	235.53
725.59	235.32
725.92	235.20
726.25	235.04
726.58	234.81
726.91	234.58
727.24	234.36
727.57	234.14
727.91	233.80
728.24	233.61
728.57	233.39
728.90	233.20
729.23	232.91
729.56	232.83
729.89	232.65
730.22	232.32
730.55	232.10
730.89	231.87
731.22	231.65
731.55	231.53
731.88	231.33
732.21	231.09
732.54	230.76
732.87	230.58
733.20	230.39
733.53	230.17
733.86	229.91
734.19	229.68
734.52	229.53
734.85	229.61
735.18	229.37
735.51	229.28
735.84	229.12
736.17	229.01
736.50	228.75
736.83	229.04
737.16	228.91
737.49	228.81
737.82	228.62
738.15	228.50
738.48	228.32
738.81	228.13
739.14	227.92
739.47	227.79
739.80	227.69
740.13	227.58
740.46	227.33
740.79	227.17
741.12	226.99
741.45	226.71
741.78	226.41
742.11	226.39
742.44	226.14
742.77	226.01
743.10	225.77
743.43	225.56
743.75	225.01
744.08	225.34
744.41	225.10
744.74	224.94
745.07	224.69
745.40	224.58
745.73	224.62
746.06	224.53
746.39	224.44
746.71	224.20
747.04	224.02
747.37	223.91
747.70	223.88
748.03	223.75
748.36	223.71
748.68	223.60
749.01	223.29
749.34	223.12
749.67	222.99
750.00	222.95
750.33	223.10
750.65	223.00
750.98	222.42
751.31	222.35
751.64	222.21
751.97	222.33
752.29	222.18
752.62	221.85
752.95	221.68
753.28	221.56
753.60	221.47
753.93	221.49
754.26	221.40
754.59	221.07
754.91	220.97
755.24	220.82
755.57	220.66
755.90	220.60
756.22	220.48
756.55	220.30
756.88	220.11
757.20	219.72
757.53	219.49
757.86	219.35
758.19	219.25
758.51	219.18
758.84	218.92
759.17	218.88
759.49	218.90
759.82	219.01
760.15	218.92
760.47	218.80
760.80	218.57
761.13	218.55
761.45	218.54
761.78	218.51
762.11	218.44
762.43	218.33
762.76	218.25
763.08	218.31
763.41	218.31
763.74	218.32
764.06	218.29
764.39	218.22
764.71	218.17
765.04	218.03
765.37	218.01
765.69	217.87
766.02	217.69
766.34	217.53
766.67	217.33
767.00	217.34
767.32	217.47
767.65	217.64
767.97	217.53
768.30	217.55
768.62	217.41
768.95	217.37
769.27	217.35
769.60	217.40
769.92	217.21
770.25	217.06
770.57	216.89
770.90	216.78
771.22	216.76
771.55	216.68
771.87	216.72
772.20	216.61
772.52	216.87
772.85	217.25
773.17	217.20
773.50	217.16
773.82	217.09
774.15	216.85
774.47	216.60
774.80	216.53
775.12	216.43
775.45	216.40
775.77	216.37
776.09	216.30
776.42	216.25
776.74	216.33
777.07	216.29
777.39	216.41
777.72	216.41
778.04	216.35
778.36	216.36
778.69	216.27
779.01	216.31
779.33	215.92
779.66	215.50
779.98	215.45
780.31	215.44
780.63	215.55
780.95	215.59
781.28	215.54
781.60	215.50
781.92	215.44
782.25	215.39
782.57	215.27
782.89	215.22
783.22	215.15
783.54	215.04
783.86	215.00
784.19	214.81
784.51	214.91
784.83	214.86
785.16	214.76
785.48	214.81
785.80	214.71
786.12	214.78
786.45	214.70
786.77	214.71
787.09	214.61
787.42	214.46
787.74	214.48
788.06	214.44
788.38	214.39
788.71	214.34
789.03	214.32
789.35	214.44
789.67	214.38
789.99	214.34
790.32	214.25
790.64	214.27
790.96	214.56
791.28	214.41
791.61	214.34
791.93	214.34
792.25	214.24
792.57	214.36
792.89	214.22
793.21	214.27
793.54	214.16
793.86	214.15
794.18	214.11
794.50	213.93
794.82	213.94
795.14	213.96
795.47	214.05
795.79	214.10
796.11	214.00
796.43	213.92
796.75	213.94
797.07	213.91
797.39	213.81
797.71	213.51
798.04	213.47
798.36	213.58
798.68	213.62
799.00	213.58
799.32	213.43
799.64	213.53
799.96	213.46
800.28	213.52
800.60	213.41
800.92	213.44
801.24	213.40
801.56	213.34
801.89	213.38
802.21	213.27
802.53	213.15
802.85	213.16
803.17	213.39
803.49	213.30
803.81	213.29
804.13	213.29
804.45	213.25
804.77	213.28
805.09	213.13
805.41	212.99
805.73	212.93
806.05	212.84
806.37	212.80
806.69	212.75
807.01	212.73
807.33	212.77
807.65	212.55
807.97	212.74
808.28	212.69
808.60	212.56
808.92	212.58
809.24	212.73
809.56	212.65
809.88	212.46
810.20	212.45
810.52	212.51
810.84	212.42
811.16	212.42
811.48	212.24
811.80	212.38
812.12	212.39
812.43	212.44
812.75	212.53
813.07	212.50
813.39	212.59
813.71	212.55
814.03	212.53
814.35	212.58
814.67	212.39
814.98	212.43
815.30	212.49
815.62	212.42
815.94	212.19
816.26	212.24
816.58	212.22
816.89	212.19
817.21	212.07
817.53	212.13
817.85	212.07
818.17	212.11
818.48	212.05
818.80	212.15
819.12	212.00
819.44	211.87
819.76	211.82
820.07	211.73
820.39	211.65
820.71	211.61
821.03	211.64
821.34	211.62
821.66	211.61
821.98	211.63
822.30	211.58
822.61	211.80
822.93	211.75
823.25	211.72
823.57	211.71
823.88	211.80
824.20	211.80
824.52	211.84
824.83	211.91
825.15	211.84
825.47	211.81
825.79	212.01
826.10	212.02
826.42	212.15
826.74	212.21
827.05	212.31
827.37	212.34
827.69	212.33
828.00	212.41
828.32	212.41
828.64	212.39
828.95	212.61
829.27	212.50
829.58	212.48
829.90	212.55
830.22	212.65
830.53	212.56
830.85	212.51
831.17	212.50
831.48	212.49
831.80	212.49
832.11	212.45
832.43	212.35
832.75	212.38
833.06	212.38
833.38	212.26
833.69	212.19
834.01	212.21
834.32	212.20
834.64	212.12
834.96	212.15
835.27	212.06
835.59	211.91
835.90	211.88
836.22	211.90
836.53	211.78
836.85	211.71
837.16	212.03
837.48	212.06
837.79	212.17
838.11	212.14
838.42	212.08
838.74	212.06
839.05	211.98
839.37	211.91
839.68	211.80
840.00	211.81
840.31	211.85
840.63	211.78
840.94	211.76
841.26	211.72
841.57	211.64
841.88	211.66
842.20	211.54
842.51	211.44
842.83	211.36
843.14	211.71
843.46	211.65
843.77	211.50
844.08	211.47
844.40	211.34
844.71	211.28
845.03	211.36
845.34	211.39
845.65	211.40
845.97	211.40
846.28	211.36
846.60	211.36
846.91	211.30
847.22	211.29
847.54	211.34
847.85	211.31
848.16	211.30
848.48	211.23
848.79	211.43
849.10	211.50
849.42	211.53
849.73	211.17
850.04	211.22
850.36	211.14
850.67	211.20
850.98	211.18
851.30	211.22
851.61	211.15
851.92	211.10
852.23	211.17
852.55	211.21
852.86	211.28
853.17	211.32
853.49	211.38
853.80	211.42
854.11	211.37
854.42	211.44
854.74	211.41
855.05	211.47
855.36	211.31
855.67	211.35
855.99	211.35
856.30	211.77
856.61	211.75
856.92	211.69
857.23	211.65
857.55	211.59
857.86	211.57
858.17	211.64
858.48	211.55
858.79	211.48
859.11	211.50
859.42	211.51
859.73	211.41
860.04	211.42
860.35	211.36
860.66	211.36
860.98	211.31
861.29	211.36
861.60	211.31
861.91	211.38
862.22	211.34
862.53	211.31
862.84	210.90
863.16	210.98
863.47	210.91
863.78	210.91
864.09	210.94
864.40	210.98
864.71	210.95
865.02	211.10
865.33	211.05
865.64	210.98
865.95	210.95
866.27	211.16
866.58	211.17
866.89	211.16
867.20	211.09
867.51	211.07
867.82	211.11
868.13	211.25
868.44	211.16
868.75	211.22
869.06	211.21
869.37	211.22
869.68	211.11
869.99	211.22
870.30	211.23
870.61	211.28
870.92	211.15
871.23	211.09
871.54	211.12
871.85	211.19
872.16	211.30
872.47	211.26
872.78	211.16
873.09	211.17
873.40	211.12
873.71	211.12
874.02	211.17
874.33	211.10
874.64	210.99
874.95	211.11
875.26	211.06
875.56	211.06
875.87	211.06
876.18	210.99
876.49	211.25
876.80	211.24
877.11	211.22
877.42	211.31
877.73	211.31
878.04	211.21
878.35	211.23
878.66	211.23
878.96	211.20
879.27	211.11
879.58	211.07
879.89	211.13
880.20	211.30
880.51	211.32
880.82	211.34
881.12	211.35
881.43	211.19
881.74	211.13
882.05	211.06
882.36	211.11
882.67	211.17
882.97	210.78
883.28	210.76
883.59	210.76
883.90	210.81
884.21	210.87
884.51	210.83
884.82	210.76
885.13	210.71
885.44	210.65
885.74	210.66
886.05	210.61
886.36	210.60
886.67	210.41
886.98	210.55
887.28	210.51
887.59	210.48
887.90	210.53
888.20	210.55
888.51	210.63
888.82	210.57
889.13	210.63
889.43	210.95
889.74	210.94
890.05	210.88
890.35	210.86
890.66	210.76
890.97	210.71
891.28	210.71
891.58	210.73
891.89	210.76
892.20	210.71
892.50	210.70
892.81	210.65
893.12	210.71
893.42	210.55
893.73	210.57
894.04	210.58
894.34	210.62
894.65	210.57
894.95	210.55
895.26	210.53
895.57	210.64
895.87	210.34
896.18	210.42
896.48	210.44
896.79	210.36
897.10	210.48
897.40	210.61
897.71	210.69
898.01	210.62
898.32	210.69
898.63	210.74
898.93	210.79
899.24	210.87
899.54	210.82
899.85	210.74
900.15	210.74
900.46	210.77
900.76	210.77
901.07	210.82
901.38	210.77
901.68	210.87
901.99	210.68
902.29	210.66
902.60	210.61
902.90	210.61
903.21	210.63
903.51	210.64
903.82	210.67
904.12	210.58
904.43	210.66
904.73	210.59
905.03	210.54
905.34	210.88
905.64	210.80
905.95	210.78
906.25	210.88
906.56	210.89
906.86	210.90
907.17	210.86
907.47	210.86
907.77	210.86
908.08	210.83
908.38	210.90
908.69	210.91
908.99	211.03
909.30	211.06
909.60	211.07
909.90	210.99
910.21	210.85
910.51	210.88
910.81	210.89
911.12	210.94
911.42	211.03
911.73	210.61
912.03	210.65
912.33	210.75
912.64	210.74
912.94	210.64
913.24	210.53
913.55	210.58
913.85	210.54
914.15	210.63
914.46	210.62
914.76	210.55
915.06	210.52
915.37	210.38
915.67	210.36
915.97	210.43
916.27	210.36
916.58	210.42
916.88	210.37
917.18	210.27
917.49	210.44
917.79	210.41
918.09	210.51
918.39	210.56
918.70	210.57
919.00	210.57
919.30	210.78
919.60	210.83
919.91	210.75
920.21	210.76
920.51	210.62
920.81	210.68
921.12	210.72
921.42	210.75
921.72	210.82
922.02	210.83
922.32	210.85
922.63	210.87
922.93	211.03
923.23	211.06
923.53	211.06
923.83	210.87
924.13	210.95
924.44	211.00
924.74	211.06
925.04	211.13
925.34	211.10
925.64	211.01
925.94	211.01
926.24	211.21
926.55	211.25
926.85	211.33
927.15	211.31
927.45	211.37
927.75	211.41
928.05	211.40
928.35	211.36
928.65	211.39
928.95	211.50
929.26	211.38
929.56	211.47
929.86	211.57
930.16	211.51
930.46	211.40
930.76	211.37
931.06	211.26
931.36	211.20
931.66	211.23
931.96	211.25
932.26	211.29
932.56	211.13
932.86	211.15
933.16	211.16
933.46	211.15
933.76	211.12
934.06	211.20
934.36	211.29
934.66	211.26
934.96	211.22
935.26	211.15
935.56	211.20
935.86	211.15
936.16	211.07
936.46	211.14
936.76	211.12
937.06	211.11
937.36	211.09
937.66	211.05
937.96	211.04
938.26	210.96
938.56	210.91
938.86	210.92
939.16	210.97
939.46	211.04
939.76	211.02
940.06	210.96
940.35	210.89
940.65	210.74
940.95	210.77
941.25	210.68
941.55	210.69
941.85	210.65
942.15	210.70
942.45	210.81
942.75	210.73
943.04	210.80
943.34	210.86
943.64	210.90
943.94	210.89
944.24	210.98
944.54	211.02
944.84	211.01
945.13	211.00
945.43	210.94
945.73	210.90
946.03	210.91
946.33	210.94
946.62	210.91
946.92	210.92
947.22	211.03
947.52	211.07
947.82	211.13
948.11	211.16
948.41	211.13
948.71	211.02
949.01	211.07
949.31	211.11
949.60	211.01
949.90	211.00
950.20	210.96
950.50	210.89
950.79	210.82
951.09	210.87
951.39	210.93
951.69	210.89
951.98	211.10
952.28	211.07
952.58	211.11
952.87	211.09
953.17	211.10
953.47	211.05
953.76	211.05
954.06	210.96
954.36	210.91
954.66	210.85
954.95	211.00
955.25	211.06
955.55	211.05
955.84	210.99
956.14	211.01
956.44	211.03
956.73	210.94
957.03	210.99
957.32	211.01
957.62	210.96
957.92	211.01
958.21	210.87
958.51	211.30
958.81	211.25
959.10	211.30
959.40	211.43
959.69	211.49
959.99	211.57
960.29	211.63
960.58	211.57
960.88	211.80
961.17	211.80
961.47	211.85
961.76	211.77
962.06	211.90
962.36	211.85
962.65	211.89
962.95	211.99
963.24	211.97
963.54	211.96
963.83	211.93
964.13	211.91
964.42	211.77
964.72	211.49
965.01	211.51
965.31	211.51
965.60	211.44
965.90	211.63
966.19	211.48
966.49	211.49
966.78	211.46
967.08	211.27
967.37	211.17
967.67	211.09
967.96	211.25
968.26	211.19
968.55	211.31
968.85	211.29
969.14	211.30
969.43	211.23
969.73	211.19
970.02	211.20
970.32	211.15
970.61	211.21
970.91	211.03
971.20	210.97
971.49	210.94
971.79	210.91
972.08	210.61
972.38	210.67
972.67	210.65
972.96	210.72
973.26	210.66
973.55	210.75
973.85	210.79
974.14	210.65
974.43	210.73
974.73	210.58
975.02	210.56
975.31	210.57
975.61	210.66
975.90	210.66
976.19	210.64
976.49	210.74
976.78	210.75
977.07	210.83
977.37	210.92
977.66	210.92
977.95	210.95
978.24	211.00
978.54	211.05
978.83	210.98
979.12	211.04
979.42	211.07
979.71	210.97
980.00	210.91
980.29	210.92
980.59	210.87
980.88	211.01
981.17	211.00
981.46	210.97
981.76	210.91
982.05	211.05
982.34	211.10
982.63	211.09
982.93	211.05
983.22	211.08
983.51	211.06
983.80	211.17
984.09	211.13
984.39	211.12
984.68	211.13
984.97	211.17
985.26	211.10
985.55	211.18
985.85	211.21
986.14	211.23
986.43	211.27
986.72	211.23
987.01	211.17
987.30	211.20
987.59	211.14
987.89	211.12
988.18	211.01
988.47	210.99
988.76	210.97
989.05	210.94
989.34	210.91
989.63	211.00
989.92	210.92
990.22	210.90
990.51	210.91
990.80	210.76
991.09	210.82
991.38	210.86
991.67	210.80
991.96	210.76
992.25	210.82
992.54	210.80
992.83	210.81
993.12	210.75
993.41	210.77
993.70	211.01
993.99	211.15
994.28	211.19
994.58	211.19
994.87	211.19
995.16	211.22
995.45	211.14
995.74	210.95
996.03	210.96
996.32	211.05
996.61	211.14
996.90	211.21
997.19	211.14
997.48	211.14
997.77	211.07
998.06	211.09
998.34	211.02
998.63	210.97
998.92	210.93
999.21	211.00
999.50	210.99
999.79	210.83
1000.08	210.80
1000.37	210.76
1000.66	210.73
1000.95	210.72
1001.24	210.73
1001.53	210.84
1001.82	210.83
1002.11	210.74
1002.40	210.70
1002.68	210.68
1002.97	210.91
1003.26	210.93
1003.55	210.85
1003.84	210.93
1004.13	211.00
1004.42	211.02
1004.71	211.04
1004.99	211.04
1005.28	211.05
1005.57	211.10
1005.86	211.08
1006.15	211.05
1006.44	211.03
1006.72	211.09
1007.01	211.11
1007.30	211.12
1007.59	211.02
1007.88	211.02
1008.17	211.08
1008.45	211.03
1008.74	210.91
1009.03	210.80
1009.32	210.74
1009.60	210.79
1009.89	210.70
1010.18	210.57
1010.47	210.52
1010.76	210.55
1011.04	210.57
1011.33	210.69
1011.62	210.69
1011.91	210.69
1012.19	210.70
1012.48	210.74
1012.77	210.71
1013.05	210.86
1013.34	210.86
1013.63	210.92
1013.92	211.00
1014.20	210.92
1014.49	210.97
1014.78	211.03
1015.06	210.89
1015.35	210.97
1015.64	210.98
1015.92	211.13
1016.21	211.17
1016.50	211.19
1016.78	211.23
1017.07	211.26
1017.36	211.13
1017.64	211.09
1017.93	211.11
1018.22	211.11
1018.50	211.08
1018.79	211.08
1019.08	210.93
1019.36	211.00
1019.65	210.97
1019.93	211.03
1020.22	211.17
1020.51	211.38
1020.79	211.29
1021.08	210.85
1021.36	210.50
1021.65	211.00
1021.94	211.20
1022.22	212.05
1022.51	210.80
1022.79	212.00
1023.08	212.20
1023.36	215.70
1023.65	209.20
>>>>>End Processed Spectral Data<<<<<
