SpectraSuite Data File
++++++++++++++++++++++++++++++++++++
Date: Mon Feb 25 17:03:12 EST 2013
User: group
Dark Spectrum Present: No
Reference Spectrum Present: No
Number of Sampled Component Spectra: 1
Spectrometers: USB2E7196
Integration Time (usec): 104000 (USB2E7196)
Spectra Averaged: 20 (USB2E7196)
Boxcar Smoothing: 10 (USB2E7196)
Correct for Electrical Dark: No (USB2E7196)
Strobe/Lamp Enabled: No (USB2E7196)
Correct for Detector Non-linearity: No (USB2E7196)
Correct for Stray Light: No (USB2E7196)
Number of Pixels in Processed Spectrum: 2048
>>>>>Begin Processed Spectral Data<<<<<
339.09	0.00
339.48	198.40
339.86	199.95
340.24	201.75
340.63	202.60
341.01	208.95
341.39	206.05
341.78	207.10
342.16	209.00
342.54	209.25
342.93	198.15
343.31	208.11
343.69	208.69
344.07	209.20
344.46	209.70
344.84	210.04
345.22	210.11
345.60	210.42
345.99	210.60
346.37	210.66
346.75	210.68
347.13	210.78
347.52	210.85
347.90	211.07
348.28	211.01
348.66	211.07
349.05	211.03
349.43	211.05
349.81	211.04
350.19	211.03
350.57	211.06
350.96	211.19
351.34	211.31
351.72	211.35
352.10	211.40
352.48	211.38
352.87	211.44
353.25	211.46
353.63	211.41
354.01	211.49
354.39	211.68
354.77	211.80
355.15	211.99
355.54	212.09
355.92	212.02
356.30	212.13
356.68	212.37
357.06	212.43
357.44	212.43
357.82	212.52
358.20	212.60
358.58	212.69
358.97	212.77
359.35	212.90
359.73	212.99
360.11	213.01
360.49	213.07
360.87	213.19
361.25	213.35
361.63	213.55
362.01	213.59
362.39	213.48
362.77	213.51
363.15	213.46
363.53	213.45
363.91	213.46
364.29	213.51
364.67	213.27
365.05	213.32
365.43	213.35
365.81	213.32
366.19	213.50
366.57	213.63
366.95	213.59
367.33	213.50
367.71	213.53
368.09	213.61
368.47	213.54
368.85	213.48
369.23	213.45
369.61	213.29
369.99	213.37
370.37	213.45
370.75	213.65
371.13	213.63
371.51	213.55
371.89	213.54
372.27	213.49
372.65	213.45
373.03	213.42
373.41	213.38
373.78	213.38
374.16	213.12
374.54	212.85
374.92	212.82
375.30	212.85
375.68	212.68
376.06	212.65
376.44	212.61
376.82	212.57
377.19	212.50
377.57	212.44
377.95	212.26
378.33	212.18
378.71	211.87
379.09	211.82
379.47	211.79
379.84	211.66
380.22	211.58
380.60	211.47
380.98	211.45
381.36	211.38
381.73	211.19
382.11	211.27
382.49	211.32
382.87	211.23
383.25	211.15
383.62	211.52
384.00	211.43
384.38	211.41
384.76	211.48
385.13	211.62
385.51	211.57
385.89	211.48
386.27	211.43
386.64	211.42
387.02	211.39
387.40	211.32
387.78	211.33
388.15	211.31
388.53	211.24
388.91	211.13
389.29	211.10
389.66	211.17
390.04	211.07
390.42	211.04
390.79	211.01
391.17	210.93
391.55	210.65
391.92	210.52
392.30	210.54
392.68	210.41
393.05	210.31
393.43	210.28
393.81	210.30
394.18	210.23
394.56	210.32
394.94	210.37
395.31	210.32
395.69	210.48
396.06	210.58
396.44	210.65
396.82	210.60
397.19	210.75
397.57	210.68
397.95	210.77
398.32	210.68
398.70	210.77
399.07	210.83
399.45	210.78
399.82	210.89
400.20	210.86
400.58	210.86
400.95	210.74
401.33	210.87
401.70	211.16
402.08	211.21
402.45	211.15
402.83	211.25
403.20	211.43
403.58	211.39
403.95	211.50
404.33	211.63
404.71	211.80
405.08	212.09
405.46	212.29
405.83	212.39
406.21	212.58
406.58	212.70
406.96	212.83
407.33	213.01
407.70	213.14
408.08	213.70
408.45	214.02
408.83	214.44
409.20	214.60
409.58	214.65
409.95	214.99
410.33	215.39
410.70	215.58
411.08	216.01
411.45	216.47
411.82	216.77
412.20	217.35
412.57	217.99
412.95	218.19
413.32	218.77
413.69	219.26
414.07	219.90
414.44	220.63
414.82	221.34
415.19	222.16
415.56	222.97
415.94	223.69
416.31	224.73
416.68	225.66
417.06	226.83
417.43	227.97
417.81	229.30
418.18	230.57
418.55	231.99
418.93	233.47
419.30	235.02
419.67	236.72
420.04	238.38
420.42	240.05
420.79	242.30
421.16	244.45
421.54	246.80
421.91	249.11
422.28	251.36
422.66	253.90
423.03	256.48
423.40	259.10
423.77	261.65
424.15	264.37
424.52	267.30
424.89	270.42
425.26	273.46
425.64	276.33
426.01	279.51
426.38	282.87
426.75	286.17
427.13	289.65
427.50	293.24
427.87	297.06
428.24	300.91
428.61	304.40
428.99	308.44
429.36	312.67
429.73	316.96
430.10	321.32
430.47	325.87
430.85	330.38
431.22	335.32
431.59	340.69
431.96	345.60
432.33	351.04
432.70	356.50
433.08	362.79
433.45	368.81
433.82	374.78
434.19	381.41
434.56	388.01
434.93	394.35
435.30	400.70
435.68	407.66
436.05	414.60
436.42	421.42
436.79	427.77
437.16	434.65
437.53	441.96
437.90	449.13
438.27	456.10
438.64	463.49
439.01	470.35
439.38	476.53
439.75	482.58
440.13	489.42
440.50	495.91
440.87	501.32
441.24	506.75
441.61	512.93
441.98	517.48
442.35	522.71
442.72	527.90
443.09	533.21
443.46	536.48
443.83	538.79
444.20	541.14
444.57	543.96
444.94	545.67
445.31	547.27
445.68	549.00
446.05	550.00
446.42	549.72
446.79	549.40
447.16	548.89
447.53	548.74
447.90	546.60
448.27	544.37
448.64	541.15
449.01	539.12
449.37	534.80
449.74	530.70
450.11	525.97
450.48	520.58
450.85	514.81
451.22	510.04
451.59	505.40
451.96	500.85
452.33	494.81
452.70	489.24
453.07	482.67
453.43	475.79
453.80	469.35
454.17	463.14
454.54	457.23
454.91	450.81
455.28	444.54
455.65	438.78
456.02	433.32
456.38	428.35
456.75	422.13
457.12	416.90
457.49	411.84
457.86	406.66
458.23	402.39
458.59	397.72
458.96	393.07
459.33	388.93
459.70	384.79
460.07	381.48
460.43	377.70
460.80	374.00
461.17	370.96
461.54	367.70
461.91	364.62
462.27	361.39
462.64	358.68
463.01	355.73
463.38	352.91
463.74	349.64
464.11	347.12
464.48	344.92
464.85	342.58
465.21	340.85
465.58	338.80
465.95	336.28
466.32	334.26
466.68	332.09
467.05	330.19
467.42	328.18
467.78	326.04
468.15	324.12
468.52	322.83
468.88	320.77
469.25	318.94
469.62	317.52
469.98	316.09
470.35	314.63
470.72	313.23
471.08	311.59
471.45	310.35
471.82	309.04
472.18	307.59
472.55	306.51
472.92	305.12
473.28	304.15
473.65	303.17
474.02	302.20
474.38	301.47
474.75	300.66
475.11	299.89
475.48	299.25
475.85	298.52
476.21	297.81
476.58	297.33
476.94	296.92
477.31	296.40
477.67	295.89
478.04	295.58
478.41	295.40
478.77	295.51
479.14	295.15
479.50	294.99
479.87	294.90
480.23	294.82
480.60	294.65
480.96	294.47
481.33	294.63
481.69	294.65
482.06	294.61
482.42	294.65
482.79	294.62
483.15	294.75
483.52	295.07
483.88	295.16
484.25	295.27
484.61	295.53
484.98	295.75
485.34	296.18
485.71	296.54
486.07	296.83
486.44	296.90
486.80	297.34
487.17	297.75
487.53	298.31
487.90	298.97
488.26	299.84
488.62	300.68
488.99	301.34
489.35	302.12
489.72	302.97
490.08	303.76
490.44	304.61
490.81	305.57
491.17	306.54
491.54	307.63
491.90	308.85
492.26	309.97
492.63	311.12
492.99	312.20
493.36	313.37
493.72	314.74
494.08	316.04
494.45	317.50
494.81	318.97
495.17	320.44
495.54	321.89
495.90	323.27
496.26	324.69
496.63	326.28
496.99	327.78
497.35	329.19
497.72	330.80
498.08	332.45
498.44	334.06
498.80	335.67
499.17	337.23
499.53	338.70
499.89	340.27
500.26	341.89
500.62	343.42
500.98	345.01
501.34	346.53
501.71	348.19
502.07	349.69
502.43	351.09
502.79	352.42
503.16	353.65
503.52	354.98
503.88	356.22
504.24	357.53
504.60	358.85
504.97	360.28
505.33	361.51
505.69	362.90
506.05	364.17
506.41	365.23
506.78	366.30
507.14	367.30
507.50	368.29
507.86	369.26
508.22	370.16
508.59	371.02
508.95	371.75
509.31	372.60
509.67	373.26
510.03	374.00
510.39	374.73
510.75	375.50
511.12	376.08
511.48	376.62
511.84	376.95
512.20	377.28
512.56	377.54
512.92	377.92
513.28	378.12
513.64	378.37
514.00	378.66
514.37	378.87
514.73	379.17
515.09	379.39
515.45	379.50
515.81	379.55
516.17	379.55
516.53	379.55
516.89	379.26
517.25	379.31
517.61	379.26
517.97	379.10
518.33	378.95
518.69	378.97
519.05	378.86
519.41	378.90
519.77	379.16
520.13	379.09
520.49	378.87
520.85	378.69
521.21	378.65
521.57	378.60
521.93	378.42
522.29	378.47
522.65	378.17
523.01	378.11
523.37	378.10
523.73	378.20
524.09	378.33
524.45	378.45
524.81	378.60
525.17	378.92
525.53	379.27
525.89	379.52
526.25	379.89
526.61	380.23
526.97	380.50
527.33	380.61
527.68	381.47
528.04	382.08
528.40	382.66
528.76	383.24
529.12	383.90
529.48	384.76
529.84	385.44
530.20	386.46
530.56	387.38
530.91	388.30
531.27	389.37
531.63	390.51
531.99	391.71
532.35	392.76
532.71	393.82
533.07	395.04
533.42	396.75
533.78	397.87
534.14	399.43
534.50	400.79
534.86	402.53
535.21	403.65
535.57	405.37
535.93	406.98
536.29	408.70
536.65	410.31
537.00	411.94
537.36	413.65
537.72	415.44
538.08	417.35
538.44	419.31
538.79	421.25
539.15	423.09
539.51	425.08
539.87	427.16
540.22	429.34
540.58	431.68
540.94	433.67
541.29	435.93
541.65	437.89
542.01	440.46
542.37	442.81
542.72	445.28
543.08	447.55
543.44	450.08
543.79	452.30
544.15	454.83
544.51	457.67
544.87	460.31
545.22	462.99
545.58	465.66
545.94	468.33
546.29	470.95
546.65	473.72
547.01	476.45
547.36	479.25
547.72	481.96
548.07	484.50
548.43	486.96
548.79	489.68
549.14	492.50
549.50	495.14
549.86	497.54
550.21	500.43
550.57	503.34
550.92	506.02
551.28	508.85
551.64	511.58
551.99	514.20
552.35	516.93
552.70	519.40
553.06	521.94
553.41	524.56
553.77	527.37
554.13	529.99
554.48	532.75
554.84	535.44
555.19	538.05
555.55	540.85
555.90	543.30
556.26	545.81
556.61	548.37
556.97	550.66
557.32	553.13
557.68	555.39
558.03	557.70
558.39	559.93
558.74	562.40
559.10	564.71
559.45	566.96
559.81	569.28
560.16	571.71
560.52	574.02
560.87	576.37
561.23	578.31
561.58	580.75
561.94	582.79
562.29	584.84
562.64	586.95
563.00	588.80
563.35	591.12
563.71	593.43
564.06	595.52
564.42	597.74
564.77	599.83
565.12	601.84
565.48	603.95
565.83	606.11
566.19	607.96
566.54	609.95
566.89	611.64
567.25	613.61
567.60	615.55
567.96	617.60
568.31	619.42
568.66	621.25
569.02	622.58
569.37	623.95
569.72	625.46
570.08	626.83
570.43	628.18
570.78	629.20
571.14	630.20
571.49	631.21
571.84	632.36
572.20	633.45
572.55	634.35
572.90	635.01
573.26	635.63
573.61	636.41
573.96	637.02
574.31	637.53
574.67	637.92
575.02	638.10
575.37	638.28
575.72	638.37
576.08	638.65
576.43	638.99
576.78	639.45
577.13	639.65
577.49	639.91
577.84	640.10
578.19	640.51
578.54	640.92
578.90	641.40
579.25	641.43
579.60	641.56
579.95	641.61
580.30	641.70
580.66	641.97
581.01	641.87
581.36	641.92
581.71	642.13
582.06	642.18
582.42	642.32
582.77	642.12
583.12	642.25
583.47	642.40
583.82	642.35
584.17	642.17
584.53	642.20
584.88	642.03
585.23	642.12
585.58	642.02
585.93	641.78
586.28	641.59
586.63	641.51
586.98	641.33
587.34	641.39
587.69	641.12
588.04	640.87
588.39	640.76
588.74	640.30
589.09	640.20
589.44	639.56
589.79	639.12
590.14	638.98
590.49	638.35
590.84	637.68
591.19	637.08
591.54	636.60
591.89	635.80
592.25	635.41
592.60	634.50
592.95	633.74
593.30	632.74
593.65	631.72
594.00	630.79
594.35	630.84
594.70	629.89
595.05	629.13
595.40	628.33
595.75	627.25
596.10	626.41
596.45	625.41
596.80	624.95
597.15	624.34
597.50	623.19
597.85	622.59
598.19	621.63
598.54	620.92
598.89	620.05
599.24	619.46
599.59	618.50
599.94	617.78
600.29	617.03
600.64	616.20
600.99	615.31
601.34	614.49
601.69	612.67
602.04	611.68
602.39	610.65
602.74	609.67
603.08	609.17
603.43	608.45
603.78	607.60
604.13	606.49
604.48	605.56
604.83	604.90
605.18	604.01
605.53	603.26
605.87	602.33
606.22	601.53
606.57	600.44
606.92	599.44
607.27	598.31
607.62	597.17
607.96	596.34
608.31	595.51
608.66	594.32
609.01	593.24
609.36	592.09
609.70	590.98
610.05	589.66
610.40	588.28
610.75	586.98
611.10	585.81
611.44	584.43
611.79	582.89
612.14	581.48
612.49	579.78
612.83	578.31
613.18	576.79
613.53	575.20
613.88	573.41
614.22	571.79
614.57	570.28
614.92	568.89
615.27	567.32
615.61	565.73
615.96	564.30
616.31	562.84
616.65	561.50
617.00	560.04
617.35	558.66
617.70	557.09
618.04	555.45
618.39	553.66
618.74	552.19
619.08	550.63
619.43	548.91
619.78	547.47
620.12	545.88
620.47	544.33
620.82	542.59
621.16	541.10
621.51	539.65
621.85	538.05
622.20	536.29
622.55	534.54
622.89	532.78
623.24	531.14
623.59	529.35
623.93	527.60
624.28	525.95
624.62	524.63
624.97	523.07
625.32	521.47
625.66	520.02
626.01	518.33
626.35	516.80
626.70	515.15
627.04	513.79
627.39	512.21
627.73	510.74
628.08	509.33
628.43	507.65
628.77	505.79
629.12	504.24
629.46	502.74
629.81	501.11
630.15	499.51
630.50	497.80
630.84	496.30
631.19	494.64
631.53	493.03
631.88	490.83
632.22	489.01
632.57	487.58
632.91	485.92
633.26	484.46
633.60	482.76
633.95	481.28
634.29	479.37
634.64	477.80
634.98	475.97
635.32	474.51
635.67	473.07
636.01	471.63
636.36	469.88
636.70	468.41
637.05	466.92
637.39	465.50
637.73	464.09
638.08	462.76
638.42	461.37
638.77	459.86
639.11	458.56
639.45	457.11
639.80	455.30
640.14	453.57
640.49	451.84
640.83	450.29
641.17	448.71
641.52	447.17
641.86	445.41
642.20	443.93
642.55	441.98
642.89	440.46
643.23	438.90
643.58	437.61
643.92	435.91
644.26	434.53
644.61	432.99
644.95	431.41
645.29	429.57
645.64	428.05
645.98	426.50
646.32	425.02
646.66	423.37
647.01	421.91
647.35	420.45
647.69	418.95
648.04	417.49
648.38	415.99
648.72	414.55
649.06	413.07
649.41	411.51
649.75	410.06
650.09	408.58
650.43	407.02
650.78	405.32
651.12	403.83
651.46	402.20
651.80	400.68
652.14	399.28
652.49	397.94
652.83	396.40
653.17	394.82
653.51	393.27
653.85	391.84
654.20	390.43
654.54	388.90
654.88	387.39
655.22	386.05
655.56	384.46
655.90	382.90
656.25	381.44
656.59	380.05
656.93	378.75
657.27	377.40
657.61	375.85
657.95	374.50
658.29	373.07
658.64	371.70
658.98	370.30
659.32	368.78
659.66	367.31
660.00	365.87
660.34	364.46
660.68	363.02
661.02	361.64
661.36	360.23
661.70	358.93
662.05	357.66
662.39	356.35
662.73	355.27
663.07	354.16
663.41	352.90
663.75	351.56
664.09	350.23
664.43	348.84
664.77	347.65
665.11	346.44
665.45	345.23
665.79	344.05
666.13	342.81
666.47	341.56
666.81	340.44
667.15	339.20
667.49	338.21
667.83	337.19
668.17	336.19
668.51	335.07
668.85	334.05
669.19	333.09
669.53	331.85
669.87	330.63
670.21	329.48
670.55	328.41
670.89	327.51
671.23	326.60
671.57	325.68
671.91	324.81
672.25	323.78
672.58	322.87
672.92	321.80
673.26	320.90
673.60	319.91
673.94	318.94
674.28	318.02
674.62	317.14
674.96	316.20
675.30	315.16
675.64	314.30
675.97	313.37
676.31	312.39
676.65	311.54
676.99	310.80
677.33	309.83
677.67	308.97
678.01	307.96
678.34	307.02
678.68	306.15
679.02	305.14
679.36	304.27
679.70	303.35
680.04	302.52
680.37	301.64
680.71	300.91
681.05	300.07
681.39	299.28
681.73	298.33
682.06	297.47
682.40	296.73
682.74	295.97
683.08	295.29
683.42	294.34
683.75	293.60
684.09	292.70
684.43	291.97
684.77	291.17
685.10	290.41
685.44	289.63
685.78	288.86
686.12	288.23
686.45	287.47
686.79	286.72
687.13	286.04
687.46	285.28
687.80	284.64
688.14	283.92
688.48	283.22
688.81	282.45
689.15	281.85
689.49	281.10
689.82	280.41
690.16	279.57
690.50	278.91
690.83	278.07
691.17	277.36
691.51	276.71
691.84	276.08
692.18	275.46
692.52	274.75
692.85	274.14
693.19	273.67
693.52	273.08
693.86	272.42
694.20	271.79
694.53	271.19
694.87	270.49
695.21	269.87
695.54	269.25
695.88	268.57
696.21	267.81
696.55	267.22
696.88	266.55
697.22	265.92
697.56	265.50
697.89	264.94
698.23	264.41
698.56	263.81
698.90	263.34
699.23	262.77
699.57	262.31
699.90	261.71
700.24	260.93
700.58	260.40
700.91	259.93
701.25	259.67
701.58	259.24
701.92	258.71
702.25	258.28
702.59	257.75
702.92	257.36
703.26	256.90
703.59	256.49
703.93	256.33
704.26	255.90
704.60	255.42
704.93	255.02
705.26	254.60
705.60	254.15
705.93	253.58
706.27	253.23
706.60	252.84
706.94	252.52
707.27	252.14
707.61	251.69
707.94	251.25
708.27	250.61
708.61	250.08
708.94	249.75
709.28	249.32
709.61	248.91
709.94	248.56
710.28	248.23
710.61	247.84
710.95	247.17
711.28	247.02
711.61	246.59
711.95	246.27
712.28	245.88
712.61	245.59
712.95	245.37
713.28	245.16
713.61	244.75
713.95	244.30
714.28	244.01
714.61	243.65
714.95	243.29
715.28	242.79
715.61	242.48
715.95	242.13
716.28	241.72
716.61	241.41
716.95	241.02
717.28	240.71
717.61	240.42
717.94	240.09
718.28	239.53
718.61	239.26
718.94	238.92
719.27	238.61
719.61	238.35
719.94	238.04
720.27	237.56
720.60	237.26
720.94	237.01
721.27	236.66
721.60	236.50
721.93	236.26
722.27	236.27
722.60	236.10
722.93	235.89
723.26	235.72
723.59	235.55
723.93	235.41
724.26	235.25
724.59	234.95
724.92	234.75
725.25	234.68
725.59	234.52
725.92	234.38
726.25	234.16
726.58	233.92
726.91	233.67
727.24	233.55
727.57	233.39
727.91	233.12
728.24	232.95
728.57	232.76
728.90	232.54
729.23	232.23
729.56	232.18
729.89	231.92
730.22	231.64
730.55	231.45
730.89	231.21
731.22	231.00
731.55	230.80
731.88	230.70
732.21	230.42
732.54	230.22
732.87	230.02
733.20	229.84
733.53	229.68
733.86	229.54
734.19	229.29
734.52	229.18
734.85	229.30
735.18	229.17
735.51	228.97
735.84	228.86
736.17	228.80
736.50	228.43
736.83	228.76
737.16	228.62
737.49	228.46
737.82	228.29
738.15	228.14
738.48	227.95
738.81	227.74
739.14	227.59
739.47	227.37
739.80	227.26
740.13	227.11
740.46	226.93
740.79	226.70
741.12	226.48
741.45	226.25
741.78	225.86
742.11	225.81
742.44	225.65
742.77	225.57
743.10	225.40
743.43	225.22
743.75	224.60
744.08	224.95
744.41	224.79
744.74	224.70
745.07	224.51
745.40	224.53
745.73	224.53
746.06	224.41
746.39	224.38
746.71	224.16
747.04	224.02
747.37	223.86
747.70	223.88
748.03	223.86
748.36	223.77
748.68	223.69
749.01	223.55
749.34	223.41
749.67	223.28
750.00	223.19
750.33	223.39
750.65	223.36
750.98	222.82
751.31	222.67
751.64	222.54
751.97	222.54
752.29	222.34
752.62	222.07
752.95	221.92
753.28	221.68
753.60	221.60
753.93	221.65
754.26	221.53
754.59	221.35
754.91	221.22
755.24	221.21
755.57	221.14
755.90	220.87
756.22	220.75
756.55	220.67
756.88	220.48
757.20	220.12
757.53	219.96
757.86	219.86
758.19	219.92
758.51	219.83
758.84	219.59
759.17	219.45
759.49	219.42
759.82	219.50
760.15	219.49
760.47	219.36
760.80	219.14
761.13	219.19
761.45	219.04
761.78	218.90
762.11	218.73
762.43	218.58
762.76	218.56
763.08	218.54
763.41	218.44
763.74	218.32
764.06	218.23
764.39	218.14
764.71	218.05
765.04	217.86
765.37	217.73
765.69	217.69
766.02	217.65
766.34	217.59
766.67	217.41
767.00	217.42
767.32	217.58
767.65	217.70
767.97	217.59
768.30	217.57
768.62	217.57
768.95	217.46
769.27	217.41
769.60	217.41
769.92	217.33
770.25	217.11
770.57	217.03
770.90	216.90
771.22	216.77
771.55	216.76
771.87	216.68
772.20	216.68
772.52	216.95
772.85	217.39
773.17	217.32
773.50	217.28
773.82	217.12
774.15	216.84
774.47	216.60
774.80	216.51
775.12	216.45
775.45	216.34
775.77	216.31
776.09	216.33
776.42	216.30
776.74	216.30
777.07	216.40
777.39	216.38
777.72	216.43
778.04	216.52
778.36	216.41
778.69	216.35
779.01	216.32
779.33	215.90
779.66	215.41
779.98	215.31
780.31	215.26
780.63	215.37
780.95	215.42
781.28	215.31
781.60	215.26
781.92	215.23
782.25	215.25
782.57	215.22
782.89	215.08
783.22	214.97
783.54	214.84
783.86	214.80
784.19	214.72
784.51	214.77
784.83	214.64
785.16	214.60
785.48	214.58
785.80	214.47
786.12	214.55
786.45	214.46
786.77	214.45
787.09	214.42
787.42	214.25
787.74	214.23
788.06	214.33
788.38	214.24
788.71	214.18
789.03	214.13
789.35	214.15
789.67	214.08
789.99	214.12
790.32	214.10
790.64	214.08
790.96	214.40
791.28	214.22
791.61	214.12
791.93	214.11
792.25	214.06
792.57	214.37
792.89	214.24
793.21	214.29
793.54	214.23
793.86	214.14
794.18	214.08
794.50	213.95
794.82	213.88
795.14	213.93
795.47	213.98
795.79	214.03
796.11	213.90
796.43	213.88
796.75	213.78
797.07	213.89
797.39	213.79
797.71	213.53
798.04	213.60
798.36	213.65
798.68	213.61
799.00	213.71
799.32	213.43
799.64	213.44
799.96	213.35
800.28	213.38
800.60	213.40
800.92	213.48
801.24	213.49
801.56	213.50
801.89	213.48
802.21	213.43
802.53	213.25
802.85	213.39
803.17	213.51
803.49	213.45
803.81	213.31
804.13	213.33
804.45	213.21
804.77	213.16
805.09	213.15
805.41	213.13
805.73	212.99
806.05	212.92
806.37	212.91
806.69	212.94
807.01	212.89
807.33	212.87
807.65	212.69
807.97	212.84
808.28	212.79
808.60	212.77
808.92	212.76
809.24	212.95
809.56	212.83
809.88	212.73
810.20	212.79
810.52	212.85
810.84	212.73
811.16	212.73
811.48	212.73
811.80	212.86
812.12	212.77
812.43	212.84
812.75	212.84
813.07	212.78
813.39	212.78
813.71	212.75
814.03	212.65
814.35	212.71
814.67	212.57
814.98	212.55
815.30	212.50
815.62	212.40
815.94	212.19
816.26	212.19
816.58	212.17
816.89	212.11
817.21	212.02
817.53	212.12
817.85	212.12
818.17	212.03
818.48	211.90
818.80	211.98
819.12	211.92
819.44	211.87
819.76	211.90
820.07	211.90
820.39	211.90
820.71	211.98
821.03	211.98
821.34	211.94
821.66	211.91
821.98	211.95
822.30	211.96
822.61	212.18
822.93	212.11
823.25	212.03
823.57	212.07
823.88	212.18
824.20	212.14
824.52	212.13
824.83	212.16
825.15	212.10
825.47	212.06
825.79	212.10
826.10	212.09
826.42	212.04
826.74	212.03
827.05	212.03
827.37	212.02
827.69	211.98
828.00	211.96
828.32	211.97
828.64	211.88
828.95	212.07
829.27	211.92
829.58	211.92
829.90	211.98
830.22	211.99
830.53	211.76
830.85	211.70
831.17	211.58
831.48	211.53
831.80	211.49
832.11	211.48
832.43	211.48
832.75	211.48
833.06	211.70
833.38	211.53
833.69	211.49
834.01	211.47
834.32	211.49
834.64	211.44
834.96	211.47
835.27	211.46
835.59	211.31
835.90	211.25
836.22	211.28
836.53	211.18
836.85	211.14
837.16	211.55
837.48	211.62
837.79	211.76
838.11	211.71
838.42	211.72
838.74	211.84
839.05	211.74
839.37	211.72
839.68	211.48
840.00	211.54
840.31	211.62
840.63	211.57
840.94	211.54
841.26	211.53
841.57	211.56
841.88	211.57
842.20	211.55
842.51	211.60
842.83	211.57
843.14	211.90
843.46	211.87
843.77	211.68
844.08	211.60
844.40	211.52
844.71	211.50
845.03	211.50
845.34	211.40
845.65	211.42
845.97	211.39
846.28	211.42
846.60	211.44
846.91	211.37
847.22	211.42
847.54	211.52
847.85	211.57
848.16	211.50
848.48	211.54
848.79	211.61
849.10	211.55
849.42	211.61
849.73	211.29
850.04	211.30
850.36	211.25
850.67	211.33
850.98	211.44
851.30	211.58
851.61	211.60
851.92	211.59
852.23	211.70
852.55	211.75
852.86	211.78
853.17	211.79
853.49	211.85
853.80	211.82
854.11	211.83
854.42	211.85
854.74	211.75
855.05	211.68
855.36	211.55
855.67	211.59
855.99	211.60
856.30	212.06
856.61	212.01
856.92	211.99
857.23	211.94
857.55	211.89
857.86	211.85
858.17	211.88
858.48	211.91
858.79	211.81
859.11	211.84
859.42	211.83
859.73	211.83
860.04	211.84
860.35	211.80
860.66	211.71
860.98	211.71
861.29	211.80
861.60	211.83
861.91	211.87
862.22	211.79
862.53	211.74
862.84	211.27
863.16	211.37
863.47	211.30
863.78	211.32
864.09	211.31
864.40	211.30
864.71	211.35
865.02	211.31
865.33	211.22
865.64	211.20
865.95	211.10
866.27	211.31
866.58	211.30
866.89	211.29
867.20	211.28
867.51	211.33
867.82	211.28
868.13	211.34
868.44	211.30
868.75	211.42
869.06	211.40
869.37	211.47
869.68	211.40
869.99	211.51
870.30	211.53
870.61	211.54
870.92	211.48
871.23	211.37
871.54	211.43
871.85	211.62
872.16	211.62
872.47	211.63
872.78	211.42
873.09	211.39
873.40	211.35
873.71	211.37
874.02	211.25
874.33	211.18
874.64	211.15
874.95	211.20
875.26	211.06
875.56	211.04
875.87	211.07
876.18	211.11
876.49	211.42
876.80	211.35
877.11	211.31
877.42	211.33
877.73	211.35
878.04	211.34
878.35	211.33
878.66	211.31
878.96	211.34
879.27	211.34
879.58	211.33
879.89	211.37
880.20	211.45
880.51	211.49
880.82	211.62
881.12	211.57
881.43	211.52
881.74	211.51
882.05	211.48
882.36	211.50
882.67	211.46
882.97	211.07
883.28	211.08
883.59	211.04
883.90	211.04
884.21	211.14
884.51	211.10
884.82	210.97
885.13	211.03
885.44	211.02
885.74	210.98
886.05	211.01
886.36	210.94
886.67	210.75
886.98	210.86
887.28	210.83
887.59	210.90
887.90	210.90
888.20	210.91
888.51	210.99
888.82	210.83
889.13	210.87
889.43	211.14
889.74	211.04
890.05	210.98
890.35	210.94
890.66	210.82
890.97	210.68
891.28	210.67
891.58	210.64
891.89	210.66
892.20	210.63
892.50	210.56
892.81	210.62
893.12	210.71
893.42	210.62
893.73	210.66
894.04	210.61
894.34	210.67
894.65	210.69
894.95	210.66
895.26	210.67
895.57	210.84
895.87	210.50
896.18	210.56
896.48	210.56
896.79	210.59
897.10	210.68
897.40	210.78
897.71	210.79
898.01	210.74
898.32	210.73
898.63	210.77
898.93	210.78
899.24	210.77
899.54	210.68
899.85	210.63
900.15	210.58
900.46	210.63
900.76	210.63
901.07	210.65
901.38	210.66
901.68	210.75
901.99	210.54
902.29	210.53
902.60	210.60
902.90	210.67
903.21	210.68
903.51	210.61
903.82	210.73
904.12	210.81
904.43	210.81
904.73	210.78
905.03	210.77
905.34	211.12
905.64	211.14
905.95	211.21
906.25	211.23
906.56	211.22
906.86	211.18
907.17	211.18
907.47	211.17
907.77	211.19
908.08	211.13
908.38	211.18
908.69	211.30
908.99	211.31
909.30	211.34
909.60	211.36
909.90	211.41
910.21	211.25
910.51	211.16
910.81	211.22
911.12	211.30
911.42	211.42
911.73	211.03
912.03	211.02
912.33	211.12
912.64	211.12
912.94	211.13
913.24	211.08
913.55	211.06
913.85	211.04
914.15	211.03
914.46	211.07
914.76	211.08
915.06	211.03
915.37	211.03
915.67	210.97
915.97	210.99
916.27	210.83
916.58	210.84
916.88	210.82
917.18	210.78
917.49	210.98
917.79	210.92
918.09	211.04
918.39	211.12
918.70	211.07
919.00	211.03
919.30	211.20
919.60	211.20
919.91	211.14
920.21	211.21
920.51	211.18
920.81	211.20
921.12	211.25
921.42	211.22
921.72	211.23
922.02	211.20
922.32	211.29
922.63	211.36
922.93	211.61
923.23	211.61
923.53	211.63
923.83	211.43
924.13	211.45
924.44	211.39
924.74	211.42
925.04	211.47
925.34	211.46
925.64	211.29
925.94	211.37
926.24	211.55
926.55	211.46
926.85	211.45
927.15	211.45
927.45	211.44
927.75	211.46
928.05	211.48
928.35	211.59
928.65	211.51
928.95	211.61
929.26	211.43
929.56	211.50
929.86	211.52
930.16	211.53
930.46	211.49
930.76	211.60
931.06	211.42
931.36	211.33
931.66	211.47
931.96	211.44
932.26	211.39
932.56	211.25
932.86	211.30
933.16	211.31
933.46	211.29
933.76	211.18
934.06	211.17
934.36	211.21
934.66	211.09
934.96	211.07
935.26	211.10
935.56	211.17
935.86	211.09
936.16	210.98
936.46	210.85
936.76	210.82
937.06	210.72
937.36	210.75
937.66	210.83
937.96	210.77
938.26	210.73
938.56	210.76
938.86	210.81
939.16	210.88
939.46	210.96
939.76	211.00
940.06	211.00
940.35	210.98
940.65	210.82
940.95	210.90
941.25	210.85
941.55	210.73
941.85	210.67
942.15	210.75
942.45	210.89
942.75	210.91
943.04	210.89
943.34	210.97
943.64	210.95
943.94	210.84
944.24	210.83
944.54	210.88
944.84	210.86
945.13	210.77
945.43	210.71
945.73	210.64
946.03	210.55
946.33	210.55
946.62	210.52
946.92	210.53
947.22	210.60
947.52	210.63
947.82	210.72
948.11	210.64
948.41	210.58
948.71	210.53
949.01	210.63
949.31	210.64
949.60	210.54
949.90	210.62
950.20	210.71
950.50	210.73
950.79	210.72
951.09	210.78
951.39	210.80
951.69	210.79
951.98	210.86
952.28	210.87
952.58	210.82
952.87	210.87
953.17	210.95
953.47	210.82
953.76	210.82
954.06	210.72
954.36	210.66
954.66	210.59
954.95	210.67
955.25	210.60
955.55	210.64
955.84	210.65
956.14	210.64
956.44	210.58
956.73	210.50
957.03	210.52
957.32	210.44
957.62	210.47
957.92	210.57
958.21	210.52
958.51	210.95
958.81	211.01
959.10	211.01
959.40	211.01
959.69	211.09
959.99	211.09
960.29	211.13
960.58	211.24
960.88	211.41
961.17	211.36
961.47	211.48
961.76	211.38
962.06	211.44
962.36	211.40
962.65	211.45
962.95	211.53
963.24	211.44
963.54	211.44
963.83	211.38
964.13	211.27
964.42	211.18
964.72	210.94
965.01	210.99
965.31	210.97
965.60	210.95
965.90	211.15
966.19	211.12
966.49	211.11
966.78	211.08
967.08	211.12
967.37	211.12
967.67	210.99
967.96	211.12
968.26	211.09
968.55	211.20
968.85	211.17
969.14	211.14
969.43	211.14
969.73	211.14
970.02	211.04
970.32	211.07
970.61	211.07
970.91	210.93
971.20	210.80
971.49	210.76
971.79	210.74
972.08	210.52
972.38	210.49
972.67	210.49
972.96	210.50
973.26	210.36
973.55	210.37
973.85	210.32
974.14	210.27
974.43	210.24
974.73	210.11
975.02	210.03
975.31	210.05
975.61	210.12
975.90	210.11
976.19	210.24
976.49	210.16
976.78	210.21
977.07	210.17
977.37	210.29
977.66	210.28
977.95	210.30
978.24	210.34
978.54	210.41
978.83	210.39
979.12	210.42
979.42	210.46
979.71	210.46
980.00	210.50
980.29	210.54
980.59	210.50
980.88	210.60
981.17	210.59
981.46	210.52
981.76	210.50
982.05	210.58
982.34	210.53
982.63	210.63
982.93	210.62
983.22	210.72
983.51	210.66
983.80	210.80
984.09	210.80
984.39	210.76
984.68	210.78
984.97	210.78
985.26	210.72
985.55	210.70
985.85	210.63
986.14	210.72
986.43	210.71
986.72	210.68
987.01	210.59
987.30	210.67
987.59	210.70
987.89	210.77
988.18	210.68
988.47	210.72
988.76	210.70
989.05	210.70
989.34	210.66
989.63	210.72
989.92	210.61
990.22	210.59
990.51	210.61
990.80	210.58
991.09	210.65
991.38	210.73
991.67	210.72
991.96	210.67
992.25	210.63
992.54	210.60
992.83	210.67
993.12	210.65
993.41	210.70
993.70	210.80
993.99	210.78
994.28	210.88
994.58	210.91
994.87	210.86
995.16	210.82
995.45	210.78
995.74	210.73
996.03	210.80
996.32	210.82
996.61	210.93
996.90	210.94
997.19	210.84
997.48	210.77
997.77	210.79
998.06	210.94
998.34	210.94
998.63	210.97
998.92	211.00
999.21	211.02
999.50	210.98
999.79	210.83
1000.08	210.81
1000.37	210.72
1000.66	210.73
1000.95	210.82
1001.24	210.93
1001.53	211.00
1001.82	210.98
1002.11	210.96
1002.40	210.97
1002.68	211.05
1002.97	211.27
1003.26	211.32
1003.55	211.30
1003.84	211.28
1004.13	211.33
1004.42	211.26
1004.71	211.20
1004.99	211.21
1005.28	211.33
1005.57	211.30
1005.86	211.25
1006.15	211.27
1006.44	211.28
1006.72	211.30
1007.01	211.31
1007.30	211.23
1007.59	211.19
1007.88	211.12
1008.17	211.12
1008.45	211.11
1008.74	210.88
1009.03	210.70
1009.32	210.68
1009.60	210.77
1009.89	210.72
1010.18	210.56
1010.47	210.60
1010.76	210.67
1011.04	210.69
1011.33	211.11
1011.62	211.14
1011.91	211.29
1012.19	211.34
1012.48	211.34
1012.77	211.28
1013.05	211.43
1013.34	211.47
1013.63	211.42
1013.92	211.52
1014.20	211.47
1014.49	211.50
1014.78	211.57
1015.06	211.52
1015.35	211.52
1015.64	211.53
1015.92	211.61
1016.21	211.70
1016.50	211.69
1016.78	211.72
1017.07	211.64
1017.36	211.20
1017.64	211.13
1017.93	211.09
1018.22	211.01
1018.50	210.99
1018.79	211.01
1019.08	210.84
1019.36	210.80
1019.65	210.84
1019.93	210.95
1020.22	211.01
1020.51	211.19
1020.79	211.16
1021.08	210.40
1021.36	209.65
1021.65	210.95
1021.94	211.50
1022.22	210.40
1022.51	210.90
1022.79	212.60
1023.08	211.35
1023.36	215.45
1023.65	210.60
>>>>>End Processed Spectral Data<<<<<
