SpectraSuite Data File
++++++++++++++++++++++++++++++++++++
Date: Mon Feb 25 17:01:41 EST 2013
User: group
Dark Spectrum Present: No
Reference Spectrum Present: No
Number of Sampled Component Spectra: 1
Spectrometers: USB2E7196
Integration Time (usec): 104000 (USB2E7196)
Spectra Averaged: 20 (USB2E7196)
Boxcar Smoothing: 10 (USB2E7196)
Correct for Electrical Dark: No (USB2E7196)
Strobe/Lamp Enabled: No (USB2E7196)
Correct for Detector Non-linearity: No (USB2E7196)
Correct for Stray Light: No (USB2E7196)
Number of Pixels in Processed Spectrum: 2048
>>>>>Begin Processed Spectral Data<<<<<
339.09	0.00
339.48	196.80
339.86	198.85
340.24	200.75
340.63	202.10
341.01	208.90
341.39	204.60
341.78	207.00
342.16	207.75
342.54	208.40
342.93	197.30
343.31	207.30
343.69	207.91
344.07	208.37
344.46	208.88
344.84	209.28
345.22	209.38
345.60	209.61
345.99	209.80
346.37	209.93
346.75	210.03
347.13	210.06
347.52	210.14
347.90	210.35
348.28	210.48
348.66	210.61
349.05	210.59
349.43	210.71
349.81	210.74
350.19	210.74
350.57	210.86
350.96	211.00
351.34	211.12
351.72	211.27
352.10	211.45
352.48	211.43
352.87	211.48
353.25	211.54
353.63	211.71
354.01	211.82
354.39	211.97
354.77	212.01
355.15	212.21
355.54	212.27
355.92	212.26
356.30	212.30
356.68	212.56
357.06	212.70
357.44	212.73
357.82	212.82
358.20	212.98
358.58	213.06
358.97	213.15
359.35	213.29
359.73	213.37
360.11	213.47
360.49	213.63
360.87	213.71
361.25	213.78
361.63	213.90
362.01	213.95
362.39	213.91
362.77	214.05
363.15	213.99
363.53	214.03
363.91	214.11
364.29	214.20
364.67	213.92
365.05	213.96
365.43	214.00
365.81	214.04
366.19	214.24
366.57	214.35
366.95	214.36
367.33	214.22
367.71	214.19
368.09	214.16
368.47	214.12
368.85	214.07
369.23	214.15
369.61	214.04
369.99	214.13
370.37	214.20
370.75	214.27
371.13	214.23
371.51	214.13
371.89	214.05
372.27	213.96
372.65	213.92
373.03	213.90
373.41	213.82
373.78	213.77
374.16	213.53
374.54	213.42
374.92	213.37
375.30	213.33
375.68	213.24
376.06	213.18
376.44	213.09
376.82	213.01
377.19	212.94
377.57	212.86
377.95	212.67
378.33	212.54
378.71	212.33
379.09	212.36
379.47	212.39
379.84	212.30
380.22	212.25
380.60	212.18
380.98	212.07
381.36	212.08
381.73	211.93
382.11	211.96
382.49	211.89
382.87	211.72
383.25	211.68
383.62	211.97
384.00	211.86
384.38	211.77
384.76	211.86
385.13	211.91
385.51	211.85
385.89	211.73
386.27	211.69
386.64	211.70
387.02	211.59
387.40	211.56
387.78	211.61
388.15	211.61
388.53	211.52
388.91	211.48
389.29	211.38
389.66	211.43
390.04	211.32
390.42	211.33
390.79	211.27
391.17	211.30
391.55	210.97
391.92	210.97
392.30	211.02
392.68	210.96
393.05	210.92
393.43	210.86
393.81	210.83
394.18	210.78
394.56	210.80
394.94	210.89
395.31	210.75
395.69	210.80
396.06	210.82
396.44	210.93
396.82	210.90
397.19	211.06
397.57	211.04
397.95	211.12
398.32	210.98
398.70	211.10
399.07	211.21
399.45	211.17
399.82	211.20
400.20	211.21
400.58	211.25
400.95	211.11
401.33	211.27
401.70	211.63
402.08	211.73
402.45	211.74
402.83	211.80
403.20	211.91
403.58	211.93
403.95	212.05
404.33	212.15
404.71	212.28
405.08	212.62
405.46	212.71
405.83	212.84
406.21	213.06
406.58	213.31
406.96	213.49
407.33	213.77
407.70	214.03
408.08	214.53
408.45	214.88
408.83	215.28
409.20	215.45
409.58	215.53
409.95	215.93
410.33	216.31
410.70	216.65
411.08	217.20
411.45	217.71
411.82	218.14
412.20	218.75
412.57	219.51
412.95	219.86
413.32	220.62
413.69	221.35
414.07	222.14
414.44	222.92
414.82	223.78
415.19	224.74
415.56	225.77
415.94	226.64
416.31	227.81
416.68	229.05
417.06	230.58
417.43	232.08
417.81	233.65
418.18	235.28
418.55	236.99
418.93	238.72
419.30	240.65
419.67	242.66
420.04	244.65
420.42	246.77
420.79	249.42
421.16	251.93
421.54	254.69
421.91	257.40
422.28	260.24
422.66	263.16
423.03	266.25
423.40	269.36
423.77	272.63
424.15	275.90
424.52	279.25
424.89	282.93
425.26	286.45
425.64	289.89
426.01	293.76
426.38	297.87
426.75	302.00
427.13	306.18
427.50	310.67
427.87	315.31
428.24	319.91
428.61	324.27
428.99	329.24
429.36	334.39
429.73	339.68
430.10	344.94
430.47	350.37
430.85	355.80
431.22	361.72
431.59	368.23
431.96	374.29
432.33	381.18
432.70	387.78
433.08	395.44
433.45	402.78
433.82	409.96
434.19	417.92
434.56	425.75
434.93	433.30
435.30	440.90
435.68	449.40
436.05	457.89
436.42	466.27
436.79	474.00
437.16	482.29
437.53	490.89
437.90	499.53
438.27	508.11
438.64	517.08
439.01	525.29
439.38	532.66
439.75	539.84
440.13	547.79
440.50	555.49
440.87	562.10
441.24	568.71
441.61	576.12
441.98	581.73
442.35	588.22
442.72	594.81
443.09	601.21
443.46	605.28
443.83	608.16
444.20	610.67
444.57	614.01
444.94	616.02
445.31	618.30
445.68	620.45
446.05	621.62
446.42	621.32
446.79	621.00
447.16	620.44
447.53	620.34
447.90	617.80
448.27	615.24
448.64	611.21
449.01	608.61
449.37	603.34
449.74	598.30
450.11	592.57
450.48	585.91
450.85	579.02
451.22	573.15
451.59	567.55
451.96	562.30
452.33	555.19
452.70	548.59
453.07	540.53
453.43	532.31
453.80	524.59
454.17	517.16
454.54	510.06
454.91	502.44
455.28	495.00
455.65	488.19
456.02	481.57
456.38	475.72
456.75	468.21
457.12	462.09
457.49	456.05
457.86	449.75
458.23	444.70
458.59	439.06
458.96	433.36
459.33	428.30
459.70	423.18
460.07	419.07
460.43	414.49
460.80	410.10
461.17	406.25
461.54	402.12
461.91	398.40
462.27	394.61
462.64	391.26
463.01	387.59
463.38	384.11
463.74	380.17
464.11	376.90
464.48	374.22
464.85	371.18
465.21	368.89
465.58	366.55
465.95	363.50
466.32	361.04
466.68	358.56
467.05	356.06
467.42	353.59
467.78	351.06
468.15	348.65
468.52	346.88
468.88	344.49
469.25	342.44
469.62	340.55
469.98	338.65
470.35	336.91
470.72	335.24
471.08	333.33
471.45	331.95
471.82	330.53
472.18	328.88
472.55	327.73
472.92	326.26
473.28	324.89
473.65	323.62
474.02	322.39
474.38	321.44
474.75	320.54
475.11	319.59
475.48	318.85
475.85	318.14
476.21	317.46
476.58	316.95
476.94	316.48
477.31	315.97
477.67	315.44
478.04	315.07
478.41	314.74
478.77	314.78
479.14	314.26
479.50	314.12
479.87	314.02
480.23	313.97
480.60	313.85
480.96	313.69
481.33	313.90
481.69	314.08
482.06	314.14
482.42	314.18
482.79	314.25
483.15	314.39
483.52	314.66
483.88	314.82
484.25	315.08
484.61	315.40
484.98	315.71
485.34	316.30
485.71	316.82
486.07	317.35
486.44	317.69
486.80	318.34
487.17	318.94
487.53	319.85
487.90	320.64
488.26	321.73
488.62	322.88
488.99	323.64
489.35	324.54
489.72	325.61
490.08	326.87
490.44	328.10
490.81	329.39
491.17	330.66
491.54	332.05
491.90	333.43
492.26	334.96
492.63	336.48
492.99	337.82
493.36	339.38
493.72	341.12
494.08	342.80
494.45	344.76
494.81	346.68
495.17	348.38
495.54	350.25
495.90	352.02
496.26	353.84
496.63	355.81
496.99	357.73
497.35	359.85
497.72	361.87
498.08	363.87
498.44	365.97
498.80	368.20
499.17	370.28
499.53	372.47
499.89	374.67
500.26	376.77
500.62	378.91
500.98	381.23
501.34	383.26
501.71	385.35
502.07	387.31
502.43	389.18
502.79	391.06
503.16	393.13
503.52	395.06
503.88	396.89
504.24	398.90
504.60	400.85
504.97	402.72
505.33	404.53
505.69	406.44
506.05	408.20
506.41	409.81
506.78	411.35
507.14	412.80
507.50	414.24
507.86	415.73
508.22	417.20
508.59	418.20
508.95	419.58
509.31	421.00
509.67	422.28
510.03	423.49
510.39	424.67
510.75	425.68
511.12	426.77
511.48	427.83
511.84	428.62
512.20	429.53
512.56	430.11
512.92	430.86
513.28	431.56
513.64	432.13
514.00	432.64
514.37	433.31
514.73	433.82
515.09	434.32
515.45	434.73
515.81	434.92
516.17	435.39
516.53	435.49
516.89	435.55
517.25	435.52
517.61	435.64
517.97	435.73
518.33	435.72
518.69	435.60
519.05	435.54
519.41	435.59
519.77	435.56
520.13	435.46
520.49	435.16
520.85	434.90
521.21	434.84
521.57	434.68
521.93	434.24
522.29	434.18
522.65	433.76
523.01	433.53
523.37	433.52
523.73	433.33
524.09	433.31
524.45	433.23
524.81	433.31
525.17	433.35
525.53	433.45
525.89	433.51
526.25	433.58
526.61	433.70
526.97	433.84
527.33	434.01
527.68	434.60
528.04	435.07
528.40	435.39
528.76	435.74
529.12	436.32
529.48	437.14
529.84	437.65
530.20	438.54
530.56	439.27
530.91	440.18
531.27	441.02
531.63	441.90
531.99	442.81
532.35	443.75
532.71	444.76
533.07	445.83
533.42	447.34
533.78	448.64
534.14	449.88
534.50	451.10
534.86	452.45
535.21	453.53
535.57	455.08
535.93	456.53
536.29	458.17
536.65	459.76
537.00	461.29
537.36	462.89
537.72	464.51
538.08	466.40
538.44	468.03
538.79	469.90
539.15	471.70
539.51	473.62
539.87	475.57
540.22	477.61
540.58	479.61
540.94	481.41
541.29	483.41
541.65	485.42
542.01	487.76
542.37	490.04
542.72	492.44
543.08	494.61
543.44	497.19
543.79	499.37
544.15	501.84
544.51	504.33
544.87	507.00
545.22	509.55
545.58	511.97
545.94	514.58
546.29	517.17
546.65	519.74
547.01	522.35
547.36	525.07
547.72	527.72
548.07	530.39
548.43	532.80
548.79	535.35
549.14	538.04
549.50	540.66
549.86	543.21
550.21	545.92
550.57	548.67
550.92	551.27
551.28	554.08
551.64	556.60
551.99	559.41
552.35	561.88
552.70	564.35
553.06	567.00
553.41	569.45
553.77	572.26
554.13	575.13
554.48	577.97
554.84	580.59
555.19	583.18
555.55	586.11
555.90	588.82
556.26	591.36
556.61	593.91
556.97	596.20
557.32	598.68
557.68	600.92
558.03	603.28
558.39	605.60
558.74	607.95
559.10	610.53
559.45	612.88
559.81	615.41
560.16	617.67
560.52	620.20
560.87	622.67
561.23	624.60
561.58	627.01
561.94	629.05
562.29	631.08
562.64	633.38
563.00	635.29
563.35	637.45
563.71	639.96
564.06	642.30
564.42	644.74
564.77	647.12
565.12	649.49
565.48	652.03
565.83	654.23
566.19	656.45
566.54	658.24
566.89	660.08
567.25	662.30
567.60	664.62
567.96	666.70
568.31	668.83
568.66	670.85
569.02	672.36
569.37	673.95
569.72	675.79
570.08	677.30
570.43	678.80
570.78	680.30
571.14	681.37
571.49	682.48
571.84	683.64
572.20	684.49
572.55	685.44
572.90	685.94
573.26	686.56
573.61	687.18
573.96	687.93
574.31	688.46
574.67	688.63
575.02	688.81
575.37	688.79
575.72	688.70
576.08	688.98
576.43	689.00
576.78	689.10
577.13	689.18
577.49	689.32
577.84	689.42
578.19	689.69
578.54	689.99
578.90	690.29
579.25	690.29
579.60	690.35
579.95	690.10
580.30	690.21
580.66	690.46
581.01	690.25
581.36	690.03
581.71	690.06
582.06	690.15
582.42	690.17
582.77	690.05
583.12	689.81
583.47	689.58
583.82	689.52
584.17	689.39
584.53	689.29
584.88	688.92
585.23	688.71
585.58	688.30
585.93	687.82
586.28	687.59
586.63	687.26
586.98	687.08
587.34	687.07
587.69	686.43
588.04	685.88
588.39	685.76
588.74	685.20
589.09	684.85
589.44	684.10
589.79	683.54
590.14	682.94
590.49	682.53
590.84	681.90
591.19	681.43
591.54	680.87
591.89	679.84
592.25	679.30
592.60	678.17
592.95	677.12
593.30	676.00
593.65	674.70
594.00	673.40
594.35	673.03
594.70	671.74
595.05	670.92
595.40	669.73
595.75	668.18
596.10	667.27
596.45	666.11
596.80	665.20
597.15	664.12
597.50	663.00
597.85	661.96
598.19	660.67
598.54	659.45
598.89	658.20
599.24	657.29
599.59	656.25
599.94	655.32
600.29	654.27
600.64	653.34
600.99	652.19
601.34	651.44
601.69	649.46
602.04	648.21
602.39	646.84
602.74	645.79
603.08	645.11
603.43	644.24
603.78	642.90
604.13	641.71
604.48	640.56
604.83	639.72
605.18	638.67
605.53	637.54
605.87	636.16
606.22	635.14
606.57	633.76
606.92	632.32
607.27	630.96
607.62	629.55
607.96	628.41
608.31	627.26
608.66	625.94
609.01	624.54
609.36	623.12
609.70	621.71
610.05	620.14
610.40	618.51
610.75	616.76
611.10	615.42
611.44	613.57
611.79	611.78
612.14	609.95
612.49	607.97
612.83	606.28
613.18	604.43
613.53	602.64
613.88	600.93
614.22	599.15
614.57	597.38
614.92	595.53
615.27	593.66
615.61	591.99
615.96	590.05
616.31	588.41
616.65	586.95
617.00	585.27
617.35	583.56
617.70	581.64
618.04	579.84
618.39	577.76
618.74	576.03
619.08	574.17
619.43	572.18
619.78	570.51
620.12	568.79
620.47	567.31
620.82	565.33
621.16	563.22
621.51	561.31
621.85	559.56
622.20	557.83
622.55	555.92
622.89	553.71
623.24	551.84
623.59	549.75
623.93	547.70
624.28	545.89
624.62	544.38
624.97	542.65
625.32	540.68
625.66	538.90
626.01	537.07
626.35	535.46
626.70	533.74
627.04	531.97
627.39	530.10
627.73	528.20
628.08	526.56
628.43	524.95
628.77	523.12
629.12	521.20
629.46	519.64
629.81	517.82
630.15	516.18
630.50	514.30
630.84	512.59
631.19	510.79
631.53	509.06
631.88	506.83
632.22	504.95
632.57	503.34
632.91	501.65
633.26	499.99
633.60	498.03
633.95	496.35
634.29	494.50
634.64	492.81
634.98	490.85
635.32	489.08
635.67	487.42
636.01	485.79
636.36	484.04
636.70	482.35
637.05	480.60
637.39	478.98
637.73	477.59
638.08	476.20
638.42	474.80
638.77	473.18
639.11	471.76
639.45	470.08
639.80	468.21
640.14	466.56
640.49	464.78
640.83	463.05
641.17	461.52
641.52	459.80
641.86	458.01
642.20	456.59
642.55	454.72
642.89	453.00
643.23	451.27
643.58	449.75
643.92	447.89
644.26	446.28
644.61	444.64
644.95	442.75
645.29	440.87
645.64	439.04
645.98	437.25
646.32	435.40
646.66	433.74
647.01	432.19
647.35	430.51
647.69	428.83
648.04	427.32
648.38	425.49
648.72	423.91
649.06	422.26
649.41	420.55
649.75	419.05
650.09	417.49
650.43	415.85
650.78	414.25
651.12	412.54
651.46	410.91
651.80	409.31
652.14	407.83
652.49	406.27
652.83	404.64
653.17	402.98
653.51	401.48
653.85	399.97
654.20	398.53
654.54	396.94
654.88	395.44
655.22	394.01
655.56	392.32
655.90	390.76
656.25	389.28
656.59	387.74
656.93	386.22
657.27	384.79
657.61	383.16
657.95	381.59
658.29	380.11
658.64	378.77
658.98	377.25
659.32	375.61
659.66	374.16
660.00	372.62
660.34	371.11
660.68	369.62
661.02	368.07
661.36	366.63
661.70	365.16
662.05	363.68
662.39	362.33
662.73	361.11
663.07	360.06
663.41	358.81
663.75	357.47
664.09	356.19
664.43	354.77
664.77	353.50
665.11	352.23
665.45	350.96
665.79	349.60
666.13	348.23
666.47	347.08
666.81	345.76
667.15	344.50
667.49	343.45
667.83	342.40
668.17	341.22
668.51	340.02
668.85	338.92
669.19	338.04
669.53	336.75
669.87	335.66
670.21	334.24
670.55	333.01
670.89	332.05
671.23	330.91
671.57	329.95
671.91	329.00
672.25	327.97
672.58	327.08
672.92	326.08
673.26	325.13
673.60	324.13
673.94	323.16
674.28	322.30
674.62	321.42
674.96	320.38
675.30	319.53
675.64	318.51
675.97	317.50
676.31	316.42
676.65	315.49
676.99	314.65
677.33	313.70
677.67	312.91
678.01	311.91
678.34	311.05
678.68	310.11
679.02	309.12
679.36	308.21
679.70	307.19
680.04	306.21
680.37	305.37
680.71	304.54
681.05	303.72
681.39	302.93
681.73	301.94
682.06	301.15
682.40	300.31
682.74	299.52
683.08	298.87
683.42	298.00
683.75	297.26
684.09	296.24
684.43	295.63
684.77	294.73
685.10	293.92
685.44	293.06
685.78	292.30
686.12	291.64
686.45	290.85
686.79	290.12
687.13	289.49
687.46	288.78
687.80	288.11
688.14	287.32
688.48	286.60
688.81	285.90
689.15	285.16
689.49	284.41
689.82	283.77
690.16	282.91
690.50	282.14
690.83	281.43
691.17	280.72
691.51	279.86
691.84	279.14
692.18	278.45
692.52	277.80
692.85	277.24
693.19	276.63
693.52	275.97
693.86	275.33
694.20	274.68
694.53	274.04
694.87	273.19
695.21	272.56
695.54	271.90
695.88	271.25
696.21	270.49
696.55	269.89
696.88	269.19
697.22	268.60
697.56	268.15
697.89	267.55
698.23	267.08
698.56	266.44
698.90	266.05
699.23	265.47
699.57	264.88
699.90	264.23
700.24	263.61
700.58	263.15
700.91	262.65
701.25	262.31
701.58	261.77
701.92	261.30
702.25	260.84
702.59	260.18
702.92	259.70
703.26	259.26
703.59	258.68
703.93	258.45
704.26	257.99
704.60	257.44
704.93	256.89
705.26	256.35
705.60	256.00
705.93	255.34
706.27	254.97
706.60	254.67
706.94	254.37
707.27	253.81
707.61	253.32
707.94	252.78
708.27	252.12
708.61	251.55
708.94	251.14
709.28	250.61
709.61	250.29
709.94	249.83
710.28	249.45
710.61	249.10
710.95	248.45
711.28	248.34
711.61	247.94
711.95	247.71
712.28	247.31
712.61	246.94
712.95	246.78
713.28	246.50
713.61	246.14
713.95	245.52
714.28	245.22
714.61	244.78
714.95	244.44
715.28	244.03
715.61	243.79
715.95	243.45
716.28	243.08
716.61	242.76
716.95	242.41
717.28	242.01
717.61	241.74
717.94	241.31
718.28	240.74
718.61	240.46
718.94	239.99
719.27	239.65
719.61	239.33
719.94	238.98
720.27	238.49
720.60	238.13
720.94	237.91
721.27	237.67
721.60	237.56
721.93	237.36
722.27	237.21
722.60	237.04
722.93	236.74
723.26	236.59
723.59	236.32
723.93	236.09
724.26	236.02
724.59	235.71
724.92	235.65
725.25	235.53
725.59	235.29
725.92	235.18
726.25	234.88
726.58	234.80
726.91	234.53
727.24	234.44
727.57	234.14
727.91	233.83
728.24	233.67
728.57	233.35
728.90	233.15
729.23	232.89
729.56	232.75
729.89	232.60
730.22	232.42
730.55	232.13
730.89	231.97
731.22	231.66
731.55	231.50
731.88	231.24
732.21	230.93
732.54	230.70
732.87	230.41
733.20	230.31
733.53	230.05
733.86	229.87
734.19	229.57
734.52	229.50
734.85	229.62
735.18	229.42
735.51	229.39
735.84	229.24
736.17	229.09
736.50	228.74
736.83	229.00
737.16	228.80
737.49	228.70
737.82	228.50
738.15	228.37
738.48	228.20
738.81	228.06
739.14	227.85
739.47	227.71
739.80	227.61
740.13	227.46
740.46	227.19
740.79	226.99
741.12	226.83
741.45	226.61
741.78	226.28
742.11	226.24
742.44	225.96
742.77	225.87
743.10	225.67
743.43	225.52
743.75	224.97
744.08	225.29
744.41	225.16
744.74	224.89
745.07	224.64
745.40	224.51
745.73	224.49
746.06	224.42
746.39	224.32
746.71	224.05
747.04	223.86
747.37	223.85
747.70	223.82
748.03	223.72
748.36	223.59
748.68	223.43
749.01	223.14
749.34	223.10
749.67	222.92
750.00	222.93
750.33	223.03
750.65	222.98
750.98	222.38
751.31	222.26
751.64	222.31
751.97	222.38
752.29	222.26
752.62	222.05
752.95	221.87
753.28	221.69
753.60	221.66
753.93	221.65
754.26	221.49
754.59	221.25
754.91	221.10
755.24	221.01
755.57	220.86
755.90	220.75
756.22	220.55
756.55	220.39
756.88	220.16
757.20	219.89
757.53	219.64
757.86	219.58
758.19	219.45
758.51	219.38
758.84	219.10
759.17	219.06
759.49	218.92
759.82	218.99
760.15	218.96
760.47	218.86
760.80	218.74
761.13	218.69
761.45	218.57
761.78	218.53
762.11	218.41
762.43	218.29
762.76	218.20
763.08	218.22
763.41	218.14
763.74	218.12
764.06	218.03
764.39	217.98
764.71	217.91
765.04	217.88
765.37	217.65
765.69	217.64
766.02	217.48
766.34	217.47
766.67	217.27
767.00	217.18
767.32	217.25
767.65	217.36
767.97	217.26
768.30	217.27
768.62	217.16
768.95	217.09
769.27	217.06
769.60	217.10
769.92	216.86
770.25	216.81
770.57	216.65
770.90	216.55
771.22	216.47
771.55	216.42
771.87	216.34
772.20	216.30
772.52	216.47
772.85	216.83
773.17	216.75
773.50	216.71
773.82	216.64
774.15	216.48
774.47	216.18
774.80	216.14
775.12	216.08
775.45	216.10
775.77	216.12
776.09	216.08
776.42	216.00
776.74	216.16
777.07	216.04
777.39	216.05
777.72	215.96
778.04	215.97
778.36	215.86
778.69	215.84
779.01	215.88
779.33	215.57
779.66	215.14
779.98	215.02
780.31	215.00
780.63	215.10
780.95	215.14
781.28	215.14
781.60	215.04
781.92	214.98
782.25	214.88
782.57	214.80
782.89	214.79
783.22	214.74
783.54	214.69
783.86	214.73
784.19	214.67
784.51	214.75
784.83	214.75
785.16	214.73
785.48	214.73
785.80	214.71
786.12	214.72
786.45	214.69
786.77	214.71
787.09	214.65
787.42	214.46
787.74	214.49
788.06	214.43
788.38	214.41
788.71	214.37
789.03	214.44
789.35	214.51
789.67	214.45
789.99	214.45
790.32	214.32
790.64	214.31
790.96	214.55
791.28	214.44
791.61	214.33
791.93	214.37
792.25	214.26
792.57	214.49
792.89	214.46
793.21	214.47
793.54	214.41
793.86	214.41
794.18	214.45
794.50	214.26
794.82	214.30
795.14	214.39
795.47	214.38
795.79	214.32
796.11	214.19
796.43	214.09
796.75	214.08
797.07	214.11
797.39	214.08
797.71	213.78
798.04	213.77
798.36	213.74
798.68	213.62
799.00	213.69
799.32	213.44
799.64	213.38
799.96	213.37
800.28	213.40
800.60	213.40
800.92	213.37
801.24	213.32
801.56	213.30
801.89	213.15
802.21	213.14
802.53	213.08
802.85	213.12
803.17	213.29
803.49	213.14
803.81	213.05
804.13	213.04
804.45	212.97
804.77	212.98
805.09	213.01
805.41	213.03
805.73	212.89
806.05	212.85
806.37	212.86
806.69	212.79
807.01	212.76
807.33	212.71
807.65	212.58
807.97	212.76
808.28	212.72
808.60	212.70
808.92	212.70
809.24	212.82
809.56	212.76
809.88	212.63
810.20	212.67
810.52	212.70
810.84	212.62
811.16	212.63
811.48	212.62
811.80	212.64
812.12	212.59
812.43	212.66
812.75	212.62
813.07	212.57
813.39	212.58
813.71	212.51
814.03	212.43
814.35	212.47
814.67	212.32
814.98	212.28
815.30	212.26
815.62	212.19
815.94	211.96
816.26	212.00
816.58	211.95
816.89	211.98
817.21	211.89
817.53	211.94
817.85	211.93
818.17	211.84
818.48	211.75
818.80	211.85
819.12	211.81
819.44	211.76
819.76	211.73
820.07	211.72
820.39	211.69
820.71	211.73
821.03	211.79
821.34	211.75
821.66	211.77
821.98	211.84
822.30	211.82
822.61	212.07
822.93	211.98
823.25	211.93
823.57	211.93
823.88	212.07
824.20	212.01
824.52	212.06
824.83	212.17
825.15	212.13
825.47	212.14
825.79	212.09
826.10	212.09
826.42	212.12
826.74	212.14
827.05	212.19
827.37	212.19
827.69	212.15
828.00	212.14
828.32	212.15
828.64	212.03
828.95	212.25
829.27	212.19
829.58	212.24
829.90	212.29
830.22	212.25
830.53	212.08
830.85	212.13
831.17	212.06
831.48	211.96
831.80	211.92
832.11	211.91
832.43	211.88
832.75	211.93
833.06	212.06
833.38	211.94
833.69	211.88
834.01	211.88
834.32	211.87
834.64	211.81
834.96	211.86
835.27	211.91
835.59	211.75
835.90	211.60
836.22	211.54
836.53	211.52
836.85	211.49
837.16	211.83
837.48	211.77
837.79	211.91
838.11	212.01
838.42	212.06
838.74	212.00
839.05	211.96
839.37	211.91
839.68	211.72
840.00	211.74
840.31	211.74
840.63	211.77
840.94	211.70
841.26	211.72
841.57	211.66
841.88	211.68
842.20	211.62
842.51	211.67
842.83	211.68
843.14	211.91
843.46	211.97
843.77	211.79
844.08	211.73
844.40	211.63
844.71	211.50
845.03	211.48
845.34	211.48
845.65	211.51
845.97	211.42
846.28	211.47
846.60	211.52
846.91	211.52
847.22	211.46
847.54	211.49
847.85	211.59
848.16	211.51
848.48	211.46
848.79	211.65
849.10	211.60
849.42	211.65
849.73	211.38
850.04	211.32
850.36	211.21
850.67	211.27
850.98	211.25
851.30	211.32
851.61	211.27
851.92	211.30
852.23	211.40
852.55	211.49
852.86	211.53
853.17	211.51
853.49	211.61
853.80	211.68
854.11	211.73
854.42	211.69
854.74	211.65
855.05	211.66
855.36	211.44
855.67	211.43
855.99	211.37
856.30	211.78
856.61	211.75
856.92	211.78
857.23	211.79
857.55	211.84
857.86	211.80
858.17	211.87
858.48	211.83
858.79	211.79
859.11	211.85
859.42	211.82
859.73	211.82
860.04	211.71
860.35	211.63
860.66	211.52
860.98	211.50
861.29	211.58
861.60	211.55
861.91	211.61
862.22	211.56
862.53	211.55
862.84	211.13
863.16	211.22
863.47	211.13
863.78	211.11
864.09	211.08
864.40	211.11
864.71	211.11
865.02	211.06
865.33	211.03
865.64	210.96
865.95	210.91
866.27	211.09
866.58	211.10
866.89	211.18
867.20	211.16
867.51	211.11
867.82	211.13
868.13	211.22
868.44	211.15
868.75	211.25
869.06	211.25
869.37	211.32
869.68	211.20
869.99	211.29
870.30	211.30
870.61	211.28
870.92	211.20
871.23	211.12
871.54	211.23
871.85	211.30
872.16	211.35
872.47	211.35
872.78	211.18
873.09	211.23
873.40	211.15
873.71	211.22
874.02	211.29
874.33	211.26
874.64	211.25
874.95	211.34
875.26	211.26
875.56	211.26
875.87	211.25
876.18	211.30
876.49	211.56
876.80	211.51
877.11	211.45
877.42	211.45
877.73	211.54
878.04	211.40
878.35	211.38
878.66	211.36
878.96	211.30
879.27	211.23
879.58	211.15
879.89	211.19
880.20	211.29
880.51	211.28
880.82	211.32
881.12	211.27
881.43	211.14
881.74	211.10
882.05	211.07
882.36	211.12
882.67	211.08
882.97	210.74
883.28	210.66
883.59	210.66
883.90	210.75
884.21	210.68
884.51	210.63
884.82	210.60
885.13	210.54
885.44	210.57
885.74	210.59
886.05	210.56
886.36	210.54
886.67	210.37
886.98	210.52
887.28	210.43
887.59	210.43
887.90	210.49
888.20	210.48
888.51	210.52
888.82	210.46
889.13	210.50
889.43	210.82
889.74	210.89
890.05	210.87
890.35	210.85
890.66	210.84
890.97	210.89
891.28	210.85
891.58	210.90
891.89	210.98
892.20	210.93
892.50	210.95
892.81	210.89
893.12	210.88
893.42	210.68
893.73	210.78
894.04	210.78
894.34	210.84
894.65	210.85
894.95	210.84
895.26	210.84
895.57	211.05
895.87	210.74
896.18	210.76
896.48	210.85
896.79	210.83
897.10	210.86
897.40	210.86
897.71	210.90
898.01	210.84
898.32	210.85
898.63	210.88
898.93	210.90
899.24	210.92
899.54	210.99
899.85	211.01
900.15	211.01
900.46	211.00
900.76	211.02
901.07	211.05
901.38	211.08
901.68	211.05
901.99	210.87
902.29	210.85
902.60	210.85
902.90	210.79
903.21	210.78
903.51	210.81
903.82	210.92
904.12	210.90
904.43	210.93
904.73	210.89
905.03	210.94
905.34	211.30
905.64	211.31
905.95	211.26
906.25	211.28
906.56	211.24
906.86	211.30
907.17	211.25
907.47	211.28
907.77	211.27
908.08	211.27
908.38	211.28
908.69	211.34
908.99	211.39
909.30	211.46
909.60	211.50
909.90	211.48
910.21	211.38
910.51	211.35
910.81	211.39
911.12	211.39
911.42	211.36
911.73	211.03
912.03	211.02
912.33	211.16
912.64	211.19
912.94	211.17
913.24	211.05
913.55	211.05
913.85	211.02
914.15	211.14
914.46	211.20
914.76	211.14
915.06	211.12
915.37	211.10
915.67	211.08
915.97	211.03
916.27	211.00
916.58	211.09
916.88	211.07
917.18	211.05
917.49	211.33
917.79	211.39
918.09	211.40
918.39	211.55
918.70	211.50
919.00	211.46
919.30	211.61
919.60	211.66
919.91	211.63
920.21	211.67
920.51	211.52
920.81	211.49
921.12	211.55
921.42	211.53
921.72	211.58
922.02	211.56
922.32	211.68
922.63	211.75
922.93	211.89
923.23	211.95
923.53	211.94
923.83	211.65
924.13	211.65
924.44	211.70
924.74	211.73
925.04	211.80
925.34	211.78
925.64	211.69
925.94	211.73
926.24	211.91
926.55	211.86
926.85	211.87
927.15	211.81
927.45	211.83
927.75	211.85
928.05	211.88
928.35	211.84
928.65	211.83
928.95	211.79
929.26	211.67
929.56	211.76
929.86	211.76
930.16	211.79
930.46	211.78
930.76	211.75
931.06	211.67
931.36	211.54
931.66	211.64
931.96	211.65
932.26	211.61
932.56	211.44
932.86	211.50
933.16	211.51
933.46	211.56
933.76	211.50
934.06	211.63
934.36	211.71
934.66	211.77
934.96	211.76
935.26	211.85
935.56	211.89
935.86	211.83
936.16	211.89
936.46	211.89
936.76	211.89
937.06	211.86
937.36	211.82
937.66	211.84
937.96	211.80
938.26	211.71
938.56	211.74
938.86	211.81
939.16	211.86
939.46	211.91
939.76	211.91
940.06	211.92
940.35	211.83
940.65	211.69
940.95	211.70
941.25	211.63
941.55	211.53
941.85	211.50
942.15	211.59
942.45	211.61
942.75	211.62
943.04	211.65
943.34	211.75
943.64	211.74
943.94	211.73
944.24	211.75
944.54	211.85
944.84	211.82
945.13	211.75
945.43	211.69
945.73	211.68
946.03	211.69
946.33	211.66
946.62	211.57
946.92	211.56
947.22	211.55
947.52	211.53
947.82	211.59
948.11	211.44
948.41	211.28
948.71	211.15
949.01	211.13
949.31	211.04
949.60	210.96
949.90	210.99
950.20	210.99
950.50	210.92
950.79	210.86
951.09	210.89
951.39	210.88
951.69	210.79
951.98	210.87
952.28	210.84
952.58	210.79
952.87	210.81
953.17	210.89
953.47	210.88
953.76	210.87
954.06	210.79
954.36	210.78
954.66	210.78
954.95	210.89
955.25	210.86
955.55	210.94
955.84	210.85
956.14	210.83
956.44	210.79
956.73	210.74
957.03	210.69
957.32	210.69
957.62	210.70
957.92	210.79
958.21	210.78
958.51	211.14
958.81	211.20
959.10	211.25
959.40	211.26
959.69	211.30
959.99	211.31
960.29	211.35
960.58	211.42
960.88	211.56
961.17	211.53
961.47	211.60
961.76	211.45
962.06	211.56
962.36	211.53
962.65	211.59
962.95	211.65
963.24	211.73
963.54	211.73
963.83	211.71
964.13	211.67
964.42	211.50
964.72	211.18
965.01	211.19
965.31	211.15
965.60	211.10
965.90	211.23
966.19	211.13
966.49	211.21
966.78	211.19
967.08	211.10
967.37	211.14
967.67	211.04
967.96	211.15
968.26	211.19
968.55	211.23
968.85	211.20
969.14	211.20
969.43	211.13
969.73	211.06
970.02	211.03
970.32	211.07
970.61	211.17
970.91	211.17
971.20	211.20
971.49	211.16
971.79	211.16
972.08	210.96
972.38	211.11
972.67	211.02
972.96	211.04
973.26	211.06
973.55	211.14
973.85	211.15
974.14	211.15
974.43	211.16
974.73	211.13
975.02	211.11
975.31	211.15
975.61	211.20
975.90	211.25
976.19	211.24
976.49	211.23
976.78	211.18
977.07	211.15
977.37	211.10
977.66	211.18
977.95	211.14
978.24	211.20
978.54	211.24
978.83	211.20
979.12	211.27
979.42	211.20
979.71	211.09
980.00	211.11
980.29	211.10
980.59	211.00
980.88	211.05
981.17	211.06
981.46	211.04
981.76	211.04
982.05	211.12
982.34	211.17
982.63	211.16
982.93	211.23
983.22	211.27
983.51	211.28
983.80	211.30
984.09	211.37
984.39	211.33
984.68	211.28
984.97	211.29
985.26	211.16
985.55	211.25
985.85	211.19
986.14	211.30
986.43	211.38
986.72	211.34
987.01	211.32
987.30	211.27
987.59	211.23
987.89	211.21
988.18	211.09
988.47	211.09
988.76	211.13
989.05	211.01
989.34	211.00
989.63	211.06
989.92	211.01
990.22	210.90
990.51	210.85
990.80	210.86
991.09	210.89
991.38	211.03
991.67	210.97
991.96	210.94
992.25	210.89
992.54	210.78
992.83	210.89
993.12	210.82
993.41	210.91
993.70	211.02
993.99	211.10
994.28	211.13
994.58	211.13
994.87	211.08
995.16	211.07
995.45	211.08
995.74	210.99
996.03	211.05
996.32	211.12
996.61	211.25
996.90	211.15
997.19	211.18
997.48	211.09
997.77	211.05
998.06	211.12
998.34	211.05
998.63	211.04
998.92	211.04
999.21	211.09
999.50	211.02
999.79	210.90
1000.08	210.83
1000.37	210.86
1000.66	210.83
1000.95	210.89
1001.24	210.95
1001.53	210.91
1001.82	210.86
1002.11	210.76
1002.40	210.75
1002.68	210.82
1002.97	211.06
1003.26	210.97
1003.55	210.96
1003.84	211.01
1004.13	211.11
1004.42	211.07
1004.71	211.09
1004.99	211.05
1005.28	211.17
1005.57	211.13
1005.86	211.09
1006.15	211.11
1006.44	211.10
1006.72	211.09
1007.01	211.02
1007.30	211.01
1007.59	210.98
1007.88	211.02
1008.17	211.04
1008.45	210.99
1008.74	210.84
1009.03	210.69
1009.32	210.72
1009.60	210.68
1009.89	210.63
1010.18	210.52
1010.47	210.58
1010.76	210.62
1011.04	210.62
1011.33	210.60
1011.62	210.71
1011.91	210.81
1012.19	210.85
1012.48	210.82
1012.77	210.90
1013.05	211.10
1013.34	211.17
1013.63	211.20
1013.92	211.20
1014.20	211.14
1014.49	211.20
1014.78	211.20
1015.06	211.14
1015.35	211.10
1015.64	211.19
1015.92	211.25
1016.21	211.18
1016.50	211.17
1016.78	211.19
1017.07	211.22
1017.36	211.11
1017.64	211.01
1017.93	210.98
1018.22	210.90
1018.50	210.89
1018.79	210.87
1019.08	210.70
1019.36	210.62
1019.65	210.58
1019.93	210.65
1020.22	210.74
1020.51	210.86
1020.79	210.83
1021.08	210.45
1021.36	210.25
1021.65	211.10
1021.94	211.10
1022.22	210.15
1022.51	209.60
1022.79	211.70
1023.08	211.10
1023.36	214.30
1023.65	209.95
>>>>>End Processed Spectral Data<<<<<
