SpectraSuite Data File
++++++++++++++++++++++++++++++++++++
Date: Mon Feb 25 17:19:21 EST 2013
User: group
Dark Spectrum Present: No
Reference Spectrum Present: No
Number of Sampled Component Spectra: 1
Spectrometers: USB2E7196
Integration Time (usec): 104000 (USB2E7196)
Spectra Averaged: 20 (USB2E7196)
Boxcar Smoothing: 10 (USB2E7196)
Correct for Electrical Dark: No (USB2E7196)
Strobe/Lamp Enabled: No (USB2E7196)
Correct for Detector Non-linearity: No (USB2E7196)
Correct for Stray Light: No (USB2E7196)
Number of Pixels in Processed Spectrum: 2048
>>>>>Begin Processed Spectral Data<<<<<
339.09	0.00
339.48	199.00
339.86	200.05
340.24	201.85
340.63	201.70
341.01	209.15
341.39	206.25
341.78	207.30
342.16	207.00
342.54	208.95
342.93	198.33
343.31	208.39
343.69	208.94
344.07	209.43
344.46	209.95
344.84	210.50
345.22	210.68
345.60	210.97
345.99	211.20
346.37	211.49
346.75	211.66
347.13	211.82
347.52	211.97
347.90	212.14
348.28	212.25
348.66	212.35
349.05	212.40
349.43	212.50
349.81	212.68
350.19	212.79
350.57	212.87
350.96	212.94
351.34	213.07
351.72	213.26
352.10	213.45
352.48	213.46
352.87	213.47
353.25	213.49
353.63	213.57
354.01	213.66
354.39	213.75
354.77	213.81
355.15	213.91
355.54	213.96
355.92	213.99
356.30	213.99
356.68	214.24
357.06	214.25
357.44	214.23
357.82	214.22
358.20	214.27
358.58	214.34
358.97	214.43
359.35	214.47
359.73	214.53
360.11	214.54
360.49	214.64
360.87	214.70
361.25	214.80
361.63	214.90
362.01	214.88
362.39	214.84
362.77	214.87
363.15	214.91
363.53	214.88
363.91	214.87
364.29	214.93
364.67	214.65
365.05	214.66
365.43	214.73
365.81	214.75
366.19	214.89
366.57	214.96
366.95	214.90
367.33	214.82
367.71	214.80
368.09	214.84
368.47	214.77
368.85	214.74
369.23	214.76
369.61	214.68
369.99	214.85
370.37	214.85
370.75	215.00
371.13	214.91
371.51	214.83
371.89	214.83
372.27	214.81
372.65	214.82
373.03	214.84
373.41	214.74
373.78	214.71
374.16	214.55
374.54	214.42
374.92	214.35
375.30	214.36
375.68	214.24
376.06	214.17
376.44	214.12
376.82	214.14
377.19	214.03
377.57	213.95
377.95	213.76
378.33	213.70
378.71	213.44
379.09	213.47
379.47	213.44
379.84	213.38
380.22	213.27
380.60	213.19
380.98	213.11
381.36	213.13
381.73	213.03
382.11	213.01
382.49	212.98
382.87	212.94
383.25	212.90
383.62	213.26
384.00	213.17
384.38	213.17
384.76	213.12
385.13	213.28
385.51	213.25
385.89	213.23
386.27	213.22
386.64	213.25
387.02	213.11
387.40	213.13
387.78	213.10
388.15	213.17
388.53	213.19
388.91	213.11
389.29	213.06
389.66	213.13
390.04	213.06
390.42	213.15
390.79	213.14
391.17	213.13
391.55	212.77
391.92	212.80
392.30	212.91
392.68	212.87
393.05	212.82
393.43	212.84
393.81	212.76
394.18	212.75
394.56	212.76
394.94	212.85
395.31	212.75
395.69	212.90
396.06	212.98
396.44	212.95
396.82	213.04
397.19	213.23
397.57	213.22
397.95	213.37
398.32	213.29
398.70	213.35
399.07	213.43
399.45	213.43
399.82	213.50
400.20	213.43
400.58	213.45
400.95	213.29
401.33	213.35
401.70	213.69
402.08	213.76
402.45	213.85
402.83	214.05
403.20	214.28
403.58	214.29
403.95	214.41
404.33	214.59
404.71	214.66
405.08	214.95
405.46	215.09
405.83	215.21
406.21	215.40
406.58	215.74
406.96	215.99
407.33	216.25
407.70	216.49
408.08	216.99
408.45	217.38
408.83	217.83
409.20	218.13
409.58	218.27
409.95	218.70
410.33	219.15
410.70	219.50
411.08	219.97
411.45	220.46
411.82	220.87
412.20	221.54
412.57	222.27
412.95	222.61
413.32	223.33
413.69	224.07
414.07	224.89
414.44	225.58
414.82	226.33
415.19	227.39
415.56	228.37
415.94	229.30
416.31	230.44
416.68	231.62
417.06	233.02
417.43	234.47
417.81	235.95
418.18	237.42
418.55	238.99
418.93	240.68
419.30	242.49
419.67	244.35
420.04	246.17
420.42	248.27
420.79	250.77
421.16	253.14
421.54	255.62
421.91	258.12
422.28	260.78
422.66	263.54
423.03	266.35
423.40	269.19
423.77	272.11
424.15	275.15
424.52	278.35
424.89	281.79
425.26	284.98
425.64	288.12
426.01	291.62
426.38	295.25
426.75	299.02
427.13	302.80
427.50	306.86
427.87	311.10
428.24	315.19
428.61	319.06
428.99	323.53
429.36	328.26
429.73	332.82
430.10	337.48
430.47	342.22
430.85	347.00
431.22	352.16
431.59	357.93
431.96	363.26
432.33	369.12
432.70	374.85
433.08	381.48
433.45	387.78
433.82	393.99
434.19	400.87
434.56	407.64
434.93	413.98
435.30	420.42
435.68	427.49
436.05	434.47
436.42	441.45
436.79	447.76
437.16	454.63
437.53	461.93
437.90	469.15
438.27	476.29
438.64	483.67
439.01	490.47
439.38	496.30
439.75	502.17
440.13	508.55
440.50	514.62
440.87	519.76
441.24	525.00
441.61	530.75
441.98	535.06
442.35	539.97
442.72	545.00
443.09	549.82
443.46	552.55
443.83	554.60
444.20	556.16
444.57	558.59
444.94	559.64
445.31	560.77
445.68	562.04
446.05	562.48
446.42	561.57
446.79	560.67
447.16	559.55
447.53	558.79
447.90	556.09
448.27	553.35
448.64	549.53
449.01	546.64
449.37	541.85
449.74	537.17
450.11	531.59
450.48	525.53
450.85	519.29
451.22	514.13
451.59	508.97
451.96	504.22
452.33	497.75
452.70	491.90
453.07	484.84
453.43	477.47
453.80	470.70
454.17	464.25
454.54	458.10
454.91	451.56
455.28	445.08
455.65	439.19
456.02	433.63
456.38	428.46
456.75	422.21
457.12	416.94
457.49	411.73
457.86	406.68
458.23	402.60
458.59	397.87
458.96	393.08
459.33	388.77
459.70	384.58
460.07	381.29
460.43	377.51
460.80	374.04
461.17	370.96
461.54	367.64
461.91	364.49
462.27	361.21
462.64	358.50
463.01	355.54
463.38	352.85
463.74	349.56
464.11	347.12
464.48	344.99
464.85	342.76
465.21	340.99
465.58	339.12
465.95	336.71
466.32	334.93
466.68	333.13
467.05	331.37
467.42	329.54
467.78	327.54
468.15	325.71
468.52	324.40
468.88	322.57
469.25	321.00
469.62	319.90
469.98	318.68
470.35	317.58
470.72	316.43
471.08	315.01
471.45	314.15
471.82	313.14
472.18	312.10
472.55	311.34
472.92	310.43
473.28	309.69
473.65	309.00
474.02	308.30
474.38	307.74
474.75	307.37
475.11	306.90
475.48	306.68
475.85	306.51
476.21	306.37
476.58	306.42
476.94	306.44
477.31	306.36
477.67	306.36
478.04	306.43
478.41	306.63
478.77	307.31
479.14	307.48
479.50	307.92
479.87	308.52
480.23	309.03
480.60	309.48
480.96	310.15
481.33	311.08
481.69	311.94
482.06	312.84
482.42	313.68
482.79	314.71
483.15	315.90
483.52	317.17
483.88	318.50
484.25	319.88
484.61	321.45
484.98	323.02
485.34	325.05
485.71	327.07
486.07	329.22
486.44	331.03
486.80	333.27
487.17	335.70
487.53	338.28
487.90	341.07
488.26	344.17
488.62	347.24
488.99	350.26
489.35	353.54
489.72	357.01
490.08	360.78
490.44	364.66
490.81	368.80
491.17	372.95
491.54	377.48
491.90	382.20
492.26	387.14
492.63	392.38
492.99	397.66
493.36	403.45
493.72	409.51
494.08	415.83
494.45	422.67
494.81	429.75
495.17	436.85
495.54	444.44
495.90	452.26
496.26	460.38
496.63	468.87
496.99	477.73
497.35	486.97
497.72	496.44
498.08	506.35
498.44	516.69
498.80	527.86
499.17	539.04
499.53	550.68
499.89	562.89
500.26	575.21
500.62	588.03
500.98	601.35
501.34	615.17
501.71	629.66
502.07	644.20
502.43	659.14
502.79	674.52
503.16	690.38
503.52	706.68
503.88	723.59
504.24	741.03
504.60	759.00
504.97	777.64
505.33	796.57
505.69	816.69
506.05	836.81
506.41	857.24
506.78	877.87
507.14	898.86
507.50	920.68
507.86	942.99
508.22	965.86
508.59	988.93
508.95	1012.58
509.31	1036.35
509.67	1061.15
510.03	1086.27
510.39	1112.50
510.75	1138.71
511.12	1165.54
511.48	1192.67
511.84	1220.19
512.20	1247.66
512.56	1275.70
512.92	1304.36
513.28	1332.70
513.64	1361.64
514.00	1390.55
514.37	1419.84
514.73	1449.97
515.09	1479.83
515.45	1510.11
515.81	1540.36
516.17	1571.06
516.53	1601.82
516.89	1632.95
517.25	1663.47
517.61	1694.41
517.97	1724.72
518.33	1755.33
518.69	1786.09
519.05	1816.89
519.41	1848.04
519.77	1879.91
520.13	1911.01
520.49	1941.73
520.85	1972.98
521.21	2004.10
521.57	2035.65
521.93	2066.71
522.29	2098.71
522.65	2130.48
523.01	2161.30
523.37	2191.80
523.73	2222.48
524.09	2252.63
524.45	2283.16
524.81	2313.85
525.17	2344.93
525.53	2375.64
525.89	2406.23
526.25	2436.28
526.61	2465.44
526.97	2494.47
527.33	2523.33
527.68	2552.34
528.04	2580.40
528.40	2607.57
528.76	2635.17
529.12	2663.28
529.48	2692.14
529.84	2718.70
530.20	2745.32
530.56	2772.44
530.91	2800.45
531.27	2827.57
531.63	2854.34
531.99	2880.46
532.35	2905.79
532.71	2930.23
533.07	2955.59
533.42	2979.40
533.78	3004.08
534.14	3028.08
534.50	3050.69
534.86	3073.53
535.21	3094.85
535.57	3118.75
535.93	3140.72
536.29	3162.11
536.65	3182.75
537.00	3201.89
537.36	3221.43
537.72	3239.93
538.08	3258.55
538.44	3276.61
538.79	3295.01
539.15	3312.92
539.51	3330.50
539.87	3348.89
540.22	3366.13
540.58	3383.57
540.94	3400.40
541.29	3414.83
541.65	3429.32
542.01	3444.39
542.37	3458.41
542.72	3473.25
543.08	3485.30
543.44	3499.75
543.79	3511.62
544.15	3523.09
544.51	3535.41
544.87	3547.71
545.22	3559.11
545.58	3569.35
545.94	3577.91
546.29	3585.18
546.65	3592.26
547.01	3599.18
547.36	3605.36
547.72	3611.74
548.07	3616.38
548.43	3621.52
548.79	3626.40
549.14	3631.26
549.50	3635.99
549.86	3639.38
550.21	3642.15
550.57	3645.84
550.92	3646.90
551.28	3648.98
551.64	3651.07
551.99	3653.13
552.35	3653.79
552.70	3655.16
553.06	3656.26
553.41	3657.36
553.77	3658.22
554.13	3658.68
554.48	3659.52
554.84	3659.87
555.19	3658.96
555.55	3657.58
555.90	3655.45
556.26	3653.56
556.61	3651.64
556.97	3648.64
557.32	3646.69
557.68	3643.70
558.03	3639.97
558.39	3637.38
558.74	3635.72
559.10	3633.11
559.45	3629.48
559.81	3627.03
560.16	3622.00
560.52	3618.51
560.87	3614.65
561.23	3609.47
561.58	3605.53
561.94	3599.74
562.29	3593.41
562.64	3588.64
563.00	3583.95
563.35	3580.02
563.71	3576.56
564.06	3572.03
564.42	3567.80
564.77	3563.45
565.12	3559.19
565.48	3554.16
565.83	3549.07
566.19	3543.94
566.54	3537.02
566.89	3530.62
567.25	3523.78
567.60	3518.19
567.96	3510.92
568.31	3504.37
568.66	3497.91
569.02	3490.15
569.37	3482.25
569.72	3475.06
570.08	3467.01
570.43	3458.57
570.78	3449.47
571.14	3439.70
571.49	3430.47
571.84	3422.06
572.20	3411.89
572.55	3403.05
572.90	3393.55
573.26	3382.86
573.61	3371.92
573.96	3361.82
574.31	3350.31
574.67	3338.50
575.02	3326.35
575.37	3315.18
575.72	3302.68
576.08	3292.42
576.43	3280.46
576.78	3269.47
577.13	3259.14
577.49	3247.86
577.84	3236.94
578.19	3226.46
578.54	3216.49
578.90	3206.31
579.25	3194.61
579.60	3182.38
579.95	3169.52
580.30	3158.67
580.66	3148.45
581.01	3136.55
581.36	3124.58
581.71	3112.93
582.06	3101.70
582.42	3090.83
582.77	3078.40
583.12	3066.64
583.47	3054.94
583.82	3044.57
584.17	3033.13
584.53	3021.27
584.88	3009.71
585.23	2997.86
585.58	2985.61
585.93	2973.24
586.28	2961.55
586.63	2949.53
586.98	2938.59
587.34	2928.01
587.69	2915.59
588.04	2903.44
588.39	2892.67
588.74	2880.90
589.09	2870.45
589.44	2858.48
589.79	2847.86
590.14	2837.43
590.49	2826.81
590.84	2814.84
591.19	2804.23
591.54	2792.97
591.89	2780.25
592.25	2768.32
592.60	2756.09
592.95	2743.91
593.30	2730.86
593.65	2717.62
594.00	2705.52
594.35	2695.32
594.70	2683.57
595.05	2672.30
595.40	2660.90
595.75	2648.27
596.10	2637.51
596.45	2626.62
596.80	2616.93
597.15	2606.10
597.50	2594.85
597.85	2583.79
598.19	2572.74
598.54	2561.31
598.89	2551.16
599.24	2542.21
599.59	2532.32
599.94	2523.21
600.29	2513.82
600.64	2504.51
600.99	2494.28
601.34	2484.45
601.69	2473.30
602.04	2462.57
602.39	2452.44
602.74	2442.57
603.08	2433.90
603.43	2424.90
603.78	2414.52
604.13	2403.98
604.48	2393.85
604.83	2385.16
605.18	2376.82
605.53	2367.01
605.87	2357.06
606.22	2347.58
606.57	2337.52
606.92	2327.26
607.27	2316.66
607.62	2306.07
607.96	2296.84
608.31	2288.26
608.66	2278.14
609.01	2267.43
609.36	2257.02
609.70	2246.18
610.05	2235.22
610.40	2224.19
610.75	2212.94
611.10	2202.55
611.44	2190.52
611.79	2178.74
612.14	2166.24
612.49	2153.01
612.83	2141.80
613.18	2129.93
613.53	2117.41
613.88	2104.49
614.22	2093.15
614.57	2081.30
614.92	2069.72
615.27	2057.44
615.61	2045.35
615.96	2034.15
616.31	2023.42
616.65	2013.22
617.00	2002.81
617.35	1991.97
617.70	1980.43
618.04	1968.35
618.39	1956.10
618.74	1945.28
619.08	1933.78
619.43	1923.08
619.78	1912.60
620.12	1901.53
620.47	1890.96
620.82	1879.56
621.16	1868.41
621.51	1856.94
621.85	1846.01
622.20	1834.93
622.55	1823.73
622.89	1812.10
623.24	1800.82
623.59	1789.00
623.93	1777.63
624.28	1766.58
624.62	1755.72
624.97	1744.96
625.32	1734.86
625.66	1725.00
626.01	1714.70
626.35	1705.15
626.70	1694.78
627.04	1684.88
627.39	1674.84
627.73	1664.53
628.08	1655.20
628.43	1645.02
628.77	1634.99
629.12	1624.72
629.46	1615.76
629.81	1606.02
630.15	1596.63
630.50	1586.69
630.84	1576.86
631.19	1566.88
631.53	1557.25
631.88	1546.96
632.22	1536.75
632.57	1526.94
632.91	1517.00
633.26	1507.04
633.60	1497.06
633.95	1487.61
634.29	1477.81
634.64	1468.68
634.98	1458.91
635.32	1449.37
635.67	1440.97
636.01	1432.07
636.36	1422.75
636.70	1413.54
637.05	1404.60
637.39	1395.85
637.73	1387.52
638.08	1379.66
638.42	1371.45
638.77	1362.72
639.11	1354.14
639.45	1345.61
639.80	1336.67
640.14	1327.74
640.49	1319.30
640.83	1310.58
641.17	1301.89
641.52	1293.20
641.86	1283.75
642.20	1274.98
642.55	1265.75
642.89	1256.48
643.23	1247.42
643.58	1239.45
643.92	1230.14
644.26	1221.54
644.61	1212.74
644.95	1203.55
645.29	1194.50
645.64	1185.47
645.98	1176.77
646.32	1168.51
646.66	1160.05
647.01	1151.78
647.35	1143.73
647.69	1134.82
648.04	1126.60
648.38	1117.96
648.72	1109.69
649.06	1101.67
649.41	1093.64
649.75	1085.58
650.09	1077.54
650.43	1069.51
650.78	1060.70
651.12	1052.37
651.46	1044.13
651.80	1036.31
652.14	1028.47
652.49	1020.52
652.83	1012.38
653.17	1003.75
653.51	995.44
653.85	987.69
654.20	979.86
654.54	971.69
654.88	964.23
655.22	956.18
655.56	948.32
655.90	940.40
656.25	932.63
656.59	924.85
656.93	917.51
657.27	910.29
657.61	902.55
657.95	895.44
658.29	888.33
658.64	881.32
658.98	873.77
659.32	866.35
659.66	859.21
660.00	852.05
660.34	845.05
660.68	838.10
661.02	831.11
661.36	824.43
661.70	817.93
662.05	811.52
662.39	805.44
662.73	799.33
663.07	793.25
663.41	787.16
663.75	780.97
664.09	774.57
664.43	767.92
664.77	761.91
665.11	755.73
665.45	749.92
665.79	743.90
666.13	738.06
666.47	732.43
666.81	726.75
667.15	721.19
667.49	716.14
667.83	710.74
668.17	705.26
668.51	699.90
668.85	694.61
669.19	689.49
669.53	684.07
669.87	678.71
670.21	673.55
670.55	668.35
670.89	663.84
671.23	659.36
671.57	654.71
671.91	650.04
672.25	645.27
672.58	640.47
672.92	635.86
673.26	631.48
673.60	627.06
673.94	622.59
674.28	618.20
674.62	613.79
674.96	609.57
675.30	605.42
675.64	601.24
675.97	596.99
676.31	592.80
676.65	588.85
676.99	585.23
677.33	581.11
677.67	577.22
678.01	572.94
678.34	568.88
678.68	565.12
679.02	561.20
679.36	557.56
679.70	553.78
680.04	549.99
680.37	546.19
680.71	542.47
681.05	539.02
681.39	535.51
681.73	531.94
682.06	528.49
682.40	525.08
682.74	521.61
683.08	518.33
683.42	514.72
683.75	511.25
684.09	507.56
684.43	504.24
684.77	500.68
685.10	497.37
685.44	493.91
685.78	490.50
686.12	487.54
686.45	484.30
686.79	481.27
687.13	478.42
687.46	475.47
687.80	472.52
688.14	469.32
688.48	466.35
688.81	463.26
689.15	460.27
689.49	457.22
689.82	454.13
690.16	450.82
690.50	447.83
690.83	444.94
691.17	441.96
691.51	439.05
691.84	436.47
692.18	433.82
692.52	431.20
692.85	428.81
693.19	426.20
693.52	423.64
693.86	420.90
694.20	418.15
694.53	415.55
694.87	413.07
695.21	410.48
695.54	407.92
695.88	405.32
696.21	402.76
696.55	400.45
696.88	398.13
697.22	395.84
697.56	393.67
697.89	391.32
698.23	389.18
698.56	387.06
698.90	385.00
699.23	382.73
699.57	380.55
699.90	378.31
700.24	376.11
700.58	373.92
700.91	372.04
701.25	370.23
701.58	368.27
701.92	366.21
702.25	364.33
702.59	362.31
702.92	360.65
703.26	358.80
703.59	357.02
703.93	355.55
704.26	353.98
704.60	352.25
704.93	350.49
705.26	348.68
705.60	346.90
705.93	345.08
706.27	343.43
706.60	341.97
706.94	340.46
707.27	338.78
707.61	337.30
707.94	335.64
708.27	333.87
708.61	332.26
708.94	330.69
709.28	329.17
709.61	327.76
709.94	326.29
710.28	324.98
710.61	323.55
710.95	321.82
711.28	320.57
711.61	319.22
711.95	318.10
712.28	316.93
712.61	315.79
712.95	314.78
713.28	313.75
713.61	312.42
713.95	311.18
714.28	310.12
714.61	308.90
714.95	307.74
715.28	306.58
715.61	305.40
715.95	304.31
716.28	303.02
716.61	301.99
716.95	300.86
717.28	299.72
717.61	298.66
717.94	297.66
718.28	296.44
718.61	295.35
718.94	294.26
719.27	293.21
719.61	292.17
719.94	291.02
720.27	289.90
720.60	288.94
720.94	288.00
721.27	287.01
721.60	286.17
721.93	285.33
722.27	284.65
722.60	283.87
722.93	283.05
723.26	282.42
723.59	281.59
723.93	280.83
724.26	280.03
724.59	279.31
724.92	278.56
725.25	277.89
725.59	277.16
725.92	276.50
726.25	275.78
726.58	275.10
726.91	274.43
727.24	273.76
727.57	273.06
727.91	272.30
728.24	271.68
728.57	271.05
728.90	270.38
729.23	269.59
729.56	269.14
729.89	268.48
730.22	267.80
730.55	267.05
730.89	266.38
731.22	265.77
731.55	265.07
731.88	264.45
732.21	263.80
732.54	263.21
732.87	262.51
733.20	261.95
733.53	261.36
733.86	260.81
734.19	260.23
734.52	259.76
734.85	259.50
735.18	258.96
735.51	258.48
735.84	258.00
736.17	257.51
736.50	256.81
736.83	256.78
737.16	256.33
737.49	255.96
737.82	255.44
738.15	254.99
738.48	254.43
738.81	253.89
739.14	253.36
739.47	252.92
739.80	252.48
740.13	252.00
740.46	251.40
740.79	250.88
741.12	250.43
741.45	249.93
741.78	249.22
742.11	248.85
742.44	248.35
742.77	247.95
743.10	247.48
743.43	247.07
743.75	246.30
744.08	246.31
744.41	245.84
744.74	245.54
745.07	245.03
745.40	244.75
745.73	244.59
746.06	244.20
746.39	243.80
746.71	243.45
747.04	243.03
747.37	242.73
747.70	242.41
748.03	241.98
748.36	241.65
748.68	241.40
749.01	240.92
749.34	240.61
749.67	240.29
750.00	240.01
750.33	239.83
750.65	239.45
750.98	238.60
751.31	238.29
751.64	237.93
751.97	237.85
752.29	237.57
752.62	237.11
752.95	236.87
753.28	236.57
753.60	236.25
753.93	236.10
754.26	235.84
754.59	235.50
754.91	235.25
755.24	234.96
755.57	234.65
755.90	234.45
756.22	234.15
756.55	233.79
756.88	233.46
757.20	233.03
757.53	232.70
757.86	232.44
758.19	232.22
758.51	231.95
758.84	231.52
759.17	231.23
759.49	231.00
759.82	230.85
760.15	230.62
760.47	230.40
760.80	230.06
761.13	229.90
761.45	229.68
761.78	229.43
762.11	229.20
762.43	228.92
762.76	228.67
763.08	228.55
763.41	228.37
763.74	228.19
764.06	227.97
764.39	227.77
764.71	227.68
765.04	227.48
765.37	227.31
765.69	227.09
766.02	226.96
766.34	226.80
766.67	226.57
767.00	226.50
767.32	226.50
767.65	226.59
767.97	226.39
768.30	226.24
768.62	226.14
768.95	225.98
769.27	225.89
769.60	225.72
769.92	225.40
770.25	225.19
770.57	225.07
770.90	224.99
771.22	224.78
771.55	224.60
771.87	224.45
772.20	224.29
772.52	224.41
772.85	224.57
773.17	224.31
773.50	224.10
773.82	223.86
774.15	223.56
774.47	223.21
774.80	223.02
775.12	222.91
775.45	222.79
775.77	222.68
776.09	222.60
776.42	222.48
776.74	222.48
777.07	222.36
777.39	222.23
777.72	222.04
778.04	222.05
778.36	221.88
778.69	221.81
779.01	221.76
779.33	221.41
779.66	221.03
779.98	220.97
780.31	220.88
780.63	220.92
780.95	220.83
781.28	220.68
781.60	220.58
781.92	220.47
782.25	220.34
782.57	220.28
782.89	220.14
783.22	220.08
783.54	219.89
783.86	219.79
784.19	219.70
784.51	219.68
784.83	219.51
785.16	219.46
785.48	219.36
785.80	219.19
786.12	219.17
786.45	219.05
786.77	218.95
787.09	218.94
787.42	218.70
787.74	218.69
788.06	218.65
788.38	218.54
788.71	218.45
789.03	218.41
789.35	218.35
789.67	218.27
789.99	218.20
790.32	218.12
790.64	218.13
790.96	218.39
791.28	218.17
791.61	218.13
791.93	218.12
792.25	218.03
792.57	218.24
792.89	218.11
793.21	218.08
793.54	218.06
793.86	217.94
794.18	217.99
794.50	217.85
794.82	217.86
795.14	217.93
795.47	217.87
795.79	217.85
796.11	217.73
796.43	217.69
796.75	217.62
797.07	217.65
797.39	217.59
797.71	217.20
798.04	217.29
798.36	217.24
798.68	217.16
799.00	217.11
799.32	216.91
799.64	216.91
799.96	216.87
800.28	216.93
800.60	216.81
800.92	216.77
801.24	216.74
801.56	216.64
801.89	216.56
802.21	216.59
802.53	216.44
802.85	216.45
803.17	216.53
803.49	216.42
803.81	216.34
804.13	216.32
804.45	216.27
804.77	216.19
805.09	216.16
805.41	216.07
805.73	216.03
806.05	215.93
806.37	215.87
806.69	215.71
807.01	215.61
807.33	215.63
807.65	215.43
807.97	215.48
808.28	215.46
808.60	215.46
808.92	215.30
809.24	215.55
809.56	215.51
809.88	215.39
810.20	215.39
810.52	215.40
810.84	215.28
811.16	215.20
811.48	215.18
811.80	215.23
812.12	215.29
812.43	215.25
812.75	215.20
813.07	215.15
813.39	215.22
813.71	215.16
814.03	215.10
814.35	215.14
814.67	215.00
814.98	214.90
815.30	214.75
815.62	214.71
815.94	214.38
816.26	214.32
816.58	214.16
816.89	214.15
817.21	214.08
817.53	214.07
817.85	214.12
818.17	214.04
818.48	213.89
818.80	213.81
819.12	213.76
819.44	213.70
819.76	213.63
820.07	213.60
820.39	213.57
820.71	213.61
821.03	213.62
821.34	213.61
821.66	213.58
821.98	213.60
822.30	213.57
822.61	213.74
822.93	213.69
823.25	213.75
823.57	213.77
823.88	213.78
824.20	213.74
824.52	213.75
824.83	213.72
825.15	213.70
825.47	213.75
825.79	213.73
826.10	213.66
826.42	213.59
826.74	213.60
827.05	213.56
827.37	213.53
827.69	213.45
828.00	213.40
828.32	213.43
828.64	213.39
828.95	213.59
829.27	213.54
829.58	213.54
829.90	213.51
830.22	213.52
830.53	213.46
830.85	213.44
831.17	213.31
831.48	213.28
831.80	213.24
832.11	213.18
832.43	213.18
832.75	213.22
833.06	213.49
833.38	213.34
833.69	213.28
834.01	213.30
834.32	213.32
834.64	213.31
834.96	213.28
835.27	213.25
835.59	213.12
835.90	213.03
836.22	212.99
836.53	212.94
836.85	212.84
837.16	213.18
837.48	213.23
837.79	213.35
838.11	213.46
838.42	213.48
838.74	213.52
839.05	213.46
839.37	213.42
839.68	213.15
840.00	213.22
840.31	213.31
840.63	213.26
840.94	213.22
841.26	213.13
841.57	213.16
841.88	213.20
842.20	213.22
842.51	213.14
842.83	213.17
843.14	213.46
843.46	213.51
843.77	213.25
844.08	213.18
844.40	213.09
844.71	213.00
845.03	213.03
845.34	213.02
845.65	213.08
845.97	213.17
846.28	213.23
846.60	213.13
846.91	212.97
847.22	212.98
847.54	213.01
847.85	213.07
848.16	213.01
848.48	212.92
848.79	213.06
849.10	213.13
849.42	213.12
849.73	212.81
850.04	212.76
850.36	212.68
850.67	212.73
850.98	212.71
851.30	212.76
851.61	212.64
851.92	212.70
852.23	212.80
852.55	212.70
852.86	212.76
853.17	212.83
853.49	212.99
853.80	212.98
854.11	212.99
854.42	212.99
854.74	212.94
855.05	212.96
855.36	212.73
855.67	212.73
855.99	212.73
856.30	213.15
856.61	213.13
856.92	213.10
857.23	213.00
857.55	213.00
857.86	212.95
858.17	213.03
858.48	212.85
858.79	212.75
859.11	212.81
859.42	212.69
859.73	212.69
860.04	212.63
860.35	212.53
860.66	212.47
860.98	212.50
861.29	212.54
861.60	212.51
861.91	212.51
862.22	212.37
862.53	212.30
862.84	211.84
863.16	211.94
863.47	211.90
863.78	211.93
864.09	211.96
864.40	211.97
864.71	211.96
865.02	211.97
865.33	211.90
865.64	211.81
865.95	211.79
866.27	211.98
866.58	212.00
866.89	212.08
867.20	212.03
867.51	211.99
867.82	212.00
868.13	212.12
868.44	212.09
868.75	212.26
869.06	212.28
869.37	212.34
869.68	212.19
869.99	212.23
870.30	212.33
870.61	212.40
870.92	212.34
871.23	212.29
871.54	212.29
871.85	212.42
872.16	212.45
872.47	212.48
872.78	212.23
873.09	212.17
873.40	212.16
873.71	212.18
874.02	212.18
874.33	212.04
874.64	211.97
874.95	212.07
875.26	211.96
875.56	211.95
875.87	211.95
876.18	211.97
876.49	212.40
876.80	212.32
877.11	212.28
877.42	212.32
877.73	212.35
878.04	212.41
878.35	212.41
878.66	212.43
878.96	212.36
879.27	212.35
879.58	212.33
879.89	212.32
880.20	212.43
880.51	212.39
880.82	212.49
881.12	212.55
881.43	212.45
881.74	212.40
882.05	212.44
882.36	212.44
882.67	212.42
882.97	211.92
883.28	211.93
883.59	211.84
883.90	211.82
884.21	211.85
884.51	211.79
884.82	211.71
885.13	211.69
885.44	211.74
885.74	211.76
886.05	211.81
886.36	211.79
886.67	211.70
886.98	212.00
887.28	212.04
887.59	211.99
887.90	211.99
888.20	211.99
888.51	212.00
888.82	211.95
889.13	211.99
889.43	212.29
889.74	212.29
890.05	212.30
890.35	212.29
890.66	212.19
890.97	212.10
891.28	212.08
891.58	212.11
891.89	212.10
892.20	212.07
892.50	212.01
892.81	211.95
893.12	211.91
893.42	211.66
893.73	211.65
894.04	211.68
894.34	211.69
894.65	211.70
894.95	211.68
895.26	211.68
895.57	211.85
895.87	211.57
896.18	211.58
896.48	211.67
896.79	211.61
897.10	211.66
897.40	211.74
897.71	211.80
898.01	211.72
898.32	211.74
898.63	211.70
898.93	211.75
899.24	211.84
899.54	211.86
899.85	211.87
900.15	211.82
900.46	211.78
900.76	211.91
901.07	211.96
901.38	211.94
901.68	212.00
901.99	211.75
902.29	211.75
902.60	211.78
902.90	211.71
903.21	211.73
903.51	211.72
903.82	211.77
904.12	211.71
904.43	211.80
904.73	211.80
905.03	211.85
905.34	212.14
905.64	212.18
905.95	212.14
906.25	212.14
906.56	212.14
906.86	212.14
907.17	211.97
907.47	211.98
907.77	211.98
908.08	211.93
908.38	212.03
908.69	212.07
908.99	212.04
909.30	212.01
909.60	212.02
909.90	212.06
910.21	211.99
910.51	211.99
910.81	211.93
911.12	211.95
911.42	211.93
911.73	211.64
912.03	211.64
912.33	211.76
912.64	211.72
912.94	211.68
913.24	211.65
913.55	211.66
913.85	211.61
914.15	211.64
914.46	211.72
914.76	211.70
915.06	211.65
915.37	211.63
915.67	211.65
915.97	211.72
916.27	211.74
916.58	211.79
916.88	211.73
917.18	211.76
917.49	211.93
917.79	211.91
918.09	211.97
918.39	212.04
918.70	211.98
919.00	211.96
919.30	212.13
919.60	212.04
919.91	212.02
920.21	212.01
920.51	211.98
920.81	211.84
921.12	211.82
921.42	211.84
921.72	211.82
922.02	211.84
922.32	211.79
922.63	211.75
922.93	211.98
923.23	212.01
923.53	212.05
923.83	211.83
924.13	211.87
924.44	211.78
924.74	211.79
925.04	211.84
925.34	211.82
925.64	211.62
925.94	211.72
926.24	211.96
926.55	211.92
926.85	211.90
927.15	211.92
927.45	211.96
927.75	211.97
928.05	211.92
928.35	211.90
928.65	211.93
928.95	211.96
929.26	211.78
929.56	211.89
929.86	211.85
930.16	211.82
930.46	211.78
930.76	211.83
931.06	211.66
931.36	211.55
931.66	211.67
931.96	211.81
932.26	211.77
932.56	211.52
932.86	211.60
933.16	211.60
933.46	211.58
933.76	211.51
934.06	211.57
934.36	211.76
934.66	211.79
934.96	211.74
935.26	211.71
935.56	211.68
935.86	211.54
936.16	211.50
936.46	211.47
936.76	211.49
937.06	211.44
937.36	211.47
937.66	211.53
937.96	211.45
938.26	211.39
938.56	211.44
938.86	211.59
939.16	211.66
939.46	211.75
939.76	211.88
940.06	211.92
940.35	211.80
940.65	211.65
940.95	211.72
941.25	211.68
941.55	211.68
941.85	211.75
942.15	211.83
942.45	211.94
942.75	211.99
943.04	212.07
943.34	212.11
943.64	212.07
943.94	212.06
944.24	212.08
944.54	212.06
944.84	212.00
945.13	211.88
945.43	211.80
945.73	211.73
946.03	211.64
946.33	211.56
946.62	211.55
946.92	211.50
947.22	211.47
947.52	211.49
947.82	211.53
948.11	211.47
948.41	211.38
948.71	211.25
949.01	211.23
949.31	211.10
949.60	211.11
949.90	211.15
950.20	211.11
950.50	211.15
950.79	211.12
951.09	211.18
951.39	211.21
951.69	211.20
951.98	211.24
952.28	211.22
952.58	211.23
952.87	211.25
953.17	211.29
953.47	211.22
953.76	211.23
954.06	211.17
954.36	211.16
954.66	211.13
954.95	211.21
955.25	211.28
955.55	211.39
955.84	211.32
956.14	211.41
956.44	211.45
956.73	211.35
957.03	211.37
957.32	211.31
957.62	211.29
957.92	211.32
958.21	211.35
958.51	211.75
958.81	211.79
959.10	211.83
959.40	211.91
959.69	211.99
959.99	212.04
960.29	212.08
960.58	212.04
960.88	212.18
961.17	212.16
961.47	212.22
961.76	212.19
962.06	212.21
962.36	212.16
962.65	212.15
962.95	212.18
963.24	212.12
963.54	212.13
963.83	212.17
964.13	212.14
964.42	212.03
964.72	211.82
965.01	211.89
965.31	211.86
965.60	211.80
965.90	212.00
966.19	211.89
966.49	211.92
966.78	211.91
967.08	211.91
967.37	211.91
967.67	211.80
967.96	211.81
968.26	211.79
968.55	211.82
968.85	211.80
969.14	211.85
969.43	211.89
969.73	211.90
970.02	211.85
970.32	211.90
970.61	211.93
970.91	211.70
971.20	211.59
971.49	211.56
971.79	211.55
972.08	211.29
972.38	211.35
972.67	211.26
972.96	211.28
973.26	211.25
973.55	211.33
973.85	211.32
974.14	211.32
974.43	211.36
974.73	211.23
975.02	211.26
975.31	211.19
975.61	211.18
975.90	211.23
976.19	211.18
976.49	211.13
976.78	211.10
977.07	211.19
977.37	211.24
977.66	211.28
977.95	211.28
978.24	211.29
978.54	211.31
978.83	211.35
979.12	211.38
979.42	211.36
979.71	211.35
980.00	211.40
980.29	211.41
980.59	211.30
980.88	211.38
981.17	211.32
981.46	211.34
981.76	211.28
982.05	211.26
982.34	211.35
982.63	211.37
982.93	211.39
983.22	211.49
983.51	211.50
983.80	211.57
984.09	211.66
984.39	211.64
984.68	211.57
984.97	211.53
985.26	211.53
985.55	211.52
985.85	211.34
986.14	211.31
986.43	211.38
986.72	211.35
987.01	211.33
987.30	211.32
987.59	211.34
987.89	211.42
988.18	211.40
988.47	211.35
988.76	211.32
989.05	211.37
989.34	211.31
989.63	211.38
989.92	211.33
990.22	211.26
990.51	211.21
990.80	211.20
991.09	211.26
991.38	211.24
991.67	211.25
991.96	211.28
992.25	211.32
992.54	211.19
992.83	211.30
993.12	211.29
993.41	211.40
993.70	211.50
993.99	211.56
994.28	211.59
994.58	211.63
994.87	211.60
995.16	211.52
995.45	211.40
995.74	211.28
996.03	211.26
996.32	211.25
996.61	211.33
996.90	211.35
997.19	211.32
997.48	211.29
997.77	211.16
998.06	211.27
998.34	211.27
998.63	211.31
998.92	211.26
999.21	211.23
999.50	211.22
999.79	211.05
1000.08	210.99
1000.37	210.96
1000.66	210.86
1000.95	210.95
1001.24	211.02
1001.53	211.15
1001.82	211.11
1002.11	211.02
1002.40	211.11
1002.68	211.25
1002.97	211.47
1003.26	211.32
1003.55	211.27
1003.84	211.35
1004.13	211.39
1004.42	211.25
1004.71	211.19
1004.99	211.20
1005.28	211.32
1005.57	211.26
1005.86	211.25
1006.15	211.24
1006.44	211.14
1006.72	211.15
1007.01	211.13
1007.30	211.06
1007.59	210.98
1007.88	211.03
1008.17	211.11
1008.45	211.04
1008.74	210.88
1009.03	210.73
1009.32	210.80
1009.60	210.85
1009.89	210.82
1010.18	210.64
1010.47	210.70
1010.76	210.72
1011.04	210.77
1011.33	210.78
1011.62	210.82
1011.91	210.92
1012.19	210.92
1012.48	211.00
1012.77	211.00
1013.05	211.11
1013.34	211.14
1013.63	211.17
1013.92	211.15
1014.20	211.04
1014.49	210.99
1014.78	211.03
1015.06	210.95
1015.35	211.01
1015.64	211.02
1015.92	211.09
1016.21	211.14
1016.50	211.13
1016.78	211.22
1017.07	211.20
1017.36	211.17
1017.64	211.06
1017.93	210.94
1018.22	210.92
1018.50	210.95
1018.79	210.98
1019.08	210.83
1019.36	210.81
1019.65	210.79
1019.93	210.87
1020.22	211.03
1020.51	211.27
1020.79	211.22
1021.08	210.20
1021.36	210.85
1021.65	210.90
1021.94	211.15
1022.22	210.50
1022.51	211.15
1022.79	212.05
1023.08	212.20
1023.36	215.60
1023.65	210.65
>>>>>End Processed Spectral Data<<<<<
