SpectraSuite Data File
++++++++++++++++++++++++++++++++++++
Date: Mon Feb 25 17:01:47 EST 2013
User: group
Dark Spectrum Present: No
Reference Spectrum Present: No
Number of Sampled Component Spectra: 1
Spectrometers: USB2E7196
Integration Time (usec): 104000 (USB2E7196)
Spectra Averaged: 20 (USB2E7196)
Boxcar Smoothing: 10 (USB2E7196)
Correct for Electrical Dark: No (USB2E7196)
Strobe/Lamp Enabled: No (USB2E7196)
Correct for Detector Non-linearity: No (USB2E7196)
Correct for Stray Light: No (USB2E7196)
Number of Pixels in Processed Spectrum: 2048
>>>>>Begin Processed Spectral Data<<<<<
339.09	0.00
339.48	199.35
339.86	200.45
340.24	201.20
340.63	202.75
341.01	208.40
341.39	205.80
341.78	207.30
342.16	208.90
342.54	209.00
342.93	198.38
343.31	208.36
343.69	208.86
344.07	209.29
344.46	209.78
344.84	210.25
345.22	210.32
345.60	210.58
345.99	210.75
346.37	210.83
346.75	210.88
347.13	210.93
347.52	210.96
347.90	211.09
348.28	211.08
348.66	211.06
349.05	210.99
349.43	211.07
349.81	211.07
350.19	211.12
350.57	211.15
350.96	211.22
351.34	211.31
351.72	211.37
352.10	211.46
352.48	211.52
352.87	211.50
353.25	211.53
353.63	211.50
354.01	211.62
354.39	211.69
354.77	211.76
355.15	211.92
355.54	211.89
355.92	211.84
356.30	211.88
356.68	212.23
357.06	212.28
357.44	212.26
357.82	212.32
358.20	212.36
358.58	212.35
358.97	212.38
359.35	212.47
359.73	212.60
360.11	212.61
360.49	212.60
360.87	212.58
361.25	212.70
361.63	212.88
362.01	212.80
362.39	212.76
362.77	212.82
363.15	212.88
363.53	212.92
363.91	212.92
364.29	212.98
364.67	212.64
365.05	212.74
365.43	212.80
365.81	212.83
366.19	213.04
366.57	213.19
366.95	213.17
367.33	213.18
367.71	213.13
368.09	213.22
368.47	213.17
368.85	213.14
369.23	213.18
369.61	213.08
369.99	213.20
370.37	213.30
370.75	213.46
371.13	213.32
371.51	213.28
371.89	213.32
372.27	213.38
372.65	213.35
373.03	213.24
373.41	213.22
373.78	213.13
374.16	212.93
374.54	212.70
374.92	212.63
375.30	212.48
375.68	212.40
376.06	212.31
376.44	212.29
376.82	212.25
377.19	212.21
377.57	212.19
377.95	212.07
378.33	211.95
378.71	211.63
379.09	211.54
379.47	211.51
379.84	211.41
380.22	211.20
380.60	211.20
380.98	211.12
381.36	210.99
381.73	210.97
382.11	211.00
382.49	211.05
382.87	210.98
383.25	210.99
383.62	211.31
384.00	211.26
384.38	211.27
384.76	211.31
385.13	211.33
385.51	211.26
385.89	211.20
386.27	211.16
386.64	211.19
387.02	211.20
387.40	211.14
387.78	211.09
388.15	211.16
388.53	211.03
388.91	210.99
389.29	211.00
389.66	211.00
390.04	210.91
390.42	210.98
390.79	210.99
391.17	210.97
391.55	210.56
391.92	210.56
392.30	210.54
392.68	210.47
393.05	210.47
393.43	210.40
393.81	210.44
394.18	210.41
394.56	210.44
394.94	210.49
395.31	210.46
395.69	210.54
396.06	210.54
396.44	210.57
396.82	210.61
397.19	210.78
397.57	210.79
397.95	210.95
398.32	210.81
398.70	210.82
399.07	210.94
399.45	211.01
399.82	211.01
400.20	211.04
400.58	211.14
400.95	211.02
401.33	211.15
401.70	211.37
402.08	211.53
402.45	211.57
402.83	211.68
403.20	211.79
403.58	211.85
403.95	212.01
404.33	212.28
404.71	212.41
405.08	212.66
405.46	212.77
405.83	212.81
406.21	213.01
406.58	213.20
406.96	213.34
407.33	213.56
407.70	213.88
408.08	214.36
408.45	214.68
408.83	215.03
409.20	215.36
409.58	215.52
409.95	215.88
410.33	216.33
410.70	216.63
411.08	217.11
411.45	217.65
411.82	218.15
412.20	218.69
412.57	219.38
412.95	219.75
413.32	220.49
413.69	221.16
414.07	221.94
414.44	222.80
414.82	223.58
415.19	224.57
415.56	225.49
415.94	226.44
416.31	227.60
416.68	228.84
417.06	230.19
417.43	231.61
417.81	233.13
418.18	234.67
418.55	236.39
418.93	238.19
419.30	239.96
419.67	241.85
420.04	243.80
420.42	245.95
420.79	248.57
421.16	250.96
421.54	253.69
421.91	256.34
422.28	259.07
422.66	262.04
423.03	265.12
423.40	268.08
423.77	271.18
424.15	274.49
424.52	277.92
424.89	281.71
425.26	285.21
425.64	288.62
426.01	292.42
426.38	296.38
426.75	300.40
427.13	304.62
427.50	309.03
427.87	313.69
428.24	318.24
428.61	322.51
428.99	327.41
429.36	332.41
429.73	337.59
430.10	342.76
430.47	348.13
430.85	353.47
431.22	359.45
431.59	366.01
431.96	371.89
432.33	378.42
432.70	384.65
433.08	392.25
433.45	399.31
433.82	406.28
434.19	414.10
434.56	421.91
434.93	429.39
435.30	436.85
435.68	444.99
436.05	453.23
436.42	461.43
436.79	469.02
437.16	477.28
437.53	485.74
437.90	494.26
438.27	502.71
438.64	511.51
439.01	519.77
439.38	526.95
439.75	534.19
440.13	542.17
440.50	550.10
440.87	556.40
441.24	563.21
441.61	570.62
441.98	576.25
442.35	582.68
442.72	589.14
443.09	595.44
443.46	599.51
443.83	602.41
444.20	604.97
444.57	608.49
444.94	610.51
445.31	612.74
445.68	614.89
446.05	616.06
446.42	615.88
446.79	615.39
447.16	614.87
447.53	614.72
447.90	612.28
448.27	609.50
448.64	605.65
449.01	602.85
449.37	597.75
449.74	592.70
450.11	586.85
450.48	580.28
450.85	573.55
451.22	567.71
451.59	562.19
451.96	557.01
452.33	549.66
452.70	543.10
453.07	535.28
453.43	527.24
453.80	519.58
454.17	512.09
454.54	505.06
454.91	497.37
455.28	489.88
455.65	483.09
456.02	476.59
456.38	470.72
456.75	463.46
457.12	457.30
457.49	451.44
457.86	445.32
458.23	440.34
458.59	434.79
458.96	429.27
459.33	424.26
459.70	419.11
460.07	415.32
460.43	410.84
460.80	406.65
461.17	402.79
461.54	398.82
461.91	395.09
462.27	391.31
462.64	388.11
463.01	384.56
463.38	381.15
463.74	377.35
464.11	374.30
464.48	371.60
464.85	368.75
465.21	366.48
465.58	364.12
465.95	361.08
466.32	358.67
466.68	356.26
467.05	353.87
467.42	351.55
467.78	348.99
468.15	346.55
468.52	344.69
468.88	342.36
469.25	340.32
469.62	338.69
469.98	336.84
470.35	335.05
470.72	333.40
471.08	331.58
471.45	330.19
471.82	328.71
472.18	327.07
472.55	325.87
472.92	324.39
473.28	323.09
473.65	321.89
474.02	320.65
474.38	319.69
474.75	318.79
475.11	317.80
475.48	317.11
475.85	316.40
476.21	315.55
476.58	315.02
476.94	314.54
477.31	313.98
477.67	313.47
478.04	313.13
478.41	312.80
478.77	312.84
479.14	312.29
479.50	312.15
479.87	312.09
480.23	311.92
480.60	311.78
480.96	311.63
481.33	311.96
481.69	311.99
482.06	311.86
482.42	311.94
482.79	312.07
483.15	312.20
483.52	312.63
483.88	312.84
484.25	313.14
484.61	313.34
484.98	313.65
485.34	314.28
485.71	314.80
486.07	315.34
486.44	315.50
486.80	316.20
487.17	316.86
487.53	317.78
487.90	318.72
488.26	319.79
488.62	320.77
488.99	321.46
489.35	322.56
489.72	323.71
490.08	324.86
490.44	325.94
490.81	327.28
491.17	328.42
491.54	329.89
491.90	331.22
492.26	332.74
492.63	334.25
492.99	335.60
493.36	337.18
493.72	338.86
494.08	340.66
494.45	342.52
494.81	344.33
495.17	345.97
495.54	347.93
495.90	349.61
496.26	351.57
496.63	353.56
496.99	355.45
497.35	357.52
497.72	359.56
498.08	361.70
498.44	363.84
498.80	366.02
499.17	368.14
499.53	370.27
499.89	372.46
500.26	374.57
500.62	376.64
500.98	378.89
501.34	380.92
501.71	383.07
502.07	385.04
502.43	387.07
502.79	389.05
503.16	390.80
503.52	392.76
503.88	394.52
504.24	396.32
504.60	398.07
504.97	399.82
505.33	401.38
505.69	403.21
506.05	404.77
506.41	406.36
506.78	407.83
507.14	409.19
507.50	410.56
507.86	411.95
508.22	413.29
508.59	414.29
508.95	415.50
509.31	416.69
509.67	417.78
510.03	418.78
510.39	419.81
510.75	420.75
511.12	421.69
511.48	422.57
511.84	423.45
512.20	424.25
512.56	424.92
512.92	425.82
513.28	426.38
513.64	426.86
514.00	427.25
514.37	427.76
514.73	428.36
515.09	428.73
515.45	429.01
515.81	429.32
516.17	429.56
516.53	429.61
516.89	429.50
517.25	429.50
517.61	429.59
517.97	429.52
518.33	429.53
518.69	429.46
519.05	429.31
519.41	429.26
519.77	429.38
520.13	429.29
520.49	428.91
520.85	428.69
521.21	428.64
521.57	428.46
521.93	428.02
522.29	427.81
522.65	427.59
523.01	427.47
523.37	427.24
523.73	427.10
524.09	427.06
524.45	427.08
524.81	427.12
525.17	427.08
525.53	427.24
525.89	427.21
526.25	427.30
526.61	427.47
526.97	427.48
527.33	427.49
527.68	428.10
528.04	428.45
528.40	428.76
528.76	429.15
529.12	429.61
529.48	430.31
529.84	430.80
530.20	431.48
530.56	432.11
530.91	433.01
531.27	433.89
531.63	434.89
531.99	435.92
532.35	436.92
532.71	437.85
533.07	438.90
533.42	440.48
533.78	441.59
534.14	442.85
534.50	444.11
534.86	445.60
535.21	446.62
535.57	448.19
535.93	449.61
536.29	451.18
536.65	452.90
537.00	454.33
537.36	455.88
537.72	457.58
538.08	459.47
538.44	461.08
538.79	463.00
539.15	464.92
539.51	466.70
539.87	468.57
540.22	470.72
540.58	472.84
540.94	474.78
541.29	476.93
541.65	479.01
542.01	481.49
542.37	483.77
542.72	486.16
543.08	488.55
543.44	490.98
543.79	493.05
544.15	495.45
544.51	498.23
544.87	501.07
545.22	503.64
545.58	506.03
545.94	508.62
546.29	511.11
546.65	513.54
547.01	516.05
547.36	518.70
547.72	521.40
548.07	524.05
548.43	526.53
548.79	529.27
549.14	531.96
549.50	534.60
549.86	537.12
550.21	539.89
550.57	542.59
550.92	545.27
551.28	548.26
551.64	550.93
551.99	553.57
552.35	555.95
552.70	558.60
553.06	561.29
553.41	564.02
553.77	566.90
554.13	569.81
554.48	572.83
554.84	575.78
555.19	578.38
555.55	581.23
555.90	583.77
556.26	586.21
556.61	588.70
556.97	590.99
557.32	593.57
557.68	595.87
558.03	598.30
558.39	600.61
558.74	603.15
559.10	605.58
559.45	608.01
559.81	610.65
560.16	612.91
560.52	615.29
560.87	617.69
561.23	619.72
561.58	622.09
561.94	624.16
562.29	625.99
562.64	628.19
563.00	630.17
563.35	632.18
563.71	634.60
564.06	636.95
564.42	639.23
564.77	641.56
565.12	643.84
565.48	646.31
565.83	648.67
566.19	650.67
566.54	652.66
566.89	654.63
567.25	656.53
567.60	658.73
567.96	660.99
568.31	663.13
568.66	665.19
569.02	666.56
569.37	667.87
569.72	669.73
570.08	671.38
570.43	672.78
570.78	674.35
571.14	675.52
571.49	676.60
571.84	677.82
572.20	678.68
572.55	679.71
572.90	680.05
573.26	680.66
573.61	681.18
573.96	681.97
574.31	682.52
574.67	682.97
575.02	683.15
575.37	683.26
575.72	683.16
576.08	683.28
576.43	683.28
576.78	683.89
577.13	684.07
577.49	684.19
577.84	684.32
578.19	684.74
578.54	685.11
578.90	685.60
579.25	685.71
579.60	685.61
579.95	685.48
580.30	685.75
580.66	686.02
581.01	686.03
581.36	685.77
581.71	685.64
582.06	685.69
582.42	685.56
582.77	685.32
583.12	685.19
583.47	685.17
583.82	685.28
584.17	684.97
584.53	684.88
584.88	684.41
585.23	684.25
585.58	683.67
585.93	683.19
586.28	682.75
586.63	682.50
586.98	682.25
587.34	682.00
587.69	681.41
588.04	680.78
588.39	680.41
588.74	679.95
589.09	679.57
589.44	678.77
589.79	678.40
590.14	677.76
590.49	677.30
590.84	676.35
591.19	675.89
591.54	675.22
591.89	674.05
592.25	673.66
592.60	672.55
592.95	671.59
593.30	670.45
593.65	669.21
594.00	667.91
594.35	667.73
594.70	666.71
595.05	665.78
595.40	664.67
595.75	663.34
596.10	662.32
596.45	661.13
596.80	660.25
597.15	659.20
597.50	658.09
597.85	657.01
598.19	655.94
598.54	654.74
598.89	653.66
599.24	653.00
599.59	651.81
599.94	651.00
600.29	650.22
600.64	649.14
600.99	648.10
601.34	647.16
601.69	645.11
602.04	643.79
602.39	642.56
602.74	641.53
603.08	640.65
603.43	639.77
603.78	638.63
604.13	637.46
604.48	636.36
604.83	635.52
605.18	634.59
605.53	633.56
605.87	632.44
606.22	631.37
606.57	629.95
606.92	628.49
607.27	627.14
607.62	625.74
607.96	624.81
608.31	623.83
608.66	622.45
609.01	621.18
609.36	619.80
609.70	618.47
610.05	616.94
610.40	615.52
610.75	613.88
611.10	612.72
611.44	611.05
611.79	609.36
612.14	607.52
612.49	605.46
612.83	603.78
613.18	601.91
613.53	600.10
613.88	598.33
614.22	596.61
614.57	594.99
614.92	593.23
615.27	591.37
615.61	589.46
615.96	588.04
616.31	586.54
616.65	585.14
617.00	583.43
617.35	581.79
617.70	579.88
618.04	578.08
618.39	575.82
618.74	574.04
619.08	572.06
619.43	570.36
619.78	568.74
620.12	567.02
620.47	565.30
620.82	563.35
621.16	561.47
621.51	559.78
621.85	557.76
622.20	555.88
622.55	553.85
622.89	551.92
623.24	549.91
623.59	547.72
623.93	545.75
624.28	543.96
624.62	542.48
624.97	540.80
625.32	538.77
625.66	537.19
626.01	535.43
626.35	533.85
626.70	532.00
627.04	530.30
627.39	528.56
627.73	526.83
628.08	525.16
628.43	523.37
628.77	521.48
629.12	519.60
629.46	517.96
629.81	516.38
630.15	514.60
630.50	512.62
630.84	510.91
631.19	508.99
631.53	507.11
631.88	504.82
632.22	502.93
632.57	501.41
632.91	499.66
633.26	497.95
633.60	496.13
633.95	494.36
634.29	492.49
634.64	490.77
634.98	488.95
635.32	487.33
635.67	485.90
636.01	484.32
636.36	482.72
636.70	481.03
637.05	479.18
637.39	477.53
637.73	476.04
638.08	474.59
638.42	473.25
638.77	471.76
639.11	470.22
639.45	468.65
639.80	466.82
640.14	465.12
640.49	463.37
640.83	461.68
641.17	460.07
641.52	458.41
641.86	456.69
642.20	455.12
642.55	453.28
642.89	451.39
643.23	449.56
643.58	448.15
643.92	446.45
644.26	444.89
644.61	443.27
644.95	441.73
645.29	439.96
645.64	438.12
645.98	436.37
646.32	434.80
646.66	433.05
647.01	431.45
647.35	429.91
647.69	428.25
648.04	426.79
648.38	425.10
648.72	423.50
649.06	421.82
649.41	420.21
649.75	418.64
650.09	417.13
650.43	415.66
650.78	413.88
651.12	412.23
651.46	410.60
651.80	409.05
652.14	407.25
652.49	405.76
652.83	404.22
653.17	402.59
653.51	401.06
653.85	399.59
654.20	398.15
654.54	396.40
654.88	394.84
655.22	393.17
655.56	391.54
655.90	390.01
656.25	388.46
656.59	386.84
656.93	385.31
657.27	383.86
657.61	382.27
657.95	380.82
658.29	379.28
658.64	378.01
658.98	376.47
659.32	374.85
659.66	373.36
660.00	371.87
660.34	370.33
660.68	368.77
661.02	367.20
661.36	365.69
661.70	364.32
662.05	363.05
662.39	361.83
662.73	360.67
663.07	359.60
663.41	358.28
663.75	356.97
664.09	355.69
664.43	354.29
664.77	353.04
665.11	351.63
665.45	350.40
665.79	349.05
666.13	347.90
666.47	346.87
666.81	345.61
667.15	344.30
667.49	343.27
667.83	342.25
668.17	341.19
668.51	340.11
668.85	339.10
669.19	338.09
669.53	336.78
669.87	335.53
670.21	334.11
670.55	333.02
670.89	332.15
671.23	331.09
671.57	330.10
671.91	329.05
672.25	328.05
672.58	327.05
672.92	326.01
673.26	324.91
673.60	323.88
673.94	322.92
674.28	321.97
674.62	320.99
674.96	319.96
675.30	318.97
675.64	318.00
675.97	317.03
676.31	316.01
676.65	315.17
676.99	314.46
677.33	313.47
677.67	312.60
678.01	311.50
678.34	310.63
678.68	309.77
679.02	308.76
679.36	307.91
679.70	307.02
680.04	306.18
680.37	305.31
680.71	304.42
681.05	303.54
681.39	302.74
681.73	301.93
682.06	301.05
682.40	300.25
682.74	299.45
683.08	298.78
683.42	297.87
683.75	297.11
684.09	296.16
684.43	295.39
684.77	294.58
685.10	293.73
685.44	292.91
685.78	292.10
686.12	291.49
686.45	290.71
686.79	289.92
687.13	289.19
687.46	288.45
687.80	287.81
688.14	287.10
688.48	286.48
688.81	285.80
689.15	285.16
689.49	284.45
689.82	283.75
690.16	282.83
690.50	282.13
690.83	281.35
691.17	280.56
691.51	279.92
691.84	279.27
692.18	278.74
692.52	278.11
692.85	277.51
693.19	276.94
693.52	276.38
693.86	275.70
694.20	275.02
694.53	274.39
694.87	273.71
695.21	273.03
695.54	272.32
695.88	271.49
696.21	270.81
696.55	270.20
696.88	269.61
697.22	268.93
697.56	268.52
697.89	267.93
698.23	267.43
698.56	266.78
698.90	266.26
699.23	265.62
699.57	265.04
699.90	264.40
700.24	263.68
700.58	263.12
700.91	262.60
701.25	262.33
701.58	261.97
701.92	261.47
702.25	260.95
702.59	260.40
702.92	259.99
703.26	259.46
703.59	258.97
703.93	258.67
704.26	258.29
704.60	257.69
704.93	257.17
705.26	256.69
705.60	256.27
705.93	255.65
706.27	255.30
706.60	254.90
706.94	254.67
707.27	254.16
707.61	253.69
707.94	253.25
708.27	252.50
708.61	251.95
708.94	251.49
709.28	251.07
709.61	250.68
709.94	250.25
710.28	249.89
710.61	249.47
710.95	248.84
711.28	248.67
711.61	248.30
711.95	247.99
712.28	247.59
712.61	247.20
712.95	247.04
713.28	246.77
713.61	246.35
713.95	245.83
714.28	245.58
714.61	245.15
714.95	244.71
715.28	244.30
715.61	243.85
715.95	243.50
716.28	243.17
716.61	242.83
716.95	242.50
717.28	242.11
717.61	241.87
717.94	241.52
718.28	240.93
718.61	240.62
718.94	240.33
719.27	240.00
719.61	239.80
719.94	239.44
720.27	238.95
720.60	238.64
720.94	238.29
721.27	238.00
721.60	237.75
721.93	237.60
722.27	237.44
722.60	237.32
722.93	237.00
723.26	236.70
723.59	236.38
723.93	236.16
724.26	235.94
724.59	235.65
724.92	235.45
725.25	235.31
725.59	235.08
725.92	234.90
726.25	234.67
726.58	234.46
726.91	234.19
727.24	234.03
727.57	233.77
727.91	233.55
728.24	233.41
728.57	233.21
728.90	233.01
729.23	232.79
729.56	232.68
729.89	232.52
730.22	232.32
730.55	232.20
730.89	232.04
731.22	231.84
731.55	231.54
731.88	231.30
732.21	231.01
732.54	230.78
732.87	230.52
733.20	230.35
733.53	230.07
733.86	229.94
734.19	229.71
734.52	229.55
734.85	229.62
735.18	229.44
735.51	229.35
735.84	229.19
736.17	229.14
736.50	228.79
736.83	229.08
737.16	228.96
737.49	228.76
737.82	228.49
738.15	228.39
738.48	228.35
738.81	228.24
739.14	228.08
739.47	227.90
739.80	227.70
740.13	227.55
740.46	227.33
740.79	227.09
741.12	226.83
741.45	226.60
741.78	226.23
742.11	226.11
742.44	225.90
742.77	225.79
743.10	225.54
743.43	225.44
743.75	224.92
744.08	225.25
744.41	225.04
744.74	224.95
745.07	224.76
745.40	224.59
745.73	224.59
746.06	224.51
746.39	224.32
746.71	224.21
747.04	224.01
747.37	223.89
747.70	223.78
748.03	223.72
748.36	223.65
748.68	223.47
749.01	223.26
749.34	223.15
749.67	223.02
750.00	222.88
750.33	222.95
750.65	222.79
750.98	222.13
751.31	222.02
751.64	221.86
751.97	221.93
752.29	221.85
752.62	221.57
752.95	221.34
753.28	221.29
753.60	221.15
753.93	221.21
754.26	221.15
754.59	221.04
754.91	220.94
755.24	220.81
755.57	220.77
755.90	220.64
756.22	220.42
756.55	220.25
756.88	220.13
757.20	219.83
757.53	219.64
757.86	219.47
758.19	219.40
758.51	219.28
758.84	219.00
759.17	218.80
759.49	218.72
759.82	218.87
760.15	218.75
760.47	218.67
760.80	218.48
761.13	218.39
761.45	218.24
761.78	218.12
762.11	218.03
762.43	217.87
762.76	217.81
763.08	217.82
763.41	217.75
763.74	217.65
764.06	217.54
764.39	217.45
764.71	217.37
765.04	217.26
765.37	217.22
765.69	217.18
766.02	217.14
766.34	217.03
766.67	216.79
767.00	216.89
767.32	216.99
767.65	217.06
767.97	217.02
768.30	217.00
768.62	216.98
768.95	216.95
769.27	216.95
769.60	216.94
769.92	216.84
770.25	216.70
770.57	216.65
770.90	216.61
771.22	216.58
771.55	216.61
771.87	216.64
772.20	216.50
772.52	216.71
772.85	217.08
773.17	216.99
773.50	216.92
773.82	216.75
774.15	216.52
774.47	216.30
774.80	216.20
775.12	216.09
775.45	216.03
775.77	216.06
776.09	216.05
776.42	215.97
776.74	216.08
777.07	216.06
777.39	216.06
777.72	216.00
778.04	216.04
778.36	215.98
778.69	216.00
779.01	216.09
779.33	215.77
779.66	215.36
779.98	215.32
780.31	215.36
780.63	215.50
780.95	215.52
781.28	215.52
781.60	215.45
781.92	215.54
782.25	215.45
782.57	215.35
782.89	215.24
783.22	215.11
783.54	214.99
783.86	214.99
784.19	214.93
784.51	214.96
784.83	214.83
785.16	214.84
785.48	214.79
785.80	214.72
786.12	214.73
786.45	214.68
786.77	214.80
787.09	214.75
787.42	214.53
787.74	214.58
788.06	214.52
788.38	214.50
788.71	214.36
789.03	214.42
789.35	214.48
789.67	214.40
789.99	214.44
790.32	214.31
790.64	214.28
790.96	214.49
791.28	214.42
791.61	214.41
791.93	214.40
792.25	214.34
792.57	214.49
792.89	214.31
793.21	214.26
793.54	214.12
793.86	214.01
794.18	214.06
794.50	213.91
794.82	213.90
795.14	213.97
795.47	214.05
795.79	213.98
796.11	213.90
796.43	213.88
796.75	213.90
797.07	213.88
797.39	213.89
797.71	213.63
798.04	213.61
798.36	213.61
798.68	213.49
799.00	213.49
799.32	213.32
799.64	213.43
799.96	213.45
800.28	213.48
800.60	213.45
800.92	213.37
801.24	213.34
801.56	213.30
801.89	213.18
802.21	213.13
802.53	213.08
802.85	213.09
803.17	213.32
803.49	213.23
803.81	213.31
804.13	213.22
804.45	213.20
804.77	213.27
805.09	213.18
805.41	213.20
805.73	213.05
806.05	212.95
806.37	212.93
806.69	212.86
807.01	212.77
807.33	212.70
807.65	212.60
807.97	212.73
808.28	212.75
808.60	212.78
808.92	212.73
809.24	212.98
809.56	212.91
809.88	212.68
810.20	212.74
810.52	212.74
810.84	212.75
811.16	212.67
811.48	212.50
811.80	212.69
812.12	212.68
812.43	212.78
812.75	212.86
813.07	212.81
813.39	212.84
813.71	212.85
814.03	212.95
814.35	212.98
814.67	212.85
814.98	212.74
815.30	212.70
815.62	212.59
815.94	212.30
816.26	212.26
816.58	212.21
816.89	212.15
817.21	212.00
817.53	211.98
817.85	212.03
818.17	212.09
818.48	211.92
818.80	211.96
819.12	211.92
819.44	211.75
819.76	211.70
820.07	211.74
820.39	211.71
820.71	211.75
821.03	211.79
821.34	211.76
821.66	211.82
821.98	211.88
822.30	211.89
822.61	212.14
822.93	212.09
823.25	212.11
823.57	212.07
823.88	212.16
824.20	212.13
824.52	212.14
824.83	212.14
825.15	212.09
825.47	212.04
825.79	212.05
826.10	212.08
826.42	212.09
826.74	212.08
827.05	212.13
827.37	212.10
827.69	212.00
828.00	212.05
828.32	212.10
828.64	211.98
828.95	212.19
829.27	212.13
829.58	212.17
829.90	212.17
830.22	212.22
830.53	212.10
830.85	212.09
831.17	212.05
831.48	211.99
831.80	211.99
832.11	211.99
832.43	211.95
832.75	211.98
833.06	212.13
833.38	212.00
833.69	211.92
834.01	211.90
834.32	211.91
834.64	211.80
834.96	211.75
835.27	211.82
835.59	211.66
835.90	211.57
836.22	211.55
836.53	211.57
836.85	211.48
837.16	211.84
837.48	211.88
837.79	211.95
838.11	211.93
838.42	211.99
838.74	211.98
839.05	212.02
839.37	212.00
839.68	211.80
840.00	211.80
840.31	211.89
840.63	211.83
840.94	211.88
841.26	211.89
841.57	211.91
841.88	211.93
842.20	211.85
842.51	211.77
842.83	211.83
843.14	212.06
843.46	212.15
843.77	211.98
844.08	211.92
844.40	211.85
844.71	211.87
845.03	211.83
845.34	211.84
845.65	211.76
845.97	211.75
846.28	211.78
846.60	211.80
846.91	211.67
847.22	211.65
847.54	211.61
847.85	211.65
848.16	211.64
848.48	211.54
848.79	211.75
849.10	211.79
849.42	211.71
849.73	211.42
850.04	211.31
850.36	211.19
850.67	211.28
850.98	211.29
851.30	211.29
851.61	211.18
851.92	211.13
852.23	211.24
852.55	211.24
852.86	211.25
853.17	211.30
853.49	211.41
853.80	211.52
854.11	211.55
854.42	211.54
854.74	211.45
855.05	211.50
855.36	211.21
855.67	211.24
855.99	211.25
856.30	211.66
856.61	211.64
856.92	211.64
857.23	211.58
857.55	211.58
857.86	211.61
858.17	211.80
858.48	211.78
858.79	211.68
859.11	211.75
859.42	211.68
859.73	211.63
860.04	211.60
860.35	211.48
860.66	211.46
860.98	211.47
861.29	211.53
861.60	211.53
861.91	211.72
862.22	211.56
862.53	211.49
862.84	211.02
863.16	211.19
863.47	211.17
863.78	211.16
864.09	211.10
864.40	211.09
864.71	211.01
865.02	211.03
865.33	211.03
865.64	210.90
865.95	211.06
866.27	211.31
866.58	211.22
866.89	211.28
867.20	211.26
867.51	211.23
867.82	211.24
868.13	211.33
868.44	211.15
868.75	211.34
869.06	211.42
869.37	211.46
869.68	211.34
869.99	211.35
870.30	211.43
870.61	211.51
870.92	211.43
871.23	211.37
871.54	211.46
871.85	211.52
872.16	211.60
872.47	211.52
872.78	211.29
873.09	211.34
873.40	211.36
873.71	211.42
874.02	211.41
874.33	211.35
874.64	211.30
874.95	211.39
875.26	211.29
875.56	211.31
875.87	211.38
876.18	211.41
876.49	211.74
876.80	211.74
877.11	211.68
877.42	211.71
877.73	211.84
878.04	211.74
878.35	211.73
878.66	211.70
878.96	211.69
879.27	211.63
879.58	211.61
879.89	211.54
880.20	211.63
880.51	211.60
880.82	211.64
881.12	211.63
881.43	211.50
881.74	211.50
882.05	211.41
882.36	211.38
882.67	211.42
882.97	211.05
883.28	210.94
883.59	210.93
883.90	210.96
884.21	210.96
884.51	210.98
884.82	210.95
885.13	211.03
885.44	210.90
885.74	211.01
886.05	211.05
886.36	211.04
886.67	210.83
886.98	211.02
887.28	211.04
887.59	211.03
887.90	211.15
888.20	211.07
888.51	211.15
888.82	211.09
889.13	211.06
889.43	211.35
889.74	211.40
890.05	211.35
890.35	211.26
890.66	211.17
890.97	211.12
891.28	211.05
891.58	210.99
891.89	211.08
892.20	211.00
892.50	210.95
892.81	210.94
893.12	210.97
893.42	210.76
893.73	210.76
894.04	210.67
894.34	210.67
894.65	210.73
894.95	210.70
895.26	210.73
895.57	210.94
895.87	210.58
896.18	210.62
896.48	210.71
896.79	210.72
897.10	210.78
897.40	210.80
897.71	210.88
898.01	210.93
898.32	210.92
898.63	210.90
898.93	210.95
899.24	211.04
899.54	211.02
899.85	211.10
900.15	211.11
900.46	211.20
900.76	211.20
901.07	211.19
901.38	211.19
901.68	211.29
901.99	210.99
902.29	211.06
902.60	211.00
902.90	210.90
903.21	210.98
903.51	210.95
903.82	211.08
904.12	211.02
904.43	211.02
904.73	211.01
905.03	211.06
905.34	211.39
905.64	211.30
905.95	211.30
906.25	211.29
906.56	211.22
906.86	211.20
907.17	211.19
907.47	211.23
907.77	211.21
908.08	211.10
908.38	211.25
908.69	211.20
908.99	211.35
909.30	211.37
909.60	211.34
909.90	211.35
910.21	211.19
910.51	211.20
910.81	211.16
911.12	211.26
911.42	211.20
911.73	210.80
912.03	210.82
912.33	210.89
912.64	210.87
912.94	210.82
913.24	210.79
913.55	210.80
913.85	210.76
914.15	210.78
914.46	210.80
914.76	210.71
915.06	210.73
915.37	210.61
915.67	210.60
915.97	210.54
916.27	210.41
916.58	210.50
916.88	210.50
917.18	210.50
917.49	210.69
917.79	210.72
918.09	210.83
918.39	210.93
918.70	210.86
919.00	210.83
919.30	211.01
919.60	210.98
919.91	210.92
920.21	210.97
920.51	210.98
920.81	210.98
921.12	211.10
921.42	211.14
921.72	211.16
922.02	211.24
922.32	211.34
922.63	211.46
922.93	211.67
923.23	211.67
923.53	211.64
923.83	211.38
924.13	211.33
924.44	211.27
924.74	211.29
925.04	211.41
925.34	211.45
925.64	211.39
925.94	211.46
926.24	211.69
926.55	211.59
926.85	211.62
927.15	211.59
927.45	211.49
927.75	211.47
928.05	211.50
928.35	211.45
928.65	211.52
928.95	211.50
929.26	211.29
929.56	211.43
929.86	211.43
930.16	211.43
930.46	211.52
930.76	211.59
931.06	211.47
931.36	211.41
931.66	211.44
931.96	211.47
932.26	211.46
932.56	211.31
932.86	211.39
933.16	211.38
933.46	211.35
933.76	211.45
934.06	211.53
934.36	211.65
934.66	211.65
934.96	211.56
935.26	211.52
935.56	211.66
935.86	211.47
936.16	211.47
936.46	211.43
936.76	211.38
937.06	211.26
937.36	211.32
937.66	211.34
937.96	211.35
938.26	211.25
938.56	211.28
938.86	211.35
939.16	211.50
939.46	211.49
939.76	211.55
940.06	211.45
940.35	211.38
940.65	211.22
940.95	211.30
941.25	211.20
941.55	211.25
941.85	211.13
942.15	211.18
942.45	211.25
942.75	211.26
943.04	211.30
943.34	211.42
943.64	211.33
943.94	211.31
944.24	211.34
944.54	211.41
944.84	211.37
945.13	211.29
945.43	211.14
945.73	211.10
946.03	211.08
946.33	211.06
946.62	211.10
946.92	211.08
947.22	211.02
947.52	211.08
947.82	211.19
948.11	211.20
948.41	211.18
948.71	211.07
949.01	211.11
949.31	211.02
949.60	210.95
949.90	211.04
950.20	210.96
950.50	210.92
950.79	210.90
951.09	210.92
951.39	210.97
951.69	210.96
951.98	211.04
952.28	211.06
952.58	211.06
952.87	211.04
953.17	211.03
953.47	211.03
953.76	211.03
954.06	210.86
954.36	210.82
954.66	210.84
954.95	210.98
955.25	210.96
955.55	211.12
955.84	211.03
956.14	211.00
956.44	211.12
956.73	211.05
957.03	211.03
957.32	211.04
957.62	210.99
957.92	211.03
958.21	210.97
958.51	211.33
958.81	211.42
959.10	211.46
959.40	211.59
959.69	211.63
959.99	211.70
960.29	211.70
960.58	211.68
960.88	211.81
961.17	211.73
961.47	211.79
961.76	211.70
962.06	211.81
962.36	211.80
962.65	211.80
962.95	211.83
963.24	211.75
963.54	211.76
963.83	211.77
964.13	211.72
964.42	211.61
964.72	211.31
965.01	211.24
965.31	211.15
965.60	211.04
965.90	211.23
966.19	211.11
966.49	211.13
966.78	211.13
967.08	211.07
967.37	211.11
967.67	211.05
967.96	211.09
968.26	211.10
968.55	211.09
968.85	211.00
969.14	210.98
969.43	211.03
969.73	210.92
970.02	210.92
970.32	210.92
970.61	210.99
970.91	210.93
971.20	210.87
971.49	210.85
971.79	210.94
972.08	210.65
972.38	210.67
972.67	210.76
972.96	210.76
973.26	210.65
973.55	210.68
973.85	210.68
974.14	210.67
974.43	210.71
974.73	210.59
975.02	210.53
975.31	210.54
975.61	210.53
975.90	210.51
976.19	210.54
976.49	210.57
976.78	210.57
977.07	210.52
977.37	210.56
977.66	210.63
977.95	210.47
978.24	210.55
978.54	210.64
978.83	210.51
979.12	210.50
979.42	210.54
979.71	210.61
980.00	210.53
980.29	210.53
980.59	210.45
980.88	210.65
981.17	210.73
981.46	210.72
981.76	210.70
982.05	210.85
982.34	210.83
982.63	210.76
982.93	210.83
983.22	210.92
983.51	210.92
983.80	210.93
984.09	211.12
984.39	211.00
984.68	210.92
984.97	211.05
985.26	211.05
985.55	211.10
985.85	210.97
986.14	211.09
986.43	211.10
986.72	211.06
987.01	210.92
987.30	210.86
987.59	210.84
987.89	210.89
988.18	210.77
988.47	210.69
988.76	210.70
989.05	210.65
989.34	210.61
989.63	210.63
989.92	210.62
990.22	210.47
990.51	210.50
990.80	210.53
991.09	210.45
991.38	210.46
991.67	210.41
991.96	210.38
992.25	210.35
992.54	210.24
992.83	210.21
993.12	210.26
993.41	210.33
993.70	210.45
993.99	210.49
994.28	210.55
994.58	210.66
994.87	210.68
995.16	210.68
995.45	210.60
995.74	210.47
996.03	210.47
996.32	210.51
996.61	210.61
996.90	210.58
997.19	210.57
997.48	210.59
997.77	210.53
998.06	210.55
998.34	210.55
998.63	210.54
998.92	210.61
999.21	210.60
999.50	210.58
999.79	210.52
1000.08	210.49
1000.37	210.48
1000.66	210.35
1000.95	210.42
1001.24	210.46
1001.53	210.50
1001.82	210.55
1002.11	210.48
1002.40	210.50
1002.68	210.53
1002.97	210.75
1003.26	210.66
1003.55	210.58
1003.84	210.67
1004.13	210.74
1004.42	210.71
1004.71	210.74
1004.99	210.69
1005.28	210.76
1005.57	210.75
1005.86	210.71
1006.15	210.72
1006.44	210.63
1006.72	210.74
1007.01	210.66
1007.30	210.60
1007.59	210.69
1007.88	210.67
1008.17	210.69
1008.45	210.60
1008.74	210.51
1009.03	210.44
1009.32	210.51
1009.60	210.55
1009.89	210.48
1010.18	210.36
1010.47	210.32
1010.76	210.28
1011.04	210.35
1011.33	210.41
1011.62	210.43
1011.91	210.36
1012.19	210.28
1012.48	210.39
1012.77	210.36
1013.05	210.51
1013.34	210.54
1013.63	210.48
1013.92	210.57
1014.20	210.54
1014.49	210.65
1014.78	210.68
1015.06	210.52
1015.35	210.52
1015.64	210.60
1015.92	210.64
1016.21	210.67
1016.50	210.71
1016.78	210.78
1017.07	210.70
1017.36	210.62
1017.64	210.55
1017.93	210.68
1018.22	210.68
1018.50	210.65
1018.79	210.64
1019.08	210.43
1019.36	210.46
1019.65	210.41
1019.93	210.46
1020.22	210.52
1020.51	210.60
1020.79	210.53
1021.08	209.75
1021.36	210.40
1021.65	210.55
1021.94	209.65
1022.22	210.65
1022.51	209.70
1022.79	212.05
1023.08	211.05
1023.36	213.00
1023.65	209.80
>>>>>End Processed Spectral Data<<<<<
