SpectraSuite Data File
++++++++++++++++++++++++++++++++++++
Date: Mon Feb 25 17:17:28 EST 2013
User: group
Dark Spectrum Present: No
Reference Spectrum Present: No
Number of Sampled Component Spectra: 1
Spectrometers: USB2E7196
Integration Time (usec): 104000 (USB2E7196)
Spectra Averaged: 20 (USB2E7196)
Boxcar Smoothing: 10 (USB2E7196)
Correct for Electrical Dark: No (USB2E7196)
Strobe/Lamp Enabled: No (USB2E7196)
Correct for Detector Non-linearity: No (USB2E7196)
Correct for Stray Light: No (USB2E7196)
Number of Pixels in Processed Spectrum: 2048
>>>>>Begin Processed Spectral Data<<<<<
339.09	0.00
339.48	198.50
339.86	200.95
340.24	201.95
340.63	203.70
341.01	209.25
341.39	205.40
341.78	209.30
342.16	209.25
342.54	210.05
342.93	198.97
343.31	209.01
343.69	209.56
344.07	210.06
344.46	210.57
344.84	210.99
345.22	211.03
345.60	211.35
345.99	211.42
346.37	211.57
346.75	211.62
347.13	211.63
347.52	211.74
347.90	211.87
348.28	211.86
348.66	211.94
349.05	211.82
349.43	211.99
349.81	212.10
350.19	212.14
350.57	212.12
350.96	212.14
351.34	212.18
351.72	212.31
352.10	212.46
352.48	212.48
352.87	212.45
353.25	212.57
353.63	212.59
354.01	212.65
354.39	212.69
354.77	212.78
355.15	212.97
355.54	212.95
355.92	212.84
356.30	212.90
356.68	213.20
357.06	213.32
357.44	213.27
357.82	213.27
358.20	213.36
358.58	213.45
358.97	213.51
359.35	213.65
359.73	213.71
360.11	213.65
360.49	213.69
360.87	213.80
361.25	213.85
361.63	214.00
362.01	214.08
362.39	214.05
362.77	214.10
363.15	214.06
363.53	214.12
363.91	214.16
364.29	214.14
364.67	213.75
365.05	213.75
365.43	213.72
365.81	213.80
366.19	213.90
366.57	214.02
366.95	214.00
367.33	213.95
367.71	213.95
368.09	213.99
368.47	214.01
368.85	213.97
369.23	214.11
369.61	213.94
369.99	214.01
370.37	214.04
370.75	214.18
371.13	214.12
371.51	214.08
371.89	214.15
372.27	214.15
372.65	214.20
373.03	214.19
373.41	214.22
373.78	214.20
374.16	213.99
374.54	213.86
374.92	213.81
375.30	213.78
375.68	213.72
376.06	213.74
376.44	213.65
376.82	213.69
377.19	213.55
377.57	213.53
377.95	213.37
378.33	213.29
378.71	213.05
379.09	213.00
379.47	213.01
379.84	212.88
380.22	212.87
380.60	212.79
380.98	212.72
381.36	212.66
381.73	212.60
382.11	212.67
382.49	212.73
382.87	212.66
383.25	212.55
383.62	212.85
384.00	212.73
384.38	212.67
384.76	212.66
385.13	212.76
385.51	212.75
385.89	212.74
386.27	212.80
386.64	212.86
387.02	212.87
387.40	212.84
387.78	212.81
388.15	212.76
388.53	212.75
388.91	212.73
389.29	212.68
389.66	212.62
390.04	212.54
390.42	212.51
390.79	212.54
391.17	212.58
391.55	212.30
391.92	212.32
392.30	212.42
392.68	212.32
393.05	212.35
393.43	212.41
393.81	212.43
394.18	212.33
394.56	212.34
394.94	212.46
395.31	212.35
395.69	212.47
396.06	212.56
396.44	212.65
396.82	212.65
397.19	212.91
397.57	212.94
397.95	213.01
398.32	212.96
398.70	213.04
399.07	213.17
399.45	213.15
399.82	213.16
400.20	213.12
400.58	213.18
400.95	212.98
401.33	212.97
401.70	213.29
402.08	213.40
402.45	213.42
402.83	213.52
403.20	213.64
403.58	213.70
403.95	213.88
404.33	213.93
404.71	214.03
405.08	214.24
405.46	214.35
405.83	214.51
406.21	214.59
406.58	214.78
406.96	214.87
407.33	215.00
407.70	215.19
408.08	215.74
408.45	215.97
408.83	216.38
409.20	216.62
409.58	216.72
409.95	217.09
410.33	217.45
410.70	217.64
411.08	218.06
411.45	218.42
411.82	218.71
412.20	219.24
412.57	219.96
412.95	220.21
413.32	220.79
413.69	221.30
414.07	221.99
414.44	222.66
414.82	223.37
415.19	224.30
415.56	225.10
415.94	225.72
416.31	226.70
416.68	227.62
417.06	228.81
417.43	229.98
417.81	231.14
418.18	232.44
418.55	233.78
418.93	235.18
419.30	236.67
419.67	238.23
420.04	239.78
420.42	241.28
420.79	243.40
421.16	245.27
421.54	247.34
421.91	249.42
422.28	251.54
422.66	253.86
423.03	256.14
423.40	258.51
423.77	260.96
424.15	263.39
424.52	265.97
424.89	268.63
425.26	271.14
425.64	273.63
426.01	276.41
426.38	279.32
426.75	282.40
427.13	285.48
427.50	288.58
427.87	291.95
428.24	295.33
428.61	298.40
428.99	302.06
429.36	305.76
429.73	309.47
430.10	313.27
430.47	317.11
430.85	320.91
431.22	325.06
431.59	329.59
431.96	333.86
432.33	338.56
432.70	343.22
433.08	348.53
433.45	353.63
433.82	358.44
434.19	364.00
434.56	369.39
434.93	374.50
435.30	379.69
435.68	385.42
436.05	391.11
436.42	396.57
436.79	401.69
437.16	407.30
437.53	413.16
437.90	418.86
438.27	424.48
438.64	430.40
439.01	435.86
439.38	440.55
439.75	445.23
440.13	450.64
440.50	455.64
440.87	459.76
441.24	464.04
441.61	468.85
441.98	472.30
442.35	476.19
442.72	480.24
443.09	484.22
443.46	486.50
443.83	488.03
444.20	489.53
444.57	491.47
444.94	492.30
445.31	493.19
445.68	494.32
446.05	494.59
446.42	493.82
446.79	492.96
447.16	492.16
447.53	491.61
447.90	489.24
448.27	486.98
448.64	483.82
449.01	481.52
449.37	477.65
449.74	473.71
450.11	469.50
450.48	464.60
450.85	459.60
451.22	455.35
451.59	451.20
451.96	447.09
452.33	441.84
452.70	437.23
453.07	431.55
453.43	425.62
453.80	420.19
454.17	415.03
454.54	410.13
454.91	404.77
455.28	399.52
455.65	394.70
456.02	390.35
456.38	386.40
456.75	381.35
457.12	377.08
457.49	373.04
457.86	368.68
458.23	365.26
458.59	361.41
458.96	357.57
459.33	354.17
459.70	350.81
460.07	348.16
460.43	345.01
460.80	342.22
461.17	339.64
461.54	336.93
461.91	334.44
462.27	331.90
462.64	329.71
463.01	327.40
463.38	325.20
463.74	322.47
464.11	320.36
464.48	318.60
464.85	316.65
465.21	315.31
465.58	313.78
465.95	311.89
466.32	310.38
466.68	308.87
467.05	307.31
467.42	305.91
467.78	304.28
468.15	302.79
468.52	301.77
468.88	300.30
469.25	299.07
469.62	298.16
469.98	297.13
470.35	296.25
470.72	295.28
471.08	294.13
471.45	293.30
471.82	292.56
472.18	291.69
472.55	291.19
472.92	290.34
473.28	289.76
473.65	289.14
474.02	288.54
474.38	288.12
474.75	287.91
475.11	287.42
475.48	287.20
475.85	287.04
476.21	286.70
476.58	286.69
476.94	286.70
477.31	286.57
477.67	286.61
478.04	286.66
478.41	286.86
478.77	287.45
479.14	287.53
479.50	287.86
479.87	288.20
480.23	288.50
480.60	288.82
480.96	289.22
481.33	290.01
481.69	290.75
482.06	291.36
482.42	292.05
482.79	292.93
483.15	293.88
483.52	294.95
483.88	295.96
484.25	296.98
484.61	298.15
484.98	299.38
485.34	300.73
485.71	302.26
486.07	303.82
486.44	305.20
486.80	307.07
487.17	308.85
487.53	310.90
487.90	313.02
488.26	315.57
488.62	318.08
488.99	320.44
489.35	322.91
489.72	325.59
490.08	328.41
490.44	331.48
490.81	334.65
491.17	337.87
491.54	341.36
491.90	345.08
492.26	349.03
492.63	353.10
492.99	357.39
493.36	361.80
493.72	366.48
494.08	371.33
494.45	376.41
494.81	381.83
495.17	387.29
495.54	393.14
495.90	399.09
496.26	405.36
496.63	411.96
496.99	418.86
497.35	426.06
497.72	433.55
498.08	441.15
498.44	449.13
498.80	457.64
499.17	466.48
499.53	475.50
499.89	484.85
500.26	494.34
500.62	504.04
500.98	514.58
501.34	525.19
501.71	536.38
502.07	547.67
502.43	559.31
502.79	571.48
503.16	584.00
503.52	596.74
503.88	609.92
504.24	623.49
504.60	637.46
504.97	651.92
505.33	666.51
505.69	682.04
506.05	697.76
506.41	713.35
506.78	729.37
507.14	745.83
507.50	762.60
507.86	780.00
508.22	797.86
508.59	815.52
508.95	834.01
509.31	852.47
509.67	871.67
510.03	891.23
510.39	911.33
510.75	931.74
511.12	952.41
511.48	973.51
511.84	994.65
512.20	1016.08
512.56	1038.15
512.92	1060.49
513.28	1082.71
513.64	1105.53
514.00	1128.62
514.37	1151.60
514.73	1175.29
515.09	1199.34
515.45	1222.93
515.81	1246.71
516.17	1270.69
516.53	1294.93
516.89	1319.54
517.25	1344.09
517.61	1368.62
517.97	1393.06
518.33	1417.28
518.69	1441.71
519.05	1466.39
519.41	1491.55
519.77	1516.96
520.13	1541.24
520.49	1565.59
520.85	1590.51
521.21	1614.99
521.57	1640.21
521.93	1664.70
522.29	1690.05
522.65	1714.90
523.01	1739.77
523.37	1764.34
523.73	1789.10
524.09	1813.39
524.45	1837.81
524.81	1862.25
525.17	1886.86
525.53	1911.13
525.89	1935.67
526.25	1959.73
526.61	1982.80
526.97	2006.08
527.33	2029.27
527.68	2052.90
528.04	2075.70
528.40	2097.78
528.76	2120.17
529.12	2142.60
529.48	2166.07
529.84	2187.59
530.20	2209.48
530.56	2231.60
530.91	2254.22
531.27	2276.34
531.63	2297.82
531.99	2318.74
532.35	2339.12
532.71	2359.12
533.07	2380.03
533.42	2399.72
533.78	2419.81
534.14	2439.87
534.50	2458.12
534.86	2476.89
535.21	2494.71
535.57	2514.04
535.93	2532.16
536.29	2549.89
536.65	2567.00
537.00	2583.25
537.36	2599.17
537.72	2614.40
538.08	2629.73
538.44	2644.74
538.79	2659.70
539.15	2674.80
539.51	2689.93
539.87	2705.30
540.22	2719.76
540.58	2733.69
540.94	2747.31
541.29	2759.72
541.65	2771.42
542.01	2783.86
542.37	2795.48
542.72	2807.61
543.08	2817.91
543.44	2829.50
543.79	2839.15
544.15	2848.45
544.51	2858.67
544.87	2869.20
545.22	2878.59
545.58	2886.83
545.94	2893.89
546.29	2900.41
546.65	2906.52
547.01	2912.28
547.36	2918.25
547.72	2923.53
548.07	2927.58
548.43	2931.65
548.79	2935.62
549.14	2940.09
549.50	2944.41
549.86	2947.18
550.21	2949.66
550.57	2953.15
550.92	2954.27
551.28	2956.44
551.64	2958.68
551.99	2960.26
552.35	2961.08
552.70	2962.16
553.06	2963.55
553.41	2964.91
553.77	2965.80
554.13	2966.60
554.48	2967.70
554.84	2967.71
555.19	2967.72
555.55	2966.75
555.90	2965.48
556.26	2964.11
556.61	2962.48
556.97	2960.09
557.32	2958.87
557.68	2956.28
558.03	2953.51
558.39	2951.55
558.74	2950.70
559.10	2948.70
559.45	2945.89
559.81	2943.54
560.16	2939.90
560.52	2937.28
560.87	2933.50
561.23	2929.28
561.58	2926.00
561.94	2920.89
562.29	2915.62
562.64	2911.49
563.00	2908.15
563.35	2905.00
563.71	2902.55
564.06	2899.02
564.42	2895.99
564.77	2892.70
565.12	2889.93
565.48	2886.07
565.83	2882.25
566.19	2877.90
566.54	2872.61
566.89	2867.39
567.25	2862.32
567.60	2858.09
567.96	2852.65
568.31	2848.14
568.66	2843.16
569.02	2837.05
569.37	2831.01
569.72	2825.67
570.08	2819.28
570.43	2812.52
570.78	2805.64
571.14	2797.80
571.49	2790.04
571.84	2783.31
572.20	2774.80
572.55	2767.32
572.90	2759.01
573.26	2750.49
573.61	2741.46
573.96	2733.32
574.31	2724.45
574.67	2715.09
575.02	2705.45
575.37	2695.94
575.72	2685.86
576.08	2677.46
576.43	2667.72
576.78	2658.85
577.13	2649.91
577.49	2640.75
577.84	2631.83
578.19	2623.41
578.54	2615.64
578.90	2607.90
579.25	2598.10
579.60	2588.63
579.95	2578.58
580.30	2569.95
580.66	2561.60
581.01	2552.36
581.36	2542.38
581.71	2533.19
582.06	2524.11
582.42	2515.01
582.77	2505.30
583.12	2496.06
583.47	2486.90
583.82	2478.78
584.17	2469.77
584.53	2460.82
584.88	2451.80
585.23	2442.68
585.58	2433.29
585.93	2423.02
586.28	2413.74
586.63	2404.47
586.98	2395.82
587.34	2387.68
587.69	2378.46
588.04	2369.30
588.39	2360.31
588.74	2351.19
589.09	2342.63
589.44	2333.12
589.79	2325.20
590.14	2316.86
590.49	2308.33
590.84	2299.05
591.19	2290.80
591.54	2281.97
591.89	2271.56
592.25	2262.37
592.60	2252.41
592.95	2242.71
593.30	2232.71
593.65	2222.48
594.00	2213.32
594.35	2205.52
594.70	2195.75
595.05	2186.75
595.40	2177.77
595.75	2168.12
596.10	2159.70
596.45	2150.80
596.80	2142.99
597.15	2134.32
597.50	2125.36
597.85	2116.85
598.19	2108.24
598.54	2098.94
598.89	2090.86
599.24	2084.20
599.59	2076.31
599.94	2069.42
600.29	2061.53
600.64	2054.14
600.99	2045.89
601.34	2038.12
601.69	2028.72
602.04	2020.35
602.39	2012.15
602.74	2004.03
603.08	1997.17
603.43	1990.15
603.78	1982.44
604.13	1974.41
604.48	1966.22
604.83	1959.59
605.18	1952.93
605.53	1944.76
605.87	1936.81
606.22	1929.18
606.57	1920.60
606.92	1912.59
607.27	1904.21
607.62	1896.24
607.96	1888.46
608.31	1881.64
608.66	1873.04
609.01	1864.65
609.36	1856.54
609.70	1847.84
610.05	1839.07
610.40	1830.38
610.75	1821.24
611.10	1813.14
611.44	1803.49
611.79	1794.22
612.14	1784.12
612.49	1773.64
612.83	1764.82
613.18	1755.15
613.53	1745.30
613.88	1735.58
614.22	1726.50
614.57	1717.12
614.92	1707.46
615.27	1697.77
615.61	1687.89
615.96	1678.90
616.31	1670.38
616.65	1661.96
617.00	1653.51
617.35	1644.53
617.70	1635.11
618.04	1625.48
618.39	1615.27
618.74	1606.46
619.08	1596.96
619.43	1588.15
619.78	1579.56
620.12	1570.62
620.47	1562.09
620.82	1552.74
621.16	1543.50
621.51	1534.05
621.85	1525.18
622.20	1516.28
622.55	1507.42
622.89	1498.17
623.24	1489.21
623.59	1479.71
623.93	1470.46
624.28	1461.61
624.62	1452.99
624.97	1444.57
625.32	1436.53
625.66	1428.48
626.01	1420.11
626.35	1412.45
626.70	1404.11
627.04	1396.14
627.39	1388.12
627.73	1380.00
628.08	1372.39
628.43	1364.10
628.77	1355.77
629.12	1347.40
629.46	1340.08
629.81	1332.40
630.15	1324.77
630.50	1316.82
630.84	1308.91
631.19	1301.23
631.53	1293.20
631.88	1284.96
632.22	1276.54
632.57	1268.65
632.91	1260.65
633.26	1252.74
633.60	1244.84
633.95	1237.50
634.29	1229.48
634.64	1222.09
634.98	1214.24
635.32	1206.79
635.67	1200.26
636.01	1193.13
636.36	1185.74
636.70	1177.97
637.05	1170.45
637.39	1163.36
637.73	1156.53
638.08	1150.28
638.42	1143.69
638.77	1136.83
639.11	1129.90
639.45	1123.10
639.80	1115.70
640.14	1108.43
640.49	1101.43
640.83	1094.11
641.17	1087.02
641.52	1080.05
641.86	1072.44
642.20	1065.50
642.55	1058.22
642.89	1050.62
643.23	1043.43
643.58	1036.75
643.92	1029.65
644.26	1022.87
644.61	1015.97
644.95	1008.78
645.29	1001.38
645.64	993.90
645.98	987.07
646.32	980.48
646.66	973.41
647.01	966.92
647.35	960.49
647.69	953.45
648.04	947.08
648.38	940.08
648.72	933.35
649.06	926.70
649.41	920.12
649.75	913.61
650.09	907.12
650.43	900.60
650.78	893.68
651.12	887.03
651.46	880.33
651.80	873.84
652.14	867.62
652.49	861.08
652.83	854.61
653.17	847.65
653.51	840.98
653.85	834.94
654.20	828.53
654.54	822.07
654.88	816.11
655.22	809.79
655.56	803.45
655.90	797.20
656.25	791.00
656.59	784.81
656.93	778.69
657.27	772.92
657.61	766.83
657.95	761.05
658.29	755.44
658.64	750.08
658.98	744.20
659.32	738.13
659.66	732.59
660.00	726.85
660.34	721.33
660.68	715.79
661.02	710.10
661.36	704.83
661.70	699.63
662.05	694.56
662.39	689.51
662.73	684.81
663.07	680.01
663.41	675.29
663.75	670.29
664.09	665.49
664.43	660.43
664.77	655.75
665.11	651.03
665.45	646.37
665.79	641.57
666.13	637.03
666.47	632.52
666.81	628.09
667.15	623.63
667.49	619.56
667.83	615.34
668.17	611.24
668.51	607.09
668.85	603.07
669.19	599.05
669.53	594.77
669.87	590.52
670.21	586.35
670.55	582.32
670.89	578.80
671.23	575.08
671.57	571.34
671.91	567.43
672.25	563.63
672.58	559.85
672.92	555.97
673.26	552.45
673.60	549.12
673.94	545.47
674.28	542.04
674.62	538.64
674.96	535.30
675.30	531.96
675.64	528.48
675.97	525.05
676.31	521.68
676.65	518.46
676.99	515.50
677.33	512.24
677.67	509.06
678.01	505.69
678.34	502.51
678.68	499.46
679.02	496.39
679.36	493.45
679.70	490.34
680.04	487.49
680.37	484.27
680.71	481.16
681.05	478.36
681.39	475.36
681.73	472.42
682.06	469.73
682.40	466.86
682.74	464.10
683.08	461.37
683.42	458.46
683.75	455.78
684.09	452.71
684.43	449.92
684.77	447.07
685.10	444.23
685.44	441.37
685.78	438.59
686.12	436.25
686.45	433.64
686.79	431.20
687.13	428.78
687.46	426.42
687.80	424.16
688.14	421.49
688.48	419.10
688.81	416.50
689.15	413.98
689.49	411.51
689.82	409.04
690.16	406.44
690.50	404.09
690.83	401.73
691.17	399.50
691.51	397.19
691.84	395.05
692.18	392.95
692.52	390.94
692.85	388.98
693.19	386.77
693.52	384.69
693.86	382.49
694.20	380.31
694.53	378.30
694.87	376.18
695.21	374.22
695.54	372.20
695.88	370.20
696.21	368.15
696.55	366.35
696.88	364.48
697.22	362.62
697.56	360.88
697.89	359.03
698.23	357.20
698.56	355.57
698.90	353.95
699.23	352.16
699.57	350.31
699.90	348.57
700.24	346.88
700.58	345.15
700.91	343.60
701.25	342.18
701.58	340.65
701.92	339.08
702.25	337.45
702.59	335.90
702.92	334.43
703.26	332.95
703.59	331.44
703.93	330.30
704.26	328.99
704.60	327.58
704.93	326.23
705.26	324.80
705.60	323.40
705.93	321.81
706.27	320.62
706.60	319.42
706.94	318.14
707.27	316.75
707.61	315.38
707.94	313.97
708.27	312.45
708.61	311.07
708.94	309.75
709.28	308.60
709.61	307.50
709.94	306.48
710.28	305.32
710.61	304.26
710.95	302.81
711.28	301.90
711.61	300.76
711.95	299.66
712.28	298.52
712.61	297.56
712.95	296.77
713.28	295.78
713.61	294.69
713.95	293.63
714.28	292.76
714.61	291.86
714.95	290.99
715.28	290.10
715.61	289.12
715.95	288.26
716.28	287.31
716.61	286.40
716.95	285.33
717.28	284.57
717.61	283.60
717.94	282.75
718.28	281.66
718.61	280.75
718.94	279.94
719.27	279.20
719.61	278.32
719.94	277.53
720.27	276.58
720.60	275.81
720.94	275.07
721.27	274.17
721.60	273.51
721.93	272.81
722.27	272.20
722.60	271.63
722.93	270.88
723.26	270.34
723.59	269.64
723.93	269.08
724.26	268.39
724.59	267.80
724.92	267.30
725.25	266.75
725.59	266.20
725.92	265.65
726.25	265.08
726.58	264.57
726.91	263.88
727.24	263.39
727.57	262.83
727.91	262.28
728.24	261.89
728.57	261.30
728.90	260.75
729.23	260.19
729.56	259.80
729.89	259.31
730.22	258.74
730.55	258.25
730.89	257.70
731.22	257.13
731.55	256.60
731.88	256.11
732.21	255.65
732.54	255.19
732.87	254.66
733.20	254.12
733.53	253.57
733.86	253.18
734.19	252.65
734.52	252.34
734.85	252.12
735.18	251.65
735.51	251.39
735.84	251.07
736.17	250.63
736.50	250.08
736.83	250.05
737.16	249.65
737.49	249.20
737.82	248.70
738.15	248.32
738.48	247.91
738.81	247.45
739.14	246.95
739.47	246.54
739.80	246.15
740.13	245.87
740.46	245.49
740.79	245.13
741.12	244.76
741.45	244.27
741.78	243.66
742.11	243.38
742.44	242.84
742.77	242.48
743.10	242.12
743.43	241.71
743.75	240.97
744.08	241.05
744.41	240.68
744.74	240.42
745.07	240.03
745.40	239.82
745.73	239.58
746.06	239.20
746.39	238.85
746.71	238.54
747.04	238.17
747.37	237.85
747.70	237.52
748.03	237.19
748.36	236.91
748.68	236.61
749.01	236.16
749.34	235.85
749.67	235.57
750.00	235.34
750.33	235.26
750.65	235.08
750.98	234.37
751.31	234.18
751.64	233.99
751.97	233.91
752.29	233.65
752.62	233.28
752.95	233.07
753.28	232.77
753.60	232.49
753.93	232.38
754.26	232.20
754.59	231.88
754.91	231.62
755.24	231.32
755.57	231.06
755.90	230.90
756.22	230.72
756.55	230.47
756.88	230.13
757.20	229.68
757.53	229.30
757.86	229.07
758.19	228.91
758.51	228.64
758.84	228.28
759.17	227.95
759.49	227.80
759.82	227.81
760.15	227.72
760.47	227.47
760.80	227.06
761.13	226.82
761.45	226.61
761.78	226.52
762.11	226.39
762.43	226.26
762.76	226.06
763.08	225.89
763.41	225.71
763.74	225.59
764.06	225.48
764.39	225.33
764.71	225.16
765.04	224.92
765.37	224.77
765.69	224.64
766.02	224.49
766.34	224.23
766.67	223.93
767.00	223.77
767.32	223.91
767.65	224.05
767.97	223.93
768.30	223.84
768.62	223.64
768.95	223.52
769.27	223.38
769.60	223.33
769.92	223.13
770.25	223.00
770.57	222.89
770.90	222.71
771.22	222.63
771.55	222.52
771.87	222.41
772.20	222.26
772.52	222.44
772.85	222.76
773.17	222.72
773.50	222.65
773.82	222.50
774.15	222.21
774.47	221.90
774.80	221.78
775.12	221.64
775.45	221.51
775.77	221.43
776.09	221.35
776.42	221.20
776.74	221.22
777.07	221.13
777.39	220.93
777.72	220.82
778.04	220.69
778.36	220.56
778.69	220.46
779.01	220.37
779.33	219.96
779.66	219.43
779.98	219.40
780.31	219.27
780.63	219.37
780.95	219.29
781.28	219.23
781.60	219.05
781.92	219.02
782.25	218.95
782.57	218.84
782.89	218.75
783.22	218.63
783.54	218.47
783.86	218.42
784.19	218.38
784.51	218.50
784.83	218.39
785.16	218.32
785.48	218.31
785.80	218.28
786.12	218.20
786.45	218.20
786.77	218.12
787.09	218.05
787.42	217.83
787.74	217.79
788.06	217.75
788.38	217.74
788.71	217.62
789.03	217.66
789.35	217.62
789.67	217.49
789.99	217.49
790.32	217.45
790.64	217.47
790.96	217.75
791.28	217.51
791.61	217.47
791.93	217.41
792.25	217.31
792.57	217.47
792.89	217.41
793.21	217.34
793.54	217.19
793.86	217.05
794.18	217.00
794.50	216.86
794.82	216.75
795.14	216.80
795.47	216.85
795.79	216.73
796.11	216.67
796.43	216.62
796.75	216.60
797.07	216.54
797.39	216.39
797.71	216.03
798.04	216.06
798.36	216.10
798.68	216.07
799.00	216.04
799.32	215.81
799.64	215.82
799.96	215.78
800.28	215.84
800.60	215.80
800.92	215.75
801.24	215.72
801.56	215.63
801.89	215.51
802.21	215.47
802.53	215.40
802.85	215.40
803.17	215.54
803.49	215.35
803.81	215.28
804.13	215.30
804.45	215.16
804.77	215.09
805.09	215.05
805.41	215.02
805.73	214.97
806.05	214.85
806.37	214.89
806.69	214.87
807.01	214.77
807.33	214.83
807.65	214.74
807.97	214.83
808.28	214.82
808.60	214.76
808.92	214.64
809.24	214.77
809.56	214.66
809.88	214.51
810.20	214.53
810.52	214.61
810.84	214.48
811.16	214.49
811.48	214.48
811.80	214.56
812.12	214.48
812.43	214.47
812.75	214.56
813.07	214.47
813.39	214.42
813.71	214.33
814.03	214.24
814.35	214.25
814.67	214.10
814.98	214.07
815.30	214.10
815.62	214.03
815.94	213.83
816.26	213.83
816.58	213.77
816.89	213.82
817.21	213.68
817.53	213.70
817.85	213.73
818.17	213.64
818.48	213.46
818.80	213.49
819.12	213.45
819.44	213.27
819.76	213.19
820.07	213.23
820.39	213.27
820.71	213.32
821.03	213.28
821.34	213.23
821.66	213.27
821.98	213.21
822.30	213.27
822.61	213.44
822.93	213.39
823.25	213.36
823.57	213.30
823.88	213.38
824.20	213.35
824.52	213.33
824.83	213.34
825.15	213.31
825.47	213.32
825.79	213.30
826.10	213.33
826.42	213.34
826.74	213.37
827.05	213.32
827.37	213.30
827.69	213.29
828.00	213.34
828.32	213.29
828.64	213.30
828.95	213.41
829.27	213.32
829.58	213.36
829.90	213.40
830.22	213.41
830.53	213.30
830.85	213.23
831.17	213.13
831.48	213.12
831.80	213.07
832.11	213.01
832.43	212.95
832.75	212.95
833.06	213.09
833.38	212.91
833.69	212.92
834.01	212.89
834.32	212.83
834.64	212.81
834.96	212.82
835.27	212.72
835.59	212.57
835.90	212.49
836.22	212.41
836.53	212.37
836.85	212.36
837.16	212.67
837.48	212.63
837.79	212.79
838.11	212.78
838.42	212.83
838.74	212.83
839.05	212.75
839.37	212.75
839.68	212.52
840.00	212.56
840.31	212.61
840.63	212.58
840.94	212.48
841.26	212.35
841.57	212.36
841.88	212.43
842.20	212.38
842.51	212.34
842.83	212.38
843.14	212.67
843.46	212.62
843.77	212.50
844.08	212.58
844.40	212.48
844.71	212.48
845.03	212.39
845.34	212.43
845.65	212.50
845.97	212.44
846.28	212.48
846.60	212.48
846.91	212.38
847.22	212.36
847.54	212.53
847.85	212.57
848.16	212.48
848.48	212.40
848.79	212.58
849.10	212.62
849.42	212.60
849.73	212.21
850.04	212.19
850.36	212.00
850.67	212.06
850.98	212.09
851.30	212.09
851.61	212.10
851.92	212.10
852.23	212.18
852.55	212.26
852.86	212.21
853.17	212.30
853.49	212.42
853.80	212.64
854.11	212.67
854.42	212.73
854.74	212.73
855.05	212.77
855.36	212.51
855.67	212.51
855.99	212.51
856.30	213.01
856.61	213.06
856.92	213.12
857.23	213.12
857.55	213.08
857.86	213.06
858.17	213.14
858.48	213.08
858.79	213.02
859.11	213.04
859.42	213.04
859.73	212.98
860.04	212.93
860.35	212.68
860.66	212.60
860.98	212.65
861.29	212.74
861.60	212.81
861.91	212.99
862.22	212.96
862.53	212.89
862.84	212.44
863.16	212.50
863.47	212.41
863.78	212.34
864.09	212.31
864.40	212.32
864.71	212.35
865.02	212.35
865.33	212.36
865.64	212.29
865.95	212.31
866.27	212.56
866.58	212.56
866.89	212.62
867.20	212.56
867.51	212.45
867.82	212.36
868.13	212.35
868.44	212.27
868.75	212.32
869.06	212.34
869.37	212.33
869.68	212.20
869.99	212.25
870.30	212.30
870.61	212.32
870.92	212.24
871.23	212.16
871.54	212.18
871.85	212.28
872.16	212.31
872.47	212.27
872.78	211.99
873.09	211.93
873.40	211.87
873.71	211.90
874.02	211.91
874.33	211.89
874.64	211.80
874.95	211.89
875.26	211.87
875.56	211.87
875.87	211.90
876.18	211.85
876.49	212.23
876.80	212.16
877.11	212.10
877.42	212.23
877.73	212.29
878.04	212.23
878.35	212.10
878.66	212.10
878.96	212.07
879.27	212.07
879.58	212.07
879.89	212.04
880.20	212.14
880.51	212.11
880.82	212.11
881.12	212.18
881.43	212.04
881.74	211.94
882.05	211.92
882.36	211.91
882.67	212.06
882.97	211.63
883.28	211.59
883.59	211.63
883.90	211.54
884.21	211.51
884.51	211.53
884.82	211.49
885.13	211.43
885.44	211.37
885.74	211.35
886.05	211.38
886.36	211.44
886.67	211.32
886.98	211.52
887.28	211.53
887.59	211.51
887.90	211.45
888.20	211.42
888.51	211.48
888.82	211.43
889.13	211.37
889.43	211.66
889.74	211.64
890.05	211.57
890.35	211.58
890.66	211.54
890.97	211.45
891.28	211.45
891.58	211.46
891.89	211.50
892.20	211.47
892.50	211.38
892.81	211.29
893.12	211.29
893.42	211.12
893.73	211.23
894.04	211.25
894.34	211.33
894.65	211.38
894.95	211.30
895.26	211.33
895.57	211.47
895.87	211.16
896.18	211.29
896.48	211.36
896.79	211.36
897.10	211.42
897.40	211.44
897.71	211.43
898.01	211.51
898.32	211.56
898.63	211.56
898.93	211.62
899.24	211.65
899.54	211.62
899.85	211.59
900.15	211.49
900.46	211.41
900.76	211.43
901.07	211.42
901.38	211.50
901.68	211.55
901.99	211.41
902.29	211.41
902.60	211.30
902.90	211.26
903.21	211.24
903.51	211.25
903.82	211.40
904.12	211.44
904.43	211.42
904.73	211.37
905.03	211.39
905.34	211.71
905.64	211.70
905.95	211.66
906.25	211.69
906.56	211.66
906.86	211.67
907.17	211.70
907.47	211.70
907.77	211.63
908.08	211.51
908.38	211.53
908.69	211.57
908.99	211.65
909.30	211.68
909.60	211.65
909.90	211.62
910.21	211.52
910.51	211.54
910.81	211.49
911.12	211.57
911.42	211.56
911.73	211.22
912.03	211.17
912.33	211.25
912.64	211.18
912.94	211.18
913.24	211.14
913.55	211.05
913.85	211.04
914.15	211.09
914.46	211.13
914.76	211.08
915.06	211.02
915.37	210.97
915.67	210.92
915.97	210.97
916.27	210.97
916.58	210.96
916.88	210.93
917.18	210.90
917.49	211.14
917.79	211.14
918.09	211.24
918.39	211.41
918.70	211.45
919.00	211.52
919.30	211.64
919.60	211.66
919.91	211.70
920.21	211.70
920.51	211.70
920.81	211.75
921.12	211.79
921.42	211.87
921.72	211.90
922.02	211.97
922.32	211.98
922.63	212.00
922.93	212.21
923.23	212.23
923.53	212.25
923.83	211.96
924.13	212.09
924.44	212.06
924.74	212.15
925.04	212.22
925.34	212.19
925.64	212.11
925.94	212.11
926.24	212.26
926.55	212.22
926.85	212.28
927.15	212.27
927.45	212.30
927.75	212.20
928.05	212.22
928.35	212.17
928.65	212.27
928.95	212.26
929.26	212.06
929.56	212.10
929.86	212.10
930.16	212.13
930.46	212.03
930.76	212.07
931.06	211.91
931.36	211.80
931.66	211.86
931.96	211.93
932.26	211.96
932.56	211.73
932.86	211.83
933.16	211.80
933.46	211.80
933.76	211.72
934.06	211.83
934.36	211.92
934.66	211.90
934.96	211.75
935.26	211.77
935.56	211.77
935.86	211.62
936.16	211.58
936.46	211.51
936.76	211.51
937.06	211.41
937.36	211.39
937.66	211.40
937.96	211.37
938.26	211.27
938.56	211.22
938.86	211.33
939.16	211.40
939.46	211.41
939.76	211.36
940.06	211.33
940.35	211.25
940.65	211.08
940.95	211.09
941.25	211.05
941.55	210.99
941.85	211.04
942.15	211.23
942.45	211.30
942.75	211.28
943.04	211.28
943.34	211.30
943.64	211.26
943.94	211.20
944.24	211.24
944.54	211.23
944.84	211.19
945.13	211.10
945.43	210.98
945.73	210.91
946.03	210.88
946.33	210.87
946.62	210.82
946.92	210.87
947.22	210.91
947.52	210.97
947.82	211.05
948.11	210.97
948.41	210.81
948.71	210.72
949.01	210.77
949.31	210.70
949.60	210.75
949.90	210.89
950.20	210.86
950.50	210.78
950.79	210.80
951.09	210.87
951.39	210.90
951.69	210.90
951.98	211.01
952.28	210.96
952.58	210.93
952.87	211.02
953.17	210.97
953.47	210.93
953.76	210.93
954.06	210.85
954.36	210.82
954.66	210.86
954.95	211.00
955.25	211.07
955.55	211.17
955.84	211.06
956.14	211.07
956.44	211.15
956.73	211.10
957.03	211.11
957.32	211.11
957.62	211.14
957.92	211.24
958.21	211.20
958.51	211.71
958.81	211.85
959.10	211.85
959.40	211.99
959.69	212.04
959.99	212.08
960.29	212.07
960.58	212.07
960.88	212.26
961.17	212.19
961.47	212.21
961.76	212.18
962.06	212.29
962.36	212.19
962.65	212.19
962.95	212.29
963.24	212.34
963.54	212.38
963.83	212.38
964.13	212.31
964.42	212.22
964.72	211.97
965.01	211.91
965.31	211.93
965.60	211.79
965.90	211.97
966.19	211.88
966.49	211.88
966.78	211.85
967.08	211.76
967.37	211.75
967.67	211.79
967.96	211.79
968.26	211.77
968.55	211.82
968.85	211.76
969.14	211.65
969.43	211.58
969.73	211.57
970.02	211.50
970.32	211.45
970.61	211.48
970.91	211.31
971.20	211.33
971.49	211.22
971.79	211.31
972.08	211.03
972.38	211.14
972.67	211.18
972.96	211.21
973.26	211.15
973.55	211.25
973.85	211.10
974.14	211.06
974.43	211.03
974.73	210.91
975.02	210.88
975.31	210.95
975.61	210.96
975.90	210.89
976.19	210.92
976.49	210.99
976.78	210.94
977.07	210.96
977.37	210.92
977.66	211.00
977.95	210.88
978.24	210.93
978.54	210.91
978.83	210.86
979.12	210.87
979.42	210.84
979.71	210.70
980.00	210.71
980.29	210.72
980.59	210.72
980.88	210.78
981.17	210.76
981.46	210.75
981.76	210.68
982.05	210.77
982.34	210.73
982.63	210.72
982.93	210.71
983.22	210.74
983.51	210.76
983.80	210.80
984.09	210.84
984.39	210.84
984.68	210.78
984.97	210.82
985.26	210.85
985.55	210.85
985.85	210.89
986.14	211.00
986.43	211.03
986.72	211.00
987.01	210.90
987.30	211.01
987.59	211.02
987.89	211.04
988.18	210.91
988.47	210.93
988.76	210.85
989.05	210.81
989.34	210.75
989.63	210.82
989.92	210.75
990.22	210.75
990.51	210.72
990.80	210.71
991.09	210.66
991.38	210.61
991.67	210.60
991.96	210.55
992.25	210.44
992.54	210.41
992.83	210.43
993.12	210.46
993.41	210.48
993.70	210.65
993.99	210.79
994.28	210.90
994.58	210.95
994.87	210.94
995.16	211.07
995.45	211.06
995.74	210.92
996.03	211.00
996.32	211.00
996.61	211.12
996.90	211.09
997.19	211.13
997.48	211.14
997.77	211.11
998.06	211.12
998.34	211.22
998.63	211.22
998.92	211.25
999.21	211.42
999.50	211.40
999.79	211.24
1000.08	211.20
1000.37	211.18
1000.66	211.14
1000.95	211.30
1001.24	211.24
1001.53	211.35
1001.82	211.41
1002.11	211.28
1002.40	211.41
1002.68	211.45
1002.97	211.79
1003.26	211.82
1003.55	211.80
1003.84	211.86
1004.13	212.00
1004.42	211.90
1004.71	211.93
1004.99	211.89
1005.28	211.87
1005.57	211.86
1005.86	211.79
1006.15	211.71
1006.44	211.67
1006.72	211.75
1007.01	211.66
1007.30	211.60
1007.59	211.52
1007.88	211.45
1008.17	211.54
1008.45	211.43
1008.74	211.30
1009.03	211.11
1009.32	211.10
1009.60	211.13
1009.89	211.10
1010.18	210.96
1010.47	211.02
1010.76	210.97
1011.04	210.89
1011.33	210.87
1011.62	210.87
1011.91	210.94
1012.19	211.02
1012.48	211.01
1012.77	210.99
1013.05	211.08
1013.34	211.20
1013.63	211.22
1013.92	211.32
1014.20	211.26
1014.49	211.33
1014.78	211.32
1015.06	211.22
1015.35	211.13
1015.64	211.20
1015.92	211.23
1016.21	211.27
1016.50	211.22
1016.78	211.32
1017.07	211.46
1017.36	211.42
1017.64	211.34
1017.93	211.35
1018.22	211.24
1018.50	211.23
1018.79	211.15
1019.08	211.01
1019.36	211.00
1019.65	210.91
1019.93	210.95
1020.22	210.98
1020.51	211.10
1020.79	211.11
1021.08	209.50
1021.36	210.15
1021.65	209.70
1021.94	210.65
1022.22	210.70
1022.51	210.25
1022.79	212.10
1023.08	210.80
1023.36	215.25
1023.65	210.65
>>>>>End Processed Spectral Data<<<<<
