SpectraSuite Data File
++++++++++++++++++++++++++++++++++++
Date: Mon Feb 25 17:00:37 EST 2013
User: group
Dark Spectrum Present: No
Reference Spectrum Present: No
Number of Sampled Component Spectra: 1
Spectrometers: USB2E7196
Integration Time (usec): 104000 (USB2E7196)
Spectra Averaged: 20 (USB2E7196)
Boxcar Smoothing: 10 (USB2E7196)
Correct for Electrical Dark: No (USB2E7196)
Strobe/Lamp Enabled: No (USB2E7196)
Correct for Detector Non-linearity: No (USB2E7196)
Correct for Stray Light: No (USB2E7196)
Number of Pixels in Processed Spectrum: 2048
>>>>>Begin Processed Spectral Data<<<<<
339.09	0.00
339.48	198.85
339.86	200.70
340.24	199.70
340.63	203.35
341.01	209.60
341.39	205.20
341.78	207.45
342.16	208.40
342.54	208.80
342.93	198.11
343.31	208.05
343.69	208.61
344.07	209.01
344.46	209.59
344.84	209.94
345.22	209.95
345.60	210.20
345.99	210.36
346.37	210.53
346.75	210.60
347.13	210.69
347.52	210.70
347.90	210.91
348.28	210.96
348.66	211.01
349.05	210.89
349.43	210.94
349.81	210.96
350.19	211.00
350.57	211.08
350.96	211.13
351.34	211.20
351.72	211.28
352.10	211.39
352.48	211.38
352.87	211.45
353.25	211.55
353.63	211.63
354.01	211.72
354.39	211.84
354.77	211.93
355.15	212.15
355.54	212.17
355.92	212.06
356.30	212.17
356.68	212.44
357.06	212.51
357.44	212.56
357.82	212.62
358.20	212.65
358.58	212.70
358.97	212.79
359.35	212.98
359.73	213.07
360.11	213.11
360.49	213.14
360.87	213.19
361.25	213.25
361.63	213.45
362.01	213.48
362.39	213.39
362.77	213.44
363.15	213.41
363.53	213.47
363.91	213.58
364.29	213.54
364.67	213.22
365.05	213.23
365.43	213.33
365.81	213.33
366.19	213.50
366.57	213.63
366.95	213.57
367.33	213.55
367.71	213.54
368.09	213.63
368.47	213.69
368.85	213.66
369.23	213.74
369.61	213.60
369.99	213.70
370.37	213.76
370.75	213.89
371.13	213.78
371.51	213.69
371.89	213.65
372.27	213.59
372.65	213.59
373.03	213.60
373.41	213.48
373.78	213.49
374.16	213.27
374.54	213.10
374.92	213.07
375.30	213.01
375.68	212.93
376.06	212.85
376.44	212.73
376.82	212.72
377.19	212.63
377.57	212.49
377.95	212.28
378.33	212.22
378.71	211.99
379.09	211.98
379.47	212.04
379.84	211.96
380.22	211.91
380.60	211.82
380.98	211.76
381.36	211.70
381.73	211.60
382.11	211.62
382.49	211.60
382.87	211.56
383.25	211.48
383.62	211.79
384.00	211.75
384.38	211.75
384.76	211.75
385.13	211.82
385.51	211.83
385.89	211.75
386.27	211.73
386.64	211.73
387.02	211.69
387.40	211.64
387.78	211.64
388.15	211.65
388.53	211.67
388.91	211.61
389.29	211.59
389.66	211.68
390.04	211.57
390.42	211.56
390.79	211.56
391.17	211.55
391.55	211.17
391.92	211.10
392.30	211.12
392.68	211.05
393.05	211.04
393.43	211.10
393.81	211.21
394.18	211.07
394.56	211.08
394.94	211.14
395.31	211.02
395.69	211.17
396.06	211.20
396.44	211.24
396.82	211.24
397.19	211.45
397.57	211.38
397.95	211.48
398.32	211.50
398.70	211.51
399.07	211.57
399.45	211.50
399.82	211.50
400.20	211.48
400.58	211.55
400.95	211.35
401.33	211.37
401.70	211.64
402.08	211.74
402.45	211.81
402.83	211.96
403.20	212.09
403.58	212.08
403.95	212.25
404.33	212.37
404.71	212.53
405.08	212.81
405.46	212.95
405.83	213.16
406.21	213.28
406.58	213.60
406.96	213.87
407.33	214.32
407.70	214.73
408.08	215.34
408.45	215.67
408.83	216.19
409.20	216.51
409.58	216.64
409.95	217.13
410.33	217.60
410.70	217.91
411.08	218.50
411.45	219.05
411.82	219.60
412.20	220.33
412.57	221.23
412.95	221.68
413.32	222.60
413.69	223.38
414.07	224.26
414.44	225.11
414.82	226.07
415.19	227.13
415.56	228.25
415.94	229.29
416.31	230.66
416.68	232.01
417.06	233.56
417.43	235.22
417.81	236.91
418.18	238.66
418.55	240.63
418.93	242.64
419.30	244.80
419.67	247.02
420.04	249.30
420.42	251.59
420.79	254.51
421.16	257.19
421.54	260.25
421.91	263.40
422.28	266.58
422.66	269.93
423.03	273.33
423.40	276.82
423.77	280.47
424.15	284.18
424.52	288.16
424.89	292.50
425.26	296.60
425.64	300.54
426.01	304.96
426.38	309.48
426.75	314.22
427.13	318.96
427.50	324.06
427.87	329.32
428.24	334.72
428.61	339.67
428.99	345.38
429.36	351.41
429.73	357.41
430.10	363.39
430.47	369.49
430.85	375.90
431.22	382.65
431.59	389.97
431.96	396.95
432.33	404.59
432.70	412.08
433.08	420.73
433.45	429.02
433.82	437.26
434.19	446.50
434.56	455.42
434.93	464.18
435.30	472.93
435.68	482.58
436.05	492.18
436.42	501.72
436.79	510.49
437.16	519.92
437.53	529.82
437.90	539.77
438.27	549.61
438.64	559.87
439.01	569.29
439.38	577.84
439.75	586.12
440.13	595.37
440.50	604.40
440.87	611.92
441.24	619.64
441.61	627.89
441.98	634.42
442.35	641.92
442.72	649.29
443.09	656.44
443.46	661.05
443.83	664.37
444.20	667.40
444.57	671.42
444.94	673.63
445.31	676.11
445.68	678.59
446.05	679.90
446.42	679.58
446.79	679.25
447.16	678.64
447.53	678.55
447.90	675.90
448.27	672.91
448.64	668.55
449.01	665.42
449.37	659.90
449.74	654.14
450.11	647.32
450.48	639.71
450.85	631.99
451.22	625.36
451.59	618.95
451.96	612.98
452.33	604.70
452.70	597.32
453.07	588.23
453.43	578.82
453.80	570.11
454.17	561.54
454.54	553.40
454.91	544.75
455.28	536.25
455.65	528.31
456.02	520.50
456.38	513.70
456.75	505.30
457.12	498.05
457.49	490.99
457.86	484.07
458.23	478.30
458.59	471.91
458.96	465.49
459.33	459.69
459.70	453.80
460.07	449.32
460.43	443.93
460.80	438.98
461.17	434.53
461.54	429.91
461.91	425.55
462.27	421.14
462.64	417.29
463.01	413.02
463.38	408.89
463.74	404.51
464.11	400.88
464.48	397.92
464.85	394.59
465.21	392.10
465.58	389.30
465.95	385.94
466.32	383.21
466.68	380.49
467.05	377.70
467.42	374.96
467.78	371.97
468.15	369.38
468.52	367.26
468.88	364.74
469.25	362.37
469.62	360.45
469.98	358.31
470.35	356.33
470.72	354.40
471.08	352.41
471.45	350.83
471.82	349.16
472.18	347.22
472.55	345.84
472.92	344.07
473.28	342.66
473.65	341.26
474.02	339.82
474.38	338.68
474.75	337.82
475.11	336.74
475.48	335.84
475.85	334.91
476.21	334.15
476.58	333.51
476.94	332.96
477.31	332.35
477.67	331.77
478.04	331.30
478.41	330.96
478.77	330.99
479.14	330.57
479.50	330.25
479.87	330.12
480.23	330.06
480.60	329.91
480.96	329.74
481.33	330.01
481.69	330.06
482.06	330.07
482.42	329.91
482.79	330.03
483.15	330.42
483.52	330.95
483.88	331.19
484.25	331.47
484.61	331.83
484.98	332.20
485.34	332.91
485.71	333.60
486.07	334.34
486.44	334.63
486.80	335.47
487.17	336.47
487.53	337.55
487.90	338.54
488.26	339.89
488.62	341.17
488.99	342.24
489.35	343.51
489.72	344.91
490.08	346.45
490.44	347.92
490.81	349.34
491.17	350.68
491.54	352.39
491.90	354.07
492.26	355.95
492.63	357.88
492.99	359.75
493.36	361.64
493.72	363.66
494.08	365.80
494.45	367.94
494.81	370.09
495.17	372.25
495.54	374.67
495.90	376.82
496.26	379.15
496.63	381.75
496.99	384.31
497.35	386.80
497.72	389.46
498.08	392.12
498.44	394.80
498.80	397.77
499.17	400.58
499.53	403.44
499.89	406.24
500.26	408.97
500.62	411.56
500.98	414.47
501.34	417.25
501.71	420.11
502.07	422.94
502.43	425.71
502.79	428.31
503.16	430.98
503.52	433.65
503.88	436.25
504.24	438.69
504.60	441.29
504.97	443.88
505.33	446.36
505.69	448.95
506.05	451.39
506.41	453.48
506.78	455.62
507.14	457.77
507.50	459.89
507.86	462.08
508.22	464.24
508.59	466.08
508.95	468.03
509.31	470.00
509.67	471.82
510.03	473.47
510.39	475.43
510.75	477.00
511.12	478.75
511.48	480.29
511.84	481.89
512.20	483.13
512.56	484.63
512.92	485.86
513.28	487.14
513.64	488.41
514.00	489.63
514.37	490.63
514.73	491.85
515.09	492.90
515.45	493.78
515.81	494.70
516.17	495.44
516.53	496.07
516.89	496.50
517.25	497.09
517.61	497.82
517.97	498.23
518.33	498.61
518.69	498.93
519.05	499.33
519.41	499.59
519.77	500.19
520.13	500.28
520.49	500.47
520.85	500.68
521.21	500.95
521.57	501.28
521.93	501.51
522.29	501.47
522.65	501.67
523.01	501.81
523.37	501.81
523.73	502.14
524.09	502.33
524.45	502.66
524.81	502.91
525.17	503.25
525.53	503.60
525.89	504.08
526.25	504.45
526.61	504.65
526.97	505.03
527.33	505.37
527.68	506.11
528.04	506.73
528.40	507.09
528.76	507.54
529.12	508.22
529.48	509.10
529.84	509.86
530.20	510.55
530.56	511.49
530.91	512.58
531.27	513.57
531.63	514.53
531.99	515.47
532.35	516.44
532.71	517.29
533.07	518.54
533.42	519.92
533.78	521.20
534.14	522.51
534.50	523.72
534.86	525.16
535.21	526.18
535.57	527.69
535.93	529.22
536.29	530.98
536.65	532.33
537.00	533.75
537.36	535.24
537.72	536.80
538.08	538.35
538.44	540.03
538.79	541.76
539.15	543.65
539.51	545.61
539.87	547.64
540.22	549.77
540.58	551.79
540.94	553.72
541.29	555.78
541.65	557.84
542.01	560.17
542.37	562.34
542.72	564.67
543.08	566.74
543.44	569.18
543.79	571.11
544.15	573.74
544.51	576.37
544.87	579.10
545.22	581.60
545.58	584.16
545.94	586.66
546.29	589.15
546.65	591.65
547.01	594.15
547.36	596.68
547.72	599.28
548.07	601.75
548.43	604.26
548.79	606.60
549.14	609.32
549.50	612.02
549.86	614.42
550.21	617.04
550.57	619.85
550.92	622.34
551.28	625.05
551.64	627.57
551.99	630.17
552.35	632.60
552.70	635.17
553.06	637.68
553.41	640.27
553.77	643.05
554.13	645.79
554.48	648.58
554.84	651.39
555.19	653.90
555.55	656.60
555.90	659.10
556.26	661.77
556.61	664.29
556.97	666.43
557.32	668.96
557.68	671.28
558.03	673.49
558.39	675.71
558.74	678.00
559.10	680.17
559.45	682.31
559.81	684.70
560.16	686.94
560.52	689.30
560.87	691.49
561.23	693.40
561.58	695.59
561.94	697.44
562.29	699.15
562.64	701.21
563.00	702.94
563.35	705.05
563.71	707.35
564.06	709.36
564.42	711.70
564.77	713.86
565.12	716.02
565.48	718.49
565.83	720.54
566.19	722.74
566.54	724.73
566.89	726.71
567.25	728.74
567.60	730.84
567.96	732.96
568.31	735.00
568.66	736.80
569.02	738.26
569.37	739.61
569.72	741.28
570.08	742.68
570.43	744.19
570.78	745.37
571.14	746.26
571.49	747.34
571.84	748.26
572.20	749.07
572.55	750.08
572.90	750.55
573.26	751.13
573.61	751.63
573.96	752.27
574.31	752.62
574.67	752.71
575.02	752.61
575.37	752.41
575.72	752.24
576.08	752.29
576.43	752.31
576.78	752.52
577.13	752.46
577.49	752.64
577.84	752.55
578.19	752.65
578.54	752.85
578.90	753.00
579.25	752.83
579.60	752.57
579.95	752.15
580.30	751.90
580.66	751.71
581.01	751.29
581.36	750.75
581.71	750.47
582.06	750.21
582.42	750.00
582.77	749.37
583.12	748.90
583.47	748.62
583.82	748.19
584.17	747.69
584.53	747.39
584.88	746.60
585.23	746.18
585.58	745.36
585.93	744.44
586.28	743.76
586.63	743.18
586.98	742.66
587.34	742.18
587.69	741.42
588.04	740.92
588.39	740.21
588.74	739.40
589.09	738.74
589.44	737.80
589.79	737.14
590.14	736.55
590.49	735.69
590.84	734.69
591.19	734.04
591.54	733.12
591.89	731.59
592.25	730.83
592.60	729.50
592.95	728.40
593.30	727.09
593.65	725.58
594.00	724.15
594.35	723.66
594.70	722.13
595.05	720.84
595.40	719.50
595.75	717.99
596.10	716.80
596.45	715.46
596.80	714.26
597.15	712.89
597.50	711.30
597.85	709.94
598.19	708.36
598.54	706.87
598.89	705.47
599.24	704.65
599.59	703.04
599.94	701.73
600.29	700.40
600.64	699.04
600.99	697.59
601.34	696.45
601.69	693.90
602.04	692.36
602.39	690.85
602.74	689.24
603.08	688.10
603.43	686.83
603.78	685.28
604.13	683.78
604.48	682.30
604.83	681.23
605.18	680.02
605.53	678.55
605.87	677.06
606.22	675.68
606.57	673.95
606.92	672.29
607.27	670.63
607.62	668.98
607.96	667.74
608.31	666.31
608.66	664.47
609.01	663.03
609.36	661.46
609.70	659.62
610.05	657.94
610.40	656.28
610.75	654.22
611.10	652.67
611.44	650.46
611.79	648.39
612.14	646.32
612.49	643.95
612.83	642.04
613.18	639.84
613.53	637.74
613.88	635.50
614.22	633.55
614.57	631.60
614.92	629.41
615.27	627.10
615.61	624.92
615.96	622.88
616.31	620.85
616.65	619.02
617.00	617.09
617.35	614.93
617.70	612.51
618.04	610.29
618.39	607.59
618.74	605.56
619.08	603.41
619.43	601.18
619.78	599.21
620.12	597.15
620.47	594.98
620.82	592.62
621.16	590.34
621.51	588.28
621.85	586.08
622.20	583.87
622.55	581.50
622.89	579.24
623.24	577.04
623.59	574.64
623.93	572.39
624.28	570.27
624.62	568.42
624.97	566.52
625.32	564.39
625.66	562.54
626.01	560.60
626.35	558.60
626.70	556.39
627.04	554.57
627.39	552.43
627.73	550.59
628.08	548.78
628.43	546.85
628.77	544.65
629.12	542.46
629.46	540.70
629.81	538.98
630.15	537.02
630.50	535.01
630.84	533.02
631.19	530.98
631.53	528.98
631.88	526.61
632.22	524.42
632.57	522.81
632.91	520.82
633.26	518.87
633.60	516.87
633.95	515.15
634.29	513.00
634.64	511.12
634.98	508.95
635.32	507.02
635.67	505.37
636.01	503.61
636.36	501.76
636.70	499.90
637.05	498.05
637.39	496.41
637.73	494.75
638.08	493.46
638.42	491.70
638.77	490.02
639.11	488.37
639.45	486.56
639.80	484.47
640.14	482.68
640.49	480.84
640.83	478.90
641.17	476.95
641.52	475.13
641.86	473.32
642.20	471.71
642.55	469.86
642.89	467.89
643.23	465.95
643.58	464.36
643.92	462.43
644.26	460.52
644.61	458.72
644.95	456.74
645.29	454.57
645.64	452.77
645.98	450.87
646.32	449.07
646.66	447.30
647.01	445.63
647.35	443.91
647.69	442.01
648.04	440.37
648.38	438.65
648.72	436.75
649.06	434.98
649.41	433.05
649.75	431.12
650.09	429.38
650.43	427.75
650.78	425.87
651.12	424.08
651.46	422.37
651.80	420.62
652.14	418.99
652.49	417.31
652.83	415.59
653.17	413.78
653.51	412.03
653.85	410.44
654.20	408.70
654.54	406.92
654.88	405.28
655.22	403.73
655.56	401.92
655.90	400.34
656.25	398.55
656.59	396.81
656.93	395.36
657.27	393.81
657.61	391.95
657.95	390.46
658.29	388.93
658.64	387.28
658.98	385.59
659.32	383.86
659.66	382.26
660.00	380.70
660.34	379.12
660.68	377.52
661.02	375.82
661.36	374.21
661.70	372.70
662.05	371.30
662.39	369.85
662.73	368.70
663.07	367.51
663.41	366.22
663.75	364.93
664.09	363.41
664.43	361.93
664.77	360.68
665.11	359.18
665.45	357.82
665.79	356.67
666.13	355.36
666.47	354.10
666.81	352.79
667.15	351.34
667.49	350.18
667.83	349.01
668.17	347.70
668.51	346.59
668.85	345.48
669.19	344.22
669.53	342.81
669.87	341.31
670.21	339.94
670.55	338.71
670.89	337.70
671.23	336.75
671.57	335.65
671.91	334.47
672.25	333.30
672.58	332.31
672.92	331.03
673.26	329.96
673.60	328.91
673.94	327.90
674.28	326.95
674.62	325.93
674.96	324.95
675.30	324.00
675.64	323.00
675.97	321.84
676.31	320.86
676.65	320.01
676.99	319.35
677.33	318.34
677.67	317.33
678.01	316.20
678.34	315.11
678.68	314.26
679.02	313.31
679.36	312.51
679.70	311.46
680.04	310.59
680.37	309.66
680.71	308.80
681.05	307.89
681.39	307.01
681.73	306.15
682.06	305.17
682.40	304.33
682.74	303.50
683.08	302.81
683.42	301.85
683.75	301.07
684.09	300.10
684.43	299.29
684.77	298.54
685.10	297.75
685.44	296.99
685.78	296.14
686.12	295.36
686.45	294.54
686.79	293.71
687.13	293.09
687.46	292.33
687.80	291.61
688.14	290.81
688.48	290.08
688.81	289.25
689.15	288.60
689.49	287.76
689.82	286.96
690.16	285.99
690.50	285.26
690.83	284.36
691.17	283.46
691.51	282.66
691.84	281.86
692.18	281.15
692.52	280.51
692.85	279.86
693.19	279.26
693.52	278.47
693.86	277.75
694.20	276.96
694.53	276.31
694.87	275.53
695.21	274.82
695.54	274.09
695.88	273.28
696.21	272.51
696.55	271.96
696.88	271.28
697.22	270.72
697.56	270.22
697.89	269.69
698.23	269.15
698.56	268.55
698.90	268.01
699.23	267.38
699.57	266.66
699.90	265.99
700.24	265.35
700.58	264.81
700.91	264.35
701.25	264.03
701.58	263.50
701.92	263.00
702.25	262.55
702.59	261.99
702.92	261.57
703.26	261.13
703.59	260.67
703.93	260.55
704.26	260.06
704.60	259.53
704.93	258.90
705.26	258.41
705.60	257.94
705.93	257.41
706.27	257.03
706.60	256.59
706.94	256.33
707.27	255.86
707.61	255.46
707.94	254.86
708.27	254.14
708.61	253.60
708.94	253.15
709.28	252.71
709.61	252.28
709.94	251.91
710.28	251.43
710.61	250.93
710.95	250.15
711.28	250.02
711.61	249.60
711.95	249.35
712.28	249.02
712.61	248.61
712.95	248.43
713.28	248.16
713.61	247.77
713.95	247.20
714.28	246.86
714.61	246.47
714.95	246.25
715.28	245.86
715.61	245.44
715.95	245.17
716.28	244.71
716.61	244.36
716.95	243.95
717.28	243.80
717.61	243.48
717.94	243.17
718.28	242.62
718.61	242.30
718.94	241.91
719.27	241.55
719.61	241.35
719.94	240.97
720.27	240.50
720.60	240.25
720.94	239.96
721.27	239.64
721.60	239.40
721.93	239.13
722.27	239.01
722.60	238.91
722.93	238.58
723.26	238.40
723.59	238.21
723.93	238.00
724.26	237.59
724.59	237.27
724.92	237.06
725.25	236.89
725.59	236.62
725.92	236.40
726.25	236.17
726.58	235.89
726.91	235.58
727.24	235.41
727.57	235.16
727.91	234.89
728.24	234.75
728.57	234.48
728.90	234.26
729.23	233.94
729.56	233.89
729.89	233.65
730.22	233.41
730.55	233.09
730.89	232.90
731.22	232.71
731.55	232.60
731.88	232.41
732.21	232.15
732.54	231.87
732.87	231.73
733.20	231.53
733.53	231.36
733.86	231.21
734.19	230.93
734.52	230.78
734.85	230.84
735.18	230.59
735.51	230.50
735.84	230.28
736.17	230.21
736.50	229.80
736.83	230.04
737.16	229.88
737.49	229.86
737.82	229.65
738.15	229.49
738.48	229.27
738.81	229.09
739.14	228.83
739.47	228.75
739.80	228.52
740.13	228.39
740.46	228.20
740.79	227.98
741.12	227.83
741.45	227.65
741.78	227.31
742.11	227.27
742.44	227.05
742.77	226.96
743.10	226.76
743.43	226.59
743.75	226.11
744.08	226.45
744.41	226.19
744.74	226.05
745.07	225.88
745.40	225.81
745.73	225.77
746.06	225.72
746.39	225.63
746.71	225.45
747.04	225.24
747.37	225.13
747.70	225.04
748.03	224.95
748.36	224.79
748.68	224.62
749.01	224.36
749.34	224.24
749.67	224.13
750.00	224.01
750.33	224.19
750.65	224.00
750.98	223.39
751.31	223.32
751.64	223.17
751.97	223.26
752.29	223.08
752.62	222.84
752.95	222.70
753.28	222.52
753.60	222.37
753.93	222.42
754.26	222.32
754.59	222.12
754.91	221.94
755.24	221.85
755.57	221.66
755.90	221.54
756.22	221.43
756.55	221.30
756.88	221.14
757.20	220.74
757.53	220.64
757.86	220.54
758.19	220.43
758.51	220.34
758.84	220.05
759.17	219.94
759.49	219.80
759.82	219.84
760.15	219.80
760.47	219.75
760.80	219.51
761.13	219.43
761.45	219.29
761.78	219.21
762.11	219.14
762.43	219.08
762.76	219.02
763.08	218.90
763.41	218.76
763.74	218.66
764.06	218.56
764.39	218.49
764.71	218.43
765.04	218.25
765.37	218.16
765.69	218.04
766.02	217.99
766.34	217.88
766.67	217.74
767.00	217.65
767.32	217.75
767.65	217.84
767.97	217.76
768.30	217.74
768.62	217.74
768.95	217.61
769.27	217.58
769.60	217.60
769.92	217.50
770.25	217.32
770.57	217.20
770.90	217.17
771.22	217.07
771.55	216.93
771.87	216.94
772.20	216.85
772.52	217.02
772.85	217.35
773.17	217.33
773.50	217.21
773.82	217.06
774.15	216.82
774.47	216.66
774.80	216.55
775.12	216.54
775.45	216.44
775.77	216.33
776.09	216.31
776.42	216.21
776.74	216.25
777.07	216.22
777.39	216.21
777.72	216.06
778.04	216.03
778.36	216.02
778.69	216.05
779.01	216.07
779.33	215.81
779.66	215.36
779.98	215.30
780.31	215.25
780.63	215.41
780.95	215.44
781.28	215.28
781.60	215.12
781.92	215.05
782.25	215.01
782.57	215.06
782.89	214.96
783.22	214.89
783.54	214.80
783.86	214.76
784.19	214.70
784.51	214.78
784.83	214.72
785.16	214.60
785.48	214.50
785.80	214.42
786.12	214.43
786.45	214.38
786.77	214.41
787.09	214.40
787.42	214.20
787.74	214.15
788.06	214.16
788.38	214.21
788.71	214.13
789.03	214.14
789.35	214.15
789.67	214.11
789.99	214.08
790.32	214.05
790.64	214.11
790.96	214.39
791.28	214.27
791.61	214.18
791.93	214.24
792.25	214.18
792.57	214.42
792.89	214.29
793.21	214.32
793.54	214.19
793.86	214.12
794.18	214.16
794.50	214.08
794.82	214.04
795.14	213.97
795.47	214.02
795.79	213.96
796.11	213.85
796.43	213.76
796.75	213.70
797.07	213.65
797.39	213.57
797.71	213.24
798.04	213.27
798.36	213.25
798.68	213.22
799.00	213.18
799.32	212.91
799.64	212.98
799.96	212.92
800.28	212.99
800.60	212.98
800.92	212.99
801.24	212.94
801.56	212.95
801.89	212.98
802.21	212.89
802.53	212.76
802.85	212.81
803.17	213.01
803.49	213.01
803.81	212.96
804.13	213.00
804.45	213.02
804.77	213.00
805.09	213.04
805.41	212.96
805.73	212.95
806.05	212.92
806.37	212.82
806.69	212.80
807.01	212.72
807.33	212.72
807.65	212.56
807.97	212.69
808.28	212.65
808.60	212.62
808.92	212.63
809.24	212.92
809.56	212.83
809.88	212.68
810.20	212.69
810.52	212.72
810.84	212.58
811.16	212.49
811.48	212.53
811.80	212.58
812.12	212.59
812.43	212.65
812.75	212.62
813.07	212.63
813.39	212.66
813.71	212.65
814.03	212.55
814.35	212.55
814.67	212.48
814.98	212.44
815.30	212.45
815.62	212.34
815.94	212.07
816.26	212.11
816.58	212.14
816.89	212.06
817.21	211.96
817.53	211.98
817.85	212.04
818.17	211.96
818.48	211.83
818.80	211.89
819.12	211.78
819.44	211.68
819.76	211.63
820.07	211.60
820.39	211.54
820.71	211.61
821.03	211.65
821.34	211.62
821.66	211.64
821.98	211.66
822.30	211.68
822.61	211.97
822.93	211.94
823.25	211.86
823.57	211.90
823.88	212.05
824.20	212.02
824.52	212.05
824.83	212.08
825.15	212.10
825.47	212.13
825.79	212.17
826.10	212.24
826.42	212.23
826.74	212.29
827.05	212.33
827.37	212.33
827.69	212.26
828.00	212.25
828.32	212.31
828.64	212.25
828.95	212.45
829.27	212.29
829.58	212.32
829.90	212.32
830.22	212.35
830.53	212.26
830.85	212.25
831.17	212.16
831.48	212.12
831.80	212.10
832.11	211.99
832.43	211.91
832.75	211.85
833.06	212.03
833.38	211.91
833.69	211.86
834.01	211.91
834.32	211.86
834.64	211.76
834.96	211.70
835.27	211.68
835.59	211.59
835.90	211.56
836.22	211.47
836.53	211.40
836.85	211.33
837.16	211.63
837.48	211.71
837.79	211.80
838.11	211.79
838.42	211.80
838.74	211.86
839.05	211.82
839.37	211.92
839.68	211.68
840.00	211.73
840.31	211.79
840.63	211.69
840.94	211.77
841.26	211.83
841.57	211.83
841.88	211.85
842.20	211.75
842.51	211.69
842.83	211.71
843.14	212.05
843.46	212.08
843.77	211.94
844.08	211.87
844.40	211.78
844.71	211.78
845.03	211.77
845.34	211.73
845.65	211.78
845.97	211.73
846.28	211.84
846.60	211.85
846.91	211.74
847.22	211.78
847.54	211.74
847.85	211.75
848.16	211.77
848.48	211.81
848.79	212.00
849.10	212.05
849.42	212.07
849.73	211.73
850.04	211.71
850.36	211.63
850.67	211.78
850.98	211.79
851.30	211.85
851.61	211.82
851.92	211.80
852.23	211.92
852.55	211.88
852.86	211.85
853.17	211.85
853.49	211.96
853.80	212.02
854.11	212.10
854.42	212.17
854.74	212.08
855.05	212.06
855.36	211.88
855.67	211.85
855.99	211.80
856.30	212.24
856.61	212.29
856.92	212.26
857.23	212.22
857.55	212.15
857.86	212.13
858.17	212.20
858.48	212.13
858.79	212.07
859.11	212.11
859.42	212.05
859.73	212.03
860.04	212.06
860.35	211.97
860.66	211.89
860.98	211.89
861.29	211.89
861.60	211.87
861.91	211.93
862.22	211.95
862.53	211.91
862.84	211.56
863.16	211.55
863.47	211.53
863.78	211.45
864.09	211.53
864.40	211.49
864.71	211.50
865.02	211.53
865.33	211.46
865.64	211.39
865.95	211.50
866.27	211.66
866.58	211.58
866.89	211.60
867.20	211.57
867.51	211.45
867.82	211.45
868.13	211.50
868.44	211.45
868.75	211.44
869.06	211.48
869.37	211.48
869.68	211.33
869.99	211.36
870.30	211.43
870.61	211.44
870.92	211.45
871.23	211.33
871.54	211.45
871.85	211.50
872.16	211.57
872.47	211.49
872.78	211.27
873.09	211.37
873.40	211.37
873.71	211.37
874.02	211.41
874.33	211.39
874.64	211.30
874.95	211.34
875.26	211.24
875.56	211.20
875.87	211.17
876.18	211.27
876.49	211.51
876.80	211.50
877.11	211.49
877.42	211.40
877.73	211.48
878.04	211.47
878.35	211.44
878.66	211.50
878.96	211.52
879.27	211.64
879.58	211.52
879.89	211.42
880.20	211.53
880.51	211.51
880.82	211.57
881.12	211.60
881.43	211.54
881.74	211.56
882.05	211.64
882.36	211.62
882.67	211.62
882.97	211.30
883.28	211.20
883.59	211.15
883.90	211.27
884.21	211.29
884.51	211.23
884.82	211.21
885.13	211.15
885.44	211.13
885.74	211.05
886.05	210.99
886.36	211.03
886.67	210.92
886.98	211.08
887.28	211.06
887.59	211.08
887.90	211.15
888.20	211.09
888.51	211.10
888.82	211.05
889.13	211.13
889.43	211.43
889.74	211.49
890.05	211.45
890.35	211.40
890.66	211.34
890.97	211.25
891.28	211.26
891.58	211.32
891.89	211.36
892.20	211.30
892.50	211.34
892.81	211.31
893.12	211.37
893.42	211.20
893.73	211.23
894.04	211.22
894.34	211.18
894.65	211.22
894.95	211.26
895.26	211.32
895.57	211.40
895.87	211.10
896.18	211.15
896.48	211.20
896.79	211.21
897.10	211.23
897.40	211.26
897.71	211.30
898.01	211.26
898.32	211.25
898.63	211.26
898.93	211.28
899.24	211.31
899.54	211.20
899.85	211.18
900.15	211.17
900.46	211.11
900.76	211.16
901.07	211.23
901.38	211.12
901.68	211.12
901.99	211.02
902.29	211.02
902.60	210.96
902.90	210.99
903.21	210.91
903.51	210.83
903.82	210.96
904.12	210.95
904.43	210.97
904.73	210.99
905.03	210.99
905.34	211.31
905.64	211.27
905.95	211.28
906.25	211.30
906.56	211.26
906.86	211.34
907.17	211.27
907.47	211.21
907.77	211.12
908.08	211.05
908.38	210.98
908.69	211.04
908.99	211.10
909.30	211.09
909.60	211.14
909.90	211.17
910.21	211.05
910.51	210.96
910.81	210.96
911.12	210.95
911.42	211.06
911.73	210.73
912.03	210.79
912.33	210.86
912.64	210.87
912.94	210.87
913.24	210.80
913.55	210.80
913.85	210.76
914.15	210.96
914.46	211.00
914.76	210.94
915.06	210.89
915.37	210.87
915.67	210.90
915.97	210.93
916.27	210.89
916.58	210.93
916.88	210.85
917.18	210.80
917.49	211.01
917.79	210.91
918.09	210.93
918.39	211.00
918.70	210.96
919.00	211.01
919.30	211.13
919.60	211.10
919.91	211.05
920.21	211.10
920.51	210.95
920.81	210.94
921.12	211.05
921.42	211.01
921.72	210.99
922.02	210.95
922.32	210.97
922.63	211.00
922.93	211.17
923.23	211.35
923.53	211.32
923.83	211.13
924.13	211.19
924.44	211.19
924.74	211.26
925.04	211.38
925.34	211.39
925.64	211.25
925.94	211.20
926.24	211.40
926.55	211.35
926.85	211.46
927.15	211.50
927.45	211.42
927.75	211.40
928.05	211.40
928.35	211.38
928.65	211.41
928.95	211.44
929.26	211.26
929.56	211.28
929.86	211.38
930.16	211.40
930.46	211.35
930.76	211.39
931.06	211.20
931.36	211.04
931.66	211.04
931.96	211.11
932.26	211.23
932.56	211.15
932.86	211.22
933.16	211.18
933.46	211.13
933.76	211.17
934.06	211.30
934.36	211.49
934.66	211.45
934.96	211.43
935.26	211.43
935.56	211.49
935.86	211.40
936.16	211.31
936.46	211.24
936.76	211.25
937.06	211.15
937.36	211.19
937.66	211.26
937.96	211.20
938.26	211.17
938.56	211.07
938.86	211.03
939.16	211.12
939.46	211.18
939.76	211.16
940.06	211.20
940.35	211.10
940.65	210.86
940.95	210.97
941.25	210.93
941.55	210.90
941.85	210.89
942.15	210.91
942.45	211.08
942.75	211.05
943.04	211.08
943.34	211.17
943.64	211.11
943.94	211.12
944.24	211.10
944.54	211.14
944.84	211.18
945.13	211.15
945.43	211.00
945.73	210.94
946.03	210.94
946.33	210.82
946.62	210.81
946.92	210.85
947.22	210.84
947.52	210.89
947.82	210.95
948.11	210.95
948.41	210.94
948.71	210.83
949.01	210.89
949.31	210.87
949.60	210.79
949.90	210.91
950.20	210.90
950.50	210.96
950.79	210.90
951.09	210.95
951.39	210.90
951.69	210.88
951.98	210.97
952.28	211.04
952.58	211.11
952.87	211.11
953.17	211.09
953.47	211.00
953.76	210.92
954.06	210.80
954.36	210.75
954.66	210.66
954.95	210.73
955.25	210.68
955.55	210.63
955.84	210.55
956.14	210.54
956.44	210.52
956.73	210.45
957.03	210.45
957.32	210.51
957.62	210.50
957.92	210.62
958.21	210.61
958.51	211.01
958.81	210.97
959.10	211.06
959.40	211.16
959.69	211.20
959.99	211.23
960.29	211.25
960.58	211.21
960.88	211.38
961.17	211.32
961.47	211.39
961.76	211.45
962.06	211.60
962.36	211.52
962.65	211.50
962.95	211.53
963.24	211.56
963.54	211.55
963.83	211.65
964.13	211.59
964.42	211.50
964.72	211.16
965.01	211.20
965.31	211.14
965.60	211.03
965.90	211.27
966.19	211.19
966.49	211.24
966.78	211.24
967.08	211.20
967.37	211.20
967.67	211.12
967.96	211.11
968.26	211.07
968.55	211.20
968.85	211.24
969.14	211.27
969.43	211.19
969.73	211.13
970.02	211.07
970.32	211.09
970.61	211.13
970.91	211.00
971.20	210.97
971.49	210.98
971.79	211.02
972.08	210.71
972.38	210.81
972.67	210.80
972.96	210.87
973.26	210.79
973.55	210.90
973.85	210.91
974.14	210.92
974.43	210.95
974.73	210.78
975.02	210.78
975.31	210.71
975.61	210.67
975.90	210.65
976.19	210.58
976.49	210.62
976.78	210.62
977.07	210.63
977.37	210.63
977.66	210.62
977.95	210.64
978.24	210.77
978.54	210.81
978.83	210.83
979.12	210.80
979.42	210.88
979.71	210.76
980.00	210.73
980.29	210.67
980.59	210.66
980.88	210.79
981.17	210.73
981.46	210.83
981.76	210.85
982.05	210.95
982.34	211.05
982.63	211.07
982.93	211.07
983.22	211.15
983.51	211.17
983.80	211.21
984.09	211.14
984.39	211.08
984.68	211.05
984.97	211.05
985.26	210.98
985.55	210.98
985.85	210.93
986.14	211.01
986.43	211.08
986.72	211.03
987.01	211.04
987.30	211.05
987.59	211.03
987.89	211.05
988.18	210.92
988.47	210.90
988.76	210.86
989.05	210.76
989.34	210.76
989.63	210.85
989.92	210.70
990.22	210.72
990.51	210.70
990.80	210.65
991.09	210.65
991.38	210.70
991.67	210.67
991.96	210.63
992.25	210.58
992.54	210.59
992.83	210.61
993.12	210.52
993.41	210.52
993.70	210.65
993.99	210.79
994.28	210.85
994.58	210.86
994.87	210.80
995.16	210.85
995.45	210.82
995.74	210.67
996.03	210.82
996.32	210.82
996.61	210.90
996.90	210.91
997.19	210.94
997.48	210.98
997.77	210.94
998.06	210.93
998.34	210.90
998.63	210.78
998.92	210.74
999.21	210.79
999.50	210.79
999.79	210.61
1000.08	210.52
1000.37	210.52
1000.66	210.53
1000.95	210.68
1001.24	210.66
1001.53	210.74
1001.82	210.77
1002.11	210.64
1002.40	210.77
1002.68	210.82
1002.97	211.09
1003.26	211.07
1003.55	210.96
1003.84	211.00
1004.13	211.15
1004.42	211.09
1004.71	211.13
1004.99	211.12
1005.28	211.18
1005.57	211.19
1005.86	211.19
1006.15	211.20
1006.44	211.16
1006.72	211.16
1007.01	211.05
1007.30	211.06
1007.59	210.94
1007.88	210.90
1008.17	210.97
1008.45	210.85
1008.74	210.70
1009.03	210.48
1009.32	210.37
1009.60	210.39
1009.89	210.26
1010.18	210.12
1010.47	210.25
1010.76	210.24
1011.04	210.30
1011.33	210.31
1011.62	210.30
1011.91	210.35
1012.19	210.37
1012.48	210.33
1012.77	210.34
1013.05	210.58
1013.34	210.61
1013.63	210.57
1013.92	210.69
1014.20	210.63
1014.49	210.63
1014.78	210.69
1015.06	210.59
1015.35	210.62
1015.64	210.70
1015.92	210.93
1016.21	210.97
1016.50	210.90
1016.78	210.98
1017.07	210.92
1017.36	210.86
1017.64	210.88
1017.93	210.80
1018.22	210.78
1018.50	210.80
1018.79	210.77
1019.08	210.54
1019.36	210.56
1019.65	210.65
1019.93	210.73
1020.22	210.79
1020.51	210.93
1020.79	210.96
1021.08	210.95
1021.36	210.20
1021.65	210.50
1021.94	210.90
1022.22	211.45
1022.51	211.45
1022.79	213.45
1023.08	210.35
1023.36	214.20
1023.65	210.75
>>>>>End Processed Spectral Data<<<<<
