SpectraSuite Data File
++++++++++++++++++++++++++++++++++++
Date: Mon Feb 25 17:20:15 EST 2013
User: group
Dark Spectrum Present: No
Reference Spectrum Present: No
Number of Sampled Component Spectra: 1
Spectrometers: USB2E7196
Integration Time (usec): 104000 (USB2E7196)
Spectra Averaged: 20 (USB2E7196)
Boxcar Smoothing: 10 (USB2E7196)
Correct for Electrical Dark: No (USB2E7196)
Strobe/Lamp Enabled: No (USB2E7196)
Correct for Detector Non-linearity: No (USB2E7196)
Correct for Stray Light: No (USB2E7196)
Number of Pixels in Processed Spectrum: 2048
>>>>>Begin Processed Spectral Data<<<<<
339.09	0.00
339.48	199.65
339.86	200.60
340.24	201.35
340.63	203.25
341.01	209.95
341.39	206.05
341.78	206.90
342.16	210.25
342.54	207.80
342.93	198.53
343.31	208.57
343.69	209.08
344.07	209.57
344.46	210.04
344.84	210.52
345.22	210.61
345.60	210.88
345.99	211.16
346.37	211.30
346.75	211.53
347.13	211.68
347.52	211.84
347.90	211.99
348.28	212.12
348.66	212.23
349.05	212.17
349.43	212.27
349.81	212.49
350.19	212.60
350.57	212.69
350.96	212.89
351.34	213.00
351.72	213.16
352.10	213.24
352.48	213.37
352.87	213.36
353.25	213.44
353.63	213.57
354.01	213.63
354.39	213.72
354.77	213.73
355.15	213.90
355.54	213.88
355.92	213.81
356.30	213.85
356.68	214.12
357.06	214.16
357.44	214.16
357.82	214.20
358.20	214.28
358.58	214.25
358.97	214.32
359.35	214.54
359.73	214.64
360.11	214.70
360.49	214.73
360.87	214.81
361.25	214.92
361.63	215.06
362.01	215.12
362.39	215.01
362.77	215.12
363.15	215.11
363.53	215.21
363.91	215.26
364.29	215.31
364.67	215.03
365.05	215.04
365.43	215.08
365.81	215.06
366.19	215.19
366.57	215.44
366.95	215.44
367.33	215.29
367.71	215.23
368.09	215.30
368.47	215.24
368.85	215.23
369.23	215.24
369.61	215.08
369.99	215.18
370.37	215.30
370.75	215.40
371.13	215.33
371.51	215.20
371.89	215.20
372.27	215.21
372.65	215.26
373.03	215.22
373.41	215.16
373.78	215.16
374.16	214.94
374.54	214.72
374.92	214.63
375.30	214.58
375.68	214.43
376.06	214.45
376.44	214.40
376.82	214.30
377.19	214.27
377.57	214.17
377.95	213.97
378.33	213.88
378.71	213.65
379.09	213.62
379.47	213.60
379.84	213.56
380.22	213.45
380.60	213.30
380.98	213.29
381.36	213.23
381.73	213.17
382.11	213.24
382.49	213.30
382.87	213.24
383.25	213.25
383.62	213.61
384.00	213.49
384.38	213.48
384.76	213.58
385.13	213.65
385.51	213.67
385.89	213.60
386.27	213.59
386.64	213.61
387.02	213.51
387.40	213.50
387.78	213.50
388.15	213.50
388.53	213.53
388.91	213.54
389.29	213.54
389.66	213.53
390.04	213.42
390.42	213.41
390.79	213.40
391.17	213.32
391.55	213.02
391.92	212.99
392.30	213.06
392.68	212.99
393.05	212.97
393.43	212.96
393.81	212.97
394.18	212.97
394.56	212.99
394.94	213.17
395.31	213.15
395.69	213.30
396.06	213.31
396.44	213.29
396.82	213.27
397.19	213.42
397.57	213.41
397.95	213.56
398.32	213.48
398.70	213.56
399.07	213.75
399.45	213.79
399.82	213.87
400.20	213.81
400.58	213.85
400.95	213.74
401.33	213.89
401.70	214.26
402.08	214.30
402.45	214.40
402.83	214.50
403.20	214.65
403.58	214.61
403.95	214.83
404.33	215.04
404.71	215.25
405.08	215.63
405.46	215.81
405.83	215.93
406.21	216.10
406.58	216.34
406.96	216.55
407.33	216.76
407.70	217.05
408.08	217.68
408.45	217.98
408.83	218.42
409.20	218.71
409.58	218.88
409.95	219.44
410.33	219.96
410.70	220.36
411.08	220.82
411.45	221.44
411.82	221.98
412.20	222.65
412.57	223.43
412.95	223.79
413.32	224.52
413.69	225.29
414.07	226.17
414.44	227.06
414.82	227.92
415.19	229.03
415.56	230.06
415.94	231.11
416.31	232.46
416.68	233.69
417.06	235.18
417.43	236.61
417.81	238.15
418.18	239.75
418.55	241.55
418.93	243.47
419.30	245.47
419.67	247.56
420.04	249.66
420.42	251.82
420.79	254.60
421.16	257.25
421.54	260.10
421.91	262.88
422.28	265.66
422.66	268.75
423.03	271.95
423.40	275.07
423.77	278.26
424.15	281.62
424.52	285.24
424.89	289.00
425.26	292.71
425.64	296.23
426.01	300.04
426.38	304.01
426.75	308.18
427.13	312.28
427.50	316.69
427.87	321.39
428.24	326.06
428.61	330.43
428.99	335.28
429.36	340.39
429.73	345.56
430.10	350.72
430.47	356.02
430.85	361.23
431.22	366.94
431.59	373.14
431.96	378.86
432.33	385.27
432.70	391.48
433.08	398.75
433.45	405.75
433.82	412.61
434.19	420.22
434.56	427.54
434.93	434.71
435.30	441.63
435.68	449.35
436.05	457.10
436.42	464.63
436.79	471.63
437.16	479.17
437.53	487.03
437.90	494.88
438.27	502.68
438.64	510.83
439.01	518.43
439.38	525.02
439.75	531.63
440.13	538.88
440.50	545.97
440.87	551.77
441.24	557.53
441.61	564.10
441.98	568.76
442.35	574.33
442.72	579.99
443.09	585.55
443.46	588.82
443.83	590.99
444.20	592.80
444.57	595.51
444.94	596.79
445.31	598.25
445.68	599.80
446.05	600.12
446.42	599.15
446.79	598.10
447.16	596.98
447.53	596.09
447.90	592.99
448.27	589.69
448.64	585.29
449.01	582.25
449.37	576.80
449.74	571.78
450.11	565.74
450.48	558.95
450.85	552.14
451.22	546.28
451.59	540.60
451.96	535.30
452.33	528.20
452.70	521.64
453.07	513.85
453.43	505.76
453.80	498.43
454.17	491.42
454.54	484.69
454.91	477.40
455.28	470.26
455.65	463.71
456.02	457.52
456.38	451.87
456.75	444.85
457.12	438.95
457.49	433.02
457.86	427.39
458.23	422.67
458.59	417.38
458.96	412.16
459.33	407.53
459.70	402.86
460.07	399.18
460.43	395.03
460.80	391.23
461.17	387.83
461.54	384.19
461.91	380.69
462.27	377.15
462.64	374.21
463.01	370.99
463.38	368.00
463.74	364.58
464.11	361.91
464.48	359.53
464.85	357.06
465.21	355.29
465.58	353.21
465.95	350.67
466.32	348.61
466.68	346.47
467.05	344.50
467.42	342.53
467.78	340.37
468.15	338.35
468.52	336.87
468.88	334.96
469.25	333.28
469.62	331.98
469.98	330.52
470.35	329.19
470.72	328.01
471.08	326.62
471.45	325.46
471.82	324.41
472.18	323.22
472.55	322.35
472.92	321.34
473.28	320.55
473.65	319.72
474.02	318.96
474.38	318.41
474.75	317.98
475.11	317.47
475.48	317.24
475.85	317.08
476.21	316.77
476.58	316.76
476.94	316.80
477.31	316.79
477.67	316.86
478.04	317.04
478.41	317.35
478.77	317.91
479.14	318.41
479.50	318.85
479.87	319.47
480.23	320.12
480.60	320.67
480.96	321.31
481.33	322.46
481.69	323.46
482.06	324.57
482.42	325.51
482.79	326.68
483.15	327.96
483.52	329.55
483.88	331.03
484.25	332.45
484.61	334.16
484.98	335.97
485.34	338.00
485.71	340.11
486.07	342.25
486.44	344.34
486.80	346.74
487.17	349.32
487.53	352.27
487.90	355.25
488.26	358.55
488.62	362.07
488.99	365.42
489.35	369.09
489.72	373.00
490.08	377.14
490.44	381.50
490.81	386.11
491.17	390.76
491.54	395.86
491.90	401.16
492.26	406.61
492.63	412.40
492.99	418.46
493.36	424.95
493.72	431.83
494.08	438.84
494.45	446.18
494.81	454.13
495.17	462.03
495.54	470.52
495.90	479.25
496.26	488.11
496.63	497.62
496.99	507.44
497.35	517.60
497.72	528.34
498.08	539.28
498.44	550.77
498.80	563.14
499.17	575.66
499.53	588.72
499.89	602.19
500.26	616.03
500.62	630.28
500.98	645.05
501.34	660.37
501.71	676.31
502.07	692.83
502.43	709.33
502.79	726.67
503.16	744.74
503.52	763.37
503.88	782.38
504.24	801.85
504.60	821.66
504.97	842.31
505.33	863.04
505.69	885.31
506.05	907.95
506.41	930.56
506.78	953.63
507.14	977.25
507.50	1001.62
507.86	1026.56
508.22	1051.89
508.59	1077.57
508.95	1104.03
509.31	1130.79
509.67	1158.21
510.03	1186.30
510.39	1215.07
510.75	1243.94
511.12	1273.28
511.48	1303.10
511.84	1333.43
512.20	1363.97
512.56	1395.29
512.92	1427.15
513.28	1458.80
513.64	1490.46
514.00	1522.45
514.37	1554.86
514.73	1587.85
515.09	1620.95
515.45	1653.96
515.81	1687.43
516.17	1721.12
516.53	1754.86
516.89	1788.66
517.25	1822.26
517.61	1856.13
517.97	1889.57
518.33	1923.06
518.69	1956.76
519.05	1990.88
519.41	2025.07
519.77	2060.00
520.13	2093.66
520.49	2127.36
520.85	2161.50
521.21	2196.08
521.57	2230.77
521.93	2264.39
522.29	2299.22
522.65	2333.57
523.01	2367.49
523.37	2400.64
523.73	2434.34
524.09	2467.48
524.45	2501.18
524.81	2534.76
525.17	2568.56
525.53	2602.02
525.89	2635.78
526.25	2668.46
526.61	2699.84
526.97	2731.62
527.33	2762.88
527.68	2794.81
528.04	2825.76
528.40	2855.26
528.76	2885.01
529.12	2915.21
529.48	2946.79
529.84	2976.36
530.20	3005.48
530.56	3035.23
530.91	3065.98
531.27	3095.54
531.63	3124.25
531.99	3152.43
532.35	3179.49
532.71	3205.88
533.07	3233.56
533.42	3259.13
533.78	3285.87
534.14	3312.63
534.50	3336.61
534.86	3361.70
535.21	3385.09
535.57	3410.19
535.93	3434.28
536.29	3457.32
536.65	3480.14
537.00	3500.84
537.36	3521.20
537.72	3541.33
538.08	3561.10
538.44	3580.52
538.79	3600.02
539.15	3619.30
539.51	3638.21
539.87	3657.99
540.22	3676.85
540.58	3695.29
540.94	3713.48
541.29	3729.30
541.65	3744.04
542.01	3760.72
542.37	3775.65
542.72	3791.02
543.08	3804.39
543.44	3819.41
543.79	3832.10
544.15	3843.91
544.51	3857.30
544.87	3870.56
545.22	3882.80
545.58	3893.34
545.94	3902.39
546.29	3910.68
546.65	3918.46
547.01	3925.95
547.36	3932.79
547.72	3939.76
548.07	3944.60
548.43	3949.63
548.79	3954.21
549.14	3959.91
549.50	3964.62
549.86	3967.93
550.21	3971.40
550.57	3975.58
550.92	3976.96
551.28	3979.59
551.64	3982.06
551.99	3984.30
552.35	3984.88
552.70	3985.62
553.06	3987.28
553.41	3988.96
553.77	3989.94
554.13	3990.76
554.48	3991.48
554.84	3991.95
555.19	3990.72
555.55	3989.10
555.90	3987.08
556.26	3985.64
556.61	3983.56
556.97	3980.36
557.32	3978.52
557.68	3974.81
558.03	3970.75
558.39	3967.84
558.74	3965.71
559.10	3962.81
559.45	3958.45
559.81	3955.37
560.16	3950.61
560.52	3946.50
560.87	3941.45
561.23	3935.57
561.58	3931.18
561.94	3924.99
562.29	3917.87
562.64	3912.95
563.00	3907.94
563.35	3903.36
563.71	3899.30
564.06	3893.89
564.42	3889.77
564.77	3884.95
565.12	3880.79
565.48	3875.35
565.83	3869.84
566.19	3864.24
566.54	3856.68
566.89	3849.47
567.25	3842.68
567.60	3837.03
567.96	3829.70
568.31	3823.17
568.66	3816.08
569.02	3807.31
569.37	3798.77
569.72	3791.45
570.08	3782.23
570.43	3773.38
570.78	3763.75
571.14	3753.28
571.49	3743.64
571.84	3734.14
572.20	3722.98
572.55	3712.88
572.90	3701.64
573.26	3689.91
573.61	3677.75
573.96	3666.86
574.31	3654.78
574.67	3641.86
575.02	3628.26
575.37	3615.52
575.72	3601.60
576.08	3589.87
576.43	3576.45
576.78	3564.65
577.13	3552.81
577.49	3541.38
577.84	3528.87
578.19	3517.34
578.54	3506.54
578.90	3495.46
579.25	3482.22
579.60	3469.20
579.95	3455.13
580.30	3443.61
580.66	3432.37
581.01	3419.57
581.36	3406.15
581.71	3393.13
582.06	3380.80
582.42	3368.66
582.77	3355.03
583.12	3342.19
583.47	3329.56
583.82	3318.58
584.17	3305.63
584.53	3293.07
584.88	3279.60
585.23	3267.06
585.58	3254.00
585.93	3240.45
586.28	3227.52
586.63	3215.01
586.98	3202.99
587.34	3191.50
587.69	3178.42
588.04	3165.32
588.39	3153.31
588.74	3140.67
589.09	3128.98
589.44	3116.05
589.79	3104.47
590.14	3093.36
590.49	3081.43
590.84	3068.77
591.19	3057.24
591.54	3045.19
591.89	3030.82
592.25	3018.22
592.60	3004.79
592.95	2991.49
593.30	2977.05
593.65	2962.63
594.00	2949.35
594.35	2937.49
594.70	2924.51
595.05	2912.06
595.40	2899.53
595.75	2885.97
596.10	2874.19
596.45	2862.42
596.80	2851.59
597.15	2839.77
597.50	2827.17
597.85	2815.40
598.19	2803.28
598.54	2790.87
598.89	2779.49
599.24	2769.69
599.59	2759.02
599.94	2749.27
600.29	2738.55
600.64	2728.47
600.99	2717.27
601.34	2706.63
601.69	2694.39
602.04	2682.60
602.39	2671.17
602.74	2660.21
603.08	2650.17
603.43	2640.04
603.78	2628.97
604.13	2617.26
604.48	2606.00
604.83	2596.63
605.18	2587.47
605.53	2576.61
605.87	2565.33
606.22	2554.65
606.57	2543.22
606.92	2531.65
607.27	2519.96
607.62	2508.66
607.96	2498.02
608.31	2488.34
608.66	2476.80
609.01	2465.65
609.36	2454.19
609.70	2442.36
610.05	2430.23
610.40	2418.60
610.75	2406.20
611.10	2394.95
611.44	2381.90
611.79	2368.90
612.14	2355.09
612.49	2340.88
612.83	2328.66
613.18	2315.32
613.53	2302.01
613.88	2288.53
614.22	2275.99
614.57	2263.16
614.92	2250.47
615.27	2237.09
615.61	2223.88
615.96	2211.83
616.31	2200.10
616.65	2189.04
617.00	2177.40
617.35	2165.57
617.70	2152.85
618.04	2139.83
618.39	2126.28
618.74	2114.56
619.08	2102.34
619.43	2090.66
619.78	2079.12
620.12	2066.98
620.47	2055.96
620.82	2043.34
621.16	2031.30
621.51	2018.85
621.85	2006.80
622.20	1994.43
622.55	1982.51
622.89	1970.02
623.24	1957.58
623.59	1944.75
623.93	1932.35
624.28	1920.35
624.62	1908.58
624.97	1897.12
625.32	1886.04
625.66	1875.36
626.01	1864.10
626.35	1853.41
626.70	1841.87
627.04	1830.87
627.39	1820.00
627.73	1808.74
628.08	1798.91
628.43	1787.68
628.77	1776.57
629.12	1765.37
629.46	1755.49
629.81	1745.19
630.15	1735.12
630.50	1724.28
630.84	1713.60
631.19	1702.65
631.53	1692.37
631.88	1681.02
632.22	1669.77
632.57	1659.34
632.91	1648.15
633.26	1637.67
633.60	1627.05
633.95	1617.12
634.29	1606.54
634.64	1596.29
634.98	1585.37
635.32	1575.03
635.67	1565.80
636.01	1556.28
636.36	1546.01
636.70	1535.87
637.05	1525.62
637.39	1515.86
637.73	1506.75
638.08	1498.10
638.42	1489.42
638.77	1479.75
639.11	1470.46
639.45	1461.44
639.80	1451.38
640.14	1441.60
640.49	1431.69
640.83	1422.06
641.17	1412.13
641.52	1402.13
641.86	1392.19
642.20	1382.92
642.55	1372.75
642.89	1362.54
643.23	1352.54
643.58	1343.64
643.92	1333.60
644.26	1324.02
644.61	1314.31
644.95	1304.29
645.29	1294.37
645.64	1284.11
645.98	1274.41
646.32	1265.32
646.66	1255.63
647.01	1246.88
647.35	1238.10
647.69	1228.63
648.04	1219.37
648.38	1210.10
648.72	1200.97
649.06	1191.65
649.41	1182.53
649.75	1173.52
650.09	1164.73
650.43	1155.86
650.78	1146.50
651.12	1137.37
651.46	1128.54
651.80	1119.70
652.14	1110.91
652.49	1101.98
652.83	1093.10
653.17	1083.70
653.51	1074.60
653.85	1065.69
654.20	1056.81
654.54	1047.82
654.88	1039.38
655.22	1030.45
655.56	1021.81
655.90	1013.42
656.25	1004.88
656.59	996.56
656.93	988.34
657.27	980.30
657.61	971.55
657.95	963.39
658.29	955.50
658.64	947.74
658.98	939.69
659.32	931.64
659.66	923.85
660.00	915.99
660.34	908.40
660.68	900.42
661.02	892.68
661.36	885.26
661.70	878.08
662.05	870.95
662.39	864.33
662.73	857.46
663.07	850.62
663.41	843.91
663.75	837.01
664.09	830.03
664.43	822.89
664.77	816.61
665.11	809.81
665.45	803.41
665.79	796.79
666.13	790.43
666.47	784.07
666.81	777.58
667.15	771.38
667.49	765.65
667.83	760.07
668.17	754.32
668.51	748.42
668.85	742.86
669.19	737.20
669.53	731.34
669.87	725.38
670.21	719.92
670.55	714.25
670.89	708.95
671.23	703.97
671.57	698.89
671.91	693.56
672.25	688.49
672.58	683.11
672.92	678.05
673.26	673.13
673.60	668.23
673.94	663.31
674.28	658.48
674.62	653.87
674.96	649.07
675.30	644.50
675.64	639.75
675.97	634.94
676.31	630.46
676.65	625.99
676.99	622.01
677.33	617.26
677.67	613.08
678.01	608.44
678.34	603.96
678.68	599.60
679.02	595.20
679.36	591.09
679.70	587.05
680.04	582.79
680.37	578.37
680.71	574.37
681.05	570.43
681.39	566.55
681.73	562.47
682.06	558.82
682.40	554.97
682.74	551.14
683.08	547.33
683.42	543.36
683.75	539.45
684.09	535.58
684.43	531.93
684.77	528.06
685.10	524.50
685.44	520.79
685.78	517.15
686.12	513.80
686.45	510.22
686.79	506.78
687.13	503.55
687.46	500.40
687.80	497.13
688.14	493.70
688.48	490.46
688.81	486.94
689.15	483.46
689.49	480.15
689.82	476.99
690.16	473.36
690.50	470.06
690.83	467.02
691.17	463.73
691.51	460.57
691.84	457.62
692.18	454.67
692.52	451.89
692.85	449.12
693.19	446.31
693.52	443.43
693.86	440.47
694.20	437.48
694.53	434.65
694.87	431.72
695.21	428.99
695.54	426.04
695.88	423.20
696.21	420.42
696.55	417.96
696.88	415.35
697.22	412.97
697.56	410.51
697.89	407.90
698.23	405.45
698.56	403.06
698.90	400.75
699.23	398.29
699.57	395.85
699.90	393.29
700.24	390.85
700.58	388.54
700.91	386.37
701.25	384.41
701.58	382.24
701.92	380.04
702.25	377.85
702.59	375.79
702.92	373.94
703.26	371.96
703.59	369.82
703.93	368.09
704.26	366.09
704.60	364.22
704.93	362.26
705.26	360.27
705.60	358.41
705.93	356.45
706.27	354.75
706.60	352.99
706.94	351.59
707.27	349.81
707.61	348.10
707.94	346.41
708.27	344.63
708.61	342.92
708.94	341.30
709.28	339.71
709.61	338.17
709.94	336.68
710.28	335.13
710.61	333.80
710.95	331.96
711.28	330.85
711.61	329.38
711.95	328.05
712.28	326.71
712.61	325.33
712.95	324.16
713.28	322.91
713.61	321.54
713.95	320.04
714.28	318.86
714.61	317.61
714.95	316.24
715.28	314.91
715.61	313.68
715.95	312.44
716.28	311.13
716.61	309.89
716.95	308.57
717.28	307.49
717.61	306.20
717.94	305.11
718.28	303.75
718.61	302.58
718.94	301.43
719.27	300.39
719.61	299.36
719.94	298.21
720.27	296.89
720.60	295.89
720.94	294.81
721.27	293.69
721.60	292.76
721.93	291.87
722.27	290.97
722.60	290.12
722.93	289.23
723.26	288.44
723.59	287.53
723.93	286.74
724.26	285.77
724.59	284.93
724.92	284.12
725.25	283.40
725.59	282.67
725.92	281.97
726.25	281.14
726.58	280.36
726.91	279.55
727.24	278.95
727.57	278.06
727.91	277.27
728.24	276.63
728.57	275.78
728.90	275.17
729.23	274.41
729.56	273.78
729.89	273.09
730.22	272.34
730.55	271.64
730.89	270.95
731.22	270.28
731.55	269.60
731.88	268.94
732.21	268.13
732.54	267.46
732.87	266.76
733.20	266.11
733.53	265.47
733.86	264.84
734.19	264.05
734.52	263.58
734.85	263.30
735.18	262.59
735.51	262.24
735.84	261.58
736.17	261.05
736.50	260.38
736.83	260.27
737.16	259.87
737.49	259.39
737.82	258.80
738.15	258.25
738.48	257.65
738.81	257.11
739.14	256.57
739.47	255.98
739.80	255.47
740.13	254.98
740.46	254.43
740.79	253.87
741.12	253.47
741.45	252.90
741.78	252.19
742.11	251.87
742.44	251.22
742.77	250.84
743.10	250.34
743.43	249.90
743.75	249.06
744.08	248.95
744.41	248.38
744.74	247.97
745.07	247.49
745.40	247.18
745.73	246.90
746.06	246.60
746.39	246.27
746.71	245.80
747.04	245.36
747.37	244.95
747.70	244.67
748.03	244.30
748.36	243.99
748.68	243.63
749.01	243.19
749.34	242.84
749.67	242.46
750.00	242.19
750.33	241.97
750.65	241.62
750.98	240.90
751.31	240.67
751.64	240.36
751.97	240.27
752.29	239.83
752.62	239.39
752.95	239.06
753.28	238.68
753.60	238.39
753.93	238.22
754.26	237.87
754.59	237.50
754.91	237.19
755.24	236.86
755.57	236.54
755.90	236.32
756.22	236.04
756.55	235.60
756.88	235.18
757.20	234.65
757.53	234.26
757.86	234.01
758.19	233.70
758.51	233.41
758.84	232.93
759.17	232.73
759.49	232.50
759.82	232.38
760.15	232.14
760.47	231.89
760.80	231.54
761.13	231.38
761.45	231.03
761.78	230.81
762.11	230.54
762.43	230.25
762.76	229.97
763.08	229.72
763.41	229.61
763.74	229.37
764.06	229.18
764.39	229.00
764.71	228.75
765.04	228.58
765.37	228.29
765.69	228.19
766.02	227.94
766.34	227.68
766.67	227.33
767.00	227.19
767.32	227.14
767.65	227.15
767.97	226.94
768.30	226.84
768.62	226.64
768.95	226.46
769.27	226.37
769.60	226.25
769.92	226.03
770.25	225.82
770.57	225.67
770.90	225.58
771.22	225.32
771.55	225.18
771.87	225.01
772.20	224.87
772.52	224.99
772.85	225.25
773.17	225.15
773.50	224.93
773.82	224.72
774.15	224.41
774.47	223.98
774.80	223.87
775.12	223.74
775.45	223.62
775.77	223.54
776.09	223.36
776.42	223.24
776.74	223.26
777.07	223.19
777.39	223.05
777.72	222.88
778.04	222.85
778.36	222.64
778.69	222.53
779.01	222.43
779.33	222.02
779.66	221.52
779.98	221.36
780.31	221.27
780.63	221.32
780.95	221.28
781.28	221.22
781.60	221.06
781.92	220.93
782.25	220.78
782.57	220.66
782.89	220.56
783.22	220.40
783.54	220.24
783.86	220.05
784.19	220.00
784.51	219.95
784.83	219.84
785.16	219.82
785.48	219.74
785.80	219.61
786.12	219.54
786.45	219.52
786.77	219.45
787.09	219.40
787.42	219.27
787.74	219.19
788.06	219.10
788.38	219.04
788.71	218.98
789.03	218.95
789.35	218.95
789.67	218.90
789.99	218.85
790.32	218.82
790.64	218.82
790.96	219.01
791.28	218.87
791.61	218.73
791.93	218.59
792.25	218.54
792.57	218.81
792.89	218.70
793.21	218.56
793.54	218.50
793.86	218.44
794.18	218.30
794.50	218.23
794.82	218.17
795.14	218.23
795.47	218.20
795.79	218.12
796.11	218.03
796.43	217.91
796.75	217.82
797.07	217.61
797.39	217.58
797.71	217.34
798.04	217.35
798.36	217.40
798.68	217.36
799.00	217.27
799.32	217.00
799.64	217.00
799.96	216.95
800.28	216.90
800.60	216.83
800.92	216.85
801.24	216.84
801.56	216.88
801.89	216.69
802.21	216.67
802.53	216.58
802.85	216.58
803.17	216.77
803.49	216.67
803.81	216.65
804.13	216.55
804.45	216.47
804.77	216.44
805.09	216.31
805.41	216.26
805.73	216.20
806.05	216.04
806.37	215.92
806.69	215.84
807.01	215.79
807.33	215.78
807.65	215.62
807.97	215.65
808.28	215.53
808.60	215.48
808.92	215.41
809.24	215.58
809.56	215.51
809.88	215.31
810.20	215.30
810.52	215.37
810.84	215.33
811.16	215.23
811.48	215.22
811.80	215.35
812.12	215.30
812.43	215.32
812.75	215.37
813.07	215.43
813.39	215.50
813.71	215.48
814.03	215.33
814.35	215.34
814.67	215.24
814.98	215.16
815.30	215.14
815.62	215.04
815.94	214.81
816.26	214.72
816.58	214.65
816.89	214.65
817.21	214.59
817.53	214.56
817.85	214.55
818.17	214.45
818.48	214.33
818.80	214.40
819.12	214.38
819.44	214.33
819.76	214.23
820.07	214.16
820.39	214.13
820.71	214.18
821.03	214.14
821.34	214.15
821.66	214.28
821.98	214.23
822.30	214.25
822.61	214.44
822.93	214.43
823.25	214.39
823.57	214.34
823.88	214.35
824.20	214.31
824.52	214.34
824.83	214.37
825.15	214.31
825.47	214.22
825.79	214.17
826.10	214.12
826.42	214.06
826.74	214.09
827.05	214.02
827.37	214.05
827.69	214.06
828.00	214.02
828.32	213.91
828.64	213.85
828.95	213.96
829.27	213.83
829.58	213.84
829.90	213.88
830.22	213.84
830.53	213.74
830.85	213.71
831.17	213.66
831.48	213.62
831.80	213.59
832.11	213.57
832.43	213.50
832.75	213.56
833.06	213.76
833.38	213.64
833.69	213.66
834.01	213.69
834.32	213.62
834.64	213.58
834.96	213.57
835.27	213.59
835.59	213.52
835.90	213.46
836.22	213.36
836.53	213.27
836.85	213.29
837.16	213.63
837.48	213.62
837.79	213.72
838.11	213.72
838.42	213.71
838.74	213.81
839.05	213.81
839.37	213.83
839.68	213.62
840.00	213.57
840.31	213.62
840.63	213.53
840.94	213.50
841.26	213.41
841.57	213.43
841.88	213.50
842.20	213.43
842.51	213.37
842.83	213.43
843.14	213.77
843.46	213.72
843.77	213.48
844.08	213.49
844.40	213.37
844.71	213.29
845.03	213.24
845.34	213.27
845.65	213.25
845.97	213.15
846.28	213.16
846.60	213.16
846.91	213.05
847.22	213.09
847.54	213.09
847.85	213.13
848.16	213.10
848.48	212.98
848.79	213.06
849.10	213.11
849.42	213.13
849.73	212.85
850.04	212.85
850.36	212.75
850.67	212.83
850.98	212.84
851.30	212.95
851.61	213.01
851.92	212.90
852.23	213.04
852.55	213.08
852.86	213.08
853.17	213.24
853.49	213.33
853.80	213.37
854.11	213.49
854.42	213.59
854.74	213.53
855.05	213.59
855.36	213.47
855.67	213.52
855.99	213.49
856.30	213.89
856.61	213.88
856.92	213.89
857.23	213.90
857.55	213.87
857.86	213.83
858.17	213.76
858.48	213.80
858.79	213.71
859.11	213.72
859.42	213.75
859.73	213.67
860.04	213.60
860.35	213.52
860.66	213.41
860.98	213.38
861.29	213.43
861.60	213.45
861.91	213.49
862.22	213.39
862.53	213.40
862.84	212.93
863.16	213.09
863.47	213.04
863.78	213.00
864.09	212.98
864.40	213.00
864.71	213.01
865.02	213.03
865.33	213.04
865.64	212.98
865.95	212.97
866.27	213.15
866.58	213.20
866.89	213.18
867.20	213.17
867.51	213.06
867.82	213.04
868.13	213.15
868.44	213.09
868.75	213.18
869.06	213.17
869.37	213.25
869.68	213.15
869.99	213.18
870.30	213.11
870.61	213.15
870.92	213.10
871.23	213.10
871.54	213.02
871.85	213.02
872.16	213.03
872.47	212.99
872.78	212.77
873.09	212.80
873.40	212.80
873.71	212.81
874.02	212.83
874.33	212.80
874.64	212.65
874.95	212.73
875.26	212.65
875.56	212.59
875.87	212.56
876.18	212.53
876.49	212.86
876.80	212.82
877.11	212.76
877.42	212.73
877.73	212.67
878.04	212.67
878.35	212.68
878.66	212.70
878.96	212.67
879.27	212.69
879.58	212.64
879.89	212.60
880.20	212.67
880.51	212.70
880.82	212.70
881.12	212.75
881.43	212.71
881.74	212.67
882.05	212.59
882.36	212.58
882.67	212.55
882.97	212.13
883.28	212.23
883.59	212.25
883.90	212.32
884.21	212.44
884.51	212.37
884.82	212.30
885.13	212.29
885.44	212.31
885.74	212.28
886.05	212.28
886.36	212.30
886.67	212.19
886.98	212.29
887.28	212.28
887.59	212.20
887.90	212.16
888.20	212.10
888.51	212.25
888.82	212.23
889.13	212.18
889.43	212.58
889.74	212.53
890.05	212.46
890.35	212.39
890.66	212.36
890.97	212.36
891.28	212.34
891.58	212.34
891.89	212.30
892.20	212.23
892.50	212.09
892.81	212.06
893.12	212.05
893.42	211.91
893.73	211.95
894.04	211.94
894.34	211.97
894.65	211.97
894.95	211.90
895.26	211.90
895.57	212.13
895.87	211.75
896.18	211.78
896.48	211.85
896.79	211.82
897.10	211.81
897.40	211.83
897.71	211.87
898.01	211.80
898.32	211.88
898.63	211.86
898.93	211.95
899.24	212.00
899.54	212.00
899.85	212.01
900.15	211.99
900.46	212.01
900.76	212.05
901.07	212.00
901.38	211.98
901.68	211.97
901.99	211.79
902.29	211.80
902.60	211.77
902.90	211.77
903.21	211.75
903.51	211.72
903.82	211.76
904.12	211.79
904.43	211.82
904.73	211.82
905.03	211.90
905.34	212.21
905.64	212.13
905.95	212.15
906.25	212.14
906.56	212.14
906.86	212.18
907.17	212.13
907.47	212.23
907.77	212.18
908.08	212.08
908.38	212.06
908.69	212.09
908.99	212.06
909.30	212.03
909.60	212.05
909.90	212.09
910.21	211.93
910.51	211.81
910.81	211.85
911.12	211.79
911.42	211.80
911.73	211.44
912.03	211.50
912.33	211.50
912.64	211.49
912.94	211.43
913.24	211.37
913.55	211.31
913.85	211.33
914.15	211.44
914.46	211.55
914.76	211.51
915.06	211.52
915.37	211.47
915.67	211.49
915.97	211.49
916.27	211.46
916.58	211.51
916.88	211.55
917.18	211.49
917.49	211.73
917.79	211.66
918.09	211.76
918.39	211.76
918.70	211.71
919.00	211.65
919.30	211.78
919.60	211.74
919.91	211.79
920.21	211.81
920.51	211.69
920.81	211.63
921.12	211.68
921.42	211.65
921.72	211.67
922.02	211.70
922.32	211.76
922.63	211.70
922.93	211.93
923.23	211.94
923.53	211.93
923.83	211.70
924.13	211.75
924.44	211.73
924.74	211.82
925.04	211.95
925.34	212.00
925.64	212.00
925.94	211.98
926.24	212.09
926.55	212.03
926.85	212.13
927.15	212.15
927.45	212.15
927.75	212.12
928.05	212.18
928.35	212.12
928.65	212.20
928.95	212.28
929.26	212.08
929.56	212.15
929.86	212.16
930.16	212.08
930.46	212.05
930.76	212.04
931.06	211.94
931.36	211.80
931.66	211.82
931.96	211.70
932.26	211.72
932.56	211.58
932.86	211.48
933.16	211.53
933.46	211.48
933.76	211.48
934.06	211.53
934.36	211.56
934.66	211.57
934.96	211.41
935.26	211.48
935.56	211.60
935.86	211.47
936.16	211.42
936.46	211.47
936.76	211.52
937.06	211.42
937.36	211.37
937.66	211.38
937.96	211.34
938.26	211.35
938.56	211.30
938.86	211.30
939.16	211.46
939.46	211.37
939.76	211.42
940.06	211.42
940.35	211.37
940.65	211.21
940.95	211.16
941.25	211.10
941.55	210.98
941.85	210.85
942.15	210.95
942.45	211.00
942.75	210.95
943.04	210.88
943.34	210.96
943.64	211.00
943.94	210.91
944.24	210.99
944.54	210.96
944.84	210.95
945.13	210.92
945.43	210.80
945.73	210.84
946.03	210.76
946.33	210.64
946.62	210.60
946.92	210.66
947.22	210.67
947.52	210.66
947.82	210.69
948.11	210.71
948.41	210.56
948.71	210.56
949.01	210.59
949.31	210.57
949.60	210.55
949.90	210.55
950.20	210.58
950.50	210.52
950.79	210.55
951.09	210.71
951.39	210.73
951.69	210.73
951.98	210.78
952.28	210.86
952.58	210.94
952.87	210.93
953.17	210.90
953.47	210.89
953.76	210.95
954.06	210.87
954.36	210.83
954.66	210.94
954.95	210.94
955.25	210.97
955.55	211.04
955.84	211.05
956.14	211.05
956.44	211.13
956.73	211.09
957.03	211.10
957.32	211.06
957.62	211.05
957.92	211.17
958.21	211.14
958.51	211.52
958.81	211.60
959.10	211.67
959.40	211.81
959.69	211.88
959.99	211.94
960.29	212.02
960.58	212.02
960.88	212.15
961.17	212.22
961.47	212.20
961.76	212.14
962.06	212.15
962.36	212.16
962.65	212.18
962.95	212.14
963.24	212.06
963.54	212.07
963.83	212.06
964.13	212.04
964.42	211.91
964.72	211.63
965.01	211.62
965.31	211.54
965.60	211.45
965.90	211.62
966.19	211.49
966.49	211.50
966.78	211.51
967.08	211.49
967.37	211.52
967.67	211.56
967.96	211.69
968.26	211.71
968.55	211.75
968.85	211.76
969.14	211.77
969.43	211.81
969.73	211.79
970.02	211.90
970.32	211.87
970.61	211.89
970.91	211.78
971.20	211.74
971.49	211.74
971.79	211.79
972.08	211.56
972.38	211.64
972.67	211.63
972.96	211.65
973.26	211.50
973.55	211.58
973.85	211.50
974.14	211.43
974.43	211.38
974.73	211.30
975.02	211.29
975.31	211.32
975.61	211.34
975.90	211.24
976.19	211.15
976.49	211.14
976.78	211.19
977.07	211.17
977.37	211.18
977.66	211.21
977.95	211.11
978.24	211.12
978.54	211.20
978.83	211.15
979.12	211.18
979.42	211.22
979.71	211.08
980.00	211.14
980.29	211.13
980.59	211.09
980.88	211.19
981.17	211.15
981.46	211.18
981.76	211.20
982.05	211.37
982.34	211.37
982.63	211.32
982.93	211.33
983.22	211.45
983.51	211.38
983.80	211.47
984.09	211.53
984.39	211.57
984.68	211.51
984.97	211.53
985.26	211.45
985.55	211.48
985.85	211.36
986.14	211.35
986.43	211.41
986.72	211.37
987.01	211.25
987.30	211.22
987.59	211.20
987.89	211.19
988.18	211.06
988.47	211.06
988.76	211.10
989.05	211.05
989.34	210.96
989.63	211.04
989.92	211.00
990.22	210.95
990.51	210.85
990.80	210.84
991.09	210.84
991.38	210.92
991.67	210.90
991.96	210.98
992.25	211.05
992.54	211.01
992.83	211.07
993.12	211.05
993.41	211.13
993.70	211.28
993.99	211.32
994.28	211.39
994.58	211.46
994.87	211.36
995.16	211.36
995.45	211.40
995.74	211.28
996.03	211.26
996.32	211.35
996.61	211.48
996.90	211.46
997.19	211.50
997.48	211.50
997.77	211.43
998.06	211.41
998.34	211.32
998.63	211.35
998.92	211.32
999.21	211.39
999.50	211.29
999.79	211.16
1000.08	211.15
1000.37	211.16
1000.66	211.04
1000.95	211.17
1001.24	211.20
1001.53	211.15
1001.82	211.19
1002.11	211.14
1002.40	211.16
1002.68	211.22
1002.97	211.51
1003.26	211.45
1003.55	211.36
1003.84	211.42
1004.13	211.48
1004.42	211.48
1004.71	211.41
1004.99	211.45
1005.28	211.54
1005.57	211.61
1005.86	211.62
1006.15	211.54
1006.44	211.48
1006.72	211.55
1007.01	211.48
1007.30	211.47
1007.59	211.47
1007.88	211.50
1008.17	211.55
1008.45	211.45
1008.74	211.33
1009.03	211.12
1009.32	211.04
1009.60	211.07
1009.89	211.00
1010.18	210.84
1010.47	210.82
1010.76	210.85
1011.04	210.82
1011.33	211.06
1011.62	211.08
1011.91	211.10
1012.19	211.15
1012.48	211.14
1012.77	211.09
1013.05	211.29
1013.34	211.31
1013.63	211.30
1013.92	211.33
1014.20	211.28
1014.49	211.28
1014.78	211.22
1015.06	211.11
1015.35	211.17
1015.64	211.23
1015.92	211.29
1016.21	211.35
1016.50	211.39
1016.78	211.38
1017.07	211.46
1017.36	211.09
1017.64	211.07
1017.93	211.05
1018.22	211.10
1018.50	211.19
1018.79	211.17
1019.08	210.98
1019.36	210.96
1019.65	210.95
1019.93	211.02
1020.22	211.09
1020.51	211.30
1020.79	211.34
1021.08	212.30
1021.36	212.25
1021.65	210.35
1021.94	210.70
1022.22	210.70
1022.51	210.40
1022.79	213.10
1023.08	211.50
1023.36	215.20
1023.65	210.60
>>>>>End Processed Spectral Data<<<<<
