SpectraSuite Data File
++++++++++++++++++++++++++++++++++++
Date: Mon Feb 25 17:04:02 EST 2013
User: group
Dark Spectrum Present: No
Reference Spectrum Present: No
Number of Sampled Component Spectra: 1
Spectrometers: USB2E7196
Integration Time (usec): 104000 (USB2E7196)
Spectra Averaged: 20 (USB2E7196)
Boxcar Smoothing: 10 (USB2E7196)
Correct for Electrical Dark: No (USB2E7196)
Strobe/Lamp Enabled: No (USB2E7196)
Correct for Detector Non-linearity: No (USB2E7196)
Correct for Stray Light: No (USB2E7196)
Number of Pixels in Processed Spectrum: 2048
>>>>>Begin Processed Spectral Data<<<<<
339.09	0.00
339.48	197.65
339.86	199.30
340.24	199.85
340.63	202.45
341.01	209.20
341.39	203.85
341.78	207.85
342.16	207.50
342.54	207.85
342.93	197.65
343.31	207.70
343.69	208.32
344.07	208.79
344.46	209.33
344.84	209.68
345.22	209.65
345.60	209.95
345.99	210.06
346.37	210.19
346.75	210.27
347.13	210.40
347.52	210.36
347.90	210.57
348.28	210.59
348.66	210.69
349.05	210.60
349.43	210.69
349.81	210.75
350.19	210.79
350.57	210.89
350.96	211.00
351.34	211.06
351.72	211.10
352.10	211.19
352.48	211.19
352.87	211.27
353.25	211.41
353.63	211.44
354.01	211.50
354.39	211.62
354.77	211.73
355.15	211.84
355.54	211.88
355.92	211.80
356.30	211.85
356.68	212.10
357.06	212.22
357.44	212.25
357.82	212.29
358.20	212.33
358.58	212.34
358.97	212.39
359.35	212.52
359.73	212.68
360.11	212.74
360.49	212.83
360.87	212.95
361.25	213.08
361.63	213.28
362.01	213.39
362.39	213.39
362.77	213.52
363.15	213.56
363.53	213.58
363.91	213.66
364.29	213.69
364.67	213.40
365.05	213.39
365.43	213.47
365.81	213.55
366.19	213.75
366.57	213.95
366.95	213.96
367.33	213.85
367.71	213.84
368.09	213.94
368.47	213.93
368.85	213.92
369.23	213.96
369.61	213.87
369.99	213.93
370.37	213.98
370.75	214.12
371.13	214.03
371.51	214.02
371.89	214.04
372.27	214.00
372.65	214.09
373.03	214.09
373.41	214.01
373.78	213.93
374.16	213.67
374.54	213.45
374.92	213.40
375.30	213.39
375.68	213.28
376.06	213.25
376.44	213.23
376.82	213.16
377.19	213.04
377.57	212.96
377.95	212.78
378.33	212.74
378.71	212.41
379.09	212.43
379.47	212.49
379.84	212.40
380.22	212.32
380.60	212.20
380.98	212.19
381.36	212.06
381.73	211.94
382.11	212.02
382.49	212.00
382.87	211.85
383.25	211.77
383.62	212.06
384.00	211.93
384.38	211.79
384.76	211.78
385.13	211.88
385.51	211.79
385.89	211.75
386.27	211.59
386.64	211.58
387.02	211.54
387.40	211.48
387.78	211.52
388.15	211.49
388.53	211.46
388.91	211.35
389.29	211.35
389.66	211.45
390.04	211.36
390.42	211.41
390.79	211.46
391.17	211.43
391.55	211.02
391.92	210.95
392.30	211.04
392.68	210.94
393.05	210.89
393.43	210.93
393.81	210.87
394.18	210.85
394.56	210.84
394.94	210.89
395.31	210.73
395.69	210.73
396.06	210.78
396.44	210.75
396.82	210.67
397.19	210.85
397.57	210.71
397.95	210.72
398.32	210.52
398.70	210.47
399.07	210.53
399.45	210.55
399.82	210.55
400.20	210.52
400.58	210.62
400.95	210.52
401.33	210.66
401.70	210.96
402.08	210.97
402.45	210.99
402.83	211.00
403.20	211.14
403.58	211.06
403.95	211.16
404.33	211.29
404.71	211.45
405.08	211.75
405.46	211.86
405.83	212.01
406.21	212.21
406.58	212.39
406.96	212.54
407.33	212.71
407.70	212.96
408.08	213.39
408.45	213.61
408.83	213.89
409.20	213.99
409.58	214.04
409.95	214.43
410.33	214.77
410.70	214.97
411.08	215.33
411.45	215.82
411.82	216.18
412.20	216.64
412.57	217.24
412.95	217.38
413.32	217.94
413.69	218.49
414.07	219.09
414.44	219.69
414.82	220.40
415.19	221.11
415.56	221.82
415.94	222.45
416.31	223.33
416.68	224.21
417.06	225.33
417.43	226.40
417.81	227.55
418.18	228.76
418.55	230.02
418.93	231.36
419.30	232.63
419.67	234.07
420.04	235.61
420.42	237.11
420.79	239.14
421.16	241.03
421.54	243.12
421.91	245.10
422.28	247.25
422.66	249.44
423.03	251.89
423.40	254.10
423.77	256.50
424.15	258.86
424.52	261.46
424.89	264.27
425.26	266.96
425.64	269.51
426.01	272.25
426.38	275.30
426.75	278.39
427.13	281.57
427.50	284.90
427.87	288.33
428.24	291.94
428.61	295.13
428.99	298.77
429.36	302.56
429.73	306.50
430.10	310.41
430.47	314.38
430.85	318.25
431.22	322.68
431.59	327.51
431.96	332.10
432.33	337.05
432.70	341.98
433.08	347.58
433.45	353.00
433.82	358.44
434.19	364.36
434.56	370.30
434.93	375.98
435.30	381.71
435.68	387.89
436.05	393.97
436.42	400.06
436.79	405.82
437.16	411.89
437.53	418.33
437.90	424.61
438.27	430.87
438.64	437.55
439.01	443.82
439.38	449.33
439.75	454.66
440.13	460.71
440.50	466.37
440.87	471.19
441.24	476.23
441.61	481.59
441.98	485.75
442.35	490.39
442.72	495.03
443.09	499.69
443.46	502.73
443.83	504.76
444.20	506.63
444.57	509.12
444.94	510.61
445.31	512.07
445.68	513.78
446.05	514.67
446.42	514.38
446.79	514.03
447.16	513.48
447.53	513.26
447.90	511.31
448.27	509.29
448.64	506.26
449.01	504.07
449.37	500.30
449.74	496.49
450.11	492.21
450.48	487.43
450.85	482.12
451.22	477.73
451.59	473.61
451.96	469.74
452.33	464.31
452.70	459.38
453.07	453.49
453.43	447.21
453.80	441.46
454.17	436.08
454.54	430.82
454.91	425.20
455.28	419.70
455.65	414.53
456.02	409.78
456.38	405.47
456.75	400.03
457.12	395.50
457.49	391.02
457.86	386.38
458.23	382.57
458.59	378.46
458.96	374.24
459.33	370.51
459.70	366.85
460.07	363.95
460.43	360.48
460.80	357.24
461.17	354.51
461.54	351.50
461.91	348.45
462.27	345.57
462.64	343.11
463.01	340.37
463.38	337.91
463.74	334.89
464.11	332.54
464.48	330.63
464.85	328.37
465.21	326.66
465.58	324.90
465.95	322.68
466.32	320.94
466.68	319.10
467.05	317.39
467.42	315.44
467.78	313.48
468.15	311.72
468.52	310.47
468.88	308.70
469.25	307.14
469.62	305.99
469.98	304.57
470.35	303.15
470.72	301.87
471.08	300.36
471.45	299.20
471.82	298.10
472.18	296.86
472.55	295.99
472.92	294.87
473.28	293.79
473.65	292.92
474.02	291.92
474.38	291.21
474.75	290.46
475.11	289.71
475.48	289.12
475.85	288.60
476.21	287.98
476.58	287.57
476.94	287.10
477.31	286.74
477.67	286.32
478.04	286.01
478.41	285.78
478.77	285.82
479.14	285.47
479.50	285.33
479.87	285.07
480.23	284.89
480.60	284.76
480.96	284.66
481.33	284.75
481.69	284.77
482.06	284.69
482.42	284.64
482.79	284.70
483.15	284.88
483.52	285.15
483.88	285.35
484.25	285.38
484.61	285.73
484.98	285.86
485.34	286.24
485.71	286.74
486.07	287.10
486.44	287.27
486.80	287.75
487.17	288.17
487.53	288.83
487.90	289.49
488.26	290.28
488.62	291.04
488.99	291.58
489.35	292.28
489.72	293.10
490.08	293.92
490.44	294.69
490.81	295.50
491.17	296.25
491.54	297.17
491.90	298.28
492.26	299.22
492.63	300.26
492.99	301.30
493.36	302.24
493.72	303.49
494.08	304.66
494.45	305.94
494.81	307.32
495.17	308.51
495.54	309.85
495.90	310.92
496.26	312.14
496.63	313.45
496.99	314.74
497.35	316.02
497.72	317.45
498.08	318.86
498.44	320.28
498.80	321.81
499.17	323.12
499.53	324.50
499.89	326.00
500.26	327.42
500.62	328.82
500.98	330.27
501.34	331.62
501.71	333.06
502.07	334.41
502.43	335.58
502.79	336.76
503.16	337.86
503.52	339.16
503.88	340.31
504.24	341.58
504.60	342.91
504.97	344.22
505.33	345.26
505.69	346.56
506.05	347.64
506.41	348.68
506.78	349.64
507.14	350.48
507.50	351.42
507.86	352.28
508.22	353.17
508.59	353.91
508.95	354.65
509.31	355.41
509.67	356.17
510.03	356.78
510.39	357.53
510.75	358.20
511.12	358.85
511.48	359.45
511.84	359.93
512.20	360.35
512.56	360.79
512.92	361.38
513.28	361.74
513.64	362.06
514.00	362.34
514.37	362.73
514.73	363.19
515.09	363.44
515.45	363.64
515.81	363.76
516.17	364.05
516.53	364.17
516.89	364.26
517.25	364.30
517.61	364.65
517.97	364.72
518.33	364.84
518.69	364.96
519.05	365.18
519.41	365.40
519.77	365.79
520.13	365.96
520.49	366.00
520.85	366.19
521.21	366.51
521.57	366.74
521.93	366.95
522.29	367.15
522.65	367.38
523.01	367.79
523.37	368.05
523.73	368.43
524.09	368.90
524.45	369.28
524.81	369.78
525.17	370.27
525.53	370.94
525.89	371.52
526.25	372.22
526.61	372.79
526.97	373.47
527.33	374.09
527.68	375.18
528.04	376.02
528.40	376.72
528.76	377.58
529.12	378.55
529.48	379.68
529.84	380.65
530.20	381.84
530.56	383.03
530.91	384.40
531.27	385.67
531.63	387.07
531.99	388.43
532.35	389.91
532.71	391.37
533.07	392.93
533.42	394.92
533.78	396.49
534.14	398.24
534.50	399.85
534.86	401.64
535.21	403.10
535.57	405.01
535.93	406.89
536.29	409.00
536.65	411.06
537.00	412.88
537.36	415.01
537.72	416.99
538.08	419.05
538.44	421.12
538.79	423.39
539.15	425.55
539.51	427.84
539.87	429.96
540.22	432.21
540.58	434.68
540.94	436.75
541.29	439.26
541.65	441.50
542.01	444.03
542.37	446.60
542.72	449.08
543.08	451.55
543.44	454.26
543.79	456.56
544.15	459.12
544.51	462.02
544.87	464.75
545.22	467.55
545.58	470.31
545.94	473.04
546.29	475.58
546.65	478.21
547.01	480.93
547.36	483.78
547.72	486.57
548.07	489.16
548.43	491.77
548.79	494.20
549.14	496.99
549.50	499.75
549.86	502.29
550.21	504.99
550.57	507.72
550.92	510.27
551.28	513.11
551.64	515.75
551.99	518.33
552.35	520.80
552.70	523.40
553.06	525.79
553.41	528.27
553.77	531.02
554.13	533.65
554.48	536.33
554.84	539.08
555.19	541.48
555.55	544.17
555.90	546.61
556.26	548.94
556.61	551.28
556.97	553.53
557.32	555.89
557.68	558.32
558.03	560.57
558.39	562.76
558.74	564.86
559.10	567.11
559.45	569.26
559.81	571.58
560.16	573.56
560.52	575.88
560.87	578.06
561.23	579.90
561.58	582.22
561.94	584.05
562.29	585.95
562.64	587.96
563.00	589.64
563.35	591.64
563.71	593.95
564.06	596.06
564.42	598.21
564.77	600.09
565.12	602.00
565.48	604.21
565.83	606.29
566.19	608.15
566.54	609.80
566.89	611.50
567.25	613.34
567.60	615.29
567.96	617.19
568.31	619.06
568.66	620.97
569.02	622.13
569.37	623.49
569.72	624.79
570.08	626.07
570.43	627.44
570.78	628.56
571.14	629.49
571.49	630.17
571.84	630.87
572.20	631.77
572.55	632.64
572.90	632.91
573.26	633.51
573.61	634.01
573.96	634.49
574.31	634.96
574.67	635.12
575.02	635.14
575.37	635.09
575.72	635.09
576.08	635.21
576.43	635.30
576.78	635.51
577.13	635.78
577.49	636.00
577.84	636.10
578.19	636.39
578.54	636.70
578.90	637.16
579.25	637.41
579.60	637.37
579.95	637.18
580.30	637.46
580.66	637.60
581.01	637.60
581.36	637.53
581.71	637.51
582.06	637.74
582.42	637.93
582.77	637.78
583.12	637.77
583.47	637.74
583.82	637.92
584.17	637.91
584.53	637.73
584.88	637.56
585.23	637.36
585.58	637.11
585.93	636.75
586.28	636.47
586.63	636.25
586.98	636.09
587.34	636.09
587.69	635.67
588.04	635.19
588.39	634.91
588.74	634.61
589.09	634.34
589.44	633.76
589.79	633.43
590.14	633.23
590.49	632.69
590.84	632.09
591.19	631.69
591.54	631.16
591.89	630.27
592.25	629.85
592.60	629.00
592.95	628.29
593.30	627.52
593.65	626.68
594.00	625.75
594.35	625.91
594.70	624.95
595.05	624.21
595.40	623.39
595.75	622.56
596.10	621.87
596.45	621.10
596.80	620.47
597.15	619.62
597.50	618.63
597.85	618.00
598.19	617.12
598.54	616.18
598.89	615.37
599.24	614.92
599.59	614.00
599.94	613.40
600.29	612.60
600.64	611.83
600.99	611.00
601.34	610.33
601.69	608.44
602.04	607.39
602.39	606.46
602.74	605.79
603.08	605.21
603.43	604.60
603.78	603.69
604.13	602.69
604.48	601.85
604.83	601.19
605.18	600.26
605.53	599.45
605.87	598.51
606.22	597.65
606.57	596.79
606.92	595.84
607.27	594.92
607.62	593.95
607.96	593.05
608.31	592.28
608.66	591.15
609.01	590.14
609.36	589.28
609.70	588.10
610.05	586.77
610.40	585.37
610.75	583.93
611.10	582.84
611.44	581.31
611.79	579.74
612.14	578.31
612.49	576.77
612.83	575.45
613.18	573.97
613.53	572.45
613.88	570.72
614.22	569.29
614.57	567.65
614.92	566.05
615.27	564.49
615.61	562.93
615.96	561.64
616.31	560.41
616.65	558.96
617.00	557.56
617.35	556.12
617.70	554.56
618.04	552.86
618.39	551.15
618.74	549.90
619.08	548.42
619.43	546.81
619.78	545.31
620.12	543.57
620.47	542.01
620.82	540.27
621.16	538.68
621.51	537.05
621.85	535.50
622.20	533.95
622.55	532.33
622.89	530.55
623.24	528.82
623.59	526.86
623.93	525.23
624.28	523.66
624.62	522.36
624.97	520.96
625.32	519.39
625.66	517.71
626.01	515.88
626.35	514.33
626.70	512.61
627.04	511.09
627.39	509.55
627.73	508.21
628.08	506.78
628.43	505.15
628.77	503.54
629.12	501.94
629.46	500.48
629.81	498.84
630.15	497.14
630.50	495.52
630.84	494.09
631.19	492.44
631.53	490.90
631.88	488.83
632.22	486.93
632.57	485.57
632.91	484.13
633.26	482.81
633.60	481.23
633.95	479.80
634.29	478.07
634.64	476.41
634.98	474.70
635.32	473.26
635.67	471.77
636.01	470.19
636.36	468.72
636.70	467.25
637.05	465.64
637.39	464.30
637.73	462.87
638.08	461.50
638.42	460.00
638.77	458.57
639.11	457.15
639.45	455.75
639.80	454.00
640.14	452.23
640.49	450.62
640.83	449.00
641.17	447.47
641.52	446.02
641.86	444.53
642.20	442.93
642.55	441.13
642.89	439.63
643.23	438.13
643.58	436.76
643.92	435.03
644.26	433.50
644.61	432.02
644.95	430.44
645.29	428.78
645.64	427.25
645.98	425.60
646.32	424.24
646.66	422.73
647.01	421.26
647.35	420.00
647.69	418.38
648.04	417.01
648.38	415.59
648.72	414.01
649.06	412.52
649.41	411.01
649.75	409.53
650.09	408.07
650.43	406.57
650.78	404.75
651.12	403.20
651.46	401.84
651.80	400.43
652.14	398.90
652.49	397.42
652.83	395.81
653.17	394.19
653.51	392.50
653.85	391.00
654.20	389.50
654.54	387.83
654.88	386.42
655.22	385.03
655.56	383.37
655.90	381.92
656.25	380.35
656.59	378.90
656.93	377.56
657.27	376.20
657.61	374.60
657.95	373.35
658.29	371.94
658.64	370.54
658.98	368.96
659.32	367.45
659.66	365.98
660.00	364.70
660.34	363.38
660.68	361.98
661.02	360.57
661.36	359.29
661.70	358.00
662.05	356.60
662.39	355.33
662.73	354.28
663.07	353.20
663.41	351.96
663.75	350.60
664.09	349.26
664.43	347.93
664.77	346.69
665.11	345.42
665.45	344.28
665.79	343.07
666.13	341.85
666.47	340.68
666.81	339.52
667.15	338.19
667.49	337.18
667.83	336.17
668.17	335.02
668.51	334.00
668.85	332.96
669.19	332.07
669.53	330.78
669.87	329.55
670.21	328.40
670.55	327.41
670.89	326.65
671.23	325.78
671.57	324.76
671.91	323.83
672.25	322.82
672.58	321.89
672.92	320.86
673.26	319.97
673.60	319.08
673.94	318.18
674.28	317.36
674.62	316.40
674.96	315.51
675.30	314.63
675.64	313.63
675.97	312.66
676.31	311.65
676.65	310.81
676.99	310.06
677.33	309.15
677.67	308.32
678.01	307.25
678.34	306.28
678.68	305.43
679.02	304.53
679.36	303.65
679.70	302.79
680.04	302.01
680.37	301.21
680.71	300.33
681.05	299.56
681.39	298.83
681.73	298.00
682.06	297.24
682.40	296.44
682.74	295.71
683.08	295.14
683.42	294.45
683.75	293.71
684.09	292.88
684.43	292.08
684.77	291.26
685.10	290.54
685.44	289.76
685.78	288.96
686.12	288.25
686.45	287.57
686.79	286.81
687.13	286.13
687.46	285.35
687.80	284.79
688.14	283.99
688.48	283.29
688.81	282.59
689.15	281.90
689.49	281.19
689.82	280.60
690.16	279.67
690.50	278.85
690.83	278.13
691.17	277.36
691.51	276.70
691.84	276.06
692.18	275.40
692.52	274.85
692.85	274.29
693.19	273.83
693.52	273.21
693.86	272.52
694.20	271.83
694.53	271.23
694.87	270.50
695.21	269.83
695.54	269.11
695.88	268.37
696.21	267.65
696.55	267.08
696.88	266.41
697.22	265.98
697.56	265.50
697.89	264.90
698.23	264.41
698.56	263.84
698.90	263.45
699.23	262.77
699.57	262.13
699.90	261.49
700.24	260.79
700.58	260.29
700.91	259.91
701.25	259.65
701.58	259.29
701.92	258.86
702.25	258.40
702.59	257.95
702.92	257.60
703.26	257.16
703.59	256.71
703.93	256.55
704.26	256.02
704.60	255.51
704.93	255.10
705.26	254.58
705.60	254.14
705.93	253.57
706.27	253.29
706.60	253.01
706.94	252.81
707.27	252.31
707.61	251.88
707.94	251.41
708.27	250.70
708.61	250.15
708.94	249.80
709.28	249.41
709.61	248.99
709.94	248.63
710.28	248.28
710.61	247.99
710.95	247.27
711.28	247.11
711.61	246.75
711.95	246.46
712.28	246.15
712.61	245.83
712.95	245.59
713.28	245.31
713.61	244.88
713.95	244.45
714.28	244.22
714.61	243.84
714.95	243.46
715.28	243.10
715.61	242.79
715.95	242.42
716.28	242.10
716.61	241.76
716.95	241.37
717.28	241.05
717.61	240.68
717.94	240.43
718.28	239.91
718.61	239.57
718.94	239.23
719.27	238.88
719.61	238.58
719.94	238.26
720.27	237.88
720.60	237.60
720.94	237.34
721.27	237.10
721.60	236.86
721.93	236.63
722.27	236.61
722.60	236.42
722.93	236.14
723.26	235.97
723.59	235.78
723.93	235.63
724.26	235.40
724.59	235.19
724.92	234.95
725.25	234.81
725.59	234.67
725.92	234.53
726.25	234.38
726.58	234.14
726.91	233.88
727.24	233.73
727.57	233.50
727.91	233.15
728.24	232.94
728.57	232.71
728.90	232.50
729.23	232.09
729.56	232.00
729.89	231.75
730.22	231.50
730.55	231.22
730.89	230.95
731.22	230.72
731.55	230.46
731.88	230.31
732.21	230.08
732.54	229.78
732.87	229.53
733.20	229.33
733.53	229.20
733.86	229.10
734.19	228.88
734.52	228.76
734.85	228.87
735.18	228.61
735.51	228.60
735.84	228.47
736.17	228.44
736.50	228.11
736.83	228.42
737.16	228.24
737.49	228.16
737.82	228.01
738.15	227.90
738.48	227.77
738.81	227.51
739.14	227.28
739.47	227.18
739.80	227.01
740.13	226.84
740.46	226.61
740.79	226.37
741.12	226.12
741.45	225.88
741.78	225.58
742.11	225.53
742.44	225.27
742.77	225.15
743.10	224.86
743.43	224.72
743.75	224.14
744.08	224.53
744.41	224.33
744.74	224.12
745.07	223.94
745.40	223.83
745.73	223.84
746.06	223.71
746.39	223.61
746.71	223.47
747.04	223.33
747.37	223.19
747.70	223.14
748.03	223.08
748.36	223.07
748.68	222.89
749.01	222.71
749.34	222.55
749.67	222.46
750.00	222.47
750.33	222.60
750.65	222.49
750.98	221.82
751.31	221.72
751.64	221.61
751.97	221.73
752.29	221.63
752.62	221.39
752.95	221.17
753.28	221.04
753.60	220.98
753.93	220.96
754.26	220.86
754.59	220.62
754.91	220.49
755.24	220.28
755.57	220.17
755.90	220.07
756.22	220.00
756.55	219.81
756.88	219.69
757.20	219.34
757.53	219.19
757.86	219.14
758.19	219.07
758.51	219.02
758.84	218.74
759.17	218.63
759.49	218.60
759.82	218.82
760.15	218.77
760.47	218.57
760.80	218.42
761.13	218.41
761.45	218.42
761.78	218.29
762.11	218.27
762.43	218.15
762.76	218.03
763.08	218.03
763.41	217.97
763.74	217.88
764.06	217.81
764.39	217.76
764.71	217.70
765.04	217.62
765.37	217.50
765.69	217.40
766.02	217.32
766.34	217.24
766.67	216.99
767.00	217.00
767.32	217.23
767.65	217.35
767.97	217.32
768.30	217.27
768.62	217.26
768.95	217.18
769.27	217.11
769.60	217.13
769.92	217.00
770.25	216.90
770.57	216.77
770.90	216.74
771.22	216.70
771.55	216.67
771.87	216.63
772.20	216.59
772.52	216.82
772.85	217.17
773.17	217.13
773.50	217.09
773.82	216.92
774.15	216.66
774.47	216.36
774.80	216.24
775.12	216.13
775.45	216.09
775.77	216.11
776.09	216.18
776.42	216.15
776.74	216.19
777.07	216.16
777.39	216.09
777.72	216.01
778.04	216.06
778.36	215.89
778.69	215.95
779.01	215.93
779.33	215.63
779.66	215.16
779.98	215.10
780.31	215.09
780.63	215.25
780.95	215.25
781.28	215.25
781.60	215.19
781.92	215.18
782.25	215.16
782.57	215.03
782.89	214.99
783.22	214.88
783.54	214.77
783.86	214.76
784.19	214.75
784.51	214.80
784.83	214.64
785.16	214.65
785.48	214.53
785.80	214.50
786.12	214.52
786.45	214.56
786.77	214.58
787.09	214.55
787.42	214.41
787.74	214.41
788.06	214.47
788.38	214.43
788.71	214.38
789.03	214.37
789.35	214.48
789.67	214.36
789.99	214.36
790.32	214.29
790.64	214.25
790.96	214.53
791.28	214.46
791.61	214.44
791.93	214.46
792.25	214.48
792.57	214.70
792.89	214.59
793.21	214.51
793.54	214.36
793.86	214.28
794.18	214.20
794.50	214.18
794.82	214.06
795.14	214.11
795.47	214.14
795.79	214.14
796.11	213.97
796.43	213.96
796.75	213.87
797.07	213.89
797.39	213.88
797.71	213.53
798.04	213.45
798.36	213.44
798.68	213.44
799.00	213.40
799.32	213.21
799.64	213.26
799.96	213.29
800.28	213.41
800.60	213.39
800.92	213.45
801.24	213.40
801.56	213.43
801.89	213.36
802.21	213.36
802.53	213.29
802.85	213.39
803.17	213.50
803.49	213.47
803.81	213.42
804.13	213.35
804.45	213.40
804.77	213.47
805.09	213.47
805.41	213.40
805.73	213.36
806.05	213.28
806.37	213.16
806.69	213.08
807.01	213.01
807.33	213.00
807.65	212.79
807.97	212.86
808.28	212.78
808.60	212.77
808.92	212.72
809.24	212.80
809.56	212.72
809.88	212.58
810.20	212.58
810.52	212.66
810.84	212.70
811.16	212.57
811.48	212.51
811.80	212.60
812.12	212.56
812.43	212.60
812.75	212.60
813.07	212.64
813.39	212.66
813.71	212.51
814.03	212.45
814.35	212.52
814.67	212.38
814.98	212.33
815.30	212.36
815.62	212.27
815.94	212.11
816.26	212.11
816.58	212.03
816.89	212.09
817.21	211.95
817.53	211.90
817.85	211.93
818.17	211.88
818.48	211.78
818.80	211.80
819.12	211.74
819.44	211.66
819.76	211.55
820.07	211.45
820.39	211.51
820.71	211.57
821.03	211.53
821.34	211.49
821.66	211.56
821.98	211.55
822.30	211.57
822.61	211.80
822.93	211.69
823.25	211.75
823.57	211.72
823.88	211.80
824.20	211.81
824.52	211.92
824.83	211.93
825.15	211.87
825.47	211.94
825.79	211.86
826.10	211.89
826.42	211.89
826.74	212.00
827.05	211.98
827.37	211.97
827.69	211.91
828.00	211.94
828.32	211.95
828.64	211.88
828.95	212.02
829.27	211.89
829.58	211.96
829.90	211.95
830.22	211.95
830.53	211.88
830.85	211.79
831.17	211.61
831.48	211.56
831.80	211.57
832.11	211.47
832.43	211.48
832.75	211.45
833.06	211.71
833.38	211.51
833.69	211.54
834.01	211.56
834.32	211.61
834.64	211.64
834.96	211.65
835.27	211.67
835.59	211.57
835.90	211.48
836.22	211.48
836.53	211.40
836.85	211.38
837.16	211.62
837.48	211.63
837.79	211.68
838.11	211.65
838.42	211.65
838.74	211.70
839.05	211.70
839.37	211.64
839.68	211.35
840.00	211.37
840.31	211.44
840.63	211.38
840.94	211.37
841.26	211.22
841.57	211.16
841.88	211.18
842.20	211.11
842.51	211.08
842.83	211.02
843.14	211.31
843.46	211.31
843.77	211.21
844.08	211.15
844.40	211.17
844.71	211.25
845.03	211.19
845.34	211.15
845.65	211.17
845.97	211.23
846.28	211.30
846.60	211.39
846.91	211.22
847.22	211.29
847.54	211.32
847.85	211.34
848.16	211.36
848.48	211.29
848.79	211.51
849.10	211.55
849.42	211.64
849.73	211.30
850.04	211.29
850.36	211.17
850.67	211.31
850.98	211.35
851.30	211.30
851.61	211.39
851.92	211.45
852.23	211.48
852.55	211.50
852.86	211.53
853.17	211.50
853.49	211.64
853.80	211.71
854.11	211.80
854.42	211.90
854.74	211.90
855.05	211.93
855.36	211.68
855.67	211.75
855.99	211.68
856.30	212.22
856.61	212.22
856.92	212.21
857.23	212.15
857.55	212.04
857.86	212.07
858.17	212.07
858.48	212.01
858.79	211.99
859.11	212.01
859.42	212.01
859.73	211.97
860.04	211.98
860.35	211.75
860.66	211.54
860.98	211.51
861.29	211.51
861.60	211.46
861.91	211.60
862.22	211.40
862.53	211.35
862.84	210.87
863.16	210.94
863.47	210.86
863.78	210.88
864.09	210.96
864.40	210.98
864.71	210.96
865.02	210.98
865.33	210.87
865.64	210.76
865.95	210.69
866.27	211.00
866.58	210.93
866.89	210.95
867.20	211.00
867.51	210.98
867.82	210.95
868.13	211.08
868.44	210.92
868.75	211.10
869.06	211.14
869.37	211.17
869.68	211.01
869.99	211.07
870.30	211.08
870.61	211.09
870.92	210.98
871.23	210.93
871.54	210.98
871.85	211.12
872.16	211.29
872.47	211.29
872.78	211.09
873.09	211.17
873.40	211.19
873.71	211.25
874.02	211.20
874.33	211.16
874.64	211.08
874.95	211.15
875.26	211.09
875.56	211.02
875.87	211.00
876.18	211.06
876.49	211.43
876.80	211.40
877.11	211.30
877.42	211.33
877.73	211.34
878.04	211.26
878.35	211.22
878.66	211.16
878.96	211.15
879.27	211.06
879.58	211.00
879.89	210.97
880.20	211.06
880.51	211.09
880.82	211.07
881.12	211.04
881.43	211.00
881.74	210.89
882.05	210.99
882.36	211.02
882.67	211.00
882.97	210.60
883.28	210.59
883.59	210.60
883.90	210.65
884.21	210.66
884.51	210.70
884.82	210.64
885.13	210.58
885.44	210.60
885.74	210.64
886.05	210.63
886.36	210.66
886.67	210.49
886.98	210.68
887.28	210.79
887.59	210.80
887.90	210.76
888.20	210.78
888.51	210.75
888.82	210.71
889.13	210.77
889.43	211.05
889.74	211.06
890.05	211.07
890.35	211.09
890.66	211.07
890.97	211.05
891.28	211.02
891.58	211.06
891.89	211.04
892.20	210.99
892.50	211.02
892.81	211.02
893.12	211.05
893.42	210.88
893.73	210.85
894.04	210.89
894.34	210.92
894.65	210.90
894.95	210.95
895.26	210.95
895.57	211.16
895.87	210.89
896.18	210.90
896.48	210.93
896.79	210.90
897.10	210.93
897.40	210.93
897.71	211.00
898.01	211.04
898.32	211.07
898.63	211.03
898.93	211.05
899.24	211.01
899.54	210.97
899.85	210.96
900.15	211.00
900.46	211.01
900.76	211.08
901.07	211.15
901.38	211.12
901.68	211.14
901.99	210.90
902.29	210.92
902.60	210.89
902.90	210.84
903.21	210.90
903.51	210.91
903.82	210.99
904.12	210.95
904.43	210.94
904.73	210.91
905.03	211.01
905.34	211.33
905.64	211.36
905.95	211.41
906.25	211.50
906.56	211.45
906.86	211.37
907.17	211.34
907.47	211.35
907.77	211.31
908.08	211.32
908.38	211.31
908.69	211.34
908.99	211.40
909.30	211.40
909.60	211.41
909.90	211.44
910.21	211.30
910.51	211.25
910.81	211.22
911.12	211.31
911.42	211.29
911.73	210.94
912.03	210.92
912.33	211.00
912.64	210.85
912.94	210.82
913.24	210.77
913.55	210.74
913.85	210.73
914.15	210.84
914.46	210.85
914.76	210.83
915.06	210.82
915.37	210.75
915.67	210.72
915.97	210.70
916.27	210.56
916.58	210.62
916.88	210.65
917.18	210.69
917.49	210.87
917.79	210.88
918.09	210.91
918.39	210.98
918.70	210.88
919.00	210.94
919.30	211.11
919.60	211.18
919.91	211.14
920.21	211.14
920.51	211.00
920.81	210.99
921.12	211.11
921.42	211.09
921.72	211.07
922.02	211.11
922.32	211.10
922.63	211.15
922.93	211.29
923.23	211.36
923.53	211.31
923.83	211.08
924.13	211.11
924.44	211.04
924.74	211.14
925.04	211.32
925.34	211.29
925.64	211.15
925.94	211.07
926.24	211.27
926.55	211.17
926.85	211.26
927.15	211.22
927.45	211.17
927.75	211.23
928.05	211.27
928.35	211.25
928.65	211.32
928.95	211.42
929.26	211.25
929.56	211.22
929.86	211.30
930.16	211.31
930.46	211.26
930.76	211.30
931.06	211.18
931.36	211.03
931.66	211.08
931.96	211.06
932.26	211.12
932.56	210.99
932.86	211.09
933.16	211.07
933.46	211.09
933.76	210.99
934.06	211.01
934.36	211.14
934.66	211.10
934.96	211.03
935.26	211.01
935.56	211.14
935.86	211.12
936.16	211.00
936.46	210.98
936.76	210.97
937.06	210.95
937.36	210.94
937.66	211.00
937.96	210.98
938.26	210.93
938.56	210.95
938.86	211.02
939.16	211.09
939.46	211.13
939.76	211.16
940.06	211.18
940.35	211.13
940.65	210.98
940.95	211.06
941.25	211.01
941.55	210.94
941.85	210.88
942.15	210.95
942.45	211.07
942.75	211.01
943.04	211.08
943.34	211.19
943.64	211.20
943.94	211.14
944.24	211.17
944.54	211.21
944.84	211.17
945.13	211.09
945.43	211.01
945.73	210.97
946.03	210.97
946.33	210.94
946.62	210.87
946.92	210.90
947.22	210.87
947.52	210.83
947.82	210.94
948.11	210.89
948.41	210.83
948.71	210.75
949.01	210.82
949.31	210.81
949.60	210.80
949.90	210.86
950.20	210.87
950.50	210.83
950.79	210.85
951.09	211.00
951.39	211.03
951.69	210.99
951.98	211.06
952.28	211.08
952.58	211.12
952.87	211.18
953.17	211.23
953.47	211.22
953.76	211.30
954.06	211.17
954.36	211.13
954.66	211.09
954.95	211.24
955.25	211.27
955.55	211.26
955.84	211.19
956.14	211.12
956.44	211.10
956.73	211.02
957.03	211.08
957.32	210.97
957.62	210.94
957.92	211.00
958.21	210.99
958.51	211.39
958.81	211.43
959.10	211.49
959.40	211.56
959.69	211.58
959.99	211.68
960.29	211.70
960.58	211.74
960.88	211.92
961.17	211.83
961.47	211.82
961.76	211.84
962.06	211.81
962.36	211.88
962.65	211.95
962.95	211.97
963.24	211.90
963.54	211.92
963.83	211.94
964.13	211.98
964.42	211.86
964.72	211.55
965.01	211.53
965.31	211.45
965.60	211.32
965.90	211.54
966.19	211.35
966.49	211.40
966.78	211.36
967.08	211.31
967.37	211.28
967.67	211.19
967.96	211.25
968.26	211.25
968.55	211.20
968.85	211.19
969.14	211.23
969.43	211.17
969.73	211.15
970.02	211.14
970.32	211.02
970.61	211.08
970.91	210.85
971.20	210.77
971.49	210.73
971.79	210.76
972.08	210.52
972.38	210.64
972.67	210.61
972.96	210.68
973.26	210.62
973.55	210.71
973.85	210.71
974.14	210.62
974.43	210.62
974.73	210.58
975.02	210.61
975.31	210.66
975.61	210.72
975.90	210.73
976.19	210.65
976.49	210.81
976.78	210.80
977.07	210.87
977.37	210.91
977.66	210.94
977.95	210.91
978.24	211.03
978.54	211.11
978.83	211.03
979.12	210.96
979.42	210.92
979.71	210.84
980.00	210.81
980.29	210.80
980.59	210.81
980.88	210.89
981.17	210.77
981.46	210.69
981.76	210.68
982.05	210.79
982.34	210.83
982.63	210.82
982.93	210.84
983.22	211.00
983.51	211.05
983.80	211.11
984.09	211.14
984.39	211.03
984.68	210.94
984.97	210.98
985.26	211.01
985.55	211.09
985.85	211.00
986.14	211.19
986.43	211.21
986.72	211.14
987.01	211.06
987.30	211.12
987.59	211.06
987.89	211.05
988.18	210.87
988.47	210.90
988.76	210.82
989.05	210.82
989.34	210.72
989.63	210.79
989.92	210.77
990.22	210.72
990.51	210.71
990.80	210.68
991.09	210.72
991.38	210.74
991.67	210.70
991.96	210.76
992.25	210.64
992.54	210.63
992.83	210.65
993.12	210.65
993.41	210.64
993.70	210.89
993.99	210.96
994.28	211.03
994.58	211.09
994.87	211.08
995.16	211.02
995.45	210.94
995.74	210.82
996.03	210.88
996.32	210.98
996.61	211.00
996.90	211.01
997.19	211.01
997.48	211.01
997.77	210.98
998.06	210.93
998.34	210.94
998.63	210.90
998.92	210.95
999.21	211.01
999.50	211.05
999.79	210.82
1000.08	210.78
1000.37	210.79
1000.66	210.72
1000.95	210.73
1001.24	210.71
1001.53	210.86
1001.82	210.84
1002.11	210.73
1002.40	210.77
1002.68	210.88
1002.97	211.09
1003.26	211.05
1003.55	211.04
1003.84	211.05
1004.13	211.25
1004.42	211.18
1004.71	211.18
1004.99	211.16
1005.28	211.24
1005.57	211.23
1005.86	211.31
1006.15	211.31
1006.44	211.22
1006.72	211.25
1007.01	211.19
1007.30	211.28
1007.59	211.18
1007.88	211.18
1008.17	211.23
1008.45	211.09
1008.74	210.95
1009.03	210.88
1009.32	210.87
1009.60	210.82
1009.89	210.80
1010.18	210.65
1010.47	210.69
1010.76	210.71
1011.04	210.68
1011.33	210.68
1011.62	210.70
1011.91	210.64
1012.19	210.65
1012.48	210.71
1012.77	210.65
1013.05	210.83
1013.34	210.74
1013.63	210.70
1013.92	210.73
1014.20	210.74
1014.49	210.72
1014.78	210.72
1015.06	210.61
1015.35	210.53
1015.64	210.64
1015.92	210.66
1016.21	210.63
1016.50	210.64
1016.78	210.65
1017.07	210.61
1017.36	210.54
1017.64	210.47
1017.93	210.45
1018.22	210.39
1018.50	210.31
1018.79	210.35
1019.08	210.19
1019.36	210.22
1019.65	210.24
1019.93	210.30
1020.22	210.24
1020.51	210.53
1020.79	210.50
1021.08	210.25
1021.36	208.65
1021.65	210.90
1021.94	209.90
1022.22	210.50
1022.51	210.05
1022.79	211.55
1023.08	209.85
1023.36	215.75
1023.65	209.20
>>>>>End Processed Spectral Data<<<<<
