SpectraSuite Data File
++++++++++++++++++++++++++++++++++++
Date: Mon Feb 25 17:13:23 EST 2013
User: group
Dark Spectrum Present: No
Reference Spectrum Present: No
Number of Sampled Component Spectra: 1
Spectrometers: USB2E7196
Integration Time (usec): 104000 (USB2E7196)
Spectra Averaged: 20 (USB2E7196)
Boxcar Smoothing: 10 (USB2E7196)
Correct for Electrical Dark: No (USB2E7196)
Strobe/Lamp Enabled: No (USB2E7196)
Correct for Detector Non-linearity: No (USB2E7196)
Correct for Stray Light: No (USB2E7196)
Number of Pixels in Processed Spectrum: 2048
>>>>>Begin Processed Spectral Data<<<<<
339.09	0.00
339.48	199.75
339.86	199.40
340.24	200.80
340.63	202.45
341.01	208.20
341.39	205.90
341.78	207.85
342.16	209.25
342.54	207.95
342.93	198.09
343.31	208.07
343.69	208.55
344.07	209.06
344.46	209.57
344.84	209.94
345.22	210.07
345.60	210.31
345.99	210.49
346.37	210.58
346.75	210.72
347.13	210.79
347.52	210.83
347.90	211.03
348.28	211.06
348.66	211.16
349.05	211.07
349.43	211.18
349.81	211.23
350.19	211.32
350.57	211.31
350.96	211.25
351.34	211.31
351.72	211.41
352.10	211.53
352.48	211.56
352.87	211.68
353.25	211.74
353.63	211.86
354.01	211.88
354.39	211.98
354.77	212.07
355.15	212.27
355.54	212.30
355.92	212.22
356.30	212.35
356.68	212.67
357.06	212.82
357.44	212.84
357.82	212.96
358.20	213.02
358.58	213.14
358.97	213.28
359.35	213.39
359.73	213.48
360.11	213.49
360.49	213.50
360.87	213.51
361.25	213.61
361.63	213.71
362.01	213.77
362.39	213.76
362.77	213.81
363.15	213.75
363.53	213.79
363.91	213.83
364.29	213.83
364.67	213.56
365.05	213.56
365.43	213.55
365.81	213.49
366.19	213.63
366.57	213.74
366.95	213.82
367.33	213.81
367.71	213.85
368.09	213.89
368.47	213.93
368.85	213.99
369.23	214.02
369.61	213.90
369.99	213.98
370.37	213.98
370.75	214.11
371.13	214.05
371.51	214.00
371.89	213.97
372.27	213.94
372.65	213.89
373.03	213.87
373.41	213.82
373.78	213.76
374.16	213.55
374.54	213.46
374.92	213.37
375.30	213.34
375.68	213.21
376.06	213.18
376.44	213.05
376.82	212.99
377.19	212.89
377.57	212.86
377.95	212.69
378.33	212.62
378.71	212.36
379.09	212.37
379.47	212.35
379.84	212.30
380.22	212.23
380.60	212.10
380.98	212.00
381.36	211.99
381.73	211.95
382.11	211.94
382.49	211.93
382.87	211.81
383.25	211.68
383.62	212.04
384.00	211.91
384.38	211.93
384.76	211.99
385.13	212.07
385.51	211.97
385.89	211.90
386.27	211.87
386.64	211.93
387.02	211.78
387.40	211.72
387.78	211.68
388.15	211.64
388.53	211.66
388.91	211.71
389.29	211.66
389.66	211.76
390.04	211.74
390.42	211.73
390.79	211.69
391.17	211.68
391.55	211.31
391.92	211.29
392.30	211.31
392.68	211.16
393.05	211.17
393.43	211.18
393.81	211.22
394.18	211.16
394.56	211.11
394.94	211.25
395.31	211.20
395.69	211.27
396.06	211.26
396.44	211.23
396.82	211.14
397.19	211.28
397.57	211.15
397.95	211.20
398.32	211.13
398.70	211.21
399.07	211.31
399.45	211.27
399.82	211.33
400.20	211.20
400.58	211.12
400.95	210.96
401.33	211.10
401.70	211.32
402.08	211.45
402.45	211.52
402.83	211.55
403.20	211.62
403.58	211.67
403.95	211.86
404.33	211.95
404.71	212.06
405.08	212.29
405.46	212.44
405.83	212.51
406.21	212.55
406.58	212.56
406.96	212.65
407.33	212.85
407.70	212.98
408.08	213.49
408.45	213.78
408.83	214.02
409.20	214.18
409.58	214.23
409.95	214.42
410.33	214.68
410.70	214.86
411.08	215.20
411.45	215.45
411.82	215.58
412.20	215.98
412.57	216.57
412.95	216.57
413.32	217.02
413.69	217.41
414.07	217.91
414.44	218.45
414.82	218.85
415.19	219.42
415.56	220.01
415.94	220.41
416.31	221.11
416.68	221.74
417.06	222.47
417.43	223.24
417.81	224.09
418.18	224.93
418.55	225.86
418.93	226.79
419.30	227.84
419.67	228.99
420.04	230.07
420.42	231.10
420.79	232.77
421.16	233.99
421.54	235.52
421.91	236.95
422.28	238.48
422.66	240.14
423.03	241.85
423.40	243.41
423.77	245.12
424.15	246.80
424.52	248.57
424.89	250.43
425.26	252.28
425.64	254.00
426.01	255.86
426.38	257.92
426.75	260.15
427.13	262.26
427.50	264.53
427.87	266.84
428.24	269.15
428.61	271.16
428.99	273.77
429.36	276.31
429.73	278.90
430.10	281.49
430.47	284.18
430.85	286.76
431.22	289.73
431.59	293.08
431.96	296.01
432.33	299.32
432.70	302.61
433.08	306.25
433.45	309.93
433.82	313.45
434.19	317.29
434.56	320.96
434.93	324.63
435.30	328.26
435.68	332.23
436.05	336.12
436.42	339.97
436.79	343.43
437.16	347.19
437.53	351.18
437.90	355.14
438.27	359.12
438.64	363.15
439.01	366.87
439.38	370.08
439.75	373.44
440.13	377.27
440.50	380.85
440.87	383.76
441.24	386.55
441.61	390.01
441.98	392.45
442.35	395.22
442.72	398.04
443.09	400.86
443.46	402.57
443.83	403.65
444.20	404.65
444.57	406.04
444.94	406.73
445.31	407.49
445.68	408.52
446.05	408.81
446.42	408.52
446.79	408.11
447.16	407.43
447.53	407.07
447.90	405.45
448.27	403.68
448.64	401.61
449.01	400.13
449.37	397.36
449.74	394.73
450.11	391.90
450.48	388.36
450.85	384.75
451.22	381.71
451.59	378.91
451.96	376.17
452.33	372.62
452.70	369.30
453.07	365.39
453.43	361.06
453.80	357.24
454.17	353.46
454.54	349.94
454.91	346.18
455.28	342.38
455.65	338.92
456.02	336.14
456.38	333.18
456.75	329.63
457.12	326.51
457.49	323.66
457.86	320.52
458.23	318.23
458.59	315.63
458.96	312.91
459.33	310.59
459.70	308.22
460.07	306.27
460.43	304.15
460.80	302.15
461.17	300.50
461.54	298.62
461.91	296.88
462.27	295.23
462.64	293.82
463.01	292.19
463.38	290.80
463.74	288.61
464.11	287.12
464.48	285.84
464.85	284.55
465.21	283.48
465.58	282.43
465.95	281.06
466.32	279.97
466.68	278.95
467.05	277.82
467.42	276.71
467.78	275.63
468.15	274.58
468.52	273.73
468.88	272.54
469.25	271.59
469.62	270.91
469.98	269.97
470.35	269.18
470.72	268.51
471.08	267.65
471.45	267.13
471.82	266.66
472.18	265.97
472.55	265.55
472.92	264.87
473.28	264.31
473.65	263.79
474.02	263.32
474.38	262.94
474.75	262.62
475.11	262.29
475.48	262.10
475.85	261.86
476.21	261.69
476.58	261.61
476.94	261.52
477.31	261.42
477.67	261.41
478.04	261.38
478.41	261.50
478.77	261.79
479.14	261.83
479.50	261.91
479.87	262.15
480.23	262.27
480.60	262.42
480.96	262.62
481.33	263.09
481.69	263.37
482.06	263.71
482.42	263.99
482.79	264.39
483.15	264.78
483.52	265.38
483.88	265.85
484.25	266.30
484.61	266.91
484.98	267.48
485.34	268.29
485.71	269.17
486.07	269.93
486.44	270.55
486.80	271.37
487.17	272.31
487.53	273.45
487.90	274.67
488.26	275.99
488.62	277.36
488.99	278.53
489.35	279.91
489.72	281.40
490.08	283.06
490.44	284.69
490.81	286.40
491.17	288.08
491.54	290.05
491.90	292.16
492.26	294.15
492.63	296.40
492.99	298.62
493.36	300.99
493.72	303.48
494.08	306.18
494.45	309.02
494.81	311.99
495.17	314.93
495.54	318.15
495.90	321.44
496.26	324.85
496.63	328.43
496.99	332.10
497.35	335.93
497.72	339.96
498.08	344.10
498.44	348.32
498.80	352.90
499.17	357.58
499.53	362.35
499.89	367.48
500.26	372.57
500.62	377.80
500.98	383.42
501.34	389.10
501.71	394.96
502.07	400.97
502.43	407.10
502.79	413.39
503.16	419.88
503.52	426.42
503.88	433.30
504.24	440.60
504.60	447.92
504.97	455.44
505.33	462.99
505.69	471.15
506.05	479.44
506.41	487.67
506.78	495.88
507.14	504.45
507.50	513.29
507.86	522.35
508.22	531.60
508.59	540.88
508.95	550.63
509.31	560.42
509.67	570.55
510.03	580.86
510.39	591.31
510.75	601.80
511.12	612.74
511.48	623.54
511.84	634.62
512.20	645.83
512.56	657.28
512.92	669.07
513.28	680.67
513.64	692.56
514.00	704.57
514.37	716.94
514.73	729.41
515.09	741.85
515.45	754.32
515.81	766.81
516.17	779.61
516.53	792.33
516.89	805.15
517.25	817.98
517.61	830.99
517.97	844.06
518.33	857.08
518.69	870.15
519.05	883.69
519.41	897.08
519.77	910.90
520.13	924.40
520.49	937.47
520.85	951.05
521.21	964.73
521.57	978.55
521.93	991.77
522.29	1005.84
522.65	1019.67
523.01	1033.39
523.37	1047.03
523.73	1060.56
524.09	1074.14
524.45	1087.87
524.81	1101.62
525.17	1115.61
525.53	1129.56
525.89	1143.43
526.25	1157.23
526.61	1170.47
526.97	1183.62
527.33	1196.70
527.68	1210.07
528.04	1223.18
528.40	1236.05
528.76	1248.82
529.12	1261.74
529.48	1275.28
529.84	1287.82
530.20	1300.45
530.56	1313.22
530.91	1326.46
531.27	1339.24
531.63	1351.94
531.99	1364.47
532.35	1376.58
532.71	1388.34
533.07	1400.33
533.42	1412.29
533.78	1423.88
534.14	1435.17
534.50	1446.09
534.86	1457.36
535.21	1467.99
535.57	1479.56
535.93	1490.18
536.29	1500.87
536.65	1511.29
537.00	1520.95
537.36	1530.45
537.72	1539.96
538.08	1549.29
538.44	1558.35
538.79	1567.50
539.15	1576.31
539.51	1585.17
539.87	1594.52
540.22	1603.10
540.58	1611.75
540.94	1620.12
541.29	1627.85
541.65	1635.30
542.01	1643.32
542.37	1650.61
542.72	1658.18
543.08	1664.80
543.44	1672.54
543.79	1678.75
544.15	1684.82
544.51	1691.57
544.87	1698.11
545.22	1703.81
545.58	1709.32
545.94	1714.11
546.29	1718.80
546.65	1723.23
547.01	1727.48
547.36	1731.22
547.72	1735.25
548.07	1738.57
548.43	1741.47
548.79	1744.65
549.14	1748.12
549.50	1750.87
549.86	1753.29
550.21	1755.53
550.57	1758.08
550.92	1759.44
551.28	1761.40
551.64	1763.58
551.99	1765.35
552.35	1766.65
552.70	1768.12
553.06	1769.55
553.41	1771.04
553.77	1772.48
554.13	1773.85
554.48	1775.10
554.84	1776.25
555.19	1776.49
555.55	1776.69
555.90	1776.74
556.26	1776.74
556.61	1776.58
556.97	1776.23
557.32	1775.86
557.68	1775.08
558.03	1773.99
558.39	1773.06
558.74	1773.05
559.10	1772.21
559.45	1770.99
559.81	1770.31
560.16	1769.00
560.52	1768.10
560.87	1766.82
561.23	1764.88
561.58	1763.50
561.94	1761.38
562.29	1758.83
562.64	1757.38
563.00	1755.73
563.35	1754.71
563.71	1753.73
564.06	1752.30
564.42	1751.03
564.77	1749.95
565.12	1748.79
565.48	1747.49
565.83	1746.20
566.19	1744.01
566.54	1741.53
566.89	1739.14
567.25	1736.64
567.60	1734.90
567.96	1732.16
568.31	1729.96
568.66	1727.53
569.02	1724.36
569.37	1721.29
569.72	1718.85
570.08	1715.81
570.43	1712.34
570.78	1708.62
571.14	1704.68
571.49	1700.73
571.84	1697.08
572.20	1692.91
572.55	1689.05
572.90	1684.57
573.26	1679.97
573.61	1675.51
573.96	1671.32
574.31	1666.58
574.67	1661.69
575.02	1656.32
575.37	1651.30
575.72	1645.89
576.08	1641.05
576.43	1636.03
576.78	1631.21
577.13	1626.69
577.49	1621.71
577.84	1616.96
578.19	1612.42
578.54	1608.15
578.90	1604.05
579.25	1599.23
579.60	1593.77
579.95	1588.32
580.30	1583.57
580.66	1578.95
581.01	1573.89
581.36	1568.67
581.71	1563.88
582.06	1558.98
582.42	1554.35
582.77	1549.44
583.12	1544.40
583.47	1539.98
583.82	1535.52
584.17	1530.90
584.53	1525.81
584.88	1521.08
585.23	1516.22
585.58	1511.07
585.93	1505.69
586.28	1500.77
586.63	1495.85
586.98	1491.31
587.34	1487.10
587.69	1482.24
588.04	1477.26
588.39	1472.53
588.74	1467.72
589.09	1463.23
589.44	1458.27
589.79	1453.56
590.14	1449.24
590.49	1444.78
590.84	1439.71
591.19	1435.37
591.54	1430.29
591.89	1424.57
592.25	1419.45
592.60	1414.30
592.95	1408.83
593.30	1403.28
593.65	1397.77
594.00	1392.24
594.35	1388.36
594.70	1382.82
595.05	1378.31
595.40	1373.35
595.75	1367.92
596.10	1363.04
596.45	1358.17
596.80	1353.73
597.15	1349.21
597.50	1344.16
597.85	1339.11
598.19	1334.09
598.54	1329.00
598.89	1324.84
599.24	1321.08
599.59	1316.55
599.94	1312.71
600.29	1308.68
600.64	1304.50
600.99	1299.63
601.34	1295.67
601.69	1289.94
602.04	1285.33
602.39	1280.61
602.74	1276.30
603.08	1272.71
603.43	1268.81
603.78	1264.40
604.13	1259.93
604.48	1255.39
604.83	1251.66
605.18	1248.03
605.53	1243.67
605.87	1239.05
606.22	1234.72
606.57	1230.09
606.92	1225.68
607.27	1220.66
607.62	1216.00
607.96	1211.77
608.31	1207.97
608.66	1203.05
609.01	1198.59
609.36	1194.15
609.70	1188.96
610.05	1183.87
610.40	1178.68
610.75	1173.62
611.10	1168.92
611.44	1163.35
611.79	1157.67
612.14	1151.57
612.49	1145.56
612.83	1140.57
613.18	1135.04
613.53	1129.19
613.88	1123.29
614.22	1118.05
614.57	1112.69
614.92	1107.33
615.27	1101.70
615.61	1096.16
615.96	1091.05
616.31	1086.01
616.65	1081.16
617.00	1076.33
617.35	1071.18
617.70	1065.82
618.04	1060.05
618.39	1054.17
618.74	1049.33
619.08	1044.12
619.43	1039.22
619.78	1034.29
620.12	1028.87
620.47	1023.85
620.82	1018.38
621.16	1013.23
621.51	1007.75
621.85	1002.85
622.20	997.51
622.55	992.10
622.89	986.67
623.24	981.27
623.59	975.73
623.93	970.08
624.28	964.94
624.62	960.17
624.97	955.28
625.32	950.41
625.66	945.83
626.01	940.90
626.35	936.38
626.70	931.45
627.04	927.07
627.39	922.49
627.73	918.00
628.08	913.69
628.43	908.72
628.77	903.92
629.12	898.79
629.46	894.56
629.81	890.30
630.15	885.67
630.50	881.04
630.84	876.27
631.19	871.73
631.53	867.13
631.88	861.95
632.22	857.05
632.57	852.67
632.91	847.96
633.26	843.35
633.60	838.72
633.95	834.33
634.29	829.41
634.64	824.89
634.98	820.06
635.32	815.65
635.67	811.94
636.01	807.73
636.36	803.23
636.70	798.78
637.05	794.45
637.39	790.29
637.73	786.38
638.08	782.75
638.42	778.90
638.77	774.73
639.11	770.65
639.45	766.75
639.80	762.28
640.14	757.81
640.49	753.65
640.83	749.54
641.17	745.27
641.52	741.04
641.86	736.79
642.20	732.80
642.55	728.35
642.89	723.84
643.23	719.50
643.58	715.76
643.92	711.40
644.26	707.27
644.61	703.26
644.95	698.98
645.29	694.74
645.64	690.45
645.98	686.31
646.32	682.57
646.66	678.45
647.01	674.60
647.35	670.96
647.69	666.74
648.04	662.75
648.38	658.83
648.72	654.91
649.06	650.98
649.41	647.09
649.75	643.43
650.09	639.75
650.43	636.05
650.78	632.01
651.12	628.04
651.46	624.21
651.80	620.49
652.14	616.79
652.49	613.00
652.83	609.20
653.17	605.28
653.51	601.19
653.85	597.50
654.20	593.79
654.54	589.86
654.88	586.32
655.22	582.71
655.56	578.93
655.90	575.37
656.25	571.50
656.59	567.72
656.93	564.06
657.27	560.60
657.61	556.98
657.95	553.57
658.29	550.26
658.64	546.90
658.98	543.36
659.32	539.82
659.66	536.46
660.00	532.97
660.34	529.60
660.68	526.32
661.02	522.91
661.36	519.75
661.70	516.74
662.05	513.71
662.39	510.78
662.73	507.87
663.07	505.06
663.41	502.33
663.75	499.40
664.09	496.41
664.43	493.28
664.77	490.34
665.11	487.34
665.45	484.53
665.79	481.66
666.13	478.84
666.47	476.04
666.81	473.24
667.15	470.62
667.49	468.20
667.83	465.82
668.17	463.31
668.51	460.77
668.85	458.24
669.19	455.96
669.53	453.28
669.87	450.67
670.21	448.10
670.55	445.54
670.89	443.56
671.23	441.43
671.57	439.10
671.91	436.82
672.25	434.64
672.58	432.55
672.92	430.21
673.26	428.09
673.60	426.10
673.94	423.88
674.28	421.71
674.62	419.65
674.96	417.42
675.30	415.33
675.64	413.26
675.97	411.18
676.31	409.08
676.65	407.14
676.99	405.53
677.33	403.40
677.67	401.52
678.01	399.29
678.34	397.23
678.68	395.39
679.02	393.44
679.36	391.51
679.70	389.48
680.04	387.76
680.37	385.94
680.71	384.02
681.05	382.31
681.39	380.59
681.73	378.67
682.06	377.03
682.40	375.36
682.74	373.67
683.08	372.04
683.42	370.18
683.75	368.52
684.09	366.61
684.43	365.05
684.77	363.33
685.10	361.65
685.44	359.97
685.78	358.34
686.12	356.87
686.45	355.36
686.79	353.83
687.13	352.33
687.46	350.79
687.80	349.35
688.14	347.89
688.48	346.37
688.81	344.86
689.15	343.39
689.49	341.87
689.82	340.35
690.16	338.73
690.50	337.23
690.83	335.64
691.17	334.07
691.51	332.51
691.84	331.20
692.18	329.79
692.52	328.48
692.85	327.23
693.19	325.97
693.52	324.61
693.86	323.30
694.20	321.94
694.53	320.60
694.87	319.19
695.21	317.83
695.54	316.62
695.88	315.24
696.21	313.95
696.55	312.73
696.88	311.44
697.22	310.30
697.56	309.29
697.89	308.19
698.23	307.19
698.56	306.10
698.90	304.97
699.23	303.82
699.57	302.70
699.90	301.48
700.24	300.32
700.58	299.22
700.91	298.31
701.25	297.50
701.58	296.61
701.92	295.72
702.25	294.74
702.59	293.65
702.92	292.84
703.26	291.86
703.59	290.92
703.93	290.39
704.26	289.45
704.60	288.38
704.93	287.47
705.26	286.54
705.60	285.89
705.93	284.95
706.27	284.25
706.60	283.55
706.94	282.90
707.27	282.02
707.61	281.19
707.94	280.31
708.27	279.24
708.61	278.28
708.94	277.44
709.28	276.67
709.61	275.91
709.94	275.18
710.28	274.46
710.61	273.72
710.95	272.68
711.28	272.15
711.61	271.51
711.95	270.89
712.28	270.14
712.61	269.31
712.95	268.89
713.28	268.46
713.61	267.74
713.95	267.00
714.28	266.44
714.61	265.83
714.95	265.19
715.28	264.53
715.61	263.98
715.95	263.34
716.28	262.72
716.61	262.18
716.95	261.58
717.28	261.00
717.61	260.44
717.94	259.93
718.28	259.20
718.61	258.73
718.94	258.16
719.27	257.64
719.61	257.20
719.94	256.55
720.27	255.70
720.60	255.11
720.94	254.69
721.27	254.17
721.60	253.83
721.93	253.34
722.27	253.10
722.60	252.69
722.93	252.25
723.26	251.85
723.59	251.35
723.93	250.91
724.26	250.55
724.59	250.13
724.92	249.67
725.25	249.34
725.59	248.94
725.92	248.58
726.25	248.25
726.58	247.80
726.91	247.38
727.24	247.14
727.57	246.85
727.91	246.37
728.24	246.06
728.57	245.65
728.90	245.32
729.23	244.76
729.56	244.64
729.89	244.33
730.22	243.96
730.55	243.65
730.89	243.38
731.22	243.05
731.55	242.70
731.88	242.45
732.21	242.03
732.54	241.66
732.87	241.28
733.20	240.93
733.53	240.64
733.86	240.42
734.19	239.99
734.52	239.72
734.85	239.65
735.18	239.32
735.51	239.14
735.84	238.90
736.17	238.79
736.50	238.22
736.83	238.34
737.16	238.08
737.49	237.84
737.82	237.45
738.15	237.17
738.48	236.93
738.81	236.56
739.14	236.30
739.47	236.00
739.80	235.81
740.13	235.59
740.46	235.37
740.79	235.09
741.12	234.89
741.45	234.60
741.78	234.13
742.11	233.96
742.44	233.53
742.77	233.31
743.10	232.94
743.43	232.73
743.75	232.09
744.08	232.31
744.41	232.05
744.74	231.90
745.07	231.63
745.40	231.44
745.73	231.40
746.06	231.23
746.39	231.13
746.71	230.84
747.04	230.60
747.37	230.35
747.70	230.18
748.03	229.92
748.36	229.74
748.68	229.57
749.01	229.28
749.34	229.09
749.67	228.85
750.00	228.78
750.33	228.88
750.65	228.70
750.98	228.07
751.31	227.86
751.64	227.65
751.97	227.65
752.29	227.46
752.62	227.17
752.95	226.93
753.28	226.66
753.60	226.54
753.93	226.48
754.26	226.23
754.59	225.96
754.91	225.81
755.24	225.60
755.57	225.43
755.90	225.32
756.22	225.18
756.55	225.02
756.88	224.72
757.20	224.27
757.53	224.00
757.86	223.88
758.19	223.74
758.51	223.66
758.84	223.30
759.17	223.20
759.49	223.05
759.82	223.05
760.15	222.91
760.47	222.74
760.80	222.55
761.13	222.54
761.45	222.44
761.78	222.29
762.11	222.17
762.43	222.04
762.76	221.86
763.08	221.76
763.41	221.63
763.74	221.52
764.06	221.46
764.39	221.35
764.71	221.20
765.04	221.09
765.37	220.82
765.69	220.77
766.02	220.53
766.34	220.41
766.67	220.14
767.00	220.07
767.32	220.07
767.65	220.10
767.97	220.03
768.30	219.95
768.62	219.86
768.95	219.76
769.27	219.69
769.60	219.73
769.92	219.60
770.25	219.49
770.57	219.35
770.90	219.20
771.22	219.05
771.55	218.97
771.87	218.91
772.20	218.92
772.52	219.19
772.85	219.58
773.17	219.55
773.50	219.56
773.82	219.49
774.15	219.24
774.47	218.94
774.80	218.72
775.12	218.58
775.45	218.48
775.77	218.37
776.09	218.29
776.42	218.13
776.74	218.16
777.07	218.09
777.39	218.11
777.72	217.98
778.04	217.96
778.36	217.86
778.69	217.82
779.01	217.79
779.33	217.37
779.66	216.87
779.98	216.77
780.31	216.66
780.63	216.73
780.95	216.75
781.28	216.75
781.60	216.70
781.92	216.66
782.25	216.65
782.57	216.64
782.89	216.52
783.22	216.43
783.54	216.29
783.86	216.25
784.19	216.15
784.51	216.21
784.83	216.20
785.16	216.16
785.48	216.09
785.80	216.00
786.12	215.91
786.45	215.84
786.77	215.77
787.09	215.74
787.42	215.61
787.74	215.64
788.06	215.64
788.38	215.62
788.71	215.60
789.03	215.58
789.35	215.56
789.67	215.53
789.99	215.55
790.32	215.50
790.64	215.54
790.96	215.82
791.28	215.69
791.61	215.66
791.93	215.60
792.25	215.53
792.57	215.78
792.89	215.72
793.21	215.75
793.54	215.73
793.86	215.60
794.18	215.50
794.50	215.29
794.82	215.18
795.14	215.16
795.47	215.20
795.79	215.16
796.11	215.10
796.43	215.02
796.75	215.01
797.07	215.06
797.39	215.00
797.71	214.69
798.04	214.74
798.36	214.70
798.68	214.72
799.00	214.82
799.32	214.55
799.64	214.63
799.96	214.58
800.28	214.62
800.60	214.63
800.92	214.65
801.24	214.68
801.56	214.68
801.89	214.64
802.21	214.57
802.53	214.54
802.85	214.51
803.17	214.67
803.49	214.53
803.81	214.40
804.13	214.36
804.45	214.29
804.77	214.17
805.09	214.17
805.41	214.12
805.73	213.97
806.05	213.86
806.37	213.84
806.69	213.80
807.01	213.70
807.33	213.67
807.65	213.53
807.97	213.63
808.28	213.55
808.60	213.55
808.92	213.51
809.24	213.69
809.56	213.69
809.88	213.54
810.20	213.59
810.52	213.69
810.84	213.58
811.16	213.56
811.48	213.64
811.80	213.73
812.12	213.68
812.43	213.71
812.75	213.76
813.07	213.62
813.39	213.64
813.71	213.63
814.03	213.62
814.35	213.66
814.67	213.52
814.98	213.51
815.30	213.48
815.62	213.36
815.94	213.08
816.26	213.04
816.58	212.92
816.89	212.84
817.21	212.67
817.53	212.71
817.85	212.61
818.17	212.53
818.48	212.40
818.80	212.46
819.12	212.33
819.44	212.26
819.76	212.27
820.07	212.27
820.39	212.23
820.71	212.28
821.03	212.29
821.34	212.34
821.66	212.45
821.98	212.43
822.30	212.44
822.61	212.63
822.93	212.57
823.25	212.62
823.57	212.60
823.88	212.71
824.20	212.70
824.52	212.78
824.83	212.76
825.15	212.68
825.47	212.61
825.79	212.66
826.10	212.60
826.42	212.62
826.74	212.67
827.05	212.61
827.37	212.59
827.69	212.51
828.00	212.45
828.32	212.37
828.64	212.31
828.95	212.49
829.27	212.39
829.58	212.40
829.90	212.48
830.22	212.50
830.53	212.40
830.85	212.39
831.17	212.32
831.48	212.33
831.80	212.35
832.11	212.30
832.43	212.23
832.75	212.20
833.06	212.38
833.38	212.15
833.69	212.18
834.01	212.16
834.32	212.14
834.64	212.03
834.96	211.99
835.27	211.99
835.59	211.84
835.90	211.74
836.22	211.71
836.53	211.60
836.85	211.65
837.16	212.00
837.48	211.89
837.79	212.02
838.11	212.02
838.42	212.05
838.74	212.09
839.05	212.09
839.37	212.12
839.68	211.88
840.00	211.99
840.31	212.05
840.63	211.95
840.94	211.91
841.26	212.01
841.57	212.06
841.88	212.07
842.20	212.00
842.51	212.00
842.83	212.02
843.14	212.38
843.46	212.34
843.77	212.12
844.08	212.10
844.40	211.98
844.71	211.96
845.03	211.91
845.34	211.88
845.65	211.92
845.97	211.89
846.28	211.99
846.60	211.92
846.91	211.83
847.22	211.88
847.54	212.02
847.85	211.95
848.16	211.91
848.48	211.95
848.79	212.09
849.10	212.17
849.42	212.18
849.73	211.84
850.04	211.81
850.36	211.70
850.67	211.85
850.98	211.88
851.30	211.89
851.61	211.84
851.92	211.89
852.23	211.97
852.55	212.01
852.86	211.93
853.17	211.94
853.49	212.07
853.80	212.19
854.11	212.18
854.42	212.24
854.74	212.24
855.05	212.17
855.36	212.03
855.67	212.03
855.99	212.02
856.30	212.45
856.61	212.42
856.92	212.44
857.23	212.40
857.55	212.35
857.86	212.35
858.17	212.45
858.48	212.41
858.79	212.31
859.11	212.36
859.42	212.33
859.73	212.34
860.04	212.29
860.35	212.13
860.66	212.05
860.98	212.04
861.29	212.10
861.60	212.13
861.91	212.25
862.22	212.16
862.53	212.12
862.84	211.65
863.16	211.73
863.47	211.71
863.78	211.69
864.09	211.77
864.40	211.78
864.71	211.74
865.02	211.74
865.33	211.75
865.64	211.65
865.95	211.69
866.27	211.94
866.58	211.88
866.89	211.93
867.20	211.89
867.51	211.81
867.82	211.76
868.13	211.90
868.44	211.71
868.75	211.82
869.06	211.84
869.37	211.95
869.68	211.78
869.99	211.81
870.30	211.84
870.61	211.85
870.92	211.82
871.23	211.77
871.54	211.76
871.85	211.80
872.16	211.86
872.47	211.79
872.78	211.49
873.09	211.51
873.40	211.50
873.71	211.55
874.02	211.64
874.33	211.55
874.64	211.37
874.95	211.49
875.26	211.40
875.56	211.36
875.87	211.25
876.18	211.27
876.49	211.58
876.80	211.54
877.11	211.43
877.42	211.46
877.73	211.52
878.04	211.48
878.35	211.52
878.66	211.53
878.96	211.54
879.27	211.54
879.58	211.52
879.89	211.45
880.20	211.55
880.51	211.46
880.82	211.46
881.12	211.47
881.43	211.43
881.74	211.39
882.05	211.33
882.36	211.38
882.67	211.41
882.97	211.09
883.28	211.00
883.59	211.03
883.90	211.05
884.21	211.07
884.51	211.06
884.82	210.99
885.13	210.98
885.44	210.94
885.74	210.93
886.05	210.93
886.36	210.99
886.67	210.84
886.98	211.02
887.28	211.11
887.59	211.10
887.90	211.15
888.20	211.11
888.51	211.24
888.82	211.20
889.13	211.24
889.43	211.51
889.74	211.54
890.05	211.52
890.35	211.42
890.66	211.43
890.97	211.37
891.28	211.32
891.58	211.32
891.89	211.39
892.20	211.34
892.50	211.32
892.81	211.32
893.12	211.35
893.42	211.17
893.73	211.18
894.04	211.23
894.34	211.21
894.65	211.23
894.95	211.16
895.26	211.24
895.57	211.43
895.87	211.09
896.18	211.15
896.48	211.23
896.79	211.31
897.10	211.33
897.40	211.39
897.71	211.43
898.01	211.40
898.32	211.42
898.63	211.46
898.93	211.49
899.24	211.50
899.54	211.52
899.85	211.58
900.15	211.58
900.46	211.53
900.76	211.54
901.07	211.57
901.38	211.58
901.68	211.60
901.99	211.42
902.29	211.48
902.60	211.49
902.90	211.42
903.21	211.43
903.51	211.34
903.82	211.40
904.12	211.47
904.43	211.51
904.73	211.55
905.03	211.60
905.34	211.90
905.64	211.85
905.95	211.81
906.25	211.73
906.56	211.72
906.86	211.77
907.17	211.83
907.47	211.80
907.77	211.77
908.08	211.62
908.38	211.65
908.69	211.65
908.99	211.74
909.30	211.81
909.60	211.79
909.90	211.89
910.21	211.89
910.51	211.81
910.81	211.77
911.12	211.74
911.42	211.72
911.73	211.38
912.03	211.40
912.33	211.51
912.64	211.53
912.94	211.46
913.24	211.41
913.55	211.32
913.85	211.30
914.15	211.35
914.46	211.40
914.76	211.37
915.06	211.36
915.37	211.27
915.67	211.20
915.97	211.20
916.27	211.08
916.58	211.04
916.88	211.03
917.18	211.08
917.49	211.31
917.79	211.32
918.09	211.42
918.39	211.53
918.70	211.49
919.00	211.52
919.30	211.62
919.60	211.59
919.91	211.58
920.21	211.62
920.51	211.55
920.81	211.54
921.12	211.53
921.42	211.50
921.72	211.52
922.02	211.46
922.32	211.45
922.63	211.50
922.93	211.64
923.23	211.70
923.53	211.70
923.83	211.53
924.13	211.57
924.44	211.55
924.74	211.59
925.04	211.64
925.34	211.62
925.64	211.52
925.94	211.55
926.24	211.72
926.55	211.69
926.85	211.80
927.15	211.83
927.45	211.87
927.75	211.79
928.05	211.74
928.35	211.79
928.65	211.90
928.95	211.92
929.26	211.78
929.56	211.84
929.86	211.84
930.16	211.70
930.46	211.61
930.76	211.60
931.06	211.42
931.36	211.34
931.66	211.42
931.96	211.49
932.26	211.48
932.56	211.38
932.86	211.39
933.16	211.42
933.46	211.40
933.76	211.33
934.06	211.50
934.36	211.71
934.66	211.71
934.96	211.64
935.26	211.69
935.56	211.75
935.86	211.63
936.16	211.51
936.46	211.59
936.76	211.60
937.06	211.49
937.36	211.57
937.66	211.60
937.96	211.55
938.26	211.47
938.56	211.48
938.86	211.52
939.16	211.63
939.46	211.54
939.76	211.60
940.06	211.63
940.35	211.50
940.65	211.31
940.95	211.32
941.25	211.25
941.55	211.13
941.85	211.10
942.15	211.21
942.45	211.38
942.75	211.36
943.04	211.42
943.34	211.52
943.64	211.43
943.94	211.33
944.24	211.30
944.54	211.34
944.84	211.26
945.13	211.15
945.43	211.02
945.73	210.99
946.03	210.90
946.33	210.82
946.62	210.80
946.92	210.81
947.22	210.81
947.52	210.85
947.82	210.93
948.11	210.92
948.41	210.82
948.71	210.73
949.01	210.74
949.31	210.66
949.60	210.69
949.90	210.70
950.20	210.74
950.50	210.77
950.79	210.69
951.09	210.80
951.39	210.76
951.69	210.75
951.98	210.89
952.28	210.96
952.58	211.00
952.87	211.01
953.17	211.04
953.47	211.06
953.76	211.07
954.06	211.00
954.36	210.99
954.66	210.99
954.95	211.08
955.25	211.06
955.55	211.10
955.84	211.03
956.14	211.11
956.44	211.11
956.73	211.06
957.03	211.16
957.32	211.16
957.62	211.21
957.92	211.25
958.21	211.18
958.51	211.55
958.81	211.57
959.10	211.63
959.40	211.71
959.69	211.69
959.99	211.63
960.29	211.62
960.58	211.54
960.88	211.66
961.17	211.57
961.47	211.66
961.76	211.62
962.06	211.70
962.36	211.63
962.65	211.69
962.95	211.66
963.24	211.55
963.54	211.52
963.83	211.57
964.13	211.58
964.42	211.56
964.72	211.23
965.01	211.29
965.31	211.26
965.60	211.18
965.90	211.41
966.19	211.41
966.49	211.48
966.78	211.45
967.08	211.43
967.37	211.50
967.67	211.37
967.96	211.46
968.26	211.38
968.55	211.43
968.85	211.38
969.14	211.42
969.43	211.48
969.73	211.43
970.02	211.39
970.32	211.35
970.61	211.29
970.91	211.25
971.20	211.19
971.49	211.14
971.79	211.18
972.08	210.93
972.38	210.96
972.67	210.92
972.96	211.01
973.26	210.88
973.55	210.90
973.85	210.97
974.14	210.93
974.43	210.99
974.73	210.92
975.02	210.85
975.31	210.85
975.61	210.87
975.90	210.87
976.19	210.87
976.49	210.93
976.78	210.98
977.07	210.98
977.37	210.93
977.66	210.95
977.95	210.88
978.24	210.83
978.54	210.90
978.83	210.88
979.12	210.86
979.42	210.89
979.71	210.89
980.00	210.81
980.29	210.81
980.59	210.73
980.88	210.84
981.17	210.89
981.46	210.89
981.76	210.88
982.05	210.98
982.34	210.91
982.63	210.90
982.93	210.91
983.22	210.99
983.51	211.04
983.80	211.10
984.09	211.15
984.39	211.14
984.68	211.07
984.97	211.09
985.26	211.02
985.55	211.10
985.85	210.92
986.14	211.01
986.43	211.07
986.72	210.99
987.01	210.92
987.30	210.87
987.59	210.86
987.89	210.86
988.18	210.72
988.47	210.74
988.76	210.78
989.05	210.72
989.34	210.65
989.63	210.69
989.92	210.60
990.22	210.52
990.51	210.53
990.80	210.54
991.09	210.60
991.38	210.69
991.67	210.56
991.96	210.59
992.25	210.56
992.54	210.46
992.83	210.53
993.12	210.48
993.41	210.51
993.70	210.67
993.99	210.70
994.28	210.80
994.58	210.87
994.87	210.72
995.16	210.67
995.45	210.60
995.74	210.50
996.03	210.60
996.32	210.64
996.61	210.69
996.90	210.65
997.19	210.59
997.48	210.56
997.77	210.57
998.06	210.66
998.34	210.60
998.63	210.58
998.92	210.62
999.21	210.65
999.50	210.71
999.79	210.58
1000.08	210.58
1000.37	210.60
1000.66	210.57
1000.95	210.75
1001.24	210.79
1001.53	210.85
1001.82	210.82
1002.11	210.72
1002.40	210.80
1002.68	210.95
1002.97	211.21
1003.26	211.23
1003.55	211.15
1003.84	211.18
1004.13	211.25
1004.42	211.28
1004.71	211.35
1004.99	211.32
1005.28	211.48
1005.57	211.44
1005.86	211.40
1006.15	211.37
1006.44	211.35
1006.72	211.34
1007.01	211.25
1007.30	211.26
1007.59	211.22
1007.88	211.24
1008.17	211.32
1008.45	211.21
1008.74	211.05
1009.03	210.91
1009.32	210.90
1009.60	210.95
1009.89	210.89
1010.18	210.76
1010.47	210.70
1010.76	210.69
1011.04	210.68
1011.33	210.65
1011.62	210.63
1011.91	210.59
1012.19	210.64
1012.48	210.62
1012.77	210.69
1013.05	210.82
1013.34	210.83
1013.63	210.89
1013.92	210.91
1014.20	210.90
1014.49	210.95
1014.78	210.99
1015.06	210.82
1015.35	210.80
1015.64	210.87
1015.92	210.99
1016.21	210.98
1016.50	211.09
1016.78	211.09
1017.07	211.12
1017.36	211.03
1017.64	211.09
1017.93	211.16
1018.22	211.09
1018.50	211.08
1018.79	211.05
1019.08	210.88
1019.36	210.95
1019.65	210.91
1019.93	210.95
1020.22	211.02
1020.51	211.16
1020.79	211.08
1021.08	210.20
1021.36	210.40
1021.65	211.05
1021.94	210.70
1022.22	211.80
1022.51	210.75
1022.79	211.25
1023.08	212.10
1023.36	214.90
1023.65	209.40
>>>>>End Processed Spectral Data<<<<<
