SpectraSuite Data File
++++++++++++++++++++++++++++++++++++
Date: Mon Feb 25 17:16:10 EST 2013
User: group
Dark Spectrum Present: No
Reference Spectrum Present: No
Number of Sampled Component Spectra: 1
Spectrometers: USB2E7196
Integration Time (usec): 104000 (USB2E7196)
Spectra Averaged: 20 (USB2E7196)
Boxcar Smoothing: 10 (USB2E7196)
Correct for Electrical Dark: No (USB2E7196)
Strobe/Lamp Enabled: No (USB2E7196)
Correct for Detector Non-linearity: No (USB2E7196)
Correct for Stray Light: No (USB2E7196)
Number of Pixels in Processed Spectrum: 2048
>>>>>Begin Processed Spectral Data<<<<<
339.09	0.00
339.48	199.00
339.86	199.95
340.24	202.85
340.63	204.10
341.01	211.15
341.39	205.60
341.78	207.45
342.16	210.40
342.54	209.75
342.93	199.06
343.31	209.09
343.69	209.59
344.07	210.13
344.46	210.63
344.84	210.97
345.22	210.97
345.60	211.27
345.99	211.52
346.37	211.64
346.75	211.67
347.13	211.74
347.52	211.76
347.90	211.93
348.28	211.85
348.66	211.93
349.05	211.81
349.43	212.00
349.81	212.06
350.19	212.11
350.57	212.14
350.96	212.27
351.34	212.38
351.72	212.53
352.10	212.63
352.48	212.64
352.87	212.64
353.25	212.71
353.63	212.74
354.01	212.75
354.39	212.74
354.77	212.92
355.15	213.03
355.54	213.01
355.92	212.89
356.30	212.90
356.68	213.22
357.06	213.34
357.44	213.31
357.82	213.30
358.20	213.33
358.58	213.40
358.97	213.41
359.35	213.52
359.73	213.58
360.11	213.58
360.49	213.55
360.87	213.67
361.25	213.74
361.63	213.86
362.01	213.92
362.39	213.95
362.77	213.95
363.15	213.95
363.53	214.00
363.91	214.03
364.29	214.10
364.67	213.74
365.05	213.72
365.43	213.76
365.81	213.84
366.19	213.95
366.57	214.06
366.95	214.08
367.33	214.04
367.71	214.03
368.09	214.12
368.47	214.14
368.85	214.10
369.23	214.10
369.61	213.97
369.99	214.01
370.37	214.07
370.75	214.15
371.13	214.04
371.51	213.99
371.89	214.03
372.27	214.04
372.65	214.06
373.03	214.05
373.41	213.94
373.78	213.79
374.16	213.57
374.54	213.42
374.92	213.33
375.30	213.19
375.68	213.15
376.06	213.10
376.44	213.05
376.82	213.01
377.19	213.00
377.57	212.98
377.95	212.81
378.33	212.69
378.71	212.45
379.09	212.50
379.47	212.46
379.84	212.35
380.22	212.33
380.60	212.22
380.98	212.13
381.36	212.16
381.73	212.15
382.11	212.20
382.49	212.22
382.87	212.16
383.25	212.14
383.62	212.48
384.00	212.33
384.38	212.31
384.76	212.40
385.13	212.50
385.51	212.54
385.89	212.53
386.27	212.59
386.64	212.66
387.02	212.56
387.40	212.50
387.78	212.51
388.15	212.47
388.53	212.45
388.91	212.41
389.29	212.35
389.66	212.36
390.04	212.30
390.42	212.32
390.79	212.31
391.17	212.32
391.55	211.94
391.92	211.97
392.30	211.95
392.68	211.82
393.05	211.74
393.43	211.77
393.81	211.81
394.18	211.67
394.56	211.65
394.94	211.75
395.31	211.80
395.69	211.84
396.06	211.80
396.44	211.76
396.82	211.78
397.19	211.92
397.57	211.88
397.95	211.94
398.32	211.88
398.70	211.95
399.07	211.98
399.45	211.93
399.82	211.92
400.20	211.94
400.58	211.96
400.95	211.92
401.33	211.98
401.70	212.19
402.08	212.31
402.45	212.36
402.83	212.45
403.20	212.58
403.58	212.66
403.95	212.83
404.33	213.06
404.71	213.19
405.08	213.53
405.46	213.65
405.83	213.82
406.21	213.87
406.58	214.08
406.96	214.28
407.33	214.54
407.70	214.73
408.08	215.17
408.45	215.45
408.83	215.66
409.20	215.80
409.58	215.85
409.95	216.14
410.33	216.40
410.70	216.60
411.08	216.83
411.45	217.20
411.82	217.49
412.20	217.90
412.57	218.51
412.95	218.56
413.32	219.13
413.69	219.60
414.07	220.24
414.44	220.80
414.82	221.36
415.19	222.02
415.56	222.70
415.94	223.34
416.31	224.22
416.68	225.13
417.06	226.12
417.43	227.13
417.81	228.17
418.18	229.31
418.55	230.55
418.93	231.84
419.30	233.11
419.67	234.45
420.04	235.85
420.42	237.17
420.79	239.07
421.16	240.71
421.54	242.52
421.91	244.32
422.28	246.06
422.66	248.04
423.03	250.19
423.40	252.25
423.77	254.25
424.15	256.34
424.52	258.59
424.89	261.06
425.26	263.39
425.64	265.63
426.01	268.05
426.38	270.58
426.75	273.25
427.13	275.94
427.50	278.83
427.87	281.70
428.24	284.63
428.61	287.26
428.99	290.38
429.36	293.63
429.73	296.86
430.10	300.15
430.47	303.48
430.85	306.80
431.22	310.50
431.59	314.55
431.96	318.17
432.33	322.16
432.70	326.05
433.08	330.70
433.45	335.08
433.82	339.42
434.19	344.27
434.56	349.02
434.93	353.61
435.30	357.98
435.68	363.00
436.05	367.88
436.42	372.82
436.79	377.28
437.16	382.05
437.53	387.25
437.90	392.27
438.27	397.36
438.64	402.40
439.01	407.18
439.38	411.19
439.75	415.37
440.13	420.05
440.50	424.35
440.87	427.92
441.24	431.60
441.61	435.76
441.98	438.75
442.35	442.10
442.72	445.52
443.09	449.12
443.46	451.20
443.83	452.58
444.20	453.73
444.57	455.29
444.94	456.01
445.31	456.75
445.68	457.93
446.05	458.03
446.42	457.37
446.79	456.67
447.16	455.98
447.53	455.40
447.90	453.38
448.27	451.30
448.64	448.59
449.01	446.62
449.37	443.11
449.74	439.75
450.11	436.04
450.48	431.76
450.85	427.22
451.22	423.35
451.59	419.82
451.96	416.37
452.33	411.92
452.70	407.83
453.07	402.93
453.43	397.56
453.80	392.88
454.17	388.35
454.54	383.97
454.91	379.33
455.28	374.77
455.65	370.56
456.02	367.00
456.38	363.43
456.75	359.01
457.12	355.30
457.49	351.69
457.86	347.98
458.23	344.96
458.59	341.75
458.96	338.49
459.33	335.55
459.70	332.61
460.07	330.26
460.43	327.61
460.80	325.09
461.17	322.96
461.54	320.69
461.91	318.52
462.27	316.23
462.64	314.40
463.01	312.39
463.38	310.58
463.74	308.14
464.11	306.24
464.48	304.78
464.85	303.06
465.21	301.79
465.58	300.46
465.95	298.74
466.32	297.39
466.68	296.02
467.05	294.64
467.42	293.25
467.78	291.79
468.15	290.50
468.52	289.60
468.88	288.30
469.25	287.14
469.62	286.33
469.98	285.51
470.35	284.64
470.72	283.85
471.08	282.88
471.45	282.22
471.82	281.68
472.18	280.87
472.55	280.46
472.92	279.69
473.28	279.17
473.65	278.75
474.02	278.20
474.38	277.78
474.75	277.53
475.11	277.18
475.48	277.16
475.85	276.98
476.21	276.78
476.58	276.77
476.94	276.69
477.31	276.57
477.67	276.50
478.04	276.47
478.41	276.53
478.77	276.98
479.14	277.06
479.50	277.23
479.87	277.57
480.23	277.86
480.60	278.25
480.96	278.61
481.33	279.23
481.69	279.77
482.06	280.36
482.42	280.87
482.79	281.61
483.15	282.22
483.52	283.08
483.88	283.80
484.25	284.65
484.61	285.60
484.98	286.51
485.34	287.78
485.71	288.98
486.07	290.26
486.44	291.28
486.80	292.69
487.17	294.23
487.53	295.89
487.90	297.64
488.26	299.56
488.62	301.57
488.99	303.46
489.35	305.55
489.72	307.79
490.08	310.19
490.44	312.64
490.81	315.28
491.17	317.91
491.54	320.89
491.90	323.87
492.26	327.05
492.63	330.47
492.99	333.86
493.36	337.63
493.72	341.61
494.08	345.68
494.45	349.99
494.81	354.42
495.17	358.95
495.54	363.72
495.90	368.58
496.26	373.74
496.63	379.14
496.99	384.84
497.35	390.70
497.72	396.95
498.08	403.24
498.44	409.82
498.80	417.08
499.17	424.20
499.53	431.56
499.89	439.50
500.26	447.45
500.62	455.57
500.98	464.20
501.34	472.98
501.71	482.14
502.07	491.36
502.43	500.97
502.79	510.92
503.16	521.28
503.52	532.01
503.88	542.89
504.24	554.03
504.60	565.42
504.97	577.38
505.33	589.37
505.69	602.31
506.05	615.38
506.41	628.29
506.78	641.72
507.14	655.30
507.50	669.25
507.86	683.49
508.22	698.21
508.59	712.92
508.95	728.39
509.31	743.86
509.67	759.82
510.03	776.08
510.39	792.68
510.75	809.55
511.12	826.63
511.48	843.91
511.84	861.76
512.20	879.53
512.56	897.75
512.92	916.30
513.28	935.01
513.64	953.77
514.00	972.43
514.37	991.52
514.73	1011.18
515.09	1031.00
515.45	1050.91
515.81	1070.77
516.17	1090.97
516.53	1110.93
516.89	1131.31
517.25	1151.82
517.61	1172.44
517.97	1192.97
518.33	1213.32
518.69	1233.94
519.05	1254.76
519.41	1275.67
519.77	1297.02
520.13	1317.60
520.49	1338.19
520.85	1359.05
521.21	1380.07
521.57	1401.63
521.93	1422.26
522.29	1443.78
522.65	1464.87
523.01	1486.07
523.37	1506.63
523.73	1527.28
524.09	1548.03
524.45	1568.95
524.81	1589.52
525.17	1610.44
525.53	1630.99
525.89	1651.75
526.25	1672.47
526.61	1692.23
526.97	1712.05
527.33	1731.92
527.68	1752.03
528.04	1771.45
528.40	1790.12
528.76	1809.36
529.12	1828.35
529.48	1848.13
529.84	1866.70
530.20	1885.08
530.56	1903.56
530.91	1923.25
531.27	1942.04
531.63	1960.25
531.99	1978.13
532.35	1995.67
532.71	2012.54
533.07	2030.64
533.42	2047.42
533.78	2064.33
534.14	2081.42
534.50	2096.96
534.86	2113.11
535.21	2128.11
535.57	2144.36
535.93	2159.59
536.29	2174.42
536.65	2189.55
537.00	2203.48
537.36	2216.91
537.72	2230.54
538.08	2243.81
538.44	2256.55
538.79	2269.59
539.15	2282.23
539.51	2294.99
539.87	2308.18
540.22	2320.36
540.58	2332.57
540.94	2344.49
541.29	2354.87
541.65	2365.03
542.01	2375.85
542.37	2385.89
542.72	2396.57
543.08	2405.40
543.44	2415.48
543.79	2424.38
544.15	2432.13
544.51	2441.57
544.87	2450.69
545.22	2458.46
545.58	2465.72
545.94	2472.07
546.29	2477.85
546.65	2483.56
547.01	2488.81
547.36	2493.79
547.72	2499.10
548.07	2502.64
548.43	2506.60
548.79	2510.66
549.14	2514.33
549.50	2518.27
549.86	2520.62
550.21	2523.19
550.57	2526.62
550.92	2528.36
551.28	2530.21
551.64	2532.28
551.99	2533.85
552.35	2534.80
552.70	2536.10
553.06	2537.45
553.41	2538.61
553.77	2539.61
554.13	2540.64
554.48	2541.49
554.84	2541.90
555.19	2541.73
555.55	2541.29
555.90	2539.90
556.26	2538.65
556.61	2537.84
556.97	2535.98
557.32	2535.28
557.68	2533.39
558.03	2530.80
558.39	2529.07
558.74	2528.11
559.10	2526.58
559.45	2524.08
559.81	2522.17
560.16	2519.63
560.52	2517.35
560.87	2514.81
561.23	2511.46
561.58	2509.04
561.94	2505.24
562.29	2500.91
562.64	2497.59
563.00	2494.31
563.35	2492.22
563.71	2490.31
564.06	2487.43
564.42	2484.87
564.77	2482.39
565.12	2479.79
565.48	2477.01
565.83	2473.71
566.19	2470.28
566.54	2466.14
566.89	2461.76
567.25	2458.08
567.60	2454.45
567.96	2449.99
568.31	2445.89
568.66	2441.70
569.02	2436.45
569.37	2431.44
569.72	2427.10
570.08	2421.87
570.43	2416.56
570.78	2410.88
571.14	2404.14
571.49	2397.90
571.84	2392.61
572.20	2385.48
572.55	2379.38
572.90	2372.65
573.26	2365.63
573.61	2358.06
573.96	2351.17
574.31	2343.66
574.67	2335.41
575.02	2327.20
575.37	2319.25
575.72	2310.82
576.08	2303.68
576.43	2295.49
576.78	2288.17
577.13	2281.15
577.49	2273.68
577.84	2266.21
578.19	2258.70
578.54	2252.40
578.90	2245.65
579.25	2237.45
579.60	2229.44
579.95	2220.98
580.30	2213.87
580.66	2207.20
581.01	2199.84
581.36	2191.93
581.71	2184.54
582.06	2177.19
582.42	2169.75
582.77	2161.71
583.12	2154.15
583.47	2146.63
583.82	2139.78
584.17	2131.85
584.53	2124.24
584.88	2116.52
585.23	2108.71
585.58	2100.82
585.93	2092.37
586.28	2084.99
586.63	2076.93
586.98	2069.83
587.34	2062.97
587.69	2055.21
588.04	2047.17
588.39	2039.58
588.74	2031.72
589.09	2024.65
589.44	2016.93
589.79	2009.63
590.14	2002.90
590.49	1995.41
590.84	1987.62
591.19	1980.80
591.54	1973.58
591.89	1964.75
592.25	1957.29
592.60	1949.25
592.95	1941.14
593.30	1932.42
593.65	1923.58
594.00	1916.06
594.35	1909.32
594.70	1901.38
595.05	1893.65
595.40	1886.07
595.75	1877.84
596.10	1870.71
596.45	1863.25
596.80	1856.46
597.15	1849.50
597.50	1841.81
597.85	1834.68
598.19	1827.45
598.54	1819.73
598.89	1812.95
599.24	1806.98
599.59	1800.13
599.94	1794.32
600.29	1788.13
600.64	1781.87
600.99	1774.98
601.34	1768.38
601.69	1760.47
602.04	1753.14
602.39	1746.23
602.74	1739.65
603.08	1733.59
603.43	1727.66
603.78	1721.16
604.13	1713.96
604.48	1707.14
604.83	1701.66
605.18	1696.30
605.53	1689.60
605.87	1682.60
606.22	1676.19
606.57	1669.41
606.92	1662.45
607.27	1654.91
607.62	1648.09
607.96	1641.77
608.31	1636.07
608.66	1629.13
609.01	1622.18
609.36	1615.50
609.70	1608.11
610.05	1600.39
610.40	1593.11
610.75	1585.26
611.10	1578.09
611.44	1570.11
611.79	1562.00
612.14	1553.30
612.49	1544.30
612.83	1536.69
613.18	1528.54
613.53	1520.20
613.88	1511.56
614.22	1503.90
614.57	1496.09
614.92	1488.06
615.27	1479.92
615.61	1471.40
615.96	1463.58
616.31	1456.20
616.65	1449.14
617.00	1442.07
617.35	1434.91
617.70	1426.81
618.04	1418.43
618.39	1409.58
618.74	1402.20
619.08	1394.66
619.43	1387.15
619.78	1379.68
620.12	1371.90
620.47	1364.64
620.82	1356.55
621.16	1348.88
621.51	1341.22
621.85	1333.56
622.20	1325.69
622.55	1318.07
622.89	1310.31
623.24	1302.64
623.59	1294.66
623.93	1286.60
624.28	1278.92
624.62	1271.48
624.97	1264.34
625.32	1257.44
625.66	1250.85
626.01	1243.83
626.35	1236.81
626.70	1229.73
627.04	1223.19
627.39	1216.34
627.73	1209.26
628.08	1202.90
628.43	1196.14
628.77	1188.93
629.12	1181.90
629.46	1175.65
629.81	1169.03
630.15	1162.29
630.50	1155.53
630.84	1148.72
631.19	1141.99
631.53	1135.30
631.88	1127.97
632.22	1120.92
632.57	1114.34
632.91	1107.52
633.26	1100.82
633.60	1094.19
633.95	1087.80
634.29	1080.74
634.64	1074.36
634.98	1067.85
635.32	1061.48
635.67	1055.31
636.01	1049.20
636.36	1042.64
636.70	1036.33
637.05	1030.08
637.39	1024.24
637.73	1018.67
638.08	1013.21
638.42	1007.52
638.77	1001.52
639.11	995.80
639.45	989.97
639.80	983.91
640.14	977.73
640.49	971.68
640.83	965.57
641.17	959.49
641.52	953.46
641.86	947.31
642.20	941.32
642.55	935.13
642.89	929.02
643.23	922.66
643.58	917.37
643.92	911.03
644.26	905.04
644.61	899.11
644.95	892.72
645.29	886.57
645.64	880.44
645.98	874.60
646.32	868.95
646.66	863.04
647.01	857.35
647.35	851.95
647.69	846.04
648.04	840.47
648.38	834.93
648.72	829.22
649.06	823.49
649.41	818.07
649.75	812.57
650.09	807.16
650.43	801.96
650.78	796.03
651.12	790.40
651.46	784.85
651.80	779.39
652.14	774.09
652.49	768.66
652.83	763.27
653.17	757.52
653.51	751.83
653.85	746.81
654.20	741.42
654.54	735.75
654.88	730.61
655.22	725.20
655.56	719.65
655.90	714.45
656.25	709.23
656.59	703.95
656.93	698.81
657.27	693.88
657.61	688.49
657.95	683.58
658.29	678.79
658.64	674.14
658.98	669.14
659.32	663.90
659.66	659.04
660.00	654.20
660.34	649.46
660.68	644.61
661.02	639.61
661.36	635.12
661.70	630.71
662.05	626.45
662.39	622.57
662.73	618.61
663.07	614.67
663.41	610.59
663.75	606.29
664.09	602.08
664.43	597.62
664.77	593.61
665.11	589.68
665.45	585.79
665.79	581.79
666.13	577.88
666.47	574.20
666.81	570.44
667.15	566.52
667.49	563.06
667.83	559.67
668.17	556.13
668.51	552.59
668.85	549.17
669.19	545.82
669.53	541.99
669.87	538.35
670.21	534.81
670.55	531.22
670.89	528.26
671.23	525.15
671.57	521.93
671.91	518.81
672.25	515.37
672.58	512.17
672.92	508.88
673.26	505.90
673.60	502.95
673.94	499.82
674.28	496.90
674.62	493.93
674.96	491.00
675.30	488.20
675.64	485.27
675.97	482.36
676.31	479.38
676.65	476.63
676.99	474.05
677.33	471.14
677.67	468.46
678.01	465.53
678.34	462.69
678.68	460.16
679.02	457.33
679.36	454.87
679.70	452.18
680.04	449.61
680.37	446.90
680.71	444.30
681.05	441.95
681.39	439.49
681.73	436.97
682.06	434.70
682.40	432.32
682.74	430.05
683.08	427.70
683.42	425.28
683.75	422.94
684.09	420.45
684.43	418.15
684.77	415.85
685.10	413.47
685.44	411.08
685.78	408.77
686.12	406.80
686.45	404.55
686.79	402.44
687.13	400.39
687.46	398.38
687.80	396.33
688.14	394.11
688.48	392.07
688.81	389.93
689.15	387.85
689.49	385.68
689.82	383.51
690.16	381.25
690.50	379.15
690.83	377.14
691.17	375.16
691.51	373.24
691.84	371.41
692.18	369.57
692.52	367.95
692.85	366.28
693.19	364.54
693.52	362.74
693.86	360.93
694.20	359.13
694.53	357.35
694.87	355.53
695.21	353.77
695.54	351.97
695.88	350.14
696.21	348.31
696.55	346.77
696.88	345.14
697.22	343.55
697.56	342.10
697.89	340.48
698.23	338.87
698.56	337.33
698.90	335.86
699.23	334.31
699.57	332.67
699.90	330.94
700.24	329.30
700.58	327.85
700.91	326.36
701.25	325.14
701.58	323.78
701.92	322.43
702.25	321.16
702.59	319.83
702.92	318.65
703.26	317.35
703.59	316.00
703.93	315.00
704.26	313.86
704.60	312.63
704.93	311.38
705.26	310.15
705.60	309.03
705.93	307.69
706.27	306.72
706.60	305.70
706.94	304.85
707.27	303.67
707.61	302.57
707.94	301.51
708.27	300.24
708.61	299.01
708.94	297.93
709.28	296.89
709.61	295.89
709.94	294.96
710.28	293.97
710.61	293.05
710.95	291.82
711.28	291.07
711.61	290.01
711.95	289.24
712.28	288.32
712.61	287.37
712.95	286.69
713.28	285.86
713.61	284.89
713.95	283.89
714.28	283.13
714.61	282.28
714.95	281.50
715.28	280.69
715.61	279.91
715.95	279.04
716.28	278.15
716.61	277.33
716.95	276.50
717.28	275.73
717.61	274.99
717.94	274.27
718.28	273.35
718.61	272.68
718.94	271.86
719.27	271.21
719.61	270.57
719.94	269.89
720.27	269.04
720.60	268.37
720.94	267.73
721.27	267.06
721.60	266.46
721.93	265.79
722.27	265.28
722.60	264.79
722.93	264.26
723.26	263.73
723.59	263.10
723.93	262.55
724.26	261.99
724.59	261.38
724.92	260.80
725.25	260.25
725.59	259.62
725.92	259.21
726.25	258.55
726.58	257.97
726.91	257.33
727.24	256.79
727.57	256.28
727.91	255.69
728.24	255.21
728.57	254.74
728.90	254.39
729.23	253.80
729.56	253.41
729.89	252.90
730.22	252.39
730.55	251.94
730.89	251.47
731.22	251.01
731.55	250.57
731.88	250.16
732.21	249.70
732.54	249.35
732.87	248.84
733.20	248.50
733.53	248.19
733.86	247.86
734.19	247.51
734.52	247.19
734.85	247.14
735.18	246.78
735.51	246.52
735.84	246.10
736.17	245.82
736.50	245.26
736.83	245.38
737.16	245.00
737.49	244.70
737.82	244.28
738.15	243.98
738.48	243.68
738.81	243.31
739.14	242.92
739.47	242.45
739.80	242.18
740.13	241.94
740.46	241.54
740.79	241.16
741.12	240.85
741.45	240.42
741.78	239.86
742.11	239.59
742.44	239.19
742.77	238.93
743.10	238.59
743.43	238.28
743.75	237.57
744.08	237.75
744.41	237.42
744.74	237.14
745.07	236.80
745.40	236.53
745.73	236.44
746.06	236.13
746.39	236.05
746.71	235.66
747.04	235.30
747.37	235.04
747.70	234.79
748.03	234.59
748.36	234.44
748.68	234.20
749.01	233.87
749.34	233.66
749.67	233.43
750.00	233.27
750.33	233.34
750.65	233.10
750.98	232.47
751.31	232.24
751.64	232.05
751.97	232.13
752.29	231.85
752.62	231.39
752.95	231.17
753.28	230.84
753.60	230.57
753.93	230.42
754.26	230.17
754.59	229.95
754.91	229.61
755.24	229.31
755.57	229.06
755.90	228.86
756.22	228.63
756.55	228.37
756.88	228.05
757.20	227.56
757.53	227.25
757.86	226.99
758.19	226.86
758.51	226.69
758.84	226.19
759.17	226.00
759.49	225.93
759.82	225.98
760.15	225.87
760.47	225.73
760.80	225.46
761.13	225.30
761.45	225.11
761.78	224.97
762.11	224.89
762.43	224.67
762.76	224.45
763.08	224.34
763.41	224.15
763.74	224.06
764.06	223.95
764.39	223.85
764.71	223.75
765.04	223.58
765.37	223.42
765.69	223.28
766.02	223.10
766.34	222.94
766.67	222.66
767.00	222.56
767.32	222.57
767.65	222.70
767.97	222.58
768.30	222.44
768.62	222.38
768.95	222.17
769.27	222.17
769.60	222.16
769.92	221.88
770.25	221.72
770.57	221.59
770.90	221.47
771.22	221.38
771.55	221.25
771.87	221.16
772.20	221.05
772.52	221.24
772.85	221.65
773.17	221.55
773.50	221.44
773.82	221.30
774.15	221.07
774.47	220.80
774.80	220.67
775.12	220.60
775.45	220.50
775.77	220.43
776.09	220.33
776.42	220.27
776.74	220.35
777.07	220.24
777.39	220.16
777.72	220.06
778.04	219.94
778.36	219.91
778.69	219.78
779.01	219.70
779.33	219.38
779.66	218.82
779.98	218.69
780.31	218.66
780.63	218.78
780.95	218.78
781.28	218.68
781.60	218.57
781.92	218.44
782.25	218.25
782.57	218.20
782.89	218.13
783.22	217.97
783.54	217.79
783.86	217.81
784.19	217.67
784.51	217.69
784.83	217.68
785.16	217.58
785.48	217.54
785.80	217.40
786.12	217.29
786.45	217.24
786.77	217.26
787.09	217.20
787.42	216.97
787.74	216.90
788.06	216.80
788.38	216.77
788.71	216.75
789.03	216.79
789.35	216.82
789.67	216.68
789.99	216.64
790.32	216.54
790.64	216.47
790.96	216.80
791.28	216.66
791.61	216.54
791.93	216.47
792.25	216.48
792.57	216.74
792.89	216.69
793.21	216.69
793.54	216.55
793.86	216.44
794.18	216.43
794.50	216.33
794.82	216.28
795.14	216.25
795.47	216.21
795.79	216.15
796.11	215.98
796.43	216.00
796.75	216.01
797.07	215.99
797.39	215.94
797.71	215.51
798.04	215.46
798.36	215.39
798.68	215.37
799.00	215.28
799.32	215.15
799.64	215.12
799.96	215.06
800.28	215.06
800.60	214.99
800.92	214.94
801.24	214.85
801.56	214.85
801.89	214.76
802.21	214.78
802.53	214.75
802.85	214.77
803.17	214.82
803.49	214.62
803.81	214.58
804.13	214.55
804.45	214.57
804.77	214.61
805.09	214.60
805.41	214.51
805.73	214.43
806.05	214.19
806.37	214.24
806.69	214.15
807.01	214.12
807.33	214.17
807.65	214.04
807.97	214.25
808.28	214.23
808.60	214.18
808.92	214.09
809.24	214.24
809.56	214.20
809.88	214.05
810.20	214.08
810.52	214.12
810.84	214.08
811.16	213.96
811.48	213.83
811.80	213.97
812.12	213.98
812.43	214.06
812.75	214.14
813.07	214.01
813.39	213.96
813.71	213.91
814.03	213.78
814.35	213.74
814.67	213.52
814.98	213.41
815.30	213.45
815.62	213.39
815.94	213.10
816.26	213.01
816.58	213.02
816.89	213.09
817.21	213.01
817.53	212.96
817.85	213.03
818.17	213.04
818.48	212.85
818.80	212.81
819.12	212.72
819.44	212.61
819.76	212.55
820.07	212.57
820.39	212.59
820.71	212.64
821.03	212.70
821.34	212.70
821.66	212.79
821.98	212.78
822.30	212.80
822.61	213.04
822.93	213.03
823.25	212.97
823.57	212.93
823.88	213.01
824.20	213.05
824.52	213.06
824.83	213.02
825.15	213.00
825.47	213.04
825.79	213.00
826.10	212.96
826.42	212.98
826.74	213.09
827.05	213.03
827.37	213.06
827.69	213.01
828.00	212.90
828.32	212.88
828.64	212.89
828.95	213.01
829.27	212.92
829.58	212.93
829.90	212.89
830.22	212.87
830.53	212.71
830.85	212.61
831.17	212.55
831.48	212.60
831.80	212.61
832.11	212.59
832.43	212.54
832.75	212.58
833.06	212.78
833.38	212.66
833.69	212.67
834.01	212.65
834.32	212.68
834.64	212.79
834.96	212.77
835.27	212.72
835.59	212.55
835.90	212.46
836.22	212.49
836.53	212.50
836.85	212.49
837.16	212.86
837.48	212.93
837.79	213.08
838.11	212.97
838.42	212.95
838.74	212.99
839.05	213.01
839.37	212.97
839.68	212.67
840.00	212.61
840.31	212.65
840.63	212.69
840.94	212.61
841.26	212.50
841.57	212.49
841.88	212.54
842.20	212.55
842.51	212.51
842.83	212.46
843.14	212.73
843.46	212.75
843.77	212.57
844.08	212.50
844.40	212.32
844.71	212.36
845.03	212.24
845.34	212.22
845.65	212.13
845.97	212.14
846.28	212.18
846.60	212.20
846.91	212.16
847.22	212.06
847.54	212.12
847.85	212.16
848.16	212.10
848.48	212.02
848.79	212.09
849.10	212.13
849.42	212.16
849.73	211.87
850.04	211.75
850.36	211.65
850.67	211.70
850.98	211.70
851.30	211.73
851.61	211.76
851.92	211.71
852.23	211.87
852.55	211.89
852.86	211.98
853.17	211.98
853.49	212.05
853.80	212.16
854.11	212.20
854.42	212.20
854.74	212.21
855.05	212.19
855.36	212.06
855.67	212.10
855.99	212.14
856.30	212.55
856.61	212.63
856.92	212.59
857.23	212.60
857.55	212.53
857.86	212.50
858.17	212.60
858.48	212.59
858.79	212.47
859.11	212.50
859.42	212.37
859.73	212.41
860.04	212.32
860.35	212.13
860.66	212.05
860.98	212.10
861.29	212.14
861.60	212.11
861.91	212.17
862.22	212.06
862.53	211.94
862.84	211.57
863.16	211.60
863.47	211.56
863.78	211.47
864.09	211.55
864.40	211.58
864.71	211.58
865.02	211.65
865.33	211.71
865.64	211.59
865.95	211.70
866.27	211.91
866.58	211.86
866.89	211.97
867.20	211.96
867.51	211.88
867.82	211.80
868.13	211.95
868.44	211.90
868.75	212.03
869.06	212.08
869.37	212.10
869.68	211.99
869.99	211.99
870.30	212.10
870.61	212.06
870.92	211.93
871.23	211.88
871.54	211.90
871.85	211.97
872.16	212.04
872.47	211.97
872.78	211.71
873.09	211.80
873.40	211.74
873.71	211.79
874.02	211.85
874.33	211.81
874.64	211.75
874.95	211.81
875.26	211.67
875.56	211.63
875.87	211.59
876.18	211.58
876.49	211.98
876.80	211.87
877.11	211.82
877.42	211.88
877.73	211.85
878.04	211.82
878.35	211.69
878.66	211.73
878.96	211.74
879.27	211.68
879.58	211.61
879.89	211.62
880.20	211.69
880.51	211.61
880.82	211.63
881.12	211.61
881.43	211.50
881.74	211.51
882.05	211.55
882.36	211.63
882.67	211.68
882.97	211.27
883.28	211.30
883.59	211.31
883.90	211.31
884.21	211.38
884.51	211.35
884.82	211.37
885.13	211.33
885.44	211.37
885.74	211.40
886.05	211.37
886.36	211.37
886.67	211.23
886.98	211.42
887.28	211.48
887.59	211.47
887.90	211.51
888.20	211.52
888.51	211.59
888.82	211.46
889.13	211.47
889.43	211.82
889.74	211.79
890.05	211.80
890.35	211.84
890.66	211.81
890.97	211.73
891.28	211.70
891.58	211.76
891.89	211.76
892.20	211.79
892.50	211.80
892.81	211.77
893.12	211.84
893.42	211.60
893.73	211.56
894.04	211.57
894.34	211.60
894.65	211.58
894.95	211.52
895.26	211.59
895.57	211.76
895.87	211.35
896.18	211.38
896.48	211.40
896.79	211.45
897.10	211.57
897.40	211.60
897.71	211.61
898.01	211.52
898.32	211.50
898.63	211.45
898.93	211.49
899.24	211.48
899.54	211.44
899.85	211.46
900.15	211.49
900.46	211.51
900.76	211.61
901.07	211.62
901.38	211.59
901.68	211.63
901.99	211.39
902.29	211.44
902.60	211.46
902.90	211.43
903.21	211.40
903.51	211.32
903.82	211.42
904.12	211.46
904.43	211.50
904.73	211.56
905.03	211.60
905.34	211.96
905.64	211.94
905.95	211.92
906.25	211.93
906.56	211.96
906.86	212.01
907.17	211.93
907.47	211.88
907.77	211.81
908.08	211.68
908.38	211.71
908.69	211.73
908.99	211.73
909.30	211.77
909.60	211.74
909.90	211.77
910.21	211.66
910.51	211.56
910.81	211.60
911.12	211.50
911.42	211.50
911.73	211.10
912.03	211.07
912.33	211.16
912.64	211.10
912.94	211.05
913.24	210.91
913.55	210.84
913.85	210.89
914.15	211.02
914.46	211.11
914.76	211.16
915.06	211.18
915.37	211.15
915.67	211.14
915.97	211.08
916.27	211.03
916.58	211.01
916.88	211.01
917.18	210.97
917.49	211.27
917.79	211.22
918.09	211.32
918.39	211.44
918.70	211.38
919.00	211.45
919.30	211.60
919.60	211.62
919.91	211.61
920.21	211.63
920.51	211.52
920.81	211.49
921.12	211.52
921.42	211.50
921.72	211.61
922.02	211.60
922.32	211.65
922.63	211.66
922.93	211.90
923.23	211.94
923.53	211.92
923.83	211.66
924.13	211.73
924.44	211.68
924.74	211.78
925.04	211.85
925.34	211.88
925.64	211.72
925.94	211.73
926.24	211.92
926.55	211.87
926.85	211.89
927.15	211.89
927.45	211.85
927.75	211.79
928.05	211.75
928.35	211.75
928.65	211.80
928.95	211.80
929.26	211.63
929.56	211.72
929.86	211.85
930.16	211.83
930.46	211.79
930.76	211.73
931.06	211.53
931.36	211.44
931.66	211.55
931.96	211.66
932.26	211.68
932.56	211.58
932.86	211.62
933.16	211.62
933.46	211.59
933.76	211.52
934.06	211.75
934.36	211.84
934.66	211.79
934.96	211.80
935.26	211.83
935.56	211.91
935.86	211.79
936.16	211.69
936.46	211.70
936.76	211.73
937.06	211.71
937.36	211.78
937.66	211.79
937.96	211.73
938.26	211.62
938.56	211.60
938.86	211.63
939.16	211.69
939.46	211.75
939.76	211.83
940.06	211.86
940.35	211.65
940.65	211.45
940.95	211.49
941.25	211.41
941.55	211.34
941.85	211.28
942.15	211.35
942.45	211.37
942.75	211.32
943.04	211.34
943.34	211.45
943.64	211.44
943.94	211.38
944.24	211.31
944.54	211.29
944.84	211.28
945.13	211.18
945.43	211.12
945.73	211.03
946.03	210.90
946.33	210.87
946.62	210.85
946.92	210.86
947.22	210.86
947.52	210.84
947.82	210.89
948.11	210.80
948.41	210.73
948.71	210.66
949.01	210.65
949.31	210.60
949.60	210.51
949.90	210.47
950.20	210.45
950.50	210.50
950.79	210.50
951.09	210.52
951.39	210.52
951.69	210.50
951.98	210.66
952.28	210.70
952.58	210.72
952.87	210.72
953.17	210.76
953.47	210.71
953.76	210.78
954.06	210.71
954.36	210.69
954.66	210.70
954.95	210.80
955.25	210.81
955.55	210.80
955.84	210.72
956.14	210.78
956.44	210.81
956.73	210.75
957.03	210.74
957.32	210.74
957.62	210.74
957.92	210.81
958.21	210.72
958.51	211.05
958.81	211.05
959.10	211.18
959.40	211.20
959.69	211.27
959.99	211.31
960.29	211.33
960.58	211.35
960.88	211.49
961.17	211.43
961.47	211.54
961.76	211.52
962.06	211.66
962.36	211.62
962.65	211.65
962.95	211.67
963.24	211.66
963.54	211.64
963.83	211.63
964.13	211.60
964.42	211.56
964.72	211.43
965.01	211.46
965.31	211.38
965.60	211.39
965.90	211.64
966.19	211.55
966.49	211.54
966.78	211.55
967.08	211.50
967.37	211.54
967.67	211.45
967.96	211.57
968.26	211.55
968.55	211.62
968.85	211.56
969.14	211.55
969.43	211.53
969.73	211.52
970.02	211.56
970.32	211.63
970.61	211.56
970.91	211.40
971.20	211.37
971.49	211.29
971.79	211.27
972.08	210.95
972.38	210.99
972.67	211.02
972.96	211.07
973.26	211.00
973.55	211.07
973.85	211.08
974.14	210.98
974.43	211.04
974.73	211.01
975.02	211.00
975.31	211.00
975.61	211.07
975.90	211.10
976.19	211.04
976.49	210.99
976.78	211.12
977.07	211.14
977.37	211.15
977.66	211.23
977.95	211.19
978.24	211.29
978.54	211.38
978.83	211.32
979.12	211.27
979.42	211.23
979.71	211.20
980.00	211.22
980.29	211.27
980.59	211.19
980.88	211.20
981.17	211.22
981.46	211.21
981.76	211.16
982.05	211.21
982.34	211.29
982.63	211.30
982.93	211.16
983.22	211.20
983.51	211.22
983.80	211.28
984.09	211.36
984.39	211.33
984.68	211.24
984.97	211.23
985.26	211.20
985.55	211.23
985.85	211.14
986.14	211.18
986.43	211.16
986.72	211.10
987.01	211.05
987.30	211.04
987.59	211.01
987.89	211.14
988.18	211.06
988.47	210.97
988.76	210.87
989.05	210.96
989.34	210.96
989.63	211.00
989.92	210.89
990.22	210.84
990.51	210.76
990.80	210.65
991.09	210.75
991.38	210.78
991.67	210.74
991.96	210.63
992.25	210.58
992.54	210.57
992.83	210.59
993.12	210.53
993.41	210.58
993.70	210.68
993.99	210.58
994.28	210.64
994.58	210.66
994.87	210.67
995.16	210.59
995.45	210.55
995.74	210.36
996.03	210.38
996.32	210.43
996.61	210.52
996.90	210.54
997.19	210.51
997.48	210.55
997.77	210.50
998.06	210.55
998.34	210.58
998.63	210.58
998.92	210.54
999.21	210.59
999.50	210.69
999.79	210.60
1000.08	210.63
1000.37	210.62
1000.66	210.57
1000.95	210.64
1001.24	210.64
1001.53	210.67
1001.82	210.74
1002.11	210.68
1002.40	210.70
1002.68	210.75
1002.97	211.00
1003.26	210.95
1003.55	210.93
1003.84	210.99
1004.13	211.15
1004.42	211.07
1004.71	211.05
1004.99	211.10
1005.28	211.27
1005.57	211.17
1005.86	211.18
1006.15	211.12
1006.44	211.02
1006.72	211.05
1007.01	211.00
1007.30	211.00
1007.59	211.00
1007.88	211.00
1008.17	211.02
1008.45	210.96
1008.74	210.86
1009.03	210.74
1009.32	210.74
1009.60	210.66
1009.89	210.63
1010.18	210.47
1010.47	210.47
1010.76	210.51
1011.04	210.49
1011.33	210.78
1011.62	210.81
1011.91	210.79
1012.19	210.86
1012.48	210.90
1012.77	210.95
1013.05	211.11
1013.34	211.12
1013.63	211.13
1013.92	211.13
1014.20	211.16
1014.49	211.19
1014.78	211.18
1015.06	211.06
1015.35	210.99
1015.64	211.16
1015.92	211.25
1016.21	211.36
1016.50	211.37
1016.78	211.40
1017.07	211.46
1017.36	211.06
1017.64	211.02
1017.93	211.01
1018.22	211.02
1018.50	211.11
1018.79	211.13
1019.08	210.95
1019.36	211.06
1019.65	210.91
1019.93	211.07
1020.22	211.17
1020.51	211.35
1020.79	211.39
1021.08	211.60
1021.36	212.00
1021.65	211.45
1021.94	210.20
1022.22	212.25
1022.51	208.85
1022.79	213.10
1023.08	212.25
1023.36	215.55
1023.65	210.90
>>>>>End Processed Spectral Data<<<<<
