SpectraSuite Data File
++++++++++++++++++++++++++++++++++++
Date: Mon Feb 25 17:04:37 EST 2013
User: group
Dark Spectrum Present: No
Reference Spectrum Present: No
Number of Sampled Component Spectra: 1
Spectrometers: USB2E7196
Integration Time (usec): 104000 (USB2E7196)
Spectra Averaged: 20 (USB2E7196)
Boxcar Smoothing: 10 (USB2E7196)
Correct for Electrical Dark: No (USB2E7196)
Strobe/Lamp Enabled: No (USB2E7196)
Correct for Detector Non-linearity: No (USB2E7196)
Correct for Stray Light: No (USB2E7196)
Number of Pixels in Processed Spectrum: 2048
>>>>>Begin Processed Spectral Data<<<<<
339.09	0.00
339.48	198.30
339.86	200.30
340.24	201.20
340.63	203.65
341.01	209.75
341.39	205.30
341.78	206.40
342.16	208.70
342.54	209.55
342.93	198.02
343.31	207.99
343.69	208.57
344.07	209.06
344.46	209.54
344.84	209.89
345.22	209.92
345.60	210.22
345.99	210.42
346.37	210.52
346.75	210.52
347.13	210.57
347.52	210.60
347.90	210.86
348.28	210.86
348.66	210.90
349.05	210.86
349.43	210.96
349.81	210.99
350.19	211.03
350.57	211.09
350.96	211.15
351.34	211.24
351.72	211.28
352.10	211.32
352.48	211.29
352.87	211.31
353.25	211.35
353.63	211.41
354.01	211.47
354.39	211.62
354.77	211.69
355.15	211.92
355.54	211.98
355.92	211.91
356.30	212.03
356.68	212.33
357.06	212.40
357.44	212.38
357.82	212.41
358.20	212.47
358.58	212.60
358.97	212.64
359.35	212.76
359.73	212.86
360.11	212.90
360.49	212.94
360.87	213.01
361.25	213.15
361.63	213.28
362.01	213.34
362.39	213.30
362.77	213.36
363.15	213.34
363.53	213.38
363.91	213.37
364.29	213.38
364.67	213.05
365.05	213.04
365.43	213.14
365.81	213.18
366.19	213.30
366.57	213.34
366.95	213.38
367.33	213.29
367.71	213.30
368.09	213.40
368.47	213.44
368.85	213.42
369.23	213.43
369.61	213.24
369.99	213.38
370.37	213.40
370.75	213.61
371.13	213.48
371.51	213.45
371.89	213.46
372.27	213.43
372.65	213.46
373.03	213.41
373.41	213.32
373.78	213.26
374.16	213.06
374.54	212.94
374.92	212.83
375.30	212.81
375.68	212.73
376.06	212.62
376.44	212.50
376.82	212.48
377.19	212.40
377.57	212.38
377.95	212.15
378.33	212.04
378.71	211.74
379.09	211.78
379.47	211.77
379.84	211.73
380.22	211.72
380.60	211.57
380.98	211.55
381.36	211.52
381.73	211.42
382.11	211.43
382.49	211.38
382.87	211.33
383.25	211.32
383.62	211.66
384.00	211.58
384.38	211.64
384.76	211.69
385.13	211.80
385.51	211.75
385.89	211.67
386.27	211.60
386.64	211.66
387.02	211.63
387.40	211.52
387.78	211.42
388.15	211.30
388.53	211.28
388.91	211.23
389.29	211.10
389.66	211.15
390.04	211.10
390.42	211.10
390.79	211.11
391.17	211.08
391.55	210.67
391.92	210.57
392.30	210.58
392.68	210.44
393.05	210.38
393.43	210.34
393.81	210.42
394.18	210.41
394.56	210.32
394.94	210.30
395.31	210.33
395.69	210.51
396.06	210.57
396.44	210.65
396.82	210.64
397.19	210.89
397.57	210.93
397.95	211.00
398.32	210.93
398.70	210.94
399.07	210.99
399.45	210.92
399.82	211.04
400.20	210.99
400.58	210.97
400.95	210.86
401.33	210.94
401.70	211.21
402.08	211.29
402.45	211.41
402.83	211.60
403.20	211.59
403.58	211.55
403.95	211.59
404.33	211.72
404.71	211.78
405.08	211.96
405.46	212.00
405.83	212.12
406.21	212.29
406.58	212.42
406.96	212.54
407.33	212.72
407.70	212.88
408.08	213.33
408.45	213.54
408.83	213.75
409.20	213.96
409.58	213.94
409.95	214.22
410.33	214.51
410.70	214.63
411.08	214.99
411.45	215.29
411.82	215.63
412.20	216.00
412.57	216.61
412.95	216.76
413.32	217.27
413.69	217.76
414.07	218.19
414.44	218.74
414.82	219.39
415.19	220.16
415.56	220.86
415.94	221.53
416.31	222.40
416.68	223.29
417.06	224.22
417.43	225.23
417.81	226.35
418.18	227.48
418.55	228.65
418.93	229.92
419.30	231.31
419.67	232.85
420.04	234.28
420.42	235.75
420.79	237.76
421.16	239.50
421.54	241.44
421.91	243.36
422.28	245.36
422.66	247.36
423.03	249.57
423.40	251.67
423.77	253.82
424.15	256.23
424.52	258.65
424.89	261.34
425.26	263.84
425.64	266.21
426.01	268.71
426.38	271.61
426.75	274.41
427.13	277.22
427.50	280.09
427.87	283.19
428.24	286.35
428.61	289.20
428.99	292.68
429.36	296.26
429.73	299.92
430.10	303.49
430.47	307.30
430.85	310.98
431.22	315.13
431.59	319.70
431.96	323.76
432.33	328.34
432.70	332.77
433.08	338.11
433.45	343.05
433.82	348.13
434.19	353.65
434.56	359.16
434.93	364.41
435.30	369.76
435.68	375.60
436.05	381.27
436.42	387.00
436.79	392.30
437.16	397.92
437.53	403.96
437.90	409.90
438.27	415.70
438.64	421.78
439.01	427.39
439.38	432.25
439.75	437.35
440.13	442.94
440.50	448.35
440.87	452.62
441.24	457.15
441.61	462.13
441.98	465.76
442.35	470.10
442.72	474.57
443.09	478.93
443.46	481.75
443.83	483.79
444.20	485.67
444.57	487.92
444.94	489.11
445.31	490.47
445.68	492.07
446.05	492.85
446.42	492.68
446.79	492.53
447.16	492.17
447.53	491.89
447.90	490.14
448.27	488.22
448.64	485.56
449.01	483.79
449.37	480.31
449.74	477.07
450.11	473.16
450.48	468.46
450.85	463.61
451.22	459.53
451.59	455.76
451.96	451.93
452.33	447.00
452.70	442.60
453.07	437.02
453.43	431.23
453.80	425.84
454.17	420.70
454.54	415.74
454.91	410.59
455.28	405.44
455.65	400.54
456.02	396.10
456.38	391.99
456.75	386.91
457.12	382.55
457.49	378.28
457.86	373.92
458.23	370.57
458.59	366.74
458.96	362.82
459.33	359.27
459.70	355.90
460.07	353.15
460.43	349.94
460.80	346.99
461.17	344.44
461.54	341.74
461.91	339.07
462.27	336.48
462.64	334.05
463.01	331.51
463.38	329.22
463.74	326.43
464.11	324.33
464.48	322.37
464.85	320.35
465.21	318.82
465.58	317.17
465.95	315.10
466.32	313.38
466.68	311.66
467.05	309.93
467.42	308.15
467.78	306.41
468.15	304.74
468.52	303.57
468.88	301.91
469.25	300.44
469.62	299.33
469.98	297.93
470.35	296.85
470.72	295.78
471.08	294.40
471.45	293.32
471.82	292.30
472.18	291.19
472.55	290.35
472.92	289.27
473.28	288.33
473.65	287.40
474.02	286.57
474.38	285.92
474.75	285.33
475.11	284.67
475.48	284.03
475.85	283.51
476.21	282.92
476.58	282.38
476.94	282.06
477.31	281.67
477.67	281.20
478.04	280.83
478.41	280.56
478.77	280.74
479.14	280.47
479.50	280.29
479.87	280.15
480.23	280.03
480.60	279.87
480.96	279.73
481.33	279.82
481.69	279.84
482.06	279.80
482.42	279.73
482.79	279.73
483.15	279.89
483.52	280.11
483.88	280.20
484.25	280.37
484.61	280.43
484.98	280.54
485.34	280.97
485.71	281.31
486.07	281.66
486.44	281.64
486.80	282.06
487.17	282.41
487.53	283.02
487.90	283.53
488.26	284.21
488.62	284.88
488.99	285.46
489.35	286.06
489.72	286.74
490.08	287.51
490.44	288.23
490.81	289.00
491.17	289.76
491.54	290.68
491.90	291.64
492.26	292.57
492.63	293.53
492.99	294.41
493.36	295.40
493.72	296.48
494.08	297.61
494.45	298.75
494.81	300.04
495.17	301.04
495.54	302.32
495.90	303.45
496.26	304.60
496.63	305.83
496.99	307.12
497.35	308.39
497.72	309.65
498.08	310.97
498.44	312.28
498.80	313.65
499.17	314.94
499.53	316.24
499.89	317.64
500.26	318.95
500.62	320.39
500.98	321.85
501.34	323.00
501.71	324.30
502.07	325.68
502.43	326.82
502.79	328.10
503.16	329.28
503.52	330.53
503.88	331.80
504.24	333.00
504.60	334.20
504.97	335.50
505.33	336.67
505.69	338.00
506.05	339.14
506.41	340.25
506.78	341.29
507.14	342.32
507.50	343.41
507.86	344.41
508.22	345.29
508.59	346.06
508.95	347.18
509.31	348.27
509.67	349.13
510.03	350.03
510.39	350.88
510.75	351.75
511.12	352.40
511.48	353.02
511.84	353.70
512.20	354.39
512.56	354.99
512.92	355.62
513.28	356.24
513.64	356.76
514.00	357.30
514.37	357.89
514.73	358.48
515.09	359.05
515.45	359.56
515.81	359.99
516.17	360.44
516.53	360.69
516.89	360.87
517.25	361.18
517.61	361.61
517.97	362.00
518.33	362.24
518.69	362.85
519.05	363.41
519.41	363.97
519.77	364.65
520.13	365.10
520.49	365.59
520.85	365.95
521.21	366.63
521.57	367.11
521.93	367.55
522.29	368.12
522.65	368.59
523.01	369.21
523.37	369.82
523.73	370.53
524.09	371.36
524.45	372.20
524.81	372.96
525.17	373.92
525.53	374.80
525.89	375.84
526.25	376.74
526.61	377.60
526.97	378.48
527.33	379.46
527.68	380.90
528.04	382.11
528.40	383.25
528.76	384.45
529.12	385.86
529.48	387.33
529.84	388.61
530.20	390.12
530.56	391.70
530.91	393.37
531.27	395.04
531.63	396.74
531.99	398.38
532.35	400.17
532.71	401.81
533.07	403.70
533.42	405.88
533.78	407.72
534.14	409.73
534.50	411.60
534.86	413.71
535.21	415.29
535.57	417.35
535.93	419.41
536.29	421.60
536.65	423.72
537.00	425.83
537.36	428.08
537.72	430.30
538.08	432.53
538.44	434.68
538.79	436.98
539.15	439.21
539.51	441.63
539.87	444.02
540.22	446.47
540.58	448.93
540.94	451.07
541.29	453.61
541.65	456.05
542.01	458.82
542.37	461.41
542.72	464.12
543.08	466.65
543.44	469.55
543.79	472.02
544.15	474.76
544.51	477.65
544.87	480.53
545.22	483.33
545.58	486.03
545.94	488.75
546.29	491.48
546.65	494.13
547.01	496.85
547.36	499.72
547.72	502.39
548.07	505.13
548.43	507.95
548.79	510.75
549.14	513.44
549.50	515.99
549.86	518.28
550.21	520.93
550.57	523.69
550.92	526.08
551.28	528.74
551.64	531.22
551.99	533.64
552.35	536.07
552.70	538.41
553.06	540.96
553.41	543.39
553.77	546.03
554.13	548.56
554.48	551.09
554.84	553.46
555.19	555.91
555.55	558.47
555.90	560.67
556.26	562.76
556.61	565.05
556.97	567.24
557.32	569.65
557.68	571.88
558.03	573.91
558.39	576.02
558.74	578.17
559.10	580.40
559.45	582.60
559.81	584.85
560.16	586.89
560.52	588.93
560.87	591.13
561.23	592.98
561.58	595.32
561.94	597.30
562.29	599.11
562.64	601.00
563.00	602.64
563.35	604.61
563.71	606.67
564.06	608.66
564.42	610.66
564.77	612.61
565.12	614.50
565.48	616.67
565.83	618.66
566.19	620.61
566.54	622.08
566.89	623.69
567.25	625.20
567.60	626.94
567.96	628.77
568.31	630.48
568.66	631.95
569.02	632.90
569.37	633.84
569.72	635.16
570.08	636.17
570.43	637.30
570.78	638.29
571.14	638.98
571.49	639.73
571.84	640.45
572.20	641.10
572.55	641.72
572.90	641.94
573.26	642.30
573.61	642.52
573.96	643.05
574.31	643.39
574.67	643.62
575.02	643.61
575.37	643.32
575.72	643.19
576.08	643.11
576.43	643.22
576.78	643.44
577.13	643.51
577.49	643.65
577.84	643.61
578.19	643.73
578.54	644.05
578.90	644.40
579.25	644.54
579.60	644.37
579.95	644.19
580.30	644.35
580.66	644.29
581.01	644.10
581.36	643.99
581.71	643.74
582.06	643.74
582.42	643.69
582.77	643.59
583.12	643.45
583.47	643.41
583.82	643.33
584.17	643.22
584.53	643.14
584.88	642.97
585.23	643.02
585.58	642.66
585.93	642.27
586.28	641.86
586.63	641.60
586.98	641.49
587.34	641.45
587.69	641.00
588.04	640.74
588.39	640.54
588.74	639.86
589.09	639.68
589.44	638.97
589.79	638.67
590.14	638.40
590.49	637.87
590.84	637.35
591.19	636.96
591.54	636.41
591.89	635.45
592.25	634.98
592.60	634.01
592.95	633.25
593.30	632.30
593.65	631.35
594.00	630.28
594.35	630.25
594.70	629.32
595.05	628.44
595.40	627.55
595.75	626.47
596.10	625.91
596.45	624.97
596.80	624.29
597.15	623.50
597.50	622.48
597.85	621.83
598.19	620.87
598.54	619.79
598.89	618.97
599.24	618.48
599.59	617.39
599.94	616.73
600.29	615.93
600.64	615.22
600.99	614.48
601.34	613.91
601.69	612.05
602.04	611.01
602.39	610.34
602.74	609.53
603.08	609.03
603.43	608.45
603.78	607.61
604.13	606.81
604.48	605.86
604.83	605.30
605.18	604.41
605.53	603.58
605.87	602.75
606.22	601.88
606.57	600.93
606.92	599.97
607.27	598.73
607.62	597.72
607.96	596.90
608.31	595.78
608.66	594.69
609.01	593.76
609.36	592.78
609.70	591.50
610.05	590.35
610.40	589.11
610.75	587.62
611.10	586.50
611.44	584.99
611.79	583.63
612.14	582.10
612.49	580.49
612.83	579.15
613.18	577.67
613.53	576.23
613.88	574.50
614.22	573.07
614.57	571.60
614.92	570.16
615.27	568.54
615.61	567.13
615.96	565.65
616.31	564.10
616.65	562.76
617.00	561.36
617.35	559.67
617.70	557.94
618.04	556.41
618.39	554.62
618.74	553.15
619.08	551.55
619.43	549.90
619.78	548.32
620.12	546.79
620.47	545.13
620.82	543.37
621.16	541.71
621.51	540.35
621.85	538.77
622.20	537.09
622.55	535.33
622.89	533.51
623.24	531.91
623.59	530.20
623.93	528.47
624.28	526.72
624.62	525.46
624.97	524.04
625.32	522.28
625.66	520.76
626.01	519.08
626.35	517.52
626.70	515.84
627.04	514.47
627.39	512.77
627.73	511.29
628.08	509.81
628.43	508.19
628.77	506.42
629.12	504.93
629.46	503.41
629.81	501.95
630.15	500.43
630.50	498.63
630.84	497.01
631.19	495.39
631.53	493.81
631.88	491.80
632.22	490.06
632.57	488.76
632.91	487.07
633.26	485.64
633.60	483.99
633.95	482.59
634.29	480.77
634.64	479.23
634.98	477.51
635.32	476.02
635.67	474.67
636.01	473.03
636.36	471.40
636.70	470.01
637.05	468.39
637.39	466.84
637.73	465.53
638.08	464.32
638.42	462.83
638.77	461.51
639.11	460.04
639.45	458.43
639.80	456.58
640.14	455.00
640.49	453.35
640.83	451.74
641.17	450.22
641.52	448.64
641.86	447.04
642.20	445.64
642.55	443.85
642.89	442.18
643.23	440.67
643.58	439.12
643.92	437.38
644.26	435.84
644.61	434.36
644.95	432.68
645.29	430.92
645.64	429.44
645.98	427.66
646.32	426.27
646.66	424.63
647.01	423.16
647.35	421.70
647.69	420.02
648.04	418.58
648.38	416.87
648.72	415.46
649.06	413.90
649.41	412.20
649.75	410.72
650.09	409.25
650.43	407.79
650.78	406.11
651.12	404.56
651.46	403.18
651.80	401.73
652.14	400.18
652.49	398.75
652.83	397.08
653.17	395.50
653.51	393.88
653.85	392.62
654.20	391.22
654.54	389.69
654.88	388.25
655.22	386.80
655.56	385.39
655.90	383.87
656.25	382.24
656.59	380.91
656.93	379.47
657.27	378.07
657.61	376.45
657.95	375.18
658.29	373.85
658.64	372.46
658.98	370.94
659.32	369.41
659.66	367.95
660.00	366.60
660.34	365.24
660.68	363.82
661.02	362.29
661.36	360.84
661.70	359.49
662.05	358.21
662.39	357.00
662.73	355.84
663.07	354.78
663.41	353.65
663.75	352.32
664.09	351.22
664.43	349.91
664.77	348.73
665.11	347.47
665.45	346.12
665.79	344.85
666.13	343.67
666.47	342.55
666.81	341.29
667.15	339.96
667.49	338.94
667.83	337.94
668.17	336.69
668.51	335.61
668.85	334.59
669.19	333.54
669.53	332.27
669.87	330.98
670.21	329.80
670.55	328.78
670.89	327.88
671.23	326.73
671.57	325.68
671.91	324.70
672.25	323.67
672.58	322.75
672.92	321.65
673.26	320.67
673.60	319.71
673.94	318.80
674.28	317.97
674.62	316.98
674.96	315.93
675.30	315.10
675.64	314.19
675.97	313.14
676.31	312.20
676.65	311.40
676.99	310.66
677.33	309.65
677.67	308.76
678.01	307.70
678.34	306.87
678.68	306.10
679.02	305.15
679.36	304.28
679.70	303.34
680.04	302.46
680.37	301.52
680.71	300.68
681.05	299.88
681.39	299.03
681.73	298.23
682.06	297.40
682.40	296.70
682.74	295.87
683.08	295.27
683.42	294.37
683.75	293.51
684.09	292.70
684.43	291.93
684.77	291.13
685.10	290.43
685.44	289.56
685.78	288.68
686.12	288.05
686.45	287.37
686.79	286.66
687.13	286.08
687.46	285.40
687.80	284.85
688.14	284.09
688.48	283.42
688.81	282.62
689.15	282.06
689.49	281.27
689.82	280.65
690.16	279.74
690.50	279.06
690.83	278.34
691.17	277.50
691.51	276.87
691.84	276.25
692.18	275.60
692.52	274.97
692.85	274.50
693.19	273.96
693.52	273.36
693.86	272.66
694.20	271.87
694.53	271.33
694.87	270.57
695.21	269.99
695.54	269.34
695.88	268.65
696.21	267.90
696.55	267.30
696.88	266.55
697.22	266.05
697.56	265.58
697.89	265.06
698.23	264.58
698.56	263.97
698.90	263.40
699.23	262.76
699.57	262.25
699.90	261.55
700.24	260.82
700.58	260.30
700.91	259.86
701.25	259.71
701.58	259.19
701.92	258.75
702.25	258.26
702.59	257.77
702.92	257.40
703.26	257.04
703.59	256.56
703.93	256.54
704.26	256.10
704.60	255.58
704.93	255.12
705.26	254.72
705.60	254.33
705.93	253.85
706.27	253.63
706.60	253.30
706.94	253.00
707.27	252.65
707.61	252.15
707.94	251.69
708.27	250.90
708.61	250.45
708.94	250.02
709.28	249.61
709.61	249.15
709.94	248.90
710.28	248.52
710.61	248.28
710.95	247.44
711.28	247.35
711.61	247.04
711.95	246.71
712.28	246.26
712.61	245.96
712.95	245.75
713.28	245.50
713.61	244.98
713.95	244.54
714.28	244.25
714.61	243.91
714.95	243.56
715.28	243.31
715.61	243.02
715.95	242.70
716.28	242.26
716.61	242.01
716.95	241.52
717.28	241.13
717.61	240.69
717.94	240.50
718.28	239.92
718.61	239.60
718.94	239.33
719.27	239.04
719.61	238.73
719.94	238.43
720.27	237.95
720.60	237.73
720.94	237.44
721.27	237.10
721.60	236.89
721.93	236.66
722.27	236.52
722.60	236.26
722.93	235.98
723.26	235.82
723.59	235.57
723.93	235.40
724.26	235.11
724.59	234.92
724.92	234.62
725.25	234.48
725.59	234.28
725.92	234.02
726.25	233.82
726.58	233.62
726.91	233.32
727.24	233.19
727.57	232.95
727.91	232.78
728.24	232.57
728.57	232.37
728.90	232.19
729.23	231.80
729.56	231.75
729.89	231.58
730.22	231.45
730.55	231.22
730.89	231.00
731.22	230.78
731.55	230.58
731.88	230.49
732.21	230.24
732.54	229.95
732.87	229.78
733.20	229.62
733.53	229.41
733.86	229.25
734.19	228.98
734.52	228.85
734.85	228.92
735.18	228.66
735.51	228.57
735.84	228.40
736.17	228.38
736.50	228.06
736.83	228.27
737.16	228.07
737.49	227.88
737.82	227.71
738.15	227.65
738.48	227.45
738.81	227.25
739.14	227.06
739.47	226.99
739.80	226.88
740.13	226.64
740.46	226.40
740.79	226.22
741.12	226.02
741.45	225.76
741.78	225.37
742.11	225.39
742.44	225.12
742.77	225.09
743.10	224.84
743.43	224.68
743.75	224.16
744.08	224.46
744.41	224.32
744.74	224.18
745.07	224.05
745.40	224.03
745.73	224.07
746.06	224.01
746.39	223.95
746.71	223.69
747.04	223.64
747.37	223.53
747.70	223.47
748.03	223.45
748.36	223.46
748.68	223.34
749.01	223.16
749.34	223.08
749.67	222.93
750.00	222.87
750.33	222.95
750.65	222.85
750.98	222.31
751.31	222.21
751.64	222.08
751.97	222.15
752.29	222.02
752.62	221.69
752.95	221.55
753.28	221.36
753.60	221.28
753.93	221.27
754.26	221.20
754.59	220.98
754.91	220.79
755.24	220.66
755.57	220.54
755.90	220.40
756.22	220.30
756.55	220.14
756.88	219.96
757.20	219.69
757.53	219.46
757.86	219.34
758.19	219.25
758.51	219.16
758.84	218.85
759.17	218.68
759.49	218.66
759.82	218.71
760.15	218.67
760.47	218.59
760.80	218.39
761.13	218.40
761.45	218.38
761.78	218.32
762.11	218.30
762.43	218.26
762.76	218.15
763.08	218.11
763.41	218.06
763.74	218.04
764.06	217.98
764.39	218.00
764.71	217.91
765.04	217.88
765.37	217.81
765.69	217.68
766.02	217.62
766.34	217.58
766.67	217.39
767.00	217.38
767.32	217.48
767.65	217.59
767.97	217.43
768.30	217.38
768.62	217.29
768.95	217.17
769.27	217.01
769.60	217.01
769.92	216.92
770.25	216.76
770.57	216.68
770.90	216.58
771.22	216.57
771.55	216.59
771.87	216.55
772.20	216.49
772.52	216.71
772.85	217.05
773.17	216.98
773.50	216.88
773.82	216.70
774.15	216.54
774.47	216.36
774.80	216.31
775.12	216.19
775.45	216.22
775.77	216.14
776.09	216.15
776.42	216.15
776.74	216.11
777.07	216.06
777.39	216.03
777.72	215.97
778.04	215.89
778.36	215.70
778.69	215.62
779.01	215.63
779.33	215.39
779.66	215.00
779.98	214.94
780.31	214.96
780.63	215.06
780.95	215.07
781.28	214.93
781.60	214.84
781.92	214.86
782.25	214.78
782.57	214.73
782.89	214.63
783.22	214.52
783.54	214.38
783.86	214.47
784.19	214.42
784.51	214.48
784.83	214.35
785.16	214.36
785.48	214.39
785.80	214.32
786.12	214.34
786.45	214.34
786.77	214.25
787.09	214.13
787.42	213.97
787.74	213.99
788.06	214.03
788.38	213.98
788.71	213.90
789.03	213.91
789.35	213.97
789.67	214.01
789.99	214.04
790.32	214.10
790.64	214.11
790.96	214.42
791.28	214.30
791.61	214.33
791.93	214.37
792.25	214.29
792.57	214.53
792.89	214.41
793.21	214.42
793.54	214.47
793.86	214.47
794.18	214.51
794.50	214.36
794.82	214.31
795.14	214.34
795.47	214.40
795.79	214.33
796.11	214.25
796.43	214.15
796.75	214.14
797.07	214.08
797.39	214.03
797.71	213.73
798.04	213.71
798.36	213.69
798.68	213.68
799.00	213.65
799.32	213.44
799.64	213.53
799.96	213.51
800.28	213.50
800.60	213.41
800.92	213.39
801.24	213.35
801.56	213.35
801.89	213.35
802.21	213.38
802.53	213.32
802.85	213.35
803.17	213.50
803.49	213.38
803.81	213.35
804.13	213.26
804.45	213.17
804.77	213.11
805.09	213.14
805.41	213.05
805.73	213.00
806.05	212.94
806.37	212.83
806.69	212.78
807.01	212.78
807.33	212.85
807.65	212.80
807.97	212.93
808.28	212.91
808.60	212.83
808.92	212.72
809.24	212.90
809.56	212.82
809.88	212.77
810.20	212.74
810.52	212.83
810.84	212.74
811.16	212.75
811.48	212.80
811.80	212.91
812.12	212.85
812.43	212.91
812.75	212.89
813.07	212.81
813.39	212.80
813.71	212.73
814.03	212.72
814.35	212.71
814.67	212.57
814.98	212.45
815.30	212.46
815.62	212.35
815.94	212.14
816.26	212.19
816.58	212.07
816.89	212.10
817.21	212.01
817.53	212.00
817.85	211.95
818.17	211.90
818.48	211.78
818.80	211.89
819.12	211.84
819.44	211.80
819.76	211.87
820.07	211.79
820.39	211.75
820.71	211.69
821.03	211.67
821.34	211.58
821.66	211.73
821.98	211.78
822.30	211.80
822.61	212.01
822.93	211.89
823.25	211.87
823.57	211.90
823.88	211.96
824.20	211.93
824.52	212.01
824.83	212.01
825.15	211.95
825.47	211.79
825.79	211.81
826.10	211.79
826.42	211.75
826.74	211.83
827.05	211.85
827.37	211.89
827.69	211.81
828.00	211.93
828.32	211.84
828.64	211.78
828.95	212.00
829.27	211.90
829.58	212.00
829.90	212.10
830.22	212.05
830.53	211.93
830.85	212.01
831.17	211.88
831.48	211.86
831.80	211.84
832.11	211.89
832.43	211.81
832.75	211.77
833.06	211.85
833.38	211.72
833.69	211.69
834.01	211.66
834.32	211.71
834.64	211.68
834.96	211.68
835.27	211.70
835.59	211.53
835.90	211.41
836.22	211.38
836.53	211.20
836.85	211.21
837.16	211.54
837.48	211.50
837.79	211.69
838.11	211.79
838.42	211.81
838.74	211.85
839.05	211.81
839.37	211.86
839.68	211.70
840.00	211.74
840.31	211.80
840.63	211.81
840.94	211.69
841.26	211.66
841.57	211.67
841.88	211.70
842.20	211.65
842.51	211.59
842.83	211.59
843.14	212.02
843.46	212.03
843.77	211.86
844.08	211.84
844.40	211.74
844.71	211.69
845.03	211.71
845.34	211.68
845.65	211.70
845.97	211.67
846.28	211.73
846.60	211.80
846.91	211.79
847.22	211.78
847.54	211.96
847.85	211.93
848.16	211.89
848.48	211.75
848.79	211.96
849.10	212.09
849.42	212.12
849.73	211.72
850.04	211.68
850.36	211.58
850.67	211.60
850.98	211.54
851.30	211.51
851.61	211.45
851.92	211.39
852.23	211.52
852.55	211.55
852.86	211.56
853.17	211.54
853.49	211.60
853.80	211.67
854.11	211.70
854.42	211.70
854.74	211.74
855.05	211.82
855.36	211.63
855.67	211.61
855.99	211.57
856.30	212.04
856.61	212.02
856.92	211.94
857.23	211.95
857.55	211.96
857.86	211.94
858.17	211.96
858.48	211.93
858.79	211.88
859.11	211.89
859.42	211.87
859.73	211.85
860.04	211.76
860.35	211.62
860.66	211.50
860.98	211.54
861.29	211.53
861.60	211.50
861.91	211.60
862.22	211.58
862.53	211.51
862.84	211.08
863.16	211.20
863.47	211.22
863.78	211.20
864.09	211.21
864.40	211.22
864.71	211.26
865.02	211.30
865.33	211.21
865.64	211.12
865.95	211.16
866.27	211.33
866.58	211.35
866.89	211.36
867.20	211.32
867.51	211.26
867.82	211.24
868.13	211.41
868.44	211.23
868.75	211.27
869.06	211.38
869.37	211.44
869.68	211.32
869.99	211.40
870.30	211.47
870.61	211.55
870.92	211.47
871.23	211.53
871.54	211.56
871.85	211.69
872.16	211.79
872.47	211.69
872.78	211.53
873.09	211.53
873.40	211.61
873.71	211.62
874.02	211.60
874.33	211.48
874.64	211.33
874.95	211.43
875.26	211.25
875.56	211.19
875.87	211.16
876.18	211.16
876.49	211.43
876.80	211.31
877.11	211.20
877.42	211.22
877.73	211.17
878.04	211.08
878.35	211.05
878.66	211.09
878.96	211.04
879.27	211.01
879.58	210.95
879.89	210.82
880.20	210.96
880.51	210.98
880.82	211.07
881.12	211.08
881.43	210.98
881.74	211.02
882.05	210.96
882.36	210.92
882.67	210.97
882.97	210.63
883.28	210.64
883.59	210.61
883.90	210.62
884.21	210.62
884.51	210.61
884.82	210.57
885.13	210.53
885.44	210.62
885.74	210.63
886.05	210.64
886.36	210.65
886.67	210.54
886.98	210.74
887.28	210.77
887.59	210.70
887.90	210.73
888.20	210.76
888.51	210.85
888.82	210.85
889.13	210.80
889.43	211.10
889.74	211.05
890.05	211.06
890.35	211.07
890.66	211.11
890.97	211.15
891.28	211.14
891.58	211.16
891.89	211.10
892.20	211.10
892.50	211.09
892.81	211.11
893.12	211.10
893.42	210.99
893.73	211.00
894.04	211.06
894.34	211.12
894.65	211.12
894.95	211.12
895.26	211.14
895.57	211.35
895.87	211.12
896.18	211.23
896.48	211.25
896.79	211.29
897.10	211.25
897.40	211.27
897.71	211.24
898.01	211.18
898.32	211.28
898.63	211.27
898.93	211.29
899.24	211.29
899.54	211.32
899.85	211.30
900.15	211.29
900.46	211.39
900.76	211.40
901.07	211.45
901.38	211.45
901.68	211.51
901.99	211.41
902.29	211.26
902.60	211.26
902.90	211.29
903.21	211.26
903.51	211.21
903.82	211.23
904.12	211.27
904.43	211.30
904.73	211.26
905.03	211.32
905.34	211.66
905.64	211.69
905.95	211.65
906.25	211.66
906.56	211.68
906.86	211.59
907.17	211.63
907.47	211.66
907.77	211.65
908.08	211.55
908.38	211.49
908.69	211.60
908.99	211.74
909.30	211.80
909.60	211.83
909.90	211.87
910.21	211.80
910.51	211.79
910.81	211.87
911.12	211.86
911.42	211.85
911.73	211.45
912.03	211.44
912.33	211.45
912.64	211.38
912.94	211.34
913.24	211.29
913.55	211.21
913.85	211.08
914.15	211.18
914.46	211.27
914.76	211.26
915.06	211.25
915.37	211.11
915.67	211.07
915.97	211.10
916.27	211.08
916.58	211.15
916.88	211.11
917.18	211.02
917.49	211.34
917.79	211.30
918.09	211.41
918.39	211.60
918.70	211.59
919.00	211.60
919.30	211.79
919.60	211.83
919.91	211.88
920.21	211.88
920.51	211.74
920.81	211.73
921.12	211.77
921.42	211.75
921.72	211.73
922.02	211.67
922.32	211.68
922.63	211.62
922.93	211.78
923.23	211.80
923.53	211.71
923.83	211.36
924.13	211.48
924.44	211.46
924.74	211.46
925.04	211.52
925.34	211.53
925.64	211.40
925.94	211.41
926.24	211.49
926.55	211.48
926.85	211.54
927.15	211.53
927.45	211.51
927.75	211.50
928.05	211.55
928.35	211.51
928.65	211.61
928.95	211.73
929.26	211.55
929.56	211.62
929.86	211.72
930.16	211.71
930.46	211.60
930.76	211.63
931.06	211.41
931.36	211.36
931.66	211.39
931.96	211.36
932.26	211.33
932.56	211.21
932.86	211.24
933.16	211.27
933.46	211.18
933.76	211.16
934.06	211.25
934.36	211.34
934.66	211.39
934.96	211.24
935.26	211.21
935.56	211.29
935.86	211.23
936.16	211.19
936.46	211.23
936.76	211.21
937.06	211.15
937.36	211.16
937.66	211.18
937.96	211.15
938.26	211.11
938.56	211.11
938.86	211.17
939.16	211.26
939.46	211.29
939.76	211.34
940.06	211.30
940.35	211.23
940.65	211.00
940.95	210.98
941.25	210.93
941.55	210.92
941.85	210.86
942.15	210.87
942.45	210.95
942.75	210.92
943.04	211.00
943.34	211.03
943.64	211.03
943.94	210.99
944.24	210.98
944.54	211.02
944.84	211.06
945.13	211.01
945.43	210.93
945.73	210.90
946.03	210.87
946.33	210.79
946.62	210.80
946.92	210.78
947.22	210.85
947.52	210.85
947.82	210.84
948.11	210.88
948.41	210.83
948.71	210.75
949.01	210.73
949.31	210.63
949.60	210.60
949.90	210.74
950.20	210.74
950.50	210.79
950.79	210.73
951.09	210.80
951.39	210.76
951.69	210.70
951.98	210.73
952.28	210.76
952.58	210.84
952.87	210.78
953.17	210.87
953.47	210.84
953.76	210.88
954.06	210.84
954.36	210.68
954.66	210.70
954.95	210.77
955.25	210.85
955.55	210.91
955.84	210.93
956.14	210.89
956.44	210.90
956.73	210.82
957.03	210.88
957.32	210.76
957.62	210.77
957.92	210.86
958.21	210.82
958.51	211.24
958.81	211.21
959.10	211.24
959.40	211.30
959.69	211.32
959.99	211.38
960.29	211.41
960.58	211.55
960.88	211.62
961.17	211.63
961.47	211.64
961.76	211.58
962.06	211.55
962.36	211.50
962.65	211.49
962.95	211.56
963.24	211.50
963.54	211.55
963.83	211.60
964.13	211.54
964.42	211.49
964.72	211.21
965.01	211.29
965.31	211.28
965.60	211.25
965.90	211.45
966.19	211.35
966.49	211.34
966.78	211.23
967.08	211.25
967.37	211.20
967.67	211.10
967.96	211.15
968.26	211.22
968.55	211.25
968.85	211.27
969.14	211.21
969.43	211.13
969.73	211.02
970.02	211.00
970.32	210.98
970.61	210.93
970.91	210.78
971.20	210.74
971.49	210.65
971.79	210.61
972.08	210.40
972.38	210.46
972.67	210.43
972.96	210.47
973.26	210.41
973.55	210.49
973.85	210.50
974.14	210.42
974.43	210.41
974.73	210.34
975.02	210.33
975.31	210.32
975.61	210.43
975.90	210.51
976.19	210.45
976.49	210.48
976.78	210.52
977.07	210.54
977.37	210.50
977.66	210.58
977.95	210.53
978.24	210.48
978.54	210.55
978.83	210.52
979.12	210.56
979.42	210.54
979.71	210.50
980.00	210.49
980.29	210.51
980.59	210.45
980.88	210.58
981.17	210.53
981.46	210.55
981.76	210.47
982.05	210.53
982.34	210.62
982.63	210.58
982.93	210.57
983.22	210.64
983.51	210.69
983.80	210.78
984.09	210.86
984.39	210.86
984.68	210.83
984.97	210.86
985.26	210.78
985.55	210.83
985.85	210.74
986.14	210.81
986.43	210.80
986.72	210.78
987.01	210.59
987.30	210.61
987.59	210.54
987.89	210.59
988.18	210.50
988.47	210.54
988.76	210.54
989.05	210.58
989.34	210.56
989.63	210.62
989.92	210.56
990.22	210.51
990.51	210.53
990.80	210.46
991.09	210.53
991.38	210.57
991.67	210.52
991.96	210.49
992.25	210.50
992.54	210.55
992.83	210.59
993.12	210.68
993.41	210.80
993.70	211.02
993.99	211.11
994.28	211.07
994.58	211.03
994.87	211.09
995.16	211.08
995.45	211.03
995.74	210.92
996.03	210.96
996.32	211.01
996.61	211.03
996.90	211.00
997.19	210.98
997.48	211.00
997.77	210.96
998.06	210.99
998.34	210.93
998.63	210.86
998.92	210.86
999.21	210.94
999.50	210.89
999.79	210.75
1000.08	210.76
1000.37	210.82
1000.66	210.79
1000.95	210.85
1001.24	210.84
1001.53	210.84
1001.82	210.82
1002.11	210.76
1002.40	210.81
1002.68	210.90
1002.97	211.20
1003.26	211.17
1003.55	211.14
1003.84	211.19
1004.13	211.33
1004.42	211.25
1004.71	211.35
1004.99	211.33
1005.28	211.36
1005.57	211.32
1005.86	211.29
1006.15	211.25
1006.44	211.21
1006.72	211.27
1007.01	211.11
1007.30	211.10
1007.59	211.11
1007.88	211.16
1008.17	211.16
1008.45	211.08
1008.74	210.98
1009.03	210.81
1009.32	210.79
1009.60	210.82
1009.89	210.82
1010.18	210.61
1010.47	210.71
1010.76	210.65
1011.04	210.60
1011.33	210.68
1011.62	210.69
1011.91	210.64
1012.19	210.67
1012.48	210.69
1012.77	210.63
1013.05	210.84
1013.34	210.86
1013.63	210.82
1013.92	210.80
1014.20	210.74
1014.49	210.81
1014.78	210.80
1015.06	210.68
1015.35	210.71
1015.64	210.71
1015.92	210.75
1016.21	210.85
1016.50	210.84
1016.78	210.89
1017.07	210.94
1017.36	210.76
1017.64	210.71
1017.93	210.79
1018.22	210.72
1018.50	210.75
1018.79	210.75
1019.08	210.65
1019.36	210.68
1019.65	210.67
1019.93	210.72
1020.22	210.85
1020.51	210.94
1020.79	210.88
1021.08	210.50
1021.36	210.85
1021.65	210.50
1021.94	211.50
1022.22	211.10
1022.51	209.80
1022.79	211.75
1023.08	211.65
1023.36	213.90
1023.65	209.45
>>>>>End Processed Spectral Data<<<<<
