SpectraSuite Data File
++++++++++++++++++++++++++++++++++++
Date: Mon Feb 25 17:19:13 EST 2013
User: group
Dark Spectrum Present: No
Reference Spectrum Present: No
Number of Sampled Component Spectra: 1
Spectrometers: USB2E7196
Integration Time (usec): 104000 (USB2E7196)
Spectra Averaged: 20 (USB2E7196)
Boxcar Smoothing: 10 (USB2E7196)
Correct for Electrical Dark: No (USB2E7196)
Strobe/Lamp Enabled: No (USB2E7196)
Correct for Detector Non-linearity: No (USB2E7196)
Correct for Stray Light: No (USB2E7196)
Number of Pixels in Processed Spectrum: 2048
>>>>>Begin Processed Spectral Data<<<<<
339.09	0.00
339.48	199.95
339.86	200.35
340.24	201.70
340.63	203.10
341.01	210.40
341.39	206.20
341.78	207.55
342.16	209.40
342.54	207.95
342.93	198.67
343.31	208.70
343.69	209.19
344.07	209.67
344.46	210.13
344.84	210.53
345.22	210.58
345.60	210.86
345.99	211.14
346.37	211.22
346.75	211.39
347.13	211.43
347.52	211.52
347.90	211.68
348.28	211.70
348.66	211.78
349.05	211.66
349.43	211.81
349.81	211.89
350.19	212.00
350.57	212.09
350.96	212.25
351.34	212.41
351.72	212.48
352.10	212.61
352.48	212.65
352.87	212.71
353.25	212.72
353.63	212.78
354.01	212.72
354.39	212.80
354.77	212.95
355.15	213.03
355.54	213.03
355.92	212.95
356.30	213.04
356.68	213.32
357.06	213.45
357.44	213.46
357.82	213.51
358.20	213.54
358.58	213.52
358.97	213.52
359.35	213.64
359.73	213.84
360.11	213.85
360.49	213.91
360.87	213.92
361.25	214.14
361.63	214.30
362.01	214.49
362.39	214.57
362.77	214.62
363.15	214.65
363.53	214.67
363.91	214.76
364.29	214.80
364.67	214.51
365.05	214.55
365.43	214.64
365.81	214.73
366.19	214.90
366.57	215.13
366.95	215.20
367.33	215.07
367.71	215.05
368.09	215.17
368.47	215.21
368.85	215.25
369.23	215.17
369.61	215.03
369.99	215.10
370.37	215.08
370.75	215.20
371.13	215.14
371.51	215.17
371.89	215.20
372.27	215.24
372.65	215.23
373.03	215.20
373.41	215.12
373.78	215.00
374.16	214.85
374.54	214.69
374.92	214.68
375.30	214.66
375.68	214.58
376.06	214.52
376.44	214.43
376.82	214.45
377.19	214.48
377.57	214.46
377.95	214.28
378.33	214.24
378.71	213.93
379.09	213.97
379.47	213.93
379.84	213.85
380.22	213.74
380.60	213.67
380.98	213.62
381.36	213.62
381.73	213.60
382.11	213.58
382.49	213.54
382.87	213.43
383.25	213.39
383.62	213.70
384.00	213.59
384.38	213.54
384.76	213.56
385.13	213.58
385.51	213.58
385.89	213.50
386.27	213.40
386.64	213.47
387.02	213.36
387.40	213.25
387.78	213.24
388.15	213.26
388.53	213.20
388.91	213.10
389.29	213.08
389.66	213.10
390.04	213.09
390.42	213.18
390.79	213.16
391.17	213.22
391.55	212.85
391.92	212.84
392.30	212.94
392.68	212.88
393.05	212.85
393.43	212.76
393.81	212.80
394.18	212.84
394.56	212.78
394.94	212.93
395.31	213.00
395.69	213.11
396.06	213.07
396.44	213.16
396.82	213.19
397.19	213.32
397.57	213.38
397.95	213.42
398.32	213.32
398.70	213.41
399.07	213.45
399.45	213.46
399.82	213.53
400.20	213.49
400.58	213.49
400.95	213.41
401.33	213.56
401.70	213.83
402.08	213.89
402.45	214.00
402.83	214.13
403.20	214.23
403.58	214.21
403.95	214.41
404.33	214.45
404.71	214.57
405.08	214.86
405.46	214.96
405.83	215.10
406.21	215.26
406.58	215.42
406.96	215.60
407.33	215.88
407.70	216.12
408.08	216.63
408.45	217.02
408.83	217.47
409.20	217.76
409.58	217.90
409.95	218.33
410.33	218.75
410.70	219.03
411.08	219.51
411.45	220.06
411.82	220.53
412.20	221.18
412.57	221.99
412.95	222.33
413.32	223.05
413.69	223.69
414.07	224.48
414.44	225.35
414.82	226.18
415.19	227.15
415.56	228.19
415.94	229.02
416.31	230.18
416.68	231.28
417.06	232.51
417.43	233.89
417.81	235.34
418.18	236.89
418.55	238.53
418.93	240.21
419.30	241.95
419.67	243.75
420.04	245.70
420.42	247.64
420.79	250.10
421.16	252.45
421.54	255.05
421.91	257.52
422.28	260.00
422.66	262.71
423.03	265.51
423.40	268.21
423.77	271.22
424.15	274.14
424.52	277.23
424.89	280.66
425.26	283.86
425.64	287.00
426.01	290.35
426.38	293.96
426.75	297.59
427.13	301.32
427.50	305.27
427.87	309.36
428.24	313.45
428.61	317.31
428.99	321.70
429.36	326.29
429.73	330.90
430.10	335.54
430.47	340.25
430.85	344.96
431.22	350.14
431.59	355.78
431.96	361.00
432.33	366.85
432.70	372.45
433.08	378.95
433.45	385.00
433.82	391.13
434.19	397.84
434.56	404.47
434.93	410.80
435.30	417.21
435.68	424.22
436.05	431.11
436.42	437.85
436.79	444.07
437.16	450.83
437.53	457.89
437.90	464.90
438.27	471.98
438.64	479.27
439.01	485.92
439.38	491.64
439.75	497.38
440.13	503.88
440.50	510.02
440.87	515.01
441.24	520.24
441.61	525.92
441.98	530.16
442.35	535.01
442.72	539.95
443.09	544.71
443.46	547.44
443.83	549.25
444.20	551.06
444.57	553.33
444.94	554.33
445.31	555.45
445.68	556.83
446.05	557.05
446.42	556.00
446.79	555.12
447.16	554.10
447.53	553.36
447.90	550.52
448.27	547.66
448.64	543.95
449.01	541.25
449.37	536.48
449.74	531.89
450.11	526.59
450.48	520.70
450.85	514.48
451.22	509.19
451.59	504.21
451.96	499.33
452.33	493.08
452.70	487.38
453.07	480.51
453.43	473.26
453.80	466.63
454.17	460.44
454.54	454.34
454.91	447.86
455.28	441.53
455.65	435.67
456.02	430.27
456.38	425.29
456.75	419.16
457.12	414.00
457.49	408.88
457.86	403.76
458.23	399.56
458.59	395.05
458.96	390.56
459.33	386.47
459.70	382.30
460.07	378.93
460.43	375.17
460.80	371.74
461.17	368.77
461.54	365.55
461.91	362.43
462.27	359.37
462.64	356.77
463.01	353.79
463.38	351.15
463.74	347.94
464.11	345.38
464.48	343.16
464.85	340.88
465.21	339.20
465.58	337.38
465.95	334.94
466.32	333.09
466.68	331.16
467.05	329.37
467.42	327.66
467.78	325.74
468.15	323.98
468.52	322.67
468.88	320.85
469.25	319.27
469.62	318.03
469.98	316.66
470.35	315.52
470.72	314.39
471.08	313.12
471.45	312.15
471.82	311.25
472.18	310.17
472.55	309.47
472.92	308.46
473.28	307.75
473.65	307.14
474.02	306.43
474.38	306.08
474.75	305.69
475.11	305.17
475.48	305.02
475.85	304.85
476.21	304.68
476.58	304.64
476.94	304.70
477.31	304.72
477.67	304.82
478.04	304.93
478.41	305.23
478.77	305.76
479.14	305.99
479.50	306.36
479.87	306.94
480.23	307.44
480.60	307.91
480.96	308.51
481.33	309.46
481.69	310.30
482.06	311.06
482.42	311.85
482.79	312.95
483.15	314.10
483.52	315.39
483.88	316.63
484.25	317.93
484.61	319.53
484.98	321.06
485.34	322.86
485.71	324.67
486.07	326.62
486.44	328.44
486.80	330.78
487.17	333.16
487.53	335.77
487.90	338.53
488.26	341.65
488.62	344.72
488.99	347.69
489.35	350.92
489.72	354.39
490.08	358.07
490.44	361.79
490.81	365.78
491.17	369.79
491.54	374.18
491.90	378.89
492.26	383.72
492.63	389.02
492.99	394.38
493.36	400.11
493.72	406.07
494.08	412.27
494.45	418.83
494.81	425.75
495.17	432.70
495.54	440.10
495.90	447.61
496.26	455.56
496.63	464.02
496.99	472.71
497.35	481.67
497.72	491.20
498.08	501.06
498.44	511.10
498.80	521.97
499.17	533.16
499.53	544.58
499.89	556.47
500.26	568.63
500.62	581.31
500.98	594.59
501.34	608.24
501.71	622.25
502.07	636.64
502.43	651.45
502.79	666.55
503.16	682.21
503.52	698.60
503.88	715.25
504.24	732.36
504.60	749.95
504.97	768.36
505.33	786.85
505.69	806.45
506.05	826.41
506.41	846.33
506.78	866.61
507.14	887.58
507.50	909.04
507.86	930.79
508.22	953.10
508.59	975.60
508.95	998.96
509.31	1022.74
509.67	1046.98
510.03	1071.85
510.39	1097.51
510.75	1123.46
511.12	1149.51
511.48	1176.20
511.84	1203.20
512.20	1230.40
512.56	1258.13
512.92	1286.36
513.28	1314.41
513.64	1343.07
514.00	1371.73
514.37	1400.89
514.73	1430.28
515.09	1459.90
515.45	1489.86
515.81	1519.69
516.17	1549.45
516.53	1579.53
516.89	1609.85
517.25	1640.17
517.61	1670.63
517.97	1700.98
518.33	1731.29
518.69	1761.75
519.05	1792.56
519.41	1823.39
519.77	1855.08
520.13	1885.44
520.49	1915.66
520.85	1946.35
521.21	1976.86
521.57	2008.00
521.93	2038.26
522.29	2069.51
522.65	2100.59
523.01	2130.75
523.37	2160.86
523.73	2191.48
524.09	2221.71
524.45	2252.32
524.81	2282.75
525.17	2312.95
525.53	2342.97
525.89	2372.86
526.25	2402.38
526.61	2430.69
526.97	2459.15
527.33	2487.13
527.68	2515.80
528.04	2543.82
528.40	2570.93
528.76	2598.01
529.12	2625.70
529.48	2654.17
529.84	2681.25
530.20	2707.64
530.56	2734.67
530.91	2762.31
531.27	2789.25
531.63	2815.05
531.99	2840.45
532.35	2865.10
532.71	2889.14
533.07	2914.01
533.42	2937.72
533.78	2961.89
534.14	2985.42
534.50	3007.53
534.86	3030.76
535.21	3051.99
535.57	3074.90
535.93	3096.65
536.29	3117.92
536.65	3138.24
537.00	3157.26
537.36	3176.14
537.72	3194.45
538.08	3212.65
538.44	3230.64
538.79	3248.33
539.15	3266.15
539.51	3283.40
539.87	3301.47
540.22	3318.53
540.58	3335.76
540.94	3352.56
541.29	3367.24
541.65	3381.52
542.01	3396.95
542.37	3409.92
542.72	3424.75
543.08	3436.90
543.44	3450.83
543.79	3462.85
544.15	3474.21
544.51	3486.40
544.87	3498.33
545.22	3509.50
545.58	3519.40
545.94	3527.51
546.29	3534.97
546.65	3542.17
547.01	3549.41
547.36	3555.50
547.72	3562.09
548.07	3566.66
548.43	3571.30
548.79	3576.27
549.14	3581.07
549.50	3585.27
549.86	3589.01
550.21	3591.55
550.57	3595.57
550.92	3596.58
551.28	3598.53
551.64	3601.00
551.99	3603.10
552.35	3603.88
552.70	3604.88
553.06	3606.45
553.41	3607.62
553.77	3608.79
554.13	3609.62
554.48	3609.99
554.84	3610.67
555.19	3609.96
555.55	3608.52
555.90	3606.46
556.26	3604.55
556.61	3602.99
556.97	3600.34
557.32	3598.24
557.68	3595.20
558.03	3591.85
558.39	3589.26
558.74	3587.40
559.10	3584.78
559.45	3580.70
559.81	3577.64
560.16	3573.33
560.52	3569.33
560.87	3565.38
561.23	3560.04
561.58	3556.18
561.94	3550.57
562.29	3544.13
562.64	3539.41
563.00	3535.11
563.35	3531.52
563.71	3527.62
564.06	3522.84
564.42	3518.31
564.77	3514.25
565.12	3510.12
565.48	3504.90
565.83	3500.31
566.19	3495.40
566.54	3488.24
566.89	3482.38
567.25	3476.33
567.60	3470.87
567.96	3464.40
568.31	3458.38
568.66	3452.40
569.02	3444.61
569.37	3437.07
569.72	3430.56
570.08	3422.42
570.43	3414.37
570.78	3405.77
571.14	3396.50
571.49	3387.60
571.84	3379.46
572.20	3369.43
572.55	3360.58
572.90	3350.48
573.26	3339.64
573.61	3328.66
573.96	3318.83
574.31	3307.46
574.67	3295.49
575.02	3283.41
575.37	3271.85
575.72	3259.21
576.08	3248.32
576.43	3236.56
576.78	3225.88
577.13	3214.96
577.49	3204.37
577.84	3193.06
578.19	3182.30
578.54	3172.69
578.90	3162.82
579.25	3151.04
579.60	3139.00
579.95	3126.52
580.30	3116.03
580.66	3105.92
581.01	3094.26
581.36	3082.36
581.71	3071.07
582.06	3060.07
582.42	3049.42
582.77	3037.57
583.12	3026.08
583.47	3015.10
583.82	3004.37
584.17	2992.56
584.53	2981.01
584.88	2969.33
585.23	2957.72
585.58	2945.66
585.93	2933.03
586.28	2921.31
586.63	2909.82
586.98	2899.10
587.34	2889.07
587.69	2877.64
588.04	2866.04
588.39	2855.08
588.74	2843.41
589.09	2832.93
589.44	2821.30
589.79	2810.48
590.14	2800.02
590.49	2789.36
590.84	2777.64
591.19	2767.79
591.54	2757.07
591.89	2744.57
592.25	2732.90
592.60	2720.89
592.95	2709.07
593.30	2696.34
593.65	2684.01
594.00	2672.29
594.35	2662.23
594.70	2650.48
595.05	2639.31
595.40	2627.62
595.75	2615.67
596.10	2605.59
596.45	2594.70
596.80	2584.98
597.15	2574.26
597.50	2563.35
597.85	2552.55
598.19	2541.74
598.54	2530.07
598.89	2519.76
599.24	2511.19
599.59	2501.25
599.94	2492.72
600.29	2483.12
600.64	2474.26
600.99	2463.53
601.34	2453.89
601.69	2442.36
602.04	2431.33
602.39	2421.35
602.74	2411.57
603.08	2403.02
603.43	2393.72
603.78	2383.78
604.13	2373.58
604.48	2363.75
604.83	2355.13
605.18	2347.18
605.53	2337.46
605.87	2327.71
606.22	2318.26
606.57	2307.79
606.92	2297.62
607.27	2286.91
607.62	2276.79
607.96	2267.18
608.31	2258.66
608.66	2248.45
609.01	2238.45
609.36	2228.57
609.70	2217.37
610.05	2206.39
610.40	2195.27
610.75	2184.21
611.10	2174.12
611.44	2162.16
611.79	2150.33
612.14	2138.16
612.49	2125.23
612.83	2114.34
613.18	2102.33
613.53	2090.54
613.88	2078.29
614.22	2067.16
614.57	2055.28
614.92	2043.64
615.27	2031.84
615.61	2019.85
615.96	2008.57
616.31	1998.01
616.65	1987.52
617.00	1977.18
617.35	1966.69
617.70	1955.39
618.04	1943.33
618.39	1931.01
618.74	1920.54
619.08	1909.52
619.43	1898.42
619.78	1888.02
620.12	1877.03
620.47	1866.90
620.82	1855.31
621.16	1844.13
621.51	1832.94
621.85	1822.22
622.20	1811.38
622.55	1800.05
622.89	1788.84
623.24	1777.80
623.59	1766.24
623.93	1755.00
624.28	1744.06
624.62	1733.36
624.97	1722.76
625.32	1712.77
625.66	1702.85
626.01	1692.57
626.35	1682.79
626.70	1672.52
627.04	1662.84
627.39	1653.18
627.73	1643.08
628.08	1633.89
628.43	1624.02
628.77	1614.03
629.12	1603.92
629.46	1594.85
629.81	1585.52
630.15	1576.14
630.50	1566.57
630.84	1556.74
631.19	1547.17
631.53	1537.58
631.88	1527.54
632.22	1517.55
632.57	1508.25
632.91	1498.41
633.26	1488.94
633.60	1479.40
633.95	1470.49
634.29	1460.69
634.64	1451.17
634.98	1441.48
635.32	1432.41
635.67	1423.81
636.01	1415.01
636.36	1406.06
636.70	1396.83
637.05	1387.81
637.39	1379.15
637.73	1370.65
638.08	1362.95
638.42	1354.85
638.77	1346.21
639.11	1337.75
639.45	1329.63
639.80	1320.70
640.14	1311.93
640.49	1303.35
640.83	1294.58
641.17	1285.98
641.52	1277.12
641.86	1268.06
642.20	1259.60
642.55	1250.23
642.89	1241.23
643.23	1232.15
643.58	1224.05
643.92	1214.98
644.26	1206.65
644.61	1197.95
644.95	1189.19
645.29	1180.07
645.64	1171.12
645.98	1162.60
646.32	1154.54
646.66	1145.83
647.01	1137.67
647.35	1129.59
647.69	1120.69
648.04	1112.73
648.38	1104.13
648.72	1096.00
649.06	1087.83
649.41	1079.67
649.75	1071.66
650.09	1063.71
650.43	1055.76
650.78	1047.17
651.12	1039.14
651.46	1030.89
651.80	1023.12
652.14	1015.44
652.49	1007.60
652.83	999.81
653.17	991.51
653.51	983.34
653.85	975.75
654.20	967.86
654.54	960.03
654.88	952.77
655.22	944.96
655.56	937.40
655.90	929.75
656.25	922.19
656.59	914.76
656.93	907.62
657.27	900.46
657.61	892.95
657.95	885.85
658.29	878.73
658.64	871.81
658.98	864.62
659.32	857.24
659.66	850.26
660.00	843.01
660.34	836.15
660.68	829.19
661.02	822.01
661.36	815.35
661.70	808.88
662.05	802.45
662.39	796.48
662.73	790.31
663.07	784.49
663.41	778.40
663.75	772.20
664.09	765.79
664.43	759.46
664.77	753.65
665.11	747.76
665.45	741.93
665.79	736.12
666.13	730.39
666.47	724.74
666.81	719.22
667.15	713.63
667.49	708.60
667.83	703.40
668.17	698.54
668.51	693.60
668.85	688.61
669.19	683.62
669.53	678.24
669.87	673.14
670.21	668.00
670.55	663.04
670.89	658.49
671.23	654.11
671.57	649.60
671.91	645.04
672.25	640.27
672.58	635.65
672.92	631.14
673.26	626.77
673.60	622.63
673.94	618.05
674.28	613.85
674.62	609.60
674.96	605.37
675.30	600.95
675.64	596.68
675.97	592.34
676.31	588.33
676.65	584.40
676.99	580.72
677.33	576.55
677.67	572.70
678.01	568.60
678.34	564.64
678.68	560.76
679.02	556.82
679.36	553.28
679.70	549.59
680.04	545.75
680.37	541.85
680.71	538.00
681.05	534.60
681.39	531.02
681.73	527.48
682.06	524.12
682.40	520.92
682.74	517.55
683.08	514.30
683.42	510.73
683.75	507.31
684.09	503.75
684.43	500.47
684.77	497.13
685.10	493.75
685.44	490.33
685.78	486.97
686.12	483.90
686.45	480.71
686.79	477.64
687.13	474.75
687.46	471.79
687.80	468.88
688.14	465.72
688.48	462.80
688.81	459.68
689.15	456.75
689.49	453.61
689.82	450.61
690.16	447.47
690.50	444.50
690.83	441.52
691.17	438.46
691.51	435.61
691.84	432.85
692.18	430.20
692.52	427.76
692.85	425.43
693.19	422.97
693.52	420.38
693.86	417.77
694.20	415.26
694.53	412.89
694.87	410.34
695.21	407.92
695.54	405.45
695.88	402.99
696.21	400.50
696.55	398.32
696.88	396.03
697.22	393.76
697.56	391.68
697.89	389.45
698.23	387.27
698.56	385.23
698.90	383.19
699.23	380.98
699.57	378.76
699.90	376.58
700.24	374.38
700.58	372.32
700.91	370.46
701.25	368.68
701.58	366.68
701.92	364.78
702.25	362.86
702.59	360.98
702.92	359.25
703.26	357.43
703.59	355.64
703.93	354.10
704.26	352.34
704.60	350.45
704.93	348.75
705.26	347.19
705.60	345.58
705.93	343.80
706.27	342.31
706.60	340.79
706.94	339.48
707.27	337.90
707.61	336.31
707.94	334.66
708.27	332.71
708.61	331.10
708.94	329.58
709.28	328.05
709.61	326.63
709.94	325.25
710.28	323.80
710.61	322.43
710.95	320.81
711.28	319.79
711.61	318.49
711.95	317.26
712.28	315.96
712.61	314.55
712.95	313.46
713.28	312.36
713.61	311.12
713.95	309.71
714.28	308.52
714.61	307.35
714.95	306.27
715.28	305.15
715.61	304.05
715.95	302.96
716.28	301.89
716.61	300.68
716.95	299.53
717.28	298.47
717.61	297.33
717.94	296.28
718.28	295.01
718.61	293.98
718.94	292.99
719.27	291.96
719.61	291.00
719.94	289.94
720.27	288.80
720.60	287.80
720.94	286.85
721.27	285.94
721.60	285.04
721.93	284.11
722.27	283.45
722.60	282.63
722.93	281.79
723.26	280.98
723.59	280.16
723.93	279.36
724.26	278.60
724.59	277.84
724.92	277.12
725.25	276.45
725.59	275.77
725.92	275.19
726.25	274.44
726.58	273.72
726.91	273.03
727.24	272.39
727.57	271.79
727.91	271.01
728.24	270.47
728.57	269.84
728.90	269.30
729.23	268.53
729.56	268.05
729.89	267.43
730.22	266.80
730.55	266.20
730.89	265.57
731.22	264.98
731.55	264.35
731.88	263.77
732.21	263.09
732.54	262.40
732.87	261.66
733.20	261.03
733.53	260.46
733.86	259.89
734.19	259.39
734.52	258.87
734.85	258.65
735.18	258.03
735.51	257.60
735.84	257.10
736.17	256.73
736.50	255.97
736.83	255.92
737.16	255.45
737.49	255.06
737.82	254.51
738.15	253.98
738.48	253.57
738.81	253.02
739.14	252.55
739.47	252.02
739.80	251.59
740.13	251.21
740.46	250.73
740.79	250.21
741.12	249.65
741.45	249.12
741.78	248.46
742.11	248.15
742.44	247.63
742.77	247.25
743.10	246.74
743.43	246.39
743.75	245.52
744.08	245.59
744.41	245.12
744.74	244.80
745.07	244.43
745.40	244.07
745.73	243.90
746.06	243.47
746.39	243.22
746.71	242.80
747.04	242.44
747.37	242.13
747.70	241.87
748.03	241.60
748.36	241.31
748.68	240.98
749.01	240.55
749.34	240.22
749.67	239.84
750.00	239.58
750.33	239.52
750.65	239.28
750.98	238.43
751.31	238.13
751.64	237.86
751.97	237.71
752.29	237.34
752.62	236.86
752.95	236.55
753.28	236.22
753.60	235.97
753.93	235.73
754.26	235.45
754.59	235.12
754.91	234.85
755.24	234.53
755.57	234.32
755.90	234.05
756.22	233.80
756.55	233.48
756.88	233.17
757.20	232.60
757.53	232.18
757.86	232.01
758.19	231.75
758.51	231.49
758.84	231.00
759.17	230.85
759.49	230.64
759.82	230.57
760.15	230.33
760.47	230.10
760.80	229.80
761.13	229.55
761.45	229.29
761.78	229.06
762.11	228.90
762.43	228.68
762.76	228.46
763.08	228.28
763.41	228.10
763.74	227.90
764.06	227.75
764.39	227.62
764.71	227.40
765.04	227.23
765.37	227.04
765.69	226.92
766.02	226.67
766.34	226.48
766.67	226.18
767.00	226.13
767.32	226.09
767.65	226.05
767.97	225.86
768.30	225.78
768.62	225.65
768.95	225.44
769.27	225.22
769.60	225.10
769.92	224.86
770.25	224.68
770.57	224.46
770.90	224.32
771.22	224.20
771.55	224.08
771.87	223.95
772.20	223.79
772.52	223.93
772.85	224.23
773.17	224.05
773.50	223.95
773.82	223.74
774.15	223.45
774.47	223.18
774.80	223.09
775.12	222.88
775.45	222.72
775.77	222.64
776.09	222.55
776.42	222.47
776.74	222.49
777.07	222.37
777.39	222.30
777.72	222.17
778.04	222.08
778.36	222.01
778.69	221.88
779.01	221.80
779.33	221.40
779.66	220.88
779.98	220.75
780.31	220.64
780.63	220.66
780.95	220.66
781.28	220.60
781.60	220.42
781.92	220.42
782.25	220.30
782.57	220.24
782.89	220.16
783.22	219.98
783.54	219.87
783.86	219.80
784.19	219.68
784.51	219.65
784.83	219.55
785.16	219.38
785.48	219.33
785.80	219.26
786.12	219.23
786.45	219.18
786.77	219.20
787.09	219.10
787.42	218.97
787.74	218.85
788.06	218.70
788.38	218.67
788.71	218.54
789.03	218.51
789.35	218.43
789.67	218.25
789.99	218.24
790.32	218.09
790.64	218.09
790.96	218.31
791.28	218.08
791.61	218.00
791.93	217.99
792.25	217.89
792.57	218.07
792.89	217.93
793.21	217.85
793.54	217.71
793.86	217.68
794.18	217.53
794.50	217.44
794.82	217.46
795.14	217.46
795.47	217.42
795.79	217.36
796.11	217.23
796.43	217.25
796.75	217.15
797.07	217.12
797.39	217.04
797.71	216.78
798.04	216.92
798.36	216.81
798.68	216.72
799.00	216.70
799.32	216.46
799.64	216.50
799.96	216.52
800.28	216.58
800.60	216.49
800.92	216.54
801.24	216.53
801.56	216.51
801.89	216.42
802.21	216.38
802.53	216.33
802.85	216.38
803.17	216.49
803.49	216.43
803.81	216.42
804.13	216.39
804.45	216.32
804.77	216.27
805.09	216.30
805.41	216.26
805.73	216.16
806.05	216.04
806.37	215.97
806.69	215.85
807.01	215.74
807.33	215.74
807.65	215.56
807.97	215.67
808.28	215.53
808.60	215.47
808.92	215.47
809.24	215.59
809.56	215.50
809.88	215.35
810.20	215.40
810.52	215.32
810.84	215.18
811.16	215.13
811.48	215.05
811.80	215.17
812.12	215.14
812.43	215.19
812.75	215.23
813.07	215.19
813.39	215.27
813.71	215.24
814.03	215.14
814.35	215.16
814.67	214.95
814.98	214.98
815.30	215.01
815.62	214.95
815.94	214.68
816.26	214.65
816.58	214.60
816.89	214.56
817.21	214.55
817.53	214.59
817.85	214.54
818.17	214.48
818.48	214.30
818.80	214.34
819.12	214.23
819.44	214.07
819.76	214.07
820.07	214.02
820.39	213.99
820.71	214.11
821.03	214.05
821.34	214.04
821.66	214.03
821.98	213.99
822.30	213.88
822.61	214.11
822.93	214.07
823.25	214.03
823.57	213.90
823.88	213.90
824.20	213.84
824.52	213.92
824.83	213.86
825.15	213.78
825.47	213.79
825.79	213.78
826.10	213.81
826.42	213.68
826.74	213.65
827.05	213.68
827.37	213.62
827.69	213.59
828.00	213.59
828.32	213.58
828.64	213.62
828.95	213.80
829.27	213.63
829.58	213.58
829.90	213.55
830.22	213.57
830.53	213.40
830.85	213.37
831.17	213.25
831.48	213.30
831.80	213.38
832.11	213.31
832.43	213.28
832.75	213.20
833.06	213.43
833.38	213.30
833.69	213.13
834.01	213.10
834.32	213.06
834.64	212.96
834.96	213.01
835.27	212.97
835.59	212.87
835.90	212.80
836.22	212.80
836.53	212.78
836.85	212.77
837.16	213.19
837.48	213.10
837.79	213.23
838.11	213.22
838.42	213.14
838.74	213.14
839.05	213.08
839.37	213.10
839.68	212.86
840.00	212.88
840.31	212.95
840.63	212.88
840.94	212.90
841.26	212.82
841.57	212.74
841.88	212.73
842.20	212.62
842.51	212.58
842.83	212.52
843.14	212.77
843.46	212.77
843.77	212.53
844.08	212.60
844.40	212.45
844.71	212.44
845.03	212.38
845.34	212.36
845.65	212.42
845.97	212.47
846.28	212.53
846.60	212.54
846.91	212.50
847.22	212.50
847.54	212.55
847.85	212.62
848.16	212.62
848.48	212.56
848.79	212.73
849.10	212.75
849.42	212.78
849.73	212.43
850.04	212.39
850.36	212.33
850.67	212.38
850.98	212.37
851.30	212.37
851.61	212.38
851.92	212.39
852.23	212.43
852.55	212.36
852.86	212.34
853.17	212.37
853.49	212.45
853.80	212.56
854.11	212.60
854.42	212.67
854.74	212.65
855.05	212.69
855.36	212.55
855.67	212.62
855.99	212.60
856.30	213.12
856.61	213.17
856.92	213.18
857.23	213.17
857.55	213.15
857.86	213.08
858.17	213.14
858.48	213.15
858.79	213.09
859.11	213.16
859.42	213.18
859.73	213.08
860.04	213.06
860.35	212.88
860.66	212.77
860.98	212.69
861.29	212.65
861.60	212.59
861.91	212.67
862.22	212.55
862.53	212.52
862.84	212.15
863.16	212.21
863.47	212.07
863.78	212.01
864.09	212.01
864.40	212.04
864.71	211.98
865.02	211.95
865.33	211.87
865.64	211.87
865.95	211.85
866.27	212.12
866.58	212.14
866.89	212.21
867.20	212.17
867.51	212.17
867.82	212.18
868.13	212.25
868.44	212.17
868.75	212.26
869.06	212.33
869.37	212.26
869.68	212.11
869.99	212.16
870.30	212.16
870.61	212.27
870.92	212.21
871.23	212.20
871.54	212.22
871.85	212.36
872.16	212.30
872.47	212.23
872.78	211.98
873.09	211.97
873.40	211.94
873.71	211.96
874.02	211.96
874.33	211.98
874.64	211.90
874.95	211.92
875.26	211.87
875.56	211.85
875.87	211.83
876.18	211.85
876.49	212.23
876.80	212.27
877.11	212.11
877.42	212.11
877.73	212.15
878.04	212.07
878.35	211.95
878.66	212.03
878.96	212.12
879.27	212.15
879.58	212.18
879.89	212.18
880.20	212.25
880.51	212.24
880.82	212.21
881.12	212.26
881.43	212.22
881.74	212.22
882.05	212.17
882.36	212.20
882.67	212.20
882.97	211.82
883.28	211.82
883.59	211.83
883.90	211.86
884.21	211.90
884.51	211.91
884.82	211.94
885.13	211.90
885.44	211.93
885.74	211.96
886.05	211.83
886.36	211.77
886.67	211.68
886.98	211.85
887.28	211.92
887.59	211.97
887.90	211.99
888.20	211.93
888.51	212.04
888.82	211.97
889.13	212.05
889.43	212.31
889.74	212.27
890.05	212.32
890.35	212.28
890.66	212.24
890.97	212.21
891.28	212.12
891.58	212.11
891.89	212.01
892.20	211.94
892.50	211.94
892.81	212.05
893.12	212.10
893.42	211.95
893.73	211.90
894.04	211.81
894.34	211.83
894.65	211.87
894.95	211.76
895.26	211.69
895.57	211.80
895.87	211.52
896.18	211.56
896.48	211.55
896.79	211.54
897.10	211.59
897.40	211.65
897.71	211.81
898.01	211.75
898.32	211.86
898.63	211.89
898.93	211.90
899.24	211.79
899.54	211.74
899.85	211.66
900.15	211.65
900.46	211.68
900.76	211.69
901.07	211.60
901.38	211.60
901.68	211.74
901.99	211.57
902.29	211.55
902.60	211.52
902.90	211.53
903.21	211.54
903.51	211.42
903.82	211.42
904.12	211.36
904.43	211.38
904.73	211.28
905.03	211.27
905.34	211.65
905.64	211.69
905.95	211.66
906.25	211.68
906.56	211.59
906.86	211.55
907.17	211.50
907.47	211.59
907.77	211.60
908.08	211.56
908.38	211.57
908.69	211.55
908.99	211.60
909.30	211.63
909.60	211.65
909.90	211.70
910.21	211.67
910.51	211.62
910.81	211.59
911.12	211.64
911.42	211.62
911.73	211.21
912.03	211.23
912.33	211.25
912.64	211.26
912.94	211.32
913.24	211.28
913.55	211.29
913.85	211.29
914.15	211.31
914.46	211.31
914.76	211.35
915.06	211.35
915.37	211.28
915.67	211.28
915.97	211.28
916.27	211.27
916.58	211.22
916.88	211.20
917.18	211.19
917.49	211.38
917.79	211.33
918.09	211.40
918.39	211.50
918.70	211.51
919.00	211.49
919.30	211.63
919.60	211.63
919.91	211.51
920.21	211.53
920.51	211.45
920.81	211.49
921.12	211.47
921.42	211.51
921.72	211.60
922.02	211.53
922.32	211.53
922.63	211.54
922.93	211.70
923.23	211.71
923.53	211.73
923.83	211.59
924.13	211.65
924.44	211.63
924.74	211.73
925.04	211.76
925.34	211.83
925.64	211.69
925.94	211.67
926.24	211.94
926.55	211.88
926.85	212.02
927.15	211.99
927.45	211.99
927.75	212.03
928.05	212.01
928.35	212.11
928.65	212.20
928.95	212.20
929.26	212.02
929.56	212.11
929.86	212.17
930.16	212.02
930.46	212.05
930.76	212.06
931.06	211.86
931.36	211.90
931.66	211.92
931.96	211.92
932.26	212.00
932.56	211.83
932.86	211.82
933.16	211.76
933.46	211.74
933.76	211.63
934.06	211.72
934.36	211.84
934.66	211.76
934.96	211.75
935.26	211.83
935.56	211.95
935.86	211.89
936.16	211.85
936.46	211.82
936.76	211.77
937.06	211.75
937.36	211.80
937.66	211.77
937.96	211.79
938.26	211.78
938.56	211.72
938.86	211.82
939.16	211.99
939.46	211.99
939.76	212.03
940.06	212.09
940.35	211.86
940.65	211.67
940.95	211.73
941.25	211.59
941.55	211.45
941.85	211.41
942.15	211.46
942.45	211.55
942.75	211.58
943.04	211.66
943.34	211.71
943.64	211.67
943.94	211.64
944.24	211.63
944.54	211.63
944.84	211.63
945.13	211.52
945.43	211.36
945.73	211.39
946.03	211.35
946.33	211.39
946.62	211.45
946.92	211.41
947.22	211.41
947.52	211.48
947.82	211.56
948.11	211.52
948.41	211.51
948.71	211.41
949.01	211.43
949.31	211.32
949.60	211.26
949.90	211.26
950.20	211.22
950.50	211.20
950.79	211.12
951.09	211.13
951.39	211.15
951.69	211.09
951.98	211.13
952.28	211.13
952.58	211.01
952.87	211.06
953.17	211.15
953.47	211.11
953.76	211.12
954.06	211.05
954.36	211.00
954.66	210.89
954.95	210.96
955.25	211.09
955.55	211.13
955.84	211.04
956.14	211.09
956.44	211.09
956.73	211.06
957.03	211.17
957.32	211.20
957.62	211.14
957.92	211.21
958.21	211.15
958.51	211.52
958.81	211.63
959.10	211.63
959.40	211.69
959.69	211.68
959.99	211.76
960.29	211.83
960.58	211.83
960.88	211.98
961.17	211.95
961.47	211.95
961.76	211.94
962.06	212.08
962.36	212.07
962.65	212.10
962.95	212.17
963.24	212.08
963.54	212.05
963.83	212.13
964.13	212.15
964.42	212.03
964.72	211.76
965.01	211.77
965.31	211.70
965.60	211.64
965.90	211.86
966.19	211.70
966.49	211.69
966.78	211.71
967.08	211.77
967.37	211.83
967.67	211.76
967.96	211.83
968.26	211.79
968.55	211.83
968.85	211.91
969.14	211.86
969.43	211.93
969.73	211.96
970.02	211.94
970.32	211.97
970.61	212.05
970.91	211.93
971.20	211.85
971.49	211.80
971.79	211.85
972.08	211.61
972.38	211.68
972.67	211.65
972.96	211.71
973.26	211.54
973.55	211.60
973.85	211.60
974.14	211.58
974.43	211.64
974.73	211.56
975.02	211.49
975.31	211.49
975.61	211.43
975.90	211.39
976.19	211.35
976.49	211.38
976.78	211.33
977.07	211.40
977.37	211.47
977.66	211.57
977.95	211.53
978.24	211.57
978.54	211.66
978.83	211.65
979.12	211.58
979.42	211.59
979.71	211.49
980.00	211.38
980.29	211.36
980.59	211.24
980.88	211.27
981.17	211.22
981.46	211.20
981.76	211.24
982.05	211.32
982.34	211.29
982.63	211.27
982.93	211.28
983.22	211.28
983.51	211.28
983.80	211.28
984.09	211.30
984.39	211.24
984.68	211.15
984.97	211.12
985.26	211.05
985.55	211.14
985.85	211.06
986.14	211.13
986.43	211.12
986.72	211.18
987.01	211.06
987.30	211.08
987.59	210.95
987.89	210.92
988.18	210.84
988.47	210.81
988.76	210.73
989.05	210.71
989.34	210.63
989.63	210.70
989.92	210.60
990.22	210.55
990.51	210.60
990.80	210.56
991.09	210.62
991.38	210.73
991.67	210.67
991.96	210.73
992.25	210.75
992.54	210.72
992.83	210.66
993.12	210.74
993.41	210.74
993.70	210.96
993.99	211.00
994.28	211.07
994.58	211.16
994.87	211.19
995.16	211.24
995.45	211.23
995.74	211.10
996.03	211.23
996.32	211.25
996.61	211.32
996.90	211.26
997.19	211.23
997.48	211.34
997.77	211.32
998.06	211.27
998.34	211.23
998.63	211.33
998.92	211.39
999.21	211.45
999.50	211.52
999.79	211.42
1000.08	211.49
1000.37	211.51
1000.66	211.49
1000.95	211.58
1001.24	211.55
1001.53	211.61
1001.82	211.61
1002.11	211.49
1002.40	211.59
1002.68	211.61
1002.97	211.88
1003.26	211.84
1003.55	211.68
1003.84	211.65
1004.13	211.78
1004.42	211.83
1004.71	211.79
1004.99	211.75
1005.28	211.81
1005.57	211.84
1005.86	211.82
1006.15	211.79
1006.44	211.69
1006.72	211.77
1007.01	211.71
1007.30	211.72
1007.59	211.66
1007.88	211.68
1008.17	211.73
1008.45	211.52
1008.74	211.42
1009.03	211.36
1009.32	211.36
1009.60	211.35
1009.89	211.34
1010.18	211.21
1010.47	211.16
1010.76	211.15
1011.04	211.15
1011.33	211.18
1011.62	211.15
1011.91	211.19
1012.19	211.15
1012.48	211.21
1012.77	211.16
1013.05	211.23
1013.34	211.20
1013.63	211.22
1013.92	211.21
1014.20	211.10
1014.49	211.21
1014.78	211.21
1015.06	211.07
1015.35	211.10
1015.64	211.22
1015.92	211.31
1016.21	211.32
1016.50	211.28
1016.78	211.28
1017.07	211.29
1017.36	211.17
1017.64	211.06
1017.93	211.05
1018.22	211.05
1018.50	211.01
1018.79	210.99
1019.08	210.86
1019.36	210.93
1019.65	210.96
1019.93	211.05
1020.22	211.22
1020.51	211.42
1020.79	211.35
1021.08	211.05
1021.36	210.75
1021.65	211.00
1021.94	210.70
1022.22	211.60
1022.51	211.35
1022.79	212.25
1023.08	212.65
1023.36	215.70
1023.65	209.45
>>>>>End Processed Spectral Data<<<<<
