SpectraSuite Data File
++++++++++++++++++++++++++++++++++++
Date: Mon Feb 25 17:05:22 EST 2013
User: group
Dark Spectrum Present: No
Reference Spectrum Present: No
Number of Sampled Component Spectra: 1
Spectrometers: USB2E7196
Integration Time (usec): 104000 (USB2E7196)
Spectra Averaged: 20 (USB2E7196)
Boxcar Smoothing: 10 (USB2E7196)
Correct for Electrical Dark: No (USB2E7196)
Strobe/Lamp Enabled: No (USB2E7196)
Correct for Detector Non-linearity: No (USB2E7196)
Correct for Stray Light: No (USB2E7196)
Number of Pixels in Processed Spectrum: 2048
>>>>>Begin Processed Spectral Data<<<<<
339.09	0.00
339.48	196.95
339.86	199.00
340.24	200.55
340.63	202.20
341.01	208.00
341.39	204.05
341.78	206.60
342.16	208.35
342.54	207.45
342.93	197.33
343.31	207.29
343.69	207.93
344.07	208.40
344.46	208.87
344.84	209.25
345.22	209.31
345.60	209.60
345.99	209.76
346.37	209.85
346.75	209.97
347.13	210.04
347.52	210.04
347.90	210.21
348.28	210.30
348.66	210.40
349.05	210.30
349.43	210.36
349.81	210.39
350.19	210.47
350.57	210.57
350.96	210.74
351.34	210.85
351.72	210.93
352.10	211.09
352.48	211.16
352.87	211.25
353.25	211.35
353.63	211.46
354.01	211.60
354.39	211.74
354.77	211.82
355.15	212.09
355.54	212.26
355.92	212.23
356.30	212.33
356.68	212.60
357.06	212.77
357.44	212.84
357.82	212.97
358.20	213.05
358.58	213.18
358.97	213.20
359.35	213.36
359.73	213.45
360.11	213.50
360.49	213.59
360.87	213.67
361.25	213.79
361.63	214.00
362.01	214.09
362.39	214.15
362.77	214.26
363.15	214.20
363.53	214.25
363.91	214.34
364.29	214.32
364.67	214.11
365.05	214.04
365.43	214.14
365.81	214.13
366.19	214.27
366.57	214.35
366.95	214.35
367.33	214.27
367.71	214.30
368.09	214.36
368.47	214.36
368.85	214.33
369.23	214.40
369.61	214.18
369.99	214.23
370.37	214.22
370.75	214.30
371.13	214.22
371.51	214.13
371.89	214.05
372.27	214.07
372.65	214.08
373.03	214.08
373.41	213.95
373.78	213.95
374.16	213.75
374.54	213.56
374.92	213.48
375.30	213.41
375.68	213.23
376.06	213.17
376.44	213.05
376.82	213.02
377.19	212.90
377.57	212.84
377.95	212.66
378.33	212.47
378.71	212.25
379.09	212.22
379.47	212.13
379.84	212.00
380.22	211.97
380.60	211.81
380.98	211.72
381.36	211.66
381.73	211.58
382.11	211.56
382.49	211.59
382.87	211.53
383.25	211.45
383.62	211.85
384.00	211.69
384.38	211.67
384.76	211.66
385.13	211.76
385.51	211.70
385.89	211.58
386.27	211.62
386.64	211.62
387.02	211.55
387.40	211.52
387.78	211.59
388.15	211.53
388.53	211.47
388.91	211.44
389.29	211.42
389.66	211.47
390.04	211.41
390.42	211.33
390.79	211.25
391.17	211.28
391.55	210.86
391.92	210.87
392.30	210.88
392.68	210.76
393.05	210.66
393.43	210.72
393.81	210.75
394.18	210.66
394.56	210.66
394.94	210.67
395.31	210.62
395.69	210.65
396.06	210.67
396.44	210.69
396.82	210.68
397.19	210.81
397.57	210.72
397.95	210.79
398.32	210.65
398.70	210.80
399.07	210.78
399.45	210.73
399.82	210.71
400.20	210.68
400.58	210.68
400.95	210.55
401.33	210.56
401.70	210.85
402.08	210.95
402.45	210.99
402.83	211.09
403.20	211.17
403.58	211.20
403.95	211.23
404.33	211.37
404.71	211.43
405.08	211.65
405.46	211.68
405.83	211.75
406.21	211.89
406.58	211.90
406.96	212.10
407.33	212.33
407.70	212.56
408.08	212.98
408.45	213.19
408.83	213.51
409.20	213.69
409.58	213.72
409.95	213.99
410.33	214.28
410.70	214.46
411.08	214.80
411.45	215.12
411.82	215.45
412.20	215.89
412.57	216.50
412.95	216.57
413.32	217.08
413.69	217.49
414.07	218.06
414.44	218.65
414.82	219.25
415.19	219.96
415.56	220.57
415.94	221.19
416.31	222.13
416.68	222.93
417.06	223.84
417.43	224.80
417.81	225.76
418.18	226.79
418.55	227.92
418.93	229.06
419.30	230.33
419.67	231.70
420.04	232.92
420.42	234.26
420.79	236.25
421.16	237.87
421.54	239.68
421.91	241.43
422.28	243.20
422.66	245.13
423.03	247.20
423.40	249.20
423.77	251.18
424.15	253.12
424.52	255.34
424.89	257.83
425.26	260.03
425.64	262.28
426.01	264.67
426.38	267.21
426.75	269.95
427.13	272.60
427.50	275.43
427.87	278.48
428.24	281.37
428.61	284.03
428.99	287.33
429.36	290.64
429.73	293.97
430.10	297.37
430.47	300.87
430.85	304.23
431.22	308.07
431.59	312.39
431.96	316.26
432.33	320.50
432.70	324.61
433.08	329.56
433.45	334.22
433.82	338.86
434.19	343.95
434.56	348.93
434.93	353.80
435.30	358.56
435.68	363.85
436.05	369.12
436.42	374.28
436.79	379.09
437.16	384.46
437.53	390.02
437.90	395.45
438.27	400.83
438.64	406.46
439.01	411.67
439.38	416.19
439.75	420.83
440.13	426.05
440.50	430.97
440.87	435.13
441.24	439.25
441.61	443.93
441.98	447.56
442.35	451.63
442.72	455.66
443.09	459.71
443.46	462.23
443.83	464.13
444.20	465.77
444.57	467.85
444.94	468.93
445.31	470.07
445.68	471.62
446.05	472.37
446.42	472.10
446.79	471.82
447.16	471.39
447.53	471.24
447.90	469.57
448.27	467.84
448.64	465.16
449.01	463.52
449.37	460.20
449.74	456.85
450.11	453.19
450.48	448.92
450.85	444.43
451.22	440.74
451.59	437.10
451.96	433.70
452.33	428.98
452.70	424.76
453.07	419.69
453.43	414.26
453.80	409.20
454.17	404.40
454.54	399.82
454.91	394.96
455.28	390.14
455.65	385.68
456.02	381.64
456.38	377.89
456.75	373.06
457.12	369.07
457.49	365.21
457.86	361.14
458.23	357.91
458.59	354.32
458.96	350.56
459.33	347.25
459.70	344.00
460.07	341.58
460.43	338.60
460.80	335.99
461.17	333.67
461.54	331.10
461.91	328.77
462.27	326.27
462.64	324.06
463.01	321.71
463.38	319.49
463.74	316.75
464.11	314.71
464.48	313.05
464.85	311.20
465.21	309.90
465.58	308.34
465.95	306.41
466.32	304.86
466.68	303.36
467.05	301.85
467.42	300.34
467.78	298.64
468.15	297.10
468.52	295.88
468.88	294.26
469.25	292.95
469.62	291.81
469.98	290.71
470.35	289.64
470.72	288.57
471.08	287.34
471.45	286.46
471.82	285.54
472.18	284.46
472.55	283.62
472.92	282.54
473.28	281.62
473.65	280.86
474.02	280.10
474.38	279.48
474.75	278.96
475.11	278.33
475.48	277.84
475.85	277.41
476.21	276.87
476.58	276.43
476.94	276.08
477.31	275.73
477.67	275.33
478.04	275.01
478.41	274.79
478.77	274.87
479.14	274.58
479.50	274.41
479.87	274.34
480.23	274.18
480.60	274.05
480.96	274.02
481.33	274.13
481.69	274.20
482.06	274.19
482.42	274.13
482.79	274.06
483.15	274.16
483.52	274.35
483.88	274.49
484.25	274.65
484.61	274.77
484.98	274.84
485.34	275.14
485.71	275.50
486.07	275.81
486.44	275.88
486.80	276.30
487.17	276.69
487.53	277.16
487.90	277.74
488.26	278.34
488.62	278.92
488.99	279.35
489.35	279.93
489.72	280.67
490.08	281.42
490.44	282.25
490.81	283.09
491.17	283.75
491.54	284.68
491.90	285.60
492.26	286.40
492.63	287.37
492.99	288.22
493.36	289.19
493.72	290.30
494.08	291.31
494.45	292.36
494.81	293.54
495.17	294.67
495.54	295.92
495.90	297.06
496.26	298.20
496.63	299.40
496.99	300.56
497.35	301.78
497.72	303.13
498.08	304.36
498.44	305.60
498.80	307.10
499.17	308.34
499.53	309.61
499.89	311.08
500.26	312.43
500.62	313.79
500.98	315.16
501.34	316.46
501.71	317.99
502.07	319.34
502.43	320.61
502.79	321.78
503.16	323.00
503.52	324.30
503.88	325.56
504.24	326.92
504.60	328.23
504.97	329.54
505.33	330.65
505.69	332.07
506.05	333.35
506.41	334.46
506.78	335.67
507.14	336.80
507.50	338.03
507.86	339.25
508.22	340.44
508.59	341.45
508.95	342.60
509.31	343.73
509.67	344.80
510.03	345.83
510.39	347.07
510.75	348.09
511.12	349.10
511.48	350.12
511.84	351.07
512.20	352.00
512.56	352.82
512.92	353.93
513.28	354.71
513.64	355.64
514.00	356.48
514.37	357.41
514.73	358.36
515.09	359.27
515.45	360.02
515.81	360.84
516.17	361.67
516.53	362.37
516.89	363.03
517.25	363.92
517.61	364.83
517.97	365.53
518.33	366.40
518.69	367.32
519.05	368.31
519.41	369.27
519.77	370.44
520.13	371.38
520.49	372.07
520.85	373.04
521.21	374.07
521.57	375.25
521.93	376.15
522.29	377.28
522.65	378.17
523.01	379.30
523.37	380.30
523.73	381.51
524.09	382.75
524.45	383.95
524.81	385.11
525.17	386.45
525.53	387.83
525.89	389.12
526.25	390.48
526.61	391.84
526.97	393.21
527.33	394.74
527.68	396.62
528.04	398.33
528.40	399.91
528.76	401.54
529.12	403.12
529.48	405.01
529.84	406.76
530.20	408.64
530.56	410.66
530.91	412.71
531.27	414.72
531.63	417.00
531.99	419.00
532.35	421.12
532.71	423.16
533.07	425.33
533.42	428.02
533.78	430.26
534.14	432.57
534.50	434.83
534.86	436.99
535.21	439.03
535.57	441.42
535.93	443.83
536.29	446.44
536.65	448.97
537.00	451.20
537.36	453.59
537.72	456.16
538.08	458.67
538.44	461.25
538.79	463.85
539.15	466.30
539.51	469.00
539.87	471.71
540.22	474.47
540.58	477.28
540.94	479.72
541.29	482.55
541.65	485.12
542.01	488.12
542.37	490.95
542.72	493.69
543.08	496.52
543.44	499.45
543.79	501.83
544.15	504.70
544.51	507.91
544.87	510.93
545.22	513.88
545.58	516.70
545.94	519.46
546.29	522.22
546.65	524.87
547.01	527.51
547.36	530.44
547.72	533.18
548.07	535.75
548.43	538.32
548.79	540.68
549.14	543.40
549.50	545.89
549.86	548.32
550.21	551.05
550.57	553.61
550.92	556.07
551.28	558.82
551.64	561.35
551.99	563.72
552.35	566.04
552.70	568.38
553.06	570.82
553.41	573.35
553.77	575.83
554.13	578.13
554.48	580.63
554.84	582.98
555.19	585.25
555.55	587.89
555.90	590.05
556.26	592.35
556.61	594.48
556.97	596.61
557.32	598.73
557.68	600.54
558.03	602.55
558.39	604.41
558.74	606.53
559.10	608.43
559.45	610.47
559.81	612.55
560.16	614.43
560.52	616.42
560.87	618.11
561.23	619.87
561.58	622.06
561.94	623.80
562.29	625.31
562.64	626.97
563.00	628.40
563.35	630.21
563.71	632.00
564.06	633.66
564.42	635.38
564.77	637.21
565.12	639.15
565.48	641.06
565.83	642.94
566.19	644.51
566.54	645.83
566.89	647.10
567.25	648.57
567.60	650.15
567.96	651.70
568.31	653.34
568.66	654.67
569.02	655.55
569.37	656.46
569.72	657.49
570.08	658.44
570.43	659.34
570.78	660.10
571.14	660.82
571.49	661.57
571.84	662.13
572.20	662.58
572.55	663.06
572.90	663.09
573.26	663.33
573.61	663.53
573.96	663.89
574.31	664.02
574.67	664.04
575.02	663.78
575.37	663.42
575.72	663.05
576.08	662.99
576.43	662.80
576.78	662.88
577.13	662.79
577.49	662.82
577.84	662.68
578.19	662.65
578.54	662.57
578.90	662.60
579.25	662.46
579.60	662.09
579.95	661.75
580.30	661.75
580.66	661.68
581.01	661.38
581.36	661.01
581.71	660.69
582.06	660.61
582.42	660.36
582.77	660.11
583.12	659.84
583.47	659.64
583.82	659.72
584.17	659.34
584.53	659.21
584.88	658.82
585.23	658.52
585.58	658.15
585.93	657.74
586.28	657.36
586.63	657.10
586.98	656.84
587.34	656.66
587.69	656.14
588.04	655.43
588.39	655.00
588.74	654.46
589.09	654.29
589.44	653.40
589.79	653.07
590.14	652.51
590.49	652.03
590.84	651.19
591.19	650.56
591.54	649.99
591.89	649.09
592.25	648.55
592.60	647.73
592.95	646.91
593.30	646.03
593.65	644.89
594.00	643.85
594.35	643.92
594.70	642.79
595.05	642.01
595.40	641.07
595.75	639.86
596.10	639.18
596.45	638.17
596.80	637.41
597.15	636.48
597.50	635.50
597.85	634.71
598.19	633.72
598.54	632.69
598.89	631.68
599.24	631.01
599.59	629.82
599.94	628.94
600.29	628.01
600.64	627.09
600.99	626.30
601.34	625.36
601.69	623.55
602.04	622.47
602.39	621.45
602.74	620.72
603.08	620.03
603.43	619.33
603.78	618.33
604.13	617.40
604.48	616.47
604.83	615.80
605.18	614.90
605.53	614.05
605.87	612.92
606.22	612.04
606.57	610.86
606.92	609.80
607.27	608.69
607.62	607.56
607.96	606.74
608.31	605.79
608.66	604.82
609.01	603.63
609.36	602.50
609.70	601.30
610.05	599.95
610.40	598.78
610.75	597.27
611.10	596.14
611.44	594.52
611.79	593.05
612.14	591.37
612.49	589.70
612.83	588.22
613.18	586.67
613.53	585.21
613.88	583.45
614.22	582.10
614.57	580.46
614.92	579.02
615.27	577.16
615.61	575.58
615.96	573.95
616.31	572.54
616.65	571.32
617.00	569.79
617.35	568.30
617.70	566.55
618.04	564.69
618.39	562.68
618.74	561.28
619.08	559.52
619.43	557.87
619.78	556.28
620.12	554.70
620.47	553.12
620.82	551.20
621.16	549.55
621.51	547.91
621.85	546.28
622.20	544.56
622.55	542.95
622.89	541.05
623.24	539.30
623.59	537.38
623.93	535.56
624.28	533.85
624.62	532.43
624.97	530.90
625.32	529.31
625.66	527.80
626.01	526.02
626.35	524.47
626.70	522.72
627.04	521.17
627.39	519.39
627.73	517.90
628.08	516.47
628.43	514.85
628.77	513.08
629.12	511.31
629.46	509.84
629.81	508.25
630.15	506.59
630.50	504.82
630.84	503.02
631.19	501.29
631.53	499.58
631.88	497.42
632.22	495.58
632.57	494.12
632.91	492.48
633.26	490.86
633.60	489.10
633.95	487.59
634.29	485.88
634.64	484.32
634.98	482.57
635.32	480.99
635.67	479.56
636.01	477.92
636.36	476.45
636.70	474.85
637.05	473.12
637.39	471.69
637.73	470.38
638.08	469.24
638.42	467.86
638.77	466.46
639.11	465.14
639.45	463.57
639.80	461.81
640.14	460.12
640.49	458.48
640.83	456.96
641.17	455.39
641.52	453.73
641.86	452.07
642.20	450.60
642.55	448.90
642.89	447.14
643.23	445.60
643.58	444.21
643.92	442.39
644.26	440.73
644.61	439.10
644.95	437.39
645.29	435.57
645.64	433.83
645.98	431.97
646.32	430.31
646.66	428.58
647.01	427.15
647.35	425.82
647.69	424.28
648.04	422.74
648.38	421.21
648.72	419.61
649.06	417.98
649.41	416.21
649.75	414.67
650.09	413.24
650.43	411.65
650.78	409.72
651.12	408.06
651.46	406.59
651.80	405.04
652.14	403.55
652.49	402.11
652.83	400.52
653.17	398.96
653.51	397.41
653.85	396.06
654.20	394.40
654.54	392.59
654.88	390.92
655.22	389.38
655.56	387.60
655.90	386.05
656.25	384.52
656.59	383.04
656.93	381.48
657.27	380.07
657.61	378.48
657.95	377.22
658.29	375.82
658.64	374.45
658.98	372.87
659.32	371.17
659.66	369.59
660.00	368.16
660.34	366.85
660.68	365.35
661.02	363.87
661.36	362.52
661.70	361.23
662.05	359.99
662.39	358.78
662.73	357.78
663.07	356.67
663.41	355.55
663.75	354.26
664.09	352.97
664.43	351.53
664.77	350.41
665.11	349.13
665.45	348.04
665.79	346.91
666.13	345.65
666.47	344.48
666.81	343.27
667.15	341.99
667.49	340.85
667.83	339.81
668.17	338.67
668.51	337.59
668.85	336.63
669.19	335.75
669.53	334.48
669.87	333.17
670.21	331.90
670.55	330.70
670.89	329.84
671.23	328.87
671.57	327.81
671.91	326.72
672.25	325.74
672.58	324.70
672.92	323.49
673.26	322.67
673.60	321.77
673.94	320.81
674.28	319.97
674.62	319.02
674.96	318.08
675.30	317.18
675.64	316.22
675.97	315.09
676.31	314.04
676.65	313.17
676.99	312.41
677.33	311.52
677.67	310.65
678.01	309.55
678.34	308.52
678.68	307.72
679.02	306.77
679.36	305.83
679.70	304.95
680.04	304.20
680.37	303.20
680.71	302.30
681.05	301.53
681.39	300.61
681.73	299.80
682.06	298.99
682.40	298.12
682.74	297.34
683.08	296.68
683.42	295.77
683.75	295.06
684.09	294.16
684.43	293.41
684.77	292.55
685.10	291.84
685.44	291.18
685.78	290.24
686.12	289.55
686.45	288.77
686.79	287.97
687.13	287.25
687.46	286.65
687.80	285.98
688.14	285.15
688.48	284.42
688.81	283.60
689.15	282.84
689.49	282.19
689.82	281.47
690.16	280.57
690.50	279.88
690.83	279.11
691.17	278.32
691.51	277.70
691.84	277.05
692.18	276.40
692.52	275.80
692.85	275.30
693.19	274.80
693.52	274.15
693.86	273.40
694.20	272.79
694.53	272.10
694.87	271.44
695.21	270.84
695.54	270.25
695.88	269.55
696.21	268.85
696.55	268.20
696.88	267.53
697.22	266.99
697.56	266.53
697.89	265.85
698.23	265.33
698.56	264.62
698.90	264.12
699.23	263.51
699.57	262.90
699.90	262.19
700.24	261.45
700.58	260.90
700.91	260.46
701.25	260.14
701.58	259.68
701.92	259.27
702.25	258.76
702.59	258.28
702.92	257.85
703.26	257.45
703.59	257.04
703.93	256.87
704.26	256.44
704.60	255.85
704.93	255.39
705.26	254.90
705.60	254.50
705.93	253.99
706.27	253.59
706.60	253.22
706.94	253.08
707.27	252.59
707.61	252.14
707.94	251.69
708.27	251.04
708.61	250.54
708.94	250.11
709.28	249.69
709.61	249.24
709.94	248.93
710.28	248.50
710.61	248.09
710.95	247.38
711.28	247.25
711.61	246.92
711.95	246.71
712.28	246.34
712.61	246.04
712.95	245.91
713.28	245.65
713.61	245.21
713.95	244.71
714.28	244.49
714.61	244.14
714.95	243.75
715.28	243.29
715.61	242.95
715.95	242.57
716.28	242.27
716.61	242.06
716.95	241.67
717.28	241.34
717.61	241.08
717.94	240.82
718.28	240.19
718.61	239.90
718.94	239.54
719.27	239.27
719.61	238.97
719.94	238.59
720.27	238.22
720.60	237.97
720.94	237.72
721.27	237.42
721.60	237.18
721.93	236.99
722.27	236.95
722.60	236.78
722.93	236.52
723.26	236.36
723.59	236.08
723.93	235.87
724.26	235.77
724.59	235.44
724.92	235.17
725.25	235.04
725.59	234.84
725.92	234.64
726.25	234.39
726.58	234.09
726.91	233.83
727.24	233.58
727.57	233.39
727.91	233.12
728.24	232.98
728.57	232.82
728.90	232.68
729.23	232.34
729.56	232.24
729.89	232.05
730.22	231.82
730.55	231.56
730.89	231.35
731.22	231.02
731.55	230.85
731.88	230.68
732.21	230.50
732.54	230.21
732.87	230.03
733.20	229.85
733.53	229.72
733.86	229.55
734.19	229.34
734.52	229.21
734.85	229.33
735.18	229.13
735.51	229.00
735.84	228.81
736.17	228.65
736.50	228.29
736.83	228.53
737.16	228.34
737.49	228.18
737.82	227.94
738.15	227.87
738.48	227.67
738.81	227.51
739.14	227.32
739.47	227.22
739.80	226.97
740.13	226.86
740.46	226.62
740.79	226.43
741.12	226.32
741.45	226.04
741.78	225.63
742.11	225.55
742.44	225.32
742.77	225.25
743.10	225.13
743.43	225.01
743.75	224.47
744.08	224.75
744.41	224.55
744.74	224.44
745.07	224.27
745.40	224.15
745.73	224.20
746.06	224.11
746.39	224.02
746.71	223.92
747.04	223.70
747.37	223.62
747.70	223.56
748.03	223.41
748.36	223.36
748.68	223.20
749.01	222.95
749.34	222.85
749.67	222.71
750.00	222.67
750.33	222.79
750.65	222.67
750.98	222.13
751.31	222.06
751.64	221.95
751.97	222.01
752.29	221.93
752.62	221.65
752.95	221.43
753.28	221.20
753.60	221.10
753.93	221.16
754.26	221.09
754.59	220.88
754.91	220.72
755.24	220.62
755.57	220.55
755.90	220.48
756.22	220.29
756.55	220.11
756.88	219.88
757.20	219.57
757.53	219.39
757.86	219.28
758.19	219.25
758.51	219.27
758.84	218.96
759.17	218.90
759.49	218.89
759.82	219.00
760.15	218.99
760.47	218.84
760.80	218.67
761.13	218.64
761.45	218.49
761.78	218.40
762.11	218.32
762.43	218.24
762.76	218.17
763.08	218.20
763.41	218.09
763.74	218.09
764.06	218.02
764.39	217.99
764.71	217.92
765.04	217.79
765.37	217.63
765.69	217.55
766.02	217.42
766.34	217.23
766.67	217.04
767.00	217.00
767.32	217.18
767.65	217.32
767.97	217.20
768.30	217.23
768.62	217.21
768.95	217.04
769.27	216.94
769.60	216.93
769.92	216.79
770.25	216.72
770.57	216.61
770.90	216.49
771.22	216.40
771.55	216.25
771.87	216.20
772.20	216.07
772.52	216.35
772.85	216.72
773.17	216.72
773.50	216.67
773.82	216.57
774.15	216.31
774.47	215.99
774.80	215.90
775.12	215.87
775.45	215.81
775.77	215.82
776.09	215.84
776.42	215.77
776.74	215.89
777.07	215.86
777.39	215.79
777.72	215.74
778.04	215.81
778.36	215.79
778.69	215.79
779.01	215.79
779.33	215.36
779.66	214.98
779.98	214.92
780.31	214.90
780.63	215.02
780.95	215.02
781.28	215.05
781.60	214.96
781.92	214.89
782.25	214.92
782.57	214.85
782.89	214.75
783.22	214.75
783.54	214.52
783.86	214.57
784.19	214.58
784.51	214.63
784.83	214.49
785.16	214.47
785.48	214.39
785.80	214.41
786.12	214.48
786.45	214.37
786.77	214.31
787.09	214.29
787.42	214.09
787.74	214.11
788.06	214.07
788.38	214.10
788.71	214.08
789.03	213.97
789.35	214.06
789.67	213.96
789.99	213.93
790.32	213.97
790.64	213.89
790.96	214.11
791.28	214.04
791.61	214.00
791.93	214.01
792.25	214.07
792.57	214.25
792.89	214.14
793.21	214.19
793.54	214.20
793.86	214.15
794.18	214.17
794.50	214.08
794.82	214.06
795.14	214.05
795.47	214.12
795.79	214.14
796.11	214.04
796.43	214.06
796.75	214.08
797.07	214.02
797.39	214.04
797.71	213.78
798.04	213.81
798.36	213.84
798.68	213.79
799.00	213.70
799.32	213.56
799.64	213.67
799.96	213.60
800.28	213.54
800.60	213.43
800.92	213.45
801.24	213.37
801.56	213.32
801.89	213.28
802.21	213.18
802.53	213.18
802.85	213.22
803.17	213.41
803.49	213.30
803.81	213.23
804.13	213.16
804.45	213.05
804.77	213.02
805.09	212.94
805.41	212.90
805.73	212.92
806.05	212.76
806.37	212.68
806.69	212.68
807.01	212.74
807.33	212.78
807.65	212.66
807.97	212.90
808.28	212.90
808.60	212.84
808.92	212.84
809.24	213.02
809.56	212.90
809.88	212.70
810.20	212.67
810.52	212.73
810.84	212.70
811.16	212.71
811.48	212.70
811.80	212.76
812.12	212.80
812.43	212.81
812.75	212.83
813.07	212.77
813.39	212.77
813.71	212.65
814.03	212.63
814.35	212.64
814.67	212.41
814.98	212.38
815.30	212.40
815.62	212.33
815.94	212.07
816.26	212.16
816.58	212.11
816.89	212.14
817.21	212.06
817.53	212.00
817.85	212.05
818.17	211.90
818.48	211.93
818.80	211.97
819.12	211.95
819.44	211.97
819.76	211.94
820.07	211.95
820.39	212.01
820.71	212.03
821.03	212.05
821.34	212.03
821.66	212.02
821.98	212.06
822.30	212.05
822.61	212.29
822.93	212.22
823.25	212.20
823.57	212.16
823.88	212.31
824.20	212.40
824.52	212.41
824.83	212.53
825.15	212.45
825.47	212.47
825.79	212.45
826.10	212.35
826.42	212.31
826.74	212.35
827.05	212.36
827.37	212.36
827.69	212.30
828.00	212.37
828.32	212.38
828.64	212.38
828.95	212.50
829.27	212.30
829.58	212.26
829.90	212.40
830.22	212.44
830.53	212.32
830.85	212.28
831.17	212.18
831.48	212.14
831.80	212.13
832.11	212.04
832.43	212.03
832.75	212.07
833.06	212.29
833.38	212.20
833.69	212.14
834.01	212.15
834.32	212.17
834.64	212.03
834.96	212.06
835.27	211.96
835.59	211.88
835.90	211.77
836.22	211.79
836.53	211.69
836.85	211.70
837.16	212.02
837.48	211.97
837.79	212.10
838.11	212.18
838.42	212.15
838.74	212.20
839.05	212.22
839.37	212.20
839.68	211.98
840.00	211.86
840.31	211.87
840.63	211.82
840.94	211.80
841.26	211.84
841.57	211.84
841.88	211.95
842.20	211.90
842.51	211.95
842.83	211.92
843.14	212.25
843.46	212.21
843.77	211.95
844.08	212.00
844.40	211.86
844.71	211.76
845.03	211.74
845.34	211.65
845.65	211.55
845.97	211.54
846.28	211.57
846.60	211.59
846.91	211.56
847.22	211.61
847.54	211.71
847.85	211.77
848.16	211.73
848.48	211.61
848.79	211.71
849.10	211.79
849.42	211.87
849.73	211.48
850.04	211.42
850.36	211.37
850.67	211.37
850.98	211.40
851.30	211.41
851.61	211.42
851.92	211.46
852.23	211.58
852.55	211.63
852.86	211.64
853.17	211.79
853.49	211.87
853.80	211.87
854.11	211.80
854.42	211.83
854.74	211.75
855.05	211.76
855.36	211.60
855.67	211.49
855.99	211.47
856.30	211.89
856.61	211.89
856.92	211.91
857.23	211.89
857.55	211.83
857.86	211.81
858.17	211.92
858.48	211.81
858.79	211.75
859.11	211.75
859.42	211.72
859.73	211.56
860.04	211.49
860.35	211.36
860.66	211.30
860.98	211.27
861.29	211.29
861.60	211.33
861.91	211.38
862.22	211.43
862.53	211.32
862.84	210.94
863.16	211.04
863.47	210.95
863.78	210.93
864.09	211.02
864.40	211.03
864.71	210.96
865.02	211.03
865.33	210.98
865.64	210.97
865.95	210.93
866.27	211.15
866.58	211.16
866.89	211.20
867.20	211.15
867.51	211.13
867.82	211.19
868.13	211.24
868.44	211.27
868.75	211.32
869.06	211.40
869.37	211.48
869.68	211.31
869.99	211.35
870.30	211.43
870.61	211.40
870.92	211.35
871.23	211.29
871.54	211.32
871.85	211.39
872.16	211.33
872.47	211.43
872.78	211.32
873.09	211.35
873.40	211.33
873.71	211.35
874.02	211.33
874.33	211.33
874.64	211.24
874.95	211.18
875.26	211.11
875.56	211.03
875.87	210.94
876.18	210.95
876.49	211.22
876.80	211.13
877.11	211.05
877.42	211.00
877.73	211.06
878.04	211.03
878.35	211.07
878.66	211.13
878.96	211.03
879.27	211.01
879.58	210.93
879.89	210.93
880.20	211.09
880.51	211.06
880.82	211.05
881.12	211.05
881.43	211.00
881.74	211.03
882.05	211.05
882.36	211.10
882.67	211.11
882.97	210.86
883.28	210.81
883.59	210.83
883.90	210.97
884.21	210.98
884.51	210.96
884.82	210.84
885.13	210.80
885.44	210.82
885.74	210.75
886.05	210.76
886.36	210.84
886.67	210.71
886.98	210.86
887.28	210.83
887.59	210.84
887.90	210.81
888.20	210.76
888.51	210.88
888.82	210.81
889.13	210.85
889.43	211.13
889.74	211.17
890.05	211.12
890.35	211.04
890.66	210.98
890.97	210.93
891.28	210.97
891.58	210.96
891.89	210.98
892.20	211.00
892.50	211.04
892.81	210.99
893.12	210.93
893.42	210.80
893.73	210.85
894.04	210.85
894.34	210.94
894.65	210.89
894.95	210.76
895.26	210.73
895.57	210.91
895.87	210.53
896.18	210.53
896.48	210.62
896.79	210.67
897.10	210.70
897.40	210.69
897.71	210.75
898.01	210.80
898.32	210.80
898.63	210.74
898.93	210.74
899.24	210.67
899.54	210.66
899.85	210.61
900.15	210.59
900.46	210.65
900.76	210.66
901.07	210.65
901.38	210.70
901.68	210.81
901.99	210.55
902.29	210.62
902.60	210.62
902.90	210.60
903.21	210.59
903.51	210.58
903.82	210.68
904.12	210.66
904.43	210.63
904.73	210.67
905.03	210.74
905.34	211.11
905.64	211.15
905.95	211.20
906.25	211.23
906.56	211.23
906.86	211.17
907.17	211.15
907.47	211.19
907.77	211.10
908.08	211.00
908.38	211.11
908.69	211.13
908.99	211.19
909.30	211.23
909.60	211.20
909.90	211.25
910.21	211.14
910.51	211.08
910.81	211.03
911.12	210.98
911.42	210.98
911.73	210.54
912.03	210.59
912.33	210.62
912.64	210.61
912.94	210.64
913.24	210.55
913.55	210.56
913.85	210.53
914.15	210.60
914.46	210.64
914.76	210.63
915.06	210.60
915.37	210.55
915.67	210.45
915.97	210.42
916.27	210.33
916.58	210.37
916.88	210.35
917.18	210.36
917.49	210.59
917.79	210.56
918.09	210.68
918.39	210.71
918.70	210.72
919.00	210.72
919.30	210.84
919.60	210.84
919.91	210.81
920.21	210.87
920.51	210.82
920.81	210.82
921.12	210.89
921.42	210.89
921.72	210.90
922.02	210.89
922.32	211.05
922.63	211.04
922.93	211.16
923.23	211.22
923.53	211.15
923.83	210.98
924.13	210.98
924.44	210.96
924.74	210.96
925.04	210.99
925.34	210.99
925.64	210.84
925.94	210.90
926.24	211.08
926.55	211.04
926.85	211.11
927.15	211.14
927.45	211.05
927.75	211.05
928.05	211.11
928.35	211.16
928.65	211.18
928.95	211.18
929.26	211.08
929.56	211.15
929.86	211.27
930.16	211.18
930.46	211.18
930.76	211.20
931.06	211.14
931.36	211.05
931.66	211.07
931.96	211.13
932.26	211.18
932.56	211.06
932.86	211.09
933.16	211.05
933.46	211.01
933.76	211.07
934.06	211.21
934.36	211.29
934.66	211.27
934.96	211.19
935.26	211.33
935.56	211.40
935.86	211.30
936.16	211.21
936.46	211.24
936.76	211.26
937.06	211.15
937.36	211.11
937.66	211.14
937.96	211.09
938.26	210.96
938.56	210.89
938.86	210.87
939.16	210.92
939.46	210.92
939.76	210.91
940.06	210.83
940.35	210.69
940.65	210.50
940.95	210.58
941.25	210.55
941.55	210.48
941.85	210.46
942.15	210.56
942.45	210.63
942.75	210.63
943.04	210.58
943.34	210.70
943.64	210.73
943.94	210.72
944.24	210.72
944.54	210.80
944.84	210.81
945.13	210.81
945.43	210.73
945.73	210.75
946.03	210.71
946.33	210.67
946.62	210.65
946.92	210.68
947.22	210.64
947.52	210.61
947.82	210.66
948.11	210.59
948.41	210.45
948.71	210.36
949.01	210.40
949.31	210.44
949.60	210.41
949.90	210.48
950.20	210.42
950.50	210.40
950.79	210.37
951.09	210.45
951.39	210.44
951.69	210.43
951.98	210.58
952.28	210.59
952.58	210.64
952.87	210.66
953.17	210.70
953.47	210.68
953.76	210.70
954.06	210.70
954.36	210.69
954.66	210.68
954.95	210.86
955.25	210.86
955.55	210.89
955.84	210.79
956.14	210.75
956.44	210.86
956.73	210.89
957.03	210.97
957.32	210.94
957.62	210.94
957.92	211.04
958.21	210.96
958.51	211.40
958.81	211.40
959.10	211.46
959.40	211.49
959.69	211.53
959.99	211.55
960.29	211.53
960.58	211.46
960.88	211.64
961.17	211.55
961.47	211.56
961.76	211.52
962.06	211.59
962.36	211.59
962.65	211.56
962.95	211.58
963.24	211.44
963.54	211.49
963.83	211.41
964.13	211.38
964.42	211.22
964.72	210.86
965.01	210.90
965.31	210.82
965.60	210.68
965.90	210.91
966.19	210.78
966.49	210.78
966.78	210.87
967.08	210.80
967.37	210.83
967.67	210.76
967.96	210.79
968.26	210.79
968.55	210.79
968.85	210.75
969.14	210.70
969.43	210.69
969.73	210.63
970.02	210.69
970.32	210.66
970.61	210.72
970.91	210.70
971.20	210.67
971.49	210.66
971.79	210.76
972.08	210.49
972.38	210.54
972.67	210.52
972.96	210.54
973.26	210.54
973.55	210.62
973.85	210.74
974.14	210.66
974.43	210.70
974.73	210.69
975.02	210.70
975.31	210.79
975.61	210.86
975.90	210.81
976.19	210.80
976.49	210.76
976.78	210.81
977.07	210.74
977.37	210.77
977.66	210.85
977.95	210.87
978.24	210.95
978.54	211.05
978.83	211.00
979.12	210.93
979.42	210.88
979.71	210.83
980.00	210.69
980.29	210.76
980.59	210.71
980.88	210.75
981.17	210.70
981.46	210.67
981.76	210.66
982.05	210.80
982.34	210.83
982.63	210.88
982.93	210.87
983.22	211.05
983.51	211.05
983.80	211.10
984.09	211.11
984.39	211.10
984.68	211.06
984.97	211.08
985.26	211.13
985.55	211.18
985.85	211.07
986.14	211.08
986.43	211.19
986.72	211.18
987.01	211.15
987.30	211.15
987.59	211.12
987.89	211.17
988.18	211.06
988.47	211.06
988.76	211.06
989.05	211.00
989.34	210.97
989.63	211.08
989.92	211.00
990.22	210.90
990.51	210.85
990.80	210.83
991.09	210.89
991.38	210.91
991.67	210.86
991.96	210.87
992.25	210.97
992.54	210.88
992.83	210.81
993.12	210.81
993.41	210.91
993.70	211.12
993.99	211.13
994.28	211.22
994.58	211.20
994.87	211.20
995.16	211.22
995.45	211.18
995.74	210.98
996.03	211.08
996.32	211.21
996.61	211.27
996.90	211.24
997.19	211.21
997.48	211.16
997.77	211.10
998.06	211.15
998.34	211.13
998.63	211.04
998.92	211.10
999.21	211.10
999.50	211.08
999.79	210.86
1000.08	210.79
1000.37	210.80
1000.66	210.80
1000.95	210.87
1001.24	210.85
1001.53	210.87
1001.82	210.88
1002.11	210.71
1002.40	210.69
1002.68	210.78
1002.97	211.07
1003.26	210.98
1003.55	210.95
1003.84	211.09
1004.13	211.18
1004.42	211.11
1004.71	211.18
1004.99	211.19
1005.28	211.27
1005.57	211.23
1005.86	211.19
1006.15	211.18
1006.44	211.00
1006.72	211.08
1007.01	210.98
1007.30	210.97
1007.59	210.92
1007.88	210.86
1008.17	210.87
1008.45	210.79
1008.74	210.58
1009.03	210.39
1009.32	210.40
1009.60	210.35
1009.89	210.24
1010.18	210.12
1010.47	210.12
1010.76	210.13
1011.04	210.10
1011.33	210.49
1011.62	210.51
1011.91	210.61
1012.19	210.63
1012.48	210.65
1012.77	210.57
1013.05	210.71
1013.34	210.73
1013.63	210.70
1013.92	210.79
1014.20	210.75
1014.49	210.82
1014.78	210.94
1015.06	210.85
1015.35	210.88
1015.64	210.96
1015.92	211.02
1016.21	210.98
1016.50	211.01
1016.78	211.00
1017.07	211.00
1017.36	210.55
1017.64	210.53
1017.93	210.54
1018.22	210.54
1018.50	210.64
1018.79	210.63
1019.08	210.46
1019.36	210.50
1019.65	210.50
1019.93	210.67
1020.22	210.79
1020.51	210.90
1020.79	210.80
1021.08	209.95
1021.36	210.80
1021.65	210.80
1021.94	209.65
1022.22	211.10
1022.51	210.10
1022.79	213.55
1023.08	211.55
1023.36	213.55
1023.65	209.35
>>>>>End Processed Spectral Data<<<<<
