SpectraSuite Data File
++++++++++++++++++++++++++++++++++++
Date: Mon Feb 25 17:14:17 EST 2013
User: group
Dark Spectrum Present: No
Reference Spectrum Present: No
Number of Sampled Component Spectra: 1
Spectrometers: USB2E7196
Integration Time (usec): 104000 (USB2E7196)
Spectra Averaged: 20 (USB2E7196)
Boxcar Smoothing: 10 (USB2E7196)
Correct for Electrical Dark: No (USB2E7196)
Strobe/Lamp Enabled: No (USB2E7196)
Correct for Detector Non-linearity: No (USB2E7196)
Correct for Stray Light: No (USB2E7196)
Number of Pixels in Processed Spectrum: 2048
>>>>>Begin Processed Spectral Data<<<<<
339.09	0.00
339.48	199.95
339.86	200.70
340.24	201.65
340.63	203.05
341.01	209.40
341.39	204.65
341.78	207.75
342.16	208.85
342.54	208.40
342.93	198.47
343.31	208.47
343.69	208.92
344.07	209.42
344.46	209.85
344.84	210.21
345.22	210.24
345.60	210.54
345.99	210.77
346.37	210.89
346.75	210.99
347.13	211.00
347.52	211.11
347.90	211.30
348.28	211.30
348.66	211.39
349.05	211.31
349.43	211.37
349.81	211.37
350.19	211.41
350.57	211.43
350.96	211.55
351.34	211.67
351.72	211.75
352.10	211.80
352.48	211.82
352.87	211.87
353.25	211.93
353.63	211.95
354.01	212.00
354.39	212.03
354.77	212.05
355.15	212.30
355.54	212.28
355.92	212.18
356.30	212.22
356.68	212.57
357.06	212.61
357.44	212.59
357.82	212.60
358.20	212.71
358.58	212.72
358.97	212.71
359.35	212.77
359.73	212.91
360.11	212.95
360.49	213.03
360.87	213.10
361.25	213.20
361.63	213.42
362.01	213.44
362.39	213.43
362.77	213.53
363.15	213.50
363.53	213.52
363.91	213.65
364.29	213.77
364.67	213.37
365.05	213.40
365.43	213.45
365.81	213.56
366.19	213.70
366.57	213.88
366.95	213.99
367.33	213.95
367.71	214.00
368.09	214.08
368.47	214.08
368.85	214.11
369.23	214.20
369.61	214.05
369.99	214.20
370.37	214.30
370.75	214.47
371.13	214.38
371.51	214.35
371.89	214.32
372.27	214.16
372.65	214.12
373.03	214.09
373.41	214.05
373.78	213.98
374.16	213.77
374.54	213.67
374.92	213.56
375.30	213.56
375.68	213.44
376.06	213.40
376.44	213.36
376.82	213.32
377.19	213.18
377.57	213.16
377.95	212.92
378.33	212.80
378.71	212.57
379.09	212.63
379.47	212.67
379.84	212.58
380.22	212.55
380.60	212.53
380.98	212.50
381.36	212.49
381.73	212.37
382.11	212.40
382.49	212.30
382.87	212.21
383.25	212.14
383.62	212.50
384.00	212.37
384.38	212.37
384.76	212.45
385.13	212.62
385.51	212.63
385.89	212.51
386.27	212.56
386.64	212.63
387.02	212.55
387.40	212.49
387.78	212.48
388.15	212.49
388.53	212.46
388.91	212.46
389.29	212.34
389.66	212.35
390.04	212.31
390.42	212.36
390.79	212.37
391.17	212.37
391.55	211.96
391.92	211.99
392.30	212.00
392.68	211.87
393.05	211.80
393.43	211.75
393.81	211.80
394.18	211.74
394.56	211.71
394.94	211.76
395.31	211.70
395.69	211.79
396.06	211.88
396.44	211.89
396.82	211.84
397.19	212.07
397.57	212.09
397.95	212.12
398.32	212.03
398.70	212.07
399.07	212.18
399.45	212.17
399.82	212.16
400.20	212.16
400.58	212.11
400.95	211.97
401.33	212.10
401.70	212.34
402.08	212.35
402.45	212.35
402.83	212.38
403.20	212.52
403.58	212.51
403.95	212.57
404.33	212.74
404.71	212.77
405.08	212.96
405.46	213.09
405.83	213.22
406.21	213.30
406.58	213.41
406.96	213.40
407.33	213.50
407.70	213.61
408.08	214.00
408.45	214.19
408.83	214.44
409.20	214.50
409.58	214.53
409.95	214.79
410.33	215.04
410.70	215.21
411.08	215.51
411.45	215.87
411.82	216.15
412.20	216.54
412.57	217.11
412.95	217.22
413.32	217.55
413.69	217.91
414.07	218.36
414.44	218.84
414.82	219.36
415.19	219.98
415.56	220.67
415.94	221.11
416.31	221.91
416.68	222.69
417.06	223.51
417.43	224.39
417.81	225.30
418.18	226.14
418.55	227.14
418.93	228.16
419.30	229.20
419.67	230.29
420.04	231.42
420.42	232.57
420.79	234.20
421.16	235.60
421.54	237.26
421.91	238.79
422.28	240.36
422.66	242.10
423.03	243.95
423.40	245.63
423.77	247.47
424.15	249.23
424.52	251.11
424.89	253.28
425.26	255.22
425.64	257.11
426.01	259.26
426.38	261.51
426.75	263.74
427.13	266.00
427.50	268.44
427.87	270.85
428.24	273.22
428.61	275.39
428.99	278.16
429.36	280.75
429.73	283.60
430.10	286.38
430.47	289.20
430.85	292.00
431.22	295.08
431.59	298.46
431.96	301.64
432.33	305.14
432.70	308.48
433.08	312.40
433.45	316.13
433.82	319.79
434.19	323.85
434.56	327.87
434.93	331.67
435.30	335.47
435.68	339.70
436.05	343.97
436.42	348.15
436.79	352.05
437.16	356.16
437.53	360.43
437.90	364.61
438.27	368.84
438.64	373.15
439.01	377.16
439.38	380.54
439.75	384.11
440.13	387.95
440.50	391.57
440.87	394.61
441.24	397.77
441.61	401.21
441.98	403.70
442.35	406.59
442.72	409.61
443.09	412.59
443.46	414.26
443.83	415.28
444.20	416.20
444.57	417.42
444.94	418.11
445.31	418.81
445.68	420.02
446.05	420.27
446.42	419.68
446.79	419.20
447.16	418.66
447.53	418.12
447.90	416.52
448.27	414.86
448.64	412.58
449.01	410.86
449.37	408.07
449.74	405.30
450.11	402.27
450.48	398.59
450.85	394.82
451.22	391.62
451.59	388.77
451.96	386.00
452.33	382.19
452.70	378.58
453.07	374.37
453.43	369.63
453.80	365.55
454.17	361.86
454.54	358.19
454.91	354.26
455.28	350.26
455.65	346.68
456.02	343.70
456.38	340.66
456.75	336.91
457.12	333.71
457.49	330.58
457.86	327.33
458.23	324.89
458.59	322.01
458.96	319.29
459.33	316.70
459.70	314.11
460.07	312.11
460.43	309.82
460.80	307.83
461.17	306.10
461.54	304.12
461.91	302.19
462.27	300.27
462.64	298.60
463.01	296.92
463.38	295.28
463.74	293.01
464.11	291.45
464.48	290.16
464.85	288.76
465.21	287.80
465.58	286.65
465.95	285.17
466.32	284.09
466.68	282.88
467.05	281.71
467.42	280.49
467.78	279.32
468.15	278.29
468.52	277.47
468.88	276.28
469.25	275.29
469.62	274.55
469.98	273.66
470.35	272.95
470.72	272.23
471.08	271.35
471.45	270.80
471.82	270.20
472.18	269.50
472.55	269.08
472.92	268.38
473.28	267.81
473.65	267.40
474.02	266.89
474.38	266.60
474.75	266.35
475.11	266.06
475.48	265.80
475.85	265.57
476.21	265.32
476.58	265.25
476.94	265.22
477.31	265.13
477.67	265.14
478.04	265.12
478.41	265.24
478.77	265.71
479.14	265.69
479.50	265.84
479.87	266.01
480.23	266.15
480.60	266.38
480.96	266.60
481.33	267.10
481.69	267.46
482.06	267.80
482.42	268.25
482.79	268.75
483.15	269.37
483.52	270.11
483.88	270.72
484.25	271.33
484.61	271.97
484.98	272.67
485.34	273.57
485.71	274.49
486.07	275.41
486.44	276.16
486.80	277.25
487.17	278.36
487.53	279.69
487.90	281.07
488.26	282.57
488.62	284.15
488.99	285.59
489.35	287.20
489.72	288.84
490.08	290.53
490.44	292.46
490.81	294.37
491.17	296.37
491.54	298.54
491.90	300.87
492.26	303.41
492.63	305.94
492.99	308.48
493.36	311.28
493.72	314.23
494.08	317.13
494.45	320.30
494.81	323.71
495.17	327.12
495.54	330.76
495.90	334.48
496.26	338.35
496.63	342.50
496.99	346.74
497.35	351.25
497.72	355.92
498.08	360.64
498.44	365.60
498.80	370.80
499.17	376.14
499.53	381.68
499.89	387.44
500.26	393.39
500.62	399.47
500.98	405.94
501.34	412.48
501.71	419.41
502.07	426.33
502.43	433.47
502.79	440.78
503.16	448.38
503.52	456.17
503.88	464.15
504.24	472.28
504.60	480.75
504.97	489.53
505.33	498.47
505.69	507.97
506.05	517.48
506.41	527.12
506.78	536.93
507.14	546.88
507.50	557.21
507.86	567.70
508.22	578.60
508.59	589.51
508.95	600.75
509.31	612.07
509.67	623.88
510.03	635.74
510.39	648.02
510.75	660.41
511.12	673.10
511.48	685.99
511.84	699.09
512.20	712.23
512.56	725.75
512.92	739.55
513.28	753.14
513.64	766.98
514.00	780.89
514.37	795.12
514.73	809.70
515.09	824.09
515.45	838.97
515.81	853.55
516.17	868.38
516.53	883.31
516.89	898.49
517.25	913.46
517.61	928.70
517.97	943.77
518.33	959.00
518.69	974.35
519.05	989.78
519.41	1005.70
519.77	1021.62
520.13	1037.03
520.49	1052.35
520.85	1067.88
521.21	1083.89
521.57	1100.11
521.93	1115.60
522.29	1131.70
522.65	1147.96
523.01	1163.63
523.37	1179.22
523.73	1194.95
524.09	1210.73
524.45	1226.36
524.81	1242.29
525.17	1258.33
525.53	1274.43
525.89	1290.31
526.25	1305.94
526.61	1321.31
526.97	1336.15
527.33	1351.46
527.68	1366.88
528.04	1381.83
528.40	1396.37
528.76	1411.05
529.12	1425.97
529.48	1441.16
529.84	1455.65
530.20	1469.99
530.56	1484.54
530.91	1499.63
531.27	1514.41
531.63	1528.57
531.99	1542.84
532.35	1556.47
532.71	1569.80
533.07	1583.30
533.42	1596.55
533.78	1609.90
534.14	1622.90
534.50	1635.22
534.86	1648.00
535.21	1660.11
535.57	1673.10
535.93	1685.53
536.29	1697.18
536.65	1708.59
537.00	1719.63
537.36	1730.23
537.72	1740.73
538.08	1751.14
538.44	1761.41
538.79	1771.52
539.15	1781.63
539.51	1791.66
539.87	1802.25
540.22	1811.67
540.58	1821.65
540.94	1830.95
541.29	1839.62
541.65	1847.91
542.01	1856.50
542.37	1864.35
542.72	1872.46
543.08	1879.63
543.44	1887.88
543.79	1895.05
544.15	1901.77
544.51	1909.25
544.87	1916.78
545.22	1923.38
545.58	1929.56
545.94	1934.69
546.29	1939.73
546.65	1944.39
547.01	1948.86
547.36	1953.07
547.72	1957.64
548.07	1961.05
548.43	1964.44
548.79	1967.29
549.14	1970.59
549.50	1974.01
549.86	1976.30
550.21	1978.99
550.57	1981.74
550.92	1983.02
551.28	1984.88
551.64	1986.58
551.99	1988.30
552.35	1989.39
552.70	1990.52
553.06	1991.94
553.41	1993.32
553.77	1994.30
554.13	1995.49
554.48	1996.61
554.84	1997.11
555.19	1997.62
555.55	1997.55
555.90	1997.07
556.26	1997.25
556.61	1996.99
556.97	1995.82
557.32	1995.70
557.68	1994.28
558.03	1992.93
558.39	1991.94
558.74	1991.72
559.10	1991.20
559.45	1989.84
559.81	1988.42
560.16	1986.77
560.52	1985.14
560.87	1983.64
561.23	1981.32
561.58	1979.35
561.94	1976.50
562.29	1973.78
562.64	1971.60
563.00	1969.52
563.35	1968.11
563.71	1966.59
564.06	1965.00
564.42	1963.62
564.77	1961.86
565.12	1960.51
565.48	1958.58
565.83	1956.95
566.19	1954.44
566.54	1951.26
566.89	1948.25
567.25	1946.00
567.60	1943.56
567.96	1940.72
568.31	1937.72
568.66	1934.81
569.02	1931.60
569.37	1927.87
569.72	1924.59
570.08	1920.45
570.43	1916.76
570.78	1912.33
571.14	1907.49
571.49	1902.58
571.84	1898.40
572.20	1893.21
572.55	1888.84
572.90	1883.91
573.26	1878.27
573.61	1872.93
573.96	1868.11
574.31	1862.50
574.67	1856.07
575.02	1850.05
575.37	1844.19
575.72	1837.87
576.08	1832.68
576.43	1826.37
576.78	1821.11
577.13	1815.90
577.49	1810.61
577.84	1804.86
578.19	1799.67
578.54	1794.79
578.90	1789.93
579.25	1783.92
579.60	1777.98
579.95	1771.27
580.30	1765.92
580.66	1760.75
581.01	1754.78
581.36	1748.82
581.71	1742.85
582.06	1737.59
582.42	1732.05
582.77	1725.65
583.12	1720.18
583.47	1714.70
583.82	1709.94
584.17	1704.50
584.53	1698.75
584.88	1693.17
585.23	1687.36
585.58	1681.28
585.93	1675.31
586.28	1669.63
586.63	1663.90
586.98	1658.39
587.34	1653.68
587.69	1647.71
588.04	1641.95
588.39	1636.76
588.74	1630.58
589.09	1625.60
589.44	1619.79
589.79	1614.54
590.14	1609.71
590.49	1604.12
590.84	1598.15
591.19	1592.72
591.54	1586.88
591.89	1580.60
592.25	1574.70
592.60	1568.40
592.95	1562.82
593.30	1556.31
593.65	1549.73
594.00	1543.66
594.35	1539.45
594.70	1532.93
595.05	1527.45
595.40	1521.81
595.75	1515.36
596.10	1510.29
596.45	1504.83
596.80	1499.80
597.15	1494.50
597.50	1488.75
597.85	1483.51
598.19	1477.81
598.54	1471.94
598.89	1466.85
599.24	1462.14
599.59	1457.07
599.94	1452.78
600.29	1447.78
600.64	1443.00
600.99	1437.69
601.34	1433.01
601.69	1426.60
602.04	1421.52
602.39	1415.92
602.74	1410.73
603.08	1406.44
603.43	1401.87
603.78	1396.55
604.13	1391.28
604.48	1385.84
604.83	1381.63
605.18	1377.29
605.53	1372.38
605.87	1367.22
606.22	1362.27
606.57	1356.99
606.92	1351.53
607.27	1345.84
607.62	1340.37
607.96	1335.48
608.31	1331.03
608.66	1325.51
609.01	1320.00
609.36	1314.40
609.70	1308.95
610.05	1303.29
610.40	1297.44
610.75	1291.44
611.10	1286.08
611.44	1279.57
611.79	1273.41
612.14	1266.77
612.49	1259.83
612.83	1253.74
613.18	1247.68
613.53	1241.44
613.88	1234.70
614.22	1228.80
614.57	1222.62
614.92	1216.30
615.27	1209.87
615.61	1203.41
615.96	1197.49
616.31	1191.96
616.65	1186.71
617.00	1181.05
617.35	1175.21
617.70	1169.11
618.04	1162.49
618.39	1155.88
618.74	1150.30
619.08	1144.28
619.43	1138.52
619.78	1133.01
620.12	1127.09
620.47	1121.18
620.82	1114.89
621.16	1108.94
621.51	1102.93
621.85	1097.00
622.20	1091.27
622.55	1085.18
622.89	1079.13
623.24	1073.06
623.59	1066.74
623.93	1060.55
624.28	1054.59
624.62	1048.90
624.97	1043.15
625.32	1037.84
625.66	1032.54
626.01	1026.97
626.35	1021.66
626.70	1016.07
627.04	1010.70
627.39	1005.51
627.73	1000.35
628.08	995.31
628.43	990.11
628.77	984.68
629.12	979.54
629.46	974.50
629.81	969.51
630.15	964.19
630.50	958.85
630.84	953.38
631.19	948.09
631.53	942.87
631.88	937.02
632.22	931.60
632.57	926.52
632.91	921.17
633.26	915.82
633.60	910.76
633.95	905.70
634.29	900.49
634.64	895.49
634.98	890.10
635.32	885.18
635.67	880.61
636.01	875.73
636.36	870.45
636.70	865.54
637.05	860.65
637.39	856.25
637.73	851.71
638.08	847.60
638.42	843.17
638.77	838.63
639.11	834.30
639.45	829.94
639.80	825.11
640.14	820.28
640.49	815.70
640.83	811.07
641.17	806.42
641.52	801.59
641.86	796.66
642.20	792.26
642.55	787.18
642.89	782.21
643.23	777.44
643.58	773.25
643.92	768.40
644.26	763.67
644.61	758.95
644.95	754.22
645.29	749.39
645.64	744.65
645.98	740.05
646.32	735.65
646.66	730.97
647.01	726.61
647.35	722.57
647.69	717.85
648.04	713.41
648.38	708.95
648.72	704.62
649.06	700.26
649.41	695.61
649.75	691.46
650.09	687.26
650.43	682.97
650.78	678.37
651.12	674.00
651.46	669.67
651.80	665.59
652.14	661.59
652.49	657.38
652.83	653.12
653.17	648.49
653.51	644.21
653.85	640.08
654.20	635.87
654.54	631.47
654.88	627.57
655.22	623.44
655.56	619.19
655.90	615.00
656.25	610.85
656.59	606.76
656.93	602.72
657.27	598.78
657.61	594.68
657.95	590.93
658.29	587.21
658.64	583.55
658.98	579.40
659.32	575.27
659.66	571.48
660.00	567.61
660.34	563.96
660.68	560.09
661.02	556.21
661.36	552.60
661.70	549.08
662.05	545.64
662.39	542.29
662.73	539.05
663.07	535.95
663.41	532.70
663.75	529.39
664.09	526.00
664.43	522.56
664.77	519.32
665.11	516.02
665.45	512.74
665.79	509.54
666.13	506.52
666.47	503.49
666.81	500.42
667.15	497.33
667.49	494.60
667.83	491.95
668.17	489.10
668.51	486.43
668.85	483.63
669.19	480.96
669.53	478.06
669.87	475.07
670.21	472.15
670.55	469.45
670.89	467.15
671.23	464.82
671.57	462.29
671.91	459.68
672.25	457.21
672.58	454.75
672.92	452.23
673.26	449.94
673.60	447.65
673.94	445.23
674.28	442.99
674.62	440.77
674.96	438.35
675.30	436.20
675.64	433.67
675.97	431.25
676.31	429.00
676.65	426.78
676.99	425.01
677.33	422.84
677.67	420.72
678.01	418.38
678.34	416.18
678.68	414.10
679.02	412.11
679.36	409.93
679.70	407.75
680.04	405.79
680.37	403.45
680.71	401.25
681.05	399.32
681.39	397.32
681.73	395.26
682.06	393.32
682.40	391.40
682.74	389.60
683.08	387.90
683.42	385.90
683.75	384.05
684.09	381.87
684.43	379.92
684.77	377.93
685.10	376.00
685.44	374.10
685.78	372.20
686.12	370.42
686.45	368.73
686.79	367.07
687.13	365.39
687.46	363.81
687.80	362.35
688.14	360.51
688.48	358.97
688.81	357.14
689.15	355.52
689.49	353.74
689.82	352.10
690.16	350.21
690.50	348.55
690.83	346.84
691.17	345.20
691.51	343.70
691.84	342.16
692.18	340.70
692.52	339.27
692.85	338.00
693.19	336.66
693.52	335.21
693.86	333.64
694.20	332.14
694.53	330.81
694.87	329.38
695.21	327.95
695.54	326.33
695.88	324.92
696.21	323.49
696.55	322.27
696.88	320.92
697.22	319.65
697.56	318.46
697.89	317.17
698.23	316.03
698.56	314.80
698.90	313.65
699.23	312.39
699.57	311.10
699.90	309.82
700.24	308.51
700.58	307.29
700.91	306.29
701.25	305.37
701.58	304.29
701.92	303.13
702.25	302.15
702.59	301.07
702.92	300.14
703.26	299.08
703.59	298.10
703.93	297.39
704.26	296.48
704.60	295.46
704.93	294.45
705.26	293.40
705.60	292.52
705.93	291.51
706.27	290.66
706.60	289.89
706.94	289.19
707.27	288.22
707.61	287.34
707.94	286.35
708.27	285.24
708.61	284.25
708.94	283.39
709.28	282.51
709.61	281.72
709.94	280.89
710.28	280.11
710.61	279.27
710.95	278.10
711.28	277.49
711.61	276.73
711.95	276.16
712.28	275.37
712.61	274.56
712.95	273.97
713.28	273.46
713.61	272.71
713.95	271.86
714.28	271.25
714.61	270.54
714.95	269.95
715.28	269.17
715.61	268.39
715.95	267.71
716.28	267.02
716.61	266.41
716.95	265.70
717.28	265.04
717.61	264.37
717.94	263.86
718.28	263.10
718.61	262.51
718.94	261.84
719.27	261.23
719.61	260.67
719.94	260.02
720.27	259.15
720.60	258.53
720.94	257.99
721.27	257.43
721.60	257.06
721.93	256.46
722.27	256.20
722.60	255.90
722.93	255.39
723.26	254.99
723.59	254.46
723.93	254.09
724.26	253.71
724.59	253.36
724.92	252.96
725.25	252.52
725.59	252.11
725.92	251.69
726.25	251.33
726.58	250.91
726.91	250.59
727.24	250.35
727.57	249.94
727.91	249.45
728.24	249.11
728.57	248.58
728.90	248.25
729.23	247.70
729.56	247.39
729.89	246.98
730.22	246.55
730.55	246.19
730.89	245.81
731.22	245.29
731.55	244.87
731.88	244.44
732.21	244.05
732.54	243.63
732.87	243.21
733.20	242.84
733.53	242.56
733.86	242.16
734.19	241.74
734.52	241.44
734.85	241.36
735.18	240.92
735.51	240.74
735.84	240.46
736.17	240.24
736.50	239.77
736.83	239.91
737.16	239.62
737.49	239.33
737.82	238.98
738.15	238.87
738.48	238.53
738.81	238.24
739.14	237.90
739.47	237.57
739.80	237.32
740.13	237.10
740.46	236.72
740.79	236.34
741.12	236.02
741.45	235.66
741.78	235.19
742.11	235.11
742.44	234.77
742.77	234.56
743.10	234.33
743.43	234.11
743.75	233.42
744.08	233.62
744.41	233.36
744.74	233.10
745.07	232.76
745.40	232.66
745.73	232.60
746.06	232.41
746.39	232.36
746.71	232.09
747.04	231.85
747.37	231.64
747.70	231.56
748.03	231.44
748.36	231.33
748.68	231.12
749.01	230.70
749.34	230.51
749.67	230.31
750.00	230.15
750.33	230.18
750.65	230.11
750.98	229.50
751.31	229.28
751.64	229.08
751.97	229.09
752.29	228.81
752.62	228.45
752.95	228.22
753.28	227.85
753.60	227.70
753.93	227.54
754.26	227.39
754.59	227.09
754.91	226.86
755.24	226.64
755.57	226.50
755.90	226.41
756.22	226.21
756.55	225.93
756.88	225.69
757.20	225.30
757.53	224.93
757.86	224.83
758.19	224.64
758.51	224.58
758.84	224.24
759.17	224.04
759.49	223.89
759.82	223.96
760.15	223.91
760.47	223.78
760.80	223.56
761.13	223.43
761.45	223.25
761.78	223.09
762.11	222.95
762.43	222.76
762.76	222.64
763.08	222.60
763.41	222.55
763.74	222.46
764.06	222.29
764.39	222.20
764.71	222.03
765.04	221.90
765.37	221.74
765.69	221.58
766.02	221.47
766.34	221.41
766.67	221.12
767.00	221.12
767.32	221.17
767.65	221.32
767.97	221.18
768.30	221.17
768.62	221.11
768.95	220.98
769.27	220.90
769.60	220.88
769.92	220.67
770.25	220.51
770.57	220.28
770.90	220.20
771.22	220.11
771.55	220.02
771.87	219.97
772.20	219.83
772.52	220.06
772.85	220.38
773.17	220.28
773.50	220.25
773.82	220.03
774.15	219.77
774.47	219.45
774.80	219.36
775.12	219.22
775.45	219.11
775.77	219.02
776.09	218.99
776.42	218.88
776.74	218.92
777.07	218.80
777.39	218.77
777.72	218.63
778.04	218.64
778.36	218.49
778.69	218.45
779.01	218.36
779.33	217.99
779.66	217.52
779.98	217.33
780.31	217.27
780.63	217.34
780.95	217.37
781.28	217.25
781.60	217.13
781.92	217.10
782.25	217.09
782.57	217.11
782.89	216.97
783.22	216.91
783.54	216.75
783.86	216.74
784.19	216.67
784.51	216.79
784.83	216.65
785.16	216.66
785.48	216.65
785.80	216.63
786.12	216.59
786.45	216.60
786.77	216.60
787.09	216.53
787.42	216.34
787.74	216.23
788.06	216.24
788.38	216.20
788.71	216.13
789.03	216.07
789.35	216.03
789.67	215.90
789.99	215.86
790.32	215.80
790.64	215.79
790.96	216.08
791.28	215.88
791.61	215.76
791.93	215.72
792.25	215.64
792.57	215.86
792.89	215.72
793.21	215.65
793.54	215.54
793.86	215.48
794.18	215.45
794.50	215.40
794.82	215.43
795.14	215.47
795.47	215.43
795.79	215.34
796.11	215.26
796.43	215.25
796.75	215.23
797.07	215.15
797.39	215.14
797.71	214.85
798.04	214.87
798.36	214.97
798.68	214.94
799.00	214.91
799.32	214.67
799.64	214.78
799.96	214.66
800.28	214.75
800.60	214.66
800.92	214.71
801.24	214.64
801.56	214.61
801.89	214.57
802.21	214.60
802.53	214.52
802.85	214.52
803.17	214.68
803.49	214.56
803.81	214.61
804.13	214.53
804.45	214.43
804.77	214.38
805.09	214.33
805.41	214.27
805.73	214.15
806.05	214.02
806.37	213.97
806.69	214.05
807.01	214.03
807.33	214.10
807.65	213.96
807.97	214.18
808.28	214.08
808.60	214.06
808.92	214.01
809.24	214.25
809.56	214.18
809.88	214.03
810.20	214.01
810.52	214.02
810.84	213.98
811.16	213.89
811.48	213.91
811.80	213.97
812.12	213.95
812.43	214.10
812.75	214.17
813.07	214.06
813.39	214.07
813.71	213.99
814.03	213.89
814.35	213.86
814.67	213.63
814.98	213.59
815.30	213.53
815.62	213.43
815.94	213.16
816.26	213.17
816.58	213.10
816.89	213.17
817.21	213.01
817.53	213.03
817.85	213.09
818.17	213.01
818.48	212.89
818.80	212.92
819.12	212.74
819.44	212.62
819.76	212.67
820.07	212.59
820.39	212.56
820.71	212.61
821.03	212.61
821.34	212.55
821.66	212.60
821.98	212.65
822.30	212.66
822.61	212.85
822.93	212.82
823.25	212.76
823.57	212.68
823.88	212.75
824.20	212.71
824.52	212.80
824.83	212.76
825.15	212.78
825.47	212.69
825.79	212.73
826.10	212.72
826.42	212.66
826.74	212.71
827.05	212.69
827.37	212.66
827.69	212.61
828.00	212.61
828.32	212.56
828.64	212.50
828.95	212.70
829.27	212.62
829.58	212.55
829.90	212.65
830.22	212.72
830.53	212.70
830.85	212.58
831.17	212.52
831.48	212.55
831.80	212.52
832.11	212.56
832.43	212.53
832.75	212.55
833.06	212.75
833.38	212.62
833.69	212.64
834.01	212.71
834.32	212.71
834.64	212.77
834.96	212.74
835.27	212.72
835.59	212.56
835.90	212.48
836.22	212.50
836.53	212.43
836.85	212.34
837.16	212.53
837.48	212.56
837.79	212.62
838.11	212.60
838.42	212.57
838.74	212.55
839.05	212.49
839.37	212.44
839.68	212.23
840.00	212.20
840.31	212.24
840.63	212.10
840.94	212.11
841.26	211.98
841.57	212.00
841.88	212.05
842.20	211.98
842.51	211.98
842.83	211.96
843.14	212.22
843.46	212.20
843.77	212.08
844.08	212.10
844.40	211.98
844.71	212.01
845.03	211.92
845.34	211.97
845.65	211.97
845.97	212.05
846.28	212.02
846.60	212.06
846.91	211.99
847.22	211.98
847.54	212.02
847.85	212.03
848.16	211.97
848.48	211.86
848.79	212.03
849.10	212.03
849.42	212.10
849.73	211.84
850.04	211.81
850.36	211.70
850.67	211.78
850.98	211.81
851.30	211.79
851.61	211.80
851.92	211.74
852.23	211.84
852.55	211.77
852.86	211.86
853.17	211.87
853.49	211.93
853.80	212.02
854.11	212.03
854.42	212.09
854.74	212.12
855.05	212.20
855.36	211.96
855.67	212.00
855.99	211.96
856.30	212.41
856.61	212.40
856.92	212.42
857.23	212.34
857.55	212.27
857.86	212.25
858.17	212.34
858.48	212.27
858.79	212.21
859.11	212.30
859.42	212.23
859.73	212.18
860.04	212.18
860.35	212.06
860.66	211.97
860.98	211.96
861.29	211.96
861.60	211.91
861.91	212.04
862.22	211.98
862.53	211.98
862.84	211.58
863.16	211.66
863.47	211.67
863.78	211.70
864.09	211.79
864.40	211.85
864.71	211.90
865.02	212.02
865.33	211.97
865.64	211.87
865.95	211.87
866.27	212.16
866.58	212.12
866.89	212.20
867.20	212.20
867.51	212.15
867.82	212.16
868.13	212.32
868.44	212.27
868.75	212.31
869.06	212.24
869.37	212.15
869.68	212.06
869.99	212.05
870.30	212.10
870.61	212.10
870.92	212.05
871.23	211.95
871.54	211.96
871.85	212.13
872.16	212.26
872.47	212.25
872.78	212.04
873.09	212.10
873.40	212.07
873.71	212.14
874.02	212.17
874.33	212.09
874.64	211.97
874.95	212.05
875.26	212.00
875.56	211.99
875.87	212.04
876.18	212.09
876.49	212.42
876.80	212.34
877.11	212.20
877.42	212.18
877.73	212.20
878.04	212.15
878.35	212.09
878.66	212.01
878.96	212.01
879.27	211.90
879.58	211.83
879.89	211.81
880.20	211.87
880.51	211.85
880.82	211.87
881.12	211.82
881.43	211.74
881.74	211.65
882.05	211.66
882.36	211.71
882.67	211.71
882.97	211.26
883.28	211.22
883.59	211.26
883.90	211.30
884.21	211.34
884.51	211.24
884.82	211.15
885.13	211.15
885.44	211.15
885.74	211.24
886.05	211.23
886.36	211.22
886.67	211.10
886.98	211.25
887.28	211.30
887.59	211.32
887.90	211.25
888.20	211.27
888.51	211.40
888.82	211.28
889.13	211.29
889.43	211.60
889.74	211.64
890.05	211.66
890.35	211.64
890.66	211.58
890.97	211.56
891.28	211.51
891.58	211.53
891.89	211.53
892.20	211.48
892.50	211.46
892.81	211.44
893.12	211.44
893.42	211.21
893.73	211.20
894.04	211.25
894.34	211.32
894.65	211.31
894.95	211.20
895.26	211.23
895.57	211.38
895.87	211.04
896.18	211.06
896.48	211.09
896.79	211.00
897.10	211.03
897.40	211.14
897.71	211.24
898.01	211.18
898.32	211.18
898.63	211.14
898.93	211.16
899.24	211.15
899.54	211.15
899.85	211.21
900.15	211.21
900.46	211.24
900.76	211.25
901.07	211.30
901.38	211.30
901.68	211.38
901.99	211.21
902.29	211.23
902.60	211.22
902.90	211.17
903.21	211.21
903.51	211.20
903.82	211.22
904.12	211.18
904.43	211.16
904.73	211.11
905.03	211.18
905.34	211.53
905.64	211.52
905.95	211.49
906.25	211.48
906.56	211.49
906.86	211.38
907.17	211.31
907.47	211.30
907.77	211.30
908.08	211.19
908.38	211.14
908.69	211.20
908.99	211.22
909.30	211.16
909.60	211.19
909.90	211.20
910.21	211.10
910.51	211.05
910.81	211.03
911.12	211.12
911.42	211.14
911.73	210.73
912.03	210.80
912.33	210.85
912.64	210.86
912.94	210.79
913.24	210.79
913.55	210.78
913.85	210.77
914.15	210.78
914.46	210.86
914.76	210.84
915.06	210.83
915.37	210.80
915.67	210.85
915.97	210.85
916.27	210.73
916.58	210.69
916.88	210.66
917.18	210.70
917.49	210.92
917.79	210.85
918.09	210.98
918.39	211.01
918.70	211.05
919.00	211.04
919.30	211.21
919.60	211.25
919.91	211.27
920.21	211.30
920.51	211.29
920.81	211.26
921.12	211.31
921.42	211.30
921.72	211.31
922.02	211.31
922.32	211.34
922.63	211.44
922.93	211.65
923.23	211.69
923.53	211.71
923.83	211.47
924.13	211.49
924.44	211.42
924.74	211.50
925.04	211.54
925.34	211.49
925.64	211.37
925.94	211.25
926.24	211.42
926.55	211.37
926.85	211.39
927.15	211.46
927.45	211.54
927.75	211.52
928.05	211.54
928.35	211.55
928.65	211.60
928.95	211.66
929.26	211.56
929.56	211.64
929.86	211.69
930.16	211.66
930.46	211.65
930.76	211.64
931.06	211.47
931.36	211.42
931.66	211.51
931.96	211.47
932.26	211.57
932.56	211.48
932.86	211.54
933.16	211.52
933.46	211.49
933.76	211.40
934.06	211.51
934.36	211.62
934.66	211.62
934.96	211.54
935.26	211.55
935.56	211.62
935.86	211.59
936.16	211.53
936.46	211.52
936.76	211.50
937.06	211.53
937.36	211.56
937.66	211.47
937.96	211.50
938.26	211.55
938.56	211.46
938.86	211.41
939.16	211.49
939.46	211.51
939.76	211.52
940.06	211.56
940.35	211.44
940.65	211.25
940.95	211.23
941.25	211.14
941.55	211.08
941.85	211.01
942.15	211.04
942.45	211.15
942.75	211.13
943.04	211.16
943.34	211.25
943.64	211.27
943.94	211.32
944.24	211.28
944.54	211.31
944.84	211.41
945.13	211.43
945.43	211.38
945.73	211.35
946.03	211.26
946.33	211.20
946.62	211.15
946.92	211.21
947.22	211.23
947.52	211.28
947.82	211.30
948.11	211.23
948.41	211.16
948.71	211.05
949.01	211.08
949.31	211.06
949.60	211.00
949.90	210.99
950.20	210.93
950.50	210.91
950.79	210.88
951.09	210.88
951.39	210.84
951.69	210.79
951.98	210.90
952.28	210.91
952.58	210.93
952.87	210.99
953.17	210.98
953.47	211.01
953.76	211.01
954.06	210.95
954.36	210.94
954.66	210.95
954.95	211.12
955.25	211.13
955.55	211.09
955.84	211.00
956.14	211.03
956.44	211.07
956.73	210.96
957.03	211.02
957.32	211.05
957.62	211.05
957.92	211.13
958.21	211.08
958.51	211.55
958.81	211.60
959.10	211.63
959.40	211.73
959.69	211.70
959.99	211.74
960.29	211.74
960.58	211.76
960.88	211.84
961.17	211.69
961.47	211.79
961.76	211.85
962.06	211.95
962.36	211.92
962.65	211.96
962.95	212.05
963.24	211.94
963.54	211.87
963.83	211.85
964.13	211.79
964.42	211.66
964.72	211.36
965.01	211.34
965.31	211.32
965.60	211.25
965.90	211.53
966.19	211.56
966.49	211.58
966.78	211.62
967.08	211.65
967.37	211.67
967.67	211.54
967.96	211.56
968.26	211.55
968.55	211.60
968.85	211.55
969.14	211.60
969.43	211.63
969.73	211.71
970.02	211.72
970.32	211.74
970.61	211.77
970.91	211.62
971.20	211.60
971.49	211.50
971.79	211.48
972.08	211.13
972.38	211.18
972.67	211.14
972.96	211.14
973.26	211.03
973.55	211.14
973.85	211.11
974.14	211.09
974.43	211.09
974.73	211.06
975.02	211.08
975.31	211.01
975.61	211.00
975.90	210.91
976.19	210.88
976.49	210.90
976.78	210.95
977.07	210.96
977.37	210.94
977.66	211.06
977.95	211.02
978.24	211.05
978.54	211.07
978.83	211.04
979.12	211.01
979.42	211.02
979.71	210.91
980.00	210.90
980.29	210.90
980.59	210.87
980.88	210.90
981.17	210.86
981.46	210.86
981.76	210.89
982.05	210.99
982.34	211.06
982.63	211.01
982.93	210.95
983.22	211.13
983.51	211.15
983.80	211.13
984.09	211.15
984.39	211.13
984.68	211.01
984.97	211.05
985.26	210.96
985.55	210.95
985.85	210.93
986.14	211.01
986.43	211.07
986.72	211.07
987.01	211.00
987.30	211.01
987.59	210.97
987.89	210.94
988.18	210.86
988.47	210.77
988.76	210.72
989.05	210.78
989.34	210.60
989.63	210.68
989.92	210.70
990.22	210.74
990.51	210.75
990.80	210.81
991.09	210.90
991.38	211.00
991.67	210.99
991.96	210.91
992.25	210.93
992.54	210.82
992.83	210.78
993.12	210.73
993.41	210.79
993.70	210.89
993.99	210.88
994.28	210.91
994.58	211.00
994.87	211.01
995.16	210.97
995.45	211.04
995.74	210.88
996.03	210.87
996.32	210.88
996.61	210.99
996.90	210.98
997.19	210.94
997.48	210.95
997.77	210.89
998.06	210.99
998.34	210.95
998.63	210.96
998.92	211.01
999.21	211.06
999.50	211.10
999.79	211.01
1000.08	211.07
1000.37	211.14
1000.66	211.05
1000.95	211.11
1001.24	211.07
1001.53	211.10
1001.82	211.12
1002.11	211.13
1002.40	211.20
1002.68	211.26
1002.97	211.45
1003.26	211.39
1003.55	211.40
1003.84	211.51
1004.13	211.56
1004.42	211.60
1004.71	211.62
1004.99	211.55
1005.28	211.65
1005.57	211.57
1005.86	211.60
1006.15	211.57
1006.44	211.49
1006.72	211.61
1007.01	211.61
1007.30	211.63
1007.59	211.57
1007.88	211.62
1008.17	211.55
1008.45	211.40
1008.74	211.24
1009.03	211.06
1009.32	211.10
1009.60	211.04
1009.89	210.93
1010.18	210.80
1010.47	210.68
1010.76	210.67
1011.04	210.70
1011.33	210.70
1011.62	210.76
1011.91	210.77
1012.19	210.80
1012.48	210.84
1012.77	210.79
1013.05	210.97
1013.34	210.99
1013.63	211.04
1013.92	211.01
1014.20	211.05
1014.49	211.10
1014.78	211.18
1015.06	211.10
1015.35	211.06
1015.64	211.07
1015.92	211.11
1016.21	211.12
1016.50	211.16
1016.78	211.23
1017.07	211.27
1017.36	211.21
1017.64	211.15
1017.93	211.15
1018.22	211.10
1018.50	211.03
1018.79	211.04
1019.08	210.79
1019.36	210.80
1019.65	210.80
1019.93	210.89
1020.22	210.94
1020.51	211.12
1020.79	211.00
1021.08	210.20
1021.36	210.20
1021.65	211.05
1021.94	210.35
1022.22	210.85
1022.51	211.65
1022.79	212.75
1023.08	211.65
1023.36	215.40
1023.65	209.05
>>>>>End Processed Spectral Data<<<<<
