SpectraSuite Data File
++++++++++++++++++++++++++++++++++++
Date: Mon Feb 25 17:15:37 EST 2013
User: group
Dark Spectrum Present: No
Reference Spectrum Present: No
Number of Sampled Component Spectra: 1
Spectrometers: USB2E7196
Integration Time (usec): 104000 (USB2E7196)
Spectra Averaged: 20 (USB2E7196)
Boxcar Smoothing: 10 (USB2E7196)
Correct for Electrical Dark: No (USB2E7196)
Strobe/Lamp Enabled: No (USB2E7196)
Correct for Detector Non-linearity: No (USB2E7196)
Correct for Stray Light: No (USB2E7196)
Number of Pixels in Processed Spectrum: 2048
>>>>>Begin Processed Spectral Data<<<<<
339.09	0.00
339.48	199.45
339.86	200.05
340.24	201.95
340.63	203.55
341.01	208.70
341.39	205.15
341.78	207.85
342.16	209.35
342.54	208.15
342.93	198.39
343.31	208.40
343.69	208.90
344.07	209.37
344.46	209.88
344.84	210.31
345.22	210.46
345.60	210.82
345.99	211.00
346.37	211.16
346.75	211.32
347.13	211.38
347.52	211.55
347.90	211.77
348.28	211.78
348.66	211.90
349.05	211.77
349.43	211.83
349.81	211.93
350.19	212.01
350.57	212.06
350.96	212.12
351.34	212.21
351.72	212.33
352.10	212.45
352.48	212.43
352.87	212.42
353.25	212.42
353.63	212.42
354.01	212.49
354.39	212.50
354.77	212.50
355.15	212.60
355.54	212.51
355.92	212.46
356.30	212.58
356.68	212.86
357.06	212.95
357.44	212.98
357.82	213.00
358.20	213.08
358.58	213.11
358.97	213.15
359.35	213.31
359.73	213.38
360.11	213.40
360.49	213.45
360.87	213.54
361.25	213.66
361.63	213.78
362.01	213.81
362.39	213.82
362.77	213.92
363.15	213.96
363.53	214.07
363.91	214.03
364.29	214.00
364.67	213.70
365.05	213.67
365.43	213.66
365.81	213.74
366.19	213.90
366.57	214.04
366.95	214.11
367.33	213.95
367.71	213.93
368.09	214.05
368.47	214.08
368.85	214.03
369.23	214.02
369.61	213.82
369.99	213.96
370.37	214.00
370.75	214.12
371.13	214.00
371.51	213.87
371.89	213.89
372.27	213.89
372.65	213.83
373.03	213.83
373.41	213.82
373.78	213.75
374.16	213.48
374.54	213.32
374.92	213.15
375.30	213.18
375.68	213.13
376.06	213.02
376.44	212.87
376.82	212.88
377.19	212.86
377.57	212.88
377.95	212.70
378.33	212.62
378.71	212.39
379.09	212.42
379.47	212.52
379.84	212.48
380.22	212.40
380.60	212.33
380.98	212.31
381.36	212.22
381.73	212.13
382.11	212.22
382.49	212.17
382.87	212.10
383.25	212.09
383.62	212.40
384.00	212.23
384.38	212.26
384.76	212.27
385.13	212.31
385.51	212.34
385.89	212.30
386.27	212.27
386.64	212.21
387.02	212.21
387.40	212.04
387.78	212.06
388.15	212.02
388.53	212.00
388.91	211.96
389.29	211.98
389.66	211.98
390.04	211.92
390.42	211.94
390.79	211.96
391.17	211.89
391.55	211.48
391.92	211.58
392.30	211.55
392.68	211.43
393.05	211.42
393.43	211.42
393.81	211.41
394.18	211.35
394.56	211.45
394.94	211.45
395.31	211.44
395.69	211.51
396.06	211.59
396.44	211.59
396.82	211.58
397.19	211.75
397.57	211.77
397.95	211.80
398.32	211.75
398.70	211.86
399.07	211.94
399.45	212.02
399.82	211.95
400.20	211.97
400.58	212.08
400.95	211.94
401.33	211.97
401.70	212.19
402.08	212.27
402.45	212.29
402.83	212.43
403.20	212.48
403.58	212.51
403.95	212.59
404.33	212.78
404.71	212.93
405.08	213.15
405.46	213.25
405.83	213.41
406.21	213.51
406.58	213.64
406.96	213.74
407.33	213.92
407.70	214.14
408.08	214.65
408.45	214.86
408.83	215.15
409.20	215.31
409.58	215.36
409.95	215.62
410.33	215.93
410.70	216.10
411.08	216.50
411.45	216.81
411.82	217.13
412.20	217.46
412.57	217.99
412.95	218.12
413.32	218.62
413.69	219.05
414.07	219.53
414.44	220.03
414.82	220.66
415.19	221.28
415.56	222.00
415.94	222.40
416.31	223.13
416.68	223.94
417.06	224.99
417.43	225.96
417.81	227.01
418.18	228.07
418.55	229.23
418.93	230.34
419.30	231.61
419.67	232.87
420.04	234.16
420.42	235.51
420.79	237.34
421.16	238.85
421.54	240.61
421.91	242.28
422.28	244.02
422.66	245.89
423.03	247.93
423.40	249.92
423.77	252.01
424.15	254.02
424.52	256.17
424.89	258.41
425.26	260.54
425.64	262.69
426.01	264.95
426.38	267.32
426.75	269.86
427.13	272.35
427.50	274.97
427.87	277.81
428.24	280.50
428.61	282.93
428.99	285.98
429.36	289.11
429.73	292.34
430.10	295.60
430.47	298.78
430.85	301.88
431.22	305.30
431.59	309.19
431.96	312.78
432.33	316.64
432.70	320.53
433.08	324.92
433.45	329.10
433.82	333.25
434.19	337.86
434.56	342.44
434.93	346.78
435.30	351.10
435.68	355.88
436.05	360.52
436.42	365.13
436.79	369.30
437.16	373.70
437.53	378.45
437.90	383.10
438.27	387.76
438.64	392.56
439.01	397.06
439.38	400.92
439.75	404.80
440.13	409.19
440.50	413.14
440.87	416.58
441.24	420.04
441.61	423.86
441.98	426.66
442.35	429.85
442.72	433.15
443.09	436.45
443.46	438.28
443.83	439.60
444.20	440.80
444.57	442.44
444.94	443.30
445.31	444.12
445.68	445.17
446.05	445.48
446.42	444.96
446.79	444.40
447.16	443.58
447.53	442.96
447.90	441.15
448.27	439.19
448.64	436.60
449.01	434.73
449.37	431.57
449.74	428.41
450.11	424.86
450.48	420.77
450.85	416.58
451.22	413.04
451.59	409.67
451.96	406.43
452.33	402.15
452.70	398.26
453.07	393.62
453.43	388.65
453.80	384.09
454.17	379.84
454.54	375.67
454.91	371.31
455.28	367.03
455.65	363.06
456.02	359.66
456.38	356.27
456.75	352.10
457.12	348.55
457.49	345.11
457.86	341.68
458.23	338.93
458.59	335.83
458.96	332.66
459.33	329.84
459.70	327.05
460.07	324.78
460.43	322.15
460.80	319.77
461.17	317.76
461.54	315.57
461.91	313.47
462.27	311.35
462.64	309.58
463.01	307.63
463.38	305.89
463.74	303.53
464.11	301.88
464.48	300.44
464.85	298.90
465.21	297.76
465.58	296.38
465.95	294.78
466.32	293.47
466.68	292.14
467.05	290.95
467.42	289.67
467.78	288.40
468.15	287.20
468.52	286.22
468.88	284.84
469.25	283.79
469.62	283.00
469.98	282.15
470.35	281.28
470.72	280.57
471.08	279.49
471.45	278.90
471.82	278.30
472.18	277.46
472.55	276.98
472.92	276.28
473.28	275.77
473.65	275.22
474.02	274.72
474.38	274.43
474.75	274.10
475.11	273.73
475.48	273.51
475.85	273.23
476.21	273.10
476.58	273.05
476.94	272.91
477.31	272.76
477.67	272.66
478.04	272.69
478.41	272.75
478.77	273.27
479.14	273.31
479.50	273.40
479.87	273.73
480.23	274.09
480.60	274.36
480.96	274.64
481.33	275.28
481.69	275.69
482.06	276.15
482.42	276.62
482.79	277.24
483.15	277.90
483.52	278.79
483.88	279.62
484.25	280.41
484.61	281.42
484.98	282.36
485.34	283.48
485.71	284.57
486.07	285.78
486.44	286.69
486.80	287.96
487.17	289.36
487.53	290.89
487.90	292.38
488.26	294.18
488.62	296.13
488.99	297.76
489.35	299.73
489.72	301.74
490.08	303.95
490.44	306.20
490.81	308.65
491.17	311.04
491.54	313.64
491.90	316.45
492.26	319.30
492.63	322.35
492.99	325.57
493.36	329.09
493.72	332.58
494.08	336.29
494.45	340.24
494.81	344.50
495.17	348.69
495.54	353.17
495.90	357.88
496.26	362.68
496.63	367.75
496.99	373.01
497.35	378.51
497.72	384.13
498.08	390.00
498.44	395.97
498.80	402.64
499.17	409.31
499.53	416.18
499.89	423.36
500.26	430.76
500.62	438.19
500.98	445.94
501.34	454.15
501.71	462.66
502.07	471.32
502.43	480.17
502.79	489.21
503.16	498.59
503.52	508.15
503.88	518.07
504.24	528.31
504.60	538.80
504.97	549.80
505.33	560.91
505.69	572.71
506.05	584.61
506.41	596.38
506.78	608.56
507.14	621.00
507.50	633.83
507.86	646.91
508.22	660.44
508.59	674.14
508.95	688.14
509.31	702.42
509.67	716.85
510.03	731.75
510.39	747.25
510.75	762.95
511.12	778.85
511.48	794.79
511.84	811.13
512.20	827.48
512.56	844.02
512.92	860.97
513.28	878.11
513.64	895.44
514.00	912.95
514.37	930.73
514.73	948.85
515.09	967.08
515.45	985.24
515.81	1003.41
516.17	1021.74
516.53	1040.25
516.89	1058.97
517.25	1077.95
517.61	1096.82
517.97	1115.49
518.33	1134.16
518.69	1153.05
519.05	1172.43
519.41	1191.72
519.77	1211.45
520.13	1230.72
520.49	1249.67
520.85	1269.03
521.21	1288.42
521.57	1308.28
521.93	1327.39
522.29	1347.33
522.65	1366.71
523.01	1386.32
523.37	1405.65
523.73	1425.04
524.09	1444.25
524.45	1463.36
524.81	1482.52
525.17	1501.91
525.53	1521.40
525.89	1540.54
526.25	1559.62
526.61	1578.13
526.97	1596.62
527.33	1614.83
527.68	1633.57
528.04	1651.79
528.40	1669.18
528.76	1686.93
529.12	1704.87
529.48	1723.40
529.84	1741.00
530.20	1758.67
530.56	1776.00
530.91	1793.89
531.27	1811.65
531.63	1828.82
531.99	1845.82
532.35	1862.32
532.71	1878.14
533.07	1894.73
533.42	1910.53
533.78	1926.34
534.14	1942.09
534.50	1956.38
534.86	1971.93
535.21	1985.92
535.57	2001.24
535.93	2015.86
536.29	2030.24
536.65	2043.89
537.00	2056.67
537.36	2068.77
537.72	2081.01
538.08	2093.63
538.44	2105.75
538.79	2117.82
539.15	2129.87
539.51	2141.38
539.87	2153.70
540.22	2165.30
540.58	2176.54
540.94	2187.95
541.29	2198.33
541.65	2207.66
542.01	2218.15
542.37	2227.50
542.72	2237.59
543.08	2246.17
543.44	2255.75
543.79	2263.82
544.15	2271.72
544.51	2280.00
544.87	2288.67
545.22	2296.46
545.58	2303.38
545.94	2309.65
546.29	2315.33
546.65	2320.56
547.01	2325.89
547.36	2330.35
547.72	2334.79
548.07	2338.39
548.43	2341.80
548.79	2344.81
549.14	2348.61
549.50	2352.40
549.86	2354.66
550.21	2357.01
550.57	2359.81
550.92	2360.98
551.28	2362.47
551.64	2364.00
551.99	2366.15
552.35	2366.95
552.70	2368.13
553.06	2369.22
553.41	2370.27
553.77	2371.19
554.13	2371.81
554.48	2372.48
554.84	2373.44
555.19	2373.75
555.55	2373.41
555.90	2372.72
556.26	2372.52
556.61	2371.66
556.97	2369.91
557.32	2368.98
557.68	2367.00
558.03	2365.34
558.39	2363.78
558.74	2363.24
559.10	2362.34
559.45	2360.00
559.81	2358.50
560.16	2355.78
560.52	2354.18
560.87	2351.95
561.23	2348.79
561.58	2346.86
561.94	2343.73
562.29	2339.69
562.64	2336.67
563.00	2333.81
563.35	2331.42
563.71	2329.45
564.06	2326.79
564.42	2324.50
564.77	2322.43
565.12	2320.30
565.48	2317.65
565.83	2314.94
566.19	2311.86
566.54	2307.60
566.89	2304.05
567.25	2300.59
567.60	2297.53
567.96	2293.28
568.31	2289.43
568.66	2285.56
569.02	2280.71
569.37	2275.98
569.72	2271.82
570.08	2266.88
570.43	2262.14
570.78	2257.13
571.14	2251.28
571.49	2245.53
571.84	2240.42
572.20	2233.80
572.55	2228.23
572.90	2221.82
573.26	2215.21
573.61	2208.35
573.96	2202.05
574.31	2194.89
574.67	2187.40
575.02	2179.91
575.37	2172.27
575.72	2164.65
576.08	2157.97
576.43	2150.62
576.78	2143.82
577.13	2137.12
577.49	2130.37
577.84	2123.14
578.19	2116.43
578.54	2110.05
578.90	2104.15
579.25	2097.05
579.60	2089.83
579.95	2082.25
580.30	2075.72
580.66	2069.29
581.01	2062.22
581.36	2054.71
581.71	2047.66
582.06	2040.84
582.42	2034.08
582.77	2026.67
583.12	2019.48
583.47	2012.63
583.82	2006.02
584.17	1998.95
584.53	1992.14
584.88	1985.30
585.23	1978.45
585.58	1970.83
585.93	1963.05
586.28	1956.01
586.63	1948.74
586.98	1942.20
587.34	1935.65
587.69	1928.32
588.04	1921.44
588.39	1914.70
588.74	1907.68
589.09	1901.01
589.44	1894.02
589.79	1887.38
590.14	1881.45
590.49	1874.69
590.84	1867.72
591.19	1861.65
591.54	1855.03
591.89	1847.00
592.25	1839.80
592.60	1832.07
592.95	1825.00
593.30	1817.61
593.65	1809.58
594.00	1802.26
594.35	1796.11
594.70	1788.94
595.05	1781.85
595.40	1774.46
595.75	1766.72
596.10	1760.15
596.45	1753.60
596.80	1747.26
597.15	1740.56
597.50	1733.37
597.85	1727.03
598.19	1720.03
598.54	1713.06
598.89	1706.30
599.24	1700.84
599.59	1694.59
599.94	1689.36
600.29	1683.51
600.64	1677.27
600.99	1670.61
601.34	1664.67
601.69	1657.36
602.04	1650.66
602.39	1644.36
602.74	1638.07
603.08	1632.80
603.43	1627.30
603.78	1621.13
604.13	1614.96
604.48	1609.01
604.83	1603.68
605.18	1598.29
605.53	1592.33
605.87	1585.87
606.22	1580.19
606.57	1573.66
606.92	1567.40
607.27	1560.53
607.62	1553.98
607.96	1548.15
608.31	1542.84
608.66	1536.11
609.01	1529.72
609.36	1523.22
609.70	1516.27
610.05	1509.49
610.40	1502.48
610.75	1495.32
611.10	1488.82
611.44	1480.85
611.79	1473.23
612.14	1465.43
612.49	1457.24
612.83	1449.80
613.18	1442.05
613.53	1434.29
613.88	1426.33
614.22	1418.88
614.57	1411.26
614.92	1403.79
615.27	1395.93
615.61	1388.00
615.96	1380.70
616.31	1373.90
616.65	1367.25
617.00	1360.59
617.35	1353.71
617.70	1346.30
618.04	1338.33
618.39	1330.06
618.74	1323.22
619.08	1315.82
619.43	1308.64
619.78	1301.58
620.12	1294.64
620.47	1288.21
620.82	1281.05
621.16	1273.91
621.51	1266.79
621.85	1260.12
622.20	1252.69
622.55	1245.69
622.89	1238.69
623.24	1231.58
623.59	1223.74
623.93	1216.55
624.28	1209.48
624.62	1202.64
624.97	1195.87
625.32	1189.47
625.66	1182.97
626.01	1176.68
626.35	1170.52
626.70	1163.91
627.04	1157.95
627.39	1151.79
627.73	1145.09
628.08	1138.92
628.43	1132.35
628.77	1125.70
629.12	1118.70
629.46	1113.02
629.81	1106.77
630.15	1100.40
630.50	1094.05
630.84	1087.87
631.19	1081.34
631.53	1075.10
631.88	1068.36
632.22	1061.95
632.57	1056.09
632.91	1049.96
633.26	1043.28
633.60	1037.12
633.95	1031.38
634.29	1024.85
634.64	1018.71
634.98	1012.30
635.32	1006.30
635.67	1000.71
636.01	995.10
636.36	989.24
636.70	983.30
637.05	977.44
637.39	971.86
637.73	966.53
638.08	961.44
638.42	956.23
638.77	950.56
639.11	945.22
639.45	939.81
639.80	933.84
640.14	928.06
640.49	922.67
640.83	916.86
641.17	911.11
641.52	905.56
641.86	899.66
642.20	894.38
642.55	888.30
642.89	882.53
643.23	876.80
643.58	871.84
643.92	865.95
644.26	860.52
644.61	855.03
644.95	849.49
645.29	843.79
645.64	838.08
645.98	832.69
646.32	827.36
646.66	821.77
647.01	816.53
647.35	811.62
647.69	805.98
648.04	800.78
648.38	795.40
648.72	790.16
649.06	784.88
649.41	779.43
649.75	774.45
650.09	769.47
650.43	764.28
650.78	758.79
651.12	753.65
651.46	748.63
651.80	743.87
652.14	738.69
652.49	733.70
652.83	728.73
653.17	723.58
653.51	718.43
653.85	713.63
654.20	708.74
654.54	703.44
654.88	698.72
655.22	693.73
655.56	688.57
655.90	683.52
656.25	678.61
656.59	673.89
656.93	669.29
657.27	664.72
657.61	659.86
657.95	655.39
658.29	650.89
658.64	646.37
658.98	641.49
659.32	636.91
659.66	632.41
660.00	627.85
660.34	623.22
660.68	618.67
661.02	614.05
661.36	609.70
661.70	605.74
662.05	601.63
662.39	597.83
662.73	594.16
663.07	590.39
663.41	586.54
663.75	582.61
664.09	578.52
664.43	574.37
664.77	570.59
665.11	566.62
665.45	562.95
665.79	559.20
666.13	555.53
666.47	551.82
666.81	548.18
667.15	544.58
667.49	541.41
667.83	538.23
668.17	534.88
668.51	531.71
668.85	528.38
669.19	525.23
669.53	521.88
669.87	518.56
670.21	515.32
670.55	512.14
670.89	509.27
671.23	506.47
671.57	503.60
671.91	500.69
672.25	497.70
672.58	494.58
672.92	491.60
673.26	488.84
673.60	486.00
673.94	483.19
674.28	480.36
674.62	477.48
674.96	474.68
675.30	472.15
675.64	469.20
675.97	466.52
676.31	463.95
676.65	461.22
676.99	458.84
677.33	456.11
677.67	453.57
678.01	450.83
678.34	448.25
678.68	445.85
679.02	443.34
679.36	440.91
679.70	438.61
680.04	436.26
680.37	433.77
680.71	431.38
681.05	429.12
681.39	426.93
681.73	424.71
682.06	422.50
682.40	420.28
682.74	418.26
683.08	416.12
683.42	413.67
683.75	411.42
684.09	409.04
684.43	406.91
684.77	404.67
685.10	402.55
685.44	400.19
685.78	397.95
686.12	396.04
686.45	394.07
686.79	391.95
687.13	390.02
687.46	388.12
687.80	386.33
688.14	384.22
688.48	382.25
688.81	380.16
689.15	378.27
689.49	376.17
689.82	374.19
690.16	371.98
690.50	370.01
690.83	368.09
691.17	366.12
691.51	364.28
691.84	362.54
692.18	360.67
692.52	359.12
692.85	357.50
693.19	355.90
693.52	354.20
693.86	352.36
694.20	350.64
694.53	348.92
694.87	347.14
695.21	345.57
695.54	343.85
695.88	342.29
696.21	340.67
696.55	339.21
696.88	337.62
697.22	336.19
697.56	334.90
697.89	333.56
698.23	332.15
698.56	330.69
698.90	329.39
699.23	327.96
699.57	326.42
699.90	324.90
700.24	323.26
700.58	321.92
700.91	320.73
701.25	319.53
701.58	318.26
701.92	316.99
702.25	315.63
702.59	314.41
702.92	313.17
703.26	311.93
703.59	310.75
703.93	309.80
704.26	308.67
704.60	307.42
704.93	306.17
705.26	304.98
705.60	303.88
705.93	302.65
706.27	301.81
706.60	300.97
706.94	300.12
707.27	299.01
707.61	297.85
707.94	296.77
708.27	295.60
708.61	294.54
708.94	293.51
709.28	292.64
709.61	291.64
709.94	290.71
710.28	289.80
710.61	288.87
710.95	287.65
711.28	286.91
711.61	286.03
711.95	285.31
712.28	284.47
712.61	283.65
712.95	282.99
713.28	282.16
713.61	281.14
713.95	280.22
714.28	279.51
714.61	278.73
714.95	278.02
715.28	277.16
715.61	276.40
715.95	275.67
716.28	274.79
716.61	274.16
716.95	273.39
717.28	272.60
717.61	271.92
717.94	271.26
718.28	270.41
718.61	269.70
718.94	268.86
719.27	268.22
719.61	267.65
719.94	266.88
720.27	266.11
720.60	265.53
720.94	264.88
721.27	264.26
721.60	263.72
721.93	263.17
722.27	262.79
722.60	262.22
722.93	261.75
723.26	261.24
723.59	260.63
723.93	260.12
724.26	259.64
724.59	259.09
724.92	258.72
725.25	258.31
725.59	257.84
725.92	257.43
726.25	256.95
726.58	256.42
726.91	255.98
727.24	255.52
727.57	255.06
727.91	254.57
728.24	254.27
728.57	253.80
728.90	253.37
729.23	252.85
729.56	252.60
729.89	252.04
730.22	251.64
730.55	251.13
730.89	250.65
731.22	250.17
731.55	249.70
731.88	249.25
732.21	248.75
732.54	248.33
732.87	247.90
733.20	247.55
733.53	247.10
733.86	246.71
734.19	246.27
734.52	245.90
734.85	245.80
735.18	245.26
735.51	245.03
735.84	244.67
736.17	244.32
736.50	243.77
736.83	243.93
737.16	243.54
737.49	243.24
737.82	242.83
738.15	242.44
738.48	242.04
738.81	241.62
739.14	241.23
739.47	240.90
739.80	240.53
740.13	240.08
740.46	239.79
740.79	239.40
741.12	239.11
741.45	238.77
741.78	238.21
742.11	238.03
742.44	237.61
742.77	237.34
743.10	236.97
743.43	236.58
743.75	235.82
744.08	235.95
744.41	235.62
744.74	235.39
745.07	235.13
745.40	234.92
745.73	234.85
746.06	234.63
746.39	234.45
746.71	234.24
747.04	234.02
747.37	233.72
747.70	233.58
748.03	233.30
748.36	233.16
748.68	232.95
749.01	232.52
749.34	232.26
749.67	231.98
750.00	231.77
750.33	231.83
750.65	231.70
750.98	231.13
751.31	230.96
751.64	230.75
751.97	230.74
752.29	230.55
752.62	230.12
752.95	229.88
753.28	229.59
753.60	229.34
753.93	229.22
754.26	229.08
754.59	228.72
754.91	228.55
755.24	228.28
755.57	228.03
755.90	227.92
756.22	227.79
756.55	227.53
756.88	227.29
757.20	226.93
757.53	226.63
757.86	226.38
758.19	226.20
758.51	226.09
758.84	225.75
759.17	225.51
759.49	225.38
759.82	225.41
760.15	225.20
760.47	225.10
760.80	224.85
761.13	224.66
761.45	224.51
761.78	224.32
762.11	224.16
762.43	223.97
762.76	223.80
763.08	223.63
763.41	223.54
763.74	223.43
764.06	223.25
764.39	223.14
764.71	223.03
765.04	222.85
765.37	222.69
765.69	222.57
766.02	222.50
766.34	222.40
766.67	222.22
767.00	222.14
767.32	222.14
767.65	222.22
767.97	222.10
768.30	222.08
768.62	222.06
768.95	221.87
769.27	221.86
769.60	221.86
769.92	221.74
770.25	221.55
770.57	221.35
770.90	221.24
771.22	221.07
771.55	221.01
771.87	221.01
772.20	220.90
772.52	221.08
772.85	221.36
773.17	221.20
773.50	220.98
773.82	220.92
774.15	220.64
774.47	220.32
774.80	220.20
775.12	219.99
775.45	219.83
775.77	219.86
776.09	219.77
776.42	219.58
776.74	219.63
777.07	219.62
777.39	219.62
777.72	219.53
778.04	219.47
778.36	219.39
778.69	219.27
779.01	219.18
779.33	218.83
779.66	218.40
779.98	218.35
780.31	218.28
780.63	218.33
780.95	218.36
781.28	218.26
781.60	218.15
781.92	218.15
782.25	218.10
782.57	218.02
782.89	217.92
783.22	217.88
783.54	217.66
783.86	217.55
784.19	217.49
784.51	217.54
784.83	217.46
785.16	217.34
785.48	217.27
785.80	217.18
786.12	217.11
786.45	217.08
786.77	217.04
787.09	216.99
787.42	216.76
787.74	216.67
788.06	216.67
788.38	216.60
788.71	216.44
789.03	216.37
789.35	216.34
789.67	216.21
789.99	216.20
790.32	216.14
790.64	216.24
790.96	216.38
791.28	216.16
791.61	216.08
791.93	216.09
792.25	216.04
792.57	216.24
792.89	216.13
793.21	216.06
793.54	215.98
793.86	215.89
794.18	215.86
794.50	215.77
794.82	215.73
795.14	215.74
795.47	215.86
795.79	215.82
796.11	215.70
796.43	215.68
796.75	215.67
797.07	215.66
797.39	215.56
797.71	215.31
798.04	215.38
798.36	215.38
798.68	215.32
799.00	215.25
799.32	215.14
799.64	215.16
799.96	215.25
800.28	215.31
800.60	215.27
800.92	215.26
801.24	215.32
801.56	215.34
801.89	215.35
802.21	215.30
802.53	215.20
802.85	215.26
803.17	215.38
803.49	215.27
803.81	215.25
804.13	215.21
804.45	215.13
804.77	215.14
805.09	215.11
805.41	215.04
805.73	215.04
806.05	214.85
806.37	214.76
806.69	214.60
807.01	214.51
807.33	214.53
807.65	214.39
807.97	214.48
808.28	214.40
808.60	214.33
808.92	214.27
809.24	214.55
809.56	214.43
809.88	214.28
810.20	214.25
810.52	214.33
810.84	214.24
811.16	214.21
811.48	214.15
811.80	214.22
812.12	214.24
812.43	214.27
812.75	214.32
813.07	214.30
813.39	214.34
813.71	214.32
814.03	214.24
814.35	214.28
814.67	214.05
814.98	214.03
815.30	213.99
815.62	213.92
815.94	213.59
816.26	213.59
816.58	213.53
816.89	213.55
817.21	213.39
817.53	213.38
817.85	213.34
818.17	213.28
818.48	213.16
818.80	213.11
819.12	213.04
819.44	212.98
819.76	212.99
820.07	212.86
820.39	212.87
820.71	212.96
821.03	212.90
821.34	212.86
821.66	212.93
821.98	212.97
822.30	213.00
822.61	213.23
822.93	213.19
823.25	213.11
823.57	213.01
823.88	213.10
824.20	213.09
824.52	213.21
824.83	213.18
825.15	213.11
825.47	213.11
825.79	213.10
826.10	213.03
826.42	213.00
826.74	213.15
827.05	213.08
827.37	213.03
827.69	213.00
828.00	213.03
828.32	212.97
828.64	213.00
828.95	213.19
829.27	213.03
829.58	213.07
829.90	213.16
830.22	213.17
830.53	213.09
830.85	213.11
831.17	212.93
831.48	212.86
831.80	212.91
832.11	212.85
832.43	212.82
832.75	212.80
833.06	212.99
833.38	212.86
833.69	212.86
834.01	212.83
834.32	212.90
834.64	212.87
834.96	212.89
835.27	212.85
835.59	212.67
835.90	212.60
836.22	212.63
836.53	212.63
836.85	212.60
837.16	212.94
837.48	212.92
837.79	213.02
838.11	213.09
838.42	213.11
838.74	213.18
839.05	213.20
839.37	213.20
839.68	212.94
840.00	212.88
840.31	212.94
840.63	212.93
840.94	212.88
841.26	212.82
841.57	212.75
841.88	212.71
842.20	212.63
842.51	212.63
842.83	212.57
843.14	212.85
843.46	212.87
843.77	212.74
844.08	212.65
844.40	212.62
844.71	212.63
845.03	212.59
845.34	212.52
845.65	212.48
845.97	212.56
846.28	212.60
846.60	212.65
846.91	212.58
847.22	212.56
847.54	212.59
847.85	212.68
848.16	212.70
848.48	212.61
848.79	212.74
849.10	212.76
849.42	212.75
849.73	212.40
850.04	212.40
850.36	212.17
850.67	212.24
850.98	212.25
851.30	212.31
851.61	212.29
851.92	212.27
852.23	212.29
852.55	212.26
852.86	212.30
853.17	212.28
853.49	212.32
853.80	212.39
854.11	212.47
854.42	212.50
854.74	212.45
855.05	212.44
855.36	212.30
855.67	212.35
855.99	212.37
856.30	212.88
856.61	212.78
856.92	212.82
857.23	212.83
857.55	212.72
857.86	212.62
858.17	212.64
858.48	212.66
858.79	212.59
859.11	212.58
859.42	212.55
859.73	212.50
860.04	212.41
860.35	212.29
860.66	212.09
860.98	212.09
861.29	212.15
861.60	212.14
861.91	212.27
862.22	212.24
862.53	212.18
862.84	211.61
863.16	211.78
863.47	211.71
863.78	211.65
864.09	211.72
864.40	211.75
864.71	211.72
865.02	211.70
865.33	211.65
865.64	211.61
865.95	211.47
866.27	211.75
866.58	211.72
866.89	211.75
867.20	211.82
867.51	211.67
867.82	211.67
868.13	211.78
868.44	211.64
868.75	211.61
869.06	211.61
869.37	211.64
869.68	211.53
869.99	211.60
870.30	211.64
870.61	211.64
870.92	211.61
871.23	211.58
871.54	211.65
871.85	211.80
872.16	211.82
872.47	211.90
872.78	211.67
873.09	211.72
873.40	211.70
873.71	211.70
874.02	211.70
874.33	211.60
874.64	211.54
874.95	211.65
875.26	211.59
875.56	211.60
875.87	211.62
876.18	211.60
876.49	211.91
876.80	211.87
877.11	211.77
877.42	211.78
877.73	211.80
878.04	211.78
878.35	211.69
878.66	211.67
878.96	211.64
879.27	211.67
879.58	211.70
879.89	211.67
880.20	211.74
880.51	211.76
880.82	211.70
881.12	211.74
881.43	211.64
881.74	211.59
882.05	211.55
882.36	211.50
882.67	211.53
882.97	211.15
883.28	211.22
883.59	211.21
883.90	211.13
884.21	211.20
884.51	211.10
884.82	211.11
885.13	211.13
885.44	211.11
885.74	211.02
886.05	211.05
886.36	211.07
886.67	210.99
886.98	211.22
887.28	211.35
887.59	211.32
887.90	211.36
888.20	211.33
888.51	211.41
888.82	211.40
889.13	211.44
889.43	211.76
889.74	211.63
890.05	211.70
890.35	211.70
890.66	211.65
890.97	211.68
891.28	211.61
891.58	211.63
891.89	211.71
892.20	211.69
892.50	211.62
892.81	211.63
893.12	211.65
893.42	211.45
893.73	211.47
894.04	211.46
894.34	211.45
894.65	211.48
894.95	211.42
895.26	211.44
895.57	211.50
895.87	211.17
896.18	211.20
896.48	211.23
896.79	211.27
897.10	211.26
897.40	211.28
897.71	211.35
898.01	211.30
898.32	211.30
898.63	211.33
898.93	211.32
899.24	211.31
899.54	211.26
899.85	211.28
900.15	211.23
900.46	211.24
900.76	211.27
901.07	211.26
901.38	211.29
901.68	211.40
901.99	211.27
902.29	211.27
902.60	211.27
902.90	211.32
903.21	211.30
903.51	211.35
903.82	211.43
904.12	211.43
904.43	211.44
904.73	211.40
905.03	211.44
905.34	211.75
905.64	211.72
905.95	211.68
906.25	211.69
906.56	211.73
906.86	211.81
907.17	211.81
907.47	211.80
907.77	211.80
908.08	211.73
908.38	211.81
908.69	211.85
908.99	211.93
909.30	211.89
909.60	211.93
909.90	211.97
910.21	211.83
910.51	211.80
910.81	211.78
911.12	211.92
911.42	211.89
911.73	211.50
912.03	211.50
912.33	211.55
912.64	211.45
912.94	211.38
913.24	211.25
913.55	211.14
913.85	211.16
914.15	211.20
914.46	211.19
914.76	211.18
915.06	211.08
915.37	210.94
915.67	210.90
915.97	210.97
916.27	210.86
916.58	210.88
916.88	210.85
917.18	210.89
917.49	211.04
917.79	211.04
918.09	211.10
918.39	211.25
918.70	211.28
919.00	211.38
919.30	211.56
919.60	211.49
919.91	211.51
920.21	211.53
920.51	211.45
920.81	211.48
921.12	211.44
921.42	211.48
921.72	211.55
922.02	211.59
922.32	211.59
922.63	211.60
922.93	211.79
923.23	211.80
923.53	211.78
923.83	211.51
924.13	211.54
924.44	211.61
924.74	211.64
925.04	211.74
925.34	211.66
925.64	211.57
925.94	211.66
926.24	211.89
926.55	211.81
926.85	211.81
927.15	211.78
927.45	211.82
927.75	211.85
928.05	211.88
928.35	211.80
928.65	211.85
928.95	211.90
929.26	211.74
929.56	211.81
929.86	211.83
930.16	211.84
930.46	211.83
930.76	211.83
931.06	211.63
931.36	211.52
931.66	211.60
931.96	211.57
932.26	211.57
932.56	211.41
932.86	211.51
933.16	211.60
933.46	211.62
933.76	211.55
934.06	211.57
934.36	211.66
934.66	211.68
934.96	211.57
935.26	211.60
935.56	211.64
935.86	211.54
936.16	211.54
936.46	211.55
936.76	211.44
937.06	211.33
937.36	211.43
937.66	211.43
937.96	211.37
938.26	211.29
938.56	211.28
938.86	211.25
939.16	211.30
939.46	211.31
939.76	211.30
940.06	211.28
940.35	211.29
940.65	211.12
940.95	211.17
941.25	211.15
941.55	211.06
941.85	211.09
942.15	211.19
942.45	211.27
942.75	211.21
943.04	211.30
943.34	211.40
943.64	211.32
943.94	211.22
944.24	211.32
944.54	211.30
944.84	211.29
945.13	211.29
945.43	211.21
945.73	211.20
946.03	211.17
946.33	211.22
946.62	211.17
946.92	211.18
947.22	211.24
947.52	211.22
947.82	211.25
948.11	211.23
948.41	211.20
948.71	211.09
949.01	211.17
949.31	211.20
949.60	211.17
949.90	211.24
950.20	211.27
950.50	211.21
950.79	211.31
951.09	211.32
951.39	211.30
951.69	211.29
951.98	211.33
952.28	211.28
952.58	211.20
952.87	211.14
953.17	211.17
953.47	211.11
953.76	211.13
954.06	211.10
954.36	211.04
954.66	210.98
954.95	211.10
955.25	211.06
955.55	211.06
955.84	211.00
956.14	211.02
956.44	211.06
956.73	211.04
957.03	211.05
957.32	211.06
957.62	211.11
957.92	211.12
958.21	211.10
958.51	211.51
958.81	211.58
959.10	211.69
959.40	211.79
959.69	211.74
959.99	211.83
960.29	211.83
960.58	211.82
960.88	211.98
961.17	211.86
961.47	211.92
961.76	211.93
962.06	211.97
962.36	211.96
962.65	211.97
962.95	211.97
963.24	211.91
963.54	211.95
963.83	211.95
964.13	211.99
964.42	211.90
964.72	211.61
965.01	211.61
965.31	211.60
965.60	211.45
965.90	211.68
966.19	211.54
966.49	211.60
966.78	211.57
967.08	211.59
967.37	211.62
967.67	211.48
967.96	211.47
968.26	211.49
968.55	211.54
968.85	211.54
969.14	211.52
969.43	211.47
969.73	211.45
970.02	211.48
970.32	211.44
970.61	211.40
970.91	211.31
971.20	211.22
971.49	211.15
971.79	211.20
972.08	211.01
972.38	211.06
972.67	211.02
972.96	211.06
973.26	210.87
973.55	211.01
973.85	211.07
974.14	211.11
974.43	211.13
974.73	210.98
975.02	210.93
975.31	210.91
975.61	210.93
975.90	210.84
976.19	210.71
976.49	210.77
976.78	210.81
977.07	210.84
977.37	210.92
977.66	210.97
977.95	210.94
978.24	210.92
978.54	210.99
978.83	210.93
979.12	210.95
979.42	210.97
979.71	210.81
980.00	210.79
980.29	210.73
980.59	210.69
980.88	210.82
981.17	210.76
981.46	210.77
981.76	210.75
982.05	210.86
982.34	210.95
982.63	210.87
982.93	210.90
983.22	210.92
983.51	210.84
983.80	210.90
984.09	210.98
984.39	210.94
984.68	210.89
984.97	210.98
985.26	210.98
985.55	211.08
985.85	211.08
986.14	211.19
986.43	211.25
986.72	211.22
987.01	211.08
987.30	211.15
987.59	211.14
987.89	211.20
988.18	211.11
988.47	211.05
988.76	211.08
989.05	211.00
989.34	210.98
989.63	211.14
989.92	211.09
990.22	211.05
990.51	211.05
990.80	211.03
991.09	211.02
991.38	211.03
991.67	211.02
991.96	211.01
992.25	211.00
992.54	210.95
992.83	210.98
993.12	211.05
993.41	211.11
993.70	211.22
993.99	211.32
994.28	211.39
994.58	211.46
994.87	211.45
995.16	211.51
995.45	211.52
995.74	211.40
996.03	211.44
996.32	211.56
996.61	211.65
996.90	211.64
997.19	211.66
997.48	211.71
997.77	211.65
998.06	211.63
998.34	211.57
998.63	211.56
998.92	211.49
999.21	211.51
999.50	211.46
999.79	211.41
1000.08	211.39
1000.37	211.43
1000.66	211.38
1000.95	211.48
1001.24	211.49
1001.53	211.51
1001.82	211.42
1002.11	211.35
1002.40	211.32
1002.68	211.38
1002.97	211.61
1003.26	211.56
1003.55	211.49
1003.84	211.51
1004.13	211.61
1004.42	211.58
1004.71	211.55
1004.99	211.60
1005.28	211.67
1005.57	211.72
1005.86	211.66
1006.15	211.62
1006.44	211.47
1006.72	211.48
1007.01	211.41
1007.30	211.44
1007.59	211.35
1007.88	211.34
1008.17	211.35
1008.45	211.27
1008.74	211.13
1009.03	210.98
1009.32	210.93
1009.60	210.89
1009.89	210.86
1010.18	210.71
1010.47	210.69
1010.76	210.70
1011.04	210.67
1011.33	210.64
1011.62	210.68
1011.91	210.73
1012.19	210.66
1012.48	210.74
1012.77	210.74
1013.05	210.83
1013.34	210.81
1013.63	210.88
1013.92	210.95
1014.20	210.94
1014.49	210.94
1014.78	211.02
1015.06	210.96
1015.35	211.00
1015.64	211.07
1015.92	211.05
1016.21	211.16
1016.50	211.17
1016.78	211.20
1017.07	211.22
1017.36	211.18
1017.64	211.04
1017.93	211.04
1018.22	211.10
1018.50	211.05
1018.79	211.03
1019.08	210.91
1019.36	210.88
1019.65	210.77
1019.93	210.87
1020.22	210.91
1020.51	211.04
1020.79	210.91
1021.08	211.60
1021.36	210.10
1021.65	210.50
1021.94	210.95
1022.22	210.20
1022.51	209.60
1022.79	212.20
1023.08	210.95
1023.36	214.35
1023.65	209.50
>>>>>End Processed Spectral Data<<<<<
