SpectraSuite Data File
++++++++++++++++++++++++++++++++++++
Date: Mon Feb 25 17:12:56 EST 2013
User: group
Dark Spectrum Present: No
Reference Spectrum Present: No
Number of Sampled Component Spectra: 1
Spectrometers: USB2E7196
Integration Time (usec): 104000 (USB2E7196)
Spectra Averaged: 20 (USB2E7196)
Boxcar Smoothing: 10 (USB2E7196)
Correct for Electrical Dark: No (USB2E7196)
Strobe/Lamp Enabled: No (USB2E7196)
Correct for Detector Non-linearity: No (USB2E7196)
Correct for Stray Light: No (USB2E7196)
Number of Pixels in Processed Spectrum: 2048
>>>>>Begin Processed Spectral Data<<<<<
339.09	0.00
339.48	199.50
339.86	199.30
340.24	202.10
340.63	202.95
341.01	208.80
341.39	205.00
341.78	207.65
342.16	208.65
342.54	208.30
342.93	197.86
343.31	207.85
343.69	208.32
344.07	208.84
344.46	209.20
344.84	209.60
345.22	209.65
345.60	209.95
345.99	210.13
346.37	210.25
346.75	210.30
347.13	210.33
347.52	210.45
347.90	210.67
348.28	210.71
348.66	210.82
349.05	210.68
349.43	210.74
349.81	210.82
350.19	210.83
350.57	210.96
350.96	211.00
351.34	211.11
351.72	211.22
352.10	211.33
352.48	211.46
352.87	211.52
353.25	211.57
353.63	211.63
354.01	211.62
354.39	211.74
354.77	211.81
355.15	211.86
355.54	211.83
355.92	211.80
356.30	211.89
356.68	212.18
357.06	212.37
357.44	212.45
357.82	212.50
358.20	212.64
358.58	212.68
358.97	212.80
359.35	212.96
359.73	213.04
360.11	213.10
360.49	213.13
360.87	213.12
361.25	213.26
361.63	213.40
362.01	213.55
362.39	213.50
362.77	213.66
363.15	213.76
363.53	213.86
363.91	213.94
364.29	214.00
364.67	213.70
365.05	213.69
365.43	213.72
365.81	213.81
366.19	213.96
366.57	214.09
366.95	214.12
367.33	214.02
367.71	214.03
368.09	214.09
368.47	214.11
368.85	214.18
369.23	214.26
369.61	214.14
369.99	214.21
370.37	214.29
370.75	214.41
371.13	214.30
371.51	214.17
371.89	214.16
372.27	214.18
372.65	214.20
373.03	214.24
373.41	214.18
373.78	214.17
374.16	214.00
374.54	213.88
374.92	213.79
375.30	213.75
375.68	213.69
376.06	213.63
376.44	213.46
376.82	213.35
377.19	213.29
377.57	213.23
377.95	213.12
378.33	213.03
378.71	212.81
379.09	212.81
379.47	212.80
379.84	212.69
380.22	212.52
380.60	212.34
380.98	212.22
381.36	212.17
381.73	212.01
382.11	212.00
382.49	212.00
382.87	211.93
383.25	211.82
383.62	212.23
384.00	212.05
384.38	212.08
384.76	212.20
385.13	212.24
385.51	212.16
385.89	212.05
386.27	211.98
386.64	211.91
387.02	211.88
387.40	211.86
387.78	211.88
388.15	211.92
388.53	211.95
388.91	211.91
389.29	211.81
389.66	211.87
390.04	211.76
390.42	211.75
390.79	211.75
391.17	211.73
391.55	211.28
391.92	211.30
392.30	211.35
392.68	211.24
393.05	211.13
393.43	211.12
393.81	211.08
394.18	211.09
394.56	211.05
394.94	211.09
395.31	211.05
395.69	211.09
396.06	211.10
396.44	211.10
396.82	211.07
397.19	211.28
397.57	211.18
397.95	211.21
398.32	211.06
398.70	211.11
399.07	211.23
399.45	211.18
399.82	211.17
400.20	211.11
400.58	211.04
400.95	211.05
401.33	211.16
401.70	211.45
402.08	211.39
402.45	211.48
402.83	211.60
403.20	211.66
403.58	211.60
403.95	211.75
404.33	211.85
404.71	211.92
405.08	212.16
405.46	212.31
405.83	212.47
406.21	212.60
406.58	212.73
406.96	212.80
407.33	212.95
407.70	213.20
408.08	213.67
408.45	213.89
408.83	213.97
409.20	214.00
409.58	213.98
409.95	214.31
410.33	214.54
410.70	214.55
411.08	214.84
411.45	215.20
411.82	215.41
412.20	215.80
412.57	216.33
412.95	216.40
413.32	216.80
413.69	217.12
414.07	217.57
414.44	218.01
414.82	218.43
415.19	219.03
415.56	219.54
415.94	219.84
416.31	220.54
416.68	221.27
417.06	222.11
417.43	222.88
417.81	223.68
418.18	224.51
418.55	225.48
418.93	226.43
419.30	227.39
419.67	228.40
420.04	229.40
420.42	230.36
420.79	231.83
421.16	233.05
421.54	234.55
421.91	235.99
422.28	237.41
422.66	238.96
423.03	240.60
423.40	242.11
423.77	243.79
424.15	245.32
424.52	247.08
424.89	249.01
425.26	250.80
425.64	252.46
426.01	254.30
426.38	256.34
426.75	258.38
427.13	260.41
427.50	262.60
427.87	264.83
428.24	267.02
428.61	268.95
428.99	271.55
429.36	273.96
429.73	276.50
430.10	279.06
430.47	281.73
430.85	284.25
431.22	287.09
431.59	290.38
431.96	293.36
432.33	296.57
432.70	299.68
433.08	303.29
433.45	306.90
433.82	310.41
434.19	314.15
434.56	317.90
434.93	321.40
435.30	324.86
435.68	328.73
436.05	332.65
436.42	336.50
436.79	339.92
437.16	343.73
437.53	347.61
437.90	351.50
438.27	355.37
438.64	359.33
439.01	363.05
439.38	366.10
439.75	369.24
440.13	372.91
440.50	376.32
440.87	379.12
441.24	381.83
441.61	385.08
441.98	387.38
442.35	389.98
442.72	392.82
443.09	395.65
443.46	397.26
443.83	398.36
444.20	399.35
444.57	400.63
444.94	401.30
445.31	402.04
445.68	403.05
446.05	403.24
446.42	402.86
446.79	402.39
447.16	401.83
447.53	401.52
447.90	399.96
448.27	398.37
448.64	396.35
449.01	394.87
449.37	392.19
449.74	389.73
450.11	387.00
450.48	383.59
450.85	380.03
451.22	377.11
451.59	374.44
451.96	371.81
452.33	368.33
452.70	365.15
453.07	361.27
453.43	356.94
453.80	353.28
454.17	349.72
454.54	346.35
454.91	342.89
455.28	339.26
455.65	335.92
456.02	333.18
456.38	330.30
456.75	326.92
457.12	323.91
457.49	321.05
457.86	318.06
458.23	315.86
458.59	313.27
458.96	310.79
459.33	308.40
459.70	306.11
460.07	304.18
460.43	302.01
460.80	300.17
461.17	298.60
461.54	296.76
461.91	295.02
462.27	293.20
462.64	291.45
463.01	289.91
463.38	288.51
463.74	286.48
464.11	285.10
464.48	283.88
464.85	282.51
465.21	281.59
465.58	280.55
465.95	279.17
466.32	278.28
466.68	277.11
467.05	276.03
467.42	274.95
467.78	273.88
468.15	272.86
468.52	272.04
468.88	270.92
469.25	270.00
469.62	269.39
469.98	268.65
470.35	268.02
470.72	267.33
471.08	266.41
471.45	265.84
471.82	265.33
472.18	264.65
472.55	264.22
472.92	263.57
473.28	263.06
473.65	262.60
474.02	262.02
474.38	261.83
474.75	261.46
475.11	261.15
475.48	260.87
475.85	260.64
476.21	260.29
476.58	260.22
476.94	260.14
477.31	259.97
477.67	259.89
478.04	259.94
478.41	259.88
478.77	260.24
479.14	260.18
479.50	260.22
479.87	260.36
480.23	260.55
480.60	260.61
480.96	260.75
481.33	261.16
481.69	261.45
482.06	261.65
482.42	262.06
482.79	262.32
483.15	262.68
483.52	263.21
483.88	263.70
484.25	264.16
484.61	264.72
484.98	265.27
485.34	266.08
485.71	266.76
486.07	267.58
486.44	268.05
486.80	268.86
487.17	269.70
487.53	270.73
487.90	271.84
488.26	273.14
488.62	274.35
488.99	275.45
489.35	276.75
489.72	278.14
490.08	279.43
490.44	280.89
490.81	282.66
491.17	284.23
491.54	286.00
491.90	287.90
492.26	289.84
492.63	291.84
492.99	293.85
493.36	296.11
493.72	298.46
494.08	300.87
494.45	303.56
494.81	306.32
495.17	308.93
495.54	311.82
495.90	314.75
496.26	317.82
496.63	321.22
496.99	324.47
497.35	327.77
497.72	331.46
498.08	335.26
498.44	339.03
498.80	343.24
499.17	347.48
499.53	351.81
499.89	356.30
500.26	360.98
500.62	365.63
500.98	370.54
501.34	375.61
501.71	381.00
502.07	386.34
502.43	391.90
502.79	397.64
503.16	403.63
503.52	409.68
503.88	415.87
504.24	422.13
504.60	428.81
504.97	435.74
505.33	442.56
505.69	449.95
506.05	457.45
506.41	464.94
506.78	472.48
507.14	480.18
507.50	488.07
507.86	496.35
508.22	504.81
508.59	513.24
508.95	521.90
509.31	530.86
509.67	539.89
510.03	549.01
510.39	558.48
510.75	568.02
511.12	577.72
511.48	587.71
511.84	597.83
512.20	608.03
512.56	618.43
512.92	629.13
513.28	639.54
513.64	650.07
514.00	660.78
514.37	671.89
514.73	683.17
515.09	694.52
515.45	705.76
515.81	717.08
516.17	728.77
516.53	740.33
516.89	751.86
517.25	763.58
517.61	775.53
517.97	787.37
518.33	799.07
518.69	811.08
519.05	823.25
519.41	835.32
519.77	847.73
520.13	859.95
520.49	871.84
520.85	884.17
521.21	896.57
521.57	909.03
521.93	921.10
522.29	933.65
522.65	946.04
523.01	958.47
523.37	970.57
523.73	982.75
524.09	995.24
524.45	1007.66
524.81	1019.94
525.17	1032.58
525.53	1045.20
525.89	1057.66
526.25	1069.77
526.61	1081.51
526.97	1093.70
527.33	1105.43
527.68	1117.83
528.04	1129.68
528.40	1141.34
528.76	1153.00
529.12	1164.79
529.48	1176.99
529.84	1188.53
530.20	1200.31
530.56	1211.78
530.91	1223.83
531.27	1235.66
531.63	1246.98
531.99	1258.14
532.35	1269.35
532.71	1280.06
533.07	1291.09
533.42	1302.18
533.78	1313.31
534.14	1324.14
534.50	1334.16
534.86	1344.90
535.21	1354.35
535.57	1364.87
535.93	1374.95
536.29	1384.77
536.65	1394.44
537.00	1403.50
537.36	1412.58
537.72	1421.18
538.08	1430.00
538.44	1438.54
538.79	1446.99
539.15	1455.30
539.51	1463.84
539.87	1472.61
540.22	1480.64
540.58	1488.68
540.94	1496.41
541.29	1503.70
541.65	1510.91
542.01	1518.25
542.37	1524.69
542.72	1531.56
543.08	1537.80
543.44	1544.57
543.79	1550.38
544.15	1556.00
544.51	1562.32
544.87	1568.26
545.22	1573.85
545.58	1578.99
545.94	1583.62
546.29	1588.14
546.65	1592.48
547.01	1596.54
547.36	1600.48
547.72	1604.33
548.07	1607.28
548.43	1610.14
548.79	1612.85
549.14	1615.89
549.50	1618.88
549.86	1621.39
550.21	1623.84
550.57	1626.59
550.92	1628.29
551.28	1630.45
551.64	1632.55
551.99	1634.18
552.35	1635.65
552.70	1637.26
553.06	1638.81
553.41	1640.51
553.77	1641.86
554.13	1643.05
554.48	1644.33
554.84	1645.09
555.19	1645.70
555.55	1646.26
555.90	1646.52
556.26	1646.85
556.61	1646.37
556.97	1645.91
557.32	1646.15
557.68	1645.54
558.03	1644.79
558.39	1644.07
558.74	1644.09
559.10	1643.82
559.45	1643.03
559.81	1642.74
560.16	1641.83
560.52	1640.99
560.87	1639.99
561.23	1638.43
561.58	1637.73
561.94	1636.05
562.29	1634.03
562.64	1632.66
563.00	1631.39
563.35	1630.63
563.71	1629.78
564.06	1628.98
564.42	1628.27
564.77	1627.05
565.12	1626.25
565.48	1625.22
565.83	1623.98
566.19	1622.68
566.54	1620.24
566.89	1618.25
567.25	1616.10
567.60	1614.00
567.96	1612.09
568.31	1610.01
568.66	1607.88
569.02	1604.89
569.37	1602.19
569.72	1599.82
570.08	1597.11
570.43	1594.31
570.78	1591.08
571.14	1587.58
571.49	1584.11
571.84	1580.82
572.20	1577.27
572.55	1573.96
572.90	1569.78
573.26	1565.82
573.61	1561.42
573.96	1557.64
574.31	1553.22
574.67	1548.66
575.02	1544.41
575.37	1539.60
575.72	1534.79
576.08	1530.66
576.43	1526.27
576.78	1522.11
577.13	1517.97
577.49	1513.47
577.84	1508.98
578.19	1504.76
578.54	1501.17
578.90	1497.88
579.25	1493.15
579.60	1488.15
579.95	1483.11
580.30	1479.13
580.66	1475.00
581.01	1470.46
581.36	1465.83
581.71	1461.44
582.06	1457.12
582.42	1452.59
582.77	1448.08
583.12	1443.65
583.47	1439.36
583.82	1435.50
584.17	1431.00
584.53	1427.04
584.88	1422.61
585.23	1418.18
585.58	1413.57
585.93	1408.71
586.28	1403.94
586.63	1399.60
586.98	1395.38
587.34	1391.45
587.69	1386.94
588.04	1382.64
588.39	1378.38
588.74	1373.88
589.09	1369.86
589.44	1365.30
589.79	1361.21
590.14	1357.01
590.49	1352.74
590.84	1348.29
591.19	1344.17
591.54	1339.61
591.89	1334.05
592.25	1329.69
592.60	1325.04
592.95	1320.10
593.30	1314.79
593.65	1309.55
594.00	1304.75
594.35	1301.56
594.70	1296.75
595.05	1292.42
595.40	1287.88
595.75	1282.86
596.10	1278.78
596.45	1274.54
596.80	1270.64
597.15	1266.36
597.50	1262.01
597.85	1257.97
598.19	1253.20
598.54	1248.53
598.89	1244.48
599.24	1241.13
599.59	1237.30
599.94	1233.70
600.29	1230.02
600.64	1226.27
600.99	1222.14
601.34	1218.30
601.69	1213.01
602.04	1208.71
602.39	1204.36
602.74	1200.27
603.08	1196.86
603.43	1193.33
603.78	1189.36
604.13	1185.09
604.48	1180.97
604.83	1177.57
605.18	1174.07
605.53	1170.33
605.87	1166.19
606.22	1162.46
606.57	1158.27
606.92	1153.88
607.27	1149.48
607.62	1145.30
607.96	1141.60
608.31	1137.94
608.66	1133.69
609.01	1129.22
609.36	1125.06
609.70	1120.46
610.05	1115.82
610.40	1111.37
610.75	1106.66
611.10	1102.29
611.44	1097.15
611.79	1092.14
612.14	1086.67
612.49	1081.15
612.83	1076.33
613.18	1071.29
613.53	1066.29
613.88	1061.01
614.22	1056.09
614.57	1051.07
614.92	1046.00
615.27	1040.90
615.61	1035.78
615.96	1031.09
616.31	1026.50
616.65	1022.24
617.00	1017.88
617.35	1013.35
617.70	1008.36
618.04	1002.97
618.39	997.40
618.74	992.81
619.08	988.11
619.43	983.30
619.78	978.59
620.12	973.76
620.47	969.05
620.82	963.82
621.16	958.95
621.51	954.20
621.85	949.58
622.20	944.71
622.55	939.65
622.89	934.70
623.24	929.69
623.59	924.83
623.93	919.75
624.28	914.92
624.62	910.40
624.97	905.76
625.32	901.37
625.66	897.25
626.01	892.80
626.35	888.41
626.70	884.14
627.04	879.99
627.39	875.56
627.73	871.18
628.08	867.04
628.43	862.51
628.77	857.89
629.12	853.31
629.46	849.32
629.81	845.30
630.15	841.10
630.50	836.62
630.84	832.31
631.19	827.84
631.53	823.54
631.88	818.74
632.22	814.05
632.57	809.94
632.91	805.39
633.26	801.12
633.60	797.03
633.95	792.99
634.29	788.57
634.64	784.64
634.98	780.35
635.32	776.30
635.67	772.52
636.01	768.70
636.36	764.50
636.70	760.39
637.05	756.11
637.39	752.27
637.73	748.83
638.08	745.38
638.42	741.83
638.77	738.00
639.11	734.25
639.45	730.75
639.80	726.67
640.14	722.70
640.49	718.93
640.83	714.93
641.17	710.92
641.52	706.99
641.86	703.03
642.20	699.35
642.55	695.38
642.89	691.35
643.23	687.45
643.58	683.89
643.92	679.92
644.26	676.29
644.61	672.41
644.95	668.41
645.29	664.25
645.64	660.32
645.98	656.51
646.32	652.89
646.66	649.06
647.01	645.51
647.35	642.03
647.69	638.26
648.04	634.70
648.38	631.07
648.72	627.41
649.06	623.74
649.41	620.06
649.75	616.47
650.09	612.98
650.43	609.30
650.78	605.54
651.12	601.96
651.46	598.40
651.80	594.95
652.14	591.26
652.49	587.82
652.83	584.36
653.17	580.72
653.51	577.07
653.85	573.74
654.20	570.18
654.54	566.68
654.88	563.20
655.22	559.69
655.56	556.19
655.90	552.83
656.25	549.25
656.59	545.83
656.93	542.50
657.27	539.20
657.61	535.85
657.95	532.80
658.29	529.51
658.64	526.48
658.98	523.11
659.32	519.92
659.66	516.86
660.00	513.59
660.34	510.45
660.68	507.29
661.02	504.07
661.36	501.13
661.70	498.14
662.05	495.41
662.39	492.63
662.73	489.98
663.07	487.23
663.41	484.58
663.75	481.77
664.09	478.96
664.43	476.07
664.77	473.35
665.11	470.50
665.45	467.93
665.79	465.26
666.13	462.47
666.47	459.92
666.81	457.25
667.15	454.80
667.49	452.42
667.83	450.30
668.17	447.85
668.51	445.47
668.85	443.16
669.19	440.78
669.53	438.33
669.87	435.88
670.21	433.55
670.55	431.27
670.89	429.27
671.23	427.15
671.57	425.12
671.91	423.06
672.25	421.05
672.58	419.03
672.92	416.83
673.26	415.02
673.60	413.09
673.94	411.16
674.28	409.20
674.62	407.30
674.96	405.21
675.30	403.40
675.64	401.45
675.97	399.57
676.31	397.63
676.65	395.77
676.99	394.11
677.33	392.24
677.67	390.50
678.01	388.51
678.34	386.69
678.68	385.05
679.02	383.20
679.36	381.41
679.70	379.59
680.04	377.80
680.37	375.94
680.71	374.18
681.05	372.52
681.39	370.71
681.73	368.93
682.06	367.37
682.40	365.76
682.74	364.20
683.08	362.68
683.42	361.07
683.75	359.58
684.09	357.90
684.43	356.27
684.77	354.59
685.10	353.09
685.44	351.58
685.78	349.87
686.12	348.53
686.45	347.10
686.79	345.72
687.13	344.41
687.46	343.16
687.80	341.80
688.14	340.27
688.48	338.90
688.81	337.56
689.15	336.15
689.49	334.72
689.82	333.39
690.16	331.79
690.50	330.35
690.83	329.02
691.17	327.52
691.51	326.16
691.84	325.01
692.18	323.65
692.52	322.35
692.85	321.35
693.19	320.10
693.52	318.76
693.86	317.45
694.20	316.21
694.53	315.06
694.87	313.89
695.21	312.73
695.54	311.57
695.88	310.35
696.21	309.15
696.55	307.98
696.88	306.79
697.22	305.72
697.56	304.84
697.89	303.68
698.23	302.66
698.56	301.77
698.90	300.65
699.23	299.64
699.57	298.61
699.90	297.44
700.24	296.34
700.58	295.44
700.91	294.50
701.25	293.68
701.58	292.64
701.92	291.67
702.25	290.70
702.59	289.68
702.92	288.77
703.26	287.74
703.59	286.87
703.93	286.37
704.26	285.56
704.60	284.59
704.93	283.69
705.26	282.84
705.60	281.95
705.93	281.10
706.27	280.35
706.60	279.72
706.94	279.10
707.27	278.33
707.61	277.48
707.94	276.61
708.27	275.62
708.61	274.87
708.94	274.11
709.28	273.44
709.61	272.77
709.94	272.17
710.28	271.55
710.61	270.80
710.95	269.70
711.28	269.27
711.61	268.55
711.95	268.03
712.28	267.36
712.61	266.73
712.95	266.26
713.28	265.81
713.61	265.01
713.95	264.27
714.28	263.70
714.61	263.16
714.95	262.67
715.28	262.11
715.61	261.48
715.95	260.89
716.28	260.28
716.61	259.68
716.95	258.98
717.28	258.50
717.61	258.03
717.94	257.54
718.28	256.80
718.61	256.34
718.94	255.66
719.27	255.21
719.61	254.68
719.94	254.13
720.27	253.49
720.60	253.10
720.94	252.61
721.27	252.18
721.60	251.64
721.93	251.14
722.27	250.78
722.60	250.46
722.93	250.00
723.26	249.56
723.59	249.16
723.93	248.83
724.26	248.43
724.59	248.08
724.92	247.78
725.25	247.43
725.59	247.07
725.92	246.80
726.25	246.37
726.58	246.09
726.91	245.68
727.24	245.34
727.57	244.91
727.91	244.55
728.24	244.20
728.57	243.88
728.90	243.60
729.23	243.17
729.56	242.98
729.89	242.65
730.22	242.33
730.55	241.96
730.89	241.65
731.22	241.25
731.55	240.79
731.88	240.44
732.21	240.04
732.54	239.68
732.87	239.37
733.20	239.07
733.53	238.73
733.86	238.51
734.19	238.20
734.52	238.04
734.85	237.96
735.18	237.59
735.51	237.43
735.84	237.11
736.17	237.03
736.50	236.55
736.83	236.74
737.16	236.50
737.49	236.37
737.82	235.99
738.15	235.77
738.48	235.61
738.81	235.34
739.14	235.07
739.47	234.83
739.80	234.59
740.13	234.43
740.46	234.19
740.79	233.84
741.12	233.58
741.45	233.31
741.78	232.90
742.11	232.78
742.44	232.43
742.77	232.29
743.10	231.89
743.43	231.75
743.75	231.20
744.08	231.40
744.41	231.12
744.74	231.04
745.07	230.79
745.40	230.62
745.73	230.52
746.06	230.39
746.39	230.18
746.71	229.92
747.04	229.64
747.37	229.45
747.70	229.35
748.03	229.19
748.36	229.02
748.68	228.88
749.01	228.63
749.34	228.53
749.67	228.36
750.00	228.28
750.33	228.25
750.65	228.06
750.98	227.46
751.31	227.27
751.64	227.03
751.97	227.02
752.29	226.84
752.62	226.55
752.95	226.37
753.28	226.15
753.60	225.96
753.93	225.96
754.26	225.82
754.59	225.57
754.91	225.35
755.24	225.10
755.57	224.93
755.90	224.75
756.22	224.55
756.55	224.36
756.88	224.16
757.20	223.82
757.53	223.53
757.86	223.38
758.19	223.31
758.51	223.21
758.84	222.94
759.17	222.73
759.49	222.63
759.82	222.65
760.15	222.63
760.47	222.49
760.80	222.21
761.13	222.07
761.45	221.97
761.78	221.86
762.11	221.76
762.43	221.59
762.76	221.51
763.08	221.44
763.41	221.34
763.74	221.27
764.06	221.12
764.39	221.04
764.71	220.96
765.04	220.79
765.37	220.68
765.69	220.55
766.02	220.49
766.34	220.26
766.67	219.91
767.00	219.75
767.32	219.83
767.65	220.02
767.97	219.89
768.30	219.78
768.62	219.72
768.95	219.61
769.27	219.54
769.60	219.50
769.92	219.35
770.25	219.18
770.57	219.02
770.90	218.90
771.22	218.83
771.55	218.72
771.87	218.62
772.20	218.55
772.52	218.75
772.85	219.15
773.17	219.14
773.50	219.17
773.82	219.11
774.15	218.88
774.47	218.48
774.80	218.39
775.12	218.24
775.45	218.13
775.77	218.08
776.09	218.05
776.42	217.94
776.74	218.02
777.07	217.95
777.39	217.87
777.72	217.81
778.04	217.72
778.36	217.64
778.69	217.58
779.01	217.55
779.33	217.21
779.66	216.75
779.98	216.65
780.31	216.55
780.63	216.61
780.95	216.64
781.28	216.61
781.60	216.47
781.92	216.52
782.25	216.47
782.57	216.38
782.89	216.20
783.22	216.14
783.54	215.98
783.86	215.96
784.19	215.95
784.51	215.99
784.83	215.85
785.16	215.79
785.48	215.70
785.80	215.62
786.12	215.58
786.45	215.48
786.77	215.51
787.09	215.42
787.42	215.26
787.74	215.21
788.06	215.22
788.38	215.22
788.71	215.13
789.03	215.10
789.35	215.12
789.67	215.06
789.99	215.11
790.32	215.01
790.64	214.98
790.96	215.21
791.28	215.05
791.61	215.03
791.93	215.01
792.25	215.07
792.57	215.24
792.89	215.18
793.21	215.17
793.54	215.06
793.86	215.05
794.18	215.00
794.50	214.90
794.82	214.90
795.14	214.90
795.47	214.94
795.79	214.95
796.11	214.84
796.43	214.88
796.75	214.81
797.07	214.76
797.39	214.72
797.71	214.46
798.04	214.53
798.36	214.52
798.68	214.45
799.00	214.47
799.32	214.25
799.64	214.30
799.96	214.25
800.28	214.32
800.60	214.30
800.92	214.31
801.24	214.26
801.56	214.19
801.89	214.20
802.21	214.13
802.53	214.04
802.85	214.14
803.17	214.24
803.49	214.09
803.81	214.05
804.13	214.05
804.45	213.92
804.77	213.89
805.09	213.94
805.41	214.02
805.73	213.88
806.05	213.73
806.37	213.65
806.69	213.64
807.01	213.63
807.33	213.57
807.65	213.46
807.97	213.62
808.28	213.58
808.60	213.51
808.92	213.50
809.24	213.61
809.56	213.54
809.88	213.40
810.20	213.49
810.52	213.65
810.84	213.57
811.16	213.55
811.48	213.54
811.80	213.65
812.12	213.56
812.43	213.63
812.75	213.75
813.07	213.65
813.39	213.64
813.71	213.54
814.03	213.55
814.35	213.56
814.67	213.42
814.98	213.42
815.30	213.39
815.62	213.28
815.94	213.14
816.26	213.09
816.58	213.02
816.89	213.00
817.21	212.80
817.53	212.80
817.85	212.78
818.17	212.77
818.48	212.59
818.80	212.65
819.12	212.60
819.44	212.52
819.76	212.52
820.07	212.43
820.39	212.49
820.71	212.47
821.03	212.49
821.34	212.46
821.66	212.46
821.98	212.51
822.30	212.49
822.61	212.67
822.93	212.71
823.25	212.66
823.57	212.57
823.88	212.71
824.20	212.68
824.52	212.79
824.83	212.70
825.15	212.66
825.47	212.64
825.79	212.66
826.10	212.64
826.42	212.65
826.74	212.77
827.05	212.69
827.37	212.69
827.69	212.65
828.00	212.64
828.32	212.60
828.64	212.57
828.95	212.80
829.27	212.72
829.58	212.66
829.90	212.71
830.22	212.71
830.53	212.62
830.85	212.59
831.17	212.52
831.48	212.61
831.80	212.60
832.11	212.57
832.43	212.49
832.75	212.55
833.06	212.77
833.38	212.64
833.69	212.62
834.01	212.63
834.32	212.63
834.64	212.66
834.96	212.68
835.27	212.66
835.59	212.51
835.90	212.33
836.22	212.31
836.53	212.24
836.85	212.29
837.16	212.55
837.48	212.62
837.79	212.69
838.11	212.62
838.42	212.61
838.74	212.59
839.05	212.55
839.37	212.41
839.68	212.15
840.00	212.13
840.31	212.20
840.63	212.15
840.94	212.06
841.26	212.00
841.57	211.99
841.88	212.05
842.20	211.98
842.51	211.99
842.83	211.96
843.14	212.27
843.46	212.25
843.77	212.08
844.08	212.01
844.40	211.91
844.71	211.90
845.03	211.85
845.34	211.90
845.65	211.82
845.97	211.88
846.28	211.90
846.60	211.97
846.91	211.88
847.22	211.99
847.54	212.06
847.85	212.03
848.16	211.99
848.48	211.91
848.79	212.05
849.10	212.08
849.42	212.12
849.73	211.82
850.04	211.78
850.36	211.71
850.67	211.78
850.98	211.75
851.30	211.76
851.61	211.83
851.92	211.75
852.23	211.96
852.55	211.95
852.86	211.96
853.17	212.02
853.49	212.15
853.80	212.11
854.11	212.13
854.42	212.14
854.74	212.10
855.05	212.12
855.36	211.98
855.67	212.01
855.99	212.04
856.30	212.47
856.61	212.47
856.92	212.47
857.23	212.41
857.55	212.42
857.86	212.37
858.17	212.39
858.48	212.30
858.79	212.25
859.11	212.31
859.42	212.25
859.73	212.12
860.04	212.04
860.35	211.91
860.66	211.82
860.98	211.84
861.29	211.86
861.60	211.86
861.91	211.85
862.22	211.85
862.53	211.78
862.84	211.37
863.16	211.45
863.47	211.34
863.78	211.31
864.09	211.33
864.40	211.40
864.71	211.40
865.02	211.54
865.33	211.50
865.64	211.41
865.95	211.47
866.27	211.70
866.58	211.69
866.89	211.78
867.20	211.76
867.51	211.69
867.82	211.70
868.13	211.73
868.44	211.63
868.75	211.68
869.06	211.69
869.37	211.67
869.68	211.59
869.99	211.66
870.30	211.74
870.61	211.77
870.92	211.70
871.23	211.67
871.54	211.63
871.85	211.68
872.16	211.72
872.47	211.63
872.78	211.42
873.09	211.42
873.40	211.39
873.71	211.41
874.02	211.42
874.33	211.39
874.64	211.33
874.95	211.55
875.26	211.45
875.56	211.48
875.87	211.55
876.18	211.54
876.49	211.85
876.80	211.83
877.11	211.75
877.42	211.74
877.73	211.71
878.04	211.70
878.35	211.69
878.66	211.70
878.96	211.71
879.27	211.80
879.58	211.72
879.89	211.64
880.20	211.80
880.51	211.82
880.82	211.79
881.12	211.83
881.43	211.64
881.74	211.62
882.05	211.57
882.36	211.52
882.67	211.48
882.97	211.03
883.28	210.98
883.59	210.95
883.90	211.05
884.21	211.15
884.51	211.11
884.82	211.04
885.13	211.04
885.44	211.08
885.74	210.98
886.05	210.99
886.36	211.10
886.67	210.92
886.98	211.11
887.28	211.20
887.59	211.18
887.90	211.24
888.20	211.23
888.51	211.30
888.82	211.18
889.13	211.22
889.43	211.61
889.74	211.60
890.05	211.59
890.35	211.49
890.66	211.37
890.97	211.38
891.28	211.40
891.58	211.42
891.89	211.38
892.20	211.40
892.50	211.35
892.81	211.32
893.12	211.29
893.42	211.15
893.73	211.15
894.04	211.12
894.34	211.17
894.65	211.09
894.95	211.02
895.26	211.10
895.57	211.26
895.87	210.91
896.18	210.93
896.48	210.98
896.79	210.98
897.10	211.05
897.40	210.98
897.71	210.99
898.01	210.93
898.32	211.01
898.63	210.98
898.93	211.04
899.24	211.00
899.54	211.02
899.85	210.93
900.15	210.86
900.46	210.85
900.76	210.88
901.07	210.93
901.38	210.84
901.68	210.86
901.99	210.73
902.29	210.75
902.60	210.71
902.90	210.59
903.21	210.63
903.51	210.60
903.82	210.74
904.12	210.72
904.43	210.72
904.73	210.74
905.03	210.82
905.34	211.11
905.64	211.07
905.95	211.04
906.25	211.10
906.56	211.19
906.86	211.23
907.17	211.17
907.47	211.21
907.77	211.26
908.08	211.24
908.38	211.21
908.69	211.26
908.99	211.34
909.30	211.38
909.60	211.35
909.90	211.39
910.21	211.22
910.51	211.16
910.81	211.22
911.12	211.18
911.42	211.07
911.73	210.79
912.03	210.83
912.33	210.96
912.64	210.91
912.94	210.88
913.24	210.83
913.55	210.78
913.85	210.73
914.15	210.80
914.46	210.80
914.76	210.78
915.06	210.76
915.37	210.74
915.67	210.80
915.97	210.86
916.27	210.77
916.58	210.90
916.88	210.92
917.18	210.89
917.49	211.10
917.79	211.18
918.09	211.26
918.39	211.38
918.70	211.29
919.00	211.35
919.30	211.48
919.60	211.46
919.91	211.46
920.21	211.53
920.51	211.49
920.81	211.48
921.12	211.51
921.42	211.45
921.72	211.43
922.02	211.44
922.32	211.50
922.63	211.51
922.93	211.64
923.23	211.67
923.53	211.56
923.83	211.33
924.13	211.35
924.44	211.30
924.74	211.39
925.04	211.53
925.34	211.49
925.64	211.36
925.94	211.34
926.24	211.54
926.55	211.49
926.85	211.58
927.15	211.58
927.45	211.59
927.75	211.65
928.05	211.60
928.35	211.59
928.65	211.66
928.95	211.74
929.26	211.59
929.56	211.64
929.86	211.77
930.16	211.75
930.46	211.75
930.76	211.70
931.06	211.53
931.36	211.41
931.66	211.46
931.96	211.45
932.26	211.50
932.56	211.39
932.86	211.44
933.16	211.38
933.46	211.38
933.76	211.34
934.06	211.37
934.36	211.48
934.66	211.42
934.96	211.29
935.26	211.25
935.56	211.25
935.86	211.20
936.16	211.14
936.46	211.11
936.76	211.11
937.06	211.10
937.36	211.07
937.66	211.08
937.96	211.08
938.26	211.08
938.56	211.04
938.86	211.03
939.16	211.05
939.46	211.10
939.76	211.11
940.06	211.18
940.35	211.18
940.65	211.02
940.95	211.10
941.25	211.05
941.55	211.00
941.85	211.01
942.15	211.10
942.45	211.17
942.75	211.14
943.04	211.10
943.34	211.19
943.64	211.23
943.94	211.20
944.24	211.19
944.54	211.16
944.84	211.15
945.13	211.11
945.43	211.05
945.73	211.11
946.03	211.05
946.33	210.91
946.62	210.88
946.92	210.95
947.22	210.94
947.52	210.96
947.82	211.04
948.11	211.00
948.41	210.85
948.71	210.79
949.01	210.91
949.31	210.98
949.60	210.93
949.90	210.96
950.20	210.95
950.50	210.96
950.79	210.94
951.09	210.99
951.39	211.00
951.69	211.03
951.98	211.02
952.28	211.09
952.58	211.12
952.87	211.08
953.17	211.09
953.47	211.03
953.76	210.98
954.06	210.87
954.36	210.87
954.66	210.85
954.95	210.93
955.25	210.92
955.55	210.89
955.84	210.85
956.14	210.86
956.44	210.87
956.73	210.83
957.03	210.85
957.32	210.85
957.62	210.83
957.92	210.86
958.21	210.80
958.51	211.19
958.81	211.27
959.10	211.36
959.40	211.49
959.69	211.58
959.99	211.67
960.29	211.77
960.58	211.76
960.88	211.99
961.17	211.94
961.47	211.93
961.76	211.85
962.06	211.94
962.36	211.91
962.65	211.90
962.95	211.95
963.24	211.90
963.54	211.89
963.83	211.92
964.13	211.90
964.42	211.82
964.72	211.55
965.01	211.56
965.31	211.49
965.60	211.37
965.90	211.48
966.19	211.35
966.49	211.37
966.78	211.41
967.08	211.37
967.37	211.41
967.67	211.38
967.96	211.50
968.26	211.47
968.55	211.51
968.85	211.57
969.14	211.49
969.43	211.51
969.73	211.49
970.02	211.47
970.32	211.44
970.61	211.51
970.91	211.37
971.20	211.29
971.49	211.26
971.79	211.26
972.08	211.12
972.38	211.26
972.67	211.25
972.96	211.27
973.26	211.12
973.55	211.22
973.85	211.23
974.14	211.23
974.43	211.22
974.73	211.08
975.02	210.99
975.31	211.01
975.61	210.96
975.90	210.99
976.19	210.99
976.49	210.96
976.78	210.90
977.07	210.92
977.37	210.94
977.66	210.97
977.95	211.01
978.24	211.03
978.54	211.02
978.83	210.96
979.12	210.91
979.42	211.02
979.71	210.95
980.00	210.90
980.29	210.81
980.59	210.80
980.88	210.98
981.17	211.04
981.46	211.06
981.76	211.09
982.05	211.22
982.34	211.21
982.63	211.29
982.93	211.30
983.22	211.45
983.51	211.48
983.80	211.61
984.09	211.61
984.39	211.59
984.68	211.56
984.97	211.58
985.26	211.60
985.55	211.56
985.85	211.48
986.14	211.53
986.43	211.65
986.72	211.64
987.01	211.52
987.30	211.49
987.59	211.50
987.89	211.56
988.18	211.40
988.47	211.40
988.76	211.29
989.05	211.31
989.34	211.20
989.63	211.27
989.92	211.15
990.22	211.13
990.51	211.16
990.80	211.17
991.09	211.23
991.38	211.28
991.67	211.26
991.96	211.25
992.25	211.33
992.54	211.30
992.83	211.27
993.12	211.23
993.41	211.29
993.70	211.46
993.99	211.55
994.28	211.68
994.58	211.72
994.87	211.77
995.16	211.73
995.45	211.72
995.74	211.66
996.03	211.79
996.32	211.84
996.61	211.91
996.90	211.88
997.19	211.89
997.48	211.90
997.77	211.81
998.06	211.80
998.34	211.71
998.63	211.65
998.92	211.59
999.21	211.65
999.50	211.68
999.79	211.52
1000.08	211.43
1000.37	211.37
1000.66	211.29
1000.95	211.42
1001.24	211.48
1001.53	211.51
1001.82	211.47
1002.11	211.34
1002.40	211.33
1002.68	211.27
1002.97	211.52
1003.26	211.45
1003.55	211.32
1003.84	211.34
1004.13	211.47
1004.42	211.43
1004.71	211.46
1004.99	211.51
1005.28	211.60
1005.57	211.55
1005.86	211.51
1006.15	211.50
1006.44	211.40
1006.72	211.50
1007.01	211.33
1007.30	211.26
1007.59	211.16
1007.88	211.14
1008.17	211.14
1008.45	211.04
1008.74	211.00
1009.03	210.72
1009.32	210.70
1009.60	210.74
1009.89	210.76
1010.18	210.62
1010.47	210.66
1010.76	210.66
1011.04	210.62
1011.33	210.97
1011.62	210.97
1011.91	210.92
1012.19	210.91
1012.48	210.93
1012.77	210.89
1013.05	211.05
1013.34	211.12
1013.63	211.18
1013.92	211.16
1014.20	211.11
1014.49	211.23
1014.78	211.23
1015.06	211.21
1015.35	211.24
1015.64	211.28
1015.92	211.29
1016.21	211.30
1016.50	211.28
1016.78	211.26
1017.07	211.36
1017.36	210.94
1017.64	210.88
1017.93	210.95
1018.22	210.91
1018.50	210.94
1018.79	210.87
1019.08	210.74
1019.36	210.79
1019.65	210.74
1019.93	210.90
1020.22	210.97
1020.51	211.16
1020.79	211.07
1021.08	209.45
1021.36	210.30
1021.65	209.80
1021.94	210.95
1022.22	212.00
1022.51	210.60
1022.79	213.50
1023.08	210.90
1023.36	216.20
1023.65	209.35
>>>>>End Processed Spectral Data<<<<<
