SpectraSuite Data File
++++++++++++++++++++++++++++++++++++
Date: Mon Feb 25 17:03:41 EST 2013
User: group
Dark Spectrum Present: No
Reference Spectrum Present: No
Number of Sampled Component Spectra: 1
Spectrometers: USB2E7196
Integration Time (usec): 104000 (USB2E7196)
Spectra Averaged: 20 (USB2E7196)
Boxcar Smoothing: 10 (USB2E7196)
Correct for Electrical Dark: No (USB2E7196)
Strobe/Lamp Enabled: No (USB2E7196)
Correct for Detector Non-linearity: No (USB2E7196)
Correct for Stray Light: No (USB2E7196)
Number of Pixels in Processed Spectrum: 2048
>>>>>Begin Processed Spectral Data<<<<<
339.09	0.00
339.48	199.45
339.86	198.80
340.24	200.25
340.63	202.15
341.01	209.00
341.39	204.75
341.78	207.65
342.16	208.15
342.54	207.85
342.93	197.63
343.31	207.61
343.69	208.03
344.07	208.55
344.46	209.08
344.84	209.49
345.22	209.50
345.60	209.76
345.99	209.90
346.37	210.02
346.75	210.13
347.13	210.18
347.52	210.19
347.90	210.32
348.28	210.31
348.66	210.35
349.05	210.27
349.43	210.33
349.81	210.38
350.19	210.44
350.57	210.40
350.96	210.47
351.34	210.58
351.72	210.69
352.10	210.72
352.48	210.71
352.87	210.74
353.25	210.81
353.63	210.87
354.01	210.92
354.39	211.04
354.77	211.04
355.15	211.19
355.54	211.23
355.92	211.19
356.30	211.29
356.68	211.64
357.06	211.77
357.44	211.84
357.82	211.89
358.20	211.95
358.58	211.99
358.97	212.06
359.35	212.21
359.73	212.35
360.11	212.41
360.49	212.50
360.87	212.57
361.25	212.76
361.63	212.89
362.01	212.99
362.39	212.94
362.77	213.12
363.15	213.18
363.53	213.16
363.91	213.22
364.29	213.26
364.67	212.94
365.05	212.96
365.43	213.04
365.81	213.11
366.19	213.33
366.57	213.54
366.95	213.59
367.33	213.45
367.71	213.42
368.09	213.54
368.47	213.51
368.85	213.43
369.23	213.39
369.61	213.28
369.99	213.35
370.37	213.40
370.75	213.55
371.13	213.44
371.51	213.45
371.89	213.45
372.27	213.42
372.65	213.44
373.03	213.37
373.41	213.31
373.78	213.31
374.16	213.09
374.54	212.90
374.92	212.75
375.30	212.75
375.68	212.61
376.06	212.55
376.44	212.44
376.82	212.41
377.19	212.36
377.57	212.38
377.95	212.21
378.33	212.10
378.71	211.83
379.09	211.85
379.47	211.84
379.84	211.78
380.22	211.73
380.60	211.65
380.98	211.62
381.36	211.56
381.73	211.50
382.11	211.53
382.49	211.49
382.87	211.50
383.25	211.44
383.62	211.85
384.00	211.73
384.38	211.73
384.76	211.78
385.13	211.80
385.51	211.72
385.89	211.61
386.27	211.58
386.64	211.57
387.02	211.41
387.40	211.32
387.78	211.26
388.15	211.21
388.53	211.17
388.91	211.04
389.29	210.96
389.66	210.93
390.04	210.79
390.42	210.88
390.79	210.85
391.17	210.78
391.55	210.36
391.92	210.33
392.30	210.39
392.68	210.29
393.05	210.29
393.43	210.23
393.81	210.29
394.18	210.20
394.56	210.20
394.94	210.39
395.31	210.36
395.69	210.54
396.06	210.60
396.44	210.59
396.82	210.67
397.19	210.84
397.57	210.74
397.95	210.84
398.32	210.74
398.70	210.82
399.07	210.93
399.45	210.98
399.82	211.03
400.20	211.00
400.58	211.06
400.95	210.93
401.33	211.08
401.70	211.30
402.08	211.40
402.45	211.46
402.83	211.48
403.20	211.55
403.58	211.49
403.95	211.63
404.33	211.81
404.71	211.85
405.08	212.14
405.46	212.20
405.83	212.33
406.21	212.42
406.58	212.53
406.96	212.66
407.33	212.81
407.70	212.99
408.08	213.51
408.45	213.71
408.83	214.04
409.20	214.25
409.58	214.34
409.95	214.61
410.33	214.84
410.70	215.06
411.08	215.44
411.45	215.78
411.82	216.00
412.20	216.48
412.57	217.19
412.95	217.31
413.32	217.98
413.69	218.48
414.07	219.07
414.44	219.70
414.82	220.39
415.19	221.14
415.56	221.97
415.94	222.51
416.31	223.48
416.68	224.40
417.06	225.43
417.43	226.57
417.81	227.85
418.18	229.23
418.55	230.62
418.93	232.04
419.30	233.52
419.67	235.13
420.04	236.70
420.42	238.30
420.79	240.50
421.16	242.45
421.54	244.60
421.91	246.75
422.28	248.90
422.66	251.14
423.03	253.65
423.40	255.97
423.77	258.55
424.15	261.09
424.52	263.71
424.89	266.70
425.26	269.54
425.64	272.14
426.01	275.01
426.38	278.16
426.75	281.37
427.13	284.62
427.50	288.10
427.87	291.65
428.24	295.27
428.61	298.67
428.99	302.60
429.36	306.61
429.73	310.69
430.10	314.76
430.47	319.08
430.85	323.24
431.22	327.75
431.59	332.77
431.96	337.53
432.33	342.76
432.70	347.84
433.08	353.74
433.45	359.40
433.82	365.11
434.19	371.27
434.56	377.35
434.93	383.17
435.30	389.01
435.68	395.58
436.05	401.94
436.42	408.18
436.79	414.14
437.16	420.54
437.53	427.19
437.90	433.90
438.27	440.42
438.64	447.30
439.01	453.70
439.38	459.51
439.75	465.22
440.13	471.63
440.50	477.52
440.87	482.40
441.24	487.64
441.61	493.25
441.98	497.60
442.35	502.55
442.72	507.62
443.09	512.52
443.46	515.51
443.83	517.75
444.20	519.86
444.57	522.45
444.94	524.03
445.31	525.74
445.68	527.42
446.05	528.30
446.42	528.01
446.79	527.86
447.16	527.18
447.53	526.90
447.90	524.96
448.27	523.10
448.64	520.14
449.01	518.04
449.37	514.04
449.74	510.26
450.11	505.82
450.48	500.76
450.85	495.50
451.22	491.14
451.59	486.93
451.96	482.75
452.33	477.14
452.70	471.97
453.07	465.75
453.43	459.35
453.80	453.41
454.17	447.73
454.54	442.20
454.91	436.40
455.28	430.58
455.65	425.03
456.02	419.98
456.38	415.38
456.75	409.61
457.12	404.79
457.49	399.96
457.86	395.10
458.23	391.27
458.59	387.00
458.96	382.58
459.33	378.66
459.70	374.79
460.07	371.68
460.43	368.11
460.80	364.75
461.17	361.96
461.54	358.76
461.91	355.83
462.27	352.87
462.64	350.21
463.01	347.40
463.38	344.76
463.74	341.54
464.11	339.08
464.48	337.03
464.85	334.80
465.21	333.03
465.58	331.22
465.95	328.69
466.32	326.67
466.68	324.62
467.05	322.65
467.42	320.72
467.78	318.65
468.15	316.79
468.52	315.43
468.88	313.46
469.25	311.87
469.62	310.45
469.98	309.00
470.35	307.66
470.72	306.39
471.08	305.01
471.45	303.88
471.82	302.75
472.18	301.42
472.55	300.41
472.92	299.29
473.28	298.21
473.65	297.26
474.02	296.33
474.38	295.65
474.75	294.99
475.11	294.15
475.48	293.65
475.85	293.12
476.21	292.49
476.58	292.01
476.94	291.65
477.31	291.30
477.67	290.75
478.04	290.42
478.41	290.11
478.77	290.12
479.14	289.83
479.50	289.66
479.87	289.47
480.23	289.35
480.60	289.13
480.96	288.96
481.33	289.12
481.69	289.13
482.06	289.13
482.42	289.20
482.79	289.20
483.15	289.28
483.52	289.47
483.88	289.61
484.25	289.80
484.61	289.92
484.98	290.06
485.34	290.53
485.71	290.90
486.07	291.28
486.44	291.42
486.80	291.90
487.17	292.30
487.53	293.07
487.90	293.72
488.26	294.49
488.62	295.25
488.99	295.80
489.35	296.49
489.72	297.22
490.08	298.00
490.44	298.82
490.81	299.75
491.17	300.55
491.54	301.49
491.90	302.41
492.26	303.59
492.63	304.66
492.99	305.57
493.36	306.72
493.72	307.92
494.08	309.04
494.45	310.29
494.81	311.61
495.17	312.79
495.54	314.08
495.90	315.29
496.26	316.63
496.63	318.04
496.99	319.47
497.35	320.93
497.72	322.37
498.08	323.90
498.44	325.35
498.80	326.93
499.17	328.47
499.53	330.04
499.89	331.45
500.26	332.91
500.62	334.41
500.98	335.93
501.34	337.36
501.71	338.85
502.07	340.20
502.43	341.50
502.79	342.69
503.16	343.93
503.52	345.22
503.88	346.42
504.24	347.61
504.60	348.86
504.97	350.08
505.33	351.21
505.69	352.50
506.05	353.59
506.41	354.67
506.78	355.53
507.14	356.45
507.50	357.32
507.86	358.27
508.22	359.18
508.59	359.83
508.95	360.52
509.31	361.36
509.67	362.09
510.03	362.87
510.39	363.70
510.75	364.32
511.12	364.88
511.48	365.57
511.84	366.12
512.20	366.48
512.56	366.83
512.92	367.30
513.28	367.63
513.64	367.90
514.00	368.14
514.37	368.53
514.73	368.89
515.09	369.15
515.45	369.34
515.81	369.47
516.17	369.56
516.53	369.69
516.89	369.64
517.25	369.62
517.61	369.70
517.97	369.58
518.33	369.50
518.69	369.51
519.05	369.43
519.41	369.41
519.77	369.72
520.13	369.83
520.49	369.61
520.85	369.60
521.21	369.75
521.57	369.77
521.93	369.73
522.29	369.66
522.65	369.75
523.01	369.82
523.37	369.94
523.73	370.18
524.09	370.45
524.45	370.77
524.81	371.18
525.17	371.56
525.53	372.00
525.89	372.53
526.25	373.07
526.61	373.42
526.97	373.99
527.33	374.37
527.68	375.24
528.04	376.06
528.40	376.67
528.76	377.35
529.12	378.21
529.48	379.25
529.84	380.14
530.20	381.18
530.56	382.35
530.91	383.62
531.27	384.85
531.63	386.11
531.99	387.36
532.35	388.50
532.71	389.69
533.07	391.08
533.42	392.99
533.78	394.46
534.14	396.08
534.50	397.45
534.86	399.06
535.21	400.33
535.57	402.03
535.93	403.80
536.29	405.75
536.65	407.67
537.00	409.26
537.36	411.14
537.72	412.90
538.08	414.78
538.44	416.68
538.79	418.86
539.15	420.80
539.51	422.95
539.87	425.25
540.22	427.51
540.58	429.84
540.94	431.85
541.29	434.13
541.65	436.60
542.01	439.26
542.37	441.79
542.72	444.38
543.08	446.81
543.44	449.52
543.79	451.82
544.15	454.42
544.51	457.34
544.87	460.17
545.22	462.94
545.58	465.62
545.94	468.30
546.29	470.81
546.65	473.53
547.01	476.11
547.36	478.90
547.72	481.61
548.07	484.38
548.43	486.91
548.79	489.65
549.14	492.17
549.50	494.81
549.86	497.39
550.21	500.06
550.57	502.89
550.92	505.39
551.28	508.12
551.64	510.68
551.99	513.43
552.35	515.98
552.70	518.72
553.06	521.32
553.41	523.98
553.77	526.86
554.13	529.56
554.48	532.25
554.84	534.70
555.19	537.18
555.55	539.76
555.90	542.15
556.26	544.55
556.61	547.00
556.97	549.22
557.32	551.52
557.68	553.80
558.03	555.95
558.39	558.12
558.74	560.49
559.10	562.78
559.45	564.91
559.81	567.25
560.16	569.27
560.52	571.52
560.87	573.77
561.23	575.66
561.58	578.03
561.94	580.12
562.29	582.22
562.64	584.38
563.00	586.28
563.35	588.41
563.71	590.62
564.06	592.70
564.42	594.90
564.77	597.14
565.12	599.24
565.48	601.57
565.83	603.63
566.19	605.56
566.54	607.18
566.89	608.86
567.25	610.67
567.60	612.69
567.96	614.68
568.31	616.43
568.66	618.05
569.02	619.26
569.37	620.63
569.72	622.22
570.08	623.52
570.43	624.77
570.78	626.01
571.14	626.84
571.49	627.83
571.84	628.98
572.20	629.82
572.55	630.59
572.90	631.09
573.26	631.86
573.61	632.33
573.96	633.04
574.31	633.70
574.67	633.93
575.02	633.94
575.37	633.87
575.72	633.79
576.08	634.17
576.43	634.38
576.78	634.64
577.13	634.80
577.49	635.07
577.84	635.44
578.19	635.59
578.54	636.06
578.90	636.52
579.25	636.60
579.60	636.61
579.95	636.66
580.30	636.89
580.66	637.07
581.01	637.15
581.36	637.16
581.71	637.10
582.06	637.34
582.42	637.44
582.77	637.44
583.12	637.58
583.47	637.57
583.82	637.66
584.17	637.73
584.53	637.80
584.88	637.58
585.23	637.43
585.58	637.34
585.93	637.05
586.28	636.80
586.63	636.59
586.98	636.36
587.34	636.37
587.69	635.97
588.04	635.75
588.39	635.60
588.74	635.25
589.09	634.91
589.44	634.36
589.79	634.06
590.14	633.67
590.49	633.24
590.84	632.61
591.19	632.14
591.54	631.63
591.89	630.65
592.25	630.31
592.60	629.44
592.95	628.60
593.30	627.87
593.65	626.90
594.00	625.91
594.35	626.12
594.70	625.22
595.05	624.50
595.40	623.54
595.75	622.34
596.10	621.62
596.45	620.93
596.80	620.23
597.15	619.56
597.50	618.66
597.85	618.04
598.19	617.31
598.54	616.53
598.89	615.61
599.24	615.10
599.59	614.17
599.94	613.57
600.29	612.86
600.64	612.08
600.99	611.32
601.34	610.68
601.69	608.91
602.04	607.86
602.39	606.95
602.74	606.27
603.08	605.80
603.43	605.18
603.78	604.20
604.13	603.40
604.48	602.44
604.83	601.86
605.18	601.01
605.53	600.07
605.87	598.99
606.22	598.13
606.57	597.19
606.92	596.20
607.27	595.19
607.62	594.23
607.96	593.34
608.31	592.44
608.66	591.49
609.01	590.35
609.36	589.41
609.70	588.23
610.05	586.79
610.40	585.64
610.75	584.36
611.10	583.45
611.44	581.86
611.79	580.49
612.14	579.06
612.49	577.44
612.83	576.16
613.18	574.66
613.53	573.20
613.88	571.56
614.22	570.13
614.57	568.56
614.92	566.98
615.27	565.39
615.61	563.79
615.96	562.28
616.31	561.00
616.65	559.66
617.00	558.28
617.35	556.94
617.70	555.26
618.04	553.51
618.39	551.43
618.74	550.10
619.08	548.43
619.43	546.80
619.78	545.23
620.12	543.48
620.47	542.05
620.82	540.22
621.16	538.50
621.51	536.94
621.85	535.36
622.20	533.81
622.55	532.13
622.89	530.43
623.24	528.61
623.59	526.77
623.93	524.97
624.28	523.39
624.62	522.11
624.97	520.69
625.32	519.23
625.66	517.85
626.01	516.18
626.35	514.75
626.70	513.13
627.04	511.74
627.39	510.07
627.73	508.56
628.08	507.34
628.43	505.66
628.77	503.90
629.12	502.24
629.46	500.73
629.81	499.14
630.15	497.47
630.50	495.81
630.84	494.21
631.19	492.67
631.53	490.96
631.88	488.92
632.22	487.04
632.57	485.50
632.91	484.01
633.26	482.44
633.60	480.79
633.95	479.21
634.29	477.39
634.64	476.00
634.98	474.28
635.32	472.60
635.67	471.39
636.01	469.95
636.36	468.37
636.70	466.82
637.05	465.36
637.39	464.00
637.73	462.67
638.08	461.38
638.42	459.95
638.77	458.58
639.11	457.08
639.45	455.55
639.80	453.86
640.14	452.13
640.49	450.54
640.83	448.92
641.17	447.45
641.52	446.04
641.86	444.42
642.20	442.98
642.55	441.27
642.89	439.60
643.23	437.99
643.58	436.64
643.92	435.07
644.26	433.44
644.61	431.95
644.95	430.37
645.29	428.68
645.64	427.08
645.98	425.46
646.32	424.02
646.66	422.44
647.01	420.94
647.35	419.57
647.69	417.95
648.04	416.56
648.38	415.01
648.72	413.45
649.06	411.87
649.41	410.14
649.75	408.64
650.09	407.15
650.43	405.59
650.78	403.89
651.12	402.20
651.46	400.71
651.80	399.29
652.14	397.87
652.49	396.40
652.83	394.80
653.17	393.32
653.51	391.77
653.85	390.47
654.20	389.05
654.54	387.48
654.88	386.02
655.22	384.50
655.56	383.04
655.90	381.58
656.25	380.12
656.59	378.85
656.93	377.46
657.27	376.11
657.61	374.60
657.95	373.35
658.29	372.09
658.64	370.86
658.98	369.38
659.32	367.81
659.66	366.42
660.00	365.14
660.34	363.67
660.68	362.29
661.02	360.82
661.36	359.45
661.70	358.08
662.05	356.90
662.39	355.71
662.73	354.52
663.07	353.48
663.41	352.31
663.75	351.00
664.09	349.74
664.43	348.43
664.77	347.33
665.11	346.11
665.45	344.85
665.79	343.59
666.13	342.31
666.47	341.13
666.81	340.04
667.15	338.77
667.49	337.75
667.83	336.78
668.17	335.74
668.51	334.68
668.85	333.76
669.19	332.85
669.53	331.72
669.87	330.57
670.21	329.31
670.55	328.23
670.89	327.40
671.23	326.50
671.57	325.50
671.91	324.39
672.25	323.34
672.58	322.47
672.92	321.45
673.26	320.55
673.60	319.69
673.94	318.64
674.28	317.78
674.62	316.86
674.96	315.84
675.30	314.91
675.64	313.98
675.97	313.00
676.31	312.03
676.65	311.05
676.99	310.30
677.33	309.45
677.67	308.64
678.01	307.55
678.34	306.70
678.68	305.83
679.02	305.01
679.36	304.09
679.70	303.22
680.04	302.39
680.37	301.55
680.71	300.74
681.05	300.02
681.39	299.16
681.73	298.21
682.06	297.44
682.40	296.68
682.74	295.91
683.08	295.26
683.42	294.39
683.75	293.69
684.09	292.80
684.43	292.03
684.77	291.18
685.10	290.53
685.44	289.63
685.78	288.84
686.12	288.17
686.45	287.48
686.79	286.65
687.13	285.89
687.46	285.17
687.80	284.53
688.14	283.77
688.48	283.09
688.81	282.39
689.15	281.68
689.49	280.87
689.82	280.19
690.16	279.25
690.50	278.51
690.83	277.85
691.17	277.09
691.51	276.37
691.84	275.77
692.18	275.08
692.52	274.41
692.85	273.85
693.19	273.25
693.52	272.57
693.86	271.92
694.20	271.37
694.53	270.75
694.87	269.99
695.21	269.38
695.54	268.70
695.88	268.09
696.21	267.51
696.55	267.00
696.88	266.39
697.22	265.85
697.56	265.41
697.89	264.80
698.23	264.30
698.56	263.78
698.90	263.27
699.23	262.65
699.57	262.13
699.90	261.52
700.24	260.82
700.58	260.35
700.91	259.95
701.25	259.59
701.58	259.23
701.92	258.84
702.25	258.30
702.59	257.85
702.92	257.40
703.26	256.85
703.59	256.37
703.93	256.17
704.26	255.72
704.60	255.29
704.93	254.77
705.26	254.29
705.60	253.84
705.93	253.28
706.27	252.90
706.60	252.57
706.94	252.30
707.27	251.94
707.61	251.46
707.94	251.00
708.27	250.37
708.61	249.82
708.94	249.32
709.28	248.95
709.61	248.51
709.94	248.19
710.28	247.88
710.61	247.57
710.95	246.95
711.28	246.86
711.61	246.37
711.95	246.14
712.28	245.76
712.61	245.41
712.95	245.22
713.28	244.95
713.61	244.57
713.95	244.11
714.28	243.82
714.61	243.49
714.95	243.13
715.28	242.74
715.61	242.36
715.95	242.09
716.28	241.67
716.61	241.46
716.95	241.14
717.28	240.74
717.61	240.40
717.94	240.04
718.28	239.48
718.61	239.21
718.94	238.85
719.27	238.55
719.61	238.21
719.94	237.89
720.27	237.51
720.60	237.24
720.94	236.91
721.27	236.68
721.60	236.58
721.93	236.33
722.27	236.30
722.60	236.12
722.93	235.83
723.26	235.67
723.59	235.39
723.93	235.09
724.26	234.90
724.59	234.63
724.92	234.45
725.25	234.34
725.59	234.12
725.92	233.97
726.25	233.79
726.58	233.55
726.91	233.35
727.24	233.24
727.57	233.00
727.91	232.75
728.24	232.55
728.57	232.25
728.90	232.10
729.23	231.70
729.56	231.70
729.89	231.57
730.22	231.40
730.55	231.15
730.89	231.00
731.22	230.77
731.55	230.55
731.88	230.30
732.21	230.01
732.54	229.76
732.87	229.49
733.20	229.28
733.53	229.15
733.86	229.03
734.19	228.76
734.52	228.62
734.85	228.80
735.18	228.57
735.51	228.48
735.84	228.25
736.17	228.21
736.50	227.86
736.83	228.08
737.16	227.93
737.49	227.82
737.82	227.58
738.15	227.43
738.48	227.29
738.81	227.14
739.14	226.97
739.47	226.86
739.80	226.77
740.13	226.55
740.46	226.40
740.79	226.06
741.12	225.90
741.45	225.71
741.78	225.32
742.11	225.22
742.44	225.05
742.77	224.98
743.10	224.78
743.43	224.64
743.75	224.10
744.08	224.46
744.41	224.28
744.74	224.18
745.07	224.10
745.40	224.04
745.73	224.10
746.06	223.98
746.39	223.83
746.71	223.64
747.04	223.61
747.37	223.47
747.70	223.44
748.03	223.33
748.36	223.26
748.68	223.07
749.01	222.86
749.34	222.73
749.67	222.62
750.00	222.60
750.33	222.68
750.65	222.61
750.98	222.00
751.31	221.87
751.64	221.72
751.97	221.80
752.29	221.68
752.62	221.40
752.95	221.31
753.28	221.20
753.60	221.13
753.93	221.12
754.26	221.00
754.59	220.85
754.91	220.75
755.24	220.69
755.57	220.67
755.90	220.62
756.22	220.48
756.55	220.35
756.88	220.11
757.20	219.83
757.53	219.63
757.86	219.53
758.19	219.44
758.51	219.40
758.84	219.08
759.17	218.96
759.49	218.86
759.82	218.91
760.15	218.85
760.47	218.76
760.80	218.55
761.13	218.58
761.45	218.53
761.78	218.49
762.11	218.40
762.43	218.28
762.76	218.16
763.08	218.19
763.41	218.12
763.74	218.10
764.06	218.02
764.39	217.96
764.71	217.86
765.04	217.81
765.37	217.77
765.69	217.67
766.02	217.54
766.34	217.50
766.67	217.29
767.00	217.27
767.32	217.38
767.65	217.54
767.97	217.46
768.30	217.36
768.62	217.30
768.95	217.17
769.27	217.10
769.60	217.10
769.92	216.95
770.25	216.84
770.57	216.70
770.90	216.68
771.22	216.63
771.55	216.62
771.87	216.56
772.20	216.42
772.52	216.70
772.85	217.09
773.17	217.02
773.50	216.95
773.82	216.81
774.15	216.60
774.47	216.31
774.80	216.15
775.12	216.13
775.45	216.07
775.77	216.07
776.09	216.05
776.42	216.05
776.74	216.03
777.07	215.98
777.39	216.02
777.72	215.83
778.04	215.85
778.36	215.82
778.69	215.81
779.01	215.84
779.33	215.51
779.66	215.07
779.98	215.03
780.31	215.08
780.63	215.26
780.95	215.32
781.28	215.28
781.60	215.26
781.92	215.18
782.25	215.09
782.57	214.96
782.89	214.85
783.22	214.74
783.54	214.75
783.86	214.70
784.19	214.63
784.51	214.71
784.83	214.51
785.16	214.48
785.48	214.42
785.80	214.35
786.12	214.36
786.45	214.35
786.77	214.32
787.09	214.25
787.42	214.10
787.74	213.98
788.06	214.02
788.38	214.04
788.71	214.01
789.03	214.03
789.35	214.13
789.67	214.15
789.99	214.15
790.32	214.01
790.64	214.09
790.96	214.30
791.28	214.14
791.61	214.20
791.93	214.19
792.25	214.18
792.57	214.41
792.89	214.29
793.21	214.31
793.54	214.22
793.86	214.13
794.18	214.10
794.50	214.18
794.82	214.17
795.14	214.21
795.47	214.26
795.79	214.32
796.11	214.26
796.43	214.24
796.75	214.24
797.07	214.23
797.39	214.12
797.71	213.88
798.04	213.98
798.36	213.99
798.68	213.96
799.00	214.02
799.32	213.86
799.64	213.91
799.96	213.87
800.28	213.93
800.60	213.92
800.92	213.93
801.24	213.84
801.56	213.74
801.89	213.64
802.21	213.61
802.53	213.41
802.85	213.42
803.17	213.57
803.49	213.50
803.81	213.55
804.13	213.52
804.45	213.52
804.77	213.52
805.09	213.47
805.41	213.43
805.73	213.31
806.05	213.19
806.37	213.06
806.69	212.97
807.01	212.94
807.33	212.97
807.65	212.83
807.97	212.90
808.28	212.85
808.60	212.85
808.92	212.77
809.24	213.02
809.56	212.93
809.88	212.78
810.20	212.82
810.52	212.85
810.84	212.83
811.16	212.75
811.48	212.72
811.80	212.85
812.12	212.82
812.43	212.83
812.75	212.88
813.07	212.95
813.39	213.03
813.71	213.03
814.03	212.96
814.35	212.95
814.67	212.81
814.98	212.84
815.30	212.84
815.62	212.79
815.94	212.60
816.26	212.62
816.58	212.54
816.89	212.51
817.21	212.38
817.53	212.34
817.85	212.35
818.17	212.31
818.48	212.17
818.80	212.22
819.12	212.22
819.44	212.25
819.76	212.18
820.07	212.14
820.39	212.09
820.71	212.13
821.03	212.09
821.34	212.08
821.66	212.18
821.98	212.19
822.30	212.20
822.61	212.33
822.93	212.23
823.25	212.21
823.57	212.10
823.88	212.16
824.20	212.21
824.52	212.22
824.83	212.22
825.15	212.19
825.47	212.12
825.79	212.15
826.10	212.03
826.42	212.04
826.74	212.10
827.05	212.04
827.37	212.06
827.69	212.08
828.00	212.09
828.32	212.05
828.64	212.04
828.95	212.26
829.27	212.20
829.58	212.30
829.90	212.37
830.22	212.42
830.53	212.40
830.85	212.34
831.17	212.27
831.48	212.26
831.80	212.30
832.11	212.23
832.43	212.12
832.75	212.13
833.06	212.28
833.38	212.10
833.69	212.13
834.01	212.12
834.32	212.10
834.64	212.08
834.96	212.03
835.27	211.95
835.59	211.79
835.90	211.71
836.22	211.72
836.53	211.64
836.85	211.66
837.16	212.01
837.48	212.04
837.79	212.22
838.11	212.24
838.42	212.22
838.74	212.36
839.05	212.37
839.37	212.36
839.68	212.24
840.00	212.27
840.31	212.28
840.63	212.22
840.94	212.23
841.26	212.17
841.57	212.15
841.88	212.26
842.20	212.24
842.51	212.19
842.83	212.12
843.14	212.42
843.46	212.37
843.77	212.10
844.08	212.10
844.40	211.97
844.71	211.96
845.03	211.86
845.34	211.76
845.65	211.78
845.97	211.71
846.28	211.68
846.60	211.62
846.91	211.58
847.22	211.60
847.54	211.64
847.85	211.68
848.16	211.64
848.48	211.52
848.79	211.60
849.10	211.68
849.42	211.73
849.73	211.46
850.04	211.42
850.36	211.36
850.67	211.42
850.98	211.44
851.30	211.38
851.61	211.44
851.92	211.47
852.23	211.55
852.55	211.62
852.86	211.67
853.17	211.79
853.49	211.92
853.80	211.97
854.11	212.03
854.42	212.12
854.74	212.09
855.05	212.07
855.36	211.87
855.67	211.83
855.99	211.77
856.30	212.11
856.61	212.14
856.92	212.10
857.23	212.08
857.55	212.04
857.86	212.05
858.17	212.03
858.48	211.97
858.79	211.85
859.11	211.89
859.42	211.84
859.73	211.80
860.04	211.67
860.35	211.59
860.66	211.45
860.98	211.40
861.29	211.44
861.60	211.39
861.91	211.56
862.22	211.58
862.53	211.55
862.84	211.23
863.16	211.26
863.47	211.20
863.78	211.11
864.09	211.09
864.40	211.19
864.71	211.19
865.02	211.19
865.33	211.15
865.64	211.01
865.95	210.98
866.27	211.11
866.58	211.15
866.89	211.12
867.20	211.13
867.51	211.08
867.82	211.05
868.13	211.16
868.44	211.05
868.75	211.03
869.06	211.10
869.37	211.04
869.68	210.94
869.99	211.00
870.30	210.97
870.61	210.98
870.92	210.88
871.23	210.88
871.54	210.94
871.85	210.99
872.16	211.02
872.47	210.98
872.78	210.82
873.09	210.76
873.40	210.76
873.71	210.71
874.02	210.69
874.33	210.67
874.64	210.54
874.95	210.60
875.26	210.51
875.56	210.51
875.87	210.51
876.18	210.51
876.49	210.83
876.80	210.83
877.11	210.80
877.42	210.81
877.73	210.85
878.04	210.85
878.35	210.89
878.66	210.94
878.96	210.99
879.27	210.91
879.58	210.95
879.89	210.94
880.20	211.06
880.51	211.08
880.82	211.08
881.12	211.16
881.43	211.06
881.74	211.09
882.05	211.01
882.36	211.10
882.67	211.21
882.97	210.89
883.28	210.94
883.59	210.95
883.90	210.99
884.21	210.99
884.51	210.96
884.82	210.92
885.13	210.93
885.44	210.93
885.74	211.01
886.05	211.03
886.36	211.06
886.67	210.99
886.98	211.18
887.28	211.28
887.59	211.30
887.90	211.34
888.20	211.33
888.51	211.40
888.82	211.30
889.13	211.26
889.43	211.52
889.74	211.48
890.05	211.46
890.35	211.41
890.66	211.34
890.97	211.25
891.28	211.25
891.58	211.30
891.89	211.28
892.20	211.26
892.50	211.24
892.81	211.26
893.12	211.25
893.42	211.08
893.73	211.03
894.04	211.00
894.34	211.05
894.65	211.01
894.95	211.01
895.26	210.98
895.57	211.12
895.87	210.86
896.18	210.92
896.48	210.93
896.79	210.87
897.10	210.98
897.40	211.08
897.71	211.09
898.01	211.05
898.32	211.03
898.63	211.00
898.93	211.06
899.24	211.05
899.54	211.06
899.85	211.05
900.15	211.09
900.46	211.08
900.76	211.11
901.07	211.12
901.38	211.06
901.68	211.15
901.99	210.94
902.29	210.97
902.60	210.95
902.90	211.00
903.21	211.03
903.51	210.95
903.82	211.03
904.12	211.04
904.43	211.11
904.73	211.10
905.03	211.10
905.34	211.40
905.64	211.32
905.95	211.27
906.25	211.22
906.56	211.16
906.86	211.11
907.17	211.06
907.47	211.10
907.77	211.12
908.08	211.04
908.38	211.15
908.69	211.15
908.99	211.19
909.30	211.15
909.60	211.11
909.90	211.16
910.21	211.04
910.51	210.96
910.81	210.90
911.12	210.98
911.42	211.03
911.73	210.59
912.03	210.65
912.33	210.71
912.64	210.72
912.94	210.68
913.24	210.72
913.55	210.63
913.85	210.59
914.15	210.68
914.46	210.73
914.76	210.63
915.06	210.61
915.37	210.56
915.67	210.52
915.97	210.59
916.27	210.45
916.58	210.45
916.88	210.45
917.18	210.40
917.49	210.61
917.79	210.55
918.09	210.72
918.39	210.77
918.70	210.79
919.00	210.80
919.30	210.96
919.60	210.86
919.91	210.87
920.21	210.85
920.51	210.69
920.81	210.68
921.12	210.76
921.42	210.68
921.72	210.69
922.02	210.69
922.32	210.77
922.63	210.84
922.93	211.02
923.23	211.05
923.53	211.01
923.83	210.84
924.13	210.86
924.44	210.79
924.74	210.86
925.04	210.89
925.34	210.91
925.64	210.79
925.94	210.82
926.24	211.11
926.55	211.12
926.85	211.14
927.15	211.06
927.45	211.05
927.75	211.07
928.05	211.05
928.35	211.07
928.65	211.10
928.95	211.16
929.26	211.01
929.56	211.10
929.86	211.15
930.16	211.08
930.46	211.06
930.76	211.06
931.06	210.91
931.36	210.85
931.66	210.95
931.96	211.02
932.26	211.07
932.56	210.83
932.86	210.88
933.16	210.92
933.46	210.92
933.76	210.86
934.06	210.98
934.36	211.11
934.66	211.10
934.96	210.98
935.26	210.91
935.56	210.96
935.86	210.87
936.16	210.88
936.46	210.81
936.76	210.81
937.06	210.77
937.36	210.76
937.66	210.77
937.96	210.64
938.26	210.55
938.56	210.52
938.86	210.58
939.16	210.67
939.46	210.70
939.76	210.79
940.06	210.82
940.35	210.74
940.65	210.57
940.95	210.61
941.25	210.54
941.55	210.60
941.85	210.56
942.15	210.52
942.45	210.59
942.75	210.64
943.04	210.57
943.34	210.62
943.64	210.65
943.94	210.62
944.24	210.71
944.54	210.71
944.84	210.63
945.13	210.54
945.43	210.43
945.73	210.39
946.03	210.31
946.33	210.26
946.62	210.18
946.92	210.21
947.22	210.20
947.52	210.28
947.82	210.26
948.11	210.30
948.41	210.34
948.71	210.28
949.01	210.27
949.31	210.34
949.60	210.35
949.90	210.45
950.20	210.40
950.50	210.33
950.79	210.28
951.09	210.36
951.39	210.38
951.69	210.35
951.98	210.47
952.28	210.47
952.58	210.51
952.87	210.56
953.17	210.59
953.47	210.55
953.76	210.52
954.06	210.47
954.36	210.36
954.66	210.33
954.95	210.36
955.25	210.39
955.55	210.41
955.84	210.33
956.14	210.29
956.44	210.37
956.73	210.31
957.03	210.31
957.32	210.35
957.62	210.36
957.92	210.45
958.21	210.35
958.51	210.76
958.81	210.77
959.10	210.73
959.40	210.84
959.69	210.93
959.99	211.00
960.29	210.98
960.58	211.03
960.88	211.12
961.17	211.11
961.47	211.13
961.76	211.09
962.06	211.13
962.36	211.05
962.65	210.95
962.95	210.96
963.24	211.00
963.54	211.00
963.83	210.98
964.13	210.99
964.42	210.92
964.72	210.61
965.01	210.54
965.31	210.61
965.60	210.48
965.90	210.67
966.19	210.50
966.49	210.54
966.78	210.52
967.08	210.48
967.37	210.53
967.67	210.49
967.96	210.59
968.26	210.57
968.55	210.64
968.85	210.76
969.14	210.80
969.43	210.82
969.73	210.79
970.02	210.79
970.32	210.78
970.61	210.82
970.91	210.79
971.20	210.85
971.49	210.86
971.79	210.92
972.08	210.60
972.38	210.71
972.67	210.77
972.96	210.78
973.26	210.74
973.55	210.77
973.85	210.71
974.14	210.67
974.43	210.72
974.73	210.71
975.02	210.59
975.31	210.60
975.61	210.56
975.90	210.59
976.19	210.62
976.49	210.68
976.78	210.65
977.07	210.64
977.37	210.70
977.66	210.67
977.95	210.61
978.24	210.67
978.54	210.77
978.83	210.64
979.12	210.65
979.42	210.75
979.71	210.75
980.00	210.76
980.29	210.82
980.59	210.77
980.88	210.82
981.17	210.84
981.46	210.83
981.76	210.88
982.05	210.95
982.34	210.89
982.63	210.84
982.93	210.86
983.22	210.95
983.51	210.94
983.80	211.04
984.09	211.10
984.39	211.07
984.68	211.09
984.97	211.16
985.26	211.16
985.55	211.13
985.85	211.09
986.14	211.17
986.43	211.24
986.72	211.31
987.01	211.23
987.30	211.18
987.59	211.16
987.89	211.16
988.18	211.03
988.47	211.07
988.76	211.00
989.05	211.04
989.34	210.93
989.63	210.95
989.92	210.90
990.22	210.84
990.51	210.84
990.80	210.74
991.09	210.81
991.38	210.80
991.67	210.74
991.96	210.67
992.25	210.67
992.54	210.48
992.83	210.44
993.12	210.43
993.41	210.60
993.70	210.77
993.99	210.83
994.28	210.97
994.58	211.04
994.87	211.10
995.16	211.05
995.45	211.09
995.74	210.95
996.03	210.97
996.32	211.06
996.61	211.16
996.90	211.21
997.19	211.17
997.48	211.18
997.77	211.21
998.06	211.24
998.34	211.21
998.63	211.30
998.92	211.32
999.21	211.39
999.50	211.35
999.79	211.25
1000.08	211.25
1000.37	211.20
1000.66	211.13
1000.95	211.15
1001.24	211.21
1001.53	211.23
1001.82	211.34
1002.11	211.31
1002.40	211.30
1002.68	211.42
1002.97	211.62
1003.26	211.55
1003.55	211.54
1003.84	211.48
1004.13	211.60
1004.42	211.59
1004.71	211.50
1004.99	211.53
1005.28	211.57
1005.57	211.59
1005.86	211.48
1006.15	211.44
1006.44	211.41
1006.72	211.43
1007.01	211.35
1007.30	211.32
1007.59	211.30
1007.88	211.21
1008.17	211.19
1008.45	211.15
1008.74	210.91
1009.03	210.76
1009.32	210.79
1009.60	210.77
1009.89	210.76
1010.18	210.60
1010.47	210.59
1010.76	210.57
1011.04	210.55
1011.33	210.58
1011.62	210.60
1011.91	210.68
1012.19	210.72
1012.48	210.71
1012.77	210.74
1013.05	210.95
1013.34	210.96
1013.63	210.98
1013.92	211.04
1014.20	211.09
1014.49	211.05
1014.78	211.09
1015.06	210.95
1015.35	211.02
1015.64	211.07
1015.92	211.17
1016.21	211.23
1016.50	211.25
1016.78	211.43
1017.07	211.39
1017.36	211.30
1017.64	211.20
1017.93	211.23
1018.22	211.18
1018.50	211.14
1018.79	211.09
1019.08	210.96
1019.36	210.95
1019.65	210.92
1019.93	211.00
1020.22	210.95
1020.51	211.11
1020.79	211.11
1021.08	210.80
1021.36	209.95
1021.65	209.90
1021.94	211.55
1022.22	211.10
1022.51	210.55
1022.79	212.45
1023.08	210.90
1023.36	213.65
1023.65	209.95
>>>>>End Processed Spectral Data<<<<<
