SpectraSuite Data File
++++++++++++++++++++++++++++++++++++
Date: Mon Feb 25 17:12:50 EST 2013
User: group
Dark Spectrum Present: No
Reference Spectrum Present: No
Number of Sampled Component Spectra: 1
Spectrometers: USB2E7196
Integration Time (usec): 104000 (USB2E7196)
Spectra Averaged: 20 (USB2E7196)
Boxcar Smoothing: 10 (USB2E7196)
Correct for Electrical Dark: No (USB2E7196)
Strobe/Lamp Enabled: No (USB2E7196)
Correct for Detector Non-linearity: No (USB2E7196)
Correct for Stray Light: No (USB2E7196)
Number of Pixels in Processed Spectrum: 2048
>>>>>Begin Processed Spectral Data<<<<<
339.09	0.00
339.48	199.70
339.86	199.20
340.24	201.60
340.63	202.35
341.01	210.30
341.39	206.00
341.78	207.10
342.16	209.20
342.54	209.10
342.93	198.32
343.31	208.33
343.69	208.80
344.07	209.28
344.46	209.70
344.84	210.15
345.22	210.14
345.60	210.34
345.99	210.49
346.37	210.56
346.75	210.61
347.13	210.72
347.52	210.76
347.90	210.99
348.28	210.95
348.66	210.97
349.05	210.90
349.43	210.95
349.81	211.00
350.19	210.96
350.57	210.98
350.96	211.11
351.34	211.19
351.72	211.29
352.10	211.39
352.48	211.44
352.87	211.41
353.25	211.50
353.63	211.61
354.01	211.65
354.39	211.75
354.77	211.89
355.15	212.04
355.54	212.05
355.92	211.95
356.30	212.04
356.68	212.35
357.06	212.41
357.44	212.40
357.82	212.51
358.20	212.63
358.58	212.72
358.97	212.68
359.35	212.83
359.73	212.94
360.11	212.95
360.49	213.07
360.87	213.17
361.25	213.29
361.63	213.45
362.01	213.57
362.39	213.53
362.77	213.58
363.15	213.58
363.53	213.63
363.91	213.65
364.29	213.73
364.67	213.42
365.05	213.42
365.43	213.51
365.81	213.46
366.19	213.64
366.57	213.80
366.95	213.81
367.33	213.76
367.71	213.73
368.09	213.87
368.47	213.87
368.85	213.84
369.23	213.85
369.61	213.71
369.99	213.77
370.37	213.91
370.75	214.03
371.13	213.92
371.51	213.90
371.89	214.00
372.27	213.99
372.65	213.95
373.03	213.91
373.41	213.82
373.78	213.82
374.16	213.58
374.54	213.39
374.92	213.35
375.30	213.31
375.68	213.27
376.06	213.21
376.44	213.04
376.82	213.00
377.19	212.94
377.57	212.81
377.95	212.66
378.33	212.50
378.71	212.31
379.09	212.30
379.47	212.23
379.84	212.12
380.22	212.01
380.60	211.94
380.98	212.00
381.36	211.95
381.73	211.82
382.11	211.86
382.49	211.89
382.87	211.87
383.25	211.81
383.62	212.16
384.00	212.00
384.38	212.01
384.76	212.03
385.13	212.14
385.51	212.20
385.89	212.15
386.27	212.15
386.64	212.10
387.02	212.07
387.40	212.03
387.78	212.04
388.15	212.09
388.53	212.05
388.91	211.95
389.29	211.86
389.66	211.92
390.04	211.82
390.42	211.77
390.79	211.72
391.17	211.66
391.55	211.21
391.92	211.30
392.30	211.35
392.68	211.32
393.05	211.22
393.43	211.17
393.81	211.19
394.18	211.10
394.56	211.07
394.94	211.05
395.31	210.97
395.69	211.08
396.06	211.11
396.44	211.15
396.82	211.07
397.19	211.31
397.57	211.23
397.95	211.31
398.32	211.22
398.70	211.24
399.07	211.34
399.45	211.36
399.82	211.32
400.20	211.25
400.58	211.27
400.95	211.18
401.33	211.25
401.70	211.47
402.08	211.55
402.45	211.61
402.83	211.79
403.20	211.88
403.58	211.83
403.95	211.86
404.33	211.92
404.71	212.03
405.08	212.18
405.46	212.27
405.83	212.39
406.21	212.51
406.58	212.63
406.96	212.69
407.33	212.85
407.70	213.01
408.08	213.47
408.45	213.60
408.83	213.80
409.20	213.98
409.58	213.99
409.95	214.23
410.33	214.50
410.70	214.61
411.08	214.93
411.45	215.23
411.82	215.46
412.20	215.90
412.57	216.48
412.95	216.56
413.32	216.99
413.69	217.43
414.07	217.77
414.44	218.19
414.82	218.69
415.19	219.25
415.56	219.73
415.94	220.00
416.31	220.74
416.68	221.39
417.06	222.15
417.43	222.95
417.81	223.79
418.18	224.57
418.55	225.45
418.93	226.42
419.30	227.36
419.67	228.43
420.04	229.35
420.42	230.32
420.79	231.85
421.16	233.17
421.54	234.65
421.91	236.15
422.28	237.56
422.66	239.00
423.03	240.60
423.40	242.15
423.77	243.83
424.15	245.36
424.52	247.08
424.89	248.90
425.26	250.63
425.64	252.30
426.01	254.13
426.38	256.08
426.75	258.11
427.13	260.13
427.50	262.23
427.87	264.54
428.24	266.80
428.61	268.70
428.99	271.09
429.36	273.42
429.73	275.86
430.10	278.41
430.47	281.12
430.85	283.58
431.22	286.35
431.59	289.59
431.96	292.49
432.33	295.60
432.70	298.70
433.08	302.24
433.45	305.73
433.82	309.24
434.19	313.02
434.56	316.72
434.93	320.15
435.30	323.70
435.68	327.57
436.05	331.34
436.42	335.24
436.79	338.80
437.16	342.65
437.53	346.64
437.90	350.58
438.27	354.43
438.64	358.46
439.01	362.29
439.38	365.42
439.75	368.63
440.13	372.50
440.50	375.96
440.87	378.70
441.24	381.53
441.61	384.66
441.98	387.01
442.35	389.52
442.72	392.33
443.09	395.11
443.46	396.63
443.83	397.82
444.20	398.77
444.57	400.10
444.94	400.70
445.31	401.41
445.68	402.40
446.05	402.58
446.42	402.21
446.79	401.77
447.16	401.24
447.53	400.96
447.90	399.34
448.27	397.87
448.64	395.90
449.01	394.40
449.37	391.81
449.74	389.31
450.11	386.67
450.48	383.34
450.85	379.89
451.22	377.08
451.59	374.38
451.96	371.80
452.33	368.27
452.70	365.02
453.07	361.27
453.43	357.06
453.80	353.43
454.17	349.89
454.54	346.47
454.91	342.82
455.28	339.24
455.65	335.91
456.02	333.13
456.38	330.45
456.75	327.02
457.12	324.20
457.49	321.31
457.86	318.32
458.23	316.16
458.59	313.57
458.96	310.92
459.33	308.51
459.70	306.14
460.07	304.24
460.43	302.06
460.80	299.99
461.17	298.38
461.54	296.52
461.91	294.77
462.27	292.97
462.64	291.49
463.01	289.84
463.38	288.33
463.74	286.17
464.11	284.68
464.48	283.49
464.85	282.11
465.21	281.22
465.58	280.20
465.95	278.76
466.32	277.79
466.68	276.77
467.05	275.69
467.42	274.66
467.78	273.50
468.15	272.58
468.52	271.92
468.88	270.79
469.25	269.94
469.62	269.36
469.98	268.64
470.35	267.96
470.72	267.23
471.08	266.43
471.45	265.90
471.82	265.32
472.18	264.68
472.55	264.25
472.92	263.57
473.28	263.04
473.65	262.55
474.02	261.99
474.38	261.69
474.75	261.39
475.11	261.05
475.48	260.85
475.85	260.62
476.21	260.34
476.58	260.21
476.94	260.09
477.31	259.88
477.67	259.73
478.04	259.67
478.41	259.70
478.77	260.00
479.14	259.90
479.50	259.93
479.87	260.01
480.23	260.14
480.60	260.27
480.96	260.48
481.33	260.95
481.69	261.20
482.06	261.40
482.42	261.68
482.79	261.96
483.15	262.34
483.52	262.85
483.88	263.30
484.25	263.72
484.61	264.13
484.98	264.62
485.34	265.43
485.71	266.20
486.07	267.00
486.44	267.57
486.80	268.47
487.17	269.29
487.53	270.35
487.90	271.40
488.26	272.63
488.62	273.79
488.99	274.80
489.35	276.00
489.72	277.38
490.08	278.83
490.44	280.33
490.81	281.92
491.17	283.45
491.54	285.20
491.90	287.03
492.26	289.08
492.63	291.16
492.99	293.11
493.36	295.23
493.72	297.51
494.08	299.79
494.45	302.36
494.81	305.14
495.17	307.80
495.54	310.57
495.90	313.43
496.26	316.42
496.63	319.64
496.99	323.02
497.35	326.44
497.72	330.05
498.08	333.75
498.44	337.56
498.80	341.65
499.17	345.85
499.53	350.19
499.89	354.69
500.26	359.17
500.62	363.88
500.98	368.94
501.34	373.96
501.71	379.28
502.07	384.53
502.43	389.94
502.79	395.58
503.16	401.43
503.52	407.41
503.88	413.62
504.24	420.06
504.60	426.62
504.97	433.30
505.33	440.13
505.69	447.49
506.05	454.80
506.41	462.11
506.78	469.62
507.14	477.24
507.50	485.06
507.86	493.29
508.22	501.63
508.59	509.87
508.95	518.47
509.31	527.33
509.67	536.21
510.03	545.32
510.39	554.55
510.75	564.05
511.12	573.57
511.48	583.45
511.84	593.25
512.20	603.20
512.56	613.66
512.92	624.02
513.28	634.44
513.64	644.87
514.00	655.60
514.37	666.42
514.73	677.57
515.09	688.68
515.45	699.76
515.81	710.95
516.17	722.25
516.53	733.41
516.89	744.71
517.25	756.36
517.61	767.98
517.97	779.71
518.33	791.55
518.69	803.36
519.05	815.09
519.41	827.20
519.77	839.32
520.13	851.12
520.49	863.09
520.85	874.98
521.21	887.28
521.57	899.58
521.93	911.50
522.29	923.74
522.65	936.04
523.01	948.25
523.37	960.05
523.73	972.21
524.09	984.65
524.45	996.87
524.81	1009.07
525.17	1021.61
525.53	1033.83
525.89	1045.95
526.25	1058.17
526.61	1070.01
526.97	1081.81
527.33	1093.88
527.68	1106.18
528.04	1117.87
528.40	1129.39
528.76	1140.98
529.12	1152.52
529.48	1164.75
529.84	1176.08
530.20	1187.24
530.56	1198.66
530.91	1210.69
531.27	1222.40
531.63	1233.66
531.99	1245.07
532.35	1256.09
532.71	1266.67
533.07	1277.97
533.42	1288.65
533.78	1299.50
534.14	1310.07
534.50	1320.03
534.86	1329.95
535.21	1339.50
535.57	1349.90
535.93	1359.49
536.29	1368.94
536.65	1378.62
537.00	1387.36
537.36	1396.33
537.72	1405.31
538.08	1413.98
538.44	1422.58
538.79	1430.99
539.15	1439.38
539.51	1447.46
539.87	1455.87
540.22	1463.72
540.58	1471.75
540.94	1479.42
541.29	1486.69
541.65	1493.61
542.01	1500.97
542.37	1508.13
542.72	1514.95
543.08	1520.95
543.44	1528.15
543.79	1534.34
544.15	1539.89
544.51	1546.21
544.87	1552.36
545.22	1557.87
545.58	1562.98
545.94	1567.52
546.29	1571.70
546.65	1575.86
547.01	1580.02
547.36	1583.82
547.72	1588.06
548.07	1590.97
548.43	1594.21
548.79	1597.03
549.14	1600.29
549.50	1603.25
549.86	1605.21
550.21	1607.44
550.57	1610.31
550.92	1611.80
551.28	1613.71
551.64	1615.71
551.99	1617.17
552.35	1618.45
552.70	1619.85
553.06	1621.35
553.41	1622.82
553.77	1624.40
554.13	1625.48
554.48	1626.67
554.84	1627.83
555.19	1628.13
555.55	1628.60
555.90	1628.47
556.26	1628.60
556.61	1628.28
556.97	1627.72
557.32	1627.92
557.68	1627.27
558.03	1626.38
558.39	1626.03
558.74	1626.00
559.10	1625.82
559.45	1625.26
559.81	1624.63
560.16	1623.52
560.52	1623.06
560.87	1622.13
561.23	1620.53
561.58	1619.98
561.94	1618.51
562.29	1616.67
562.64	1615.09
563.00	1613.86
563.35	1613.11
563.71	1612.50
564.06	1611.45
564.42	1610.40
564.77	1609.51
565.12	1608.82
565.48	1607.58
565.83	1606.37
566.19	1604.84
566.54	1602.42
566.89	1600.49
567.25	1598.85
567.60	1597.48
567.96	1595.10
568.31	1593.20
568.66	1591.27
569.02	1588.41
569.37	1585.48
569.72	1583.08
570.08	1580.84
570.43	1577.67
570.78	1574.56
571.14	1570.79
571.49	1567.48
571.84	1564.95
572.20	1561.19
572.55	1557.82
572.90	1553.93
573.26	1550.01
573.61	1546.11
573.96	1542.54
574.31	1538.25
574.67	1533.75
575.02	1529.07
575.37	1524.77
575.72	1519.74
576.08	1515.85
576.43	1511.39
576.78	1507.32
577.13	1503.31
577.49	1498.98
577.84	1495.01
578.19	1490.92
578.54	1487.43
578.90	1483.82
579.25	1479.00
579.60	1474.16
579.95	1469.17
580.30	1465.18
580.66	1460.95
581.01	1456.24
581.36	1451.48
581.71	1446.91
582.06	1442.59
582.42	1438.24
582.77	1433.67
583.12	1429.60
583.47	1425.06
583.82	1420.90
584.17	1416.45
584.53	1412.14
584.88	1407.85
585.23	1403.36
585.58	1398.90
585.93	1394.01
586.28	1389.63
586.63	1385.33
586.98	1381.35
587.34	1377.74
587.69	1373.28
588.04	1368.96
588.39	1365.04
588.74	1360.95
589.09	1357.23
589.44	1352.91
589.79	1348.95
590.14	1344.82
590.49	1340.41
590.84	1335.87
591.19	1331.90
591.54	1327.83
591.89	1322.65
592.25	1318.10
592.60	1313.55
592.95	1308.71
593.30	1303.63
593.65	1298.60
594.00	1293.80
594.35	1290.22
594.70	1285.28
595.05	1281.13
595.40	1276.71
595.75	1271.55
596.10	1267.27
596.45	1262.96
596.80	1258.76
597.15	1254.54
597.50	1250.17
597.85	1246.07
598.19	1241.71
598.54	1237.36
598.89	1233.19
599.24	1229.87
599.59	1226.02
599.94	1222.71
600.29	1219.24
600.64	1215.71
600.99	1211.67
601.34	1208.02
601.69	1203.17
602.04	1199.05
602.39	1194.70
602.74	1190.70
603.08	1187.57
603.43	1184.19
603.78	1180.08
604.13	1176.12
604.48	1172.18
604.83	1168.79
605.18	1165.54
605.53	1161.85
605.87	1157.65
606.22	1153.92
606.57	1149.74
606.92	1145.56
607.27	1140.97
607.62	1136.52
607.96	1132.86
608.31	1129.24
608.66	1124.90
609.01	1120.56
609.36	1116.50
609.70	1112.18
610.05	1107.61
610.40	1102.98
610.75	1098.04
611.10	1093.95
611.44	1088.77
611.79	1083.98
612.14	1078.69
612.49	1073.05
612.83	1068.02
613.18	1063.01
613.53	1057.99
613.88	1052.60
614.22	1047.68
614.57	1042.67
614.92	1037.83
615.27	1032.57
615.61	1027.53
615.96	1022.58
616.31	1018.09
616.65	1013.75
617.00	1009.19
617.35	1004.46
617.70	999.40
618.04	994.26
618.39	988.76
618.74	984.41
619.08	979.29
619.43	974.77
619.78	970.39
620.12	965.60
620.47	961.17
620.82	955.93
621.16	951.04
621.51	946.27
621.85	941.60
622.20	936.60
622.55	931.73
622.89	926.74
623.24	922.24
623.59	917.41
623.93	912.25
624.28	907.45
624.62	903.12
624.97	898.76
625.32	894.36
625.66	890.11
626.01	885.51
626.35	881.20
626.70	876.58
627.04	872.20
627.39	867.96
627.73	863.59
628.08	859.81
628.43	855.41
628.77	850.79
629.12	846.27
629.46	842.50
629.81	838.42
630.15	834.26
630.50	829.80
630.84	825.50
631.19	821.37
631.53	817.31
631.88	812.53
632.22	807.99
632.57	804.15
632.91	799.70
633.26	795.61
633.60	791.62
633.95	787.55
634.29	783.22
634.64	779.35
634.98	775.02
635.32	770.86
635.67	767.34
636.01	763.73
636.36	759.75
636.70	755.74
637.05	751.71
637.39	747.84
637.73	744.05
638.08	740.40
638.42	736.87
638.77	733.21
639.11	729.63
639.45	725.86
639.80	721.75
640.14	718.05
640.49	714.07
640.83	710.25
641.17	706.45
641.52	702.65
641.86	698.49
642.20	694.86
642.55	690.91
642.89	686.96
643.23	682.97
643.58	679.51
643.92	675.41
644.26	671.60
644.61	667.98
644.95	664.23
645.29	660.28
645.64	656.40
645.98	652.40
646.32	648.79
646.66	644.92
647.01	641.30
647.35	637.76
647.69	634.16
648.04	630.66
648.38	626.95
648.72	623.40
649.06	619.81
649.41	616.13
649.75	612.45
650.09	608.99
650.43	605.45
650.78	601.62
651.12	598.06
651.46	594.47
651.80	590.89
652.14	587.33
652.49	584.02
652.83	580.34
653.17	576.75
653.51	573.18
653.85	570.00
654.20	566.51
654.54	562.85
654.88	559.30
655.22	555.81
655.56	552.37
655.90	548.95
656.25	545.69
656.59	542.33
656.93	539.12
657.27	535.91
657.61	532.47
657.95	529.31
658.29	526.19
658.64	523.24
658.98	519.96
659.32	516.69
659.66	513.53
660.00	510.46
660.34	507.33
660.68	504.07
661.02	501.00
661.36	498.04
661.70	495.22
662.05	492.54
662.39	489.89
662.73	487.26
663.07	484.68
663.41	481.90
663.75	479.20
664.09	476.38
664.43	473.38
664.77	470.74
665.11	468.10
665.45	465.51
665.79	462.83
666.13	460.33
666.47	457.95
666.81	455.33
667.15	452.64
667.49	450.38
667.83	448.32
668.17	445.95
668.51	443.66
668.85	441.40
669.19	439.20
669.53	436.65
669.87	434.20
670.21	431.80
670.55	429.60
670.89	427.60
671.23	425.59
671.57	423.67
671.91	421.62
672.25	419.45
672.58	417.45
672.92	415.39
673.26	413.38
673.60	411.32
673.94	409.27
674.28	407.40
674.62	405.44
674.96	403.31
675.30	401.50
675.64	399.47
675.97	397.50
676.31	395.54
676.65	393.83
676.99	392.38
677.33	390.55
677.67	388.81
678.01	386.85
678.34	385.10
678.68	383.38
679.02	381.68
679.36	379.98
679.70	378.24
680.04	376.49
680.37	374.77
680.71	373.11
681.05	371.60
681.39	370.05
681.73	368.36
682.06	366.80
682.40	365.22
682.74	363.71
683.08	362.34
683.42	360.69
683.75	359.01
684.09	357.24
684.43	355.64
684.77	354.06
685.10	352.55
685.44	350.93
685.78	349.28
686.12	347.82
686.45	346.32
686.79	344.82
687.13	343.55
687.46	342.21
687.80	340.80
688.14	339.29
688.48	338.03
688.81	336.72
689.15	335.36
689.49	333.93
689.82	332.62
690.16	331.04
690.50	329.71
690.83	328.37
691.17	326.91
691.51	325.60
691.84	324.31
692.18	323.00
692.52	321.82
692.85	320.62
693.19	319.50
693.52	318.32
693.86	317.07
694.20	315.82
694.53	314.54
694.87	313.35
695.21	312.12
695.54	310.82
695.88	309.53
696.21	308.28
696.55	307.11
696.88	305.94
697.22	304.86
697.56	303.86
697.89	302.82
698.23	301.88
698.56	300.78
698.90	299.76
699.23	298.72
699.57	297.65
699.90	296.69
700.24	295.55
700.58	294.49
700.91	293.62
701.25	292.84
701.58	292.01
701.92	291.12
702.25	290.26
702.59	289.28
702.92	288.39
703.26	287.51
703.59	286.67
703.93	286.15
704.26	285.35
704.60	284.47
704.93	283.54
705.26	282.61
705.60	281.88
705.93	281.02
706.27	280.31
706.60	279.65
706.94	278.99
707.27	278.20
707.61	277.47
707.94	276.57
708.27	275.62
708.61	274.77
708.94	274.08
709.28	273.37
709.61	272.70
709.94	272.09
710.28	271.43
710.61	270.75
710.95	269.70
711.28	269.24
711.61	268.55
711.95	268.06
712.28	267.50
712.61	266.91
712.95	266.47
713.28	266.00
713.61	265.35
713.95	264.67
714.28	264.10
714.61	263.46
714.95	262.90
715.28	262.33
715.61	261.72
715.95	261.22
716.28	260.64
716.61	260.11
716.95	259.50
717.28	258.97
717.61	258.42
717.94	257.93
718.28	257.14
718.61	256.66
718.94	256.00
719.27	255.43
719.61	254.91
719.94	254.32
720.27	253.61
720.60	253.10
720.94	252.53
721.27	252.06
721.60	251.68
721.93	251.29
722.27	250.94
722.60	250.61
722.93	250.07
723.26	249.71
723.59	249.26
723.93	248.86
724.26	248.49
724.59	248.05
724.92	247.63
725.25	247.43
725.59	247.04
725.92	246.80
726.25	246.43
726.58	246.07
726.91	245.73
727.24	245.52
727.57	245.15
727.91	244.82
728.24	244.50
728.57	244.13
728.90	243.85
729.23	243.40
729.56	243.14
729.89	242.83
730.22	242.44
730.55	241.99
730.89	241.69
731.22	241.28
731.55	240.97
731.88	240.71
732.21	240.23
732.54	239.79
732.87	239.35
733.20	239.07
733.53	238.75
733.86	238.46
734.19	238.07
734.52	237.79
734.85	237.71
735.18	237.40
735.51	237.26
735.84	236.94
736.17	236.67
736.50	236.29
736.83	236.42
737.16	236.08
737.49	235.89
737.82	235.55
738.15	235.36
738.48	235.14
738.81	234.83
739.14	234.59
739.47	234.44
739.80	234.20
740.13	233.99
740.46	233.68
740.79	233.39
741.12	233.12
741.45	232.81
741.78	232.38
742.11	232.19
742.44	231.90
742.77	231.72
743.10	231.53
743.43	231.24
743.75	230.65
744.08	231.07
744.41	230.85
744.74	230.63
745.07	230.35
745.40	230.13
745.73	230.07
746.06	229.91
746.39	229.71
746.71	229.48
747.04	229.22
747.37	229.08
747.70	228.92
748.03	228.74
748.36	228.70
748.68	228.55
749.01	228.34
749.34	228.18
749.67	228.02
750.00	227.88
750.33	228.04
750.65	227.84
750.98	227.09
751.31	226.97
751.64	226.85
751.97	226.91
752.29	226.75
752.62	226.45
752.95	226.24
753.28	226.02
753.60	225.92
753.93	225.85
754.26	225.73
754.59	225.51
754.91	225.32
755.24	225.13
755.57	224.94
755.90	224.81
756.22	224.63
756.55	224.44
756.88	224.23
757.20	223.81
757.53	223.57
757.86	223.44
758.19	223.28
758.51	223.21
758.84	222.92
759.17	222.75
759.49	222.68
759.82	222.69
760.15	222.63
760.47	222.47
760.80	222.22
761.13	222.14
761.45	222.01
761.78	221.93
762.11	221.74
762.43	221.69
762.76	221.51
763.08	221.45
763.41	221.33
763.74	221.17
764.06	221.11
764.39	221.07
764.71	220.97
765.04	220.90
765.37	220.74
765.69	220.61
766.02	220.56
766.34	220.45
766.67	220.22
767.00	220.18
767.32	220.30
767.65	220.48
767.97	220.30
768.30	220.23
768.62	220.13
768.95	220.05
769.27	219.96
769.60	219.85
769.92	219.69
770.25	219.55
770.57	219.45
770.90	219.32
771.22	219.24
771.55	219.19
771.87	219.06
772.20	218.90
772.52	219.15
772.85	219.45
773.17	219.32
773.50	219.20
773.82	219.10
774.15	218.85
774.47	218.52
774.80	218.40
775.12	218.29
775.45	218.21
775.77	218.19
776.09	218.11
776.42	218.10
776.74	218.15
777.07	218.05
777.39	217.97
777.72	217.94
778.04	217.91
778.36	217.78
778.69	217.71
779.01	217.77
779.33	217.34
779.66	216.90
779.98	216.82
780.31	216.87
780.63	216.97
780.95	216.97
781.28	216.89
781.60	216.85
781.92	216.81
782.25	216.68
782.57	216.60
782.89	216.50
783.22	216.47
783.54	216.31
783.86	216.30
784.19	216.21
784.51	216.20
784.83	216.04
785.16	215.91
785.48	215.86
785.80	215.76
786.12	215.71
786.45	215.59
786.77	215.57
787.09	215.47
787.42	215.23
787.74	215.15
788.06	215.17
788.38	215.14
788.71	215.06
789.03	215.14
789.35	215.14
789.67	215.03
789.99	214.99
790.32	214.87
790.64	214.84
790.96	215.11
791.28	214.98
791.61	214.98
791.93	215.02
792.25	214.95
792.57	215.13
792.89	215.06
793.21	215.13
793.54	215.06
793.86	214.99
794.18	215.01
794.50	214.90
794.82	214.83
795.14	214.83
795.47	214.85
795.79	214.75
796.11	214.65
796.43	214.66
796.75	214.58
797.07	214.60
797.39	214.62
797.71	214.34
798.04	214.34
798.36	214.27
798.68	214.26
799.00	214.29
799.32	214.10
799.64	214.18
799.96	214.13
800.28	214.23
800.60	214.17
800.92	214.13
801.24	214.10
801.56	214.11
801.89	214.04
802.21	214.08
802.53	214.04
802.85	214.10
803.17	214.26
803.49	214.20
803.81	214.15
804.13	214.06
804.45	213.97
804.77	213.98
805.09	213.98
805.41	213.94
805.73	213.93
806.05	213.90
806.37	213.81
806.69	213.73
807.01	213.70
807.33	213.76
807.65	213.63
807.97	213.85
808.28	213.79
808.60	213.79
808.92	213.78
809.24	213.97
809.56	213.84
809.88	213.68
810.20	213.64
810.52	213.71
810.84	213.67
811.16	213.60
811.48	213.60
811.80	213.71
812.12	213.62
812.43	213.63
812.75	213.60
813.07	213.55
813.39	213.56
813.71	213.44
814.03	213.33
814.35	213.39
814.67	213.22
814.98	213.24
815.30	213.19
815.62	213.06
815.94	212.90
816.26	212.92
816.58	212.88
816.89	212.92
817.21	212.89
817.53	212.87
817.85	212.95
818.17	212.83
818.48	212.63
818.80	212.77
819.12	212.65
819.44	212.62
819.76	212.60
820.07	212.65
820.39	212.58
820.71	212.66
821.03	212.75
821.34	212.64
821.66	212.69
821.98	212.73
822.30	212.71
822.61	212.85
822.93	212.83
823.25	212.79
823.57	212.74
823.88	212.72
824.20	212.73
824.52	212.73
824.83	212.76
825.15	212.81
825.47	212.70
825.79	212.72
826.10	212.63
826.42	212.59
826.74	212.58
827.05	212.58
827.37	212.61
827.69	212.47
828.00	212.49
828.32	212.46
828.64	212.39
828.95	212.57
829.27	212.47
829.58	212.49
829.90	212.44
830.22	212.45
830.53	212.37
830.85	212.32
831.17	212.28
831.48	212.33
831.80	212.37
832.11	212.45
832.43	212.42
832.75	212.45
833.06	212.59
833.38	212.46
833.69	212.47
834.01	212.48
834.32	212.46
834.64	212.47
834.96	212.38
835.27	212.40
835.59	212.28
835.90	212.19
836.22	212.19
836.53	212.14
836.85	212.07
837.16	212.46
837.48	212.47
837.79	212.55
838.11	212.55
838.42	212.51
838.74	212.49
839.05	212.48
839.37	212.51
839.68	212.33
840.00	212.41
840.31	212.45
840.63	212.30
840.94	212.25
841.26	212.19
841.57	212.23
841.88	212.22
842.20	212.14
842.51	212.10
842.83	212.10
843.14	212.49
843.46	212.51
843.77	212.23
844.08	212.15
844.40	212.03
844.71	211.99
845.03	211.90
845.34	211.88
845.65	211.87
845.97	211.83
846.28	211.85
846.60	211.80
846.91	211.72
847.22	211.74
847.54	211.84
847.85	211.88
848.16	211.88
848.48	211.87
848.79	212.05
849.10	212.12
849.42	212.10
849.73	211.76
850.04	211.77
850.36	211.67
850.67	211.78
850.98	211.87
851.30	211.84
851.61	211.87
851.92	211.86
852.23	211.98
852.55	212.01
852.86	212.11
853.17	212.17
853.49	212.26
853.80	212.38
854.11	212.37
854.42	212.45
854.74	212.44
855.05	212.43
855.36	212.23
855.67	212.22
855.99	212.24
856.30	212.66
856.61	212.66
856.92	212.69
857.23	212.66
857.55	212.55
857.86	212.57
858.17	212.61
858.48	212.48
858.79	212.39
859.11	212.49
859.42	212.44
859.73	212.38
860.04	212.37
860.35	212.17
860.66	212.12
860.98	212.03
861.29	212.04
861.60	212.06
861.91	212.21
862.22	212.16
862.53	212.06
862.84	211.65
863.16	211.72
863.47	211.73
863.78	211.71
864.09	211.80
864.40	211.81
864.71	211.86
865.02	212.00
865.33	211.95
865.64	211.77
865.95	211.77
866.27	212.00
866.58	211.99
866.89	212.11
867.20	212.08
867.51	212.07
867.82	212.03
868.13	212.06
868.44	211.91
868.75	211.93
869.06	211.95
869.37	212.01
869.68	211.90
869.99	211.90
870.30	211.99
870.61	212.04
870.92	211.96
871.23	211.90
871.54	211.92
871.85	212.01
872.16	212.09
872.47	212.01
872.78	211.79
873.09	211.79
873.40	211.76
873.71	211.80
874.02	211.76
874.33	211.73
874.64	211.66
874.95	211.75
875.26	211.73
875.56	211.75
875.87	211.66
876.18	211.63
876.49	211.93
876.80	211.84
877.11	211.74
877.42	211.79
877.73	211.77
878.04	211.71
878.35	211.69
878.66	211.63
878.96	211.69
879.27	211.66
879.58	211.64
879.89	211.63
880.20	211.70
880.51	211.72
880.82	211.73
881.12	211.73
881.43	211.63
881.74	211.62
882.05	211.64
882.36	211.70
882.67	211.76
882.97	211.41
883.28	211.44
883.59	211.41
883.90	211.40
884.21	211.47
884.51	211.40
884.82	211.37
885.13	211.42
885.44	211.36
885.74	211.38
886.05	211.41
886.36	211.36
886.67	211.27
886.98	211.42
887.28	211.43
887.59	211.49
887.90	211.51
888.20	211.48
888.51	211.48
888.82	211.39
889.13	211.39
889.43	211.66
889.74	211.60
890.05	211.58
890.35	211.55
890.66	211.44
890.97	211.43
891.28	211.36
891.58	211.41
891.89	211.42
892.20	211.40
892.50	211.32
892.81	211.38
893.12	211.46
893.42	211.25
893.73	211.26
894.04	211.24
894.34	211.28
894.65	211.19
894.95	211.18
895.26	211.23
895.57	211.37
895.87	211.08
896.18	211.08
896.48	211.15
896.79	211.14
897.10	211.18
897.40	211.22
897.71	211.33
898.01	211.19
898.32	211.27
898.63	211.32
898.93	211.35
899.24	211.30
899.54	211.21
899.85	211.25
900.15	211.29
900.46	211.24
900.76	211.30
901.07	211.36
901.38	211.34
901.68	211.38
901.99	211.24
902.29	211.29
902.60	211.28
902.90	211.23
903.21	211.22
903.51	211.17
903.82	211.21
904.12	211.15
904.43	211.20
904.73	211.18
905.03	211.08
905.34	211.40
905.64	211.40
905.95	211.38
906.25	211.42
906.56	211.31
906.86	211.35
907.17	211.27
907.47	211.32
907.77	211.26
908.08	211.18
908.38	211.18
908.69	211.20
908.99	211.28
909.30	211.32
909.60	211.38
909.90	211.41
910.21	211.39
910.51	211.35
910.81	211.38
911.12	211.34
911.42	211.40
911.73	211.00
912.03	211.02
912.33	211.09
912.64	211.03
912.94	211.07
913.24	211.01
913.55	211.04
913.85	211.03
914.15	211.08
914.46	211.14
914.76	211.09
915.06	211.04
915.37	210.95
915.67	210.94
915.97	210.86
916.27	210.84
916.58	210.78
916.88	210.81
917.18	210.76
917.49	210.99
917.79	210.94
918.09	211.06
918.39	211.16
918.70	211.15
919.00	211.26
919.30	211.40
919.60	211.40
919.91	211.31
920.21	211.30
920.51	211.24
920.81	211.23
921.12	211.32
921.42	211.39
921.72	211.42
922.02	211.44
922.32	211.58
922.63	211.54
922.93	211.79
923.23	211.80
923.53	211.77
923.83	211.57
924.13	211.64
924.44	211.62
924.74	211.64
925.04	211.77
925.34	211.64
925.64	211.54
925.94	211.52
926.24	211.74
926.55	211.72
926.85	211.79
927.15	211.77
927.45	211.69
927.75	211.63
928.05	211.63
928.35	211.63
928.65	211.64
928.95	211.69
929.26	211.51
929.56	211.60
929.86	211.63
930.16	211.63
930.46	211.58
930.76	211.55
931.06	211.42
931.36	211.29
931.66	211.36
931.96	211.35
932.26	211.37
932.56	211.18
932.86	211.20
933.16	211.14
933.46	211.15
933.76	211.09
934.06	211.16
934.36	211.24
934.66	211.18
934.96	211.12
935.26	211.09
935.56	211.16
935.86	211.05
936.16	211.01
936.46	210.94
936.76	210.96
937.06	210.91
937.36	210.95
937.66	210.97
937.96	210.95
938.26	210.87
938.56	210.85
938.86	210.90
939.16	211.02
939.46	211.09
939.76	211.07
940.06	211.11
940.35	211.03
940.65	210.87
940.95	210.91
941.25	210.80
941.55	210.81
941.85	210.75
942.15	210.84
942.45	210.93
942.75	210.96
943.04	211.00
943.34	211.01
943.64	210.97
943.94	210.85
944.24	210.82
944.54	210.92
944.84	210.96
945.13	210.85
945.43	210.70
945.73	210.62
946.03	210.67
946.33	210.69
946.62	210.67
946.92	210.75
947.22	210.77
947.52	210.90
947.82	210.92
948.11	210.90
948.41	210.82
948.71	210.76
949.01	210.74
949.31	210.70
949.60	210.72
949.90	210.72
950.20	210.81
950.50	210.79
950.79	210.67
951.09	210.70
951.39	210.80
951.69	210.79
951.98	210.91
952.28	210.89
952.58	210.89
952.87	210.85
953.17	210.89
953.47	210.78
953.76	210.76
954.06	210.74
954.36	210.72
954.66	210.75
954.95	210.87
955.25	210.89
955.55	210.82
955.84	210.79
956.14	210.87
956.44	210.86
956.73	210.91
957.03	210.99
957.32	211.02
957.62	210.93
957.92	211.00
958.21	210.99
958.51	211.34
958.81	211.37
959.10	211.45
959.40	211.48
959.69	211.57
959.99	211.57
960.29	211.63
960.58	211.59
960.88	211.70
961.17	211.64
961.47	211.72
961.76	211.75
962.06	211.85
962.36	211.81
962.65	211.80
962.95	211.75
963.24	211.72
963.54	211.72
963.83	211.73
964.13	211.73
964.42	211.62
964.72	211.32
965.01	211.29
965.31	211.28
965.60	211.21
965.90	211.39
966.19	211.29
966.49	211.27
966.78	211.27
967.08	211.22
967.37	211.17
967.67	211.13
967.96	211.24
968.26	211.19
968.55	211.22
968.85	211.29
969.14	211.34
969.43	211.30
969.73	211.18
970.02	211.26
970.32	211.31
970.61	211.30
970.91	211.28
971.20	211.31
971.49	211.30
971.79	211.40
972.08	211.24
972.38	211.30
972.67	211.29
972.96	211.38
973.26	211.31
973.55	211.51
973.85	211.52
974.14	211.44
974.43	211.48
974.73	211.43
975.02	211.36
975.31	211.29
975.61	211.33
975.90	211.42
976.19	211.33
976.49	211.27
976.78	211.37
977.07	211.37
977.37	211.37
977.66	211.38
977.95	211.26
978.24	211.22
978.54	211.30
978.83	211.22
979.12	211.17
979.42	211.18
979.71	211.05
980.00	211.03
980.29	211.14
980.59	211.07
980.88	211.20
981.17	211.19
981.46	211.29
981.76	211.26
982.05	211.35
982.34	211.44
982.63	211.47
982.93	211.47
983.22	211.51
983.51	211.50
983.80	211.57
984.09	211.67
984.39	211.70
984.68	211.62
984.97	211.63
985.26	211.63
985.55	211.69
985.85	211.65
986.14	211.61
986.43	211.58
986.72	211.54
987.01	211.40
987.30	211.40
987.59	211.36
987.89	211.43
988.18	211.32
988.47	211.26
988.76	211.26
989.05	211.15
989.34	211.02
989.63	211.12
989.92	211.06
990.22	210.93
990.51	210.89
990.80	210.89
991.09	211.00
991.38	211.02
991.67	210.97
991.96	210.89
992.25	210.93
992.54	210.86
992.83	210.92
993.12	210.90
993.41	210.95
993.70	211.03
993.99	211.10
994.28	211.13
994.58	211.22
994.87	211.11
995.16	211.11
995.45	211.17
995.74	210.98
996.03	211.01
996.32	211.11
996.61	211.20
996.90	211.25
997.19	211.28
997.48	211.27
997.77	211.16
998.06	211.22
998.34	211.20
998.63	211.18
998.92	211.20
999.21	211.23
999.50	211.21
999.79	211.02
1000.08	210.97
1000.37	210.95
1000.66	210.84
1000.95	210.98
1001.24	211.01
1001.53	210.98
1001.82	211.00
1002.11	210.84
1002.40	210.84
1002.68	210.90
1002.97	211.08
1003.26	210.92
1003.55	210.89
1003.84	210.94
1004.13	211.02
1004.42	210.99
1004.71	210.95
1004.99	210.89
1005.28	210.94
1005.57	210.98
1005.86	211.00
1006.15	210.98
1006.44	210.88
1006.72	210.96
1007.01	210.79
1007.30	210.80
1007.59	210.80
1007.88	210.82
1008.17	210.86
1008.45	210.80
1008.74	210.57
1009.03	210.43
1009.32	210.47
1009.60	210.47
1009.89	210.45
1010.18	210.35
1010.47	210.33
1010.76	210.40
1011.04	210.39
1011.33	210.47
1011.62	210.45
1011.91	210.49
1012.19	210.46
1012.48	210.53
1012.77	210.48
1013.05	210.62
1013.34	210.58
1013.63	210.57
1013.92	210.62
1014.20	210.71
1014.49	210.75
1014.78	210.84
1015.06	210.67
1015.35	210.68
1015.64	210.71
1015.92	210.82
1016.21	210.78
1016.50	210.79
1016.78	210.84
1017.07	210.85
1017.36	210.71
1017.64	210.66
1017.93	210.70
1018.22	210.68
1018.50	210.64
1018.79	210.69
1019.08	210.57
1019.36	210.64
1019.65	210.73
1019.93	210.79
1020.22	210.78
1020.51	210.94
1020.79	210.95
1021.08	210.00
1021.36	209.15
1021.65	211.85
1021.94	210.10
1022.22	210.70
1022.51	211.85
1022.79	212.15
1023.08	211.35
1023.36	215.05
1023.65	210.85
>>>>>End Processed Spectral Data<<<<<
