SpectraSuite Data File
++++++++++++++++++++++++++++++++++++
Date: Mon Feb 25 16:56:00 EST 2013
User: group
Dark Spectrum Present: No
Reference Spectrum Present: No
Number of Sampled Component Spectra: 1
Spectrometers: USB2E7196
Integration Time (usec): 104000 (USB2E7196)
Spectra Averaged: 20 (USB2E7196)
Boxcar Smoothing: 10 (USB2E7196)
Correct for Electrical Dark: No (USB2E7196)
Strobe/Lamp Enabled: No (USB2E7196)
Correct for Detector Non-linearity: No (USB2E7196)
Correct for Stray Light: No (USB2E7196)
Number of Pixels in Processed Spectrum: 2048
>>>>>Begin Processed Spectral Data<<<<<
339.09	0.00
339.48	198.65
339.86	200.35
340.24	201.20
340.63	201.25
341.01	208.90
341.39	205.95
341.78	206.80
342.16	209.75
342.54	208.35
342.93	198.47
343.31	208.52
343.69	209.08
344.07	209.50
344.46	210.04
344.84	210.52
345.22	210.66
345.60	210.99
345.99	211.21
346.37	211.28
346.75	211.48
347.13	211.56
347.52	211.68
347.90	211.85
348.28	211.88
348.66	211.91
349.05	211.85
349.43	211.94
349.81	212.05
350.19	212.12
350.57	212.16
350.96	212.32
351.34	212.34
351.72	212.47
352.10	212.70
352.48	212.79
352.87	212.85
353.25	212.95
353.63	213.01
354.01	213.12
354.39	213.22
354.77	213.28
355.15	213.45
355.54	213.43
355.92	213.32
356.30	213.37
356.68	213.73
357.06	213.81
357.44	213.88
357.82	213.89
358.20	214.05
358.58	214.16
358.97	214.18
359.35	214.39
359.73	214.47
360.11	214.49
360.49	214.50
360.87	214.63
361.25	214.59
361.63	214.75
362.01	214.81
362.39	214.84
362.77	214.91
363.15	214.88
363.53	214.94
363.91	215.06
364.29	215.11
364.67	214.82
365.05	214.80
365.43	214.75
365.81	214.77
366.19	214.84
366.57	214.97
366.95	214.95
367.33	214.87
367.71	214.82
368.09	214.88
368.47	214.89
368.85	214.82
369.23	214.91
369.61	214.74
369.99	214.79
370.37	214.88
370.75	214.95
371.13	214.94
371.51	214.82
371.89	214.81
372.27	214.79
372.65	214.76
373.03	214.82
373.41	214.72
373.78	214.68
374.16	214.44
374.54	214.32
374.92	214.33
375.30	214.24
375.68	214.08
376.06	214.03
376.44	213.91
376.82	213.85
377.19	213.80
377.57	213.69
377.95	213.54
378.33	213.39
378.71	213.13
379.09	213.12
379.47	213.14
379.84	213.03
380.22	212.93
380.60	212.77
380.98	212.68
381.36	212.65
381.73	212.65
382.11	212.70
382.49	212.55
382.87	212.42
383.25	212.47
383.62	212.94
384.00	212.82
384.38	212.81
384.76	212.85
385.13	212.89
385.51	212.86
385.89	212.78
386.27	212.78
386.64	212.84
387.02	212.73
387.40	212.66
387.78	212.67
388.15	212.66
388.53	212.68
388.91	212.62
389.29	212.66
389.66	212.64
390.04	212.60
390.42	212.74
390.79	212.72
391.17	212.64
391.55	212.22
391.92	212.16
392.30	212.21
392.68	212.13
393.05	212.17
393.43	212.20
393.81	212.23
394.18	212.17
394.56	212.20
394.94	212.30
395.31	212.27
395.69	212.37
396.06	212.46
396.44	212.49
396.82	212.53
397.19	212.72
397.57	212.69
397.95	212.78
398.32	212.67
398.70	212.74
399.07	212.86
399.45	212.91
399.82	213.06
400.20	213.12
400.58	213.25
400.95	213.17
401.33	213.28
401.70	213.67
402.08	213.81
402.45	213.96
402.83	214.16
403.20	214.42
403.58	214.49
403.95	214.65
404.33	214.92
404.71	215.05
405.08	215.39
405.46	215.71
405.83	216.03
406.21	216.38
406.58	216.78
406.96	217.14
407.33	217.63
407.70	218.07
408.08	218.86
408.45	219.43
408.83	220.18
409.20	220.86
409.58	221.31
409.95	222.15
410.33	222.93
410.70	223.67
411.08	224.61
411.45	225.68
411.82	226.74
412.20	227.90
412.57	229.45
412.95	230.37
413.32	231.80
413.69	233.19
414.07	234.83
414.44	236.56
414.82	238.41
415.19	240.41
415.56	242.55
415.94	244.63
416.31	247.17
416.68	249.51
417.06	252.38
417.43	255.15
417.81	258.21
418.18	261.38
418.55	264.88
418.93	268.55
419.30	272.36
419.67	276.35
420.04	280.52
420.42	284.76
420.79	290.02
421.16	295.11
421.54	300.48
421.91	305.92
422.28	311.62
422.66	317.68
423.03	323.68
423.40	329.77
423.77	336.36
424.15	343.01
424.52	350.13
424.89	357.86
425.26	365.34
425.64	372.52
426.01	380.50
426.38	388.78
426.75	397.16
427.13	405.78
427.50	414.99
427.87	424.54
428.24	434.10
428.61	443.29
428.99	453.44
429.36	464.40
429.73	475.22
430.10	486.08
430.47	497.20
430.85	508.75
431.22	521.04
431.59	533.84
431.96	546.25
432.33	560.05
432.70	573.25
433.08	589.05
433.45	604.01
433.82	618.76
434.19	635.23
434.56	651.50
434.93	667.29
435.30	682.97
435.68	700.48
436.05	718.09
436.42	735.47
436.79	751.40
437.16	768.89
437.53	787.15
437.90	805.23
438.27	823.06
438.64	841.79
439.01	859.17
439.38	875.16
439.75	890.63
440.13	908.12
440.50	924.68
440.87	938.44
441.24	952.67
441.61	968.50
441.98	980.44
442.35	994.43
442.72	1008.33
443.09	1021.65
443.46	1030.30
443.83	1036.46
444.20	1042.21
444.57	1049.90
444.94	1054.07
445.31	1058.44
445.68	1062.71
446.05	1065.35
446.42	1065.09
446.79	1064.52
447.16	1063.56
447.53	1063.20
447.90	1057.92
448.27	1052.61
448.64	1044.45
449.01	1038.90
449.37	1027.99
449.74	1017.80
450.11	1004.92
450.48	991.05
450.85	977.07
451.22	965.03
451.59	953.37
451.96	942.19
452.33	926.93
452.70	913.10
453.07	896.76
453.43	880.00
453.80	863.73
454.17	848.04
454.54	833.40
454.91	817.46
455.28	801.83
455.65	787.45
456.02	772.84
456.38	760.64
456.75	745.23
457.12	732.61
457.49	719.76
457.86	707.56
458.23	696.83
458.59	685.20
458.96	673.34
459.33	662.89
459.70	652.37
460.07	644.15
460.43	634.63
460.80	625.52
461.17	617.58
461.54	609.59
461.91	601.86
462.27	593.84
462.64	587.24
463.01	579.85
463.38	572.50
463.74	565.40
464.11	559.07
464.48	553.64
464.85	547.57
465.21	543.05
465.58	538.02
465.95	532.13
466.32	527.14
466.68	522.31
467.05	517.41
467.42	512.46
467.78	507.30
468.15	502.45
468.52	498.87
468.88	494.23
469.25	489.96
469.62	486.36
469.98	482.56
470.35	478.87
470.72	475.59
471.08	471.97
471.45	468.87
471.82	465.78
472.18	462.32
472.55	459.82
472.92	456.77
473.28	454.29
473.65	451.85
474.02	449.49
474.38	447.45
474.75	445.93
475.11	444.05
475.48	442.60
475.85	441.49
476.21	440.15
476.58	439.06
476.94	438.29
477.31	437.46
477.67	436.66
478.04	436.10
478.41	435.65
478.77	435.58
479.14	435.21
479.50	435.18
479.87	435.38
480.23	435.63
480.60	435.77
480.96	435.77
481.33	436.60
481.69	437.18
482.06	437.70
482.42	437.99
482.79	438.81
483.15	439.73
483.52	440.92
483.88	441.96
484.25	443.16
484.61	444.44
484.98	445.80
485.34	447.60
485.71	449.47
486.07	451.34
486.44	453.17
486.80	455.44
487.17	457.74
487.53	460.41
487.90	463.13
488.26	466.25
488.62	469.50
488.99	472.38
489.35	475.57
489.72	479.09
490.08	482.90
490.44	486.61
490.81	490.62
491.17	494.46
491.54	498.90
491.90	503.20
492.26	507.69
492.63	512.42
492.99	517.16
493.36	522.28
493.72	527.70
494.08	533.24
494.45	538.92
494.81	544.88
495.17	550.85
495.54	557.07
495.90	563.19
496.26	569.63
496.63	576.44
496.99	583.43
497.35	590.60
497.72	597.82
498.08	605.32
498.44	612.99
498.80	621.14
499.17	629.23
499.53	637.58
499.89	646.04
500.26	654.47
500.62	662.98
500.98	671.78
501.34	680.64
501.71	689.68
502.07	698.60
502.43	707.67
502.79	716.82
503.16	726.01
503.52	735.46
503.88	744.96
504.24	754.57
504.60	764.09
504.97	773.80
505.33	783.52
505.69	793.78
506.05	803.72
506.41	813.42
506.78	823.06
507.14	832.71
507.50	842.58
507.86	852.50
508.22	862.58
508.59	872.24
508.95	881.95
509.31	891.91
509.67	901.86
510.03	911.62
510.39	921.62
510.75	931.67
511.12	941.75
511.48	951.41
511.84	961.09
512.20	970.61
512.56	980.30
512.92	990.09
513.28	999.35
513.64	1008.74
514.00	1018.06
514.37	1027.23
514.73	1036.88
515.09	1046.11
515.45	1055.13
515.81	1063.89
516.17	1072.81
516.53	1081.54
516.89	1089.84
517.25	1098.11
517.61	1106.28
517.97	1114.01
518.33	1121.46
518.69	1128.81
519.05	1136.66
519.41	1143.86
519.77	1151.72
520.13	1158.96
520.49	1165.65
520.85	1172.83
521.21	1179.86
521.57	1186.88
521.93	1193.30
522.29	1199.84
522.65	1206.31
523.01	1212.70
523.37	1218.57
523.73	1224.61
524.09	1230.60
524.45	1236.27
524.81	1242.05
525.17	1248.29
525.53	1254.16
525.89	1259.90
526.25	1265.43
526.61	1270.14
526.97	1275.44
527.33	1280.36
527.68	1285.46
528.04	1290.52
528.40	1294.64
528.76	1298.80
529.12	1303.16
529.48	1308.37
529.84	1312.50
530.20	1316.71
530.56	1320.82
530.91	1325.84
531.27	1330.35
531.63	1334.31
531.99	1338.61
532.35	1342.52
532.71	1345.94
533.07	1350.05
533.42	1353.80
533.78	1357.59
534.14	1361.61
534.50	1364.77
534.86	1368.13
535.21	1370.88
535.57	1374.45
535.93	1377.74
536.29	1380.75
536.65	1383.74
537.00	1386.09
537.36	1388.54
537.72	1390.89
538.08	1393.37
538.44	1395.41
538.79	1397.37
539.15	1399.72
539.51	1402.21
539.87	1404.80
540.22	1407.07
540.58	1409.67
540.94	1412.13
541.29	1413.96
541.65	1415.30
542.01	1417.37
542.37	1419.04
542.72	1420.74
543.08	1421.86
543.44	1423.81
543.79	1425.13
544.15	1426.51
544.51	1428.38
544.87	1430.27
545.22	1431.80
545.58	1433.05
545.94	1433.76
546.29	1434.27
546.65	1434.91
547.01	1435.12
547.36	1435.27
547.72	1435.64
548.07	1435.31
548.43	1434.99
548.79	1434.57
549.14	1434.85
549.50	1434.78
549.86	1434.65
550.21	1434.85
550.57	1435.14
550.92	1434.47
551.28	1434.50
551.64	1433.97
551.99	1433.57
552.35	1433.00
552.70	1432.37
553.06	1432.06
553.41	1431.82
553.77	1431.98
554.13	1431.69
554.48	1431.80
554.84	1432.11
555.19	1431.85
555.55	1431.41
555.90	1430.81
556.26	1430.53
556.61	1429.99
556.97	1429.34
557.32	1428.89
557.68	1427.90
558.03	1426.88
558.39	1425.90
558.74	1424.90
559.10	1424.22
559.45	1423.26
559.81	1422.45
560.16	1421.37
560.52	1420.39
560.87	1419.62
561.23	1418.07
561.58	1417.25
561.94	1415.53
562.29	1413.51
562.64	1412.37
563.00	1410.95
563.35	1410.17
563.71	1409.91
564.06	1408.91
564.42	1408.42
564.77	1407.69
565.12	1407.17
565.48	1406.50
565.83	1405.85
566.19	1405.63
566.54	1404.51
566.89	1403.19
567.25	1402.49
567.60	1401.76
567.96	1400.90
568.31	1400.40
568.66	1399.64
569.02	1398.26
569.37	1396.76
569.72	1395.88
570.08	1394.07
570.43	1392.81
570.78	1391.17
571.14	1388.75
571.49	1386.84
571.84	1384.67
572.20	1382.10
572.55	1379.96
572.90	1377.25
573.26	1374.65
573.61	1371.79
573.96	1369.26
574.31	1366.34
574.67	1362.66
575.02	1359.21
575.37	1355.87
575.72	1351.62
576.08	1348.37
576.43	1344.70
576.78	1341.62
577.13	1338.29
577.49	1335.33
577.84	1331.77
578.19	1328.41
578.54	1325.88
578.90	1323.18
579.25	1319.85
579.60	1316.35
579.95	1312.25
580.30	1309.03
580.66	1305.90
581.01	1301.93
581.36	1298.16
581.71	1294.43
582.06	1291.19
582.42	1287.80
582.77	1283.60
583.12	1280.02
583.47	1276.20
583.82	1272.66
584.17	1268.65
584.53	1264.87
584.88	1260.83
585.23	1256.92
585.58	1252.85
585.93	1248.53
586.28	1244.29
586.63	1240.51
586.98	1236.75
587.34	1233.42
587.69	1229.30
588.04	1225.05
588.39	1221.23
588.74	1217.08
589.09	1213.33
589.44	1208.84
589.79	1204.90
590.14	1201.33
590.49	1197.59
590.84	1193.30
591.19	1189.68
591.54	1185.85
591.89	1181.23
592.25	1177.21
592.60	1172.77
592.95	1168.42
593.30	1163.38
593.65	1158.65
594.00	1153.80
594.35	1150.40
594.70	1145.66
595.05	1141.34
595.40	1136.94
595.75	1132.00
596.10	1127.85
596.45	1123.76
596.80	1119.91
597.15	1115.69
597.50	1111.15
597.85	1106.69
598.19	1102.67
598.54	1098.21
598.89	1093.97
599.24	1090.50
599.59	1086.21
599.94	1082.18
600.29	1077.95
600.64	1073.93
600.99	1069.62
601.34	1065.57
601.69	1060.20
602.04	1055.80
602.39	1051.21
602.74	1047.13
603.08	1043.68
603.43	1039.89
603.78	1035.36
604.13	1031.03
604.48	1026.99
604.83	1023.43
605.18	1019.53
605.53	1015.23
605.87	1010.83
606.22	1006.63
606.57	1001.64
606.92	996.97
607.27	992.76
607.62	988.69
607.96	984.75
608.31	980.91
608.66	976.40
609.01	972.00
609.36	967.70
609.70	963.41
610.05	958.59
610.40	953.96
610.75	949.22
611.10	945.26
611.44	940.34
611.79	935.23
612.14	930.15
612.49	925.00
612.83	920.49
613.18	915.63
613.53	910.94
613.88	906.37
614.22	901.88
614.57	897.00
614.92	892.13
615.27	887.27
615.61	882.51
615.96	878.05
616.31	873.70
616.65	869.51
617.00	865.19
617.35	860.88
617.70	856.26
618.04	851.51
618.39	846.20
618.74	841.87
619.08	837.39
619.43	833.03
619.78	828.98
620.12	824.75
620.47	820.55
620.82	815.98
621.16	811.46
621.51	807.15
621.85	802.88
622.20	798.65
622.55	794.34
622.89	789.78
623.24	785.54
623.59	780.92
623.93	776.50
624.28	772.44
624.62	768.77
624.97	764.70
625.32	760.50
625.66	756.55
626.01	752.52
626.35	748.84
626.70	744.78
627.04	740.75
627.39	736.68
627.73	732.70
628.08	729.34
628.43	725.45
628.77	721.60
629.12	717.65
629.46	713.70
629.81	709.80
630.15	706.13
630.50	702.25
630.84	698.57
631.19	694.80
631.53	691.01
631.88	686.62
632.22	682.91
632.57	679.59
632.91	676.19
633.26	672.61
633.60	668.90
633.95	665.30
634.29	661.52
634.64	658.08
634.98	654.49
635.32	650.82
635.67	647.62
636.01	644.26
636.36	640.92
636.70	637.91
637.05	634.69
637.39	631.50
637.73	628.52
638.08	625.75
638.42	622.77
638.77	619.71
639.11	616.88
639.45	613.80
639.80	610.44
640.14	607.22
640.49	604.03
640.83	600.96
641.17	598.03
641.52	595.05
641.86	591.73
642.20	588.96
642.55	585.57
642.89	582.39
643.23	579.27
643.58	576.45
643.92	573.42
644.26	570.52
644.61	567.54
644.95	564.38
645.29	561.25
645.64	558.19
645.98	555.22
646.32	552.28
646.66	549.17
647.01	546.39
647.35	543.59
647.69	540.74
648.04	537.89
648.38	534.98
648.72	532.25
649.06	529.47
649.41	526.56
649.75	523.89
650.09	521.36
650.43	518.60
650.78	515.72
651.12	512.67
651.46	509.86
651.80	507.21
652.14	504.63
652.49	502.02
652.83	499.34
653.17	496.36
653.51	493.71
653.85	491.27
654.20	488.70
654.54	486.14
654.88	483.55
655.22	480.95
655.56	478.26
655.90	475.63
656.25	473.06
656.59	470.44
656.93	468.07
657.27	465.63
657.61	463.09
657.95	460.67
658.29	458.36
658.64	456.10
658.98	453.64
659.32	451.12
659.66	448.64
660.00	446.21
660.34	443.80
660.68	441.34
661.02	438.90
661.36	436.44
661.70	434.13
662.05	431.83
662.39	429.83
662.73	427.89
663.07	425.90
663.41	423.89
663.75	421.86
664.09	419.65
664.43	417.43
664.77	415.51
665.11	413.54
665.45	411.64
665.79	409.77
666.13	407.83
666.47	405.84
666.81	404.03
667.15	402.17
667.49	400.61
667.83	398.97
668.17	397.22
668.51	395.70
668.85	394.02
669.19	392.57
669.53	390.56
669.87	388.74
670.21	387.00
670.55	385.24
670.89	383.79
671.23	382.28
671.57	380.72
671.91	379.17
672.25	377.49
672.58	375.97
672.92	374.29
673.26	372.88
673.60	371.39
673.94	369.69
674.28	368.23
674.62	366.77
674.96	365.18
675.30	363.77
675.64	362.31
675.97	360.85
676.31	359.34
676.65	358.17
676.99	356.87
677.33	355.52
677.67	354.16
678.01	352.63
678.34	351.29
678.68	349.96
679.02	348.44
679.36	347.14
679.70	345.70
680.04	344.37
680.37	342.92
680.71	341.56
681.05	340.45
681.39	339.19
681.73	337.88
682.06	336.78
682.40	335.64
682.74	334.39
683.08	333.38
683.42	332.05
683.75	330.80
684.09	329.49
684.43	328.28
684.77	326.97
685.10	325.69
685.44	324.44
685.78	323.13
686.12	322.10
686.45	321.02
686.79	319.84
687.13	318.74
687.46	317.64
687.80	316.77
688.14	315.67
688.48	314.63
688.81	313.56
689.15	312.45
689.49	311.38
689.82	310.35
690.16	309.05
690.50	307.98
690.83	306.84
691.17	305.78
691.51	304.66
691.84	303.79
692.18	302.88
692.52	302.02
692.85	301.19
693.19	300.36
693.52	299.35
693.86	298.52
694.20	297.62
694.53	296.75
694.87	295.74
695.21	294.76
695.54	293.77
695.88	292.78
696.21	291.78
696.55	290.81
696.88	289.84
697.22	289.02
697.56	288.32
697.89	287.53
698.23	286.65
698.56	285.87
698.90	285.11
699.23	284.26
699.57	283.35
699.90	282.50
700.24	281.48
700.58	280.74
700.91	279.97
701.25	279.43
701.58	278.74
701.92	277.95
702.25	277.20
702.59	276.41
702.92	275.75
703.26	275.09
703.59	274.38
703.93	274.00
704.26	273.26
704.60	272.45
704.93	271.70
705.26	271.05
705.60	270.46
705.93	269.71
706.27	269.15
706.60	268.62
706.94	268.24
707.27	267.57
707.61	266.94
707.94	266.25
708.27	265.36
708.61	264.65
708.94	264.08
709.28	263.52
709.61	263.05
709.94	262.43
710.28	261.90
710.61	261.35
710.95	260.46
711.28	260.17
711.61	259.76
711.95	259.36
712.28	258.92
712.61	258.41
712.95	258.12
713.28	257.73
713.61	257.11
713.95	256.42
714.28	256.09
714.61	255.55
714.95	255.15
715.28	254.66
715.61	254.17
715.95	253.72
716.28	253.21
716.61	252.82
716.95	252.41
717.28	251.91
717.61	251.56
717.94	251.20
718.28	250.51
718.61	250.01
718.94	249.57
719.27	249.12
719.61	248.75
719.94	248.21
720.27	247.65
720.60	247.31
720.94	246.98
721.27	246.52
721.60	246.27
721.93	245.81
722.27	245.56
722.60	245.32
722.93	244.91
723.26	244.67
723.59	244.24
723.93	243.93
724.26	243.65
724.59	243.16
724.92	242.87
725.25	242.66
725.59	242.39
725.92	242.09
726.25	241.80
726.58	241.49
726.91	241.16
727.24	240.98
727.57	240.62
727.91	240.25
728.24	240.05
728.57	239.75
728.90	239.54
729.23	239.19
729.56	239.08
729.89	238.82
730.22	238.53
730.55	238.21
730.89	238.04
731.22	237.67
731.55	237.44
731.88	237.14
732.21	236.83
732.54	236.56
732.87	236.40
733.20	236.13
733.53	235.81
733.86	235.60
734.19	235.21
734.52	235.07
734.85	235.09
735.18	234.83
735.51	234.70
735.84	234.44
736.17	234.28
736.50	233.80
736.83	234.02
737.16	233.78
737.49	233.62
737.82	233.20
738.15	233.10
738.48	232.99
738.81	232.72
739.14	232.52
739.47	232.29
739.80	231.95
740.13	231.74
740.46	231.50
740.79	231.23
741.12	231.06
741.45	230.74
741.78	230.36
742.11	230.27
742.44	229.91
742.77	229.84
743.10	229.58
743.43	229.35
743.75	228.78
744.08	229.02
744.41	228.83
744.74	228.69
745.07	228.52
745.40	228.35
745.73	228.34
746.06	228.22
746.39	228.05
746.71	227.83
747.04	227.70
747.37	227.54
747.70	227.48
748.03	227.33
748.36	227.25
748.68	227.09
749.01	226.75
749.34	226.68
749.67	226.49
750.00	226.39
750.33	226.61
750.65	226.47
750.98	225.90
751.31	225.73
751.64	225.60
751.97	225.56
752.29	225.40
752.62	225.14
752.95	224.90
753.28	224.73
753.60	224.64
753.93	224.59
754.26	224.46
754.59	224.16
754.91	224.03
755.24	223.99
755.57	223.84
755.90	223.80
756.22	223.62
756.55	223.41
756.88	223.24
757.20	222.85
757.53	222.65
757.86	222.50
758.19	222.39
758.51	222.28
758.84	221.96
759.17	221.90
759.49	221.83
759.82	221.87
760.15	221.82
760.47	221.73
760.80	221.49
761.13	221.49
761.45	221.40
761.78	221.30
762.11	221.11
762.43	221.00
762.76	220.85
763.08	220.79
763.41	220.76
763.74	220.57
764.06	220.46
764.39	220.35
764.71	220.29
765.04	220.16
765.37	220.08
765.69	220.02
766.02	219.78
766.34	219.67
766.67	219.48
767.00	219.46
767.32	219.47
767.65	219.52
767.97	219.30
768.30	219.22
768.62	219.15
768.95	219.06
769.27	218.99
769.60	218.92
769.92	218.77
770.25	218.56
770.57	218.45
770.90	218.42
771.22	218.30
771.55	218.24
771.87	218.22
772.20	218.18
772.52	218.43
772.85	218.84
773.17	218.76
773.50	218.66
773.82	218.49
774.15	218.28
774.47	218.09
774.80	218.01
775.12	217.96
775.45	217.87
775.77	217.82
776.09	217.74
776.42	217.66
776.74	217.70
777.07	217.69
777.39	217.73
777.72	217.60
778.04	217.62
778.36	217.51
778.69	217.45
779.01	217.38
779.33	216.98
779.66	216.45
779.98	216.38
780.31	216.31
780.63	216.45
780.95	216.45
781.28	216.37
781.60	216.33
781.92	216.34
782.25	216.23
782.57	216.22
782.89	216.08
783.22	216.06
783.54	215.96
783.86	215.92
784.19	215.87
784.51	215.95
784.83	215.85
785.16	215.80
785.48	215.70
785.80	215.68
786.12	215.69
786.45	215.72
786.77	215.66
787.09	215.61
787.42	215.36
787.74	215.40
788.06	215.33
788.38	215.31
788.71	215.15
789.03	215.20
789.35	215.13
789.67	215.12
789.99	215.14
790.32	215.06
790.64	215.10
790.96	215.40
791.28	215.25
791.61	215.25
791.93	215.21
792.25	215.24
792.57	215.42
792.89	215.31
793.21	215.31
793.54	215.26
793.86	215.24
794.18	215.31
794.50	215.16
794.82	215.18
795.14	215.25
795.47	215.37
795.79	215.36
796.11	215.28
796.43	215.31
796.75	215.19
797.07	215.19
797.39	215.11
797.71	214.78
798.04	214.78
798.36	214.77
798.68	214.75
799.00	214.73
799.32	214.52
799.64	214.58
799.96	214.52
800.28	214.53
800.60	214.49
800.92	214.50
801.24	214.51
801.56	214.55
801.89	214.40
802.21	214.39
802.53	214.26
802.85	214.35
803.17	214.50
803.49	214.50
803.81	214.50
804.13	214.48
804.45	214.46
804.77	214.49
805.09	214.46
805.41	214.45
805.73	214.39
806.05	214.29
806.37	214.28
806.69	214.24
807.01	214.17
807.33	214.16
807.65	214.04
807.97	214.17
808.28	214.09
808.60	214.06
808.92	213.95
809.24	214.15
809.56	214.03
809.88	213.91
810.20	213.90
810.52	213.99
810.84	213.89
811.16	213.89
811.48	213.80
811.80	213.90
812.12	213.89
812.43	213.91
812.75	213.89
813.07	213.86
813.39	213.84
813.71	213.80
814.03	213.79
814.35	213.75
814.67	213.61
814.98	213.54
815.30	213.47
815.62	213.35
815.94	213.13
816.26	213.21
816.58	213.10
816.89	213.07
817.21	212.90
817.53	212.98
817.85	212.93
818.17	212.93
818.48	212.83
818.80	212.86
819.12	212.83
819.44	212.78
819.76	212.73
820.07	212.74
820.39	212.69
820.71	212.70
821.03	212.70
821.34	212.72
821.66	212.79
821.98	212.81
822.30	212.85
822.61	213.01
822.93	212.92
823.25	212.91
823.57	212.92
823.88	213.01
824.20	212.98
824.52	212.95
824.83	212.92
825.15	212.86
825.47	212.82
825.79	212.83
826.10	212.79
826.42	212.75
826.74	212.85
827.05	212.84
827.37	212.87
827.69	212.83
828.00	212.74
828.32	212.72
828.64	212.78
828.95	212.98
829.27	212.83
829.58	212.81
829.90	212.83
830.22	212.78
830.53	212.63
830.85	212.59
831.17	212.50
831.48	212.50
831.80	212.43
832.11	212.38
832.43	212.29
832.75	212.38
833.06	212.55
833.38	212.42
833.69	212.45
834.01	212.39
834.32	212.39
834.64	212.39
834.96	212.34
835.27	212.28
835.59	212.13
835.90	212.10
836.22	212.16
836.53	212.08
836.85	212.07
837.16	212.40
837.48	212.39
837.79	212.49
838.11	212.49
838.42	212.59
838.74	212.64
839.05	212.64
839.37	212.59
839.68	212.41
840.00	212.30
840.31	212.36
840.63	212.36
840.94	212.34
841.26	212.34
841.57	212.44
841.88	212.45
842.20	212.38
842.51	212.40
842.83	212.34
843.14	212.72
843.46	212.77
843.77	212.63
844.08	212.64
844.40	212.56
844.71	212.55
845.03	212.47
845.34	212.45
845.65	212.46
845.97	212.48
846.28	212.52
846.60	212.64
846.91	212.55
847.22	212.53
847.54	212.52
847.85	212.50
848.16	212.43
848.48	212.43
848.79	212.58
849.10	212.62
849.42	212.70
849.73	212.35
850.04	212.31
850.36	212.19
850.67	212.29
850.98	212.28
851.30	212.27
851.61	212.30
851.92	212.26
852.23	212.45
852.55	212.43
852.86	212.40
853.17	212.36
853.49	212.50
853.80	212.59
854.11	212.69
854.42	212.77
854.74	212.71
855.05	212.64
855.36	212.50
855.67	212.49
855.99	212.35
856.30	212.73
856.61	212.72
856.92	212.75
857.23	212.68
857.55	212.70
857.86	212.66
858.17	212.71
858.48	212.71
858.79	212.50
859.11	212.52
859.42	212.46
859.73	212.43
860.04	212.43
860.35	212.35
860.66	212.25
860.98	212.15
861.29	212.20
861.60	212.19
861.91	212.25
862.22	212.20
862.53	212.17
862.84	211.66
863.16	211.72
863.47	211.62
863.78	211.52
864.09	211.55
864.40	211.62
864.71	211.57
865.02	211.55
865.33	211.56
865.64	211.49
865.95	211.47
866.27	211.63
866.58	211.53
866.89	211.47
867.20	211.49
867.51	211.47
867.82	211.48
868.13	211.58
868.44	211.50
868.75	211.50
869.06	211.50
869.37	211.63
869.68	211.52
869.99	211.62
870.30	211.72
870.61	211.67
870.92	211.63
871.23	211.61
871.54	211.67
871.85	211.66
872.16	211.74
872.47	211.78
872.78	211.64
873.09	211.68
873.40	211.68
873.71	211.75
874.02	211.73
874.33	211.68
874.64	211.61
874.95	211.72
875.26	211.69
875.56	211.67
875.87	211.63
876.18	211.65
876.49	211.85
876.80	211.77
877.11	211.70
877.42	211.64
877.73	211.67
878.04	211.59
878.35	211.67
878.66	211.63
878.96	211.60
879.27	211.54
879.58	211.49
879.89	211.46
880.20	211.44
880.51	211.47
880.82	211.47
881.12	211.42
881.43	211.29
881.74	211.23
882.05	211.25
882.36	211.26
882.67	211.25
882.97	210.98
883.28	211.01
883.59	211.04
883.90	211.05
884.21	211.09
884.51	211.11
884.82	211.05
885.13	211.03
885.44	211.01
885.74	211.08
886.05	211.06
886.36	211.08
886.67	211.01
886.98	211.13
887.28	211.12
887.59	211.20
887.90	211.21
888.20	211.25
888.51	211.37
888.82	211.40
889.13	211.41
889.43	211.65
889.74	211.59
890.05	211.61
890.35	211.64
890.66	211.52
890.97	211.50
891.28	211.47
891.58	211.49
891.89	211.46
892.20	211.41
892.50	211.36
892.81	211.38
893.12	211.37
893.42	211.20
893.73	211.18
894.04	211.18
894.34	211.17
894.65	211.16
894.95	211.03
895.26	210.94
895.57	211.15
895.87	210.87
896.18	210.89
896.48	210.90
896.79	210.85
897.10	210.91
897.40	210.89
897.71	210.92
898.01	210.89
898.32	210.99
898.63	210.93
898.93	211.00
899.24	211.00
899.54	211.02
899.85	211.10
900.15	211.17
900.46	211.15
900.76	211.24
901.07	211.20
901.38	211.25
901.68	211.31
901.99	211.18
902.29	211.20
902.60	211.25
902.90	211.27
903.21	211.30
903.51	211.30
903.82	211.35
904.12	211.35
904.43	211.40
904.73	211.31
905.03	211.46
905.34	211.73
905.64	211.73
905.95	211.68
906.25	211.61
906.56	211.51
906.86	211.49
907.17	211.43
907.47	211.46
907.77	211.44
908.08	211.41
908.38	211.38
908.69	211.35
908.99	211.32
909.30	211.27
909.60	211.23
909.90	211.27
910.21	211.22
910.51	211.23
910.81	211.20
911.12	211.28
911.42	211.20
911.73	210.85
912.03	210.83
912.33	210.85
912.64	210.87
912.94	210.87
913.24	210.90
913.55	210.87
913.85	210.88
914.15	211.02
914.46	211.03
914.76	210.96
915.06	210.96
915.37	210.94
915.67	210.99
915.97	211.05
916.27	211.02
916.58	211.02
916.88	210.90
917.18	210.85
917.49	211.07
917.79	211.08
918.09	211.18
918.39	211.24
918.70	211.26
919.00	211.21
919.30	211.40
919.60	211.36
919.91	211.34
920.21	211.33
920.51	211.20
920.81	211.18
921.12	211.22
921.42	211.20
921.72	211.23
922.02	211.16
922.32	211.20
922.63	211.21
922.93	211.36
923.23	211.42
923.53	211.41
923.83	211.15
924.13	211.20
924.44	211.17
924.74	211.27
925.04	211.33
925.34	211.37
925.64	211.23
925.94	211.23
926.24	211.44
926.55	211.44
926.85	211.43
927.15	211.44
927.45	211.50
927.75	211.52
928.05	211.54
928.35	211.57
928.65	211.70
928.95	211.69
929.26	211.59
929.56	211.70
929.86	211.81
930.16	211.87
930.46	211.76
930.76	211.81
931.06	211.60
931.36	211.55
931.66	211.55
931.96	211.55
932.26	211.57
932.56	211.40
932.86	211.39
933.16	211.46
933.46	211.46
933.76	211.40
934.06	211.50
934.36	211.64
934.66	211.63
934.96	211.52
935.26	211.54
935.56	211.56
935.86	211.46
936.16	211.40
936.46	211.42
936.76	211.53
937.06	211.48
937.36	211.55
937.66	211.53
937.96	211.57
938.26	211.52
938.56	211.49
938.86	211.56
939.16	211.68
939.46	211.66
939.76	211.61
940.06	211.58
940.35	211.50
940.65	211.28
940.95	211.27
941.25	211.18
941.55	211.13
941.85	211.06
942.15	211.12
942.45	211.18
942.75	211.15
943.04	211.11
943.34	211.17
943.64	211.18
943.94	211.14
944.24	211.17
944.54	211.15
944.84	211.16
945.13	211.02
945.43	210.95
945.73	210.95
946.03	211.06
946.33	210.99
946.62	210.93
946.92	211.01
947.22	211.09
947.52	211.13
947.82	211.16
948.11	211.15
948.41	211.08
948.71	211.00
949.01	210.98
949.31	210.95
949.60	210.89
949.90	210.90
950.20	210.85
950.50	210.82
950.79	210.82
951.09	210.89
951.39	210.96
951.69	210.88
951.98	211.00
952.28	210.99
952.58	211.03
952.87	211.01
953.17	211.01
953.47	210.95
953.76	210.95
954.06	210.96
954.36	210.90
954.66	210.87
954.95	210.94
955.25	210.96
955.55	211.03
955.84	211.04
956.14	211.06
956.44	211.12
956.73	211.12
957.03	211.20
957.32	211.17
957.62	211.17
957.92	211.23
958.21	211.10
958.51	211.45
958.81	211.54
959.10	211.60
959.40	211.69
959.69	211.69
959.99	211.67
960.29	211.55
960.58	211.60
960.88	211.71
961.17	211.71
961.47	211.71
961.76	211.65
962.06	211.71
962.36	211.69
962.65	211.70
962.95	211.69
963.24	211.63
963.54	211.68
963.83	211.65
964.13	211.68
964.42	211.57
964.72	211.29
965.01	211.20
965.31	211.18
965.60	211.07
965.90	211.26
966.19	211.19
966.49	211.36
966.78	211.37
967.08	211.42
967.37	211.42
967.67	211.40
967.96	211.50
968.26	211.48
968.55	211.53
968.85	211.55
969.14	211.53
969.43	211.46
969.73	211.39
970.02	211.45
970.32	211.46
970.61	211.56
970.91	211.39
971.20	211.39
971.49	211.40
971.79	211.45
972.08	211.23
972.38	211.32
972.67	211.24
972.96	211.32
973.26	211.20
973.55	211.30
973.85	211.27
974.14	211.15
974.43	211.21
974.73	211.11
975.02	211.07
975.31	211.08
975.61	211.16
975.90	211.19
976.19	211.16
976.49	211.18
976.78	211.19
977.07	211.28
977.37	211.30
977.66	211.38
977.95	211.28
978.24	211.28
978.54	211.35
978.83	211.35
979.12	211.25
979.42	211.25
979.71	211.15
980.00	211.10
980.29	211.15
980.59	210.99
980.88	211.09
981.17	211.12
981.46	211.17
981.76	211.16
982.05	211.17
982.34	211.21
982.63	211.17
982.93	211.10
983.22	211.19
983.51	211.21
983.80	211.23
984.09	211.37
984.39	211.39
984.68	211.33
984.97	211.34
985.26	211.35
985.55	211.34
985.85	211.24
986.14	211.32
986.43	211.35
986.72	211.39
987.01	211.30
987.30	211.21
987.59	211.22
987.89	211.22
988.18	211.18
988.47	211.01
988.76	210.96
989.05	210.95
989.34	210.91
989.63	210.99
989.92	210.81
990.22	210.65
990.51	210.61
990.80	210.60
991.09	210.63
991.38	210.67
991.67	210.65
991.96	210.69
992.25	210.69
992.54	210.62
992.83	210.63
993.12	210.68
993.41	210.75
993.70	210.77
993.99	210.77
994.28	210.75
994.58	210.84
994.87	210.80
995.16	210.84
995.45	210.78
995.74	210.65
996.03	210.71
996.32	210.87
996.61	210.93
996.90	210.91
997.19	210.86
997.48	210.83
997.77	210.80
998.06	210.75
998.34	210.73
998.63	210.74
998.92	210.70
999.21	210.69
999.50	210.69
999.79	210.62
1000.08	210.66
1000.37	210.71
1000.66	210.78
1000.95	210.93
1001.24	210.92
1001.53	210.99
1001.82	211.00
1002.11	210.98
1002.40	211.01
1002.68	211.13
1002.97	211.38
1003.26	211.34
1003.55	211.31
1003.84	211.34
1004.13	211.50
1004.42	211.51
1004.71	211.46
1004.99	211.47
1005.28	211.55
1005.57	211.56
1005.86	211.43
1006.15	211.40
1006.44	211.36
1006.72	211.35
1007.01	211.24
1007.30	211.23
1007.59	211.18
1007.88	211.16
1008.17	211.17
1008.45	211.06
1008.74	210.90
1009.03	210.80
1009.32	210.79
1009.60	210.77
1009.89	210.76
1010.18	210.70
1010.47	210.63
1010.76	210.65
1011.04	210.64
1011.33	210.63
1011.62	210.62
1011.91	210.78
1012.19	210.81
1012.48	210.84
1012.77	210.82
1013.05	210.98
1013.34	211.03
1013.63	211.01
1013.92	211.05
1014.20	211.01
1014.49	211.08
1014.78	211.05
1015.06	210.94
1015.35	210.96
1015.64	211.11
1015.92	211.10
1016.21	211.06
1016.50	211.06
1016.78	211.10
1017.07	211.10
1017.36	211.05
1017.64	211.07
1017.93	211.07
1018.22	211.03
1018.50	210.98
1018.79	210.97
1019.08	210.83
1019.36	210.85
1019.65	210.82
1019.93	210.90
1020.22	211.03
1020.51	211.14
1020.79	211.18
1021.08	210.60
1021.36	209.95
1021.65	211.05
1021.94	210.90
1022.22	211.80
1022.51	209.80
1022.79	212.45
1023.08	212.40
1023.36	214.70
1023.65	210.45
>>>>>End Processed Spectral Data<<<<<
