SpectraSuite Data File
++++++++++++++++++++++++++++++++++++
Date: Mon Feb 25 17:16:37 EST 2013
User: group
Dark Spectrum Present: No
Reference Spectrum Present: No
Number of Sampled Component Spectra: 1
Spectrometers: USB2E7196
Integration Time (usec): 104000 (USB2E7196)
Spectra Averaged: 20 (USB2E7196)
Boxcar Smoothing: 10 (USB2E7196)
Correct for Electrical Dark: No (USB2E7196)
Strobe/Lamp Enabled: No (USB2E7196)
Correct for Detector Non-linearity: No (USB2E7196)
Correct for Stray Light: No (USB2E7196)
Number of Pixels in Processed Spectrum: 2048
>>>>>Begin Processed Spectral Data<<<<<
339.09	0.00
339.48	198.15
339.86	200.90
340.24	201.75
340.63	201.55
341.01	209.70
341.39	205.95
341.78	208.35
342.16	208.40
342.54	209.65
342.93	198.44
343.31	208.44
343.69	208.99
344.07	209.41
344.46	209.84
344.84	210.26
345.22	210.34
345.60	210.61
345.99	210.77
346.37	210.95
346.75	211.01
347.13	211.05
347.52	211.14
347.90	211.29
348.28	211.28
348.66	211.38
349.05	211.28
349.43	211.42
349.81	211.48
350.19	211.54
350.57	211.62
350.96	211.70
351.34	211.82
351.72	211.99
352.10	212.12
352.48	212.19
352.87	212.32
353.25	212.37
353.63	212.36
354.01	212.41
354.39	212.51
354.77	212.63
355.15	212.81
355.54	212.90
355.92	212.86
356.30	213.00
356.68	213.20
357.06	213.37
357.44	213.36
357.82	213.46
358.20	213.51
358.58	213.57
358.97	213.59
359.35	213.72
359.73	213.83
360.11	213.86
360.49	213.97
360.87	214.03
361.25	214.16
361.63	214.38
362.01	214.45
362.39	214.38
362.77	214.44
363.15	214.43
363.53	214.46
363.91	214.48
364.29	214.55
364.67	214.33
365.05	214.27
365.43	214.30
365.81	214.31
366.19	214.47
366.57	214.59
366.95	214.63
367.33	214.53
367.71	214.46
368.09	214.53
368.47	214.45
368.85	214.39
369.23	214.43
369.61	214.30
369.99	214.39
370.37	214.42
370.75	214.54
371.13	214.49
371.51	214.43
371.89	214.53
372.27	214.47
372.65	214.45
373.03	214.47
373.41	214.44
373.78	214.45
374.16	214.24
374.54	214.09
374.92	213.99
375.30	213.98
375.68	213.86
376.06	213.84
376.44	213.74
376.82	213.71
377.19	213.59
377.57	213.54
377.95	213.35
378.33	213.33
378.71	213.09
379.09	213.06
379.47	213.15
379.84	212.96
380.22	212.89
380.60	212.75
380.98	212.68
381.36	212.64
381.73	212.41
382.11	212.47
382.49	212.45
382.87	212.39
383.25	212.32
383.62	212.72
384.00	212.63
384.38	212.65
384.76	212.71
385.13	212.81
385.51	212.79
385.89	212.78
386.27	212.69
386.64	212.78
387.02	212.75
387.40	212.64
387.78	212.70
388.15	212.66
388.53	212.70
388.91	212.62
389.29	212.54
389.66	212.69
390.04	212.67
390.42	212.71
390.79	212.77
391.17	212.76
391.55	212.36
391.92	212.38
392.30	212.43
392.68	212.33
393.05	212.33
393.43	212.31
393.81	212.27
394.18	212.20
394.56	212.17
394.94	212.22
395.31	212.13
395.69	212.26
396.06	212.28
396.44	212.28
396.82	212.34
397.19	212.56
397.57	212.48
397.95	212.47
398.32	212.30
398.70	212.27
399.07	212.34
399.45	212.32
399.82	212.36
400.20	212.35
400.58	212.46
400.95	212.32
401.33	212.47
401.70	212.80
402.08	212.89
402.45	212.88
402.83	213.00
403.20	213.14
403.58	213.13
403.95	213.29
404.33	213.45
404.71	213.52
405.08	213.76
405.46	213.89
405.83	214.04
406.21	214.26
406.58	214.46
406.96	214.69
407.33	214.93
407.70	215.04
408.08	215.45
408.45	215.64
408.83	215.99
409.20	216.11
409.58	216.19
409.95	216.57
410.33	216.93
410.70	217.14
411.08	217.46
411.45	217.78
411.82	218.09
412.20	218.51
412.57	219.15
412.95	219.33
413.32	219.96
413.69	220.45
414.07	221.00
414.44	221.56
414.82	222.12
415.19	222.94
415.56	223.74
415.94	224.44
416.31	225.29
416.68	226.11
417.06	227.20
417.43	228.14
417.81	229.12
418.18	230.31
418.55	231.48
418.93	232.79
419.30	234.14
419.67	235.60
420.04	237.04
420.42	238.44
420.79	240.40
421.16	242.05
421.54	244.00
421.91	245.91
422.28	247.81
422.66	249.87
423.03	252.03
423.40	254.13
423.77	256.22
424.15	258.48
424.52	260.85
424.89	263.29
425.26	265.78
425.64	268.21
426.01	270.67
426.38	273.39
426.75	276.10
427.13	278.97
427.50	281.90
427.87	285.02
428.24	288.05
428.61	290.74
428.99	294.17
429.36	297.47
429.73	300.84
430.10	304.36
430.47	308.01
430.85	311.42
431.22	315.26
431.59	319.65
431.96	323.56
432.33	327.81
432.70	332.05
433.08	336.87
433.45	341.43
433.82	346.05
434.19	351.08
434.56	356.07
434.93	360.77
435.30	365.57
435.68	370.74
436.05	375.91
436.42	381.11
436.79	385.71
437.16	390.81
437.53	396.11
437.90	401.41
438.27	406.48
438.64	411.82
439.01	416.89
439.38	421.07
439.75	425.32
440.13	430.15
440.50	434.82
440.87	438.54
441.24	442.54
441.61	446.85
441.98	449.92
442.35	453.49
442.72	457.08
443.09	460.77
443.46	462.79
443.83	464.18
444.20	465.41
444.57	467.09
444.94	467.88
445.31	468.81
445.68	469.82
446.05	470.15
446.42	469.50
446.79	468.81
447.16	468.07
447.53	467.57
447.90	465.48
448.27	463.21
448.64	460.38
449.01	458.23
449.37	454.64
449.74	451.26
450.11	447.40
450.48	443.06
450.85	438.31
451.22	434.37
451.59	430.69
451.96	427.06
452.33	422.36
452.70	418.12
453.07	412.86
453.43	407.31
453.80	402.26
454.17	397.58
454.54	392.93
454.91	388.09
455.28	383.22
455.65	378.90
456.02	375.01
456.38	371.37
456.75	366.79
457.12	362.85
457.49	359.08
457.86	355.18
458.23	352.10
458.59	348.66
458.96	345.26
459.33	342.12
459.70	339.05
460.07	336.50
460.43	333.55
460.80	331.05
461.17	328.81
461.54	326.40
461.91	323.96
462.27	321.57
462.64	319.62
463.01	317.42
463.38	315.43
463.74	312.87
464.11	310.93
464.48	309.31
464.85	307.53
465.21	306.25
465.58	304.86
465.95	302.99
466.32	301.49
466.68	300.07
467.05	298.74
467.42	297.36
467.78	295.95
468.15	294.66
468.52	293.64
468.88	292.36
469.25	291.20
469.62	290.50
469.98	289.60
470.35	288.66
470.72	287.92
471.08	286.89
471.45	286.18
471.82	285.47
472.18	284.61
472.55	284.12
472.92	283.34
473.28	282.75
473.65	282.21
474.02	281.70
474.38	281.32
474.75	280.98
475.11	280.62
475.48	280.43
475.85	280.35
476.21	280.10
476.58	280.07
476.94	280.07
477.31	279.95
477.67	280.01
478.04	280.05
478.41	280.14
478.77	280.65
479.14	280.74
479.50	281.06
479.87	281.39
480.23	281.76
480.60	282.07
480.96	282.42
481.33	283.10
481.69	283.69
482.06	284.28
482.42	284.83
482.79	285.60
483.15	286.43
483.52	287.31
483.88	288.32
484.25	289.16
484.61	290.13
484.98	291.25
485.34	292.54
485.71	293.83
486.07	295.22
486.44	296.37
486.80	298.01
487.17	299.59
487.53	301.43
487.90	303.35
488.26	305.58
488.62	307.80
488.99	309.96
489.35	312.21
489.72	314.65
490.08	317.24
490.44	319.84
490.81	322.62
491.17	325.47
491.54	328.58
491.90	331.87
492.26	335.33
492.63	338.90
492.99	342.46
493.36	346.40
493.72	350.49
494.08	354.78
494.45	359.42
494.81	364.27
495.17	369.10
495.54	374.28
495.90	379.54
496.26	385.14
496.63	390.88
496.99	397.00
497.35	403.32
497.72	409.94
498.08	416.80
498.44	423.86
498.80	431.40
499.17	439.16
499.53	447.13
499.89	455.48
500.26	463.98
500.62	472.83
500.98	482.03
501.34	491.52
501.71	501.33
502.07	511.30
502.43	521.45
502.79	531.99
503.16	543.05
503.52	554.38
503.88	565.98
504.24	578.00
504.60	590.31
504.97	603.20
505.33	616.08
505.69	629.82
506.05	643.65
506.41	657.48
506.78	671.74
507.14	686.31
507.50	701.35
507.86	716.84
508.22	732.56
508.59	748.51
508.95	765.02
509.31	781.70
509.67	798.69
510.03	816.23
510.39	834.25
510.75	852.37
511.12	870.73
511.48	889.43
511.84	908.22
512.20	927.44
512.56	946.94
512.92	966.98
513.28	986.73
513.64	1006.91
514.00	1027.18
514.37	1047.59
514.73	1068.49
515.09	1089.57
515.45	1110.51
515.81	1131.92
516.17	1153.55
516.53	1175.10
516.89	1196.76
517.25	1218.48
517.61	1240.46
517.97	1262.10
518.33	1283.82
518.69	1305.63
519.05	1328.04
519.41	1350.76
519.77	1373.19
520.13	1395.22
520.49	1417.15
520.85	1439.54
521.21	1462.10
521.57	1484.83
521.93	1506.90
522.29	1529.77
522.65	1552.27
523.01	1574.78
523.37	1596.38
523.73	1618.57
524.09	1640.44
524.45	1662.65
524.81	1685.02
525.17	1707.34
525.53	1729.38
525.89	1751.08
526.25	1772.83
526.61	1793.52
526.97	1814.49
527.33	1835.62
527.68	1856.90
528.04	1877.36
528.40	1897.15
528.76	1917.26
529.12	1937.77
529.48	1959.00
529.84	1978.74
530.20	1998.39
530.56	2017.85
530.91	2038.61
531.27	2058.42
531.63	2078.13
531.99	2097.42
532.35	2115.96
532.71	2133.94
533.07	2152.89
533.42	2171.11
533.78	2189.53
534.14	2207.62
534.50	2224.14
534.86	2241.45
535.21	2257.47
535.57	2274.83
535.93	2291.22
536.29	2306.96
536.65	2322.65
537.00	2337.06
537.36	2351.61
537.72	2365.65
538.08	2379.95
538.44	2393.77
538.79	2407.11
539.15	2420.23
539.51	2433.25
539.87	2447.21
540.22	2460.23
540.58	2473.02
540.94	2485.35
541.29	2496.18
541.65	2506.80
542.01	2518.22
542.37	2528.35
542.72	2539.51
543.08	2549.05
543.44	2560.19
543.79	2569.48
544.15	2578.18
544.51	2587.70
544.87	2597.01
545.22	2605.13
545.58	2612.38
545.94	2618.54
546.29	2624.93
546.65	2630.78
547.01	2636.84
547.36	2641.66
547.72	2647.07
548.07	2651.00
548.43	2655.11
548.79	2659.45
549.14	2663.43
549.50	2667.31
549.86	2670.04
550.21	2672.36
550.57	2675.80
550.92	2676.69
551.28	2678.72
551.64	2680.85
551.99	2682.84
552.35	2683.65
552.70	2685.21
553.06	2687.00
553.41	2688.47
553.77	2689.42
554.13	2690.35
554.48	2690.61
554.84	2691.31
555.19	2690.42
555.55	2689.87
555.90	2688.95
556.26	2687.82
556.61	2686.75
556.97	2684.58
557.32	2683.86
557.68	2681.70
558.03	2678.90
558.39	2677.24
558.74	2675.93
559.10	2673.93
559.45	2671.20
559.81	2669.32
560.16	2666.44
560.52	2663.86
560.87	2661.00
561.23	2657.46
561.58	2654.72
561.94	2651.07
562.29	2646.23
562.64	2642.98
563.00	2639.83
563.35	2636.68
563.71	2634.03
564.06	2630.54
564.42	2627.99
564.77	2624.81
565.12	2622.16
565.48	2618.73
565.83	2615.34
566.19	2612.10
566.54	2607.43
566.89	2602.72
567.25	2598.30
567.60	2594.27
567.96	2589.51
568.31	2585.01
568.66	2580.24
569.02	2574.61
569.37	2568.79
569.72	2564.16
570.08	2558.74
570.43	2552.68
570.78	2546.68
571.14	2539.93
571.49	2533.76
571.84	2527.83
572.20	2520.25
572.55	2513.87
572.90	2506.85
573.26	2499.34
573.61	2491.22
573.96	2483.98
574.31	2475.99
574.67	2467.73
575.02	2459.10
575.37	2450.63
575.72	2441.76
576.08	2434.18
576.43	2425.72
576.78	2418.22
577.13	2410.50
577.49	2402.42
577.84	2394.49
578.19	2386.90
578.54	2380.12
578.90	2373.03
579.25	2364.29
579.60	2356.14
579.95	2347.03
580.30	2339.14
580.66	2331.67
581.01	2323.41
581.36	2314.74
581.71	2306.29
582.06	2297.92
582.42	2290.00
582.77	2281.55
583.12	2273.17
583.47	2265.38
583.82	2257.95
584.17	2249.85
584.53	2241.61
584.88	2233.52
585.23	2225.36
585.58	2216.60
585.93	2207.38
586.28	2199.06
586.63	2190.93
586.98	2183.06
587.34	2175.57
587.69	2167.30
588.04	2158.70
588.39	2150.75
588.74	2142.51
589.09	2135.31
589.44	2127.28
589.79	2119.74
590.14	2112.64
590.49	2105.03
590.84	2096.46
591.19	2089.10
591.54	2081.00
591.89	2071.86
592.25	2063.44
592.60	2054.74
592.95	2046.36
593.30	2037.29
593.65	2028.24
594.00	2019.86
594.35	2013.18
594.70	2004.67
595.05	1997.00
595.40	1989.00
595.75	1980.13
596.10	1972.64
596.45	1964.85
596.80	1957.50
597.15	1949.81
597.50	1941.35
597.85	1934.10
598.19	1926.30
598.54	1918.11
598.89	1910.87
599.24	1904.45
599.59	1897.43
599.94	1890.90
600.29	1884.23
600.64	1877.45
600.99	1869.60
601.34	1862.67
601.69	1853.98
602.04	1846.48
602.39	1839.00
602.74	1831.84
603.08	1825.94
603.43	1819.25
603.78	1812.15
604.13	1804.82
604.48	1797.68
604.83	1791.88
605.18	1785.51
605.53	1778.51
605.87	1771.28
606.22	1764.31
606.57	1757.05
606.92	1749.57
607.27	1741.74
607.62	1734.21
607.96	1727.47
608.31	1721.39
608.66	1713.60
609.01	1706.05
609.36	1698.71
609.70	1690.74
610.05	1682.82
610.40	1674.54
610.75	1666.51
611.10	1658.91
611.44	1650.07
611.79	1641.74
612.14	1632.35
612.49	1623.03
612.83	1614.84
613.18	1605.97
613.53	1597.16
613.88	1588.01
614.22	1579.94
614.57	1571.72
614.92	1563.29
615.27	1554.67
615.61	1545.95
615.96	1537.98
616.31	1530.15
616.65	1522.50
617.00	1514.73
617.35	1506.94
617.70	1498.58
618.04	1489.69
618.39	1480.42
618.74	1472.70
619.08	1464.12
619.43	1456.24
619.78	1448.46
620.12	1440.42
620.47	1432.97
620.82	1424.54
621.16	1416.22
621.51	1407.72
621.85	1399.78
622.20	1391.22
622.55	1382.98
622.89	1374.71
623.24	1366.48
623.59	1357.84
623.93	1349.47
624.28	1341.52
624.62	1333.71
624.97	1325.93
625.32	1318.78
625.66	1311.67
626.01	1304.33
626.35	1297.09
626.70	1289.47
627.04	1282.16
627.39	1274.83
627.73	1267.08
628.08	1260.05
628.43	1252.70
628.77	1245.17
629.12	1237.53
629.46	1231.22
629.81	1224.12
630.15	1216.99
630.50	1209.84
630.84	1202.76
631.19	1195.66
631.53	1188.47
631.88	1180.86
632.22	1173.52
632.57	1166.48
632.91	1159.15
633.26	1151.84
633.60	1144.99
633.95	1138.33
634.29	1131.10
634.64	1124.49
634.98	1117.54
635.32	1110.90
635.67	1104.78
636.01	1098.48
636.36	1091.70
636.70	1084.81
637.05	1078.32
637.39	1071.82
637.73	1065.60
638.08	1059.98
638.42	1054.06
638.77	1048.01
639.11	1041.90
639.45	1035.79
639.80	1029.35
640.14	1023.10
640.49	1016.85
640.83	1010.38
641.17	1004.03
641.52	997.57
641.86	990.71
642.20	984.58
642.55	977.84
642.89	971.33
643.23	964.80
643.58	959.02
643.92	952.40
644.26	945.95
644.61	939.85
644.95	933.40
645.29	926.80
645.64	920.15
645.98	913.69
646.32	907.64
646.66	901.30
647.01	895.08
647.35	889.18
647.69	882.85
648.04	876.93
648.38	870.67
648.72	864.76
649.06	858.90
649.41	852.92
649.75	847.23
650.09	841.38
650.43	835.53
650.78	829.27
651.12	823.32
651.46	817.44
651.80	811.74
652.14	806.08
652.49	800.30
652.83	794.49
653.17	788.35
653.51	782.53
653.85	777.02
654.20	771.42
654.54	765.66
654.88	760.32
655.22	754.66
655.56	748.95
655.90	743.44
656.25	737.85
656.59	732.37
656.93	727.01
657.27	721.73
657.61	716.21
657.95	711.09
658.29	705.98
658.64	701.11
658.98	695.76
659.32	690.27
659.66	685.10
660.00	679.94
660.34	675.00
660.68	669.70
661.02	664.61
661.36	659.78
661.70	654.93
662.05	650.24
662.39	645.81
662.73	641.52
663.07	637.37
663.41	633.02
663.75	628.56
664.09	624.08
664.43	619.45
664.77	615.33
665.11	610.87
665.45	606.68
665.79	602.33
666.13	598.08
666.47	594.16
666.81	590.16
667.15	586.16
667.49	582.56
667.83	579.00
668.17	575.21
668.51	571.50
668.85	567.94
669.19	564.36
669.53	560.48
669.87	556.66
670.21	552.76
670.55	549.10
670.89	545.82
671.23	542.44
671.57	539.12
671.91	535.61
672.25	532.13
672.58	528.79
672.92	525.44
673.26	522.40
673.60	519.31
673.94	516.04
674.28	512.90
674.62	509.77
674.96	506.58
675.30	503.50
675.64	500.27
675.97	497.10
676.31	494.17
676.65	491.22
676.99	488.57
677.33	485.59
677.67	482.63
678.01	479.45
678.34	476.51
678.68	473.66
679.02	470.82
679.36	468.14
679.70	465.46
680.04	462.76
680.37	459.88
680.71	457.07
681.05	454.59
681.39	451.97
681.73	449.27
682.06	446.73
682.40	444.22
682.74	441.72
683.08	439.37
683.42	436.62
683.75	434.22
684.09	431.53
684.43	429.05
684.77	426.51
685.10	424.10
685.44	421.58
685.78	419.26
686.12	416.98
686.45	414.74
686.79	412.29
687.13	410.17
687.46	408.05
687.80	406.00
688.14	403.49
688.48	401.32
688.81	399.01
689.15	396.82
689.49	394.60
689.82	392.36
690.16	389.84
690.50	387.64
690.83	385.41
691.17	383.27
691.51	381.28
691.84	379.30
692.18	377.39
692.52	375.64
692.85	373.71
693.19	371.89
693.52	369.93
693.86	368.08
694.20	366.11
694.53	364.24
694.87	362.27
695.21	360.59
695.54	358.65
695.88	356.80
696.21	355.00
696.55	353.25
696.88	351.58
697.22	349.97
697.56	348.42
697.89	346.75
698.23	345.10
698.56	343.37
698.90	341.85
699.23	340.17
699.57	338.45
699.90	336.89
700.24	335.28
700.58	333.82
700.91	332.41
701.25	331.07
701.58	329.62
701.92	328.21
702.25	326.80
702.59	325.49
702.92	324.25
703.26	322.85
703.59	321.55
703.93	320.53
704.26	319.22
704.60	317.89
704.93	316.60
705.26	315.35
705.60	314.17
705.93	312.89
706.27	311.73
706.60	310.69
706.94	309.66
707.27	308.44
707.61	307.26
707.94	306.05
708.27	304.58
708.61	303.37
708.94	302.21
709.28	301.07
709.61	300.01
709.94	298.92
710.28	297.95
710.61	296.99
710.95	295.71
711.28	295.01
711.61	293.98
711.95	293.15
712.28	292.18
712.61	291.22
712.95	290.41
713.28	289.65
713.61	288.64
713.95	287.62
714.28	286.81
714.61	285.86
714.95	284.99
715.28	284.17
715.61	283.30
715.95	282.44
716.28	281.56
716.61	280.80
716.95	279.92
717.28	279.15
717.61	278.36
717.94	277.62
718.28	276.66
718.61	275.96
718.94	275.08
719.27	274.30
719.61	273.61
719.94	272.86
720.27	271.95
720.60	271.21
720.94	270.50
721.27	269.84
721.60	269.31
721.93	268.55
722.27	268.08
722.60	267.46
722.93	266.85
723.26	266.31
723.59	265.59
723.93	265.06
724.26	264.45
724.59	263.77
724.92	263.19
725.25	262.68
725.59	262.13
725.92	261.63
726.25	261.09
726.58	260.55
726.91	260.02
727.24	259.55
727.57	258.99
727.91	258.46
728.24	257.95
728.57	257.38
728.90	257.05
729.23	256.47
729.56	256.11
729.89	255.64
730.22	255.04
730.55	254.55
730.89	254.01
731.22	253.46
731.55	252.99
731.88	252.45
732.21	251.92
732.54	251.35
732.87	250.90
733.20	250.50
733.53	250.05
733.86	249.63
734.19	249.19
734.52	248.87
734.85	248.74
735.18	248.31
735.51	248.02
735.84	247.59
736.17	247.25
736.50	246.70
736.83	246.73
737.16	246.45
737.49	246.17
737.82	245.75
738.15	245.45
738.48	245.15
738.81	244.83
739.14	244.31
739.47	244.08
739.80	243.71
740.13	243.31
740.46	242.88
740.79	242.43
741.12	242.15
741.45	241.72
741.78	241.10
742.11	240.73
742.44	240.24
742.77	239.91
743.10	239.43
743.43	239.11
743.75	238.41
744.08	238.49
744.41	238.07
744.74	237.87
745.07	237.45
745.40	237.18
745.73	237.01
746.06	236.83
746.39	236.51
746.71	236.16
747.04	235.86
747.37	235.63
747.70	235.53
748.03	235.18
748.36	234.96
748.68	234.71
749.01	234.44
749.34	234.23
749.67	233.97
750.00	233.91
750.33	233.86
750.65	233.58
750.98	232.91
751.31	232.70
751.64	232.41
751.97	232.42
752.29	232.16
752.62	231.76
752.95	231.49
753.28	231.19
753.60	231.03
753.93	230.95
754.26	230.70
754.59	230.34
754.91	230.06
755.24	229.80
755.57	229.60
755.90	229.39
756.22	229.19
756.55	229.00
756.88	228.74
757.20	228.30
757.53	228.00
757.86	227.75
758.19	227.58
758.51	227.38
758.84	226.96
759.17	226.71
759.49	226.54
759.82	226.50
760.15	226.39
760.47	226.09
760.80	225.77
761.13	225.62
761.45	225.48
761.78	225.39
762.11	225.23
762.43	224.99
762.76	224.84
763.08	224.67
763.41	224.48
763.74	224.28
764.06	224.16
764.39	224.09
764.71	223.99
765.04	223.77
765.37	223.51
765.69	223.33
766.02	223.24
766.34	223.03
766.67	222.81
767.00	222.71
767.32	222.85
767.65	222.94
767.97	222.82
768.30	222.62
768.62	222.51
768.95	222.37
769.27	222.24
769.60	222.14
769.92	222.02
770.25	221.82
770.57	221.62
770.90	221.54
771.22	221.31
771.55	221.22
771.87	221.17
772.20	221.09
772.52	221.26
772.85	221.57
773.17	221.56
773.50	221.50
773.82	221.35
774.15	221.02
774.47	220.70
774.80	220.49
775.12	220.49
775.45	220.33
775.77	220.19
776.09	220.12
776.42	220.07
776.74	220.03
777.07	220.00
777.39	219.99
777.72	219.88
778.04	219.90
778.36	219.71
778.69	219.64
779.01	219.61
779.33	219.35
779.66	218.86
779.98	218.75
780.31	218.62
780.63	218.64
780.95	218.68
781.28	218.55
781.60	218.51
781.92	218.33
782.25	218.24
782.57	218.25
782.89	218.14
783.22	218.00
783.54	217.86
783.86	217.77
784.19	217.68
784.51	217.66
784.83	217.61
785.16	217.62
785.48	217.61
785.80	217.55
786.12	217.45
786.45	217.40
786.77	217.33
787.09	217.27
787.42	217.13
787.74	217.10
788.06	217.13
788.38	217.09
788.71	217.05
789.03	217.00
789.35	216.93
789.67	216.84
789.99	216.80
790.32	216.75
790.64	216.79
790.96	217.00
791.28	216.83
791.61	216.74
791.93	216.70
792.25	216.66
792.57	216.82
792.89	216.75
793.21	216.76
793.54	216.76
793.86	216.72
794.18	216.70
794.50	216.55
794.82	216.53
795.14	216.47
795.47	216.49
795.79	216.49
796.11	216.41
796.43	216.43
796.75	216.40
797.07	216.35
797.39	216.24
797.71	215.92
798.04	215.88
798.36	215.93
798.68	215.86
799.00	215.79
799.32	215.63
799.64	215.68
799.96	215.62
800.28	215.60
800.60	215.48
800.92	215.46
801.24	215.45
801.56	215.47
801.89	215.48
802.21	215.50
802.53	215.41
802.85	215.47
803.17	215.65
803.49	215.52
803.81	215.46
804.13	215.42
804.45	215.44
804.77	215.48
805.09	215.39
805.41	215.40
805.73	215.33
806.05	215.21
806.37	215.11
806.69	215.06
807.01	215.01
807.33	215.04
807.65	214.86
807.97	214.97
808.28	214.86
808.60	214.85
808.92	214.68
809.24	214.94
809.56	214.80
809.88	214.67
810.20	214.73
810.52	214.75
810.84	214.71
811.16	214.59
811.48	214.55
811.80	214.63
812.12	214.51
812.43	214.53
812.75	214.48
813.07	214.40
813.39	214.40
813.71	214.31
814.03	214.29
814.35	214.31
814.67	214.14
814.98	214.02
815.30	214.03
815.62	214.02
815.94	213.70
816.26	213.78
816.58	213.65
816.89	213.61
817.21	213.48
817.53	213.48
817.85	213.50
818.17	213.55
818.48	213.45
818.80	213.50
819.12	213.36
819.44	213.34
819.76	213.37
820.07	213.35
820.39	213.28
820.71	213.30
821.03	213.25
821.34	213.21
821.66	213.30
821.98	213.28
822.30	213.24
822.61	213.41
822.93	213.34
823.25	213.30
823.57	213.29
823.88	213.41
824.20	213.44
824.52	213.57
824.83	213.48
825.15	213.44
825.47	213.35
825.79	213.41
826.10	213.40
826.42	213.32
826.74	213.29
827.05	213.30
827.37	213.26
827.69	213.22
828.00	213.22
828.32	213.09
828.64	212.98
828.95	213.16
829.27	213.12
829.58	213.13
829.90	213.16
830.22	213.15
830.53	213.07
830.85	212.96
831.17	212.80
831.48	212.76
831.80	212.71
832.11	212.78
832.43	212.72
832.75	212.73
833.06	212.99
833.38	212.88
833.69	212.86
834.01	212.83
834.32	212.89
834.64	212.85
834.96	212.96
835.27	213.01
835.59	212.88
835.90	212.77
836.22	212.73
836.53	212.67
836.85	212.61
837.16	212.92
837.48	212.86
837.79	213.05
838.11	213.12
838.42	213.08
838.74	213.04
839.05	212.99
839.37	212.92
839.68	212.68
840.00	212.81
840.31	212.86
840.63	212.86
840.94	212.84
841.26	212.76
841.57	212.67
841.88	212.73
842.20	212.78
842.51	212.74
842.83	212.72
843.14	213.00
843.46	213.01
843.77	212.87
844.08	212.90
844.40	212.66
844.71	212.56
845.03	212.63
845.34	212.62
845.65	212.64
845.97	212.65
846.28	212.63
846.60	212.48
846.91	212.44
847.22	212.43
847.54	212.45
847.85	212.54
848.16	212.57
848.48	212.46
848.79	212.51
849.10	212.50
849.42	212.54
849.73	212.25
850.04	212.29
850.36	212.13
850.67	212.16
850.98	212.25
851.30	212.28
851.61	212.21
851.92	212.26
852.23	212.36
852.55	212.37
852.86	212.37
853.17	212.44
853.49	212.52
853.80	212.56
854.11	212.57
854.42	212.66
854.74	212.63
855.05	212.61
855.36	212.47
855.67	212.47
855.99	212.45
856.30	212.85
856.61	212.83
856.92	212.82
857.23	212.84
857.55	212.78
857.86	212.72
858.17	212.77
858.48	212.65
858.79	212.54
859.11	212.57
859.42	212.55
859.73	212.50
860.04	212.47
860.35	212.44
860.66	212.34
860.98	212.28
861.29	212.30
861.60	212.32
861.91	212.36
862.22	212.30
862.53	212.29
862.84	211.80
863.16	211.83
863.47	211.81
863.78	211.82
864.09	211.84
864.40	211.89
864.71	211.88
865.02	211.92
865.33	211.90
865.64	211.81
865.95	211.79
866.27	212.06
866.58	212.03
866.89	212.05
867.20	212.10
867.51	212.01
867.82	212.00
868.13	212.08
868.44	212.01
868.75	212.14
869.06	212.12
869.37	212.18
869.68	212.09
869.99	212.08
870.30	212.07
870.61	212.15
870.92	212.14
871.23	212.18
871.54	212.23
871.85	212.35
872.16	212.44
872.47	212.47
872.78	212.20
873.09	212.19
873.40	212.17
873.71	212.18
874.02	212.15
874.33	212.07
874.64	212.04
874.95	212.05
875.26	211.91
875.56	211.89
875.87	211.90
876.18	211.91
876.49	212.25
876.80	212.20
877.11	212.04
877.42	212.03
877.73	211.99
878.04	211.90
878.35	211.90
878.66	211.89
878.96	211.89
879.27	211.93
879.58	211.92
879.89	211.88
880.20	211.89
880.51	211.89
880.82	211.86
881.12	211.82
881.43	211.73
881.74	211.72
882.05	211.76
882.36	211.79
882.67	211.75
882.97	211.40
883.28	211.36
883.59	211.39
883.90	211.46
884.21	211.52
884.51	211.54
884.82	211.42
885.13	211.44
885.44	211.47
885.74	211.46
886.05	211.46
886.36	211.43
886.67	211.37
886.98	211.60
887.28	211.73
887.59	211.75
887.90	211.82
888.20	211.81
888.51	211.83
888.82	211.73
889.13	211.81
889.43	212.08
889.74	212.09
890.05	212.11
890.35	212.04
890.66	211.92
890.97	211.88
891.28	211.87
891.58	211.84
891.89	211.82
892.20	211.71
892.50	211.69
892.81	211.69
893.12	211.74
893.42	211.50
893.73	211.44
894.04	211.44
894.34	211.48
894.65	211.46
894.95	211.43
895.26	211.46
895.57	211.52
895.87	211.19
896.18	211.27
896.48	211.23
896.79	211.20
897.10	211.29
897.40	211.33
897.71	211.35
898.01	211.35
898.32	211.37
898.63	211.43
898.93	211.45
899.24	211.54
899.54	211.51
899.85	211.60
900.15	211.64
900.46	211.64
900.76	211.70
901.07	211.74
901.38	211.68
901.68	211.74
901.99	211.64
902.29	211.70
902.60	211.60
902.90	211.53
903.21	211.50
903.51	211.50
903.82	211.56
904.12	211.53
904.43	211.54
904.73	211.48
905.03	211.50
905.34	211.83
905.64	211.71
905.95	211.69
906.25	211.63
906.56	211.54
906.86	211.51
907.17	211.43
907.47	211.42
907.77	211.44
908.08	211.39
908.38	211.40
908.69	211.44
908.99	211.59
909.30	211.70
909.60	211.70
909.90	211.66
910.21	211.61
910.51	211.65
910.81	211.70
911.12	211.70
911.42	211.65
911.73	211.24
912.03	211.29
912.33	211.39
912.64	211.40
912.94	211.42
913.24	211.41
913.55	211.38
913.85	211.41
914.15	211.45
914.46	211.44
914.76	211.45
915.06	211.40
915.37	211.23
915.67	211.18
915.97	211.25
916.27	211.20
916.58	211.11
916.88	211.12
917.18	211.04
917.49	211.27
917.79	211.37
918.09	211.49
918.39	211.55
918.70	211.51
919.00	211.48
919.30	211.66
919.60	211.65
919.91	211.62
920.21	211.63
920.51	211.60
920.81	211.57
921.12	211.56
921.42	211.53
921.72	211.57
922.02	211.65
922.32	211.67
922.63	211.69
922.93	211.90
923.23	211.85
923.53	211.84
923.83	211.60
924.13	211.56
924.44	211.50
924.74	211.56
925.04	211.55
925.34	211.64
925.64	211.46
925.94	211.40
926.24	211.58
926.55	211.51
926.85	211.57
927.15	211.57
927.45	211.56
927.75	211.57
928.05	211.55
928.35	211.46
928.65	211.59
928.95	211.60
929.26	211.51
929.56	211.57
929.86	211.66
930.16	211.62
930.46	211.57
930.76	211.62
931.06	211.50
931.36	211.41
931.66	211.38
931.96	211.39
932.26	211.50
932.56	211.38
932.86	211.41
933.16	211.42
933.46	211.42
933.76	211.40
934.06	211.48
934.36	211.63
934.66	211.65
934.96	211.53
935.26	211.56
935.56	211.62
935.86	211.58
936.16	211.56
936.46	211.56
936.76	211.59
937.06	211.51
937.36	211.50
937.66	211.61
937.96	211.64
938.26	211.61
938.56	211.54
938.86	211.57
939.16	211.67
939.46	211.70
939.76	211.73
940.06	211.81
940.35	211.76
940.65	211.63
940.95	211.67
941.25	211.55
941.55	211.51
941.85	211.46
942.15	211.53
942.45	211.56
942.75	211.57
943.04	211.60
943.34	211.71
943.64	211.73
943.94	211.61
944.24	211.65
944.54	211.71
944.84	211.76
945.13	211.71
945.43	211.61
945.73	211.57
946.03	211.61
946.33	211.53
946.62	211.53
946.92	211.55
947.22	211.55
947.52	211.56
947.82	211.63
948.11	211.63
948.41	211.63
948.71	211.58
949.01	211.54
949.31	211.50
949.60	211.50
949.90	211.49
950.20	211.56
950.50	211.50
950.79	211.45
951.09	211.45
951.39	211.49
951.69	211.45
951.98	211.56
952.28	211.58
952.58	211.53
952.87	211.50
953.17	211.55
953.47	211.55
953.76	211.61
954.06	211.56
954.36	211.45
954.66	211.37
954.95	211.41
955.25	211.55
955.55	211.64
955.84	211.52
956.14	211.57
956.44	211.58
956.73	211.46
957.03	211.49
957.32	211.45
957.62	211.47
957.92	211.57
958.21	211.52
958.51	211.88
958.81	211.97
959.10	211.96
959.40	211.96
959.69	211.94
959.99	211.94
960.29	211.88
960.58	211.92
960.88	212.05
961.17	212.07
961.47	212.00
961.76	211.92
962.06	212.04
962.36	212.02
962.65	211.99
962.95	212.11
963.24	212.10
963.54	212.15
963.83	212.06
964.13	212.07
964.42	211.95
964.72	211.62
965.01	211.65
965.31	211.65
965.60	211.58
965.90	211.78
966.19	211.74
966.49	211.75
966.78	211.78
967.08	211.75
967.37	211.71
967.67	211.62
967.96	211.70
968.26	211.60
968.55	211.60
968.85	211.64
969.14	211.61
969.43	211.64
969.73	211.65
970.02	211.69
970.32	211.59
970.61	211.59
970.91	211.49
971.20	211.36
971.49	211.35
971.79	211.43
972.08	211.23
972.38	211.23
972.67	211.31
972.96	211.31
973.26	211.27
973.55	211.34
973.85	211.41
974.14	211.35
974.43	211.44
974.73	211.46
975.02	211.37
975.31	211.35
975.61	211.30
975.90	211.23
976.19	211.13
976.49	211.18
976.78	211.17
977.07	211.20
977.37	211.26
977.66	211.30
977.95	211.23
978.24	211.33
978.54	211.49
978.83	211.40
979.12	211.39
979.42	211.39
979.71	211.28
980.00	211.30
980.29	211.31
980.59	211.23
980.88	211.28
981.17	211.28
981.46	211.32
981.76	211.39
982.05	211.53
982.34	211.60
982.63	211.62
982.93	211.65
983.22	211.76
983.51	211.75
983.80	211.78
984.09	211.85
984.39	211.79
984.68	211.64
984.97	211.68
985.26	211.64
985.55	211.68
985.85	211.70
986.14	211.77
986.43	211.81
986.72	211.79
987.01	211.65
987.30	211.70
987.59	211.68
987.89	211.61
988.18	211.54
988.47	211.57
988.76	211.55
989.05	211.53
989.34	211.40
989.63	211.48
989.92	211.41
990.22	211.36
990.51	211.27
990.80	211.30
991.09	211.35
991.38	211.38
991.67	211.34
991.96	211.34
992.25	211.30
992.54	211.18
992.83	211.18
993.12	211.16
993.41	211.19
993.70	211.29
993.99	211.38
994.28	211.36
994.58	211.37
994.87	211.31
995.16	211.32
995.45	211.31
995.74	211.25
996.03	211.39
996.32	211.37
996.61	211.53
996.90	211.49
997.19	211.43
997.48	211.41
997.77	211.38
998.06	211.33
998.34	211.28
998.63	211.32
998.92	211.35
999.21	211.38
999.50	211.35
999.79	211.30
1000.08	211.19
1000.37	211.23
1000.66	211.16
1000.95	211.23
1001.24	211.26
1001.53	211.35
1001.82	211.32
1002.11	211.19
1002.40	211.15
1002.68	211.12
1002.97	211.34
1003.26	211.27
1003.55	211.24
1003.84	211.27
1004.13	211.35
1004.42	211.35
1004.71	211.31
1004.99	211.23
1005.28	211.34
1005.57	211.38
1005.86	211.27
1006.15	211.29
1006.44	211.16
1006.72	211.20
1007.01	211.20
1007.30	211.18
1007.59	211.10
1007.88	211.02
1008.17	211.00
1008.45	210.99
1008.74	210.91
1009.03	210.82
1009.32	210.89
1009.60	210.96
1009.89	210.95
1010.18	210.84
1010.47	210.80
1010.76	210.81
1011.04	210.90
1011.33	210.89
1011.62	210.86
1011.91	210.91
1012.19	210.93
1012.48	210.95
1012.77	210.94
1013.05	211.08
1013.34	211.05
1013.63	211.01
1013.92	211.15
1014.20	211.14
1014.49	211.15
1014.78	211.25
1015.06	211.05
1015.35	211.05
1015.64	211.00
1015.92	211.07
1016.21	211.03
1016.50	211.10
1016.78	211.15
1017.07	211.10
1017.36	211.12
1017.64	211.07
1017.93	211.03
1018.22	210.95
1018.50	210.96
1018.79	210.95
1019.08	210.76
1019.36	210.90
1019.65	210.87
1019.93	210.91
1020.22	210.96
1020.51	211.22
1020.79	211.13
1021.08	209.45
1021.36	210.60
1021.65	210.35
1021.94	210.85
1022.22	213.20
1022.51	209.55
1022.79	212.80
1023.08	210.85
1023.36	216.20
1023.65	210.35
>>>>>End Processed Spectral Data<<<<<
