SpectraSuite Data File
++++++++++++++++++++++++++++++++++++
Date: Mon Feb 25 17:19:30 EST 2013
User: group
Dark Spectrum Present: No
Reference Spectrum Present: No
Number of Sampled Component Spectra: 1
Spectrometers: USB2E7196
Integration Time (usec): 104000 (USB2E7196)
Spectra Averaged: 20 (USB2E7196)
Boxcar Smoothing: 10 (USB2E7196)
Correct for Electrical Dark: No (USB2E7196)
Strobe/Lamp Enabled: No (USB2E7196)
Correct for Detector Non-linearity: No (USB2E7196)
Correct for Stray Light: No (USB2E7196)
Number of Pixels in Processed Spectrum: 2048
>>>>>Begin Processed Spectral Data<<<<<
339.09	0.00
339.48	198.15
339.86	201.10
340.24	201.95
340.63	204.15
341.01	210.30
341.39	206.30
341.78	208.40
342.16	210.10
342.54	209.00
342.93	198.79
343.31	208.82
343.69	209.46
344.07	209.95
344.46	210.47
344.84	210.85
345.22	210.95
345.60	211.30
345.99	211.55
346.37	211.74
346.75	211.88
347.13	211.99
347.52	212.15
347.90	212.38
348.28	212.44
348.66	212.61
349.05	212.57
349.43	212.72
349.81	212.85
350.19	212.85
350.57	213.02
350.96	213.15
351.34	213.32
351.72	213.44
352.10	213.53
352.48	213.56
352.87	213.66
353.25	213.68
353.63	213.69
354.01	213.70
354.39	213.74
354.77	213.89
355.15	214.03
355.54	214.00
355.92	213.90
356.30	213.96
356.68	214.24
357.06	214.27
357.44	214.27
357.82	214.38
358.20	214.54
358.58	214.51
358.97	214.52
359.35	214.58
359.73	214.65
360.11	214.63
360.49	214.64
360.87	214.65
361.25	214.75
361.63	214.95
362.01	214.98
362.39	214.95
362.77	214.89
363.15	214.89
363.53	214.91
363.91	215.03
364.29	214.97
364.67	214.65
365.05	214.73
365.43	214.80
365.81	214.79
366.19	214.93
366.57	215.09
366.95	215.13
367.33	215.04
367.71	215.03
368.09	215.12
368.47	215.21
368.85	215.18
369.23	215.25
369.61	215.03
369.99	215.16
370.37	215.19
370.75	215.39
371.13	215.30
371.51	215.25
371.89	215.18
372.27	215.18
372.65	215.20
373.03	215.14
373.41	215.07
373.78	215.02
374.16	214.79
374.54	214.60
374.92	214.48
375.30	214.47
375.68	214.38
376.06	214.40
376.44	214.24
376.82	214.28
377.19	214.21
377.57	214.15
377.95	213.94
378.33	213.89
378.71	213.67
379.09	213.70
379.47	213.77
379.84	213.71
380.22	213.70
380.60	213.56
380.98	213.50
381.36	213.46
381.73	213.39
382.11	213.43
382.49	213.44
382.87	213.38
383.25	213.34
383.62	213.70
384.00	213.55
384.38	213.54
384.76	213.52
385.13	213.59
385.51	213.63
385.89	213.63
386.27	213.59
386.64	213.57
387.02	213.45
387.40	213.37
387.78	213.34
388.15	213.32
388.53	213.34
388.91	213.33
389.29	213.31
389.66	213.28
390.04	213.18
390.42	213.28
390.79	213.30
391.17	213.29
391.55	212.89
391.92	212.94
392.30	213.00
392.68	212.92
393.05	212.94
393.43	212.96
393.81	212.93
394.18	212.88
394.56	212.92
394.94	213.09
395.31	213.03
395.69	213.11
396.06	213.14
396.44	213.14
396.82	213.15
397.19	213.27
397.57	213.33
397.95	213.43
398.32	213.34
398.70	213.44
399.07	213.51
399.45	213.50
399.82	213.50
400.20	213.50
400.58	213.55
400.95	213.40
401.33	213.50
401.70	213.84
402.08	213.93
402.45	213.97
402.83	214.09
403.20	214.23
403.58	214.23
403.95	214.50
404.33	214.67
404.71	214.86
405.08	215.20
405.46	215.32
405.83	215.49
406.21	215.63
406.58	215.79
406.96	216.00
407.33	216.30
407.70	216.66
408.08	217.19
408.45	217.53
408.83	217.93
409.20	218.20
409.58	218.35
409.95	218.83
410.33	219.29
410.70	219.61
411.08	220.08
411.45	220.68
411.82	221.14
412.20	221.79
412.57	222.51
412.95	222.84
413.32	223.60
413.69	224.31
414.07	225.12
414.44	225.96
414.82	226.79
415.19	227.81
415.56	228.79
415.94	229.75
416.31	230.99
416.68	232.20
417.06	233.60
417.43	235.00
417.81	236.43
418.18	237.92
418.55	239.61
418.93	241.29
419.30	243.10
419.67	245.01
420.04	246.97
420.42	248.98
420.79	251.60
421.16	253.95
421.54	256.53
421.91	259.13
422.28	261.89
422.66	264.73
423.03	267.64
423.40	270.57
423.77	273.54
424.15	276.59
424.52	279.71
424.89	283.15
425.26	286.55
425.64	289.88
426.01	293.50
426.38	297.09
426.75	300.94
427.13	304.77
427.50	308.77
427.87	312.92
428.24	317.09
428.61	320.94
428.99	325.36
429.36	330.01
429.73	334.68
430.10	339.31
430.47	344.19
430.85	349.10
431.22	354.25
431.59	360.00
431.96	365.39
432.33	371.37
432.70	377.15
433.08	383.84
433.45	390.03
433.82	396.26
434.19	403.30
434.56	410.19
434.93	416.69
435.30	423.32
435.68	430.60
436.05	437.72
436.42	444.88
436.79	451.34
437.16	458.44
437.53	465.89
437.90	473.22
438.27	480.34
438.64	487.70
439.01	494.56
439.38	500.52
439.75	506.40
440.13	513.23
440.50	519.61
440.87	524.79
441.24	530.17
441.61	536.05
441.98	540.38
442.35	545.27
442.72	550.35
443.09	555.20
443.46	558.07
443.83	560.03
444.20	561.58
444.57	564.05
444.94	565.14
445.31	566.19
445.68	567.36
446.05	567.74
446.42	566.92
446.79	565.94
447.16	564.89
447.53	564.11
447.90	561.09
448.27	558.12
448.64	554.06
449.01	551.21
449.37	546.18
449.74	541.51
450.11	536.12
450.48	530.09
450.85	523.75
451.22	518.33
451.59	513.11
451.96	508.35
452.33	501.78
452.70	495.78
453.07	488.75
453.43	481.32
453.80	474.36
454.17	467.79
454.54	461.65
454.91	455.00
455.28	448.46
455.65	442.54
456.02	436.83
456.38	431.82
456.75	425.47
457.12	420.27
457.49	414.96
457.86	409.63
458.23	405.30
458.59	400.49
458.96	395.68
459.33	391.55
459.70	387.19
460.07	383.87
460.43	379.90
460.80	376.31
461.17	373.24
461.54	370.04
461.91	366.91
462.27	363.74
462.64	361.01
463.01	358.02
463.38	355.09
463.74	351.83
464.11	349.26
464.48	347.11
464.85	344.71
465.21	342.89
465.58	341.05
465.95	338.57
466.32	336.76
466.68	334.88
467.05	332.88
467.42	330.91
467.78	328.92
468.15	327.23
468.52	325.96
468.88	324.17
469.25	322.53
469.62	321.38
469.98	320.02
470.35	318.82
470.72	317.75
471.08	316.50
471.45	315.61
471.82	314.66
472.18	313.46
472.55	312.73
472.92	311.76
473.28	310.88
473.65	310.23
474.02	309.46
474.38	309.08
474.75	308.79
475.11	308.41
475.48	308.18
475.85	307.94
476.21	307.68
476.58	307.53
476.94	307.65
477.31	307.53
477.67	307.63
478.04	307.75
478.41	308.00
478.77	308.59
479.14	308.85
479.50	309.29
479.87	309.91
480.23	310.55
480.60	311.10
480.96	311.82
481.33	312.78
481.69	313.76
482.06	314.57
482.42	315.49
482.79	316.62
483.15	317.80
483.52	319.13
483.88	320.45
484.25	322.01
484.61	323.53
484.98	325.09
485.34	326.83
485.71	328.75
486.07	330.87
486.44	332.74
486.80	335.02
487.17	337.36
487.53	340.08
487.90	342.80
488.26	345.94
488.62	349.15
488.99	352.20
489.35	355.45
489.72	359.02
490.08	362.78
490.44	366.70
490.81	370.94
491.17	375.17
491.54	379.89
491.90	384.73
492.26	389.81
492.63	395.08
492.99	400.68
493.36	406.56
493.72	412.66
494.08	419.14
494.45	425.82
494.81	432.83
495.17	439.94
495.54	447.62
495.90	455.33
496.26	463.40
496.63	471.94
496.99	480.90
497.35	490.24
497.72	500.07
498.08	510.27
498.44	520.70
498.80	531.92
499.17	543.23
499.53	554.87
499.89	567.26
500.26	579.86
500.62	592.73
500.98	606.18
501.34	620.10
501.71	634.54
502.07	649.43
502.43	665.13
502.79	680.69
503.16	696.83
503.52	713.77
503.88	731.07
504.24	748.97
504.60	767.16
504.97	786.09
505.33	805.24
505.69	825.49
506.05	846.01
506.41	866.86
506.78	888.00
507.14	909.69
507.50	931.69
507.86	954.44
508.22	977.80
508.59	1001.38
508.95	1025.50
509.31	1050.11
509.67	1075.30
510.03	1100.42
510.39	1127.25
510.75	1153.93
511.12	1180.89
511.48	1208.30
511.84	1236.11
512.20	1264.23
512.56	1292.88
512.92	1321.85
513.28	1350.82
513.64	1379.90
514.00	1409.45
514.37	1439.26
514.73	1469.71
515.09	1499.88
515.45	1530.17
515.81	1561.10
516.17	1592.32
516.53	1623.30
516.89	1654.53
517.25	1685.63
517.61	1717.15
517.97	1748.15
518.33	1779.45
518.69	1810.77
519.05	1842.38
519.41	1874.23
519.77	1906.36
520.13	1937.59
520.49	1968.94
520.85	2000.41
521.21	2032.55
521.57	2064.53
521.93	2095.43
522.29	2127.47
522.65	2159.84
523.01	2191.79
523.37	2222.24
523.73	2253.61
524.09	2284.59
524.45	2315.76
524.81	2346.75
525.17	2378.00
525.53	2408.92
525.89	2439.51
526.25	2470.15
526.61	2499.49
526.97	2528.81
527.33	2558.05
527.68	2587.70
528.04	2616.05
528.40	2643.77
528.76	2671.32
529.12	2699.29
529.48	2728.78
529.84	2756.22
530.20	2783.12
530.56	2810.22
530.91	2838.69
531.27	2865.72
531.63	2892.55
531.99	2918.99
532.35	2944.39
532.71	2969.34
533.07	2994.77
533.42	3019.05
533.78	3043.33
534.14	3067.56
534.50	3090.25
534.86	3113.34
535.21	3135.07
535.57	3158.65
535.93	3180.92
536.29	3202.74
536.65	3224.01
537.00	3243.49
537.36	3262.91
537.72	3281.79
538.08	3300.68
538.44	3318.93
538.79	3337.40
539.15	3355.45
539.51	3372.98
539.87	3392.21
540.22	3409.48
540.58	3427.12
540.94	3444.26
541.29	3459.37
541.65	3473.87
542.01	3489.05
542.37	3503.37
542.72	3518.35
543.08	3530.79
543.44	3545.09
543.79	3556.99
544.15	3568.52
544.51	3581.20
544.87	3593.77
545.22	3605.05
545.58	3615.02
545.94	3623.68
546.29	3631.54
546.65	3639.11
547.01	3646.38
547.36	3652.31
547.72	3658.68
548.07	3663.14
548.43	3667.70
548.79	3672.46
549.14	3677.33
549.50	3681.98
549.86	3685.16
550.21	3687.69
550.57	3691.60
550.92	3692.89
551.28	3694.80
551.64	3696.84
551.99	3698.64
552.35	3699.15
552.70	3700.41
553.06	3701.63
553.41	3702.79
553.77	3703.39
554.13	3703.63
554.48	3704.04
554.84	3704.38
555.19	3703.58
555.55	3702.52
555.90	3701.03
556.26	3699.36
556.61	3697.67
556.97	3694.78
557.32	3692.92
557.68	3689.49
558.03	3686.22
558.39	3683.07
558.74	3681.56
559.10	3678.67
559.45	3675.19
559.81	3672.25
560.16	3667.66
560.52	3664.53
560.87	3660.23
561.23	3655.26
561.58	3651.24
561.94	3645.54
562.29	3638.79
562.64	3633.73
563.00	3628.81
563.35	3624.72
563.71	3621.19
564.06	3616.59
564.42	3612.50
564.77	3608.29
565.12	3604.42
565.48	3599.04
565.83	3594.60
566.19	3589.77
566.54	3583.30
566.89	3576.59
567.25	3570.16
567.60	3564.45
567.96	3557.34
568.31	3551.35
568.66	3544.38
569.02	3536.69
569.37	3529.25
569.72	3522.69
570.08	3514.82
570.43	3506.51
570.78	3497.42
571.14	3487.51
571.49	3478.30
571.84	3469.46
572.20	3458.78
572.55	3449.65
572.90	3439.56
573.26	3428.44
573.61	3417.12
573.96	3406.90
574.31	3395.23
574.67	3383.67
575.02	3371.31
575.37	3359.61
575.72	3346.40
576.08	3335.53
576.43	3323.29
576.78	3311.87
577.13	3301.03
577.49	3289.65
577.84	3278.04
578.19	3267.53
578.54	3257.49
578.90	3247.51
579.25	3235.74
579.60	3223.50
579.95	3210.52
580.30	3199.48
580.66	3188.98
581.01	3176.93
581.36	3164.47
581.71	3153.03
582.06	3141.00
582.42	3130.01
582.77	3117.53
583.12	3105.85
583.47	3094.57
583.82	3083.90
584.17	3071.90
584.53	3059.99
584.88	3048.28
585.23	3036.44
585.58	3023.93
585.93	3011.21
586.28	2998.95
586.63	2986.80
586.98	2975.83
587.34	2965.26
587.69	2953.26
588.04	2941.08
588.39	2929.78
588.74	2917.81
589.09	2906.67
589.44	2895.02
589.79	2883.99
590.14	2873.25
590.49	2862.29
590.84	2850.57
591.19	2840.50
591.54	2829.61
591.89	2816.37
592.25	2804.20
592.60	2792.05
592.95	2779.63
593.30	2766.44
593.65	2753.28
594.00	2741.30
594.35	2730.61
594.70	2718.67
595.05	2707.55
595.40	2695.86
595.75	2683.26
596.10	2672.52
596.45	2661.44
596.80	2651.05
597.15	2639.97
597.50	2628.56
597.85	2617.85
598.19	2606.29
598.54	2594.51
598.89	2583.67
599.24	2574.82
599.59	2564.84
599.94	2555.55
600.29	2546.00
600.64	2536.67
600.99	2526.14
601.34	2516.37
601.69	2505.01
602.04	2493.73
602.39	2483.14
602.74	2472.81
603.08	2464.12
603.43	2454.79
603.78	2444.88
604.13	2434.45
604.48	2424.59
604.83	2415.88
605.18	2407.23
605.53	2397.31
605.87	2386.88
606.22	2377.24
606.57	2366.71
606.92	2356.52
607.27	2345.62
607.62	2335.10
607.96	2325.38
608.31	2316.70
608.66	2306.00
609.01	2295.52
609.36	2285.46
609.70	2274.09
610.05	2263.24
610.40	2251.86
610.75	2240.23
611.10	2229.46
611.44	2217.18
611.79	2205.18
612.14	2192.39
612.49	2179.32
612.83	2167.81
613.18	2155.57
613.53	2143.40
613.88	2130.87
614.22	2119.52
614.57	2107.68
614.92	2095.85
615.27	2083.55
615.61	2070.75
615.96	2059.31
616.31	2048.56
616.65	2038.24
617.00	2027.64
617.35	2016.79
617.70	2005.22
618.04	1993.19
618.39	1980.68
618.74	1969.98
619.08	1958.65
619.43	1947.65
619.78	1936.60
620.12	1925.76
620.47	1915.19
620.82	1903.41
621.16	1891.80
621.51	1879.82
621.85	1868.88
622.20	1857.64
622.55	1846.30
622.89	1835.24
623.24	1823.99
623.59	1811.82
623.93	1799.93
624.28	1788.87
624.62	1777.68
624.97	1766.63
625.32	1756.34
625.66	1746.42
626.01	1735.98
626.35	1725.70
626.70	1715.43
627.04	1705.79
627.39	1695.44
627.73	1685.03
628.08	1675.51
628.43	1665.38
628.77	1655.41
629.12	1644.96
629.46	1635.44
629.81	1625.77
630.15	1615.95
630.50	1605.90
630.84	1595.98
631.19	1586.02
631.53	1576.19
631.88	1565.86
632.22	1556.02
632.57	1546.40
632.91	1536.13
633.26	1526.29
633.60	1516.61
633.95	1507.22
634.29	1497.10
634.64	1487.88
634.98	1478.00
635.32	1468.50
635.67	1459.77
636.01	1450.68
636.36	1441.14
636.70	1431.86
637.05	1422.66
637.39	1413.78
637.73	1405.26
638.08	1397.40
638.42	1389.17
638.77	1380.47
639.11	1372.00
639.45	1363.15
639.80	1353.93
640.14	1344.81
640.49	1335.97
640.83	1326.77
641.17	1317.67
641.52	1308.86
641.86	1299.22
642.20	1290.47
642.55	1281.01
642.89	1271.55
643.23	1262.17
643.58	1254.14
643.92	1244.71
644.26	1235.98
644.61	1227.11
644.95	1218.08
645.29	1209.01
645.64	1199.69
645.98	1190.70
646.32	1182.28
646.66	1173.52
647.01	1165.28
647.35	1157.20
647.69	1148.36
648.04	1139.98
648.38	1131.18
648.72	1122.50
649.06	1114.17
649.41	1105.81
649.75	1097.79
650.09	1089.92
650.43	1081.89
650.78	1072.97
651.12	1064.74
651.46	1056.38
651.80	1048.39
652.14	1040.32
652.49	1032.02
652.83	1023.88
653.17	1015.22
653.51	1006.76
653.85	999.01
654.20	990.79
654.54	982.50
654.88	974.66
655.22	966.69
655.56	958.84
655.90	950.90
656.25	943.15
656.59	935.33
656.93	927.56
657.27	919.90
657.61	912.00
657.95	904.70
658.29	897.67
658.64	890.68
658.98	883.11
659.32	875.40
659.66	868.18
660.00	860.90
660.34	854.00
660.68	846.64
661.02	839.30
661.36	832.54
661.70	825.86
662.05	819.24
662.39	812.91
662.73	806.63
663.07	800.46
663.41	794.19
663.75	788.03
664.09	781.57
664.43	775.21
664.77	769.37
665.11	763.11
665.45	757.07
665.79	750.94
666.13	744.95
666.47	739.10
666.81	733.28
667.15	727.57
667.49	722.34
667.83	717.09
668.17	711.81
668.51	706.80
668.85	701.50
669.19	696.48
669.53	691.10
669.87	685.83
670.21	680.57
670.55	675.49
670.89	670.65
671.23	666.12
671.57	661.39
671.91	656.56
672.25	651.80
672.58	646.79
672.92	642.14
673.26	637.58
673.60	633.32
673.94	628.86
674.28	624.55
674.62	620.11
674.96	615.73
675.30	611.35
675.64	606.71
675.97	602.56
676.31	598.27
676.65	594.19
676.99	590.39
677.33	586.19
677.67	582.16
678.01	578.04
678.34	573.92
678.68	569.86
679.02	565.82
679.36	562.06
679.70	558.50
680.04	554.59
680.37	550.71
680.71	546.89
681.05	543.24
681.39	539.71
681.73	535.97
682.06	532.69
682.40	529.30
682.74	525.88
683.08	522.45
683.42	518.86
683.75	515.39
684.09	511.77
684.43	508.47
684.77	504.82
685.10	501.33
685.44	497.93
685.78	494.60
686.12	491.53
686.45	488.49
686.79	485.20
687.13	482.11
687.46	479.18
687.80	476.15
688.14	472.85
688.48	469.67
688.81	466.54
689.15	463.40
689.49	460.29
689.82	457.31
690.16	454.05
690.50	450.95
690.83	447.95
691.17	444.90
691.51	442.01
691.84	439.39
692.18	436.70
692.52	433.99
692.85	431.56
693.19	428.95
693.52	426.11
693.86	423.38
694.20	420.83
694.53	418.20
694.87	415.63
695.21	413.24
695.54	410.68
695.88	408.19
696.21	405.60
696.55	403.32
696.88	400.81
697.22	398.50
697.56	396.32
697.89	394.01
698.23	391.73
698.56	389.50
698.90	387.36
699.23	385.07
699.57	382.93
699.90	380.65
700.24	378.40
700.58	376.32
700.91	374.31
701.25	372.36
701.58	370.47
701.92	368.41
702.25	366.41
702.59	364.41
702.92	362.52
703.26	360.73
703.59	358.82
703.93	357.29
704.26	355.54
704.60	353.80
704.93	351.98
705.26	350.19
705.60	348.56
705.93	346.73
706.27	345.22
706.60	343.65
706.94	342.23
707.27	340.45
707.61	338.79
707.94	337.17
708.27	335.42
708.61	333.71
708.94	332.25
709.28	330.68
709.61	329.24
709.94	327.83
710.28	326.46
710.61	325.09
710.95	323.39
711.28	322.23
711.61	320.83
711.95	319.64
712.28	318.42
712.61	317.02
712.95	315.87
713.28	314.74
713.61	313.43
713.95	312.11
714.28	311.08
714.61	309.90
714.95	308.66
715.28	307.41
715.61	306.12
715.95	304.80
716.28	303.75
716.61	302.66
716.95	301.49
717.28	300.30
717.61	299.13
717.94	298.17
718.28	296.87
718.61	295.87
718.94	294.83
719.27	293.81
719.61	292.84
719.94	291.92
720.27	290.65
720.60	289.73
720.94	288.67
721.27	287.62
721.60	286.76
721.93	285.94
722.27	285.24
722.60	284.57
722.93	283.84
723.26	282.99
723.59	282.14
723.93	281.31
724.26	280.54
724.59	279.73
724.92	278.88
725.25	278.24
725.59	277.47
725.92	276.74
726.25	275.95
726.58	275.24
726.91	274.41
727.24	273.80
727.57	273.04
727.91	272.29
728.24	271.71
728.57	271.02
728.90	270.40
729.23	269.66
729.56	269.18
729.89	268.46
730.22	267.81
730.55	267.16
730.89	266.54
731.22	265.85
731.55	265.26
731.88	264.65
732.21	263.93
732.54	263.30
732.87	262.64
733.20	262.13
733.53	261.59
733.86	261.03
734.19	260.42
734.52	260.02
734.85	259.81
735.18	259.15
735.51	258.67
735.84	258.10
736.17	257.62
736.50	256.90
736.83	256.80
737.16	256.25
737.49	255.84
737.82	255.34
738.15	254.86
738.48	254.34
738.81	253.90
739.14	253.41
739.47	252.94
739.80	252.54
740.13	252.16
740.46	251.53
740.79	251.06
741.12	250.58
741.45	249.99
741.78	249.25
742.11	248.95
742.44	248.48
742.77	248.10
743.10	247.64
743.43	247.17
743.75	246.42
744.08	246.54
744.41	245.96
744.74	245.58
745.07	245.18
745.40	244.89
745.73	244.61
746.06	244.28
746.39	243.96
746.71	243.54
747.04	243.11
747.37	242.87
747.70	242.55
748.03	242.25
748.36	242.04
748.68	241.76
749.01	241.35
749.34	241.07
749.67	240.78
750.00	240.50
750.33	240.43
750.65	240.10
750.98	239.28
751.31	239.05
751.64	238.72
751.97	238.55
752.29	238.18
752.62	237.70
752.95	237.36
753.28	236.96
753.60	236.62
753.93	236.34
754.26	235.95
754.59	235.56
754.91	235.24
755.24	234.87
755.57	234.56
755.90	234.24
756.22	233.91
756.55	233.57
756.88	233.23
757.20	232.79
757.53	232.41
757.86	232.20
758.19	232.00
758.51	231.74
758.84	231.39
759.17	231.13
759.49	230.94
759.82	230.88
760.15	230.70
760.47	230.47
760.80	230.10
761.13	229.96
761.45	229.67
761.78	229.39
762.11	229.19
762.43	229.00
762.76	228.77
763.08	228.58
763.41	228.40
763.74	228.26
764.06	227.95
764.39	227.79
764.71	227.56
765.04	227.24
765.37	227.05
765.69	226.77
766.02	226.62
766.34	226.42
766.67	226.07
767.00	225.92
767.32	225.91
767.65	226.07
767.97	225.84
768.30	225.78
768.62	225.63
768.95	225.42
769.27	225.18
769.60	225.11
769.92	224.85
770.25	224.61
770.57	224.39
770.90	224.30
771.22	224.09
771.55	223.89
771.87	223.80
772.20	223.60
772.52	223.75
772.85	224.01
773.17	223.85
773.50	223.70
773.82	223.53
774.15	223.23
774.47	222.83
774.80	222.70
775.12	222.51
775.45	222.33
775.77	222.24
776.09	222.19
776.42	222.13
776.74	222.14
777.07	222.03
777.39	221.91
777.72	221.74
778.04	221.70
778.36	221.61
778.69	221.52
779.01	221.47
779.33	221.08
779.66	220.54
779.98	220.45
780.31	220.33
780.63	220.33
780.95	220.32
781.28	220.17
781.60	220.10
781.92	220.05
782.25	220.00
782.57	219.91
782.89	219.78
783.22	219.60
783.54	219.49
783.86	219.42
784.19	219.31
784.51	219.33
784.83	219.20
785.16	219.13
785.48	219.07
785.80	219.04
786.12	219.04
786.45	219.00
786.77	218.90
787.09	218.81
787.42	218.65
787.74	218.53
788.06	218.53
788.38	218.41
788.71	218.31
789.03	218.24
789.35	218.24
789.67	218.17
789.99	218.10
790.32	217.93
790.64	217.98
790.96	218.21
791.28	218.04
791.61	218.01
791.93	217.95
792.25	217.82
792.57	217.90
792.89	217.75
793.21	217.72
793.54	217.71
793.86	217.62
794.18	217.49
794.50	217.41
794.82	217.34
795.14	217.30
795.47	217.26
795.79	217.28
796.11	217.12
796.43	216.99
796.75	216.99
797.07	217.00
797.39	216.83
797.71	216.55
798.04	216.53
798.36	216.47
798.68	216.45
799.00	216.44
799.32	216.35
799.64	216.34
799.96	216.30
800.28	216.33
800.60	216.33
800.92	216.42
801.24	216.36
801.56	216.33
801.89	216.24
802.21	216.32
802.53	216.16
802.85	216.14
803.17	216.35
803.49	216.14
803.81	216.06
804.13	216.05
804.45	215.97
804.77	215.96
805.09	215.94
805.41	215.84
805.73	215.76
806.05	215.55
806.37	215.57
806.69	215.52
807.01	215.44
807.33	215.40
807.65	215.17
807.97	215.30
808.28	215.29
808.60	215.30
808.92	215.15
809.24	215.35
809.56	215.30
809.88	215.10
810.20	215.17
810.52	215.21
810.84	215.05
811.16	214.98
811.48	214.98
811.80	215.10
812.12	215.05
812.43	215.10
812.75	215.08
813.07	214.94
813.39	214.87
813.71	214.72
814.03	214.73
814.35	214.70
814.67	214.49
814.98	214.35
815.30	214.28
815.62	214.23
815.94	213.98
816.26	213.96
816.58	213.95
816.89	213.99
817.21	213.89
817.53	213.97
817.85	213.95
818.17	213.88
818.48	213.69
818.80	213.82
819.12	213.69
819.44	213.69
819.76	213.71
820.07	213.71
820.39	213.73
820.71	213.71
821.03	213.77
821.34	213.75
821.66	213.80
821.98	213.89
822.30	213.86
822.61	214.08
822.93	214.04
823.25	214.01
823.57	213.91
823.88	213.98
824.20	213.98
824.52	214.02
824.83	214.06
825.15	214.02
825.47	213.90
825.79	214.00
826.10	213.96
826.42	213.91
826.74	213.88
827.05	213.84
827.37	213.81
827.69	213.76
828.00	213.79
828.32	213.75
828.64	213.68
828.95	213.84
829.27	213.70
829.58	213.74
829.90	213.69
830.22	213.70
830.53	213.60
830.85	213.57
831.17	213.46
831.48	213.40
831.80	213.47
832.11	213.42
832.43	213.33
832.75	213.31
833.06	213.52
833.38	213.43
833.69	213.44
834.01	213.45
834.32	213.45
834.64	213.48
834.96	213.46
835.27	213.49
835.59	213.34
835.90	213.19
836.22	213.14
836.53	213.10
836.85	213.05
837.16	213.31
837.48	213.30
837.79	213.39
838.11	213.42
838.42	213.33
838.74	213.39
839.05	213.37
839.37	213.31
839.68	213.08
840.00	213.00
840.31	213.02
840.63	212.95
840.94	212.92
841.26	212.79
841.57	212.85
841.88	212.85
842.20	212.74
842.51	212.75
842.83	212.74
843.14	213.00
843.46	213.03
843.77	212.81
844.08	212.73
844.40	212.70
844.71	212.59
845.03	212.56
845.34	212.42
845.65	212.41
845.97	212.43
846.28	212.45
846.60	212.51
846.91	212.41
847.22	212.44
847.54	212.52
847.85	212.58
848.16	212.55
848.48	212.43
848.79	212.70
849.10	212.77
849.42	212.78
849.73	212.53
850.04	212.45
850.36	212.34
850.67	212.42
850.98	212.32
851.30	212.31
851.61	212.32
851.92	212.35
852.23	212.41
852.55	212.37
852.86	212.40
853.17	212.50
853.49	212.55
853.80	212.55
854.11	212.55
854.42	212.56
854.74	212.48
855.05	212.51
855.36	212.30
855.67	212.22
855.99	212.22
856.30	212.62
856.61	212.61
856.92	212.68
857.23	212.58
857.55	212.59
857.86	212.64
858.17	212.66
858.48	212.63
858.79	212.58
859.11	212.62
859.42	212.60
859.73	212.50
860.04	212.54
860.35	212.41
860.66	212.32
860.98	212.26
861.29	212.25
861.60	212.17
861.91	212.22
862.22	212.16
862.53	212.04
862.84	211.63
863.16	211.77
863.47	211.72
863.78	211.72
864.09	211.72
864.40	211.74
864.71	211.67
865.02	211.79
865.33	211.79
865.64	211.73
865.95	211.73
866.27	211.96
866.58	211.91
866.89	212.04
867.20	212.03
867.51	212.00
867.82	211.99
868.13	212.17
868.44	212.14
868.75	212.29
869.06	212.46
869.37	212.50
869.68	212.37
869.99	212.37
870.30	212.40
870.61	212.39
870.92	212.33
871.23	212.38
871.54	212.29
871.85	212.34
872.16	212.35
872.47	212.29
872.78	212.04
873.09	212.04
873.40	211.96
873.71	211.99
874.02	212.08
874.33	212.09
874.64	211.98
874.95	211.99
875.26	211.87
875.56	211.81
875.87	211.78
876.18	211.84
876.49	212.20
876.80	212.20
877.11	212.16
877.42	212.21
877.73	212.17
878.04	212.19
878.35	212.13
878.66	212.20
878.96	212.15
879.27	212.24
879.58	212.24
879.89	212.25
880.20	212.31
880.51	212.24
880.82	212.27
881.12	212.22
881.43	212.20
881.74	212.16
882.05	212.10
882.36	212.07
882.67	212.04
882.97	211.68
883.28	211.68
883.59	211.75
883.90	211.74
884.21	211.80
884.51	211.82
884.82	211.75
885.13	211.74
885.44	211.74
885.74	211.64
886.05	211.62
886.36	211.66
886.67	211.53
886.98	211.67
887.28	211.78
887.59	211.83
887.90	211.82
888.20	211.84
888.51	211.90
888.82	211.91
889.13	211.92
889.43	212.25
889.74	212.19
890.05	212.13
890.35	212.14
890.66	212.11
890.97	212.08
891.28	212.08
891.58	212.13
891.89	212.20
892.20	212.21
892.50	212.19
892.81	212.12
893.12	212.15
893.42	212.00
893.73	211.89
894.04	211.85
894.34	211.89
894.65	211.88
894.95	211.87
895.26	211.84
895.57	212.00
895.87	211.63
896.18	211.72
896.48	211.70
896.79	211.63
897.10	211.66
897.40	211.64
897.71	211.72
898.01	211.63
898.32	211.66
898.63	211.60
898.93	211.60
899.24	211.58
899.54	211.54
899.85	211.58
900.15	211.60
900.46	211.63
900.76	211.60
901.07	211.57
901.38	211.48
901.68	211.51
901.99	211.31
902.29	211.34
902.60	211.28
902.90	211.31
903.21	211.30
903.51	211.23
903.82	211.32
904.12	211.30
904.43	211.31
904.73	211.27
905.03	211.31
905.34	211.68
905.64	211.67
905.95	211.68
906.25	211.66
906.56	211.66
906.86	211.65
907.17	211.69
907.47	211.70
907.77	211.80
908.08	211.78
908.38	211.83
908.69	211.87
908.99	211.93
909.30	211.94
909.60	212.01
909.90	212.01
910.21	211.95
910.51	211.87
910.81	211.91
911.12	211.95
911.42	211.97
911.73	211.62
912.03	211.72
912.33	211.78
912.64	211.77
912.94	211.69
913.24	211.60
913.55	211.55
913.85	211.56
914.15	211.55
914.46	211.61
914.76	211.55
915.06	211.49
915.37	211.33
915.67	211.34
915.97	211.30
916.27	211.26
916.58	211.28
916.88	211.37
917.18	211.30
917.49	211.49
917.79	211.54
918.09	211.58
918.39	211.67
918.70	211.70
919.00	211.71
919.30	211.93
919.60	211.90
919.91	211.86
920.21	211.92
920.51	211.89
920.81	211.89
921.12	211.93
921.42	211.93
921.72	212.12
922.02	212.17
922.32	212.26
922.63	212.27
922.93	212.37
923.23	212.36
923.53	212.37
923.83	212.13
924.13	212.14
924.44	212.14
924.74	212.15
925.04	212.25
925.34	212.18
925.64	212.02
925.94	212.08
926.24	212.31
926.55	212.27
926.85	212.30
927.15	212.27
927.45	212.40
927.75	212.44
928.05	212.36
928.35	212.30
928.65	212.29
928.95	212.33
929.26	212.26
929.56	212.30
929.86	212.37
930.16	212.41
930.46	212.31
930.76	212.34
931.06	212.10
931.36	211.92
931.66	212.00
931.96	211.95
932.26	211.99
932.56	211.78
932.86	211.77
933.16	211.79
933.46	211.73
933.76	211.57
934.06	211.71
934.36	211.85
934.66	211.82
934.96	211.83
935.26	211.79
935.56	211.84
935.86	211.78
936.16	211.66
936.46	211.62
936.76	211.59
937.06	211.52
937.36	211.64
937.66	211.71
937.96	211.62
938.26	211.60
938.56	211.56
938.86	211.64
939.16	211.72
939.46	211.75
939.76	211.80
940.06	211.78
940.35	211.67
940.65	211.43
940.95	211.41
941.25	211.26
941.55	211.26
941.85	211.19
942.15	211.27
942.45	211.32
942.75	211.31
943.04	211.38
943.34	211.42
943.64	211.35
943.94	211.26
944.24	211.32
944.54	211.35
944.84	211.34
945.13	211.23
945.43	211.16
945.73	211.09
946.03	211.10
946.33	211.02
946.62	210.88
946.92	210.91
947.22	211.03
947.52	211.12
947.82	211.18
948.11	211.15
948.41	211.06
948.71	211.04
949.01	211.09
949.31	211.07
949.60	211.03
949.90	211.08
950.20	211.16
950.50	211.16
950.79	211.13
951.09	211.16
951.39	211.15
951.69	211.17
951.98	211.23
952.28	211.18
952.58	211.20
952.87	211.25
953.17	211.34
953.47	211.27
953.76	211.24
954.06	211.14
954.36	211.10
954.66	211.02
954.95	211.17
955.25	211.11
955.55	211.13
955.84	211.06
956.14	211.07
956.44	210.98
956.73	210.94
957.03	210.98
957.32	210.98
957.62	210.98
957.92	211.01
958.21	211.01
958.51	211.44
958.81	211.55
959.10	211.59
959.40	211.57
959.69	211.62
959.99	211.64
960.29	211.63
960.58	211.57
960.88	211.79
961.17	211.67
961.47	211.75
961.76	211.71
962.06	211.81
962.36	211.78
962.65	211.83
962.95	211.84
963.24	211.83
963.54	211.82
963.83	211.84
964.13	211.82
964.42	211.67
964.72	211.42
965.01	211.43
965.31	211.45
965.60	211.43
965.90	211.61
966.19	211.53
966.49	211.54
966.78	211.63
967.08	211.57
967.37	211.58
967.67	211.49
967.96	211.54
968.26	211.57
968.55	211.62
968.85	211.60
969.14	211.58
969.43	211.52
969.73	211.45
970.02	211.45
970.32	211.40
970.61	211.44
970.91	211.28
971.20	211.18
971.49	211.17
971.79	211.27
972.08	211.06
972.38	211.09
972.67	211.16
972.96	211.15
973.26	211.06
973.55	211.16
973.85	211.18
974.14	211.14
974.43	211.20
974.73	211.21
975.02	211.16
975.31	211.20
975.61	211.21
975.90	211.30
976.19	211.30
976.49	211.37
976.78	211.34
977.07	211.36
977.37	211.39
977.66	211.41
977.95	211.22
978.24	211.16
978.54	211.25
978.83	211.18
979.12	211.20
979.42	211.22
979.71	211.08
980.00	211.07
980.29	211.12
980.59	210.96
980.88	211.06
981.17	211.10
981.46	211.07
981.76	211.11
982.05	211.25
982.34	211.30
982.63	211.33
982.93	211.39
983.22	211.46
983.51	211.53
983.80	211.57
984.09	211.70
984.39	211.77
984.68	211.72
984.97	211.77
985.26	211.76
985.55	211.81
985.85	211.83
986.14	211.93
986.43	211.95
986.72	211.95
987.01	211.81
987.30	211.82
987.59	211.78
987.89	211.79
988.18	211.65
988.47	211.60
988.76	211.53
989.05	211.48
989.34	211.38
989.63	211.40
989.92	211.34
990.22	211.36
990.51	211.38
990.80	211.33
991.09	211.35
991.38	211.38
991.67	211.29
991.96	211.24
992.25	211.16
992.54	211.11
992.83	211.11
993.12	211.06
993.41	211.12
993.70	211.32
993.99	211.36
994.28	211.42
994.58	211.41
994.87	211.35
995.16	211.37
995.45	211.38
995.74	211.24
996.03	211.28
996.32	211.24
996.61	211.23
996.90	211.26
997.19	211.29
997.48	211.27
997.77	211.25
998.06	211.31
998.34	211.29
998.63	211.31
998.92	211.32
999.21	211.37
999.50	211.35
999.79	211.24
1000.08	211.26
1000.37	211.19
1000.66	211.17
1000.95	211.25
1001.24	211.24
1001.53	211.27
1001.82	211.31
1002.11	211.26
1002.40	211.31
1002.68	211.42
1002.97	211.69
1003.26	211.58
1003.55	211.51
1003.84	211.53
1004.13	211.66
1004.42	211.67
1004.71	211.65
1004.99	211.62
1005.28	211.71
1005.57	211.70
1005.86	211.66
1006.15	211.58
1006.44	211.58
1006.72	211.59
1007.01	211.56
1007.30	211.61
1007.59	211.55
1007.88	211.57
1008.17	211.55
1008.45	211.44
1008.74	211.27
1009.03	211.14
1009.32	211.18
1009.60	211.20
1009.89	211.19
1010.18	211.02
1010.47	211.04
1010.76	211.05
1011.04	211.05
1011.33	211.08
1011.62	211.04
1011.91	211.06
1012.19	211.10
1012.48	211.13
1012.77	211.16
1013.05	211.35
1013.34	211.32
1013.63	211.36
1013.92	211.38
1014.20	211.42
1014.49	211.49
1014.78	211.54
1015.06	211.40
1015.35	211.38
1015.64	211.51
1015.92	211.57
1016.21	211.56
1016.50	211.50
1016.78	211.51
1017.07	211.58
1017.36	211.50
1017.64	211.54
1017.93	211.56
1018.22	211.55
1018.50	211.53
1018.79	211.53
1019.08	211.39
1019.36	211.45
1019.65	211.42
1019.93	211.48
1020.22	211.49
1020.51	211.58
1020.79	211.53
1021.08	211.65
1021.36	210.65
1021.65	211.80
1021.94	211.80
1022.22	212.10
1022.51	210.90
1022.79	212.85
1023.08	211.40
1023.36	213.95
1023.65	210.35
>>>>>End Processed Spectral Data<<<<<
