SpectraSuite Data File
++++++++++++++++++++++++++++++++++++
Date: Mon Feb 25 17:20:04 EST 2013
User: group
Dark Spectrum Present: No
Reference Spectrum Present: No
Number of Sampled Component Spectra: 1
Spectrometers: USB2E7196
Integration Time (usec): 104000 (USB2E7196)
Spectra Averaged: 20 (USB2E7196)
Boxcar Smoothing: 10 (USB2E7196)
Correct for Electrical Dark: No (USB2E7196)
Strobe/Lamp Enabled: No (USB2E7196)
Correct for Detector Non-linearity: No (USB2E7196)
Correct for Stray Light: No (USB2E7196)
Number of Pixels in Processed Spectrum: 2048
>>>>>Begin Processed Spectral Data<<<<<
339.09	0.00
339.48	198.85
339.86	199.55
340.24	201.05
340.63	202.55
341.01	208.90
341.39	206.10
341.78	208.00
342.16	209.85
342.54	209.20
342.93	198.20
343.31	208.16
343.69	208.70
344.07	209.21
344.46	209.69
344.84	210.14
345.22	210.20
345.60	210.45
345.99	210.67
346.37	210.75
346.75	210.92
347.13	211.04
347.52	211.26
347.90	211.49
348.28	211.50
348.66	211.68
349.05	211.62
349.43	211.71
349.81	211.89
350.19	212.00
350.57	212.09
350.96	212.23
351.34	212.41
351.72	212.50
352.10	212.60
352.48	212.68
352.87	212.64
353.25	212.78
353.63	212.83
354.01	212.91
354.39	213.08
354.77	213.13
355.15	213.26
355.54	213.20
355.92	213.13
356.30	213.22
356.68	213.46
357.06	213.51
357.44	213.55
357.82	213.63
358.20	213.74
358.58	213.83
358.97	213.95
359.35	214.13
359.73	214.25
360.11	214.35
360.49	214.45
360.87	214.62
361.25	214.78
361.63	214.97
362.01	215.03
362.39	215.01
362.77	215.06
363.15	215.14
363.53	215.21
363.91	215.36
364.29	215.46
364.67	215.15
365.05	215.30
365.43	215.42
365.81	215.47
366.19	215.64
366.57	215.82
366.95	215.78
367.33	215.67
367.71	215.72
368.09	215.82
368.47	215.87
368.85	215.93
369.23	215.92
369.61	215.85
369.99	215.93
370.37	215.96
370.75	216.11
371.13	216.01
371.51	216.00
371.89	215.98
372.27	216.00
372.65	216.10
373.03	215.99
373.41	215.91
373.78	215.86
374.16	215.67
374.54	215.47
374.92	215.48
375.30	215.47
375.68	215.42
376.06	215.38
376.44	215.28
376.82	215.15
377.19	215.08
377.57	214.97
377.95	214.81
378.33	214.76
378.71	214.50
379.09	214.56
379.47	214.55
379.84	214.41
380.22	214.34
380.60	214.20
380.98	214.21
381.36	214.10
381.73	213.98
382.11	214.04
382.49	213.98
382.87	213.83
383.25	213.81
383.62	214.17
384.00	213.97
384.38	213.93
384.76	214.00
385.13	214.06
385.51	214.13
385.89	214.05
386.27	213.99
386.64	214.00
387.02	213.88
387.40	213.79
387.78	213.80
388.15	213.83
388.53	213.82
388.91	213.75
389.29	213.77
389.66	213.80
390.04	213.58
390.42	213.67
390.79	213.69
391.17	213.65
391.55	213.21
391.92	213.29
392.30	213.28
392.68	213.20
393.05	213.24
393.43	213.16
393.81	213.22
394.18	213.15
394.56	213.22
394.94	213.29
395.31	213.29
395.69	213.45
396.06	213.44
396.44	213.39
396.82	213.42
397.19	213.59
397.57	213.61
397.95	213.72
398.32	213.61
398.70	213.67
399.07	213.82
399.45	213.79
399.82	213.79
400.20	213.83
400.58	213.87
400.95	213.72
401.33	213.90
401.70	214.17
402.08	214.27
402.45	214.29
402.83	214.43
403.20	214.59
403.58	214.62
403.95	214.82
404.33	215.04
404.71	215.20
405.08	215.53
405.46	215.66
405.83	215.90
406.21	216.12
406.58	216.36
406.96	216.51
407.33	216.88
407.70	217.20
408.08	217.70
408.45	218.05
408.83	218.45
409.20	218.70
409.58	218.85
409.95	219.33
410.33	219.73
410.70	220.14
411.08	220.71
411.45	221.28
411.82	221.75
412.20	222.39
412.57	223.13
412.95	223.52
413.32	224.34
413.69	225.17
414.07	226.06
414.44	226.96
414.82	227.88
415.19	228.95
415.56	230.04
415.94	231.09
416.31	232.46
416.68	233.69
417.06	235.19
417.43	236.62
417.81	238.21
418.18	239.90
418.55	241.59
418.93	243.32
419.30	245.17
419.67	247.19
420.04	249.22
420.42	251.41
420.79	254.10
421.16	256.62
421.54	259.28
421.91	261.98
422.28	264.73
422.66	267.69
423.03	270.72
423.40	273.75
423.77	276.95
424.15	280.12
424.52	283.62
424.89	287.34
425.26	290.90
425.64	294.38
426.01	298.14
426.38	302.05
426.75	306.12
427.13	310.32
427.50	314.60
427.87	319.15
428.24	323.63
428.61	327.75
428.99	332.58
429.36	337.60
429.73	342.45
430.10	347.48
430.47	352.71
430.85	357.92
431.22	363.56
431.59	369.69
431.96	375.46
432.33	381.64
432.70	387.71
433.08	394.82
433.45	401.42
433.82	408.10
434.19	415.55
434.56	422.75
434.93	429.62
435.30	436.52
435.68	444.16
436.05	451.64
436.42	459.15
436.79	466.06
437.16	473.41
437.53	481.28
437.90	488.98
438.27	496.46
438.64	504.38
439.01	511.74
439.38	518.06
439.75	524.30
440.13	531.60
440.50	538.25
440.87	543.69
441.24	549.49
441.61	555.77
441.98	560.29
442.35	565.52
442.72	570.90
443.09	576.33
443.46	579.47
443.83	581.67
444.20	583.51
444.57	586.07
444.94	587.25
445.31	588.62
445.68	590.12
446.05	590.53
446.42	589.68
446.79	588.64
447.16	587.58
447.53	586.75
447.90	583.63
448.27	580.72
448.64	576.64
449.01	573.68
449.37	568.40
449.74	563.47
450.11	557.78
450.48	551.30
450.85	544.55
451.22	538.75
451.59	533.24
451.96	528.03
452.33	521.05
452.70	514.85
453.07	507.33
453.43	499.42
453.80	492.23
454.17	485.11
454.54	478.51
454.91	471.42
455.28	464.60
455.65	458.23
456.02	452.22
456.38	446.83
456.75	440.00
457.12	434.44
457.49	428.86
457.86	423.28
458.23	418.76
458.59	413.61
458.96	408.57
459.33	404.04
459.70	399.37
460.07	395.85
460.43	391.61
460.80	387.82
461.17	384.50
461.54	380.95
461.91	377.64
462.27	374.17
462.64	371.31
463.01	368.11
463.38	365.18
463.74	361.67
464.11	358.95
464.48	356.59
464.85	354.04
465.21	352.14
465.58	350.15
465.95	347.52
466.32	345.44
466.68	343.30
467.05	341.19
467.42	339.32
467.78	337.20
468.15	335.34
468.52	333.83
468.88	331.89
469.25	330.22
469.62	328.97
469.98	327.57
470.35	326.12
470.72	324.86
471.08	323.35
471.45	322.33
471.82	321.27
472.18	320.08
472.55	319.33
472.92	318.33
473.28	317.40
473.65	316.63
474.02	316.02
474.38	315.57
474.75	315.21
475.11	314.71
475.48	314.37
475.85	314.21
476.21	314.01
476.58	313.99
476.94	314.02
477.31	313.99
477.67	314.10
478.04	314.30
478.41	314.60
478.77	315.34
479.14	315.65
479.50	316.15
479.87	316.75
480.23	317.27
480.60	317.89
480.96	318.66
481.33	319.75
481.69	320.68
482.06	321.65
482.42	322.71
482.79	323.82
483.15	325.12
483.52	326.61
483.88	328.07
484.25	329.54
484.61	331.16
484.98	332.79
485.34	334.79
485.71	336.97
486.07	339.24
486.44	341.26
486.80	343.81
487.17	346.30
487.53	349.20
487.90	352.29
488.26	355.45
488.62	358.85
488.99	362.13
489.35	365.64
489.72	369.50
490.08	373.47
490.44	377.83
490.81	382.25
491.17	386.62
491.54	391.65
491.90	396.77
492.26	402.24
492.63	407.99
492.99	413.89
493.36	420.10
493.72	426.65
494.08	433.32
494.45	440.48
494.81	448.23
495.17	456.13
495.54	464.29
495.90	472.83
496.26	481.51
496.63	490.76
496.99	500.43
497.35	510.40
497.72	520.94
498.08	531.66
498.44	542.83
498.80	555.02
499.17	567.33
499.53	580.16
499.89	593.50
500.26	606.98
500.62	620.81
500.98	635.46
501.34	650.45
501.71	666.17
502.07	682.01
502.43	698.31
502.79	714.82
503.16	732.39
503.52	750.22
503.88	768.86
504.24	787.88
504.60	807.21
504.97	827.34
505.33	847.80
505.69	869.61
506.05	891.85
506.41	913.84
506.78	936.12
507.14	959.41
507.50	983.02
507.86	1007.30
508.22	1032.35
508.59	1057.40
508.95	1083.26
509.31	1109.45
509.67	1136.31
510.03	1163.84
510.39	1192.32
510.75	1220.84
511.12	1249.71
511.48	1278.97
511.84	1308.73
512.20	1338.55
512.56	1368.98
512.92	1400.06
513.28	1430.85
513.64	1461.92
514.00	1493.45
514.37	1525.16
514.73	1557.36
515.09	1589.54
515.45	1622.12
515.81	1654.67
516.17	1687.36
516.53	1720.44
516.89	1753.80
517.25	1786.94
517.61	1819.93
517.97	1852.75
518.33	1885.56
518.69	1918.72
519.05	1952.05
519.41	1985.68
519.77	2019.88
520.13	2053.33
520.49	2086.34
520.85	2119.66
521.21	2153.10
521.57	2187.01
521.93	2220.38
522.29	2254.38
522.65	2288.14
523.01	2321.31
523.37	2353.80
523.73	2387.04
524.09	2419.60
524.45	2452.36
524.81	2485.37
525.17	2518.54
525.53	2551.32
525.89	2583.86
526.25	2616.13
526.61	2647.36
526.97	2678.55
527.33	2709.51
527.68	2740.75
528.04	2771.17
528.40	2800.05
528.76	2830.01
529.12	2859.80
529.48	2890.34
529.84	2919.15
530.20	2948.31
530.56	2977.11
530.91	3006.94
531.27	3035.80
531.63	3064.14
531.99	3091.74
532.35	3118.41
532.71	3144.47
533.07	3171.57
533.42	3197.12
533.78	3223.07
534.14	3248.59
534.50	3271.85
534.86	3296.46
535.21	3319.05
535.57	3343.41
535.93	3367.33
536.29	3389.37
536.65	3411.69
537.00	3432.51
537.36	3452.45
537.72	3472.14
538.08	3491.75
538.44	3511.07
538.79	3530.71
539.15	3549.94
539.51	3568.60
539.87	3587.83
540.22	3606.02
540.58	3624.53
540.94	3642.35
541.29	3658.15
541.65	3673.34
542.01	3689.65
542.37	3704.35
542.72	3720.06
543.08	3733.28
543.44	3748.20
543.79	3761.27
544.15	3773.29
544.51	3786.02
544.87	3799.71
545.22	3811.31
545.58	3822.28
545.94	3831.42
546.29	3839.01
546.65	3846.27
547.01	3853.81
547.36	3860.31
547.72	3867.15
548.07	3871.57
548.43	3876.37
548.79	3881.36
549.14	3886.71
549.50	3891.46
549.86	3895.04
550.21	3897.93
550.57	3902.08
550.92	3903.57
551.28	3905.87
551.64	3907.91
551.99	3909.96
552.35	3910.55
552.70	3911.82
553.06	3912.79
553.41	3913.97
553.77	3914.87
554.13	3915.75
554.48	3915.89
554.84	3916.98
555.19	3915.98
555.55	3914.43
555.90	3912.54
556.26	3910.78
556.61	3908.59
556.97	3905.59
557.32	3903.43
557.68	3900.31
558.03	3896.72
558.39	3893.13
558.74	3891.10
559.10	3888.35
559.45	3884.49
559.81	3881.53
560.16	3876.75
560.52	3873.04
560.87	3868.37
561.23	3863.15
561.58	3858.36
561.94	3852.55
562.29	3845.08
562.64	3839.99
563.00	3835.49
563.35	3831.46
563.71	3827.82
564.06	3822.78
564.42	3818.71
564.77	3813.92
565.12	3809.45
565.48	3803.82
565.83	3798.92
566.19	3793.26
566.54	3785.93
566.89	3778.85
567.25	3771.75
567.60	3765.71
567.96	3758.84
568.31	3752.31
568.66	3744.72
569.02	3736.44
569.37	3728.37
569.72	3721.36
570.08	3712.79
570.43	3703.97
570.78	3694.33
571.14	3683.59
571.49	3673.83
571.84	3664.68
572.20	3653.70
572.55	3644.16
572.90	3633.16
573.26	3621.77
573.61	3609.81
573.96	3598.83
574.31	3586.85
574.67	3574.20
575.02	3561.17
575.37	3548.75
575.72	3535.40
576.08	3524.16
576.43	3511.60
576.78	3499.72
577.13	3488.25
577.49	3476.47
577.84	3464.20
578.19	3452.84
578.54	3442.03
578.90	3431.40
579.25	3418.55
579.60	3406.06
579.95	3392.07
580.30	3380.53
580.66	3369.34
581.01	3356.54
581.36	3343.62
581.71	3331.19
582.06	3319.19
582.42	3307.04
582.77	3293.47
583.12	3280.90
583.47	3269.10
583.82	3257.61
584.17	3245.06
584.53	3232.37
584.88	3219.83
585.23	3206.94
585.58	3194.25
585.93	3180.70
586.28	3167.66
586.63	3155.26
586.98	3143.01
587.34	3131.94
587.69	3119.53
588.04	3106.55
588.39	3095.00
588.74	3082.56
589.09	3071.19
589.44	3058.58
589.79	3047.32
590.14	3036.48
590.49	3024.39
590.84	3011.93
591.19	3000.85
591.54	2988.92
591.89	2975.22
592.25	2962.65
592.60	2949.70
592.95	2936.44
593.30	2923.12
593.65	2909.17
594.00	2896.00
594.35	2884.62
594.70	2871.72
595.05	2859.58
595.40	2847.41
595.75	2834.36
596.10	2822.83
596.45	2810.95
596.80	2800.09
597.15	2788.59
597.50	2775.87
597.85	2764.46
598.19	2752.06
598.54	2739.59
598.89	2728.70
599.24	2719.25
599.59	2708.18
599.94	2698.50
600.29	2688.47
600.64	2678.05
600.99	2666.93
601.34	2656.38
601.69	2644.29
602.04	2632.65
602.39	2621.34
602.74	2610.57
603.08	2600.80
603.43	2590.64
603.78	2579.50
604.13	2568.21
604.48	2557.02
604.83	2548.11
605.18	2538.94
605.53	2528.48
605.87	2517.55
606.22	2507.17
606.57	2495.64
606.92	2485.02
607.27	2473.83
607.62	2462.30
607.96	2452.08
608.31	2442.94
608.66	2431.64
609.01	2420.40
609.36	2409.30
609.70	2397.32
610.05	2385.41
610.40	2373.79
610.75	2361.98
611.10	2351.36
611.44	2338.38
611.79	2325.78
612.14	2312.38
612.49	2298.59
612.83	2286.54
613.18	2273.88
613.53	2260.88
613.88	2247.44
614.22	2235.02
614.57	2221.92
614.92	2209.70
615.27	2196.59
615.61	2183.40
615.96	2171.33
616.31	2160.08
616.65	2149.01
617.00	2138.08
617.35	2126.78
617.70	2114.12
618.04	2100.98
618.39	2087.46
618.74	2076.14
619.08	2063.92
619.43	2051.96
619.78	2040.91
620.12	2029.19
620.47	2017.66
620.82	2005.12
621.16	1993.34
621.51	1980.95
621.85	1969.50
622.20	1956.95
622.55	1945.03
622.89	1933.16
623.24	1921.26
623.59	1908.76
623.93	1896.58
624.28	1884.58
624.62	1872.74
624.97	1861.54
625.32	1850.97
625.66	1840.26
626.01	1829.31
626.35	1818.90
626.70	1807.94
627.04	1797.14
627.39	1786.22
627.73	1775.42
628.08	1765.48
628.43	1754.73
628.77	1744.07
629.12	1733.04
629.46	1723.57
629.81	1713.41
630.15	1702.99
630.50	1692.55
630.84	1681.93
631.19	1671.55
631.53	1661.40
631.88	1650.32
632.22	1639.44
632.57	1629.01
632.91	1618.50
633.26	1607.77
633.60	1597.45
633.95	1587.66
634.29	1576.81
634.64	1567.07
634.98	1556.56
635.32	1546.51
635.67	1537.12
636.01	1527.77
636.36	1517.94
636.70	1507.88
637.05	1498.01
637.39	1488.55
637.73	1479.78
638.08	1471.36
638.42	1462.55
638.77	1453.18
639.11	1444.14
639.45	1435.00
639.80	1425.27
640.14	1415.64
640.49	1406.42
640.83	1396.75
641.17	1387.11
641.52	1377.92
641.86	1367.83
642.20	1358.80
642.55	1348.77
642.89	1338.92
643.23	1329.09
643.58	1320.28
643.92	1310.43
644.26	1301.20
644.61	1291.61
644.95	1281.66
645.29	1271.85
645.64	1262.02
645.98	1252.37
646.32	1243.42
646.66	1234.06
647.01	1224.99
647.35	1216.14
647.69	1206.62
648.04	1197.83
648.38	1188.70
648.72	1179.52
649.06	1170.72
649.41	1161.64
649.75	1152.85
650.09	1144.45
650.43	1135.49
650.78	1126.21
651.12	1117.30
651.46	1108.22
651.80	1099.85
652.14	1091.37
652.49	1082.70
652.83	1073.90
653.17	1064.90
653.51	1055.94
653.85	1047.61
654.20	1039.32
654.54	1030.66
654.88	1022.43
655.22	1013.95
655.56	1005.22
655.90	996.76
656.25	988.26
656.59	980.14
656.93	972.25
657.27	964.27
657.61	955.99
657.95	948.03
658.29	940.34
658.64	933.02
658.98	925.06
659.32	916.80
659.66	909.18
660.00	901.46
660.34	893.93
660.68	886.26
661.02	878.57
661.36	871.33
661.70	864.20
662.05	857.25
662.39	850.30
662.73	843.67
663.07	837.42
663.41	831.06
663.75	824.27
664.09	817.43
664.43	810.28
664.77	803.95
665.11	797.56
665.45	791.24
665.79	784.79
666.13	778.40
666.47	772.46
666.81	766.11
667.15	760.07
667.49	754.52
667.83	748.87
668.17	743.13
668.51	737.58
668.85	732.05
669.19	726.59
669.53	720.91
669.87	715.36
670.21	709.62
670.55	703.75
670.89	698.89
671.23	693.98
671.57	689.00
671.91	683.93
672.25	678.79
672.58	673.67
672.92	668.65
673.26	663.98
673.60	659.15
673.94	654.36
674.28	649.60
674.62	644.94
674.96	640.36
675.30	636.01
675.64	631.09
675.97	626.57
676.31	622.14
676.65	617.92
676.99	613.83
677.33	609.40
677.67	605.26
678.01	600.53
678.34	596.08
678.68	591.85
679.02	587.52
679.36	583.54
679.70	579.34
680.04	575.20
680.37	570.89
680.71	566.88
681.05	563.14
681.39	559.26
681.73	555.51
682.06	551.94
682.40	548.15
682.74	544.51
683.08	540.70
683.42	536.90
683.75	533.08
684.09	529.29
684.43	525.65
684.77	521.91
685.10	518.34
685.44	514.56
685.78	511.09
686.12	507.80
686.45	504.24
686.79	501.02
687.13	497.92
687.46	494.76
687.80	491.60
688.14	488.13
688.48	484.96
688.81	481.46
689.15	477.98
689.49	474.55
689.82	471.46
690.16	468.16
690.50	464.67
690.83	461.55
691.17	458.24
691.51	455.07
691.84	452.24
692.18	449.32
692.52	446.77
692.85	444.19
693.19	441.40
693.52	438.59
693.86	435.73
694.20	432.87
694.53	430.12
694.87	427.25
695.21	424.49
695.54	421.74
695.88	418.97
696.21	416.20
696.55	413.79
696.88	411.20
697.22	408.73
697.56	406.57
697.89	404.28
698.23	401.82
698.56	399.52
698.90	397.27
699.23	394.92
699.57	392.52
699.90	390.01
700.24	387.70
700.58	385.41
700.91	383.26
701.25	381.32
701.58	379.23
701.92	377.17
702.25	375.20
702.59	373.09
702.92	371.14
703.26	369.27
703.59	367.29
703.93	365.63
704.26	363.81
704.60	361.87
704.93	359.77
705.26	358.00
705.60	356.44
705.93	354.37
706.27	352.67
706.60	351.00
706.94	349.39
707.27	347.68
707.61	346.02
707.94	344.28
708.27	342.30
708.61	340.55
708.94	338.96
709.28	337.31
709.61	335.80
709.94	334.31
710.28	332.84
710.61	331.52
710.95	329.65
711.28	328.30
711.61	326.90
711.95	325.62
712.28	324.27
712.61	322.67
712.95	321.60
713.28	320.38
713.61	319.06
713.95	317.78
714.28	316.54
714.61	315.23
714.95	314.06
715.28	312.82
715.61	311.62
715.95	310.31
716.28	309.20
716.61	308.03
716.95	306.82
717.28	305.65
717.61	304.36
717.94	303.33
718.28	302.08
718.61	300.95
718.94	299.90
719.27	298.88
719.61	297.90
719.94	296.85
720.27	295.64
720.60	294.59
720.94	293.45
721.27	292.41
721.60	291.53
721.93	290.63
722.27	289.88
722.60	289.01
722.93	288.18
723.26	287.29
723.59	286.38
723.93	285.68
724.26	284.86
724.59	284.07
724.92	283.31
725.25	282.43
725.59	281.66
725.92	280.82
726.25	279.99
726.58	279.19
726.91	278.30
727.24	277.60
727.57	276.73
727.91	275.90
728.24	275.26
728.57	274.47
728.90	273.78
729.23	272.94
729.56	272.38
729.89	271.66
730.22	270.89
730.55	270.30
730.89	269.58
731.22	268.86
731.55	268.14
731.88	267.34
732.21	266.79
732.54	266.03
732.87	265.31
733.20	264.76
733.53	264.21
733.86	263.69
734.19	263.09
734.52	262.68
734.85	262.41
735.18	261.75
735.51	261.36
735.84	260.71
736.17	260.32
736.50	259.57
736.83	259.40
737.16	258.89
737.49	258.17
737.82	257.50
738.15	256.99
738.48	256.44
738.81	255.96
739.14	255.38
739.47	254.91
739.80	254.47
740.13	253.99
740.46	253.50
740.79	252.86
741.12	252.34
741.45	251.77
741.78	251.15
742.11	250.73
742.44	250.14
742.77	249.84
743.10	249.30
743.43	248.88
743.75	248.10
744.08	248.15
744.41	247.75
744.74	247.33
745.07	246.90
745.40	246.58
745.73	246.40
746.06	246.08
746.39	245.76
746.71	245.39
747.04	244.88
747.37	244.48
747.70	244.21
748.03	243.84
748.36	243.51
748.68	243.22
749.01	242.81
749.34	242.42
749.67	242.04
750.00	241.70
750.33	241.64
750.65	241.37
750.98	240.58
751.31	240.30
751.64	240.05
751.97	239.89
752.29	239.60
752.62	239.10
752.95	238.66
753.28	238.32
753.60	237.98
753.93	237.87
754.26	237.61
754.59	237.25
754.91	236.93
755.24	236.68
755.57	236.33
755.90	235.97
756.22	235.73
756.55	235.33
756.88	234.95
757.20	234.45
757.53	233.97
757.86	233.72
758.19	233.53
758.51	233.27
758.84	232.80
759.17	232.48
759.49	232.24
759.82	232.16
760.15	231.88
760.47	231.60
760.80	231.20
761.13	230.96
761.45	230.74
761.78	230.48
762.11	230.23
762.43	229.97
762.76	229.85
763.08	229.66
763.41	229.45
763.74	229.22
764.06	228.95
764.39	228.75
764.71	228.56
765.04	228.30
765.37	228.10
765.69	227.92
766.02	227.71
766.34	227.45
766.67	227.12
767.00	227.04
767.32	227.10
767.65	227.16
767.97	226.97
768.30	226.79
768.62	226.70
768.95	226.38
769.27	226.20
769.60	226.06
769.92	225.81
770.25	225.73
770.57	225.57
770.90	225.45
771.22	225.36
771.55	225.23
771.87	225.04
772.20	224.82
772.52	224.95
772.85	225.20
773.17	225.14
773.50	224.96
773.82	224.70
774.15	224.30
774.47	223.85
774.80	223.68
775.12	223.54
775.45	223.41
775.77	223.37
776.09	223.29
776.42	223.16
776.74	223.15
777.07	222.95
777.39	222.80
777.72	222.66
778.04	222.53
778.36	222.35
778.69	222.25
779.01	222.21
779.33	221.81
779.66	221.28
779.98	221.10
780.31	221.04
780.63	221.21
780.95	221.22
781.28	221.19
781.60	221.01
781.92	220.91
782.25	220.81
782.57	220.67
782.89	220.48
783.22	220.31
783.54	220.15
783.86	220.10
784.19	220.00
784.51	220.03
784.83	219.94
785.16	219.78
785.48	219.78
785.80	219.67
786.12	219.62
786.45	219.61
786.77	219.55
787.09	219.49
787.42	219.18
787.74	219.06
788.06	218.96
788.38	218.92
788.71	218.81
789.03	218.81
789.35	218.80
789.67	218.79
789.99	218.72
790.32	218.67
790.64	218.62
790.96	218.90
791.28	218.70
791.61	218.58
791.93	218.53
792.25	218.41
792.57	218.56
792.89	218.45
793.21	218.35
793.54	218.23
793.86	218.10
794.18	218.15
794.50	218.05
794.82	218.03
795.14	217.96
795.47	217.88
795.79	217.77
796.11	217.68
796.43	217.58
796.75	217.52
797.07	217.47
797.39	217.36
797.71	217.06
798.04	217.03
798.36	217.09
798.68	217.09
799.00	217.12
799.32	216.97
799.64	216.97
799.96	216.89
800.28	216.96
800.60	216.94
800.92	216.88
801.24	216.86
801.56	216.82
801.89	216.75
802.21	216.80
802.53	216.69
802.85	216.71
803.17	216.84
803.49	216.78
803.81	216.74
804.13	216.72
804.45	216.67
804.77	216.62
805.09	216.55
805.41	216.46
805.73	216.30
806.05	216.23
806.37	216.24
806.69	216.15
807.01	216.07
807.33	216.05
807.65	215.87
807.97	216.03
808.28	215.95
808.60	215.92
808.92	215.87
809.24	216.01
809.56	215.94
809.88	215.77
810.20	215.83
810.52	215.81
810.84	215.70
811.16	215.61
811.48	215.60
811.80	215.64
812.12	215.57
812.43	215.58
812.75	215.43
813.07	215.33
813.39	215.35
813.71	215.28
814.03	215.22
814.35	215.22
814.67	215.03
814.98	215.00
815.30	215.05
815.62	214.92
815.94	214.74
816.26	214.73
816.58	214.62
816.89	214.55
817.21	214.45
817.53	214.48
817.85	214.46
818.17	214.43
818.48	214.28
818.80	214.40
819.12	214.32
819.44	214.37
819.76	214.34
820.07	214.37
820.39	214.39
820.71	214.41
821.03	214.37
821.34	214.32
821.66	214.32
821.98	214.30
822.30	214.33
822.61	214.48
822.93	214.38
823.25	214.36
823.57	214.35
823.88	214.44
824.20	214.40
824.52	214.46
824.83	214.44
825.15	214.42
825.47	214.28
825.79	214.34
826.10	214.23
826.42	214.18
826.74	214.13
827.05	214.05
827.37	214.04
827.69	214.05
828.00	214.06
828.32	214.01
828.64	213.96
828.95	214.09
829.27	213.94
829.58	213.92
829.90	214.02
830.22	214.04
830.53	213.92
830.85	213.87
831.17	213.77
831.48	213.72
831.80	213.75
832.11	213.79
832.43	213.73
832.75	213.78
833.06	213.99
833.38	213.88
833.69	213.91
834.01	213.92
834.32	213.84
834.64	213.78
834.96	213.83
835.27	213.87
835.59	213.75
835.90	213.77
836.22	213.76
836.53	213.67
836.85	213.54
837.16	213.89
837.48	213.93
837.79	213.99
838.11	214.05
838.42	214.00
838.74	214.01
839.05	213.99
839.37	213.88
839.68	213.65
840.00	213.69
840.31	213.71
840.63	213.68
840.94	213.63
841.26	213.53
841.57	213.54
841.88	213.49
842.20	213.40
842.51	213.35
842.83	213.37
843.14	213.59
843.46	213.62
843.77	213.38
844.08	213.30
844.40	213.24
844.71	213.16
845.03	213.18
845.34	213.14
845.65	213.13
845.97	213.19
846.28	213.20
846.60	213.22
846.91	213.22
847.22	213.20
847.54	213.37
847.85	213.42
848.16	213.43
848.48	213.36
848.79	213.47
849.10	213.50
849.42	213.54
849.73	213.26
850.04	213.22
850.36	213.06
850.67	213.16
850.98	213.19
851.30	213.21
851.61	213.20
851.92	213.17
852.23	213.21
852.55	213.20
852.86	213.20
853.17	213.26
853.49	213.20
853.80	213.25
854.11	213.22
854.42	213.28
854.74	213.15
855.05	213.18
855.36	213.04
855.67	212.99
855.99	212.95
856.30	213.36
856.61	213.41
856.92	213.41
857.23	213.38
857.55	213.30
857.86	213.25
858.17	213.24
858.48	213.23
858.79	213.15
859.11	213.22
859.42	213.19
859.73	213.12
860.04	213.15
860.35	212.99
860.66	212.89
860.98	212.87
861.29	212.90
861.60	212.85
861.91	212.90
862.22	212.82
862.53	212.77
862.84	212.40
863.16	212.44
863.47	212.41
863.78	212.39
864.09	212.40
864.40	212.45
864.71	212.49
865.02	212.50
865.33	212.47
865.64	212.37
865.95	212.48
866.27	212.66
866.58	212.65
866.89	212.73
867.20	212.73
867.51	212.68
867.82	212.65
868.13	212.79
868.44	212.70
868.75	212.80
869.06	212.82
869.37	212.81
869.68	212.66
869.99	212.71
870.30	212.73
870.61	212.76
870.92	212.68
871.23	212.60
871.54	212.58
871.85	212.59
872.16	212.62
872.47	212.46
872.78	212.26
873.09	212.26
873.40	212.17
873.71	212.23
874.02	212.18
874.33	212.20
874.64	212.12
874.95	212.22
875.26	212.08
875.56	212.12
875.87	212.14
876.18	212.21
876.49	212.56
876.80	212.56
877.11	212.48
877.42	212.54
877.73	212.53
878.04	212.54
878.35	212.62
878.66	212.63
878.96	212.66
879.27	212.67
879.58	212.68
879.89	212.72
880.20	212.79
880.51	212.82
880.82	212.74
881.12	212.79
881.43	212.73
881.74	212.74
882.05	212.71
882.36	212.75
882.67	212.70
882.97	212.32
883.28	212.25
883.59	212.22
883.90	212.29
884.21	212.37
884.51	212.33
884.82	212.26
885.13	212.22
885.44	212.17
885.74	212.14
886.05	212.11
886.36	212.07
886.67	211.95
886.98	212.10
887.28	212.12
887.59	212.12
887.90	212.08
888.20	212.13
888.51	212.14
888.82	211.99
889.13	212.02
889.43	212.35
889.74	212.32
890.05	212.36
890.35	212.28
890.66	212.20
890.97	212.17
891.28	212.15
891.58	212.19
891.89	212.28
892.20	212.26
892.50	212.21
892.81	212.21
893.12	212.20
893.42	212.06
893.73	212.10
894.04	212.05
894.34	212.14
894.65	212.11
894.95	212.10
895.26	212.14
895.57	212.35
895.87	211.99
896.18	211.97
896.48	212.01
896.79	212.00
897.10	212.03
897.40	212.15
897.71	212.26
898.01	212.22
898.32	212.23
898.63	212.20
898.93	212.21
899.24	212.22
899.54	212.17
899.85	212.10
900.15	212.06
900.46	212.12
900.76	212.09
901.07	212.09
901.38	212.09
901.68	212.14
901.99	211.97
902.29	212.04
902.60	212.07
902.90	212.05
903.21	212.07
903.51	212.02
903.82	212.01
904.12	211.97
904.43	212.01
904.73	211.97
905.03	211.99
905.34	212.35
905.64	212.36
905.95	212.30
906.25	212.33
906.56	212.35
906.86	212.30
907.17	212.21
907.47	212.20
907.77	212.16
908.08	212.05
908.38	211.97
908.69	211.98
908.99	212.07
909.30	212.02
909.60	211.98
909.90	212.01
910.21	211.86
910.51	211.79
910.81	211.80
911.12	211.77
911.42	211.79
911.73	211.44
912.03	211.44
912.33	211.61
912.64	211.67
912.94	211.60
913.24	211.54
913.55	211.51
913.85	211.54
914.15	211.56
914.46	211.64
914.76	211.65
915.06	211.57
915.37	211.55
915.67	211.59
915.97	211.59
916.27	211.51
916.58	211.56
916.88	211.53
917.18	211.42
917.49	211.66
917.79	211.67
918.09	211.68
918.39	211.76
918.70	211.71
919.00	211.65
919.30	211.86
919.60	211.83
919.91	211.81
920.21	211.76
920.51	211.72
920.81	211.70
921.12	211.74
921.42	211.76
921.72	211.77
922.02	211.75
922.32	211.76
922.63	211.79
922.93	211.98
923.23	211.97
923.53	211.98
923.83	211.78
924.13	211.79
924.44	211.80
924.74	211.86
925.04	211.88
925.34	211.85
925.64	211.74
925.94	211.78
926.24	212.02
926.55	212.00
926.85	212.02
927.15	212.00
927.45	212.04
927.75	212.03
928.05	211.97
928.35	212.00
928.65	212.12
928.95	212.15
929.26	211.98
929.56	212.04
929.86	212.09
930.16	212.02
930.46	212.01
930.76	212.00
931.06	211.82
931.36	211.72
931.66	211.82
931.96	211.80
932.26	211.82
932.56	211.68
932.86	211.71
933.16	211.73
933.46	211.70
933.76	211.68
934.06	211.77
934.36	211.91
934.66	211.90
934.96	211.84
935.26	211.85
935.56	211.82
935.86	211.81
936.16	211.79
936.46	211.80
936.76	211.75
937.06	211.70
937.36	211.72
937.66	211.81
937.96	211.75
938.26	211.74
938.56	211.76
938.86	211.80
939.16	211.88
939.46	211.90
939.76	211.94
940.06	211.92
940.35	211.83
940.65	211.68
940.95	211.65
941.25	211.61
941.55	211.63
941.85	211.66
942.15	211.76
942.45	211.86
942.75	211.85
943.04	211.89
943.34	212.01
943.64	212.00
943.94	211.98
944.24	211.96
944.54	211.92
944.84	211.81
945.13	211.76
945.43	211.65
945.73	211.67
946.03	211.68
946.33	211.60
946.62	211.59
946.92	211.57
947.22	211.64
947.52	211.60
947.82	211.63
948.11	211.60
948.41	211.46
948.71	211.34
949.01	211.34
949.31	211.37
949.60	211.30
949.90	211.36
950.20	211.26
950.50	211.33
950.79	211.33
951.09	211.40
951.39	211.34
951.69	211.37
951.98	211.43
952.28	211.36
952.58	211.40
952.87	211.38
953.17	211.36
953.47	211.26
953.76	211.26
954.06	211.13
954.36	211.15
954.66	211.07
954.95	211.13
955.25	211.12
955.55	211.08
955.84	211.00
956.14	210.98
956.44	211.12
956.73	211.05
957.03	211.09
957.32	211.12
957.62	211.17
957.92	211.22
958.21	211.10
958.51	211.61
958.81	211.66
959.10	211.68
959.40	211.76
959.69	211.78
959.99	211.81
960.29	211.87
960.58	211.86
960.88	212.04
961.17	212.03
961.47	212.07
961.76	212.05
962.06	212.08
962.36	212.11
962.65	212.11
962.95	212.08
963.24	211.98
963.54	211.95
963.83	211.94
964.13	211.91
964.42	211.85
964.72	211.51
965.01	211.48
965.31	211.44
965.60	211.31
965.90	211.54
966.19	211.46
966.49	211.51
966.78	211.45
967.08	211.45
967.37	211.44
967.67	211.42
967.96	211.47
968.26	211.46
968.55	211.40
968.85	211.35
969.14	211.35
969.43	211.41
969.73	211.42
970.02	211.35
970.32	211.37
970.61	211.41
970.91	211.32
971.20	211.29
971.49	211.29
971.79	211.43
972.08	211.18
972.38	211.22
972.67	211.13
972.96	211.27
973.26	211.18
973.55	211.29
973.85	211.28
974.14	211.21
974.43	211.33
974.73	211.36
975.02	211.36
975.31	211.39
975.61	211.38
975.90	211.33
976.19	211.34
976.49	211.32
976.78	211.39
977.07	211.35
977.37	211.32
977.66	211.35
977.95	211.28
978.24	211.34
978.54	211.41
978.83	211.38
979.12	211.29
979.42	211.26
979.71	211.15
980.00	211.18
980.29	211.28
980.59	211.22
980.88	211.30
981.17	211.28
981.46	211.28
981.76	211.32
982.05	211.43
982.34	211.49
982.63	211.57
982.93	211.58
983.22	211.69
983.51	211.68
983.80	211.74
984.09	211.77
984.39	211.72
984.68	211.65
984.97	211.73
985.26	211.76
985.55	211.76
985.85	211.76
986.14	211.78
986.43	211.77
986.72	211.68
987.01	211.58
987.30	211.59
987.59	211.54
987.89	211.50
988.18	211.42
988.47	211.39
988.76	211.31
989.05	211.23
989.34	211.19
989.63	211.42
989.92	211.36
990.22	211.37
990.51	211.43
990.80	211.51
991.09	211.54
991.38	211.54
991.67	211.59
991.96	211.55
992.25	211.60
992.54	211.57
992.83	211.58
993.12	211.58
993.41	211.63
993.70	211.82
993.99	211.86
994.28	211.91
994.58	211.97
994.87	211.97
995.16	211.97
995.45	211.92
995.74	211.73
996.03	211.81
996.32	211.84
996.61	211.85
996.90	211.78
997.19	211.69
997.48	211.71
997.77	211.64
998.06	211.70
998.34	211.62
998.63	211.58
998.92	211.62
999.21	211.64
999.50	211.60
999.79	211.43
1000.08	211.43
1000.37	211.41
1000.66	211.34
1000.95	211.35
1001.24	211.35
1001.53	211.40
1001.82	211.40
1002.11	211.29
1002.40	211.33
1002.68	211.40
1002.97	211.62
1003.26	211.62
1003.55	211.55
1003.84	211.55
1004.13	211.63
1004.42	211.64
1004.71	211.68
1004.99	211.68
1005.28	211.73
1005.57	211.66
1005.86	211.66
1006.15	211.65
1006.44	211.60
1006.72	211.68
1007.01	211.65
1007.30	211.69
1007.59	211.70
1007.88	211.69
1008.17	211.71
1008.45	211.61
1008.74	211.52
1009.03	211.39
1009.32	211.40
1009.60	211.41
1009.89	211.46
1010.18	211.30
1010.47	211.23
1010.76	211.22
1011.04	211.24
1011.33	211.25
1011.62	211.31
1011.91	211.34
1012.19	211.33
1012.48	211.34
1012.77	211.24
1013.05	211.38
1013.34	211.37
1013.63	211.34
1013.92	211.36
1014.20	211.33
1014.49	211.33
1014.78	211.31
1015.06	211.21
1015.35	211.27
1015.64	211.30
1015.92	211.29
1016.21	211.30
1016.50	211.41
1016.78	211.43
1017.07	211.44
1017.36	211.41
1017.64	211.40
1017.93	211.39
1018.22	211.38
1018.50	211.33
1018.79	211.40
1019.08	211.25
1019.36	211.25
1019.65	211.23
1019.93	211.33
1020.22	211.35
1020.51	211.50
1020.79	211.46
1021.08	210.75
1021.36	210.00
1021.65	211.70
1021.94	210.95
1022.22	211.40
1022.51	211.40
1022.79	213.20
1023.08	210.90
1023.36	214.50
1023.65	210.15
>>>>>End Processed Spectral Data<<<<<
