SpectraSuite Data File
++++++++++++++++++++++++++++++++++++
Date: Mon Feb 25 17:08:39 EST 2013
User: group
Dark Spectrum Present: No
Reference Spectrum Present: No
Number of Sampled Component Spectra: 1
Spectrometers: USB2E7196
Integration Time (usec): 104000 (USB2E7196)
Spectra Averaged: 20 (USB2E7196)
Boxcar Smoothing: 10 (USB2E7196)
Correct for Electrical Dark: No (USB2E7196)
Strobe/Lamp Enabled: No (USB2E7196)
Correct for Detector Non-linearity: No (USB2E7196)
Correct for Stray Light: No (USB2E7196)
Number of Pixels in Processed Spectrum: 2048
>>>>>Begin Processed Spectral Data<<<<<
339.09	0.00
339.48	198.45
339.86	200.35
340.24	201.15
340.63	203.05
341.01	209.55
341.39	205.05
341.78	207.15
342.16	209.60
342.54	209.90
342.93	198.35
343.31	208.38
343.69	209.00
344.07	209.39
344.46	209.84
344.84	210.20
345.22	210.19
345.60	210.45
345.99	210.64
346.37	210.66
346.75	210.66
347.13	210.73
347.52	210.79
347.90	210.93
348.28	210.86
348.66	210.88
349.05	210.73
349.43	210.79
349.81	210.82
350.19	210.77
350.57	210.74
350.96	210.88
351.34	210.89
351.72	210.76
352.10	210.84
352.48	210.90
352.87	210.93
353.25	211.03
353.63	211.04
354.01	211.08
354.39	211.19
354.77	211.29
355.15	211.37
355.54	211.36
355.92	211.33
356.30	211.41
356.68	211.68
357.06	211.79
357.44	211.77
357.82	211.85
358.20	211.95
358.58	212.03
358.97	212.06
359.35	212.22
359.73	212.50
360.11	212.59
360.49	212.68
360.87	212.77
361.25	212.83
361.63	213.02
362.01	213.11
362.39	213.15
362.77	213.22
363.15	213.28
363.53	213.38
363.91	213.43
364.29	213.45
364.67	213.18
365.05	213.14
365.43	213.26
365.81	213.32
366.19	213.55
366.57	213.73
366.95	213.70
367.33	213.65
367.71	213.63
368.09	213.65
368.47	213.61
368.85	213.55
369.23	213.68
369.61	213.62
369.99	213.63
370.37	213.63
370.75	213.78
371.13	213.67
371.51	213.54
371.89	213.54
372.27	213.51
372.65	213.55
373.03	213.64
373.41	213.62
373.78	213.59
374.16	213.32
374.54	213.08
374.92	213.00
375.30	212.99
375.68	212.87
376.06	212.88
376.44	212.86
376.82	212.86
377.19	212.71
377.57	212.56
377.95	212.42
378.33	212.33
378.71	212.11
379.09	212.10
379.47	212.16
379.84	212.14
380.22	212.11
380.60	212.04
380.98	211.89
381.36	211.76
381.73	211.60
382.11	211.66
382.49	211.66
382.87	211.59
383.25	211.57
383.62	211.88
384.00	211.77
384.38	211.70
384.76	211.65
385.13	211.77
385.51	211.79
385.89	211.73
386.27	211.71
386.64	211.70
387.02	211.64
387.40	211.55
387.78	211.41
388.15	211.40
388.53	211.37
388.91	211.35
389.29	211.33
389.66	211.39
390.04	211.29
390.42	211.29
390.79	211.29
391.17	211.18
391.55	210.82
391.92	210.79
392.30	210.79
392.68	210.73
393.05	210.71
393.43	210.67
393.81	210.72
394.18	210.63
394.56	210.56
394.94	210.69
395.31	210.60
395.69	210.71
396.06	210.74
396.44	210.70
396.82	210.68
397.19	210.80
397.57	210.72
397.95	210.80
398.32	210.66
398.70	210.71
399.07	210.77
399.45	210.76
399.82	210.85
400.20	210.80
400.58	210.84
400.95	210.65
401.33	210.71
401.70	210.94
402.08	210.97
402.45	211.08
402.83	211.07
403.20	211.18
403.58	211.21
403.95	211.29
404.33	211.40
404.71	211.47
405.08	211.69
405.46	211.76
405.83	211.81
406.21	212.00
406.58	212.04
406.96	212.13
407.33	212.32
407.70	212.48
408.08	212.91
408.45	213.11
408.83	213.37
409.20	213.50
409.58	213.48
409.95	213.76
410.33	213.93
410.70	214.07
411.08	214.30
411.45	214.51
411.82	214.75
412.20	215.06
412.57	215.52
412.95	215.54
413.32	216.04
413.69	216.36
414.07	216.73
414.44	217.24
414.82	217.70
415.19	218.15
415.56	218.62
415.94	218.96
416.31	219.64
416.68	220.27
417.06	221.04
417.43	221.82
417.81	222.57
418.18	223.37
418.55	224.22
418.93	225.13
419.30	226.16
419.67	227.11
420.04	228.01
420.42	229.00
420.79	230.58
421.16	231.76
421.54	233.36
421.91	234.70
422.28	236.09
422.66	237.62
423.03	239.36
423.40	240.90
423.77	242.53
424.15	244.08
424.52	245.82
424.89	247.71
425.26	249.40
425.64	251.16
426.01	253.01
426.38	255.02
426.75	257.12
427.13	259.15
427.50	261.42
427.87	263.84
428.24	266.11
428.61	268.09
428.99	270.58
429.36	272.97
429.73	275.63
430.10	278.18
430.47	280.79
430.85	283.17
431.22	286.08
431.59	289.39
431.96	292.36
432.33	295.60
432.70	298.82
433.08	302.56
433.45	306.18
433.82	309.75
434.19	313.64
434.56	317.57
434.93	321.31
435.30	324.95
435.68	329.03
436.05	333.13
436.42	337.17
436.79	340.83
437.16	344.81
437.53	348.94
437.90	353.18
438.27	357.36
438.64	361.69
439.01	365.57
439.38	368.94
439.75	372.30
440.13	376.13
440.50	379.66
440.87	382.68
441.24	385.82
441.61	389.28
441.98	391.92
442.35	394.72
442.72	397.74
443.09	400.87
443.46	402.59
443.83	403.80
444.20	404.90
444.57	406.51
444.94	407.33
445.31	408.26
445.68	409.39
446.05	409.74
446.42	409.48
446.79	409.33
447.16	408.80
447.53	408.66
447.90	407.39
448.27	406.08
448.64	404.23
449.01	402.72
449.37	400.16
449.74	397.67
450.11	394.98
450.48	391.58
450.85	387.94
451.22	385.04
451.59	382.40
451.96	379.71
452.33	376.11
452.70	372.80
453.07	368.82
453.43	364.45
453.80	360.66
454.17	357.05
454.54	353.42
454.91	349.83
455.28	346.18
455.65	342.70
456.02	339.76
456.38	336.71
456.75	333.16
457.12	330.13
457.49	327.04
457.86	323.94
458.23	321.54
458.59	318.85
458.96	316.17
459.33	313.54
459.70	311.13
460.07	309.22
460.43	307.04
460.80	305.09
461.17	303.39
461.54	301.48
461.91	299.63
462.27	297.87
462.64	296.21
463.01	294.49
463.38	292.96
463.74	290.73
464.11	289.24
464.48	287.94
464.85	286.53
465.21	285.58
465.58	284.35
465.95	282.85
466.32	281.78
466.68	280.56
467.05	279.48
467.42	278.30
467.78	277.02
468.15	275.82
468.52	274.97
468.88	273.69
469.25	272.64
469.62	271.92
469.98	270.97
470.35	270.21
470.72	269.38
471.08	268.43
471.45	267.81
471.82	267.21
472.18	266.46
472.55	265.91
472.92	265.14
473.28	264.52
473.65	263.98
474.02	263.33
474.38	262.90
474.75	262.50
475.11	261.99
475.48	261.64
475.85	261.34
476.21	260.96
476.58	260.81
476.94	260.61
477.31	260.30
477.67	260.05
478.04	259.81
478.41	259.72
478.77	259.93
479.14	259.68
479.50	259.58
479.87	259.42
480.23	259.41
480.60	259.41
480.96	259.40
481.33	259.61
481.69	259.68
482.06	259.75
482.42	259.85
482.79	259.99
483.15	260.11
483.52	260.45
483.88	260.55
484.25	260.67
484.61	260.89
484.98	261.10
485.34	261.55
485.71	261.90
486.07	262.25
486.44	262.33
486.80	262.80
487.17	263.21
487.53	263.85
487.90	264.38
488.26	264.99
488.62	265.69
488.99	266.20
489.35	266.92
489.72	267.65
490.08	268.43
490.44	269.22
490.81	270.20
491.17	270.97
491.54	271.97
491.90	272.98
492.26	274.00
492.63	275.04
492.99	275.97
493.36	277.11
493.72	278.30
494.08	279.48
494.45	280.81
494.81	282.13
495.17	283.42
495.54	284.84
495.90	286.22
496.26	287.66
496.63	289.26
496.99	290.87
497.35	292.53
497.72	294.29
498.08	296.04
498.44	297.74
498.80	299.63
499.17	301.48
499.53	303.35
499.89	305.46
500.26	307.54
500.62	309.72
500.98	312.01
501.34	314.25
501.71	316.52
502.07	318.82
502.43	321.10
502.79	323.44
503.16	325.81
503.52	328.38
503.88	330.86
504.24	333.40
504.60	335.97
504.97	338.64
505.33	341.20
505.69	344.09
506.05	346.90
506.41	349.62
506.78	352.40
507.14	355.33
507.50	358.17
507.86	361.23
508.22	364.35
508.59	367.30
508.95	370.50
509.31	373.83
509.67	377.07
510.03	380.55
510.39	383.96
510.75	387.40
511.12	390.76
511.48	394.31
511.84	397.78
512.20	401.30
512.56	404.98
512.92	408.72
513.28	412.41
513.64	416.10
514.00	419.95
514.37	423.82
514.73	427.69
515.09	431.75
515.45	435.59
515.81	439.42
516.17	443.34
516.53	447.18
516.89	451.09
517.25	455.15
517.61	459.09
517.97	463.18
518.33	467.15
518.69	471.19
519.05	475.39
519.41	479.68
519.77	484.23
520.13	488.45
520.49	492.58
520.85	496.88
521.21	501.37
521.57	505.83
521.93	510.09
522.29	514.62
522.65	518.87
523.01	523.28
523.37	527.66
523.73	532.27
524.09	536.87
524.45	541.30
524.81	546.05
525.17	550.74
525.53	555.36
525.89	560.11
526.25	565.00
526.61	569.47
526.97	574.02
527.33	578.61
527.68	583.58
528.04	588.43
528.40	592.92
528.76	597.62
529.12	602.43
529.48	607.49
529.84	612.26
530.20	617.17
530.56	622.13
530.91	627.21
531.27	632.13
531.63	636.92
531.99	641.92
532.35	646.45
532.71	651.16
533.07	656.11
533.42	661.29
533.78	666.14
534.14	670.94
534.50	675.61
534.86	680.46
535.21	684.71
535.57	689.62
535.93	694.32
536.29	699.12
536.65	703.70
537.00	708.15
537.36	712.51
537.72	716.80
538.08	721.34
538.44	725.61
538.79	729.87
539.15	734.28
539.51	738.65
539.87	743.29
540.22	747.70
540.58	751.95
540.94	755.93
541.29	759.85
541.65	763.85
542.01	767.91
542.37	771.76
542.72	775.75
543.08	779.25
543.44	783.37
543.79	786.57
544.15	790.19
544.51	793.97
544.87	797.90
545.22	801.70
545.58	804.90
545.94	808.21
546.29	811.41
546.65	814.41
547.01	817.45
547.36	820.32
547.72	823.45
548.07	826.40
548.43	829.14
548.79	831.92
549.14	834.62
549.50	837.51
549.86	839.80
550.21	842.29
550.57	844.72
550.92	846.77
551.28	849.21
551.64	851.26
551.99	853.53
552.35	855.30
552.70	857.06
553.06	858.96
553.41	860.78
553.77	862.92
554.13	864.84
554.48	866.83
554.84	868.64
555.19	869.93
555.55	871.50
555.90	872.74
556.26	874.23
556.61	875.44
556.97	876.37
557.32	877.78
557.68	878.85
558.03	880.06
558.39	881.04
558.74	882.48
559.10	883.66
559.45	884.44
559.81	885.68
560.16	886.62
560.52	887.74
560.87	888.75
561.23	889.29
561.58	890.45
561.94	890.84
562.29	891.32
562.64	892.15
563.00	892.67
563.35	893.63
563.71	894.45
564.06	895.41
564.42	896.20
564.77	896.98
565.12	897.88
565.48	898.84
565.83	899.65
566.19	900.15
566.54	900.46
566.89	900.71
567.25	901.10
567.60	901.45
567.96	901.83
568.31	902.24
568.66	902.46
569.02	902.11
569.37	901.93
569.72	901.91
570.08	901.64
570.43	901.33
570.78	900.81
571.14	900.21
571.49	899.41
571.84	899.00
572.20	898.10
572.55	897.29
572.90	896.23
573.26	895.14
573.61	893.82
573.96	893.09
574.31	891.94
574.67	890.29
575.02	888.98
575.37	887.50
575.72	885.72
576.08	884.31
576.43	882.78
576.78	881.60
577.13	880.28
577.49	879.00
577.84	877.63
578.19	876.36
578.54	875.25
578.90	874.05
579.25	872.52
579.60	871.11
579.95	869.38
580.30	868.10
580.66	866.96
581.01	865.69
581.36	863.86
581.71	862.48
582.06	861.46
582.42	860.07
582.77	858.44
583.12	857.08
583.47	855.88
583.82	854.63
584.17	853.05
584.53	851.83
584.88	850.35
585.23	848.78
585.58	847.14
585.93	845.49
586.28	844.20
586.63	842.63
586.98	841.20
587.34	840.09
587.69	838.37
588.04	836.86
588.39	835.25
588.74	833.60
589.09	832.06
589.44	830.18
589.79	828.63
590.14	827.07
590.49	825.45
590.84	823.57
591.19	822.28
591.54	820.79
591.89	818.51
592.25	816.97
592.60	815.12
592.95	813.34
593.30	811.05
593.65	808.94
594.00	807.08
594.35	806.23
594.70	804.21
595.05	802.46
595.40	800.34
595.75	798.28
596.10	796.75
596.45	795.06
596.80	793.48
597.15	791.77
597.50	790.07
597.85	788.41
598.19	786.50
598.54	784.55
598.89	782.77
599.24	781.52
599.59	779.64
599.94	778.34
600.29	776.82
600.64	775.38
600.99	773.62
601.34	772.14
601.69	769.35
602.04	767.41
602.39	765.42
602.74	763.95
603.08	762.55
603.43	761.12
603.78	759.35
604.13	757.69
604.48	755.93
604.83	754.61
605.18	753.06
605.53	751.57
605.87	749.71
606.22	748.06
606.57	746.30
606.92	744.37
607.27	742.41
607.62	740.57
607.96	738.95
608.31	737.51
608.66	735.55
609.01	733.68
609.36	731.87
609.70	730.06
610.05	727.94
610.40	725.98
610.75	723.65
611.10	721.90
611.44	719.44
611.79	717.20
612.14	714.63
612.49	712.05
612.83	709.76
613.18	707.25
613.53	704.94
613.88	702.20
614.22	699.89
614.57	697.42
614.92	694.93
615.27	692.35
615.61	689.69
615.96	687.35
616.31	685.03
616.65	682.90
617.00	680.57
617.35	678.24
617.70	675.49
618.04	672.89
618.39	669.93
618.74	667.67
619.08	665.25
619.43	662.90
619.78	660.56
620.12	658.15
620.47	655.90
620.82	653.36
621.16	650.97
621.51	648.60
621.85	646.16
622.20	643.65
622.55	641.10
622.89	638.56
623.24	636.04
623.59	633.49
623.93	630.92
624.28	628.40
624.62	626.14
624.97	624.10
625.32	621.80
625.66	619.55
626.01	617.06
626.35	614.81
626.70	612.29
627.04	610.23
627.39	607.84
627.73	605.53
628.08	603.22
628.43	600.83
628.77	598.36
629.12	595.84
629.46	593.63
629.81	591.49
630.15	589.29
630.50	586.85
630.84	584.50
631.19	582.02
631.53	579.74
631.88	577.06
632.22	574.42
632.57	572.16
632.91	569.85
633.26	567.65
633.60	565.26
633.95	563.16
634.29	560.63
634.64	558.44
634.98	555.99
635.32	553.83
635.67	551.71
636.01	549.47
636.36	547.39
636.70	545.31
637.05	543.03
637.39	540.89
637.73	538.91
638.08	537.00
638.42	535.11
638.77	533.15
639.11	531.18
639.45	529.14
639.80	526.87
640.14	524.68
640.49	522.53
640.83	520.32
641.17	518.09
641.52	515.89
641.86	513.61
642.20	511.63
642.55	509.18
642.89	507.00
643.23	504.84
643.58	502.93
643.92	500.62
644.26	498.47
644.61	496.33
644.95	494.00
645.29	491.76
645.64	489.42
645.98	487.22
646.32	485.15
646.66	482.87
647.01	480.84
647.35	478.94
647.69	476.68
648.04	474.73
648.38	472.66
648.72	470.71
649.06	468.59
649.41	466.51
649.75	464.56
650.09	462.56
650.43	460.51
650.78	458.25
651.12	456.15
651.46	454.11
651.80	452.10
652.14	450.25
652.49	448.27
652.83	446.37
653.17	444.15
653.51	441.88
653.85	440.07
654.20	438.05
654.54	435.78
654.88	433.79
655.22	431.76
655.56	429.66
655.90	427.59
656.25	425.55
656.59	423.57
656.93	421.65
657.27	419.87
657.61	417.88
657.95	416.00
658.29	414.09
658.64	412.36
658.98	410.41
659.32	408.43
659.66	406.47
660.00	404.48
660.34	402.64
660.68	400.87
661.02	398.90
661.36	397.15
661.70	395.57
662.05	393.89
662.39	392.22
662.73	390.67
663.07	389.29
663.41	387.71
663.75	386.05
664.09	384.33
664.43	382.44
664.77	380.84
665.11	379.20
665.45	377.66
665.79	376.05
666.13	374.50
666.47	372.95
666.81	371.45
667.15	369.93
667.49	368.57
667.83	367.23
668.17	365.92
668.51	364.52
668.85	363.17
669.19	361.98
669.53	360.41
669.87	358.91
670.21	357.36
670.55	355.99
670.89	354.82
671.23	353.65
671.57	352.42
671.91	351.18
672.25	349.90
672.58	348.70
672.92	347.30
673.26	346.08
673.60	344.84
673.94	343.64
674.28	342.60
674.62	341.49
674.96	340.19
675.30	339.02
675.64	337.76
675.97	336.59
676.31	335.31
676.65	334.18
676.99	333.21
677.33	332.10
677.67	331.03
678.01	329.66
678.34	328.48
678.68	327.51
679.02	326.41
679.36	325.31
679.70	324.22
680.04	323.22
680.37	322.03
680.71	320.96
681.05	319.98
681.39	318.86
681.73	317.74
682.06	316.82
682.40	315.80
682.74	314.76
683.08	313.73
683.42	312.62
683.75	311.82
684.09	310.72
684.43	309.63
684.77	308.64
685.10	307.71
685.44	306.70
685.78	305.54
686.12	304.67
686.45	303.70
686.79	302.64
687.13	301.76
687.46	300.97
687.80	300.20
688.14	299.17
688.48	298.23
688.81	297.38
689.15	296.53
689.49	295.54
689.82	294.76
690.16	293.66
690.50	292.80
690.83	291.80
691.17	290.86
691.51	289.93
691.84	289.09
692.18	288.28
692.52	287.53
692.85	286.87
693.19	286.12
693.52	285.36
693.86	284.52
694.20	283.82
694.53	283.02
694.87	282.14
695.21	281.27
695.54	280.54
695.88	279.62
696.21	278.70
696.55	278.10
696.88	277.33
697.22	276.72
697.56	276.07
697.89	275.32
698.23	274.73
698.56	274.13
698.90	273.41
699.23	272.70
699.57	271.95
699.90	271.11
700.24	270.31
700.58	269.66
700.91	269.15
701.25	268.74
701.58	268.13
701.92	267.62
702.25	267.12
702.59	266.50
702.92	266.09
703.26	265.50
703.59	264.83
703.93	264.52
704.26	263.97
704.60	263.48
704.93	262.93
705.26	262.33
705.60	261.86
705.93	261.29
706.27	260.88
706.60	260.50
706.94	260.18
707.27	259.64
707.61	259.10
707.94	258.47
708.27	257.63
708.61	257.13
708.94	256.44
709.28	256.00
709.61	255.52
709.94	254.95
710.28	254.59
710.61	254.19
710.95	253.49
711.28	253.25
711.61	252.75
711.95	252.43
712.28	252.02
712.61	251.53
712.95	251.27
713.28	250.98
713.61	250.45
713.95	249.90
714.28	249.49
714.61	249.06
714.95	248.72
715.28	248.26
715.61	247.77
715.95	247.43
716.28	246.94
716.61	246.64
716.95	246.20
717.28	245.79
717.61	245.42
717.94	245.03
718.28	244.41
718.61	244.01
718.94	243.60
719.27	243.20
719.61	242.93
719.94	242.50
720.27	241.89
720.60	241.48
720.94	241.29
721.27	241.06
721.60	240.80
721.93	240.47
722.27	240.33
722.60	240.13
722.93	239.91
723.26	239.69
723.59	239.30
723.93	239.12
724.26	238.82
724.59	238.48
724.92	238.28
725.25	238.15
725.59	237.91
725.92	237.66
726.25	237.43
726.58	237.12
726.91	236.90
727.24	236.77
727.57	236.57
727.91	236.13
728.24	235.82
728.57	235.54
728.90	235.33
729.23	234.98
729.56	234.91
729.89	234.61
730.22	234.34
730.55	234.02
730.89	233.75
731.22	233.55
731.55	233.38
731.88	233.09
732.21	232.75
732.54	232.49
732.87	232.17
733.20	232.00
733.53	231.77
733.86	231.58
734.19	231.24
734.52	231.12
734.85	231.26
735.18	231.05
735.51	230.97
735.84	230.80
736.17	230.71
736.50	230.27
736.83	230.45
737.16	230.25
737.49	230.18
737.82	229.93
738.15	229.77
738.48	229.48
738.81	229.26
739.14	229.07
739.47	228.84
739.80	228.66
740.13	228.45
740.46	228.19
740.79	227.90
741.12	227.68
741.45	227.48
741.78	227.05
742.11	227.04
742.44	226.79
742.77	226.59
743.10	226.34
743.43	226.16
743.75	225.65
744.08	225.88
744.41	225.67
744.74	225.51
745.07	225.23
745.40	225.24
745.73	225.23
746.06	225.05
746.39	224.93
746.71	224.81
747.04	224.62
747.37	224.54
747.70	224.49
748.03	224.46
748.36	224.35
748.68	224.25
749.01	223.88
749.34	223.79
749.67	223.76
750.00	223.58
750.33	223.75
750.65	223.68
750.98	223.17
751.31	223.02
751.64	222.92
751.97	223.04
752.29	222.81
752.62	222.47
752.95	222.33
753.28	222.19
753.60	222.06
753.93	222.02
754.26	221.85
754.59	221.62
754.91	221.43
755.24	221.31
755.57	221.11
755.90	221.06
756.22	220.85
756.55	220.65
756.88	220.54
757.20	220.16
757.53	219.95
757.86	219.84
758.19	219.75
758.51	219.70
758.84	219.38
759.17	219.34
759.49	219.34
759.82	219.45
760.15	219.38
760.47	219.30
760.80	219.11
761.13	219.11
761.45	219.08
761.78	218.97
762.11	218.90
762.43	218.85
762.76	218.71
763.08	218.71
763.41	218.71
763.74	218.62
764.06	218.57
764.39	218.51
764.71	218.36
765.04	218.31
765.37	218.14
765.69	218.04
766.02	217.93
766.34	217.82
766.67	217.58
767.00	217.55
767.32	217.63
767.65	217.77
767.97	217.65
768.30	217.56
768.62	217.46
768.95	217.27
769.27	217.14
769.60	217.17
769.92	217.06
770.25	216.89
770.57	216.78
770.90	216.73
771.22	216.66
771.55	216.65
771.87	216.59
772.20	216.52
772.52	216.83
772.85	217.14
773.17	217.13
773.50	217.13
773.82	216.97
774.15	216.78
774.47	216.50
774.80	216.41
775.12	216.37
775.45	216.36
775.77	216.41
776.09	216.41
776.42	216.29
776.74	216.29
777.07	216.23
777.39	216.23
777.72	216.10
778.04	216.04
778.36	215.98
778.69	215.95
779.01	215.95
779.33	215.58
779.66	215.12
779.98	215.06
780.31	214.95
780.63	215.15
780.95	215.12
781.28	215.06
781.60	215.04
781.92	215.06
782.25	215.13
782.57	215.09
782.89	215.06
783.22	215.06
783.54	214.98
783.86	214.95
784.19	214.94
784.51	215.03
784.83	214.99
785.16	215.00
785.48	214.99
785.80	214.97
786.12	214.92
786.45	215.00
786.77	214.98
787.09	215.00
787.42	214.89
787.74	214.94
788.06	214.93
788.38	214.89
788.71	214.72
789.03	214.66
789.35	214.65
789.67	214.56
789.99	214.52
790.32	214.52
790.64	214.56
790.96	214.82
791.28	214.71
791.61	214.70
791.93	214.69
792.25	214.65
792.57	214.83
792.89	214.84
793.21	214.77
793.54	214.71
793.86	214.62
794.18	214.56
794.50	214.41
794.82	214.44
795.14	214.45
795.47	214.51
795.79	214.50
796.11	214.47
796.43	214.44
796.75	214.43
797.07	214.36
797.39	214.28
797.71	214.02
798.04	214.02
798.36	213.97
798.68	213.94
799.00	213.85
799.32	213.67
799.64	213.71
799.96	213.65
800.28	213.69
800.60	213.68
800.92	213.65
801.24	213.62
801.56	213.65
801.89	213.57
802.21	213.58
802.53	213.47
802.85	213.46
803.17	213.61
803.49	213.50
803.81	213.49
804.13	213.48
804.45	213.40
804.77	213.38
805.09	213.38
805.41	213.31
805.73	213.25
806.05	213.16
806.37	213.07
806.69	213.01
807.01	212.95
807.33	212.86
807.65	212.67
807.97	212.77
808.28	212.68
808.60	212.64
808.92	212.58
809.24	212.78
809.56	212.72
809.88	212.54
810.20	212.65
810.52	212.68
810.84	212.51
811.16	212.44
811.48	212.38
811.80	212.47
812.12	212.39
812.43	212.47
812.75	212.44
813.07	212.47
813.39	212.44
813.71	212.30
814.03	212.36
814.35	212.48
814.67	212.40
814.98	212.30
815.30	212.31
815.62	212.28
815.94	212.06
816.26	212.03
816.58	211.99
816.89	211.95
817.21	211.91
817.53	212.02
817.85	211.98
818.17	212.03
818.48	211.89
818.80	211.97
819.12	211.90
819.44	211.85
819.76	211.79
820.07	211.85
820.39	211.92
820.71	211.91
821.03	211.90
821.34	211.80
821.66	211.85
821.98	211.89
822.30	211.82
822.61	212.02
822.93	211.98
823.25	211.99
823.57	211.92
823.88	211.98
824.20	211.95
824.52	212.01
824.83	211.93
825.15	211.96
825.47	212.02
825.79	212.07
826.10	212.08
826.42	212.02
826.74	212.07
827.05	212.02
827.37	211.96
827.69	211.93
828.00	212.02
828.32	212.00
828.64	211.96
828.95	212.21
829.27	212.04
829.58	212.12
829.90	212.23
830.22	212.25
830.53	212.17
830.85	212.16
831.17	212.17
831.48	212.18
831.80	212.12
832.11	212.03
832.43	211.95
832.75	211.98
833.06	212.19
833.38	212.07
833.69	212.07
834.01	212.18
834.32	212.12
834.64	212.04
834.96	212.11
835.27	212.04
835.59	211.93
835.90	211.90
836.22	211.87
836.53	211.77
836.85	211.78
837.16	212.07
837.48	212.05
837.79	212.10
838.11	212.16
838.42	212.17
838.74	212.25
839.05	212.21
839.37	212.17
839.68	211.96
840.00	211.95
840.31	212.07
840.63	212.05
840.94	212.05
841.26	212.04
841.57	212.01
841.88	212.13
842.20	212.01
842.51	212.03
842.83	212.01
843.14	212.30
843.46	212.31
843.77	212.07
844.08	212.11
844.40	212.01
844.71	211.95
845.03	211.95
845.34	211.85
845.65	211.85
845.97	211.84
846.28	211.86
846.60	211.85
846.91	211.70
847.22	211.70
847.54	211.76
847.85	211.79
848.16	211.81
848.48	211.60
848.79	211.79
849.10	211.78
849.42	211.82
849.73	211.53
850.04	211.47
850.36	211.40
850.67	211.45
850.98	211.47
851.30	211.47
851.61	211.46
851.92	211.49
852.23	211.61
852.55	211.61
852.86	211.63
853.17	211.69
853.49	211.82
853.80	211.84
854.11	211.85
854.42	211.90
854.74	211.83
855.05	211.93
855.36	211.73
855.67	211.72
855.99	211.70
856.30	212.08
856.61	212.07
856.92	212.13
857.23	212.10
857.55	212.03
857.86	211.99
858.17	212.02
858.48	212.00
858.79	211.93
859.11	211.99
859.42	211.99
859.73	211.99
860.04	211.89
860.35	211.77
860.66	211.70
860.98	211.70
861.29	211.80
861.60	211.80
861.91	211.94
862.22	211.92
862.53	211.84
862.84	211.45
863.16	211.60
863.47	211.44
863.78	211.40
864.09	211.50
864.40	211.55
864.71	211.57
865.02	211.59
865.33	211.55
865.64	211.48
865.95	211.51
866.27	211.73
866.58	211.73
866.89	211.75
867.20	211.77
867.51	211.65
867.82	211.53
868.13	211.58
868.44	211.40
868.75	211.39
869.06	211.36
869.37	211.35
869.68	211.20
869.99	211.26
870.30	211.31
870.61	211.31
870.92	211.15
871.23	211.10
871.54	211.15
871.85	211.21
872.16	211.30
872.47	211.23
872.78	210.98
873.09	211.09
873.40	211.10
873.71	211.05
874.02	211.05
874.33	210.97
874.64	210.94
874.95	211.06
875.26	211.00
875.56	211.01
875.87	210.95
876.18	210.90
876.49	211.27
876.80	211.21
877.11	211.16
877.42	211.20
877.73	211.20
878.04	211.12
878.35	211.11
878.66	211.06
878.96	211.03
879.27	211.06
879.58	210.97
879.89	210.92
880.20	211.10
880.51	211.16
880.82	211.25
881.12	211.29
881.43	211.26
881.74	211.27
882.05	211.28
882.36	211.38
882.67	211.45
882.97	211.11
883.28	211.09
883.59	211.05
883.90	211.15
884.21	211.21
884.51	211.18
884.82	211.11
885.13	211.12
885.44	211.11
885.74	211.07
886.05	211.05
886.36	211.03
886.67	210.87
886.98	211.00
887.28	211.01
887.59	211.05
887.90	211.01
888.20	211.01
888.51	211.13
888.82	211.06
889.13	211.06
889.43	211.28
889.74	211.27
890.05	211.35
890.35	211.28
890.66	211.25
890.97	211.19
891.28	211.18
891.58	211.17
891.89	211.17
892.20	211.12
892.50	211.08
892.81	211.16
893.12	211.20
893.42	211.05
893.73	211.11
894.04	211.03
894.34	211.01
894.65	210.99
894.95	210.88
895.26	210.94
895.57	211.14
895.87	210.82
896.18	210.86
896.48	210.80
896.79	210.80
897.10	210.81
897.40	210.88
897.71	210.97
898.01	210.97
898.32	211.05
898.63	211.04
898.93	211.10
899.24	211.09
899.54	211.02
899.85	210.97
900.15	210.90
900.46	210.90
900.76	210.96
901.07	210.97
901.38	210.98
901.68	211.00
901.99	210.78
902.29	210.87
902.60	210.83
902.90	210.77
903.21	210.82
903.51	210.84
903.82	210.90
904.12	210.85
904.43	210.83
904.73	210.77
905.03	210.84
905.34	211.12
905.64	211.08
905.95	211.06
906.25	211.12
906.56	211.12
906.86	211.14
907.17	211.12
907.47	211.10
907.77	211.14
908.08	211.05
908.38	211.09
908.69	211.12
908.99	211.17
909.30	211.26
909.60	211.21
909.90	211.23
910.21	211.13
910.51	211.09
910.81	211.14
911.12	211.20
911.42	211.18
911.73	210.84
912.03	210.87
912.33	210.99
912.64	210.98
912.94	210.97
913.24	210.91
913.55	210.93
913.85	211.00
914.15	210.97
914.46	211.03
914.76	211.00
915.06	211.05
915.37	211.03
915.67	210.98
915.97	211.05
916.27	210.97
916.58	210.99
916.88	210.96
917.18	210.94
917.49	211.19
917.79	211.12
918.09	211.24
918.39	211.26
918.70	211.24
919.00	211.25
919.30	211.46
919.60	211.42
919.91	211.37
920.21	211.37
920.51	211.41
920.81	211.40
921.12	211.43
921.42	211.37
921.72	211.43
922.02	211.46
922.32	211.50
922.63	211.47
922.93	211.65
923.23	211.69
923.53	211.68
923.83	211.41
924.13	211.54
924.44	211.47
924.74	211.61
925.04	211.65
925.34	211.56
925.64	211.39
925.94	211.40
926.24	211.64
926.55	211.60
926.85	211.63
927.15	211.66
927.45	211.72
927.75	211.71
928.05	211.61
928.35	211.54
928.65	211.59
928.95	211.65
929.26	211.51
929.56	211.58
929.86	211.58
930.16	211.57
930.46	211.50
930.76	211.55
931.06	211.31
931.36	211.22
931.66	211.38
931.96	211.45
932.26	211.50
932.56	211.28
932.86	211.28
933.16	211.24
933.46	211.17
933.76	211.09
934.06	211.12
934.36	211.28
934.66	211.39
934.96	211.31
935.26	211.35
935.56	211.37
935.86	211.19
936.16	211.15
936.46	211.04
936.76	211.03
937.06	210.93
937.36	211.00
937.66	211.04
937.96	210.98
938.26	210.84
938.56	210.81
938.86	210.82
939.16	210.81
939.46	210.86
939.76	210.88
940.06	210.80
940.35	210.74
940.65	210.57
940.95	210.48
941.25	210.38
941.55	210.31
941.85	210.28
942.15	210.48
942.45	210.57
942.75	210.61
943.04	210.55
943.34	210.68
943.64	210.70
943.94	210.64
944.24	210.61
944.54	210.66
944.84	210.61
945.13	210.58
945.43	210.66
945.73	210.55
946.03	210.49
946.33	210.57
946.62	210.46
946.92	210.47
947.22	210.48
947.52	210.56
947.82	210.59
948.11	210.65
948.41	210.49
948.71	210.39
949.01	210.39
949.31	210.42
949.60	210.30
949.90	210.35
950.20	210.40
950.50	210.35
950.79	210.35
951.09	210.44
951.39	210.46
951.69	210.35
951.98	210.47
952.28	210.55
952.58	210.53
952.87	210.62
953.17	210.68
953.47	210.68
953.76	210.61
954.06	210.59
954.36	210.47
954.66	210.46
954.95	210.55
955.25	210.69
955.55	210.68
955.84	210.69
956.14	210.65
956.44	210.65
956.73	210.65
957.03	210.63
957.32	210.61
957.62	210.62
957.92	210.71
958.21	210.61
958.51	210.96
958.81	210.94
959.10	210.92
959.40	210.96
959.69	210.98
959.99	211.15
960.29	211.14
960.58	211.15
960.88	211.37
961.17	211.31
961.47	211.27
961.76	211.28
962.06	211.34
962.36	211.34
962.65	211.35
962.95	211.38
963.24	211.28
963.54	211.38
963.83	211.40
964.13	211.37
964.42	211.33
964.72	211.10
965.01	211.12
965.31	211.12
965.60	211.09
965.90	211.34
966.19	211.17
966.49	211.21
966.78	211.21
967.08	211.21
967.37	211.32
967.67	211.23
967.96	211.38
968.26	211.35
968.55	211.39
968.85	211.40
969.14	211.45
969.43	211.40
969.73	211.34
970.02	211.33
970.32	211.36
970.61	211.42
970.91	211.27
971.20	211.29
971.49	211.29
971.79	211.33
972.08	211.08
972.38	211.12
972.67	211.08
972.96	211.10
973.26	210.95
973.55	211.03
973.85	211.05
974.14	210.92
974.43	210.96
974.73	210.91
975.02	210.83
975.31	210.79
975.61	210.91
975.90	210.90
976.19	210.84
976.49	210.85
976.78	210.93
977.07	210.95
977.37	210.99
977.66	211.07
977.95	211.01
978.24	210.98
978.54	211.09
978.83	211.08
979.12	211.10
979.42	211.05
979.71	210.95
980.00	210.88
980.29	210.94
980.59	210.83
980.88	210.90
981.17	210.95
981.46	210.99
981.76	210.97
982.05	211.03
982.34	211.05
982.63	211.02
982.93	210.95
983.22	211.00
983.51	210.92
983.80	210.91
984.09	211.01
984.39	211.07
984.68	210.94
984.97	210.95
985.26	210.94
985.55	211.07
985.85	211.03
986.14	211.09
986.43	211.20
986.72	211.22
987.01	211.18
987.30	211.13
987.59	211.10
987.89	211.10
988.18	210.97
988.47	210.97
988.76	210.95
989.05	210.97
989.34	210.93
989.63	211.02
989.92	210.97
990.22	210.80
990.51	210.80
990.80	210.82
991.09	210.86
991.38	210.89
991.67	210.89
991.96	210.77
992.25	210.86
992.54	210.67
992.83	210.66
993.12	210.60
993.41	210.66
993.70	210.82
993.99	210.95
994.28	211.09
994.58	211.18
994.87	211.26
995.16	211.23
995.45	211.20
995.74	211.20
996.03	211.23
996.32	211.32
996.61	211.39
996.90	211.35
997.19	211.26
997.48	211.28
997.77	211.18
998.06	211.26
998.34	211.24
998.63	211.31
998.92	211.37
999.21	211.37
999.50	211.35
999.79	211.17
1000.08	211.14
1000.37	211.10
1000.66	211.01
1000.95	210.98
1001.24	210.97
1001.53	211.01
1001.82	210.88
1002.11	210.83
1002.40	210.85
1002.68	210.90
1002.97	211.17
1003.26	211.17
1003.55	211.09
1003.84	211.14
1004.13	211.28
1004.42	211.23
1004.71	211.17
1004.99	211.13
1005.28	211.29
1005.57	211.32
1005.86	211.31
1006.15	211.25
1006.44	211.20
1006.72	211.25
1007.01	211.22
1007.30	211.25
1007.59	211.19
1007.88	211.24
1008.17	211.24
1008.45	211.22
1008.74	211.01
1009.03	210.86
1009.32	210.90
1009.60	210.96
1009.89	210.98
1010.18	210.80
1010.47	210.77
1010.76	210.78
1011.04	210.79
1011.33	210.77
1011.62	210.77
1011.91	210.82
1012.19	210.87
1012.48	210.92
1012.77	210.92
1013.05	211.08
1013.34	211.11
1013.63	211.15
1013.92	211.15
1014.20	211.13
1014.49	211.13
1014.78	211.20
1015.06	211.06
1015.35	211.06
1015.64	211.07
1015.92	211.09
1016.21	211.16
1016.50	211.18
1016.78	211.30
1017.07	211.26
1017.36	211.19
1017.64	211.18
1017.93	211.16
1018.22	211.11
1018.50	211.05
1018.79	211.09
1019.08	210.87
1019.36	210.86
1019.65	210.84
1019.93	210.97
1020.22	210.96
1020.51	211.12
1020.79	211.09
1021.08	210.80
1021.36	210.05
1021.65	212.60
1021.94	209.75
1022.22	211.60
1022.51	210.30
1022.79	213.10
1023.08	209.95
1023.36	214.85
1023.65	209.50
>>>>>End Processed Spectral Data<<<<<
