SpectraSuite Data File
++++++++++++++++++++++++++++++++++++
Date: Mon Feb 25 17:17:04 EST 2013
User: group
Dark Spectrum Present: No
Reference Spectrum Present: No
Number of Sampled Component Spectra: 1
Spectrometers: USB2E7196
Integration Time (usec): 104000 (USB2E7196)
Spectra Averaged: 20 (USB2E7196)
Boxcar Smoothing: 10 (USB2E7196)
Correct for Electrical Dark: No (USB2E7196)
Strobe/Lamp Enabled: No (USB2E7196)
Correct for Detector Non-linearity: No (USB2E7196)
Correct for Stray Light: No (USB2E7196)
Number of Pixels in Processed Spectrum: 2048
>>>>>Begin Processed Spectral Data<<<<<
339.09	0.00
339.48	198.90
339.86	199.80
340.24	201.45
340.63	203.05
341.01	210.55
341.39	206.20
341.78	207.15
342.16	209.90
342.54	209.35
342.93	198.45
343.31	208.49
343.69	209.05
344.07	209.52
344.46	209.99
344.84	210.39
345.22	210.39
345.60	210.65
345.99	210.82
346.37	210.91
346.75	211.06
347.13	211.15
347.52	211.22
347.90	211.39
348.28	211.41
348.66	211.51
349.05	211.48
349.43	211.57
349.81	211.60
350.19	211.62
350.57	211.68
350.96	211.73
351.34	211.80
351.72	211.85
352.10	212.03
352.48	212.10
352.87	212.20
353.25	212.25
353.63	212.26
354.01	212.38
354.39	212.48
354.77	212.52
355.15	212.64
355.54	212.65
355.92	212.58
356.30	212.66
356.68	213.00
357.06	213.08
357.44	213.09
357.82	213.20
358.20	213.40
358.58	213.47
358.97	213.56
359.35	213.65
359.73	213.84
360.11	213.84
360.49	213.92
360.87	213.96
361.25	214.13
361.63	214.34
362.01	214.39
362.39	214.45
362.77	214.49
363.15	214.58
363.53	214.69
363.91	214.75
364.29	214.81
364.67	214.45
365.05	214.48
365.43	214.58
365.81	214.67
366.19	214.85
366.57	215.01
366.95	215.00
367.33	215.00
367.71	214.96
368.09	215.08
368.47	215.01
368.85	215.03
369.23	215.05
369.61	214.90
369.99	214.98
370.37	214.95
370.75	215.08
371.13	214.94
371.51	214.81
371.89	214.87
372.27	214.80
372.65	214.88
373.03	214.87
373.41	214.85
373.78	214.78
374.16	214.56
374.54	214.40
374.92	214.39
375.30	214.40
375.68	214.25
376.06	214.18
376.44	214.18
376.82	214.08
377.19	214.06
377.57	214.08
377.95	213.91
378.33	213.89
378.71	213.69
379.09	213.70
379.47	213.75
379.84	213.63
380.22	213.57
380.60	213.47
380.98	213.40
381.36	213.33
381.73	213.23
382.11	213.25
382.49	213.26
382.87	213.17
383.25	213.09
383.62	213.54
384.00	213.44
384.38	213.39
384.76	213.48
385.13	213.53
385.51	213.47
385.89	213.39
386.27	213.30
386.64	213.32
387.02	213.26
387.40	213.23
387.78	213.19
388.15	213.25
388.53	213.15
388.91	213.11
389.29	213.03
389.66	213.06
390.04	212.97
390.42	212.97
390.79	212.94
391.17	212.87
391.55	212.46
391.92	212.45
392.30	212.41
392.68	212.27
393.05	212.18
393.43	212.17
393.81	212.26
394.18	212.24
394.56	212.22
394.94	212.29
395.31	212.19
395.69	212.30
396.06	212.35
396.44	212.44
396.82	212.45
397.19	212.63
397.57	212.54
397.95	212.59
398.32	212.49
398.70	212.55
399.07	212.71
399.45	212.62
399.82	212.65
400.20	212.68
400.58	212.75
400.95	212.66
401.33	212.75
401.70	212.99
402.08	213.09
402.45	213.11
402.83	213.27
403.20	213.35
403.58	213.39
403.95	213.50
404.33	213.56
404.71	213.65
405.08	213.92
405.46	214.07
405.83	214.19
406.21	214.38
406.58	214.54
406.96	214.62
407.33	214.90
407.70	215.15
408.08	215.65
408.45	215.87
408.83	216.20
409.20	216.40
409.58	216.47
409.95	216.80
410.33	217.14
410.70	217.33
411.08	217.71
411.45	218.10
411.82	218.44
412.20	219.00
412.57	219.67
412.95	219.86
413.32	220.39
413.69	220.90
414.07	221.46
414.44	222.09
414.82	222.80
415.19	223.54
415.56	224.27
415.94	224.90
416.31	225.86
416.68	226.77
417.06	227.85
417.43	228.91
417.81	230.03
418.18	231.20
418.55	232.50
418.93	233.84
419.30	235.27
419.67	236.75
420.04	238.24
420.42	239.75
420.79	241.84
421.16	243.71
421.54	245.72
421.91	247.75
422.28	249.82
422.66	251.94
423.03	254.25
423.40	256.43
423.77	258.81
424.15	261.19
424.52	263.69
424.89	266.36
425.26	268.90
425.64	271.35
426.01	274.08
426.38	276.90
426.75	279.85
427.13	282.72
427.50	285.82
427.87	289.05
428.24	292.31
428.61	295.17
428.99	298.69
429.36	302.25
429.73	305.78
430.10	309.40
430.47	313.11
430.85	316.70
431.22	320.86
431.59	325.26
431.96	329.27
432.33	333.79
432.70	338.21
433.08	343.42
433.45	348.24
433.82	353.00
434.19	358.41
434.56	363.66
434.93	368.60
435.30	373.57
435.68	379.02
436.05	384.46
436.42	389.85
436.79	394.75
437.16	400.09
437.53	405.79
437.90	411.28
438.27	416.70
438.64	422.45
439.01	427.62
439.38	432.04
439.75	436.60
440.13	441.64
440.50	446.44
440.87	450.25
441.24	454.44
441.61	458.93
441.98	462.17
442.35	465.84
442.72	469.85
443.09	473.65
443.46	475.86
443.83	477.17
444.20	478.48
444.57	480.27
444.94	481.13
445.31	481.99
445.68	483.03
446.05	483.34
446.42	482.63
446.79	481.96
447.16	481.20
447.53	480.56
447.90	478.36
448.27	476.17
448.64	473.17
449.01	470.96
449.37	467.17
449.74	463.48
450.11	459.47
450.48	454.60
450.85	449.70
451.22	445.63
451.59	441.74
451.96	437.93
452.33	432.94
452.70	428.40
453.07	422.91
453.43	417.22
453.80	411.90
454.17	406.93
454.54	402.07
454.91	397.03
455.28	392.08
455.65	387.48
456.02	383.34
456.38	379.40
456.75	374.51
457.12	370.51
457.49	366.52
457.86	362.39
458.23	359.21
458.59	355.55
458.96	351.80
459.33	348.55
459.70	345.42
460.07	342.85
460.43	339.89
460.80	337.13
461.17	334.85
461.54	332.35
461.91	329.90
462.27	327.43
462.64	325.27
463.01	322.96
463.38	320.84
463.74	318.17
464.11	316.29
464.48	314.58
464.85	312.63
465.21	311.30
465.58	309.85
465.95	308.02
466.32	306.61
466.68	305.15
467.05	303.73
467.42	302.19
467.78	300.63
468.15	299.14
468.52	298.27
468.88	296.70
469.25	295.49
469.62	294.59
469.98	293.58
470.35	292.64
470.72	291.76
471.08	290.74
471.45	289.99
471.82	289.20
472.18	288.38
472.55	287.89
472.92	287.13
473.28	286.50
473.65	285.92
474.02	285.28
474.38	284.94
474.75	284.68
475.11	284.25
475.48	284.09
475.85	284.02
476.21	283.77
476.58	283.72
476.94	283.79
477.31	283.75
477.67	283.79
478.04	283.90
478.41	283.97
478.77	284.49
479.14	284.56
479.50	284.85
479.87	285.19
480.23	285.63
480.60	285.91
480.96	286.27
481.33	286.95
481.69	287.56
482.06	288.15
482.42	288.71
482.79	289.52
483.15	290.31
483.52	291.19
483.88	292.11
484.25	293.14
484.61	294.14
484.98	295.30
485.34	296.65
485.71	298.11
486.07	299.65
486.44	300.87
486.80	302.63
487.17	304.39
487.53	306.25
487.90	308.18
488.26	310.47
488.62	312.86
488.99	315.14
489.35	317.65
489.72	320.24
490.08	322.98
490.44	325.80
490.81	328.74
491.17	331.90
491.54	335.27
491.90	338.70
492.26	342.37
492.63	346.24
492.99	350.25
493.36	354.35
493.72	358.80
494.08	363.57
494.45	368.36
494.81	373.51
495.17	378.61
495.54	384.05
495.90	389.78
496.26	395.71
496.63	401.96
496.99	408.42
497.35	415.26
497.72	422.40
498.08	429.65
498.44	437.44
498.80	445.56
499.17	453.80
499.53	462.34
499.89	471.33
500.26	480.30
500.62	489.45
500.98	499.31
501.34	509.20
501.71	519.57
502.07	530.23
502.43	541.31
502.79	552.76
503.16	564.59
503.52	576.59
503.88	588.94
504.24	601.58
504.60	614.72
504.97	628.26
505.33	642.08
505.69	656.72
506.05	671.41
506.41	686.38
506.78	701.60
507.14	717.30
507.50	733.14
507.86	749.70
508.22	766.62
508.59	783.67
508.95	801.44
509.31	819.32
509.67	837.60
510.03	856.14
510.39	875.37
510.75	894.75
511.12	914.47
511.48	934.42
511.84	954.84
512.20	975.08
512.56	995.86
512.92	1017.09
513.28	1038.39
513.64	1059.91
514.00	1081.55
514.37	1103.56
514.73	1125.88
515.09	1148.54
515.45	1170.99
515.81	1193.63
516.17	1216.66
516.53	1239.61
516.89	1262.60
517.25	1285.71
517.61	1308.85
517.97	1332.16
518.33	1355.54
518.69	1378.89
519.05	1402.64
519.41	1426.36
519.77	1450.56
520.13	1474.25
520.49	1497.51
520.85	1521.09
521.21	1544.99
521.57	1569.02
521.93	1592.27
522.29	1616.54
522.65	1640.64
523.01	1664.10
523.37	1687.38
523.73	1710.79
524.09	1734.15
524.45	1757.67
524.81	1781.16
525.17	1804.87
525.53	1828.17
525.89	1851.04
526.25	1874.35
526.61	1896.56
526.97	1918.71
527.33	1940.99
527.68	1963.40
528.04	1985.28
528.40	2006.33
528.76	2027.39
529.12	2049.03
529.48	2071.32
529.84	2092.33
530.20	2112.75
530.56	2134.13
530.91	2155.80
531.27	2176.87
531.63	2197.40
531.99	2217.64
532.35	2237.24
532.71	2256.37
533.07	2276.18
533.42	2295.10
533.78	2313.99
534.14	2332.84
534.50	2350.13
534.86	2368.33
535.21	2385.03
535.57	2403.47
535.93	2420.91
536.29	2437.87
536.65	2454.19
537.00	2469.75
537.36	2484.80
537.72	2499.88
538.08	2514.70
538.44	2529.05
538.79	2543.41
539.15	2557.75
539.51	2571.83
539.87	2586.62
540.22	2600.50
540.58	2614.10
540.94	2627.67
541.29	2639.37
541.65	2650.83
542.01	2663.64
542.37	2674.67
542.72	2686.52
543.08	2696.47
543.44	2707.88
543.79	2717.60
544.15	2726.69
544.51	2736.35
544.87	2746.22
545.22	2754.91
545.58	2762.97
545.94	2770.19
546.29	2776.54
546.65	2782.45
547.01	2788.22
547.36	2793.60
547.72	2799.00
548.07	2802.75
548.43	2806.96
548.79	2811.00
549.14	2815.08
549.50	2818.51
549.86	2821.53
550.21	2824.28
550.57	2827.18
550.92	2828.57
551.28	2830.20
551.64	2832.07
551.99	2833.95
552.35	2834.63
552.70	2835.91
553.06	2837.25
553.41	2838.21
553.77	2839.16
554.13	2839.71
554.48	2840.05
554.84	2840.67
555.19	2839.90
555.55	2839.20
555.90	2837.56
556.26	2836.23
556.61	2834.75
556.97	2832.63
557.32	2831.26
557.68	2828.82
558.03	2826.70
558.39	2824.90
558.74	2823.78
559.10	2822.26
559.45	2819.30
559.81	2817.11
560.16	2814.05
560.52	2811.08
560.87	2808.38
561.23	2804.54
561.58	2802.11
561.94	2798.35
562.29	2793.12
562.64	2789.55
563.00	2786.34
563.35	2783.76
563.71	2781.23
564.06	2777.87
564.42	2774.89
564.77	2771.81
565.12	2768.67
565.48	2765.00
565.83	2761.15
566.19	2757.50
566.54	2752.31
566.89	2747.75
567.25	2743.26
567.60	2738.87
567.96	2734.03
568.31	2729.03
568.66	2723.90
569.02	2717.85
569.37	2711.51
569.72	2706.34
570.08	2700.57
570.43	2694.31
570.78	2687.46
571.14	2680.20
571.49	2673.37
571.84	2667.19
572.20	2659.21
572.55	2652.36
572.90	2644.53
573.26	2636.14
573.61	2627.93
573.96	2620.27
574.31	2611.44
574.67	2601.97
575.02	2592.48
575.37	2583.43
575.72	2573.65
576.08	2565.29
576.43	2555.92
576.78	2547.78
577.13	2539.72
577.49	2531.08
577.84	2522.25
578.19	2514.01
578.54	2506.45
578.90	2498.83
579.25	2489.46
579.60	2480.24
579.95	2470.60
580.30	2462.35
580.66	2454.54
581.01	2445.45
581.36	2436.04
581.71	2427.44
582.06	2419.45
582.42	2411.31
582.77	2401.95
583.12	2393.59
583.47	2385.49
583.82	2377.78
584.17	2369.07
584.53	2360.09
584.88	2351.29
585.23	2342.61
585.58	2334.12
585.93	2324.89
586.28	2316.09
586.63	2307.74
586.98	2299.52
587.34	2291.65
587.69	2282.68
588.04	2274.02
588.39	2265.65
588.74	2257.08
589.09	2249.23
589.44	2240.17
589.79	2232.07
590.14	2224.40
590.49	2215.98
590.84	2207.35
591.19	2199.65
591.54	2191.43
591.89	2182.08
592.25	2173.20
592.60	2164.17
592.95	2154.66
593.30	2144.87
593.65	2135.14
594.00	2125.75
594.35	2118.40
594.70	2109.48
595.05	2100.98
595.40	2092.32
595.75	2082.96
596.10	2074.78
596.45	2066.18
596.80	2058.54
597.15	2050.63
597.50	2041.80
597.85	2033.61
598.19	2024.75
598.54	2015.79
598.89	2007.72
599.24	2000.91
599.59	1993.54
599.94	1986.76
600.29	1979.51
600.64	1972.19
600.99	1964.12
601.34	1957.03
601.69	1947.92
602.04	1939.61
602.39	1931.65
602.74	1923.72
603.08	1917.36
603.43	1910.59
603.78	1903.32
604.13	1895.72
604.48	1887.97
604.83	1881.78
605.18	1875.46
605.53	1868.10
605.87	1860.29
606.22	1853.35
606.57	1845.37
606.92	1837.55
607.27	1829.36
607.62	1821.33
607.96	1814.59
608.31	1808.22
608.66	1800.01
609.01	1792.33
609.36	1784.52
609.70	1776.44
610.05	1768.27
610.40	1759.73
610.75	1751.02
611.10	1743.07
611.44	1733.70
611.79	1724.79
612.14	1715.28
612.49	1705.39
612.83	1696.67
613.18	1687.44
613.53	1677.93
613.88	1668.38
614.22	1659.60
614.57	1650.35
614.92	1641.48
615.27	1631.94
615.61	1622.56
615.96	1613.94
616.31	1605.69
616.65	1598.00
617.00	1589.62
617.35	1581.29
617.70	1572.27
618.04	1563.00
618.39	1553.18
618.74	1545.15
619.08	1536.45
619.43	1527.77
619.78	1519.64
620.12	1511.09
620.47	1503.28
620.82	1494.29
621.16	1485.79
621.51	1477.20
621.85	1468.79
622.20	1459.89
622.55	1451.17
622.89	1442.35
623.24	1433.76
623.59	1424.65
623.93	1415.77
624.28	1407.50
624.62	1399.11
624.97	1390.95
625.32	1383.07
625.66	1375.41
626.01	1367.40
626.35	1359.41
626.70	1351.54
627.04	1343.85
627.39	1336.33
627.73	1328.21
628.08	1321.05
628.43	1312.92
628.77	1304.84
629.12	1297.03
629.46	1290.40
629.81	1282.99
630.15	1275.50
630.50	1268.08
630.84	1260.29
631.19	1252.63
631.53	1245.02
631.88	1236.79
632.22	1228.82
632.57	1221.32
632.91	1213.66
633.26	1205.98
633.60	1198.66
633.95	1191.57
634.29	1183.76
634.64	1176.68
634.98	1169.18
635.32	1161.83
635.67	1155.55
636.01	1148.78
636.36	1141.59
636.70	1134.39
637.05	1127.53
637.39	1120.89
637.73	1114.27
638.08	1108.37
638.42	1102.11
638.77	1095.54
639.11	1089.12
639.45	1082.79
639.80	1075.90
640.14	1068.84
640.49	1062.24
640.83	1055.60
641.17	1048.69
641.52	1042.03
641.86	1034.90
642.20	1028.17
642.55	1021.29
642.89	1014.08
643.23	1007.08
643.58	1000.90
643.92	993.65
644.26	986.84
644.61	980.14
644.95	973.23
645.29	966.27
645.64	959.26
645.98	952.52
646.32	946.31
646.66	939.61
647.01	933.20
647.35	927.47
647.69	920.83
648.04	914.45
648.38	908.06
648.72	901.74
649.06	895.33
649.41	889.35
649.75	883.34
650.09	877.25
650.43	871.13
650.78	864.68
651.12	858.46
651.46	852.30
651.80	846.39
652.14	840.64
652.49	834.42
652.83	828.11
653.17	821.67
653.51	815.42
653.85	809.59
654.20	803.70
654.54	797.38
654.88	791.43
655.22	785.21
655.56	779.08
655.90	773.22
656.25	767.35
656.59	761.44
656.93	755.75
657.27	750.15
657.61	744.14
657.95	738.56
658.29	733.33
658.64	728.05
658.98	722.30
659.32	716.35
659.66	711.07
660.00	705.76
660.34	700.45
660.68	694.91
661.02	689.44
661.36	684.39
661.70	679.29
662.05	674.53
662.39	670.04
662.73	665.52
663.07	661.00
663.41	656.47
663.75	651.74
664.09	646.84
664.43	642.00
664.77	637.58
665.11	632.99
665.45	628.44
665.79	623.88
666.13	619.44
666.47	615.14
666.81	610.82
667.15	606.61
667.49	602.85
667.83	598.87
668.17	594.88
668.51	590.81
668.85	587.00
669.19	583.18
669.53	578.96
669.87	574.86
670.21	570.82
670.55	566.93
670.89	563.38
671.23	559.93
671.57	556.32
671.91	552.72
672.25	549.00
672.58	545.46
672.92	541.93
673.26	538.47
673.60	535.16
673.94	531.55
674.28	528.26
674.62	524.84
674.96	521.57
675.30	518.43
675.64	515.12
675.97	511.83
676.31	508.74
676.65	505.79
676.99	503.03
677.33	499.74
677.67	496.70
678.01	493.44
678.34	490.36
678.68	487.46
679.02	484.53
679.36	481.71
679.70	478.65
680.04	475.68
680.37	472.75
680.71	469.92
681.05	467.33
681.39	464.52
681.73	461.75
682.06	459.19
682.40	456.51
682.74	453.87
683.08	451.30
683.42	448.38
683.75	445.70
684.09	442.79
684.43	440.24
684.77	437.61
685.10	435.07
685.44	432.35
685.78	429.75
686.12	427.42
686.45	424.96
686.79	422.57
687.13	420.35
687.46	418.16
687.80	415.85
688.14	413.28
688.48	411.04
688.81	408.62
689.15	406.28
689.49	403.90
689.82	401.62
690.16	399.07
690.50	396.78
690.83	394.49
691.17	392.24
691.51	390.13
691.84	388.06
692.18	385.98
692.52	384.08
692.85	382.18
693.19	380.13
693.52	378.05
693.86	376.06
694.20	374.02
694.53	372.00
694.87	369.95
695.21	368.15
695.54	366.06
695.88	364.16
696.21	362.14
696.55	360.41
696.88	358.59
697.22	356.88
697.56	355.24
697.89	353.56
698.23	351.90
698.56	350.17
698.90	348.64
699.23	346.92
699.57	345.14
699.90	343.36
700.24	341.64
700.58	340.04
700.91	338.51
701.25	337.11
701.58	335.65
701.92	334.16
702.25	332.66
702.59	331.21
702.92	329.68
703.26	328.32
703.59	326.77
703.93	325.67
704.26	324.34
704.60	322.93
704.93	321.50
705.26	320.08
705.60	318.84
705.93	317.32
706.27	316.21
706.60	315.09
706.94	314.02
707.27	312.71
707.61	311.47
707.94	310.16
708.27	308.81
708.61	307.50
708.94	306.40
709.28	305.26
709.61	304.12
709.94	303.13
710.28	302.00
710.61	301.02
710.95	299.61
711.28	298.79
711.61	297.77
711.95	296.83
712.28	295.80
712.61	294.69
712.95	293.90
713.28	292.96
713.61	291.96
713.95	290.89
714.28	290.11
714.61	289.18
714.95	288.25
715.28	287.22
715.61	286.29
715.95	285.30
716.28	284.40
716.61	283.53
716.95	282.57
717.28	281.82
717.61	280.90
717.94	280.08
718.28	278.97
718.61	278.15
718.94	277.33
719.27	276.56
719.61	275.92
719.94	275.17
720.27	274.32
720.60	273.49
720.94	272.75
721.27	271.99
721.60	271.35
721.93	270.68
722.27	270.16
722.60	269.56
722.93	268.89
723.26	268.23
723.59	267.58
723.93	267.02
724.26	266.28
724.59	265.75
724.92	265.23
725.25	264.73
725.59	264.13
725.92	263.57
726.25	263.03
726.58	262.42
726.91	261.73
727.24	261.14
727.57	260.65
727.91	260.09
728.24	259.61
728.57	259.02
728.90	258.57
729.23	257.91
729.56	257.50
729.89	257.05
730.22	256.61
730.55	256.15
730.89	255.64
731.22	255.13
731.55	254.61
731.88	254.08
732.21	253.64
732.54	253.07
732.87	252.53
733.20	252.07
733.53	251.66
733.86	251.28
734.19	250.83
734.52	250.46
734.85	250.24
735.18	249.75
735.51	249.45
735.84	249.06
736.17	248.81
736.50	248.27
736.83	248.22
737.16	247.72
737.49	247.30
737.82	246.86
738.15	246.57
738.48	246.11
738.81	245.68
739.14	245.20
739.47	244.87
739.80	244.59
740.13	244.28
740.46	243.76
740.79	243.32
741.12	242.93
741.45	242.44
741.78	241.93
742.11	241.62
742.44	241.24
742.77	240.85
743.10	240.45
743.43	240.15
743.75	239.45
744.08	239.60
744.41	239.25
744.74	238.93
745.07	238.59
745.40	238.31
745.73	238.27
746.06	237.99
746.39	237.79
746.71	237.45
747.04	237.13
747.37	236.87
747.70	236.69
748.03	236.42
748.36	236.25
748.68	235.93
749.01	235.62
749.34	235.30
749.67	235.07
750.00	234.89
750.33	234.86
750.65	234.72
750.98	233.99
751.31	233.73
751.64	233.52
751.97	233.42
752.29	233.17
752.62	232.73
752.95	232.50
753.28	232.15
753.60	231.96
753.93	231.77
754.26	231.58
754.59	231.27
754.91	231.07
755.24	230.88
755.57	230.65
755.90	230.43
756.22	230.17
756.55	229.95
756.88	229.66
757.20	229.15
757.53	228.76
757.86	228.55
758.19	228.44
758.51	228.20
758.84	227.81
759.17	227.63
759.49	227.53
759.82	227.46
760.15	227.34
760.47	227.09
760.80	226.87
761.13	226.68
761.45	226.50
761.78	226.33
762.11	226.09
762.43	225.93
762.76	225.74
763.08	225.69
763.41	225.55
763.74	225.40
764.06	225.31
764.39	225.16
764.71	224.97
765.04	224.81
765.37	224.65
765.69	224.49
766.02	224.32
766.34	224.03
766.67	223.82
767.00	223.63
767.32	223.65
767.65	223.68
767.97	223.52
768.30	223.37
768.62	223.13
768.95	222.93
769.27	222.82
769.60	222.71
769.92	222.50
770.25	222.34
770.57	222.13
770.90	221.95
771.22	221.83
771.55	221.78
771.87	221.64
772.20	221.57
772.52	221.78
772.85	222.05
773.17	221.98
773.50	221.80
773.82	221.67
774.15	221.46
774.47	221.24
774.80	221.14
775.12	221.02
775.45	220.98
775.77	220.99
776.09	220.90
776.42	220.80
776.74	220.78
777.07	220.61
777.39	220.56
777.72	220.43
778.04	220.34
778.36	220.21
778.69	220.16
779.01	220.07
779.33	219.74
779.66	219.24
779.98	219.10
780.31	219.00
780.63	219.06
780.95	219.06
781.28	218.85
781.60	218.69
781.92	218.57
782.25	218.44
782.57	218.33
782.89	218.21
783.22	218.12
783.54	217.94
783.86	217.90
784.19	217.78
784.51	217.84
784.83	217.78
785.16	217.71
785.48	217.60
785.80	217.53
786.12	217.48
786.45	217.46
786.77	217.48
787.09	217.41
787.42	217.25
787.74	217.05
788.06	217.06
788.38	217.00
788.71	217.03
789.03	216.96
789.35	216.86
789.67	216.72
789.99	216.66
790.32	216.58
790.64	216.56
790.96	216.79
791.28	216.65
791.61	216.57
791.93	216.55
792.25	216.48
792.57	216.68
792.89	216.54
793.21	216.48
793.54	216.34
793.86	216.26
794.18	216.23
794.50	216.13
794.82	216.14
795.14	216.13
795.47	216.09
795.79	216.13
796.11	216.05
796.43	216.01
796.75	215.97
797.07	216.03
797.39	215.99
797.71	215.70
798.04	215.69
798.36	215.64
798.68	215.66
799.00	215.65
799.32	215.43
799.64	215.54
799.96	215.52
800.28	215.56
800.60	215.50
800.92	215.50
801.24	215.48
801.56	215.39
801.89	215.32
802.21	215.27
802.53	215.15
802.85	215.24
803.17	215.37
803.49	215.31
803.81	215.18
804.13	215.10
804.45	215.02
804.77	215.02
805.09	215.00
805.41	214.86
805.73	214.75
806.05	214.66
806.37	214.60
806.69	214.57
807.01	214.54
807.33	214.59
807.65	214.49
807.97	214.64
808.28	214.63
808.60	214.65
808.92	214.59
809.24	214.76
809.56	214.58
809.88	214.49
810.20	214.49
810.52	214.62
810.84	214.61
811.16	214.56
811.48	214.48
811.80	214.54
812.12	214.60
812.43	214.62
812.75	214.60
813.07	214.46
813.39	214.42
813.71	214.35
814.03	214.25
814.35	214.19
814.67	214.04
814.98	214.00
815.30	213.95
815.62	213.90
815.94	213.68
816.26	213.78
816.58	213.66
816.89	213.60
817.21	213.47
817.53	213.48
817.85	213.59
818.17	213.58
818.48	213.50
818.80	213.55
819.12	213.50
819.44	213.43
819.76	213.47
820.07	213.49
820.39	213.52
820.71	213.51
821.03	213.48
821.34	213.44
821.66	213.44
821.98	213.50
822.30	213.46
822.61	213.71
822.93	213.61
823.25	213.64
823.57	213.60
823.88	213.68
824.20	213.62
824.52	213.60
824.83	213.60
825.15	213.55
825.47	213.36
825.79	213.43
826.10	213.45
826.42	213.42
826.74	213.43
827.05	213.33
827.37	213.41
827.69	213.37
828.00	213.35
828.32	213.39
828.64	213.33
828.95	213.48
829.27	213.28
829.58	213.29
829.90	213.31
830.22	213.36
830.53	213.22
830.85	213.19
831.17	213.09
831.48	212.99
831.80	212.95
832.11	213.01
832.43	212.93
832.75	212.93
833.06	213.06
833.38	212.91
833.69	212.91
834.01	212.87
834.32	212.91
834.64	212.88
834.96	212.81
835.27	212.75
835.59	212.68
835.90	212.63
836.22	212.63
836.53	212.55
836.85	212.51
837.16	212.86
837.48	212.87
837.79	212.96
838.11	212.99
838.42	213.00
838.74	213.03
839.05	212.94
839.37	212.86
839.68	212.67
840.00	212.63
840.31	212.68
840.63	212.66
840.94	212.62
841.26	212.57
841.57	212.59
841.88	212.66
842.20	212.53
842.51	212.54
842.83	212.51
843.14	212.80
843.46	212.81
843.77	212.60
844.08	212.52
844.40	212.41
844.71	212.40
845.03	212.37
845.34	212.32
845.65	212.34
845.97	212.39
846.28	212.40
846.60	212.51
846.91	212.49
847.22	212.45
847.54	212.47
847.85	212.51
848.16	212.42
848.48	212.31
848.79	212.52
849.10	212.50
849.42	212.57
849.73	212.24
850.04	212.25
850.36	212.16
850.67	212.24
850.98	212.24
851.30	212.25
851.61	212.19
851.92	212.20
852.23	212.24
852.55	212.20
852.86	212.21
853.17	212.20
853.49	212.21
853.80	212.23
854.11	212.23
854.42	212.23
854.74	212.26
855.05	212.25
855.36	211.97
855.67	211.97
855.99	211.93
856.30	212.40
856.61	212.28
856.92	212.32
857.23	212.30
857.55	212.24
857.86	212.21
858.17	212.31
858.48	212.25
858.79	212.25
859.11	212.31
859.42	212.27
859.73	212.21
860.04	212.18
860.35	212.13
860.66	212.15
860.98	212.13
861.29	212.11
861.60	212.13
861.91	212.25
862.22	212.20
862.53	212.09
862.84	211.67
863.16	211.73
863.47	211.69
863.78	211.75
864.09	211.79
864.40	211.80
864.71	211.78
865.02	211.90
865.33	211.82
865.64	211.74
865.95	211.71
866.27	211.93
866.58	211.96
866.89	212.04
867.20	211.96
867.51	211.94
867.82	211.94
868.13	212.03
868.44	211.98
868.75	212.09
869.06	212.19
869.37	212.20
869.68	212.15
869.99	212.15
870.30	212.12
870.61	212.19
870.92	212.15
871.23	212.14
871.54	212.11
871.85	212.24
872.16	212.26
872.47	212.22
872.78	212.08
873.09	212.11
873.40	212.02
873.71	212.09
874.02	212.08
874.33	212.09
874.64	212.03
874.95	212.10
875.26	212.00
875.56	211.95
875.87	211.94
876.18	211.98
876.49	212.36
876.80	212.31
877.11	212.25
877.42	212.28
877.73	212.26
878.04	212.18
878.35	212.13
878.66	212.13
878.96	212.16
879.27	212.12
879.58	212.06
879.89	212.04
880.20	212.11
880.51	212.15
880.82	212.16
881.12	212.20
881.43	212.12
881.74	212.07
882.05	212.04
882.36	212.03
882.67	212.06
882.97	211.67
883.28	211.66
883.59	211.68
883.90	211.74
884.21	211.84
884.51	211.91
884.82	211.87
885.13	211.89
885.44	211.85
885.74	211.86
886.05	211.87
886.36	211.88
886.67	211.75
886.98	211.85
887.28	211.83
887.59	211.78
887.90	211.82
888.20	211.86
888.51	211.98
888.82	211.97
889.13	211.98
889.43	212.22
889.74	212.22
890.05	212.15
890.35	212.09
890.66	212.02
890.97	211.93
891.28	211.94
891.58	211.93
891.89	211.97
892.20	211.89
892.50	211.83
892.81	211.82
893.12	211.84
893.42	211.68
893.73	211.68
894.04	211.66
894.34	211.62
894.65	211.60
894.95	211.46
895.26	211.45
895.57	211.61
895.87	211.27
896.18	211.33
896.48	211.38
896.79	211.31
897.10	211.39
897.40	211.43
897.71	211.46
898.01	211.42
898.32	211.41
898.63	211.41
898.93	211.42
899.24	211.50
899.54	211.48
899.85	211.49
900.15	211.46
900.46	211.51
900.76	211.61
901.07	211.59
901.38	211.60
901.68	211.65
901.99	211.38
902.29	211.41
902.60	211.32
902.90	211.37
903.21	211.44
903.51	211.38
903.82	211.42
904.12	211.38
904.43	211.45
904.73	211.46
905.03	211.55
905.34	211.87
905.64	211.79
905.95	211.81
906.25	211.86
906.56	211.86
906.86	211.82
907.17	211.75
907.47	211.80
907.77	211.89
908.08	211.72
908.38	211.79
908.69	211.79
908.99	211.82
909.30	211.81
909.60	211.77
909.90	211.76
910.21	211.61
910.51	211.59
910.81	211.54
911.12	211.55
911.42	211.45
911.73	211.12
912.03	211.17
912.33	211.25
912.64	211.15
912.94	211.06
913.24	211.06
913.55	210.97
913.85	210.98
914.15	210.92
914.46	211.07
914.76	211.06
915.06	211.09
915.37	211.13
915.67	211.09
915.97	211.08
916.27	211.05
916.58	211.07
916.88	211.14
917.18	211.14
917.49	211.40
917.79	211.43
918.09	211.50
918.39	211.53
918.70	211.51
919.00	211.54
919.30	211.82
919.60	211.80
919.91	211.88
920.21	211.87
920.51	211.84
920.81	211.80
921.12	211.90
921.42	211.83
921.72	211.83
922.02	211.88
922.32	211.92
922.63	211.89
922.93	212.12
923.23	212.11
923.53	212.15
923.83	211.89
924.13	211.90
924.44	211.91
924.74	211.98
925.04	212.00
925.34	212.01
925.64	211.83
925.94	211.78
926.24	212.02
926.55	212.01
926.85	212.15
927.15	212.16
927.45	212.13
927.75	212.18
928.05	212.15
928.35	212.08
928.65	212.14
928.95	212.17
929.26	212.01
929.56	212.01
929.86	212.00
930.16	211.97
930.46	212.04
930.76	212.02
931.06	211.85
931.36	211.85
931.66	211.91
931.96	211.98
932.26	211.98
932.56	211.71
932.86	211.70
933.16	211.69
933.46	211.60
933.76	211.45
934.06	211.43
934.36	211.52
934.66	211.51
934.96	211.46
935.26	211.48
935.56	211.51
935.86	211.48
936.16	211.41
936.46	211.42
936.76	211.34
937.06	211.36
937.36	211.41
937.66	211.32
937.96	211.28
938.26	211.14
938.56	211.12
938.86	211.24
939.16	211.27
939.46	211.26
939.76	211.30
940.06	211.38
940.35	211.45
940.65	211.32
940.95	211.35
941.25	211.27
941.55	211.24
941.85	211.25
942.15	211.31
942.45	211.35
942.75	211.30
943.04	211.30
943.34	211.30
943.64	211.27
943.94	211.30
944.24	211.36
944.54	211.41
944.84	211.45
945.13	211.32
945.43	211.30
945.73	211.26
946.03	211.28
946.33	211.23
946.62	211.17
946.92	211.19
947.22	211.22
947.52	211.26
947.82	211.31
948.11	211.30
948.41	211.20
948.71	211.15
949.01	211.16
949.31	211.16
949.60	211.16
949.90	211.20
950.20	211.15
950.50	211.11
950.79	211.05
951.09	211.10
951.39	211.10
951.69	211.06
951.98	211.18
952.28	211.21
952.58	211.23
952.87	211.20
953.17	211.18
953.47	211.15
953.76	211.15
954.06	211.12
954.36	211.10
954.66	211.13
954.95	211.23
955.25	211.26
955.55	211.33
955.84	211.21
956.14	211.24
956.44	211.27
956.73	211.15
957.03	211.24
957.32	211.23
957.62	211.26
957.92	211.39
958.21	211.26
958.51	211.59
958.81	211.63
959.10	211.66
959.40	211.75
959.69	211.75
959.99	211.78
960.29	211.75
960.58	211.69
960.88	211.88
961.17	211.83
961.47	211.89
961.76	211.84
962.06	211.92
962.36	211.86
962.65	211.91
962.95	211.95
963.24	211.90
963.54	211.85
963.83	211.89
964.13	211.82
964.42	211.80
964.72	211.50
965.01	211.49
965.31	211.46
965.60	211.43
965.90	211.61
966.19	211.52
966.49	211.51
966.78	211.53
967.08	211.45
967.37	211.51
967.67	211.48
967.96	211.49
968.26	211.48
968.55	211.52
968.85	211.48
969.14	211.50
969.43	211.51
969.73	211.57
970.02	211.56
970.32	211.56
970.61	211.53
970.91	211.41
971.20	211.36
971.49	211.36
971.79	211.33
972.08	211.07
972.38	211.12
972.67	211.15
972.96	211.19
973.26	211.11
973.55	211.19
973.85	211.13
974.14	211.09
974.43	211.17
974.73	211.10
975.02	211.11
975.31	211.13
975.61	211.06
975.90	211.01
976.19	210.88
976.49	210.88
976.78	210.94
977.07	211.03
977.37	210.98
977.66	210.99
977.95	210.98
978.24	211.07
978.54	211.15
978.83	211.07
979.12	210.99
979.42	210.96
979.71	210.86
980.00	210.88
980.29	210.89
980.59	210.76
980.88	210.93
981.17	210.90
981.46	210.95
981.76	210.99
982.05	211.13
982.34	211.22
982.63	211.21
982.93	211.14
983.22	211.15
983.51	211.19
983.80	211.26
984.09	211.31
984.39	211.30
984.68	211.25
984.97	211.29
985.26	211.37
985.55	211.38
985.85	211.34
986.14	211.46
986.43	211.54
986.72	211.52
987.01	211.38
987.30	211.32
987.59	211.26
987.89	211.33
988.18	211.19
988.47	211.14
988.76	211.11
989.05	211.09
989.34	210.98
989.63	211.10
989.92	211.08
990.22	211.03
990.51	211.04
990.80	211.02
991.09	211.10
991.38	211.09
991.67	211.05
991.96	211.05
992.25	210.91
992.54	210.84
992.83	210.81
993.12	210.82
993.41	210.92
993.70	211.02
993.99	211.06
994.28	211.12
994.58	211.18
994.87	211.16
995.16	211.21
995.45	211.27
995.74	211.18
996.03	211.13
996.32	211.16
996.61	211.21
996.90	211.18
997.19	211.13
997.48	211.11
997.77	211.22
998.06	211.18
998.34	211.22
998.63	211.17
998.92	211.29
999.21	211.30
999.50	211.31
999.79	211.22
1000.08	211.15
1000.37	211.20
1000.66	211.12
1000.95	211.23
1001.24	211.19
1001.53	211.23
1001.82	211.20
1002.11	211.15
1002.40	211.21
1002.68	211.29
1002.97	211.56
1003.26	211.52
1003.55	211.49
1003.84	211.45
1004.13	211.60
1004.42	211.57
1004.71	211.61
1004.99	211.55
1005.28	211.61
1005.57	211.55
1005.86	211.54
1006.15	211.52
1006.44	211.45
1006.72	211.50
1007.01	211.45
1007.30	211.54
1007.59	211.48
1007.88	211.48
1008.17	211.54
1008.45	211.42
1008.74	211.23
1009.03	211.06
1009.32	211.07
1009.60	211.04
1009.89	210.98
1010.18	210.86
1010.47	210.82
1010.76	210.80
1011.04	210.86
1011.33	210.86
1011.62	210.94
1011.91	210.87
1012.19	210.90
1012.48	210.90
1012.77	210.96
1013.05	211.07
1013.34	211.09
1013.63	211.05
1013.92	211.07
1014.20	211.01
1014.49	211.11
1014.78	211.15
1015.06	211.04
1015.35	211.11
1015.64	211.17
1015.92	211.21
1016.21	211.17
1016.50	211.12
1016.78	211.17
1017.07	211.12
1017.36	211.02
1017.64	211.00
1017.93	211.09
1018.22	211.03
1018.50	210.93
1018.79	210.92
1019.08	210.82
1019.36	210.82
1019.65	210.88
1019.93	210.96
1020.22	211.09
1020.51	211.20
1020.79	211.19
1021.08	210.25
1021.36	209.05
1021.65	211.65
1021.94	211.95
1022.22	211.60
1022.51	211.55
1022.79	212.25
1023.08	212.30
1023.36	215.05
1023.65	209.85
>>>>>End Processed Spectral Data<<<<<
