SpectraSuite Data File
++++++++++++++++++++++++++++++++++++
Date: Mon Feb 25 17:11:41 EST 2013
User: group
Dark Spectrum Present: No
Reference Spectrum Present: No
Number of Sampled Component Spectra: 1
Spectrometers: USB2E7196
Integration Time (usec): 104000 (USB2E7196)
Spectra Averaged: 20 (USB2E7196)
Boxcar Smoothing: 10 (USB2E7196)
Correct for Electrical Dark: No (USB2E7196)
Strobe/Lamp Enabled: No (USB2E7196)
Correct for Detector Non-linearity: No (USB2E7196)
Correct for Stray Light: No (USB2E7196)
Number of Pixels in Processed Spectrum: 2048
>>>>>Begin Processed Spectral Data<<<<<
339.09	0.00
339.48	200.05
339.86	201.15
340.24	201.30
340.63	203.15
341.01	207.95
341.39	206.65
341.78	207.80
342.16	210.60
342.54	209.20
342.93	198.48
343.31	208.53
343.69	209.10
344.07	209.51
344.46	209.93
344.84	210.25
345.22	210.36
345.60	210.59
345.99	210.73
346.37	210.77
346.75	210.83
347.13	210.85
347.52	210.78
347.90	210.92
348.28	210.90
348.66	210.99
349.05	210.98
349.43	210.96
349.81	211.02
350.19	211.06
350.57	211.04
350.96	211.12
351.34	211.08
351.72	211.01
352.10	211.02
352.48	211.05
352.87	211.05
353.25	211.08
353.63	211.10
354.01	211.13
354.39	211.19
354.77	211.20
355.15	211.37
355.54	211.37
355.92	211.28
356.30	211.34
356.68	211.57
357.06	211.58
357.44	211.60
357.82	211.55
358.20	211.64
358.58	211.69
358.97	211.78
359.35	211.96
359.73	212.10
360.11	212.16
360.49	212.22
360.87	212.32
361.25	212.43
361.63	212.55
362.01	212.61
362.39	212.58
362.77	212.66
363.15	212.71
363.53	212.79
363.91	212.85
364.29	212.94
364.67	212.69
365.05	212.71
365.43	212.83
365.81	213.00
366.19	213.13
366.57	213.36
366.95	213.35
367.33	213.27
367.71	213.24
368.09	213.32
368.47	213.38
368.85	213.38
369.23	213.45
369.61	213.38
369.99	213.50
370.37	213.60
370.75	213.80
371.13	213.66
371.51	213.62
371.89	213.69
372.27	213.61
372.65	213.57
373.03	213.58
373.41	213.47
373.78	213.40
374.16	213.19
374.54	213.02
374.92	213.01
375.30	213.01
375.68	212.94
376.06	212.94
376.44	212.87
376.82	212.88
377.19	212.85
377.57	212.77
377.95	212.60
378.33	212.49
378.71	212.21
379.09	212.24
379.47	212.20
379.84	212.09
380.22	212.06
380.60	211.99
380.98	211.96
381.36	211.93
381.73	211.81
382.11	211.90
382.49	211.80
382.87	211.65
383.25	211.61
383.62	212.05
384.00	211.90
384.38	211.94
384.76	211.87
385.13	211.89
385.51	211.91
385.89	211.77
386.27	211.78
386.64	211.82
387.02	211.75
387.40	211.75
387.78	211.72
388.15	211.71
388.53	211.63
388.91	211.59
389.29	211.55
389.66	211.55
390.04	211.46
390.42	211.54
390.79	211.58
391.17	211.44
391.55	211.02
391.92	211.06
392.30	211.00
392.68	211.02
393.05	210.96
393.43	210.89
393.81	210.98
394.18	210.93
394.56	210.90
394.94	210.95
395.31	210.99
395.69	211.11
396.06	211.18
396.44	211.25
396.82	211.19
397.19	211.41
397.57	211.35
397.95	211.31
398.32	211.20
398.70	211.21
399.07	211.35
399.45	211.32
399.82	211.32
400.20	211.30
400.58	211.28
400.95	211.16
401.33	211.27
401.70	211.43
402.08	211.40
402.45	211.50
402.83	211.59
403.20	211.60
403.58	211.55
403.95	211.70
404.33	211.81
404.71	211.87
405.08	212.08
405.46	212.16
405.83	212.29
406.21	212.34
406.58	212.41
406.96	212.50
407.33	212.64
407.70	212.81
408.08	213.24
408.45	213.41
408.83	213.60
409.20	213.68
409.58	213.72
409.95	214.01
410.33	214.16
410.70	214.26
411.08	214.47
411.45	214.73
411.82	214.80
412.20	215.07
412.57	215.55
412.95	215.51
413.32	215.94
413.69	216.31
414.07	216.73
414.44	217.16
414.82	217.63
415.19	218.14
415.56	218.58
415.94	218.90
416.31	219.52
416.68	220.20
417.06	220.92
417.43	221.67
417.81	222.46
418.18	223.26
418.55	224.05
418.93	224.95
419.30	225.88
419.67	226.93
420.04	227.96
420.42	229.04
420.79	230.54
421.16	231.72
421.54	233.11
421.91	234.43
422.28	235.82
422.66	237.25
423.03	238.81
423.40	240.33
423.77	241.91
424.15	243.48
424.52	245.12
424.89	246.86
425.26	248.50
425.64	250.09
426.01	251.88
426.38	253.85
426.75	255.87
427.13	257.83
427.50	259.91
427.87	262.08
428.24	264.19
428.61	266.05
428.99	268.51
429.36	270.85
429.73	273.40
430.10	275.85
430.47	278.42
430.85	280.84
431.22	283.62
431.59	286.84
431.96	289.54
432.33	292.66
432.70	295.67
433.08	299.22
433.45	302.49
433.82	305.76
434.19	309.42
434.56	313.00
434.93	316.44
435.30	319.76
435.68	323.45
436.05	327.15
436.42	330.88
436.79	334.20
437.16	337.78
437.53	341.48
437.90	345.28
438.27	349.03
438.64	352.84
439.01	356.39
439.38	359.41
439.75	362.60
440.13	366.06
440.50	369.43
440.87	372.20
441.24	375.09
441.61	378.17
441.98	380.35
442.35	382.90
442.72	385.59
443.09	388.36
443.46	389.94
443.83	390.95
444.20	391.94
444.57	393.25
444.94	393.92
445.31	394.62
445.68	395.64
446.05	395.83
446.42	395.65
446.79	395.25
447.16	394.64
447.53	394.29
447.90	392.89
448.27	391.54
448.64	389.57
449.01	388.13
449.37	385.70
449.74	383.42
450.11	380.92
450.48	377.81
450.85	374.46
451.22	371.69
451.59	369.14
451.96	366.38
452.33	363.02
452.70	359.96
453.07	356.34
453.43	352.18
453.80	348.65
454.17	345.11
454.54	341.86
454.91	338.41
455.28	334.98
455.65	331.75
456.02	328.91
456.38	326.11
456.75	322.82
457.12	320.05
457.49	317.25
457.86	314.21
458.23	311.99
458.59	309.46
458.96	306.99
459.33	304.72
459.70	302.68
460.07	300.86
460.43	298.77
460.80	296.91
461.17	295.40
461.54	293.68
461.91	292.03
462.27	290.27
462.64	288.85
463.01	287.34
463.38	285.92
463.74	283.94
464.11	282.57
464.48	281.33
464.85	279.95
465.21	279.08
465.58	278.05
465.95	276.70
466.32	275.67
466.68	274.55
467.05	273.51
467.42	272.42
467.78	271.32
468.15	270.39
468.52	269.68
468.88	268.51
469.25	267.60
469.62	266.90
469.98	266.19
470.35	265.39
470.72	264.70
471.08	263.92
471.45	263.41
471.82	262.94
472.18	262.32
472.55	261.91
472.92	261.16
473.28	260.70
473.65	260.15
474.02	259.72
474.38	259.47
474.75	259.13
475.11	258.77
475.48	258.61
475.85	258.28
476.21	257.92
476.58	257.75
476.94	257.52
477.31	257.37
477.67	257.22
478.04	257.31
478.41	257.27
478.77	257.60
479.14	257.50
479.50	257.49
479.87	257.50
480.23	257.56
480.60	257.70
480.96	257.76
481.33	258.12
481.69	258.26
482.06	258.39
482.42	258.72
482.79	258.96
483.15	259.18
483.52	259.66
483.88	260.07
484.25	260.43
484.61	260.89
484.98	261.39
485.34	261.99
485.71	262.47
486.07	263.08
486.44	263.31
486.80	263.95
487.17	264.66
487.53	265.61
487.90	266.49
488.26	267.50
488.62	268.56
488.99	269.40
489.35	270.48
489.72	271.52
490.08	272.53
490.44	273.72
490.81	274.99
491.17	276.31
491.54	277.75
491.90	279.28
492.26	280.84
492.63	282.45
492.99	284.09
493.36	285.85
493.72	287.62
494.08	289.62
494.45	291.68
494.81	293.82
495.17	295.88
495.54	298.23
495.90	300.48
496.26	302.91
496.63	305.52
496.99	308.24
497.35	311.05
497.72	314.03
498.08	317.11
498.44	320.20
498.80	323.46
499.17	326.72
499.53	330.09
499.89	333.77
500.26	337.39
500.62	341.04
500.98	344.94
501.34	349.05
501.71	353.22
502.07	357.57
502.43	361.79
502.79	366.15
503.16	370.65
503.52	375.30
503.88	380.12
504.24	385.08
504.60	390.11
504.97	395.55
505.33	400.81
505.69	406.51
506.05	412.17
506.41	417.81
506.78	423.66
507.14	429.68
507.50	435.68
507.86	441.95
508.22	448.55
508.59	455.01
508.95	461.74
509.31	468.62
509.67	475.55
510.03	482.67
510.39	489.96
510.75	497.37
511.12	504.77
511.48	512.31
511.84	520.02
512.20	527.75
512.56	535.46
512.92	543.69
513.28	551.66
513.64	559.86
514.00	568.20
514.37	576.56
514.73	585.14
515.09	593.79
515.45	602.36
515.81	610.95
516.17	619.84
516.53	628.65
516.89	637.41
517.25	646.17
517.61	655.43
517.97	664.43
518.33	673.35
518.69	682.64
519.05	691.81
519.41	701.17
519.77	710.78
520.13	720.08
520.49	729.14
520.85	738.52
521.21	747.98
521.57	757.41
521.93	766.67
522.29	776.23
522.65	785.72
523.01	795.41
523.37	804.62
523.73	814.20
524.09	823.65
524.45	833.15
524.81	842.80
525.17	852.30
525.53	862.21
525.89	871.94
526.25	881.52
526.61	890.87
526.97	900.13
527.33	909.48
527.68	919.13
528.04	928.54
528.40	937.48
528.76	946.69
529.12	955.99
529.48	965.84
529.84	974.91
530.20	984.08
530.56	993.16
530.91	1002.87
531.27	1012.09
531.63	1021.18
531.99	1030.29
532.35	1039.16
532.71	1047.79
533.07	1056.48
533.42	1065.38
533.78	1074.07
534.14	1082.52
534.50	1090.72
534.86	1099.13
535.21	1106.91
535.57	1115.17
535.93	1123.49
536.29	1131.64
536.65	1139.90
537.00	1146.85
537.36	1154.24
537.72	1161.52
538.08	1168.96
538.44	1175.84
538.79	1182.77
539.15	1189.49
539.51	1196.47
539.87	1203.66
540.22	1210.27
540.58	1217.13
540.94	1223.43
541.29	1229.41
541.65	1235.42
542.01	1241.71
542.37	1247.54
542.72	1253.51
543.08	1258.81
543.44	1264.39
543.79	1269.30
544.15	1273.89
544.51	1279.67
544.87	1284.88
545.22	1289.58
545.58	1293.86
545.94	1297.98
546.29	1302.01
546.65	1306.04
547.01	1309.65
547.36	1313.19
547.72	1316.81
548.07	1319.69
548.43	1322.69
548.79	1325.67
549.14	1328.68
549.50	1331.36
549.86	1333.74
550.21	1336.09
550.57	1338.90
550.92	1340.75
551.28	1342.78
551.64	1344.77
551.99	1346.57
552.35	1348.35
552.70	1350.07
553.06	1351.84
553.41	1353.30
553.77	1355.04
554.13	1356.40
554.48	1357.87
554.84	1359.13
555.19	1360.04
555.55	1360.91
555.90	1361.18
556.26	1361.63
556.61	1362.04
556.97	1362.15
557.32	1362.50
557.68	1362.44
558.03	1362.17
558.39	1362.15
558.74	1362.53
559.10	1362.77
559.45	1362.55
559.81	1362.51
560.16	1362.19
560.52	1361.91
560.87	1361.50
561.23	1360.41
561.58	1360.30
561.94	1359.26
562.29	1358.13
562.64	1357.40
563.00	1356.92
563.35	1356.79
563.71	1356.69
564.06	1356.30
564.42	1355.84
564.77	1355.29
565.12	1354.90
565.48	1354.50
565.83	1354.21
566.19	1353.46
566.54	1351.93
566.89	1350.77
567.25	1349.61
567.60	1348.80
567.96	1347.61
568.31	1346.85
568.66	1345.47
569.02	1343.57
569.37	1341.91
569.72	1340.33
570.08	1338.69
570.43	1336.58
570.78	1334.18
571.14	1331.55
571.49	1329.13
571.84	1326.94
572.20	1324.32
572.55	1322.03
572.90	1319.10
573.26	1315.91
573.61	1312.80
573.96	1310.29
574.31	1306.83
574.67	1303.32
575.02	1299.36
575.37	1295.86
575.72	1292.10
576.08	1289.11
576.43	1285.56
576.78	1282.24
577.13	1279.22
577.49	1275.88
577.84	1272.53
578.19	1269.66
578.54	1266.76
578.90	1264.09
579.25	1260.71
579.60	1257.13
579.95	1253.27
580.30	1250.12
580.66	1247.26
581.01	1243.88
581.36	1240.10
581.71	1236.86
582.06	1233.86
582.42	1230.96
582.77	1227.29
583.12	1224.15
583.47	1220.91
583.82	1217.86
584.17	1214.64
584.53	1211.35
584.88	1208.07
585.23	1204.76
585.58	1201.22
585.93	1197.85
586.28	1194.33
586.63	1190.91
586.98	1187.56
587.34	1184.71
587.69	1181.25
588.04	1177.75
588.39	1174.29
588.74	1170.83
589.09	1167.88
589.44	1164.13
589.79	1161.00
590.14	1157.96
590.49	1154.34
590.84	1150.81
591.19	1147.81
591.54	1144.49
591.89	1140.33
592.25	1136.86
592.60	1133.00
592.95	1129.34
593.30	1125.30
593.65	1121.06
594.00	1117.46
594.35	1115.14
594.70	1111.34
595.05	1107.85
595.40	1104.22
595.75	1100.62
596.10	1097.23
596.45	1093.63
596.80	1090.60
597.15	1087.20
597.50	1083.79
597.85	1080.64
598.19	1077.00
598.54	1073.40
598.89	1070.12
599.24	1067.45
599.59	1064.20
599.94	1061.55
600.29	1058.41
600.64	1055.35
600.99	1052.10
601.34	1049.12
601.69	1044.87
602.04	1041.42
602.39	1038.17
602.74	1034.97
603.08	1032.17
603.43	1029.45
603.78	1026.44
604.13	1023.13
604.48	1019.84
604.83	1017.15
605.18	1014.51
605.53	1011.49
605.87	1008.24
606.22	1005.04
606.57	1001.70
606.92	998.34
607.27	994.82
607.62	991.54
607.96	988.75
608.31	985.97
608.66	982.59
609.01	979.18
609.36	975.90
609.70	972.25
610.05	968.73
610.40	965.08
610.75	961.35
611.10	957.97
611.44	953.90
611.79	949.92
612.14	945.58
612.49	941.08
612.83	937.21
613.18	933.13
613.53	929.18
613.88	924.96
614.22	921.17
614.57	917.05
614.92	912.99
615.27	908.68
615.61	904.55
615.96	900.51
616.31	896.66
616.65	893.13
617.00	889.38
617.35	885.54
617.70	881.39
618.04	877.20
618.39	872.53
618.74	868.80
619.08	864.86
619.43	861.07
619.78	857.22
620.12	853.30
620.47	849.68
620.82	845.51
621.16	841.43
621.51	837.42
621.85	833.56
622.20	829.53
622.55	825.34
622.89	821.30
623.24	817.43
623.59	813.27
623.93	809.17
624.28	805.35
624.62	801.56
624.97	797.93
625.32	794.45
625.66	790.84
626.01	787.10
626.35	783.52
626.70	779.76
627.04	776.29
627.39	772.70
627.73	769.03
628.08	765.61
628.43	761.84
628.77	758.03
629.12	754.40
629.46	751.17
629.81	747.81
630.15	744.24
630.50	740.32
630.84	736.83
631.19	733.29
631.53	729.74
631.88	725.83
632.22	722.04
632.57	718.57
632.91	715.01
633.26	711.63
633.60	708.29
633.95	704.87
634.29	701.40
634.64	698.09
634.98	694.34
635.32	691.04
635.67	688.05
636.01	684.89
636.36	681.45
636.70	678.18
637.05	674.89
637.39	671.75
637.73	668.99
638.08	666.07
638.42	663.03
638.77	659.95
639.11	656.89
639.45	653.89
639.80	650.41
640.14	647.15
640.49	643.74
640.83	640.30
641.17	637.03
641.52	633.73
641.86	630.38
642.20	627.43
642.55	623.95
642.89	620.65
643.23	617.25
643.58	614.30
643.92	610.81
644.26	607.63
644.61	604.49
644.95	601.23
645.29	597.95
645.64	594.67
645.98	591.47
646.32	588.40
646.66	585.15
647.01	582.12
647.35	579.31
647.69	576.15
648.04	573.32
648.38	570.37
648.72	567.24
649.06	564.31
649.41	561.19
649.75	558.25
650.09	555.29
650.43	552.31
650.78	549.05
651.12	546.03
651.46	543.08
651.80	540.16
652.14	537.25
652.49	534.31
652.83	531.23
653.17	528.12
653.51	525.11
653.85	522.35
654.20	519.45
654.54	516.41
654.88	513.60
655.22	510.64
655.56	507.63
655.90	504.72
656.25	501.72
656.59	498.83
656.93	496.10
657.27	493.47
657.61	490.57
657.95	487.99
658.29	485.44
658.64	482.81
658.98	480.05
659.32	477.05
659.66	474.39
660.00	471.77
660.34	469.11
660.68	466.53
661.02	463.82
661.36	461.36
661.70	458.89
662.05	456.49
662.39	454.13
662.73	451.89
663.07	449.70
663.41	447.34
663.75	444.98
664.09	442.60
664.43	440.03
664.77	437.84
665.11	435.58
665.45	433.18
665.79	430.91
666.13	428.68
666.47	426.52
666.81	424.28
667.15	422.12
667.49	420.13
667.83	418.13
668.17	416.15
668.51	414.18
668.85	412.31
669.19	410.38
669.53	408.32
669.87	406.30
670.21	404.24
670.55	402.42
670.89	400.85
671.23	399.14
671.57	397.36
671.91	395.53
672.25	393.70
672.58	392.07
672.92	390.23
673.26	388.51
673.60	387.05
673.94	385.33
674.28	383.62
674.62	381.96
674.96	380.30
675.30	378.68
675.64	376.91
675.97	375.16
676.31	373.67
676.65	372.16
676.99	370.71
677.33	369.16
677.67	367.61
678.01	365.86
678.34	364.20
678.68	362.71
679.02	361.20
679.36	359.69
679.70	358.19
680.04	356.70
680.37	355.21
680.71	353.54
681.05	352.21
681.39	350.96
681.73	349.56
682.06	348.18
682.40	346.76
682.74	345.48
683.08	344.20
683.42	342.68
683.75	341.39
684.09	339.89
684.43	338.48
684.77	337.12
685.10	335.78
685.44	334.34
685.78	333.07
686.12	331.92
686.45	330.62
686.79	329.25
687.13	328.13
687.46	326.91
687.80	325.85
688.14	324.53
688.48	323.28
688.81	322.04
689.15	320.80
689.49	319.56
689.82	318.37
690.16	316.93
690.50	315.71
690.83	314.40
691.17	313.17
691.51	311.99
691.84	310.78
692.18	309.61
692.52	308.60
692.85	307.54
693.19	306.53
693.52	305.49
693.86	304.40
694.20	303.31
694.53	302.25
694.87	301.09
695.21	300.05
695.54	298.95
695.88	297.86
696.21	296.82
696.55	295.89
696.88	294.81
697.22	293.92
697.56	293.14
697.89	292.12
698.23	291.21
698.56	290.25
698.90	289.47
699.23	288.56
699.57	287.68
699.90	286.77
700.24	285.75
700.58	284.87
700.91	284.16
701.25	283.54
701.58	282.79
701.92	282.04
702.25	281.25
702.59	280.41
702.92	279.67
703.26	278.99
703.59	278.26
703.93	277.82
704.26	277.17
704.60	276.41
704.93	275.76
705.26	275.03
705.60	274.44
705.93	273.64
706.27	273.09
706.60	272.55
706.94	271.96
707.27	271.27
707.61	270.67
707.94	269.93
708.27	268.97
708.61	268.18
708.94	267.50
709.28	266.92
709.61	266.32
709.94	265.72
710.28	265.05
710.61	264.46
710.95	263.62
711.28	263.14
711.61	262.41
711.95	261.93
712.28	261.35
712.61	260.86
712.95	260.51
713.28	260.12
713.61	259.56
713.95	258.94
714.28	258.55
714.61	257.98
714.95	257.47
715.28	256.98
715.61	256.59
715.95	256.18
716.28	255.66
716.61	255.11
716.95	254.55
717.28	254.12
717.61	253.62
717.94	253.17
718.28	252.54
718.61	252.23
718.94	251.69
719.27	251.25
719.61	250.80
719.94	250.28
720.27	249.66
720.60	249.07
720.94	248.65
721.27	248.18
721.60	247.78
721.93	247.41
722.27	247.21
722.60	246.82
722.93	246.38
723.26	246.06
723.59	245.81
723.93	245.51
724.26	245.16
724.59	244.74
724.92	244.45
725.25	244.27
725.59	243.90
725.92	243.67
726.25	243.37
726.58	243.03
726.91	242.69
727.24	242.40
727.57	242.17
727.91	241.84
728.24	241.59
728.57	241.35
728.90	241.05
729.23	240.61
729.56	240.46
729.89	240.17
730.22	239.81
730.55	239.45
730.89	239.19
731.22	238.83
731.55	238.65
731.88	238.44
732.21	237.98
732.54	237.64
732.87	237.26
733.20	237.01
733.53	236.80
733.86	236.65
734.19	236.36
734.52	236.14
734.85	236.20
735.18	235.82
735.51	235.64
735.84	235.46
736.17	235.37
736.50	234.90
736.83	235.15
737.16	234.87
737.49	234.71
737.82	234.39
738.15	234.22
738.48	233.91
738.81	233.59
739.14	233.40
739.47	233.15
739.80	232.98
740.13	232.73
740.46	232.42
740.79	232.09
741.12	231.85
741.45	231.60
741.78	231.10
742.11	230.98
742.44	230.69
742.77	230.49
743.10	230.17
743.43	229.93
743.75	229.28
744.08	229.60
744.41	229.24
744.74	229.08
745.07	228.88
745.40	228.79
745.73	228.71
746.06	228.53
746.39	228.41
746.71	228.16
747.04	227.99
747.37	227.74
747.70	227.56
748.03	227.40
748.36	227.34
748.68	227.24
749.01	226.98
749.34	226.74
749.67	226.52
750.00	226.41
750.33	226.56
750.65	226.35
750.98	225.65
751.31	225.55
751.64	225.40
751.97	225.35
752.29	225.12
752.62	224.83
752.95	224.58
753.28	224.41
753.60	224.28
753.93	224.21
754.26	224.14
754.59	223.94
754.91	223.73
755.24	223.53
755.57	223.30
755.90	223.24
756.22	223.09
756.55	222.92
756.88	222.65
757.20	222.29
757.53	222.12
757.86	222.00
758.19	221.95
758.51	221.71
758.84	221.45
759.17	221.28
759.49	221.17
759.82	221.32
760.15	221.21
760.47	221.00
760.80	220.77
761.13	220.69
761.45	220.50
761.78	220.36
762.11	220.22
762.43	220.11
762.76	219.96
763.08	219.90
763.41	219.84
763.74	219.80
764.06	219.65
764.39	219.55
764.71	219.46
765.04	219.32
765.37	219.36
765.69	219.23
766.02	219.11
766.34	218.97
766.67	218.71
767.00	218.70
767.32	218.89
767.65	218.98
767.97	218.89
768.30	218.83
768.62	218.75
768.95	218.62
769.27	218.49
769.60	218.44
769.92	218.32
770.25	218.13
770.57	217.98
770.90	217.91
771.22	217.86
771.55	217.81
771.87	217.72
772.20	217.56
772.52	217.83
772.85	218.21
773.17	218.09
773.50	217.95
773.82	217.75
774.15	217.46
774.47	217.20
774.80	217.00
775.12	217.03
775.45	216.98
775.77	217.02
776.09	216.98
776.42	216.93
776.74	216.96
777.07	216.95
777.39	216.91
777.72	216.79
778.04	216.73
778.36	216.64
778.69	216.62
779.01	216.61
779.33	216.20
779.66	215.79
779.98	215.80
780.31	215.85
780.63	215.99
780.95	216.03
781.28	216.00
781.60	216.02
781.92	215.91
782.25	215.88
782.57	215.69
782.89	215.62
783.22	215.51
783.54	215.43
783.86	215.42
784.19	215.35
784.51	215.52
784.83	215.45
785.16	215.37
785.48	215.32
785.80	215.32
786.12	215.32
786.45	215.20
786.77	215.17
787.09	215.07
787.42	214.91
787.74	214.86
788.06	214.84
788.38	214.79
788.71	214.73
789.03	214.69
789.35	214.78
789.67	214.70
789.99	214.72
790.32	214.61
790.64	214.60
790.96	214.93
791.28	214.77
791.61	214.70
791.93	214.70
792.25	214.66
792.57	214.84
792.89	214.75
793.21	214.74
793.54	214.71
793.86	214.67
794.18	214.67
794.50	214.59
794.82	214.64
795.14	214.60
795.47	214.67
795.79	214.69
796.11	214.56
796.43	214.56
796.75	214.54
797.07	214.53
797.39	214.44
797.71	214.08
798.04	214.10
798.36	214.16
798.68	214.17
799.00	214.17
799.32	213.98
799.64	214.14
799.96	214.20
800.28	214.15
800.60	214.16
800.92	214.14
801.24	214.13
801.56	214.10
801.89	214.11
802.21	214.05
802.53	213.87
802.85	213.89
803.17	214.05
803.49	213.98
803.81	213.96
804.13	213.89
804.45	213.87
804.77	213.87
805.09	213.80
805.41	213.71
805.73	213.63
806.05	213.50
806.37	213.40
806.69	213.31
807.01	213.34
807.33	213.24
807.65	213.09
807.97	213.15
808.28	213.09
808.60	213.05
808.92	213.02
809.24	213.29
809.56	213.29
809.88	213.18
810.20	213.10
810.52	213.08
810.84	213.10
811.16	213.00
811.48	212.89
811.80	212.97
812.12	212.98
812.43	213.05
812.75	213.09
813.07	212.95
813.39	212.96
813.71	212.90
814.03	212.87
814.35	212.91
814.67	212.78
814.98	212.71
815.30	212.74
815.62	212.66
815.94	212.40
816.26	212.38
816.58	212.32
816.89	212.39
817.21	212.35
817.53	212.35
817.85	212.39
818.17	212.39
818.48	212.27
818.80	212.29
819.12	212.17
819.44	212.11
819.76	212.16
820.07	212.16
820.39	212.11
820.71	212.09
821.03	212.12
821.34	212.08
821.66	212.11
821.98	212.12
822.30	212.09
822.61	212.30
822.93	212.29
823.25	212.24
823.57	212.16
823.88	212.29
824.20	212.25
824.52	212.26
824.83	212.20
825.15	212.19
825.47	212.21
825.79	212.26
826.10	212.23
826.42	212.19
826.74	212.20
827.05	212.14
827.37	212.18
827.69	212.14
828.00	212.20
828.32	212.22
828.64	212.10
828.95	212.26
829.27	212.12
829.58	212.09
829.90	212.13
830.22	212.23
830.53	212.08
830.85	212.08
831.17	212.06
831.48	212.08
831.80	212.08
832.11	212.07
832.43	212.05
832.75	212.09
833.06	212.29
833.38	212.19
833.69	212.21
834.01	212.25
834.32	212.25
834.64	212.26
834.96	212.28
835.27	212.30
835.59	212.19
835.90	212.14
836.22	212.16
836.53	212.15
836.85	212.06
837.16	212.43
837.48	212.45
837.79	212.58
838.11	212.60
838.42	212.59
838.74	212.55
839.05	212.46
839.37	212.42
839.68	212.21
840.00	212.26
840.31	212.35
840.63	212.33
840.94	212.27
841.26	212.21
841.57	212.17
841.88	212.25
842.20	212.23
842.51	212.22
842.83	212.22
843.14	212.47
843.46	212.54
843.77	212.36
844.08	212.30
844.40	212.10
844.71	212.04
845.03	212.03
845.34	212.03
845.65	212.10
845.97	212.05
846.28	212.07
846.60	212.07
846.91	212.03
847.22	212.01
847.54	212.06
847.85	212.07
848.16	212.03
848.48	211.96
848.79	212.07
849.10	212.07
849.42	212.08
849.73	211.78
850.04	211.67
850.36	211.52
850.67	211.57
850.98	211.66
851.30	211.73
851.61	211.69
851.92	211.66
852.23	211.70
852.55	211.78
852.86	211.79
853.17	211.76
853.49	211.81
853.80	211.88
854.11	211.91
854.42	211.93
854.74	211.90
855.05	211.99
855.36	211.84
855.67	211.89
855.99	211.81
856.30	212.25
856.61	212.24
856.92	212.26
857.23	212.18
857.55	212.12
857.86	212.07
858.17	212.15
858.48	212.09
858.79	212.02
859.11	212.03
859.42	211.98
859.73	211.95
860.04	211.90
860.35	211.77
860.66	211.69
860.98	211.62
861.29	211.63
861.60	211.53
861.91	211.58
862.22	211.54
862.53	211.58
862.84	211.12
863.16	211.26
863.47	211.20
863.78	211.26
864.09	211.30
864.40	211.34
864.71	211.31
865.02	211.41
865.33	211.40
865.64	211.28
865.95	211.27
866.27	211.47
866.58	211.42
866.89	211.52
867.20	211.49
867.51	211.47
867.82	211.52
868.13	211.63
868.44	211.56
868.75	211.65
869.06	211.58
869.37	211.61
869.68	211.51
869.99	211.55
870.30	211.58
870.61	211.67
870.92	211.65
871.23	211.64
871.54	211.65
871.85	211.72
872.16	211.78
872.47	211.85
872.78	211.67
873.09	211.78
873.40	211.72
873.71	211.74
874.02	211.80
874.33	211.71
874.64	211.62
874.95	211.68
875.26	211.58
875.56	211.66
875.87	211.70
876.18	211.62
876.49	211.96
876.80	211.94
877.11	211.83
877.42	211.77
877.73	211.80
878.04	211.78
878.35	211.72
878.66	211.72
878.96	211.72
879.27	211.71
879.58	211.64
879.89	211.62
880.20	211.82
880.51	211.80
880.82	211.78
881.12	211.83
881.43	211.76
881.74	211.72
882.05	211.65
882.36	211.57
882.67	211.64
882.97	211.26
883.28	211.27
883.59	211.28
883.90	211.36
884.21	211.43
884.51	211.37
884.82	211.39
885.13	211.44
885.44	211.32
885.74	211.29
886.05	211.31
886.36	211.35
886.67	211.15
886.98	211.24
887.28	211.31
887.59	211.24
887.90	211.21
888.20	211.25
888.51	211.30
888.82	211.34
889.13	211.40
889.43	211.65
889.74	211.54
890.05	211.53
890.35	211.49
890.66	211.40
890.97	211.34
891.28	211.31
891.58	211.33
891.89	211.42
892.20	211.42
892.50	211.38
892.81	211.27
893.12	211.28
893.42	211.22
893.73	211.16
894.04	211.22
894.34	211.31
894.65	211.25
894.95	211.16
895.26	211.10
895.57	211.17
895.87	210.85
896.18	210.94
896.48	211.00
896.79	210.99
897.10	211.06
897.40	211.13
897.71	211.08
898.01	211.00
898.32	210.98
898.63	210.98
898.93	210.95
899.24	211.04
899.54	211.04
899.85	211.00
900.15	211.07
900.46	211.10
900.76	211.06
901.07	211.08
901.38	211.09
901.68	211.19
901.99	211.09
902.29	211.24
902.60	211.25
902.90	211.12
903.21	211.06
903.51	211.04
903.82	211.16
904.12	211.28
904.43	211.30
904.73	211.32
905.03	211.36
905.34	211.72
905.64	211.72
905.95	211.70
906.25	211.69
906.56	211.66
906.86	211.53
907.17	211.61
907.47	211.65
907.77	211.67
908.08	211.61
908.38	211.56
908.69	211.54
908.99	211.55
909.30	211.62
909.60	211.65
909.90	211.64
910.21	211.54
910.51	211.47
910.81	211.45
911.12	211.42
911.42	211.43
911.73	211.12
912.03	211.08
912.33	211.14
912.64	211.15
912.94	211.13
913.24	211.15
913.55	211.04
913.85	211.03
914.15	211.08
914.46	211.10
914.76	211.08
915.06	211.10
915.37	211.06
915.67	211.04
915.97	211.03
916.27	210.91
916.58	210.89
916.88	210.89
917.18	210.90
917.49	211.11
917.79	211.12
918.09	211.13
918.39	211.23
918.70	211.20
919.00	211.17
919.30	211.35
919.60	211.44
919.91	211.47
920.21	211.42
920.51	211.39
920.81	211.40
921.12	211.47
921.42	211.40
921.72	211.41
922.02	211.44
922.32	211.57
922.63	211.66
922.93	211.82
923.23	211.84
923.53	211.78
923.83	211.56
924.13	211.55
924.44	211.50
924.74	211.60
925.04	211.69
925.34	211.70
925.64	211.52
925.94	211.42
926.24	211.61
926.55	211.65
926.85	211.68
927.15	211.69
927.45	211.72
927.75	211.67
928.05	211.67
928.35	211.70
928.65	211.66
928.95	211.62
929.26	211.40
929.56	211.44
929.86	211.44
930.16	211.48
930.46	211.54
930.76	211.63
931.06	211.41
931.36	211.32
931.66	211.37
931.96	211.42
932.26	211.49
932.56	211.39
932.86	211.40
933.16	211.37
933.46	211.36
933.76	211.30
934.06	211.48
934.36	211.61
934.66	211.56
934.96	211.51
935.26	211.58
935.56	211.67
935.86	211.56
936.16	211.63
936.46	211.58
936.76	211.47
937.06	211.43
937.36	211.45
937.66	211.52
937.96	211.49
938.26	211.40
938.56	211.35
938.86	211.32
939.16	211.43
939.46	211.53
939.76	211.41
940.06	211.41
940.35	211.31
940.65	211.10
940.95	211.17
941.25	211.15
941.55	211.14
941.85	211.15
942.15	211.31
942.45	211.33
942.75	211.34
943.04	211.38
943.34	211.37
943.64	211.38
943.94	211.33
944.24	211.35
944.54	211.46
944.84	211.48
945.13	211.44
945.43	211.32
945.73	211.26
946.03	211.36
946.33	211.33
946.62	211.27
946.92	211.29
947.22	211.19
947.52	211.20
947.82	211.22
948.11	211.13
948.41	210.99
948.71	210.89
949.01	210.93
949.31	210.88
949.60	210.89
949.90	210.96
950.20	210.95
950.50	210.95
950.79	210.85
951.09	210.85
951.39	210.85
951.69	210.84
951.98	210.89
952.28	210.86
952.58	210.87
952.87	210.90
953.17	210.97
953.47	210.96
953.76	211.00
954.06	210.94
954.36	210.90
954.66	210.89
954.95	210.98
955.25	210.96
955.55	210.97
955.84	210.87
956.14	210.87
956.44	210.84
956.73	210.76
957.03	210.77
957.32	210.79
957.62	210.74
957.92	210.78
958.21	210.80
958.51	211.25
958.81	211.27
959.10	211.25
959.40	211.32
959.69	211.41
959.99	211.41
960.29	211.40
960.58	211.39
960.88	211.59
961.17	211.48
961.47	211.52
961.76	211.44
962.06	211.52
962.36	211.42
962.65	211.46
962.95	211.49
963.24	211.49
963.54	211.48
963.83	211.48
964.13	211.53
964.42	211.42
964.72	211.07
965.01	211.13
965.31	211.13
965.60	211.05
965.90	211.20
966.19	211.13
966.49	211.21
966.78	211.20
967.08	211.10
967.37	211.23
967.67	211.16
967.96	211.32
968.26	211.31
968.55	211.43
968.85	211.42
969.14	211.50
969.43	211.45
969.73	211.41
970.02	211.45
970.32	211.38
970.61	211.34
970.91	211.24
971.20	211.14
971.49	211.11
971.79	211.15
972.08	210.93
972.38	210.96
972.67	210.90
972.96	210.99
973.26	210.90
973.55	210.99
973.85	211.01
974.14	210.97
974.43	211.04
974.73	210.88
975.02	210.87
975.31	210.82
975.61	210.81
975.90	210.80
976.19	210.78
976.49	210.81
976.78	210.81
977.07	210.84
977.37	210.92
977.66	210.99
977.95	210.87
978.24	210.88
978.54	210.95
978.83	210.91
979.12	210.93
979.42	210.91
979.71	210.82
980.00	210.80
980.29	210.77
980.59	210.65
980.88	210.76
981.17	210.70
981.46	210.71
981.76	210.76
982.05	210.86
982.34	210.88
982.63	210.91
982.93	210.95
983.22	210.99
983.51	210.97
983.80	210.96
984.09	211.10
984.39	211.11
984.68	211.05
984.97	211.06
985.26	210.98
985.55	211.05
985.85	211.00
986.14	211.11
986.43	211.16
986.72	211.16
987.01	211.11
987.30	211.08
987.59	211.05
987.89	211.08
988.18	210.94
988.47	210.89
988.76	210.81
989.05	210.76
989.34	210.73
989.63	210.79
989.92	210.75
990.22	210.61
990.51	210.61
990.80	210.62
991.09	210.70
991.38	210.77
991.67	210.75
991.96	210.70
992.25	210.66
992.54	210.62
992.83	210.61
993.12	210.68
993.41	210.76
993.70	210.95
993.99	211.00
994.28	211.14
994.58	211.25
994.87	211.32
995.16	211.37
995.45	211.34
995.74	211.21
996.03	211.30
996.32	211.39
996.61	211.42
996.90	211.48
997.19	211.40
997.48	211.41
997.77	211.36
998.06	211.33
998.34	211.29
998.63	211.31
998.92	211.35
999.21	211.34
999.50	211.38
999.79	211.18
1000.08	211.08
1000.37	211.07
1000.66	211.04
1000.95	211.11
1001.24	211.09
1001.53	211.18
1001.82	211.20
1002.11	211.13
1002.40	211.14
1002.68	211.24
1002.97	211.45
1003.26	211.47
1003.55	211.37
1003.84	211.43
1004.13	211.59
1004.42	211.58
1004.71	211.53
1004.99	211.49
1005.28	211.50
1005.57	211.43
1005.86	211.42
1006.15	211.40
1006.44	211.26
1006.72	211.30
1007.01	211.21
1007.30	211.28
1007.59	211.24
1007.88	211.25
1008.17	211.25
1008.45	211.22
1008.74	211.06
1009.03	210.84
1009.32	210.79
1009.60	210.90
1009.89	210.86
1010.18	210.71
1010.47	210.68
1010.76	210.65
1011.04	210.63
1011.33	210.67
1011.62	210.69
1011.91	210.73
1012.19	210.77
1012.48	210.84
1012.77	210.82
1013.05	210.94
1013.34	210.98
1013.63	210.91
1013.92	210.85
1014.20	210.85
1014.49	210.83
1014.78	210.85
1015.06	210.79
1015.35	210.77
1015.64	210.71
1015.92	210.75
1016.21	210.76
1016.50	210.77
1016.78	210.80
1017.07	210.86
1017.36	210.82
1017.64	210.79
1017.93	210.79
1018.22	210.77
1018.50	210.69
1018.79	210.65
1019.08	210.50
1019.36	210.45
1019.65	210.50
1019.93	210.63
1020.22	210.64
1020.51	210.76
1020.79	210.75
1021.08	210.10
1021.36	208.80
1021.65	211.40
1021.94	210.65
1022.22	211.30
1022.51	211.10
1022.79	212.45
1023.08	210.65
1023.36	213.80
1023.65	210.20
>>>>>End Processed Spectral Data<<<<<
