SpectraSuite Data File
++++++++++++++++++++++++++++++++++++
Date: Mon Feb 25 16:59:03 EST 2013
User: group
Dark Spectrum Present: No
Reference Spectrum Present: No
Number of Sampled Component Spectra: 1
Spectrometers: USB2E7196
Integration Time (usec): 104000 (USB2E7196)
Spectra Averaged: 20 (USB2E7196)
Boxcar Smoothing: 10 (USB2E7196)
Correct for Electrical Dark: No (USB2E7196)
Strobe/Lamp Enabled: No (USB2E7196)
Correct for Detector Non-linearity: No (USB2E7196)
Correct for Stray Light: No (USB2E7196)
Number of Pixels in Processed Spectrum: 2048
>>>>>Begin Processed Spectral Data<<<<<
339.09	0.00
339.48	198.60
339.86	200.25
340.24	200.90
340.63	202.75
341.01	209.65
341.39	206.30
341.78	208.00
342.16	209.40
342.54	208.25
342.93	198.25
343.31	208.23
343.69	208.79
344.07	209.26
344.46	209.74
344.84	210.10
345.22	210.11
345.60	210.29
345.99	210.43
346.37	210.52
346.75	210.62
347.13	210.66
347.52	210.70
347.90	210.92
348.28	210.92
348.66	211.03
349.05	210.92
349.43	210.95
349.81	210.93
350.19	210.89
350.57	210.95
350.96	211.04
351.34	211.14
351.72	211.16
352.10	211.24
352.48	211.28
352.87	211.35
353.25	211.45
353.63	211.55
354.01	211.59
354.39	211.71
354.77	211.86
355.15	212.05
355.54	212.03
355.92	211.94
356.30	212.00
356.68	212.23
357.06	212.35
357.44	212.40
357.82	212.52
358.20	212.68
358.58	212.75
358.97	212.80
359.35	212.94
359.73	213.13
360.11	213.16
360.49	213.22
360.87	213.30
361.25	213.38
361.63	213.50
362.01	213.61
362.39	213.51
362.77	213.49
363.15	213.44
363.53	213.56
363.91	213.66
364.29	213.72
364.67	213.47
365.05	213.43
365.43	213.54
365.81	213.57
366.19	213.77
366.57	213.90
366.95	213.91
367.33	213.86
367.71	213.82
368.09	213.96
368.47	213.98
368.85	213.97
369.23	214.05
369.61	213.95
369.99	213.98
370.37	214.11
370.75	214.31
371.13	214.21
371.51	214.14
371.89	214.09
372.27	214.07
372.65	214.09
373.03	214.15
373.41	214.04
373.78	214.03
374.16	213.79
374.54	213.64
374.92	213.58
375.30	213.53
375.68	213.41
376.06	213.36
376.44	213.24
376.82	213.17
377.19	213.08
377.57	213.02
377.95	212.86
378.33	212.72
378.71	212.45
379.09	212.57
379.47	212.53
379.84	212.39
380.22	212.24
380.60	212.08
380.98	212.05
381.36	212.02
381.73	211.85
382.11	211.86
382.49	211.82
382.87	211.78
383.25	211.69
383.62	212.03
384.00	211.81
384.38	211.82
384.76	211.83
385.13	211.94
385.51	211.93
385.89	211.84
386.27	211.79
386.64	211.80
387.02	211.71
387.40	211.63
387.78	211.69
388.15	211.72
388.53	211.67
388.91	211.55
389.29	211.58
389.66	211.67
390.04	211.57
390.42	211.54
390.79	211.50
391.17	211.55
391.55	211.19
391.92	211.21
392.30	211.27
392.68	211.16
393.05	211.10
393.43	211.11
393.81	211.18
394.18	211.14
394.56	211.13
394.94	211.25
395.31	211.23
395.69	211.34
396.06	211.41
396.44	211.46
396.82	211.45
397.19	211.53
397.57	211.47
397.95	211.59
398.32	211.56
398.70	211.67
399.07	211.67
399.45	211.65
399.82	211.75
400.20	211.72
400.58	211.85
400.95	211.77
401.33	211.91
401.70	212.17
402.08	212.29
402.45	212.34
402.83	212.46
403.20	212.66
403.58	212.69
403.95	212.90
404.33	213.04
404.71	213.26
405.08	213.62
405.46	213.79
405.83	213.98
406.21	214.28
406.58	214.47
406.96	214.76
407.33	215.07
407.70	215.44
408.08	216.02
408.45	216.37
408.83	216.85
409.20	217.11
409.58	217.39
409.95	217.97
410.33	218.55
410.70	219.01
411.08	219.57
411.45	220.29
411.82	220.97
412.20	221.85
412.57	222.86
412.95	223.42
413.32	224.50
413.69	225.54
414.07	226.50
414.44	227.73
414.82	229.00
415.19	230.44
415.56	231.81
415.94	233.20
416.31	234.98
416.68	236.62
417.06	238.67
417.43	240.62
417.81	242.71
418.18	244.87
418.55	247.17
418.93	249.71
419.30	252.23
419.67	254.89
420.04	257.67
420.42	260.59
420.79	264.16
421.16	267.64
421.54	271.19
421.91	274.98
422.28	278.76
422.66	282.76
423.03	286.89
423.40	291.04
423.77	295.51
424.15	299.99
424.52	304.85
424.89	310.01
425.26	314.95
425.64	319.83
426.01	325.15
426.38	330.88
426.75	336.52
427.13	342.32
427.50	348.58
427.87	354.98
428.24	361.36
428.61	367.47
428.99	374.18
429.36	381.49
429.73	388.84
430.10	396.12
430.47	403.66
430.85	411.37
431.22	419.69
431.59	428.47
431.96	436.95
432.33	446.19
432.70	455.14
433.08	465.93
433.45	475.84
433.82	485.89
434.19	496.80
434.56	507.72
434.93	518.43
435.30	528.88
435.68	540.72
436.05	552.40
436.42	564.10
436.79	574.76
437.16	586.47
437.53	598.49
437.90	610.58
438.27	622.63
438.64	635.06
439.01	646.71
439.38	657.17
439.75	667.48
440.13	679.12
440.50	690.27
440.87	699.31
441.24	708.89
441.61	719.28
441.98	727.36
442.35	736.57
442.72	745.67
443.09	754.77
443.46	760.51
443.83	764.58
444.20	768.07
444.57	773.24
444.94	775.96
445.31	778.90
445.68	781.85
446.05	783.60
446.42	783.51
446.79	783.05
447.16	782.41
447.53	782.02
447.90	778.39
448.27	774.79
448.64	769.38
449.01	765.64
449.37	758.48
449.74	751.52
450.11	743.17
450.48	733.99
450.85	724.45
451.22	716.32
451.59	708.63
451.96	701.28
452.33	691.07
452.70	681.99
453.07	671.00
453.43	659.62
453.80	648.73
454.17	638.17
454.54	628.18
454.91	617.52
455.28	607.04
455.65	597.32
456.02	587.67
456.38	579.52
456.75	569.16
457.12	560.58
457.49	552.08
457.86	543.74
458.23	536.58
458.59	528.67
458.96	520.80
459.33	513.73
459.70	506.81
460.07	501.28
460.43	494.76
460.80	488.77
461.17	483.65
461.54	478.05
461.91	472.78
462.27	467.45
462.64	462.97
463.01	457.90
463.38	453.10
463.74	447.94
464.11	443.54
464.48	439.86
464.85	435.67
465.21	432.60
465.58	429.17
465.95	425.10
466.32	421.70
466.68	418.34
467.05	415.12
467.42	411.74
467.78	408.15
468.15	404.80
468.52	402.37
468.88	399.06
469.25	396.13
469.62	393.81
469.98	391.25
470.35	388.83
470.72	386.67
471.08	384.12
471.45	382.18
471.82	380.05
472.18	377.58
472.55	376.04
472.92	373.90
473.28	372.09
473.65	370.36
474.02	368.67
474.38	367.28
474.75	365.99
475.11	364.71
475.48	363.68
475.85	362.89
476.21	361.90
476.58	361.19
476.94	360.71
477.31	359.99
477.67	359.37
478.04	358.80
478.41	358.34
478.77	358.33
479.14	357.93
479.50	357.73
479.87	357.78
480.23	357.67
480.60	357.56
480.96	357.54
481.33	357.99
481.69	358.24
482.06	358.40
482.42	358.54
482.79	358.86
483.15	359.34
483.52	359.93
483.88	360.38
484.25	360.86
484.61	361.44
484.98	362.11
485.34	363.06
485.71	364.05
486.07	365.08
486.44	365.87
486.80	367.02
487.17	368.28
487.53	369.90
487.90	371.40
488.26	373.14
488.62	374.93
488.99	376.38
489.35	378.18
489.72	380.12
490.08	382.11
490.44	384.11
490.81	386.26
491.17	388.31
491.54	390.66
491.90	393.03
492.26	395.45
492.63	398.00
492.99	400.50
493.36	403.11
493.72	406.03
494.08	408.92
494.45	411.90
494.81	415.12
495.17	418.10
495.54	421.39
495.90	424.55
496.26	427.90
496.63	431.41
496.99	434.99
497.35	438.50
497.72	442.30
498.08	446.00
498.44	449.75
498.80	453.93
499.17	457.91
499.53	462.01
499.89	466.10
500.26	470.13
500.62	474.03
500.98	478.30
501.34	482.43
501.71	486.72
502.07	490.92
502.43	495.00
502.79	499.15
503.16	503.29
503.52	507.39
503.88	511.48
504.24	515.69
504.60	519.67
504.97	523.86
505.33	527.79
505.69	532.09
506.05	536.36
506.41	540.09
506.78	543.77
507.14	547.42
507.50	551.23
507.86	554.98
508.22	558.91
508.59	562.35
508.95	565.91
509.31	569.44
509.67	572.94
510.03	576.28
510.39	579.64
510.75	582.80
511.12	586.21
511.48	589.24
511.84	592.33
512.20	595.41
512.56	598.36
512.92	601.39
513.28	604.38
513.64	607.00
514.00	609.80
514.37	612.49
514.73	615.28
515.09	617.96
515.45	620.39
515.81	622.73
516.17	625.17
516.53	627.33
516.89	629.57
517.25	631.48
517.61	633.48
517.97	635.29
518.33	637.13
518.69	638.71
519.05	640.52
519.41	642.17
519.77	644.07
520.13	645.53
520.49	646.94
520.85	648.12
521.21	649.64
521.57	651.09
521.93	652.44
522.29	653.76
522.65	654.88
523.01	656.10
523.37	657.04
523.73	658.14
524.09	659.39
524.45	660.41
524.81	661.62
525.17	663.03
525.53	664.47
525.89	665.68
526.25	667.05
526.61	668.00
526.97	669.17
527.33	670.30
527.68	671.82
528.04	673.05
528.40	674.11
528.76	675.15
529.12	676.33
529.48	677.69
529.84	678.78
530.20	680.07
530.56	681.37
530.91	682.99
531.27	684.42
531.63	685.84
531.99	687.41
532.35	688.88
532.71	690.12
533.07	691.52
533.42	693.36
533.78	694.91
534.14	696.75
534.50	698.16
534.86	699.77
535.21	701.17
535.57	703.10
535.93	704.86
536.29	706.81
536.65	708.60
537.00	710.16
537.36	712.07
537.72	713.84
538.08	715.85
538.44	717.66
538.79	719.67
539.15	721.41
539.51	723.30
539.87	725.56
540.22	727.90
540.58	730.28
540.94	732.30
541.29	734.38
541.65	736.39
542.01	738.76
542.37	740.97
542.72	743.17
543.08	745.10
543.44	747.52
543.79	749.55
544.15	751.68
544.51	754.35
544.87	756.83
545.22	759.25
545.58	761.50
545.94	763.60
546.29	765.80
546.65	768.04
547.01	770.02
547.36	772.13
547.72	774.05
548.07	775.91
548.43	777.74
548.79	779.64
549.14	781.70
549.50	783.85
549.86	785.92
550.21	787.95
550.57	790.42
550.92	792.39
551.28	794.39
551.64	796.62
551.99	798.69
552.35	800.57
552.70	802.53
553.06	804.60
553.41	807.05
553.77	809.29
554.13	811.67
554.48	814.23
554.84	816.63
555.19	818.94
555.55	821.30
555.90	823.42
556.26	825.61
556.61	827.64
556.97	829.41
557.32	831.38
557.68	833.47
558.03	835.02
558.39	836.82
558.74	838.80
559.10	840.65
559.45	842.62
559.81	844.70
560.16	846.26
560.52	848.18
560.87	849.93
561.23	851.40
561.58	853.20
561.94	854.56
562.29	855.75
562.64	857.35
563.00	858.86
563.35	860.60
563.71	862.47
564.06	864.30
564.42	866.17
564.77	867.95
565.12	869.82
565.48	871.86
565.83	873.61
566.19	875.49
566.54	876.97
566.89	878.22
567.25	879.86
567.60	881.81
567.96	883.60
568.31	885.04
568.66	886.53
569.02	887.42
569.37	888.40
569.72	889.56
570.08	890.59
570.43	891.48
570.78	892.34
571.14	892.88
571.49	893.41
571.84	894.00
572.20	894.25
572.55	894.48
572.90	894.52
573.26	894.55
573.61	894.39
573.96	894.38
574.31	894.36
574.67	893.81
575.02	893.19
575.37	892.23
575.72	891.48
576.08	891.10
576.43	890.73
576.78	890.47
577.13	890.13
577.49	889.55
577.84	888.72
578.19	888.32
578.54	888.13
578.90	887.70
579.25	886.91
579.60	886.18
579.95	885.10
580.30	884.18
580.66	883.46
581.01	882.70
581.36	881.47
581.71	880.28
582.06	879.39
582.42	878.37
582.77	877.30
583.12	876.25
583.47	875.02
583.82	873.84
584.17	872.53
584.53	871.25
584.88	869.87
585.23	868.68
585.58	867.27
585.93	865.67
586.28	864.39
586.63	863.05
586.98	861.73
587.34	860.72
587.69	859.39
588.04	858.02
588.39	856.47
588.74	854.94
589.09	853.81
589.44	852.10
589.79	850.61
590.14	849.37
590.49	847.96
590.84	846.29
591.19	844.95
591.54	843.53
591.89	841.63
592.25	840.16
592.60	838.17
592.95	836.00
593.30	833.78
593.65	831.53
594.00	829.44
594.35	828.25
594.70	826.05
595.05	824.03
595.40	822.06
595.75	819.68
596.10	817.99
596.45	815.85
596.80	814.06
597.15	812.35
597.50	809.96
597.85	807.94
598.19	805.75
598.54	803.73
598.89	801.42
599.24	799.81
599.59	797.56
599.94	795.70
600.29	793.97
600.64	792.20
600.99	790.08
601.34	788.12
601.69	785.17
602.04	782.81
602.39	780.55
602.74	778.35
603.08	776.56
603.43	774.73
603.78	772.39
604.13	770.09
604.48	767.65
604.83	766.00
605.18	763.98
605.53	761.82
605.87	759.48
606.22	757.50
606.57	754.87
606.92	752.57
607.27	750.43
607.62	748.06
607.96	745.76
608.31	743.75
608.66	741.48
609.01	739.02
609.36	736.88
609.70	734.51
610.05	732.11
610.40	729.56
610.75	726.72
611.10	724.65
611.44	721.91
611.79	719.42
612.14	716.48
612.49	713.61
612.83	710.98
613.18	708.14
613.53	705.26
613.88	702.38
614.22	699.66
614.57	696.80
614.92	694.02
615.27	691.31
615.61	688.35
615.96	685.62
616.31	683.12
616.65	680.61
617.00	677.98
617.35	675.29
617.70	672.54
618.04	669.63
618.39	666.37
618.74	663.81
619.08	661.03
619.43	658.39
619.78	655.73
620.12	653.29
620.47	650.75
620.82	647.90
621.16	645.29
621.51	642.64
621.85	640.07
622.20	637.36
622.55	634.42
622.89	631.74
623.24	629.05
623.59	626.10
623.93	623.39
624.28	620.84
624.62	618.41
624.97	616.04
625.32	613.50
625.66	611.10
626.01	608.50
626.35	606.06
626.70	603.35
627.04	601.03
627.39	598.46
627.73	595.96
628.08	593.80
628.43	591.30
628.77	588.79
629.12	586.10
629.46	583.69
629.81	581.38
630.15	578.98
630.50	576.50
630.84	574.05
631.19	571.53
631.53	569.01
631.88	566.20
632.22	563.70
632.57	561.62
632.91	559.24
633.26	556.91
633.60	554.26
633.95	552.05
634.29	549.45
634.64	547.06
634.98	544.55
635.32	542.22
635.67	540.22
636.01	537.86
636.36	535.72
636.70	533.65
637.05	531.43
637.39	529.28
637.73	527.30
638.08	525.52
638.42	523.51
638.77	521.53
639.11	519.53
639.45	517.31
639.80	514.91
640.14	512.73
640.49	510.60
640.83	508.62
641.17	506.50
641.52	504.40
641.86	502.10
642.20	500.05
642.55	497.76
642.89	495.44
643.23	493.36
643.58	491.48
643.92	489.29
644.26	487.20
644.61	485.19
644.95	482.84
645.29	480.55
645.64	478.37
645.98	476.17
646.32	474.10
646.66	471.90
647.01	469.94
647.35	467.93
647.69	465.70
648.04	463.71
648.38	461.70
648.72	459.62
649.06	457.69
649.41	455.54
649.75	453.49
650.09	451.57
650.43	449.55
650.78	447.29
651.12	445.13
651.46	443.17
651.80	441.13
652.14	439.33
652.49	437.50
652.83	435.47
653.17	433.48
653.51	431.50
653.85	429.73
654.20	427.80
654.54	425.82
654.88	424.05
655.22	422.18
655.56	420.16
655.90	418.25
656.25	416.25
656.59	414.45
656.93	412.67
657.27	410.92
657.61	409.10
657.95	407.39
658.29	405.67
658.64	404.02
658.98	402.21
659.32	400.26
659.66	398.31
660.00	396.53
660.34	394.71
660.68	392.94
661.02	391.12
661.36	389.32
661.70	387.71
662.05	386.07
662.39	384.50
662.73	383.05
663.07	381.72
663.41	380.32
663.75	378.71
664.09	377.23
664.43	375.51
664.77	373.90
665.11	372.36
665.45	370.84
665.79	369.29
666.13	367.84
666.47	366.50
666.81	365.15
667.15	363.73
667.49	362.49
667.83	361.26
668.17	359.84
668.51	358.67
668.85	357.37
669.19	356.16
669.53	354.66
669.87	353.15
670.21	351.66
670.55	350.31
670.89	349.36
671.23	348.12
671.57	346.96
671.91	345.93
672.25	344.78
672.58	343.75
672.92	342.41
673.26	341.26
673.60	340.08
673.94	338.86
674.28	337.72
674.62	336.51
674.96	335.24
675.30	334.25
675.64	333.05
675.97	331.96
676.31	330.88
676.65	329.77
676.99	328.98
677.33	327.89
677.67	326.83
678.01	325.53
678.34	324.45
678.68	323.49
679.02	322.32
679.36	321.20
679.70	319.99
680.04	318.99
680.37	317.95
680.71	316.88
681.05	315.94
681.39	314.93
681.73	314.00
682.06	313.13
682.40	312.15
682.74	311.24
683.08	310.35
683.42	309.26
683.75	308.43
684.09	307.26
684.43	306.44
684.77	305.56
685.10	304.73
685.44	303.76
685.78	302.77
686.12	301.96
686.45	301.03
686.79	300.15
687.13	299.42
687.46	298.61
687.80	297.85
688.14	296.98
688.48	296.24
688.81	295.37
689.15	294.58
689.49	293.64
689.82	292.84
690.16	291.90
690.50	291.09
690.83	290.24
691.17	289.42
691.51	288.45
691.84	287.64
692.18	286.81
692.52	286.06
692.85	285.30
693.19	284.60
693.52	283.92
693.86	283.15
694.20	282.37
694.53	281.53
694.87	280.65
695.21	279.88
695.54	279.10
695.88	278.29
696.21	277.42
696.55	276.78
696.88	276.10
697.22	275.38
697.56	274.73
697.89	273.96
698.23	273.34
698.56	272.66
698.90	272.01
699.23	271.30
699.57	270.67
699.90	270.04
700.24	269.26
700.58	268.56
700.91	268.01
701.25	267.62
701.58	267.07
701.92	266.64
702.25	266.09
702.59	265.60
702.92	265.09
703.26	264.49
703.59	263.95
703.93	263.71
704.26	263.23
704.60	262.69
704.93	262.22
705.26	261.59
705.60	261.03
705.93	260.43
706.27	260.03
706.60	259.48
706.94	259.09
707.27	258.59
707.61	258.10
707.94	257.52
708.27	256.74
708.61	256.13
708.94	255.53
709.28	255.07
709.61	254.41
709.94	254.01
710.28	253.60
710.61	253.09
710.95	252.30
711.28	252.08
711.61	251.58
711.95	251.21
712.28	250.81
712.61	250.51
712.95	250.24
713.28	249.96
713.61	249.59
713.95	249.16
714.28	248.78
714.61	248.40
714.95	248.01
715.28	247.54
715.61	247.17
715.95	246.82
716.28	246.34
716.61	246.01
716.95	245.59
717.28	245.22
717.61	244.88
717.94	244.53
718.28	243.92
718.61	243.56
718.94	243.25
719.27	242.95
719.61	242.62
719.94	242.34
720.27	241.90
720.60	241.59
720.94	241.22
721.27	240.94
721.60	240.69
721.93	240.45
722.27	240.38
722.60	240.23
722.93	239.99
723.26	239.75
723.59	239.49
723.93	239.22
724.26	238.93
724.59	238.71
724.92	238.42
725.25	238.25
725.59	238.08
725.92	237.86
726.25	237.62
726.58	237.35
726.91	237.05
727.24	236.76
727.57	236.48
727.91	236.14
728.24	235.90
728.57	235.61
728.90	235.45
729.23	235.09
729.56	235.03
729.89	234.83
730.22	234.59
730.55	234.38
730.89	234.15
731.22	233.94
731.55	233.70
731.88	233.54
732.21	233.23
732.54	232.87
732.87	232.59
733.20	232.38
733.53	232.22
733.86	232.01
734.19	231.80
734.52	231.68
734.85	231.79
735.18	231.61
735.51	231.48
735.84	231.25
736.17	231.17
736.50	230.72
736.83	230.89
737.16	230.75
737.49	230.49
737.82	230.30
738.15	230.18
738.48	229.92
738.81	229.67
739.14	229.54
739.47	229.48
739.80	229.28
740.13	229.11
740.46	228.84
740.79	228.56
741.12	228.40
741.45	228.17
741.78	227.75
742.11	227.64
742.44	227.40
742.77	227.25
743.10	227.12
743.43	227.02
743.75	226.48
744.08	226.71
744.41	226.55
744.74	226.35
745.07	226.10
745.40	226.09
745.73	226.06
746.06	225.85
746.39	225.64
746.71	225.52
747.04	225.39
747.37	225.32
747.70	225.19
748.03	225.04
748.36	224.95
748.68	224.85
749.01	224.66
749.34	224.55
749.67	224.41
750.00	224.23
750.33	224.30
750.65	224.25
750.98	223.69
751.31	223.55
751.64	223.46
751.97	223.56
752.29	223.43
752.62	223.17
752.95	223.06
753.28	222.93
753.60	222.76
753.93	222.68
754.26	222.51
754.59	222.41
754.91	222.20
755.24	222.00
755.57	221.84
755.90	221.62
756.22	221.52
756.55	221.37
756.88	221.13
757.20	220.76
757.53	220.50
757.86	220.46
758.19	220.41
758.51	220.28
758.84	219.95
759.17	219.83
759.49	219.74
759.82	219.73
760.15	219.69
760.47	219.58
760.80	219.33
761.13	219.35
761.45	219.26
761.78	219.22
762.11	219.13
762.43	219.04
762.76	218.91
763.08	218.86
763.41	218.77
763.74	218.75
764.06	218.71
764.39	218.65
764.71	218.49
765.04	218.39
765.37	218.32
765.69	218.27
766.02	218.12
766.34	218.02
766.67	217.85
767.00	217.80
767.32	217.99
767.65	218.18
767.97	218.11
768.30	218.04
768.62	218.04
768.95	217.98
769.27	217.95
769.60	218.08
769.92	217.93
770.25	217.84
770.57	217.71
770.90	217.59
771.22	217.50
771.55	217.50
771.87	217.48
772.20	217.42
772.52	217.68
772.85	218.10
773.17	218.10
773.50	218.05
773.82	217.93
774.15	217.63
774.47	217.39
774.80	217.23
775.12	217.12
775.45	217.03
775.77	217.01
776.09	216.99
776.42	216.90
776.74	216.91
777.07	216.86
777.39	216.77
777.72	216.76
778.04	216.79
778.36	216.63
778.69	216.65
779.01	216.61
779.33	216.23
779.66	215.72
779.98	215.61
780.31	215.56
780.63	215.70
780.95	215.74
781.28	215.65
781.60	215.53
781.92	215.47
782.25	215.39
782.57	215.32
782.89	215.16
783.22	215.02
783.54	215.01
783.86	214.97
784.19	215.06
784.51	215.15
784.83	215.03
785.16	215.00
785.48	214.90
785.80	214.85
786.12	214.85
786.45	214.84
786.77	214.86
787.09	214.84
787.42	214.61
787.74	214.62
788.06	214.62
788.38	214.66
788.71	214.60
789.03	214.62
789.35	214.63
789.67	214.60
789.99	214.62
790.32	214.52
790.64	214.57
790.96	214.66
791.28	214.45
791.61	214.44
791.93	214.45
792.25	214.35
792.57	214.58
792.89	214.47
793.21	214.45
793.54	214.35
793.86	214.21
794.18	214.24
794.50	214.09
794.82	214.07
795.14	214.01
795.47	214.15
795.79	214.07
796.11	213.99
796.43	213.92
796.75	213.92
797.07	213.89
797.39	213.78
797.71	213.60
798.04	213.60
798.36	213.63
798.68	213.57
799.00	213.62
799.32	213.40
799.64	213.43
799.96	213.46
800.28	213.53
800.60	213.55
800.92	213.55
801.24	213.55
801.56	213.54
801.89	213.48
802.21	213.47
802.53	213.39
802.85	213.42
803.17	213.60
803.49	213.50
803.81	213.46
804.13	213.44
804.45	213.34
804.77	213.38
805.09	213.32
805.41	213.29
805.73	213.16
806.05	213.10
806.37	213.11
806.69	213.04
807.01	212.99
807.33	212.97
807.65	212.87
807.97	213.03
808.28	212.98
808.60	212.98
808.92	212.87
809.24	213.09
809.56	213.01
809.88	212.86
810.20	212.85
810.52	212.91
810.84	212.84
811.16	212.76
811.48	212.72
811.80	212.79
812.12	212.80
812.43	212.91
812.75	212.91
813.07	212.84
813.39	212.85
813.71	212.80
814.03	212.73
814.35	212.75
814.67	212.50
814.98	212.53
815.30	212.53
815.62	212.46
815.94	212.28
816.26	212.27
816.58	212.22
816.89	212.27
817.21	212.16
817.53	212.22
817.85	212.24
818.17	212.23
818.48	212.19
818.80	212.22
819.12	212.12
819.44	212.06
819.76	212.01
820.07	212.05
820.39	212.10
820.71	212.21
821.03	212.14
821.34	212.17
821.66	212.20
821.98	212.23
822.30	212.22
822.61	212.39
822.93	212.36
823.25	212.31
823.57	212.30
823.88	212.37
824.20	212.33
824.52	212.41
824.83	212.37
825.15	212.28
825.47	212.24
825.79	212.34
826.10	212.28
826.42	212.21
826.74	212.20
827.05	212.12
827.37	212.05
827.69	212.08
828.00	212.06
828.32	212.04
828.64	212.00
828.95	212.21
829.27	212.15
829.58	212.17
829.90	212.29
830.22	212.33
830.53	212.19
830.85	212.20
831.17	212.15
831.48	212.15
831.80	212.21
832.11	212.25
832.43	212.23
832.75	212.27
833.06	212.55
833.38	212.43
833.69	212.42
834.01	212.44
834.32	212.39
834.64	212.32
834.96	212.30
835.27	212.30
835.59	212.11
835.90	211.97
836.22	211.93
836.53	211.85
836.85	211.78
837.16	212.15
837.48	212.21
837.79	212.31
838.11	212.31
838.42	212.28
838.74	212.22
839.05	212.14
839.37	212.13
839.68	211.91
840.00	211.92
840.31	212.05
840.63	212.11
840.94	212.06
841.26	212.08
841.57	212.09
841.88	212.10
842.20	212.14
842.51	212.13
842.83	212.13
843.14	212.41
843.46	212.40
843.77	212.20
844.08	212.11
844.40	211.99
844.71	211.97
845.03	211.91
845.34	211.95
845.65	211.95
845.97	211.91
846.28	211.93
846.60	211.93
846.91	211.85
847.22	211.74
847.54	211.80
847.85	211.81
848.16	211.75
848.48	211.74
848.79	211.79
849.10	211.83
849.42	211.86
849.73	211.55
850.04	211.48
850.36	211.38
850.67	211.41
850.98	211.38
851.30	211.41
851.61	211.40
851.92	211.39
852.23	211.50
852.55	211.54
852.86	211.51
853.17	211.55
853.49	211.54
853.80	211.62
854.11	211.69
854.42	211.74
854.74	211.74
855.05	211.76
855.36	211.58
855.67	211.58
855.99	211.57
856.30	212.01
856.61	212.02
856.92	212.02
857.23	211.97
857.55	211.98
857.86	211.93
858.17	212.00
858.48	211.96
858.79	211.84
859.11	211.92
859.42	211.95
859.73	211.93
860.04	211.97
860.35	211.85
860.66	211.74
860.98	211.73
861.29	211.67
861.60	211.64
861.91	211.73
862.22	211.69
862.53	211.68
862.84	211.22
863.16	211.29
863.47	211.26
863.78	211.34
864.09	211.40
864.40	211.44
864.71	211.42
865.02	211.46
865.33	211.43
865.64	211.36
865.95	211.32
866.27	211.46
866.58	211.38
866.89	211.48
867.20	211.47
867.51	211.42
867.82	211.50
868.13	211.56
868.44	211.53
868.75	211.60
869.06	211.55
869.37	211.56
869.68	211.50
869.99	211.48
870.30	211.43
870.61	211.46
870.92	211.37
871.23	211.34
871.54	211.42
871.85	211.49
872.16	211.53
872.47	211.54
872.78	211.37
873.09	211.44
873.40	211.34
873.71	211.46
874.02	211.51
874.33	211.49
874.64	211.39
874.95	211.48
875.26	211.45
875.56	211.44
875.87	211.46
876.18	211.47
876.49	211.85
876.80	211.83
877.11	211.69
877.42	211.72
877.73	211.75
878.04	211.68
878.35	211.68
878.66	211.65
878.96	211.61
879.27	211.66
879.58	211.65
879.89	211.64
880.20	211.71
880.51	211.71
880.82	211.72
881.12	211.77
881.43	211.61
881.74	211.55
882.05	211.59
882.36	211.61
882.67	211.61
882.97	211.28
883.28	211.25
883.59	211.24
883.90	211.28
884.21	211.33
884.51	211.29
884.82	211.31
885.13	211.30
885.44	211.33
885.74	211.26
886.05	211.27
886.36	211.29
886.67	211.05
886.98	211.16
887.28	211.22
887.59	211.23
887.90	211.28
888.20	211.34
888.51	211.36
888.82	211.33
889.13	211.34
889.43	211.63
889.74	211.62
890.05	211.65
890.35	211.61
890.66	211.52
890.97	211.54
891.28	211.48
891.58	211.48
891.89	211.47
892.20	211.49
892.50	211.39
892.81	211.39
893.12	211.45
893.42	211.33
893.73	211.31
894.04	211.21
894.34	211.18
894.65	211.10
894.95	211.02
895.26	210.97
895.57	211.08
895.87	210.77
896.18	210.84
896.48	210.87
896.79	210.88
897.10	210.93
897.40	210.90
897.71	210.96
898.01	210.89
898.32	210.87
898.63	210.81
898.93	210.89
899.24	210.92
899.54	210.88
899.85	210.88
900.15	210.81
900.46	210.89
900.76	210.97
901.07	211.02
901.38	211.03
901.68	211.07
901.99	210.94
902.29	210.94
902.60	210.91
902.90	210.86
903.21	210.81
903.51	210.83
903.82	210.87
904.12	210.78
904.43	210.82
904.73	210.81
905.03	210.76
905.34	211.05
905.64	211.06
905.95	211.11
906.25	211.05
906.56	211.11
906.86	211.07
907.17	211.02
907.47	211.01
907.77	210.98
908.08	210.94
908.38	210.92
908.69	210.96
908.99	210.99
909.30	210.97
909.60	210.96
909.90	210.92
910.21	210.85
910.51	210.84
910.81	210.88
911.12	210.93
911.42	211.03
911.73	210.70
912.03	210.64
912.33	210.65
912.64	210.66
912.94	210.64
913.24	210.56
913.55	210.55
913.85	210.45
914.15	210.55
914.46	210.60
914.76	210.60
915.06	210.55
915.37	210.51
915.67	210.48
915.97	210.52
916.27	210.49
916.58	210.50
916.88	210.49
917.18	210.41
917.49	210.65
917.79	210.64
918.09	210.70
918.39	210.80
918.70	210.82
919.00	210.81
919.30	210.96
919.60	210.98
919.91	210.98
920.21	211.10
920.51	211.00
920.81	210.92
921.12	210.98
921.42	210.97
921.72	210.97
922.02	211.01
922.32	211.02
922.63	211.00
922.93	211.22
923.23	211.23
923.53	211.26
923.83	211.05
924.13	211.08
924.44	211.05
924.74	211.09
925.04	211.17
925.34	211.20
925.64	210.97
925.94	211.00
926.24	211.21
926.55	211.11
926.85	211.18
927.15	211.27
927.45	211.25
927.75	211.27
928.05	211.34
928.35	211.33
928.65	211.47
928.95	211.54
929.26	211.31
929.56	211.34
929.86	211.33
930.16	211.27
930.46	211.21
930.76	211.25
931.06	211.09
931.36	210.94
931.66	210.98
931.96	211.09
932.26	211.14
932.56	210.97
932.86	211.03
933.16	210.99
933.46	210.86
933.76	210.84
934.06	210.90
934.36	211.00
934.66	210.97
934.96	210.90
935.26	210.88
935.56	210.88
935.86	210.84
936.16	210.80
936.46	210.81
936.76	210.84
937.06	210.73
937.36	210.81
937.66	210.88
937.96	210.85
938.26	210.75
938.56	210.69
938.86	210.71
939.16	210.81
939.46	210.85
939.76	210.97
940.06	211.02
940.35	210.99
940.65	210.81
940.95	211.00
941.25	210.84
941.55	210.78
941.85	210.87
942.15	210.99
942.45	211.11
942.75	211.10
943.04	211.12
943.34	211.24
943.64	211.22
943.94	211.20
944.24	211.22
944.54	211.25
944.84	211.29
945.13	211.27
945.43	211.22
945.73	211.25
946.03	211.21
946.33	211.17
946.62	211.13
946.92	211.14
947.22	211.04
947.52	211.16
947.82	211.21
948.11	211.18
948.41	211.10
948.71	210.97
949.01	211.07
949.31	211.06
949.60	211.01
949.90	211.05
950.20	210.99
950.50	211.00
950.79	211.03
951.09	211.15
951.39	211.04
951.69	211.00
951.98	211.08
952.28	211.07
952.58	211.05
952.87	211.05
953.17	211.05
953.47	210.94
953.76	210.94
954.06	210.94
954.36	210.85
954.66	210.86
954.95	211.04
955.25	211.00
955.55	211.02
955.84	211.01
956.14	211.03
956.44	211.09
956.73	211.02
957.03	211.03
957.32	210.94
957.62	210.98
957.92	211.13
958.21	211.02
958.51	211.50
958.81	211.55
959.10	211.57
959.40	211.68
959.69	211.75
959.99	211.75
960.29	211.70
960.58	211.70
960.88	211.81
961.17	211.68
961.47	211.67
961.76	211.70
962.06	211.73
962.36	211.74
962.65	211.75
962.95	211.73
963.24	211.70
963.54	211.70
963.83	211.73
964.13	211.75
964.42	211.73
964.72	211.40
965.01	211.41
965.31	211.45
965.60	211.36
965.90	211.61
966.19	211.56
966.49	211.60
966.78	211.60
967.08	211.61
967.37	211.61
967.67	211.58
967.96	211.52
968.26	211.52
968.55	211.48
968.85	211.37
969.14	211.41
969.43	211.36
969.73	211.31
970.02	211.35
970.32	211.22
970.61	211.13
970.91	211.09
971.20	211.01
971.49	210.91
971.79	210.94
972.08	210.71
972.38	210.70
972.67	210.72
972.96	210.77
973.26	210.64
973.55	210.71
973.85	210.72
974.14	210.80
974.43	210.82
974.73	210.82
975.02	210.92
975.31	210.89
975.61	210.90
975.90	210.88
976.19	210.84
976.49	210.87
976.78	211.01
977.07	210.94
977.37	210.90
977.66	210.94
977.95	210.88
978.24	210.89
978.54	210.95
978.83	210.88
979.12	210.88
979.42	210.91
979.71	210.90
980.00	210.85
980.29	210.84
980.59	210.73
980.88	210.85
981.17	210.78
981.46	210.77
981.76	210.84
982.05	210.97
982.34	210.89
982.63	210.84
982.93	210.80
983.22	210.93
983.51	211.03
983.80	211.10
984.09	211.15
984.39	211.14
984.68	211.11
984.97	211.18
985.26	211.15
985.55	211.17
985.85	211.14
986.14	211.22
986.43	211.22
986.72	211.21
987.01	210.98
987.30	210.92
987.59	210.98
987.89	210.92
988.18	210.83
988.47	210.88
988.76	210.83
989.05	210.81
989.34	210.71
989.63	210.83
989.92	210.66
990.22	210.64
990.51	210.61
990.80	210.60
991.09	210.60
991.38	210.73
991.67	210.67
991.96	210.52
992.25	210.52
992.54	210.50
992.83	210.46
993.12	210.52
993.41	210.66
993.70	210.75
993.99	210.84
994.28	210.86
994.58	210.92
994.87	210.95
995.16	210.90
995.45	210.88
995.74	210.69
996.03	210.80
996.32	210.87
996.61	210.98
996.90	211.00
997.19	210.97
997.48	210.82
997.77	210.82
998.06	210.87
998.34	210.83
998.63	210.76
998.92	210.77
999.21	210.86
999.50	210.85
999.79	210.72
1000.08	210.71
1000.37	210.73
1000.66	210.65
1000.95	210.73
1001.24	210.82
1001.53	210.80
1001.82	210.81
1002.11	210.72
1002.40	210.69
1002.68	210.74
1002.97	211.02
1003.26	211.03
1003.55	211.01
1003.84	211.08
1004.13	211.22
1004.42	211.20
1004.71	211.28
1004.99	211.35
1005.28	211.42
1005.57	211.37
1005.86	211.29
1006.15	211.31
1006.44	211.32
1006.72	211.36
1007.01	211.28
1007.30	211.27
1007.59	211.28
1007.88	211.28
1008.17	211.37
1008.45	211.31
1008.74	211.20
1009.03	211.02
1009.32	211.04
1009.60	211.06
1009.89	210.95
1010.18	210.84
1010.47	210.83
1010.76	210.80
1011.04	210.79
1011.33	210.78
1011.62	210.85
1011.91	210.91
1012.19	210.92
1012.48	210.85
1012.77	210.90
1013.05	211.05
1013.34	210.98
1013.63	210.95
1013.92	211.00
1014.20	210.92
1014.49	210.94
1014.78	210.87
1015.06	210.75
1015.35	210.66
1015.64	210.67
1015.92	210.77
1016.21	210.78
1016.50	210.84
1016.78	210.91
1017.07	210.90
1017.36	210.80
1017.64	210.75
1017.93	210.77
1018.22	210.70
1018.50	210.71
1018.79	210.65
1019.08	210.49
1019.36	210.57
1019.65	210.57
1019.93	210.62
1020.22	210.72
1020.51	210.92
1020.79	210.97
1021.08	210.55
1021.36	210.25
1021.65	210.30
1021.94	210.00
1022.22	211.80
1022.51	210.05
1022.79	211.90
1023.08	211.85
1023.36	214.95
1023.65	210.40
>>>>>End Processed Spectral Data<<<<<
