SpectraSuite Data File
++++++++++++++++++++++++++++++++++++
Date: Mon Feb 25 16:59:58 EST 2013
User: group
Dark Spectrum Present: No
Reference Spectrum Present: No
Number of Sampled Component Spectra: 1
Spectrometers: USB2E7196
Integration Time (usec): 104000 (USB2E7196)
Spectra Averaged: 20 (USB2E7196)
Boxcar Smoothing: 10 (USB2E7196)
Correct for Electrical Dark: No (USB2E7196)
Strobe/Lamp Enabled: No (USB2E7196)
Correct for Detector Non-linearity: No (USB2E7196)
Correct for Stray Light: No (USB2E7196)
Number of Pixels in Processed Spectrum: 2048
>>>>>Begin Processed Spectral Data<<<<<
339.09	0.00
339.48	197.20
339.86	198.95
340.24	201.85
340.63	202.70
341.01	210.10
341.39	204.80
341.78	207.00
342.16	209.10
342.54	207.60
342.93	197.95
343.31	207.98
343.69	208.60
344.07	209.13
344.46	209.61
344.84	210.01
345.22	210.10
345.60	210.33
345.99	210.56
346.37	210.62
346.75	210.74
347.13	210.82
347.52	210.84
347.90	210.97
348.28	211.04
348.66	211.10
349.05	211.13
349.43	211.15
349.81	211.30
350.19	211.42
350.57	211.46
350.96	211.50
351.34	211.57
351.72	211.70
352.10	211.85
352.48	211.84
352.87	211.92
353.25	211.91
353.63	212.09
354.01	212.08
354.39	212.24
354.77	212.36
355.15	212.51
355.54	212.59
355.92	212.50
356.30	212.55
356.68	212.80
357.06	212.88
357.44	212.94
357.82	212.94
358.20	213.02
358.58	213.04
358.97	213.10
359.35	213.20
359.73	213.26
360.11	213.30
360.49	213.35
360.87	213.34
361.25	213.47
361.63	213.55
362.01	213.65
362.39	213.64
362.77	213.61
363.15	213.63
363.53	213.66
363.91	213.73
364.29	213.83
364.67	213.61
365.05	213.66
365.43	213.75
365.81	213.76
366.19	213.88
366.57	214.01
366.95	214.05
367.33	213.99
367.71	213.99
368.09	213.97
368.47	213.95
368.85	213.94
369.23	214.00
369.61	213.85
369.99	213.90
370.37	213.92
370.75	214.13
371.13	214.04
371.51	213.98
371.89	213.95
372.27	213.85
372.65	213.80
373.03	213.70
373.41	213.58
373.78	213.56
374.16	213.35
374.54	213.20
374.92	213.06
375.30	213.01
375.68	212.88
376.06	212.89
376.44	212.85
376.82	212.82
377.19	212.73
377.57	212.65
377.95	212.51
378.33	212.37
378.71	212.11
379.09	212.09
379.47	212.12
379.84	212.03
380.22	212.07
380.60	211.96
380.98	211.88
381.36	211.83
381.73	211.72
382.11	211.70
382.49	211.69
382.87	211.66
383.25	211.65
383.62	212.01
384.00	211.88
384.38	211.84
384.76	211.92
385.13	212.07
385.51	212.10
385.89	212.03
386.27	212.06
386.64	212.05
387.02	211.91
387.40	211.83
387.78	211.88
388.15	211.83
388.53	211.86
388.91	211.89
389.29	211.83
389.66	211.88
390.04	211.85
390.42	211.91
390.79	211.87
391.17	211.83
391.55	211.40
391.92	211.33
392.30	211.34
392.68	211.17
393.05	211.03
393.43	210.99
393.81	211.01
394.18	210.90
394.56	210.96
394.94	211.10
395.31	211.02
395.69	211.03
396.06	211.01
396.44	211.00
396.82	210.95
397.19	211.18
397.57	211.16
397.95	211.24
398.32	211.16
398.70	211.30
399.07	211.45
399.45	211.48
399.82	211.56
400.20	211.57
400.58	211.67
400.95	211.59
401.33	211.76
401.70	212.14
402.08	212.28
402.45	212.32
402.83	212.45
403.20	212.61
403.58	212.70
403.95	212.96
404.33	213.17
404.71	213.36
405.08	213.75
405.46	213.94
405.83	214.15
406.21	214.37
406.58	214.60
406.96	214.72
407.33	215.06
407.70	215.42
408.08	216.02
408.45	216.45
408.83	216.90
409.20	217.24
409.58	217.43
409.95	217.97
410.33	218.47
410.70	218.85
411.08	219.44
411.45	220.01
411.82	220.55
412.20	221.24
412.57	222.14
412.95	222.52
413.32	223.37
413.69	224.25
414.07	225.17
414.44	226.19
414.82	227.31
415.19	228.57
415.56	229.81
415.94	230.95
416.31	232.42
416.68	233.90
417.06	235.65
417.43	237.28
417.81	239.09
418.18	241.02
418.55	243.24
418.93	245.37
419.30	247.71
419.67	250.06
420.04	252.62
420.42	255.18
420.79	258.39
421.16	261.44
421.54	264.66
421.91	267.97
422.28	271.31
422.66	274.98
423.03	278.63
423.40	282.39
423.77	286.39
424.15	290.40
424.52	294.53
424.89	299.16
425.26	303.67
425.64	308.01
426.01	312.73
426.38	317.60
426.75	322.67
427.13	327.91
427.50	333.46
427.87	339.13
428.24	344.77
428.61	350.21
428.99	356.31
429.36	362.86
429.73	369.41
430.10	376.04
430.47	382.60
430.85	389.50
431.22	396.85
431.59	404.81
431.96	412.36
432.33	420.65
432.70	428.64
433.08	438.12
433.45	447.07
433.82	456.00
434.19	465.84
434.56	475.63
434.93	485.12
435.30	494.57
435.68	505.10
436.05	515.69
436.42	526.05
436.79	535.60
437.16	545.84
437.53	556.72
437.90	567.34
438.27	578.04
438.64	589.05
439.01	599.48
439.38	608.75
439.75	617.78
440.13	628.29
440.50	638.07
440.87	646.15
441.24	654.68
441.61	663.95
441.98	671.10
442.35	679.23
442.72	687.44
443.09	695.17
443.46	700.26
443.83	703.75
444.20	707.09
444.57	711.50
444.94	714.14
445.31	716.68
445.68	719.40
446.05	720.91
446.42	720.81
446.79	720.29
447.16	719.58
447.53	719.47
447.90	716.31
448.27	713.12
448.64	708.30
449.01	704.90
449.37	698.53
449.74	692.37
450.11	684.90
450.48	676.56
450.85	668.25
451.22	661.07
451.59	654.28
451.96	647.64
452.33	638.75
452.70	630.52
453.07	620.66
453.43	610.60
453.80	601.13
454.17	591.80
454.54	583.09
454.91	573.59
455.28	564.27
455.65	555.60
456.02	547.17
456.38	539.82
456.75	530.75
457.12	523.19
457.49	515.62
457.86	508.14
458.23	501.85
458.59	494.94
458.96	487.88
459.33	481.67
459.70	475.46
460.07	470.42
460.43	464.72
460.80	459.44
461.17	454.75
461.54	449.63
461.91	444.91
462.27	440.01
462.64	435.97
463.01	431.42
463.38	427.03
463.74	422.40
464.11	418.66
464.48	415.12
464.85	411.39
465.21	408.63
465.58	405.62
465.95	401.87
466.32	398.80
466.68	395.78
467.05	392.81
467.42	389.79
467.78	386.64
468.15	383.72
468.52	381.44
468.88	378.56
469.25	376.06
469.62	373.88
469.98	371.57
470.35	369.47
470.72	367.46
471.08	365.25
471.45	363.42
471.82	361.44
472.18	359.45
472.55	358.00
472.92	356.09
473.28	354.56
473.65	353.13
474.02	351.71
474.38	350.44
474.75	349.30
475.11	348.15
475.48	347.26
475.85	346.42
476.21	345.56
476.58	344.73
476.94	344.20
477.31	343.65
477.67	343.05
478.04	342.55
478.41	342.17
478.77	342.17
479.14	341.75
479.50	341.59
479.87	341.55
480.23	341.35
480.60	341.15
480.96	341.01
481.33	341.28
481.69	341.30
482.06	341.48
482.42	341.52
482.79	341.62
483.15	341.95
483.52	342.46
483.88	342.83
484.25	343.18
484.61	343.61
484.98	344.11
485.34	344.92
485.71	345.74
486.07	346.50
486.44	347.01
486.80	348.00
487.17	348.90
487.53	350.16
487.90	351.51
488.26	353.05
488.62	354.64
488.99	355.84
489.35	357.45
489.72	358.94
490.08	360.70
490.44	362.32
490.81	364.04
491.17	365.76
491.54	367.71
491.90	369.80
492.26	371.93
492.63	374.08
492.99	376.10
493.36	378.29
493.72	380.76
494.08	383.11
494.45	385.65
494.81	388.29
495.17	390.66
495.54	393.29
495.90	395.76
496.26	398.41
496.63	401.32
496.99	404.06
497.35	407.00
497.72	409.97
498.08	413.14
498.44	416.18
498.80	419.38
499.17	422.50
499.53	425.77
499.89	429.09
500.26	432.37
500.62	435.61
500.98	438.93
501.34	441.99
501.71	445.51
502.07	448.77
502.43	451.98
502.79	455.16
503.16	458.29
503.52	461.44
503.88	464.52
504.24	467.68
504.60	470.85
504.97	473.98
505.33	476.98
505.69	480.17
506.05	483.30
506.41	486.20
506.78	489.15
507.14	491.72
507.50	494.45
507.86	497.16
508.22	499.84
508.59	502.35
508.95	505.06
509.31	507.52
509.67	509.88
510.03	512.25
510.39	514.80
510.75	517.14
511.12	519.55
511.48	521.74
511.84	523.80
512.20	525.86
512.56	527.90
512.92	529.91
513.28	531.63
513.64	533.25
514.00	534.95
514.37	536.61
514.73	538.43
515.09	539.85
515.45	541.18
515.81	542.63
516.17	543.93
516.53	545.06
516.89	546.03
517.25	547.13
517.61	548.30
517.97	549.09
518.33	549.89
518.69	550.74
519.05	551.57
519.41	552.38
519.77	553.40
520.13	554.01
520.49	554.65
520.85	555.32
521.21	556.05
521.57	556.64
521.93	556.89
522.29	557.41
522.65	557.96
523.01	558.60
523.37	558.96
523.73	559.46
524.09	559.90
524.45	560.42
524.81	561.09
525.17	561.57
525.53	562.22
525.89	562.78
526.25	563.28
526.61	563.69
526.97	564.20
527.33	564.57
527.68	565.62
528.04	566.24
528.40	566.71
528.76	567.36
529.12	568.15
529.48	569.36
529.84	570.13
530.20	570.90
530.56	571.75
530.91	572.98
531.27	574.15
531.63	575.30
531.99	576.44
532.35	577.55
532.71	578.64
533.07	579.99
533.42	581.73
533.78	583.09
534.14	584.65
534.50	585.99
534.86	587.63
535.21	588.71
535.57	590.34
535.93	592.07
536.29	593.93
536.65	595.54
537.00	597.02
537.36	598.66
537.72	600.51
538.08	602.44
538.44	604.08
538.79	605.96
539.15	608.06
539.51	610.07
539.87	612.07
540.22	614.23
540.58	616.40
540.94	618.34
541.29	620.45
541.65	622.50
542.01	624.89
542.37	626.94
542.72	629.21
543.08	631.40
543.44	633.80
543.79	635.75
544.15	638.14
544.51	640.74
544.87	643.26
545.22	645.80
545.58	647.99
545.94	650.41
546.29	652.73
546.65	654.88
547.01	657.18
547.36	659.50
547.72	661.90
548.07	664.25
548.43	666.38
548.79	668.64
549.14	670.96
549.50	673.33
549.86	675.68
550.21	678.21
550.57	680.90
550.92	683.19
551.28	685.74
551.64	688.27
551.99	690.51
552.35	692.88
552.70	694.98
553.06	697.65
553.41	700.09
553.77	702.77
554.13	705.43
554.48	708.14
554.84	710.75
555.19	713.21
555.55	715.77
555.90	718.13
556.26	720.61
556.61	723.10
556.97	725.16
557.32	727.52
557.68	729.60
558.03	731.55
558.39	733.64
558.74	735.87
559.10	738.05
559.45	740.26
559.81	742.35
560.16	744.57
560.52	746.47
560.87	748.57
561.23	750.23
561.58	752.45
561.94	754.24
562.29	756.03
562.64	757.98
563.00	759.61
563.35	761.56
563.71	763.80
564.06	765.60
564.42	767.66
564.77	769.76
565.12	771.65
565.48	773.85
565.83	776.01
566.19	778.12
566.54	779.68
566.89	781.39
567.25	783.58
567.60	785.50
567.96	787.59
568.31	789.67
568.66	791.59
569.02	792.79
569.37	794.18
569.72	795.88
570.08	797.18
570.43	798.50
570.78	799.67
571.14	800.50
571.49	801.57
571.84	802.64
572.20	803.28
572.55	804.22
572.90	804.62
573.26	805.04
573.61	805.18
573.96	805.75
574.31	806.12
574.67	806.02
575.02	806.03
575.37	805.70
575.72	805.24
576.08	805.16
576.43	804.83
576.78	804.77
577.13	804.53
577.49	804.35
577.84	804.10
578.19	804.07
578.54	804.08
578.90	803.90
579.25	803.57
579.60	803.17
579.95	802.45
580.30	802.16
580.66	801.91
581.01	801.55
581.36	800.79
581.71	800.16
582.06	799.66
582.42	798.93
582.77	798.11
583.12	797.36
583.47	796.51
583.82	795.99
584.17	795.14
584.53	794.39
584.88	793.49
585.23	792.51
585.58	791.53
585.93	790.46
586.28	789.57
586.63	788.50
586.98	787.74
587.34	787.26
587.69	786.09
588.04	784.85
588.39	783.89
588.74	782.83
589.09	781.75
589.44	780.41
589.79	779.48
590.14	778.68
590.49	777.55
590.84	776.27
591.19	775.36
591.54	774.31
591.89	772.61
592.25	771.46
592.60	770.27
592.95	768.58
593.30	766.94
593.65	765.38
594.00	763.79
594.35	763.07
594.70	761.21
595.05	759.66
595.40	758.18
595.75	756.15
596.10	754.74
596.45	753.35
596.80	751.81
597.15	750.12
597.50	748.28
597.85	746.71
598.19	745.02
598.54	743.23
598.89	741.46
599.24	740.21
599.59	738.48
599.94	736.89
600.29	735.53
600.64	733.96
600.99	732.16
601.34	730.83
601.69	727.99
602.04	726.10
602.39	724.25
602.74	722.51
603.08	721.18
603.43	719.75
603.78	717.84
604.13	716.21
604.48	714.55
604.83	713.05
605.18	711.66
605.53	709.94
605.87	708.13
606.22	706.43
606.57	704.41
606.92	702.48
607.27	700.43
607.62	698.40
607.96	696.69
608.31	695.11
608.66	693.03
609.01	691.23
609.36	689.38
609.70	687.38
610.05	685.30
610.40	683.25
610.75	680.74
611.10	678.86
611.44	676.51
611.79	674.24
612.14	671.86
612.49	669.21
612.83	667.00
613.18	664.57
613.53	662.30
613.88	659.98
614.22	657.72
614.57	655.50
614.92	653.23
615.27	650.68
615.61	648.12
615.96	645.90
616.31	643.78
616.65	641.70
617.00	639.49
617.35	637.21
617.70	634.78
618.04	632.34
618.39	629.72
618.74	627.55
619.08	625.19
619.43	622.91
619.78	620.80
620.12	618.70
620.47	616.41
620.82	613.98
621.16	611.56
621.51	609.31
621.85	606.99
622.20	604.84
622.55	602.44
622.89	600.11
623.24	597.73
623.59	595.06
623.93	592.76
624.28	590.59
624.62	588.55
624.97	586.34
625.32	584.18
625.66	582.07
626.01	579.83
626.35	577.65
626.70	575.44
627.04	573.29
627.39	570.89
627.73	568.85
628.08	566.88
628.43	564.66
628.77	562.44
629.12	560.16
629.46	557.94
629.81	555.84
630.15	553.73
630.50	551.58
630.84	549.50
631.19	547.20
631.53	544.88
631.88	542.39
632.22	539.98
632.57	538.00
632.91	535.71
633.26	533.55
633.60	531.40
633.95	529.37
634.29	527.19
634.64	525.17
634.98	522.89
635.32	520.77
635.67	518.92
636.01	516.78
636.36	514.80
636.70	512.91
637.05	510.86
637.39	508.95
637.73	507.04
638.08	505.35
638.42	503.55
638.77	501.85
639.11	499.90
639.45	498.19
639.80	496.05
640.14	493.97
640.49	492.04
640.83	490.13
641.17	488.15
641.52	486.11
641.86	484.14
642.20	482.35
642.55	480.25
642.89	478.26
643.23	476.28
643.58	474.60
643.92	472.45
644.26	470.60
644.61	468.73
644.95	466.77
645.29	464.55
645.64	462.66
645.98	460.60
646.32	458.80
646.66	456.77
647.01	454.85
647.35	453.15
647.69	451.17
648.04	449.31
648.38	447.37
648.72	445.46
649.06	443.49
649.41	441.54
649.75	439.59
650.09	437.61
650.43	435.82
650.78	433.70
651.12	431.79
651.46	429.93
651.80	428.07
652.14	426.19
652.49	424.60
652.83	422.67
653.17	420.81
653.51	418.98
653.85	417.26
654.20	415.67
654.54	413.82
654.88	412.02
655.22	410.41
655.56	408.65
655.90	406.84
656.25	405.24
656.59	403.54
656.93	401.88
657.27	400.31
657.61	398.38
657.95	396.75
658.29	395.07
658.64	393.54
658.98	391.75
659.32	389.98
659.66	388.27
660.00	386.62
660.34	384.99
660.68	383.36
661.02	381.66
661.36	379.94
661.70	378.45
662.05	377.07
662.39	375.47
662.73	374.09
663.07	372.88
663.41	371.47
663.75	370.01
664.09	368.49
664.43	366.86
664.77	365.55
665.11	364.14
665.45	362.88
665.79	361.51
666.13	360.13
666.47	358.66
666.81	357.31
667.15	355.82
667.49	354.59
667.83	353.39
668.17	352.11
668.51	350.95
668.85	349.78
669.19	348.61
669.53	347.32
669.87	345.91
670.21	344.50
670.55	343.16
670.89	342.15
671.23	341.12
671.57	340.20
671.91	339.10
672.25	337.93
672.58	336.82
672.92	335.62
673.26	334.61
673.60	333.60
673.94	332.47
674.28	331.51
674.62	330.37
674.96	329.27
675.30	328.27
675.64	327.21
675.97	326.08
676.31	324.94
676.65	323.87
676.99	323.13
677.33	322.09
677.67	321.08
678.01	319.85
678.34	318.85
678.68	317.78
679.02	316.77
679.36	315.78
679.70	314.78
680.04	313.85
680.37	312.78
680.71	311.89
681.05	311.00
681.39	310.09
681.73	309.21
682.06	308.28
682.40	307.30
682.74	306.40
683.08	305.57
683.42	304.59
683.75	303.66
684.09	302.59
684.43	301.78
684.77	300.83
685.10	299.98
685.44	299.02
685.78	298.12
686.12	297.40
686.45	296.60
686.79	295.68
687.13	294.83
687.46	294.12
687.80	293.40
688.14	292.55
688.48	291.70
688.81	290.89
689.15	290.13
689.49	289.43
689.82	288.69
690.16	287.77
690.50	286.98
690.83	286.16
691.17	285.25
691.51	284.43
691.84	283.84
692.18	283.00
692.52	282.28
692.85	281.66
693.19	280.99
693.52	280.25
693.86	279.55
694.20	278.81
694.53	278.03
694.87	277.30
695.21	276.57
695.54	275.88
695.88	275.18
696.21	274.45
696.55	273.86
696.88	273.11
697.22	272.46
697.56	271.98
697.89	271.36
698.23	270.89
698.56	270.24
698.90	269.65
699.23	269.17
699.57	268.60
699.90	267.87
700.24	267.14
700.58	266.55
700.91	266.03
701.25	265.75
701.58	265.22
701.92	264.69
702.25	264.21
702.59	263.70
702.92	263.20
703.26	262.65
703.59	262.01
703.93	261.73
704.26	261.33
704.60	260.70
704.93	260.21
705.26	259.54
705.60	259.06
705.93	258.44
706.27	258.01
706.60	257.64
706.94	257.34
707.27	256.79
707.61	256.30
707.94	255.79
708.27	254.94
708.61	254.45
708.94	253.92
709.28	253.41
709.61	252.91
709.94	252.41
710.28	251.98
710.61	251.63
710.95	250.94
711.28	250.65
711.61	250.32
711.95	250.02
712.28	249.73
712.61	249.31
712.95	249.13
713.28	248.80
713.61	248.33
713.95	247.89
714.28	247.65
714.61	247.30
714.95	246.95
715.28	246.67
715.61	246.30
715.95	245.93
716.28	245.54
716.61	245.22
716.95	244.83
717.28	244.48
717.61	244.04
717.94	243.71
718.28	243.15
718.61	242.77
718.94	242.34
719.27	241.96
719.61	241.75
719.94	241.30
720.27	240.81
720.60	240.52
720.94	240.20
721.27	239.86
721.60	239.63
721.93	239.28
722.27	239.14
722.60	238.94
722.93	238.65
723.26	238.51
723.59	238.19
723.93	237.92
724.26	237.68
724.59	237.48
724.92	237.30
725.25	237.16
725.59	236.98
725.92	236.80
726.25	236.57
726.58	236.30
726.91	236.07
727.24	235.97
727.57	235.70
727.91	235.46
728.24	235.28
728.57	235.05
728.90	234.91
729.23	234.60
729.56	234.50
729.89	234.36
730.22	234.10
730.55	233.90
730.89	233.84
731.22	233.59
731.55	233.30
731.88	233.09
732.21	232.84
732.54	232.55
732.87	232.29
733.20	232.16
733.53	231.97
733.86	231.75
734.19	231.45
734.52	231.37
734.85	231.38
735.18	231.07
735.51	230.94
735.84	230.80
736.17	230.68
736.50	230.32
736.83	230.50
737.16	230.24
737.49	230.10
737.82	229.76
738.15	229.74
738.48	229.58
738.81	229.40
739.14	229.20
739.47	229.10
739.80	228.95
740.13	228.85
740.46	228.55
740.79	228.35
741.12	228.20
741.45	227.92
741.78	227.54
742.11	227.49
742.44	227.22
742.77	227.05
743.10	226.80
743.43	226.68
743.75	226.20
744.08	226.58
744.41	226.41
744.74	226.25
745.07	226.00
745.40	225.91
745.73	225.99
746.06	225.88
746.39	225.71
746.71	225.58
747.04	225.38
747.37	225.29
747.70	225.18
748.03	225.03
748.36	224.97
748.68	224.84
749.01	224.65
749.34	224.59
749.67	224.46
750.00	224.40
750.33	224.42
750.65	224.33
750.98	223.73
751.31	223.60
751.64	223.54
751.97	223.56
752.29	223.46
752.62	223.10
752.95	222.90
753.28	222.80
753.60	222.68
753.93	222.60
754.26	222.50
754.59	222.30
754.91	222.15
755.24	222.02
755.57	221.91
755.90	221.77
756.22	221.58
756.55	221.45
756.88	221.28
757.20	221.01
757.53	220.83
757.86	220.69
758.19	220.56
758.51	220.42
758.84	220.13
759.17	219.97
759.49	219.85
759.82	219.96
760.15	219.86
760.47	219.68
760.80	219.47
761.13	219.41
761.45	219.30
761.78	219.23
762.11	219.18
762.43	219.06
762.76	218.95
763.08	218.89
763.41	218.83
763.74	218.79
764.06	218.65
764.39	218.54
764.71	218.52
765.04	218.48
765.37	218.35
765.69	218.23
766.02	218.14
766.34	218.01
766.67	217.80
767.00	217.73
767.32	217.84
767.65	217.99
767.97	217.84
768.30	217.75
768.62	217.74
768.95	217.58
769.27	217.48
769.60	217.49
769.92	217.42
770.25	217.22
770.57	217.09
770.90	217.02
771.22	216.95
771.55	216.83
771.87	216.75
772.20	216.75
772.52	217.03
772.85	217.39
773.17	217.44
773.50	217.30
773.82	217.22
774.15	217.04
774.47	216.68
774.80	216.64
775.12	216.65
775.45	216.50
775.77	216.45
776.09	216.48
776.42	216.47
776.74	216.46
777.07	216.46
777.39	216.37
777.72	216.29
778.04	216.21
778.36	216.18
778.69	216.16
779.01	216.09
779.33	215.75
779.66	215.29
779.98	215.18
780.31	215.23
780.63	215.35
780.95	215.35
781.28	215.31
781.60	215.29
781.92	215.29
782.25	215.22
782.57	215.14
782.89	215.06
783.22	214.89
783.54	214.81
783.86	214.81
784.19	214.77
784.51	214.89
784.83	214.80
785.16	214.71
785.48	214.65
785.80	214.69
786.12	214.69
786.45	214.70
786.77	214.70
787.09	214.63
787.42	214.41
787.74	214.37
788.06	214.37
788.38	214.23
788.71	214.17
789.03	214.17
789.35	214.20
789.67	214.08
789.99	214.09
790.32	214.04
790.64	214.00
790.96	214.27
791.28	214.06
791.61	214.10
791.93	214.15
792.25	214.16
792.57	214.31
792.89	214.20
793.21	214.14
793.54	214.07
793.86	213.96
794.18	213.99
794.50	213.97
794.82	214.05
795.14	214.10
795.47	214.09
795.79	214.12
796.11	214.02
796.43	214.06
796.75	214.07
797.07	214.01
797.39	213.98
797.71	213.76
798.04	213.77
798.36	213.70
798.68	213.67
799.00	213.65
799.32	213.45
799.64	213.44
799.96	213.45
800.28	213.50
800.60	213.44
800.92	213.42
801.24	213.35
801.56	213.30
801.89	213.25
802.21	213.28
802.53	213.20
802.85	213.30
803.17	213.40
803.49	213.37
803.81	213.37
804.13	213.35
804.45	213.24
804.77	213.28
805.09	213.21
805.41	213.11
805.73	213.03
806.05	212.92
806.37	212.95
806.69	212.84
807.01	212.79
807.33	212.82
807.65	212.60
807.97	212.74
808.28	212.78
808.60	212.80
808.92	212.74
809.24	212.86
809.56	212.83
809.88	212.67
810.20	212.69
810.52	212.69
810.84	212.58
811.16	212.53
811.48	212.40
811.80	212.64
812.12	212.61
812.43	212.63
812.75	212.70
813.07	212.66
813.39	212.72
813.71	212.69
814.03	212.69
814.35	212.82
814.67	212.60
814.98	212.50
815.30	212.47
815.62	212.40
815.94	212.22
816.26	212.13
816.58	212.06
816.89	212.02
817.21	211.93
817.53	212.02
817.85	212.12
818.17	212.20
818.48	211.98
818.80	212.11
819.12	212.08
819.44	211.95
819.76	211.89
820.07	211.84
820.39	211.76
820.71	211.77
821.03	211.75
821.34	211.77
821.66	211.77
821.98	211.78
822.30	211.77
822.61	212.01
822.93	212.00
823.25	211.99
823.57	211.98
823.88	212.03
824.20	212.02
824.52	212.03
824.83	212.01
825.15	212.01
825.47	211.87
825.79	211.89
826.10	211.93
826.42	211.90
826.74	211.95
827.05	211.93
827.37	211.90
827.69	211.89
828.00	211.91
828.32	211.86
828.64	211.84
828.95	211.95
829.27	211.81
829.58	211.85
829.90	211.90
830.22	211.91
830.53	211.84
830.85	211.74
831.17	211.65
831.48	211.60
831.80	211.63
832.11	211.69
832.43	211.67
832.75	211.65
833.06	211.85
833.38	211.75
833.69	211.78
834.01	211.81
834.32	211.80
834.64	211.79
834.96	211.89
835.27	211.89
835.59	211.82
835.90	211.73
836.22	211.69
836.53	211.66
836.85	211.61
837.16	211.99
837.48	212.09
837.79	212.16
838.11	212.26
838.42	212.23
838.74	212.33
839.05	212.23
839.37	212.24
839.68	212.00
840.00	212.00
840.31	212.11
840.63	212.05
840.94	211.97
841.26	211.94
841.57	211.89
841.88	211.92
842.20	211.89
842.51	211.88
842.83	211.93
843.14	212.26
843.46	212.28
843.77	212.07
844.08	212.04
844.40	211.90
844.71	211.81
845.03	211.75
845.34	211.65
845.65	211.70
845.97	211.76
846.28	211.87
846.60	211.85
846.91	211.72
847.22	211.70
847.54	211.80
847.85	211.83
848.16	211.76
848.48	211.70
848.79	211.88
849.10	211.87
849.42	211.84
849.73	211.51
850.04	211.53
850.36	211.36
850.67	211.38
850.98	211.46
851.30	211.51
851.61	211.54
851.92	211.58
852.23	211.69
852.55	211.65
852.86	211.66
853.17	211.71
853.49	211.78
853.80	211.93
854.11	211.90
854.42	211.94
854.74	211.91
855.05	211.92
855.36	211.69
855.67	211.73
855.99	211.69
856.30	212.16
856.61	212.16
856.92	212.20
857.23	212.18
857.55	212.10
857.86	212.01
858.17	212.06
858.48	211.96
858.79	211.82
859.11	211.82
859.42	211.78
859.73	211.66
860.04	211.62
860.35	211.55
860.66	211.50
860.98	211.44
861.29	211.51
861.60	211.41
861.91	211.50
862.22	211.45
862.53	211.43
862.84	210.99
863.16	210.98
863.47	210.91
863.78	210.90
864.09	210.96
864.40	211.04
864.71	211.06
865.02	211.12
865.33	211.09
865.64	211.03
865.95	211.05
866.27	211.36
866.58	211.40
866.89	211.40
867.20	211.39
867.51	211.37
867.82	211.39
868.13	211.54
868.44	211.45
868.75	211.47
869.06	211.52
869.37	211.48
869.68	211.42
869.99	211.49
870.30	211.45
870.61	211.50
870.92	211.41
871.23	211.33
871.54	211.37
871.85	211.53
872.16	211.57
872.47	211.56
872.78	211.29
873.09	211.22
873.40	211.13
873.71	211.12
874.02	211.08
874.33	211.01
874.64	210.96
874.95	211.02
875.26	210.97
875.56	210.95
875.87	210.99
876.18	210.97
876.49	211.38
876.80	211.39
877.11	211.27
877.42	211.28
877.73	211.30
878.04	211.16
878.35	211.15
878.66	211.20
878.96	211.14
879.27	211.14
879.58	211.17
879.89	211.19
880.20	211.27
880.51	211.25
880.82	211.29
881.12	211.24
881.43	211.19
881.74	211.15
882.05	211.10
882.36	211.11
882.67	211.15
882.97	210.71
883.28	210.62
883.59	210.62
883.90	210.63
884.21	210.63
884.51	210.67
884.82	210.53
885.13	210.47
885.44	210.48
885.74	210.53
886.05	210.51
886.36	210.53
886.67	210.44
886.98	210.61
887.28	210.66
887.59	210.70
887.90	210.78
888.20	210.79
888.51	210.87
888.82	210.83
889.13	210.86
889.43	211.10
889.74	211.15
890.05	211.15
890.35	211.15
890.66	211.11
890.97	211.08
891.28	211.10
891.58	211.07
891.89	211.13
892.20	211.06
892.50	211.01
892.81	211.03
893.12	211.12
893.42	210.99
893.73	210.98
894.04	210.99
894.34	210.97
894.65	210.98
894.95	210.93
895.26	210.95
895.57	211.10
895.87	210.80
896.18	210.87
896.48	210.96
896.79	211.02
897.10	211.06
897.40	211.09
897.71	211.13
898.01	211.14
898.32	211.15
898.63	211.12
898.93	211.22
899.24	211.20
899.54	211.12
899.85	211.14
900.15	211.15
900.46	211.18
900.76	211.22
901.07	211.25
901.38	211.30
901.68	211.36
901.99	211.20
902.29	211.22
902.60	211.15
902.90	211.09
903.21	211.09
903.51	211.05
903.82	211.18
904.12	211.21
904.43	211.27
904.73	211.19
905.03	211.29
905.34	211.62
905.64	211.56
905.95	211.52
906.25	211.50
906.56	211.50
906.86	211.42
907.17	211.41
907.47	211.36
907.77	211.30
908.08	211.20
908.38	211.18
908.69	211.28
908.99	211.35
909.30	211.38
909.60	211.35
909.90	211.42
910.21	211.28
910.51	211.14
910.81	211.15
911.12	211.20
911.42	211.26
911.73	210.91
912.03	210.99
912.33	211.14
912.64	211.15
912.94	211.10
913.24	211.10
913.55	211.02
913.85	211.02
914.15	211.04
914.46	211.06
914.76	211.08
915.06	211.03
915.37	210.98
915.67	211.00
915.97	211.00
916.27	210.94
916.58	210.97
916.88	211.01
917.18	210.96
917.49	211.15
917.79	211.09
918.09	211.10
918.39	211.15
918.70	211.05
919.00	211.09
919.30	211.22
919.60	211.21
919.91	211.23
920.21	211.33
920.51	211.26
920.81	211.25
921.12	211.31
921.42	211.31
921.72	211.39
922.02	211.38
922.32	211.42
922.63	211.42
922.93	211.53
923.23	211.58
923.53	211.53
923.83	211.37
924.13	211.34
924.44	211.31
924.74	211.39
925.04	211.49
925.34	211.41
925.64	211.26
925.94	211.27
926.24	211.41
926.55	211.31
926.85	211.44
927.15	211.39
927.45	211.35
927.75	211.37
928.05	211.32
928.35	211.24
928.65	211.30
928.95	211.35
929.26	211.18
929.56	211.24
929.86	211.28
930.16	211.20
930.46	211.20
930.76	211.20
931.06	211.03
931.36	211.00
931.66	211.09
931.96	211.15
932.26	211.13
932.56	211.01
932.86	210.99
933.16	210.92
933.46	210.93
933.76	210.89
934.06	210.94
934.36	211.06
934.66	211.13
934.96	211.09
935.26	211.08
935.56	211.22
935.86	211.13
936.16	211.05
936.46	211.10
936.76	211.10
937.06	211.13
937.36	211.17
937.66	211.13
937.96	211.13
938.26	211.01
938.56	211.07
938.86	211.01
939.16	211.16
939.46	211.25
939.76	211.31
940.06	211.36
940.35	211.21
940.65	211.04
940.95	211.01
941.25	210.91
941.55	210.89
941.85	210.86
942.15	210.93
942.45	211.08
942.75	211.04
943.04	211.03
943.34	211.02
943.64	211.03
943.94	211.03
944.24	211.01
944.54	211.06
944.84	210.99
945.13	210.96
945.43	210.81
945.73	210.82
946.03	210.80
946.33	210.68
946.62	210.69
946.92	210.64
947.22	210.66
947.52	210.68
947.82	210.67
948.11	210.65
948.41	210.56
948.71	210.46
949.01	210.48
949.31	210.47
949.60	210.52
949.90	210.56
950.20	210.47
950.50	210.46
950.79	210.44
951.09	210.53
951.39	210.59
951.69	210.65
951.98	210.66
952.28	210.65
952.58	210.73
952.87	210.80
953.17	210.86
953.47	210.82
953.76	210.87
954.06	210.81
954.36	210.66
954.66	210.66
954.95	210.75
955.25	210.79
955.55	210.87
955.84	210.80
956.14	210.80
956.44	210.91
956.73	210.86
957.03	210.91
957.32	210.88
957.62	210.92
957.92	210.96
958.21	210.98
958.51	211.38
958.81	211.39
959.10	211.40
959.40	211.51
959.69	211.56
959.99	211.54
960.29	211.60
960.58	211.71
960.88	211.82
961.17	211.81
961.47	211.88
961.76	211.71
962.06	211.81
962.36	211.78
962.65	211.73
962.95	211.79
963.24	211.76
963.54	211.81
963.83	211.82
964.13	211.80
964.42	211.68
964.72	211.35
965.01	211.36
965.31	211.27
965.60	211.15
965.90	211.32
966.19	211.31
966.49	211.30
966.78	211.25
967.08	211.25
967.37	211.25
967.67	211.14
967.96	211.29
968.26	211.23
968.55	211.28
968.85	211.34
969.14	211.27
969.43	211.24
969.73	211.12
970.02	211.04
970.32	211.04
970.61	211.02
970.91	210.92
971.20	210.88
971.49	210.85
971.79	210.90
972.08	210.66
972.38	210.64
972.67	210.68
972.96	210.74
973.26	210.63
973.55	210.66
973.85	210.69
974.14	210.60
974.43	210.67
974.73	210.68
975.02	210.61
975.31	210.63
975.61	210.61
975.90	210.62
976.19	210.61
976.49	210.60
976.78	210.65
977.07	210.70
977.37	210.74
977.66	210.87
977.95	210.83
978.24	210.90
978.54	210.98
978.83	210.95
979.12	210.91
979.42	210.95
979.71	210.95
980.00	210.93
980.29	210.96
980.59	210.79
980.88	210.82
981.17	210.76
981.46	210.74
981.76	210.76
982.05	210.92
982.34	210.97
982.63	211.04
982.93	210.96
983.22	211.03
983.51	210.98
983.80	211.04
984.09	211.11
984.39	211.09
984.68	211.03
984.97	210.98
985.26	210.89
985.55	210.95
985.85	210.89
986.14	210.95
986.43	211.00
986.72	210.98
987.01	210.89
987.30	210.95
987.59	210.96
987.89	211.06
988.18	210.92
988.47	210.86
988.76	210.77
989.05	210.79
989.34	210.74
989.63	210.78
989.92	210.72
990.22	210.68
990.51	210.66
990.80	210.67
991.09	210.70
991.38	210.82
991.67	210.75
991.96	210.71
992.25	210.73
992.54	210.69
992.83	210.79
993.12	210.72
993.41	210.83
993.70	211.01
993.99	211.00
994.28	211.05
994.58	211.08
994.87	211.07
995.16	211.11
995.45	211.11
995.74	211.09
996.03	211.12
996.32	211.15
996.61	211.20
996.90	211.19
997.19	211.22
997.48	211.18
997.77	211.12
998.06	211.13
998.34	211.08
998.63	211.09
998.92	211.07
999.21	211.19
999.50	211.15
999.79	210.98
1000.08	210.95
1000.37	210.93
1000.66	210.88
1000.95	210.99
1001.24	210.99
1001.53	211.04
1001.82	211.05
1002.11	210.94
1002.40	210.94
1002.68	211.07
1002.97	211.30
1003.26	211.26
1003.55	211.25
1003.84	211.34
1004.13	211.47
1004.42	211.39
1004.71	211.39
1004.99	211.38
1005.28	211.40
1005.57	211.36
1005.86	211.31
1006.15	211.26
1006.44	211.23
1006.72	211.30
1007.01	211.19
1007.30	211.20
1007.59	211.15
1007.88	211.14
1008.17	211.14
1008.45	211.12
1008.74	210.92
1009.03	210.76
1009.32	210.78
1009.60	210.72
1009.89	210.69
1010.18	210.53
1010.47	210.60
1010.76	210.57
1011.04	210.56
1011.33	210.56
1011.62	210.62
1011.91	210.69
1012.19	210.74
1012.48	210.72
1012.77	210.68
1013.05	210.85
1013.34	210.86
1013.63	210.86
1013.92	210.86
1014.20	210.84
1014.49	210.86
1014.78	210.97
1015.06	210.83
1015.35	210.80
1015.64	210.90
1015.92	210.93
1016.21	211.00
1016.50	210.95
1016.78	210.99
1017.07	211.02
1017.36	210.95
1017.64	210.91
1017.93	210.90
1018.22	210.94
1018.50	210.97
1018.79	211.02
1019.08	210.82
1019.36	210.81
1019.65	210.79
1019.93	210.90
1020.22	211.01
1020.51	211.14
1020.79	211.08
1021.08	211.65
1021.36	210.50
1021.65	211.65
1021.94	209.60
1022.22	211.10
1022.51	210.55
1022.79	212.95
1023.08	211.95
1023.36	214.30
1023.65	210.55
>>>>>End Processed Spectral Data<<<<<
