SpectraSuite Data File
++++++++++++++++++++++++++++++++++++
Date: Tue Jan 29 16:05:48 EST 2013
User: group
Dark Spectrum Present: No
Reference Spectrum Present: No
Number of Sampled Component Spectra: 1
Spectrometers: USB2E7196
Integration Time (usec): 65000 (USB2E7196)
Spectra Averaged: 100 (USB2E7196)
Boxcar Smoothing: 10 (USB2E7196)
Correct for Electrical Dark: No (USB2E7196)
Strobe/Lamp Enabled: No (USB2E7196)
Correct for Detector Non-linearity: No (USB2E7196)
Correct for Stray Light: No (USB2E7196)
Number of Pixels in Processed Spectrum: 2048
>>>>>Begin Processed Spectral Data<<<<<
339.09	0.00
339.48	202.51
339.86	203.78
340.24	205.73
340.63	206.68
341.01	211.45
341.39	209.42
341.78	210.96
342.16	212.57
342.54	212.24
342.93	201.77
343.31	211.99
343.69	212.55
344.07	213.03
344.46	213.46
344.84	213.89
345.22	214.06
345.60	214.33
345.99	214.58
346.37	214.72
346.75	214.86
347.13	214.93
347.52	215.06
347.90	215.22
348.28	215.27
348.66	215.37
349.05	215.35
349.43	215.42
349.81	215.48
350.19	215.51
350.57	215.59
350.96	215.70
351.34	215.79
351.72	215.86
352.10	215.99
352.48	216.05
352.87	216.10
353.25	216.17
353.63	216.24
354.01	216.24
354.39	216.34
354.77	216.40
355.15	216.55
355.54	216.55
355.92	216.52
356.30	216.59
356.68	216.79
357.06	216.86
357.44	216.87
357.82	216.95
358.20	217.05
358.58	217.11
358.97	217.14
359.35	217.27
359.73	217.40
360.11	217.43
360.49	217.47
360.87	217.51
361.25	217.56
361.63	217.66
362.01	217.73
362.39	217.73
362.77	217.78
363.15	217.78
363.53	217.82
363.91	217.84
364.29	217.83
364.67	217.64
365.05	217.68
365.43	217.74
365.81	217.76
366.19	217.85
366.57	217.94
366.95	217.95
367.33	217.87
367.71	217.83
368.09	217.88
368.47	217.89
368.85	217.88
369.23	217.92
369.61	217.84
369.99	217.88
370.37	217.89
370.75	217.97
371.13	217.90
371.51	217.84
371.89	217.83
372.27	217.85
372.65	217.82
373.03	217.78
373.41	217.72
373.78	217.65
374.16	217.52
374.54	217.38
374.92	217.30
375.30	217.25
375.68	217.17
376.06	217.11
376.44	217.04
376.82	217.02
377.19	216.96
377.57	216.94
377.95	216.82
378.33	216.74
378.71	216.59
379.09	216.59
379.47	216.57
379.84	216.51
380.22	216.42
380.60	216.35
380.98	216.30
381.36	216.26
381.73	216.23
382.11	216.24
382.49	216.20
382.87	216.15
383.25	216.12
383.62	216.35
384.00	216.29
384.38	216.28
384.76	216.27
385.13	216.31
385.51	216.25
385.89	216.20
386.27	216.20
386.64	216.19
387.02	216.14
387.40	216.09
387.78	216.09
388.15	216.09
388.53	216.07
388.91	216.03
389.29	215.97
389.66	215.97
390.04	215.91
390.42	215.93
390.79	215.92
391.17	215.90
391.55	215.65
391.92	215.64
392.30	215.66
392.68	215.60
393.05	215.59
393.43	215.59
393.81	215.62
394.18	215.61
394.56	215.63
394.94	215.66
395.31	215.66
395.69	215.73
396.06	215.78
396.44	215.81
396.82	215.83
397.19	216.02
397.57	216.03
397.95	216.09
398.32	216.08
398.70	216.13
399.07	216.21
399.45	216.27
399.82	216.30
400.20	216.31
400.58	216.37
400.95	216.33
401.33	216.44
401.70	216.65
402.08	216.72
402.45	216.77
402.83	216.92
403.20	217.07
403.58	217.13
403.95	217.25
404.33	217.41
404.71	217.55
405.08	217.77
405.46	217.92
405.83	218.09
406.21	218.26
406.58	218.48
406.96	218.69
407.33	218.96
407.70	219.27
408.08	219.74
408.45	220.09
408.83	220.48
409.20	220.81
409.58	221.05
409.95	221.53
410.33	222.03
410.70	222.43
411.08	222.96
411.45	223.54
411.82	224.12
412.20	224.78
412.57	225.60
412.95	226.14
413.32	226.96
413.69	227.80
414.07	228.71
414.44	229.70
414.82	230.68
415.19	231.78
415.56	232.93
415.94	234.06
416.31	235.41
416.68	236.77
417.06	238.29
417.43	239.80
417.81	241.46
418.18	243.17
418.55	245.04
418.93	246.98
419.30	249.03
419.67	251.11
420.04	253.34
420.42	255.64
420.79	258.38
421.16	261.09
421.54	263.90
421.91	266.76
422.28	269.75
422.66	272.93
423.03	276.06
423.40	279.31
423.77	282.76
424.15	286.28
424.52	289.99
424.89	294.05
425.26	297.97
425.64	301.72
426.01	305.85
426.38	310.14
426.75	314.53
427.13	319.10
427.50	323.94
427.87	328.95
428.24	333.92
428.61	338.73
428.99	344.01
429.36	349.82
429.73	355.50
430.10	361.15
430.47	366.99
430.85	373.12
431.22	379.58
431.59	386.44
431.96	393.01
432.33	400.24
432.70	407.24
433.08	415.50
433.45	423.29
433.82	430.99
434.19	439.58
434.56	447.99
434.93	455.98
435.30	463.96
435.68	472.80
436.05	481.51
436.42	490.13
436.79	498.00
437.16	506.45
437.53	515.37
437.90	524.26
438.27	532.89
438.64	541.77
439.01	550.01
439.38	557.34
439.75	564.44
440.13	572.58
440.50	580.18
440.87	586.31
441.24	592.75
441.61	599.85
441.98	605.01
442.35	611.07
442.72	617.16
443.09	622.98
443.46	626.46
443.83	628.84
444.20	630.89
444.57	633.88
444.94	635.21
445.31	636.58
445.68	637.82
446.05	638.43
446.42	637.61
446.79	636.60
447.16	635.53
447.53	634.78
447.90	631.51
448.27	628.33
448.64	623.88
449.01	620.57
449.37	614.84
449.74	609.36
450.11	602.73
450.48	595.58
450.85	588.39
451.22	582.21
451.59	576.27
451.96	570.67
452.33	563.09
452.70	556.27
453.07	548.14
453.43	539.84
453.80	531.83
454.17	524.21
454.54	517.01
454.91	509.13
455.28	501.44
455.65	494.32
456.02	487.17
456.38	481.09
456.75	473.65
457.12	467.36
457.49	461.14
457.86	455.18
458.23	450.02
458.59	444.33
458.96	438.59
459.33	433.54
459.70	428.38
460.07	424.29
460.43	419.58
460.80	415.18
461.17	411.35
461.54	407.32
461.91	403.46
462.27	399.49
462.64	396.23
463.01	392.57
463.38	389.03
463.74	385.47
464.11	382.32
464.48	379.54
464.85	376.60
465.21	374.24
465.58	371.72
465.95	368.70
466.32	366.17
466.68	363.62
467.05	361.14
467.42	358.67
467.78	356.14
468.15	353.72
468.52	351.88
468.88	349.51
469.25	347.37
469.62	345.62
469.98	343.76
470.35	341.99
470.72	340.39
471.08	338.69
471.45	337.26
471.82	335.80
472.18	334.20
472.55	333.05
472.92	331.73
473.28	330.57
473.65	329.46
474.02	328.43
474.38	327.59
474.75	326.89
475.11	326.11
475.48	325.63
475.85	325.19
476.21	324.79
476.58	324.50
476.94	324.30
477.31	324.04
477.67	323.82
478.04	323.72
478.41	323.70
478.77	323.87
479.14	323.85
479.50	324.03
479.87	324.35
480.23	324.66
480.60	324.95
480.96	325.26
481.33	325.97
481.69	326.56
482.06	327.10
482.42	327.60
482.79	328.25
483.15	329.00
483.52	329.96
483.88	330.82
484.25	331.72
484.61	332.74
484.98	333.78
485.34	335.09
485.71	336.46
486.07	337.89
486.44	339.20
486.80	340.81
487.17	342.45
487.53	344.26
487.90	346.15
488.26	348.17
488.62	350.31
488.99	352.31
489.35	354.51
489.72	356.90
490.08	359.41
490.44	361.94
490.81	364.65
491.17	367.38
491.54	370.32
491.90	373.43
492.26	376.67
492.63	380.07
492.99	383.58
493.36	387.23
493.72	391.11
494.08	395.12
494.45	399.33
494.81	403.69
495.17	408.17
495.54	412.84
495.90	417.65
496.26	422.59
496.63	427.75
496.99	433.10
497.35	438.63
497.72	444.41
498.08	450.33
498.44	456.43
498.80	462.83
499.17	469.35
499.53	475.97
499.89	482.85
500.26	489.80
500.62	496.85
500.98	504.27
501.34	511.69
501.71	519.43
502.07	527.21
502.43	535.23
502.79	543.26
503.16	551.66
503.52	560.20
503.88	568.89
504.24	577.82
504.60	586.86
504.97	596.04
505.33	605.37
505.69	615.17
506.05	624.93
506.41	634.70
506.78	644.73
507.14	654.95
507.50	665.41
507.86	676.11
508.22	686.88
508.59	697.55
508.95	708.59
509.31	719.85
509.67	731.29
510.03	742.63
510.39	754.39
510.75	766.18
511.12	778.09
511.48	790.06
511.84	802.18
512.20	814.46
512.56	827.04
512.92	839.67
513.28	852.18
513.64	864.88
514.00	877.63
514.37	890.45
514.73	903.45
515.09	916.20
515.45	928.78
515.81	941.66
516.17	954.78
516.53	967.89
516.89	980.80
517.25	993.80
517.61	1007.07
517.97	1020.21
518.33	1033.12
518.69	1046.44
519.05	1059.97
519.41	1073.47
519.77	1087.14
520.13	1100.27
520.49	1113.28
520.85	1126.54
521.21	1139.70
521.57	1153.18
521.93	1166.14
522.29	1179.67
522.65	1193.19
523.01	1206.63
523.37	1219.57
523.73	1232.67
524.09	1245.55
524.45	1258.70
524.81	1271.87
525.17	1285.04
525.53	1297.97
525.89	1311.02
526.25	1323.84
526.61	1336.44
526.97	1349.17
527.33	1361.78
527.68	1374.94
528.04	1388.07
528.40	1400.86
528.76	1413.89
529.12	1426.41
529.48	1439.32
529.84	1451.19
530.20	1463.56
530.56	1476.04
530.91	1489.00
531.27	1501.55
531.63	1514.02
531.99	1526.56
532.35	1538.58
532.71	1550.73
533.07	1563.34
533.42	1575.22
533.78	1587.03
534.14	1598.82
534.50	1609.76
534.86	1621.17
535.21	1631.75
535.57	1643.00
535.93	1654.03
536.29	1664.90
536.65	1676.12
537.00	1686.88
537.36	1698.05
537.72	1708.79
538.08	1719.77
538.44	1730.56
538.79	1741.24
539.15	1751.79
539.51	1762.13
539.87	1773.20
540.22	1783.62
540.58	1794.12
540.94	1804.90
541.29	1814.94
541.65	1824.54
542.01	1834.96
542.37	1844.69
542.72	1854.70
543.08	1864.18
543.44	1874.23
543.79	1883.33
544.15	1892.52
544.51	1902.17
544.87	1911.88
545.22	1920.82
545.58	1929.43
545.94	1937.95
546.29	1946.38
546.65	1954.53
547.01	1962.61
547.36	1970.02
547.72	1977.48
548.07	1984.96
548.43	1992.25
548.79	1999.95
549.14	2007.71
549.50	2015.62
549.86	2023.16
550.21	2030.21
550.57	2037.59
550.92	2044.32
551.28	2051.46
551.64	2058.56
551.99	2065.80
552.35	2072.76
552.70	2079.41
553.06	2085.91
553.41	2091.99
553.77	2098.25
554.13	2104.44
554.48	2111.23
554.84	2117.99
555.19	2124.44
555.55	2130.70
555.90	2137.00
556.26	2143.56
556.61	2149.43
556.97	2154.36
557.32	2160.14
557.68	2166.47
558.03	2172.17
558.39	2177.19
558.74	2183.08
559.10	2188.50
559.45	2194.10
559.81	2199.44
560.16	2204.86
560.52	2210.73
560.87	2217.14
561.23	2223.13
561.58	2229.78
561.94	2234.87
562.29	2239.69
562.64	2245.92
563.00	2251.51
563.35	2257.09
563.71	2262.88
564.06	2268.64
564.42	2274.57
564.77	2279.80
565.12	2284.96
565.48	2290.23
565.83	2295.86
566.19	2301.37
566.54	2306.74
566.89	2311.40
567.25	2316.13
567.60	2321.96
567.96	2327.28
568.31	2331.94
568.66	2336.28
569.02	2340.20
569.37	2344.09
569.72	2348.70
570.08	2352.19
570.43	2355.40
570.78	2358.73
571.14	2361.46
571.49	2364.57
571.84	2368.19
572.20	2371.06
572.55	2374.23
572.90	2376.38
573.26	2379.59
573.61	2382.08
573.96	2384.48
574.31	2386.47
574.67	2388.45
575.02	2389.44
575.37	2390.85
575.72	2391.71
576.08	2393.28
576.43	2393.71
576.78	2394.63
577.13	2396.42
577.49	2397.85
577.84	2399.26
578.19	2400.71
578.54	2401.50
578.90	2402.73
579.25	2402.78
579.60	2403.13
579.95	2402.54
580.30	2403.25
580.66	2402.59
581.01	2401.16
581.36	2399.16
581.71	2398.03
582.06	2397.39
582.42	2396.80
582.77	2394.81
583.12	2393.41
583.47	2392.25
583.82	2391.90
584.17	2390.76
584.53	2388.72
584.88	2386.82
585.23	2385.12
585.58	2382.96
585.93	2380.87
586.28	2378.79
586.63	2376.70
586.98	2374.52
587.34	2372.84
587.69	2370.49
588.04	2368.73
588.39	2367.43
588.74	2365.11
589.09	2362.79
589.44	2359.69
589.79	2357.45
590.14	2355.81
590.49	2353.17
590.84	2349.54
591.19	2346.61
591.54	2343.47
591.89	2339.62
592.25	2336.41
592.60	2332.27
592.95	2328.30
593.30	2324.38
593.65	2319.95
594.00	2315.80
594.35	2312.84
594.70	2308.32
595.05	2303.77
595.40	2298.39
595.75	2293.03
596.10	2289.46
596.45	2284.71
596.80	2280.31
597.15	2275.13
597.50	2269.33
597.85	2264.50
598.19	2259.43
598.54	2253.66
598.89	2248.70
599.24	2244.33
599.59	2238.36
599.94	2232.86
600.29	2227.12
600.64	2221.36
600.99	2214.98
601.34	2209.51
601.69	2202.69
602.04	2196.54
602.39	2190.14
602.74	2184.29
603.08	2178.85
603.43	2172.48
603.78	2165.59
604.13	2158.47
604.48	2151.23
604.83	2145.23
605.18	2138.90
605.53	2132.05
605.87	2125.15
606.22	2118.30
606.57	2110.45
606.92	2102.77
607.27	2095.91
607.62	2089.35
607.96	2082.37
608.31	2075.83
608.66	2068.02
609.01	2060.52
609.36	2053.34
609.70	2045.79
610.05	2038.03
610.40	2029.79
610.75	2021.53
611.10	2014.11
611.44	2005.46
611.79	1996.91
612.14	1986.92
612.49	1976.53
612.83	1967.36
613.18	1958.25
613.53	1949.03
613.88	1939.51
614.22	1930.89
614.57	1920.83
614.92	1910.39
615.27	1900.36
615.61	1890.37
615.96	1880.82
616.31	1871.19
616.65	1861.97
617.00	1852.07
617.35	1842.38
617.70	1832.65
618.04	1822.50
618.39	1812.13
618.74	1802.44
619.08	1792.88
619.43	1784.20
619.78	1776.05
620.12	1767.33
620.47	1757.46
620.82	1747.13
621.16	1737.30
621.51	1727.35
621.85	1717.52
622.20	1706.86
622.55	1696.23
622.89	1686.38
623.24	1676.72
623.59	1667.02
623.93	1656.81
624.28	1647.21
624.62	1637.10
624.97	1626.76
625.32	1617.04
625.66	1608.32
626.01	1599.45
626.35	1589.93
626.70	1579.78
627.04	1569.50
627.39	1559.53
627.73	1550.34
628.08	1541.35
628.43	1531.80
628.77	1522.58
629.12	1513.78
629.46	1506.02
629.81	1497.60
630.15	1487.88
630.50	1477.97
630.84	1467.59
631.19	1457.74
631.53	1448.31
631.88	1438.13
632.22	1428.02
632.57	1418.78
632.91	1408.42
633.26	1398.64
633.60	1389.12
633.95	1379.82
634.29	1370.43
634.64	1361.03
634.98	1351.22
635.32	1342.02
635.67	1333.40
636.01	1324.13
636.36	1314.31
636.70	1304.78
637.05	1295.51
637.39	1286.59
637.73	1277.97
638.08	1270.29
638.42	1261.85
638.77	1253.01
639.11	1244.79
639.45	1237.05
639.80	1228.40
640.14	1219.80
640.49	1210.85
640.83	1201.98
641.17	1193.92
641.52	1185.67
641.86	1176.97
642.20	1169.02
642.55	1160.28
642.89	1151.43
643.23	1142.71
643.58	1134.65
643.92	1125.60
644.26	1116.81
644.61	1108.49
644.95	1099.69
645.29	1090.39
645.64	1081.38
645.98	1073.08
646.32	1065.10
646.66	1056.56
647.01	1048.10
647.35	1039.94
647.69	1031.55
648.04	1023.20
648.38	1014.15
648.72	1005.37
649.06	996.96
649.41	988.74
649.75	980.84
650.09	973.03
650.43	964.88
650.78	956.61
651.12	948.92
651.46	941.68
651.80	934.44
652.14	927.19
652.49	919.74
652.83	912.33
653.17	904.51
653.51	896.90
653.85	889.74
654.20	882.57
654.54	875.06
654.88	868.01
655.22	860.94
655.56	854.10
655.90	847.37
656.25	840.76
656.59	833.77
656.93	826.77
657.27	819.60
657.61	812.82
657.95	806.79
658.29	801.01
658.64	794.83
658.98	788.39
659.32	781.87
659.66	775.65
660.00	769.40
660.34	763.38
660.68	757.38
661.02	751.04
661.36	745.16
661.70	739.44
662.05	733.83
662.39	728.40
662.73	723.12
663.07	717.81
663.41	712.29
663.75	706.77
664.09	701.18
664.43	695.86
664.77	690.56
665.11	684.78
665.45	678.87
665.79	673.12
666.13	667.47
666.47	662.01
666.81	656.70
667.15	651.44
667.49	646.31
667.83	641.06
668.17	635.94
668.51	630.90
668.85	626.10
669.19	621.28
669.53	616.30
669.87	611.20
670.21	606.52
670.55	601.83
670.89	597.44
671.23	593.19
671.57	588.93
671.91	584.67
672.25	580.54
672.58	576.43
672.92	572.44
673.26	568.61
673.60	564.85
673.94	561.06
674.28	557.44
674.62	553.74
674.96	550.03
675.30	546.57
675.64	542.91
675.97	539.25
676.31	535.68
676.65	532.10
676.99	528.67
677.33	524.86
677.67	521.17
678.01	517.37
678.34	513.78
678.68	510.26
679.02	506.68
679.36	503.05
679.70	499.47
680.04	495.96
680.37	492.52
680.71	489.23
681.05	486.07
681.39	482.90
681.73	479.73
682.06	476.81
682.40	473.79
682.74	470.66
683.08	467.54
683.42	464.32
683.75	461.40
684.09	458.44
684.43	455.66
684.77	452.83
685.10	450.10
685.44	447.22
685.78	444.34
686.12	441.62
686.45	438.97
686.79	436.38
687.13	433.95
687.46	431.34
687.80	428.71
688.14	425.93
688.48	423.35
688.81	420.84
689.15	418.28
689.49	415.69
689.82	413.24
690.16	410.73
690.50	408.35
690.83	405.90
691.17	403.47
691.51	401.06
691.84	398.92
692.18	396.74
692.52	394.55
692.85	392.44
693.19	390.34
693.52	388.20
693.86	386.03
694.20	383.85
694.53	381.81
694.87	379.61
695.21	377.52
695.54	375.36
695.88	373.20
696.21	371.02
696.55	368.90
696.88	366.92
697.22	364.97
697.56	363.15
697.89	361.31
698.23	359.54
698.56	357.85
698.90	356.08
699.23	354.21
699.57	352.36
699.90	350.56
700.24	348.78
700.58	347.05
700.91	345.46
701.25	343.95
701.58	342.36
701.92	340.82
702.25	339.30
702.59	337.76
702.92	336.27
703.26	334.78
703.59	333.43
703.93	332.13
704.26	330.73
704.60	329.24
704.93	327.78
705.26	326.34
705.60	324.89
705.93	323.43
706.27	322.12
706.60	320.92
706.94	319.73
707.27	318.36
707.61	317.06
707.94	315.74
708.27	314.23
708.61	312.82
708.94	311.52
709.28	310.27
709.61	309.07
709.94	307.90
710.28	306.71
710.61	305.50
710.95	304.12
711.28	303.06
711.61	301.90
711.95	300.83
712.28	299.65
712.61	298.49
712.95	297.48
713.28	296.48
713.61	295.37
713.95	294.27
714.28	293.32
714.61	292.33
714.95	291.29
715.28	290.34
715.61	289.36
715.95	288.43
716.28	287.47
716.61	286.53
716.95	285.55
717.28	284.65
717.61	283.75
717.94	282.88
718.28	281.87
718.61	281.05
718.94	280.13
719.27	279.35
719.61	278.54
719.94	277.66
720.27	276.71
720.60	275.87
720.94	275.05
721.27	274.29
721.60	273.61
721.93	272.92
722.27	272.29
722.60	271.69
722.93	270.96
723.26	270.33
723.59	269.67
723.93	269.08
724.26	268.44
724.59	267.79
724.92	267.22
725.25	266.76
725.59	266.21
725.92	265.71
726.25	265.11
726.58	264.57
726.91	263.98
727.24	263.47
727.57	262.92
727.91	262.36
728.24	261.85
728.57	261.28
728.90	260.76
729.23	260.15
729.56	259.68
729.89	259.14
730.22	258.59
730.55	258.06
730.89	257.50
731.22	257.01
731.55	256.49
731.88	255.97
732.21	255.43
732.54	254.92
732.87	254.41
733.20	253.96
733.53	253.49
733.86	253.04
734.19	252.55
734.52	252.18
734.85	251.90
735.18	251.45
735.51	251.06
735.84	250.66
736.17	250.27
736.50	249.76
736.83	249.64
737.16	249.30
737.49	248.93
737.82	248.59
738.15	248.24
738.48	247.92
738.81	247.54
739.14	247.09
739.47	246.66
739.80	246.33
740.13	246.01
740.46	245.62
740.79	245.28
741.12	244.93
741.45	244.55
741.78	244.11
742.11	243.82
742.44	243.48
742.77	243.15
743.10	242.84
743.43	242.50
743.75	241.92
744.08	241.83
744.41	241.47
744.74	241.08
745.07	240.73
745.40	240.42
745.73	240.19
746.06	239.92
746.39	239.68
746.71	239.32
747.04	238.93
747.37	238.64
747.70	238.36
748.03	238.11
748.36	237.84
748.68	237.54
749.01	237.19
749.34	236.89
749.67	236.61
750.00	236.33
750.33	236.21
750.65	236.01
750.98	235.50
751.31	235.23
751.64	235.04
751.97	234.91
752.29	234.64
752.62	234.31
752.95	234.07
753.28	233.78
753.60	233.54
753.93	233.39
754.26	233.20
754.59	232.93
754.91	232.66
755.24	232.42
755.57	232.19
755.90	232.00
756.22	231.77
756.55	231.54
756.88	231.28
757.20	230.93
757.53	230.67
757.86	230.45
758.19	230.30
758.51	230.10
758.84	229.80
759.17	229.60
759.49	229.45
759.82	229.37
760.15	229.24
760.47	229.07
760.80	228.85
761.13	228.69
761.45	228.50
761.78	228.35
762.11	228.20
762.43	228.05
762.76	227.90
763.08	227.78
763.41	227.63
763.74	227.51
764.06	227.37
764.39	227.21
764.71	227.10
765.04	226.97
765.37	226.81
765.69	226.67
766.02	226.52
766.34	226.35
766.67	226.15
767.00	226.01
767.32	225.97
767.65	225.94
767.97	225.79
768.30	225.70
768.62	225.57
768.95	225.39
769.27	225.27
769.60	225.16
769.92	224.97
770.25	224.80
770.57	224.67
770.90	224.55
771.22	224.43
771.55	224.33
771.87	224.20
772.20	224.07
772.52	224.12
772.85	224.31
773.17	224.22
773.50	224.09
773.82	223.99
774.15	223.82
774.47	223.59
774.80	223.47
775.12	223.36
775.45	223.25
775.77	223.19
776.09	223.15
776.42	223.03
776.74	223.04
777.07	222.99
777.39	222.93
777.72	222.80
778.04	222.74
778.36	222.61
778.69	222.54
779.01	222.49
779.33	222.25
779.66	221.93
779.98	221.83
780.31	221.76
780.63	221.78
780.95	221.70
781.28	221.65
781.60	221.59
781.92	221.54
782.25	221.49
782.57	221.41
782.89	221.30
783.22	221.24
783.54	221.11
783.86	221.06
784.19	220.99
784.51	221.04
784.83	220.94
785.16	220.90
785.48	220.85
785.80	220.79
786.12	220.74
786.45	220.66
786.77	220.65
787.09	220.58
787.42	220.41
787.74	220.37
788.06	220.30
788.38	220.23
788.71	220.16
789.03	220.11
789.35	220.12
789.67	220.02
789.99	219.96
790.32	219.89
790.64	219.87
790.96	219.98
791.28	219.83
791.61	219.79
791.93	219.74
792.25	219.66
792.57	219.75
792.89	219.66
793.21	219.63
793.54	219.56
793.86	219.49
794.18	219.48
794.50	219.38
794.82	219.35
795.14	219.33
795.47	219.34
795.79	219.31
796.11	219.17
796.43	219.15
796.75	219.14
797.07	219.12
797.39	219.08
797.71	218.89
798.04	218.90
798.36	218.89
798.68	218.87
799.00	218.88
799.32	218.73
799.64	218.72
799.96	218.68
800.28	218.67
800.60	218.65
800.92	218.64
801.24	218.62
801.56	218.59
801.89	218.55
802.21	218.55
802.53	218.47
802.85	218.51
803.17	218.59
803.49	218.50
803.81	218.47
804.13	218.44
804.45	218.41
804.77	218.39
805.09	218.38
805.41	218.31
805.73	218.21
806.05	218.14
806.37	218.13
806.69	218.07
807.01	218.03
807.33	218.01
807.65	217.89
807.97	217.97
808.28	217.95
808.60	217.89
808.92	217.83
809.24	217.94
809.56	217.89
809.88	217.78
810.20	217.75
810.52	217.73
810.84	217.65
811.16	217.63
811.48	217.53
811.80	217.56
812.12	217.55
812.43	217.58
812.75	217.57
813.07	217.49
813.39	217.49
813.71	217.46
814.03	217.44
814.35	217.44
814.67	217.33
814.98	217.28
815.30	217.28
815.62	217.19
815.94	217.04
816.26	217.05
816.58	217.00
816.89	217.02
817.21	216.98
817.53	216.98
817.85	216.94
818.17	216.92
818.48	216.82
818.80	216.83
819.12	216.80
819.44	216.76
819.76	216.74
820.07	216.71
820.39	216.69
820.71	216.67
821.03	216.68
821.34	216.63
821.66	216.66
821.98	216.66
822.30	216.67
822.61	216.77
822.93	216.72
823.25	216.70
823.57	216.66
823.88	216.70
824.20	216.70
824.52	216.72
824.83	216.75
825.15	216.70
825.47	216.70
825.79	216.67
826.10	216.65
826.42	216.64
826.74	216.66
827.05	216.62
827.37	216.61
827.69	216.57
828.00	216.59
828.32	216.56
828.64	216.50
828.95	216.57
829.27	216.50
829.58	216.48
829.90	216.52
830.22	216.53
830.53	216.45
830.85	216.43
831.17	216.35
831.48	216.32
831.80	216.34
832.11	216.29
832.43	216.28
832.75	216.27
833.06	216.35
833.38	216.28
833.69	216.29
834.01	216.28
834.32	216.28
834.64	216.24
834.96	216.22
835.27	216.22
835.59	216.16
835.90	216.10
836.22	216.07
836.53	215.99
836.85	215.94
837.16	216.14
837.48	216.14
837.79	216.21
838.11	216.19
838.42	216.17
838.74	216.19
839.05	216.16
839.37	216.17
839.68	216.06
840.00	216.06
840.31	216.06
840.63	216.02
840.94	215.98
841.26	215.94
841.57	215.95
841.88	215.96
842.20	215.92
842.51	215.93
842.83	215.95
843.14	216.11
843.46	216.09
843.77	215.96
844.08	215.94
844.40	215.88
844.71	215.86
845.03	215.85
845.34	215.79
845.65	215.80
845.97	215.81
846.28	215.83
846.60	215.81
846.91	215.79
847.22	215.80
847.54	215.83
847.85	215.84
848.16	215.77
848.48	215.75
848.79	215.82
849.10	215.81
849.42	215.82
849.73	215.62
850.04	215.63
850.36	215.56
850.67	215.56
850.98	215.55
851.30	215.56
851.61	215.54
851.92	215.59
852.23	215.63
852.55	215.61
852.86	215.60
853.17	215.63
853.49	215.66
853.80	215.70
854.11	215.71
854.42	215.73
854.74	215.74
855.05	215.73
855.36	215.62
855.67	215.64
855.99	215.63
856.30	215.89
856.61	215.90
856.92	215.89
857.23	215.89
857.55	215.88
857.86	215.87
858.17	215.90
858.48	215.83
858.79	215.76
859.11	215.77
859.42	215.74
859.73	215.69
860.04	215.68
860.35	215.58
860.66	215.52
860.98	215.50
861.29	215.51
861.60	215.48
861.91	215.53
862.22	215.47
862.53	215.41
862.84	215.19
863.16	215.21
863.47	215.14
863.78	215.12
864.09	215.14
864.40	215.14
864.71	215.12
865.02	215.15
865.33	215.13
865.64	215.11
865.95	215.12
866.27	215.29
866.58	215.28
866.89	215.32
867.20	215.32
867.51	215.29
867.82	215.27
868.13	215.33
868.44	215.28
868.75	215.31
869.06	215.34
869.37	215.36
869.68	215.31
869.99	215.36
870.30	215.39
870.61	215.43
870.92	215.42
871.23	215.38
871.54	215.43
871.85	215.50
872.16	215.50
872.47	215.50
872.78	215.35
873.09	215.35
873.40	215.33
873.71	215.35
874.02	215.38
874.33	215.37
874.64	215.37
874.95	215.40
875.26	215.37
875.56	215.38
875.87	215.35
876.18	215.36
876.49	215.56
876.80	215.52
877.11	215.46
877.42	215.45
877.73	215.45
878.04	215.43
878.35	215.41
878.66	215.42
878.96	215.39
879.27	215.40
879.58	215.41
879.89	215.40
880.20	215.47
880.51	215.45
880.82	215.44
881.12	215.41
881.43	215.37
881.74	215.37
882.05	215.33
882.36	215.34
882.67	215.37
882.97	215.17
883.28	215.16
883.59	215.14
883.90	215.17
884.21	215.23
884.51	215.19
884.82	215.18
885.13	215.17
885.44	215.18
885.74	215.16
886.05	215.14
886.36	215.14
886.67	215.06
886.98	215.17
887.28	215.20
887.59	215.23
887.90	215.26
888.20	215.25
888.51	215.32
888.82	215.29
889.13	215.27
889.43	215.44
889.74	215.45
890.05	215.45
890.35	215.44
890.66	215.37
890.97	215.36
891.28	215.33
891.58	215.34
891.89	215.32
892.20	215.32
892.50	215.29
892.81	215.28
893.12	215.26
893.42	215.17
893.73	215.16
894.04	215.16
894.34	215.15
894.65	215.14
894.95	215.13
895.26	215.15
895.57	215.26
895.87	215.07
896.18	215.10
896.48	215.15
896.79	215.12
897.10	215.21
897.40	215.24
897.71	215.26
898.01	215.22
898.32	215.28
898.63	215.24
898.93	215.27
899.24	215.28
899.54	215.27
899.85	215.26
900.15	215.25
900.46	215.23
900.76	215.25
901.07	215.24
901.38	215.21
901.68	215.22
901.99	215.09
902.29	215.09
902.60	215.07
902.90	214.99
903.21	214.99
903.51	214.96
903.82	214.97
904.12	214.96
904.43	214.98
904.73	214.96
905.03	214.99
905.34	215.14
905.64	215.13
905.95	215.15
906.25	215.13
906.56	215.12
906.86	215.14
907.17	215.12
907.47	215.14
907.77	215.13
908.08	215.09
908.38	215.12
908.69	215.14
908.99	215.18
909.30	215.24
909.60	215.24
909.90	215.23
910.21	215.16
910.51	215.12
910.81	215.13
911.12	215.13
911.42	215.14
911.73	214.94
912.03	214.95
912.33	214.97
912.64	215.01
912.94	214.97
913.24	214.94
913.55	214.92
913.85	214.87
914.15	214.87
914.46	214.92
914.76	214.90
915.06	214.89
915.37	214.83
915.67	214.80
915.97	214.84
916.27	214.81
916.58	214.87
916.88	214.85
917.18	214.84
917.49	214.99
917.79	214.98
918.09	215.01
918.39	215.08
918.70	215.06
919.00	215.05
919.30	215.15
919.60	215.14
919.91	215.16
920.21	215.21
920.51	215.18
920.81	215.15
921.12	215.15
921.42	215.15
921.72	215.17
922.02	215.21
922.32	215.22
922.63	215.24
922.93	215.32
923.23	215.37
923.53	215.34
923.83	215.19
924.13	215.23
924.44	215.23
924.74	215.23
925.04	215.30
925.34	215.31
925.64	215.25
925.94	215.26
926.24	215.35
926.55	215.30
926.85	215.35
927.15	215.34
927.45	215.35
927.75	215.34
928.05	215.35
928.35	215.31
928.65	215.34
928.95	215.36
929.26	215.28
929.56	215.28
929.86	215.29
930.16	215.28
930.46	215.22
930.76	215.27
931.06	215.20
931.36	215.11
931.66	215.12
931.96	215.14
932.26	215.12
932.56	215.02
932.86	215.04
933.16	215.02
933.46	215.00
933.76	214.98
934.06	215.02
934.36	215.11
934.66	215.09
934.96	215.07
935.26	215.05
935.56	215.09
935.86	215.06
936.16	215.05
936.46	215.02
936.76	215.01
937.06	214.96
937.36	214.96
937.66	215.02
937.96	215.00
938.26	214.97
938.56	214.95
938.86	214.95
939.16	215.03
939.46	215.05
939.76	215.07
940.06	215.07
940.35	215.02
940.65	214.87
940.95	214.90
941.25	214.83
941.55	214.81
941.85	214.78
942.15	214.82
942.45	214.88
942.75	214.90
943.04	214.92
943.34	214.95
943.64	214.93
943.94	214.87
944.24	214.89
944.54	214.87
944.84	214.86
945.13	214.87
945.43	214.80
945.73	214.80
946.03	214.77
946.33	214.73
946.62	214.74
946.92	214.77
947.22	214.78
947.52	214.78
947.82	214.82
948.11	214.80
948.41	214.73
948.71	214.68
949.01	214.70
949.31	214.68
949.60	214.65
949.90	214.68
950.20	214.69
950.50	214.69
950.79	214.67
951.09	214.71
951.39	214.70
951.69	214.68
951.98	214.71
952.28	214.72
952.58	214.72
952.87	214.71
953.17	214.73
953.47	214.67
953.76	214.68
954.06	214.63
954.36	214.60
954.66	214.60
954.95	214.61
955.25	214.59
955.55	214.62
955.84	214.60
956.14	214.64
956.44	214.66
956.73	214.61
957.03	214.67
957.32	214.69
957.62	214.66
957.92	214.69
958.21	214.65
958.51	214.88
958.81	214.95
959.10	214.93
959.40	215.00
959.69	215.04
959.99	215.10
960.29	215.08
960.58	215.08
960.88	215.18
961.17	215.17
961.47	215.23
961.76	215.22
962.06	215.24
962.36	215.18
962.65	215.19
962.95	215.20
963.24	215.14
963.54	215.14
963.83	215.19
964.13	215.19
964.42	215.17
964.72	215.00
965.01	214.98
965.31	215.01
965.60	214.95
965.90	215.08
966.19	214.99
966.49	215.03
966.78	215.03
967.08	215.02
967.37	215.03
967.67	214.96
967.96	214.98
968.26	214.98
968.55	215.02
968.85	214.99
969.14	214.98
969.43	215.01
969.73	214.97
970.02	214.96
970.32	214.93
970.61	214.91
970.91	214.85
971.20	214.81
971.49	214.81
971.79	214.84
972.08	214.67
972.38	214.73
972.67	214.72
972.96	214.75
973.26	214.70
973.55	214.77
973.85	214.76
974.14	214.73
974.43	214.71
974.73	214.70
975.02	214.69
975.31	214.68
975.61	214.65
975.90	214.64
976.19	214.64
976.49	214.66
976.78	214.71
977.07	214.69
977.37	214.69
977.66	214.72
977.95	214.68
978.24	214.73
978.54	214.77
978.83	214.73
979.12	214.67
979.42	214.65
979.71	214.60
980.00	214.61
980.29	214.67
980.59	214.65
980.88	214.68
981.17	214.69
981.46	214.72
981.76	214.74
982.05	214.83
982.34	214.80
982.63	214.79
982.93	214.77
983.22	214.86
983.51	214.86
983.80	214.85
984.09	214.87
984.39	214.82
984.68	214.79
984.97	214.81
985.26	214.81
985.55	214.84
985.85	214.83
986.14	214.85
986.43	214.83
986.72	214.81
987.01	214.76
987.30	214.74
987.59	214.71
987.89	214.66
988.18	214.57
988.47	214.55
988.76	214.54
989.05	214.51
989.34	214.45
989.63	214.52
989.92	214.48
990.22	214.47
990.51	214.48
990.80	214.42
991.09	214.43
991.38	214.46
991.67	214.45
991.96	214.39
992.25	214.38
992.54	214.33
992.83	214.33
993.12	214.33
993.41	214.36
993.70	214.47
993.99	214.54
994.28	214.58
994.58	214.65
994.87	214.64
995.16	214.64
995.45	214.64
995.74	214.53
996.03	214.61
996.32	214.62
996.61	214.69
996.90	214.69
997.19	214.67
997.48	214.69
997.77	214.65
998.06	214.70
998.34	214.69
998.63	214.69
998.92	214.73
999.21	214.76
999.50	214.77
999.79	214.68
1000.08	214.67
1000.37	214.69
1000.66	214.64
1000.95	214.69
1001.24	214.72
1001.53	214.75
1001.82	214.77
1002.11	214.70
1002.40	214.74
1002.68	214.76
1002.97	214.94
1003.26	214.92
1003.55	214.91
1003.84	214.95
1004.13	215.00
1004.42	215.01
1004.71	215.04
1004.99	215.00
1005.28	215.04
1005.57	215.01
1005.86	215.02
1006.15	214.97
1006.44	214.95
1006.72	214.96
1007.01	214.92
1007.30	214.91
1007.59	214.89
1007.88	214.89
1008.17	214.91
1008.45	214.86
1008.74	214.78
1009.03	214.69
1009.32	214.73
1009.60	214.74
1009.89	214.71
1010.18	214.61
1010.47	214.60
1010.76	214.60
1011.04	214.58
1011.33	214.61
1011.62	214.64
1011.91	214.66
1012.19	214.70
1012.48	214.69
1012.77	214.73
1013.05	214.83
1013.34	214.84
1013.63	214.85
1013.92	214.88
1014.20	214.86
1014.49	214.88
1014.78	214.90
1015.06	214.80
1015.35	214.79
1015.64	214.79
1015.92	214.83
1016.21	214.87
1016.50	214.88
1016.78	214.88
1017.07	214.90
1017.36	214.84
1017.64	214.83
1017.93	214.84
1018.22	214.81
1018.50	214.82
1018.79	214.80
1019.08	214.69
1019.36	214.70
1019.65	214.65
1019.93	214.66
1020.22	214.68
1020.51	214.74
1020.79	214.71
1021.08	214.47
1021.36	214.45
1021.65	214.93
1021.94	214.43
1022.22	214.89
1022.51	213.88
1022.79	215.22
1023.08	214.71
1023.36	216.60
1023.65	214.14
>>>>>End Processed Spectral Data<<<<<
