SpectraSuite Data File
++++++++++++++++++++++++++++++++++++
Date: Tue Jan 29 16:41:50 EST 2013
User: group
Dark Spectrum Present: No
Reference Spectrum Present: No
Number of Sampled Component Spectra: 1
Spectrometers: USB2E7196
Integration Time (usec): 65000 (USB2E7196)
Spectra Averaged: 100 (USB2E7196)
Boxcar Smoothing: 10 (USB2E7196)
Correct for Electrical Dark: No (USB2E7196)
Strobe/Lamp Enabled: No (USB2E7196)
Correct for Detector Non-linearity: No (USB2E7196)
Correct for Stray Light: No (USB2E7196)
Number of Pixels in Processed Spectrum: 2048
>>>>>Begin Processed Spectral Data<<<<<
339.09	0.00
339.48	201.51
339.86	203.11
340.24	204.36
340.63	205.38
341.01	210.55
341.39	208.60
341.78	210.26
342.16	211.07
342.54	211.65
342.93	200.91
343.31	211.06
343.69	211.66
344.07	212.12
344.46	212.57
344.84	213.00
345.22	213.16
345.60	213.45
345.99	213.65
346.37	213.83
346.75	213.95
347.13	214.07
347.52	214.20
347.90	214.37
348.28	214.45
348.66	214.55
349.05	214.50
349.43	214.58
349.81	214.65
350.19	214.71
350.57	214.79
350.96	214.85
351.34	214.97
351.72	215.06
352.10	215.18
352.48	215.29
352.87	215.34
353.25	215.43
353.63	215.48
354.01	215.54
354.39	215.58
354.77	215.68
355.15	215.82
355.54	215.83
355.92	215.79
356.30	215.86
356.68	216.07
357.06	216.16
357.44	216.16
357.82	216.22
358.20	216.29
358.58	216.36
358.97	216.41
359.35	216.49
359.73	216.57
360.11	216.62
360.49	216.64
360.87	216.70
361.25	216.74
361.63	216.82
362.01	216.88
362.39	216.89
362.77	216.92
363.15	216.89
363.53	216.93
363.91	216.98
364.29	216.94
364.67	216.74
365.05	216.76
365.43	216.81
365.81	216.84
366.19	216.95
366.57	217.04
366.95	217.04
367.33	217.00
367.71	216.97
368.09	216.98
368.47	216.99
368.85	216.96
369.23	216.99
369.61	216.91
369.99	216.95
370.37	217.00
370.75	217.06
371.13	217.00
371.51	216.95
371.89	216.91
372.27	216.96
372.65	216.92
373.03	216.85
373.41	216.79
373.78	216.72
374.16	216.57
374.54	216.47
374.92	216.41
375.30	216.41
375.68	216.33
376.06	216.30
376.44	216.22
376.82	216.23
377.19	216.16
377.57	216.15
377.95	216.02
378.33	215.95
378.71	215.81
379.09	215.79
379.47	215.77
379.84	215.73
380.22	215.65
380.60	215.60
380.98	215.58
381.36	215.54
381.73	215.49
382.11	215.46
382.49	215.43
382.87	215.37
383.25	215.33
383.62	215.55
384.00	215.48
384.38	215.48
384.76	215.46
385.13	215.49
385.51	215.43
385.89	215.40
386.27	215.35
386.64	215.35
387.02	215.33
387.40	215.26
387.78	215.24
388.15	215.25
388.53	215.22
388.91	215.23
389.29	215.19
389.66	215.20
390.04	215.18
390.42	215.19
390.79	215.17
391.17	215.14
391.55	214.90
391.92	214.88
392.30	214.90
392.68	214.85
393.05	214.82
393.43	214.83
393.81	214.86
394.18	214.85
394.56	214.85
394.94	214.90
395.31	214.88
395.69	214.97
396.06	214.98
396.44	215.00
396.82	214.99
397.19	215.13
397.57	215.13
397.95	215.20
398.32	215.17
398.70	215.25
399.07	215.33
399.45	215.34
399.82	215.40
400.20	215.44
400.58	215.52
400.95	215.52
401.33	215.65
401.70	215.83
402.08	215.93
402.45	216.01
402.83	216.16
403.20	216.30
403.58	216.38
403.95	216.53
404.33	216.71
404.71	216.85
405.08	217.13
405.46	217.33
405.83	217.49
406.21	217.73
406.58	217.97
406.96	218.20
407.33	218.46
407.70	218.77
408.08	219.22
408.45	219.57
408.83	219.97
409.20	220.30
409.58	220.60
409.95	221.06
410.33	221.54
410.70	221.96
411.08	222.50
411.45	223.12
411.82	223.72
412.20	224.41
412.57	225.25
412.95	225.78
413.32	226.59
413.69	227.43
414.07	228.32
414.44	229.27
414.82	230.29
415.19	231.50
415.56	232.68
415.94	233.86
416.31	235.29
416.68	236.71
417.06	238.35
417.43	239.90
417.81	241.66
418.18	243.45
418.55	245.40
418.93	247.46
419.30	249.52
419.67	251.73
420.04	254.00
420.42	256.41
420.79	259.24
421.16	262.04
421.54	264.95
421.91	267.98
422.28	271.10
422.66	274.39
423.03	277.65
423.40	281.04
423.77	284.67
424.15	288.34
424.52	292.19
424.89	296.38
425.26	300.50
425.64	304.42
426.01	308.74
426.38	313.21
426.75	317.77
427.13	322.53
427.50	327.51
427.87	332.79
428.24	338.00
428.61	342.98
428.99	348.50
429.36	354.51
429.73	360.44
430.10	366.34
430.47	372.46
430.85	378.77
431.22	385.52
431.59	392.68
431.96	399.55
432.33	407.05
432.70	414.35
433.08	422.88
433.45	430.92
433.82	438.99
434.19	447.92
434.56	456.63
434.93	465.03
435.30	473.37
435.68	482.46
436.05	491.52
436.42	500.51
436.79	508.71
437.16	517.63
437.53	526.93
437.90	536.10
438.27	545.10
438.64	554.40
439.01	562.94
439.38	570.53
439.75	577.81
440.13	586.25
440.50	594.20
440.87	600.68
441.24	607.40
441.61	614.76
441.98	620.14
442.35	626.54
442.72	632.85
443.09	638.97
443.46	642.73
443.83	645.20
444.20	647.43
444.57	650.62
444.94	652.02
445.31	653.45
445.68	654.90
446.05	655.51
446.42	654.76
446.79	653.81
447.16	652.73
447.53	652.04
447.90	648.77
448.27	645.54
448.64	640.85
449.01	637.52
449.37	631.61
449.74	625.95
450.11	618.98
450.48	611.56
450.85	604.08
451.22	597.64
451.59	591.58
451.96	585.70
452.33	577.78
452.70	570.61
453.07	562.13
453.43	553.40
453.80	545.13
454.17	537.08
454.54	529.49
454.91	521.26
455.28	513.20
455.65	505.70
456.02	498.13
456.38	491.82
456.75	483.84
457.12	477.21
457.49	470.65
457.86	464.41
458.23	459.02
458.59	453.05
458.96	446.97
459.33	441.60
459.70	436.24
460.07	431.97
460.43	427.08
460.80	422.42
461.17	418.45
461.54	414.17
461.91	410.10
462.27	406.00
462.64	402.56
463.01	398.77
463.38	395.07
463.74	391.34
464.11	388.07
464.48	385.24
464.85	382.19
465.21	379.78
465.58	377.19
465.95	374.03
466.32	371.41
466.68	368.79
467.05	366.15
467.42	363.56
467.78	360.84
468.15	358.32
468.52	356.46
468.88	353.94
469.25	351.69
469.62	349.88
469.98	347.94
470.35	346.13
470.72	344.39
471.08	342.59
471.45	341.06
471.82	339.51
472.18	337.85
472.55	336.62
472.92	335.18
473.28	333.95
473.65	332.82
474.02	331.72
474.38	330.82
474.75	330.05
475.11	329.16
475.48	328.59
475.85	328.05
476.21	327.53
476.58	327.19
476.94	326.96
477.31	326.68
477.67	326.36
478.04	326.16
478.41	326.11
478.77	326.24
479.14	326.23
479.50	326.34
479.87	326.61
480.23	326.91
480.60	327.15
480.96	327.45
481.33	328.03
481.69	328.57
482.06	329.09
482.42	329.60
482.79	330.21
483.15	331.01
483.52	331.98
483.88	332.85
484.25	333.78
484.61	334.79
484.98	335.78
485.34	337.14
485.71	338.57
486.07	340.03
486.44	341.35
486.80	342.90
487.17	344.58
487.53	346.45
487.90	348.34
488.26	350.38
488.62	352.50
488.99	354.56
489.35	356.71
489.72	359.11
490.08	361.59
490.44	364.19
490.81	366.90
491.17	369.57
491.54	372.56
491.90	375.59
492.26	378.84
492.63	382.27
492.99	385.70
493.36	389.34
493.72	393.18
494.08	397.30
494.45	401.54
494.81	405.92
495.17	410.33
495.54	414.99
495.90	419.82
496.26	424.75
496.63	429.95
496.99	435.34
497.35	440.90
497.72	446.75
498.08	452.68
498.44	458.78
498.80	465.25
499.17	471.75
499.53	478.52
499.89	485.47
500.26	492.51
500.62	499.67
500.98	507.15
501.34	514.65
501.71	522.30
502.07	530.14
502.43	538.15
502.79	546.36
503.16	554.74
503.52	563.36
503.88	572.04
504.24	580.97
504.60	590.04
504.97	599.32
505.33	608.59
505.69	618.45
506.05	628.32
506.41	638.23
506.78	648.29
507.14	658.56
507.50	669.02
507.86	679.70
508.22	690.46
508.59	701.04
508.95	712.14
509.31	723.52
509.67	735.02
510.03	746.43
510.39	758.15
510.75	769.99
511.12	781.90
511.48	794.07
511.84	806.39
512.20	818.70
512.56	831.42
512.92	844.29
513.28	857.03
513.64	869.87
514.00	882.77
514.37	895.78
514.73	908.99
515.09	922.02
515.45	935.07
515.81	948.23
516.17	961.77
516.53	975.07
516.89	988.17
517.25	1001.42
517.61	1015.02
517.97	1028.54
518.33	1041.84
518.69	1055.37
519.05	1069.20
519.41	1082.88
519.77	1096.86
520.13	1110.19
520.49	1123.30
520.85	1136.66
521.21	1150.04
521.57	1163.72
521.93	1176.90
522.29	1190.64
522.65	1204.21
523.01	1217.78
523.37	1230.98
523.73	1244.38
524.09	1257.68
524.45	1271.12
524.81	1284.65
525.17	1298.11
525.53	1311.34
525.89	1324.64
526.25	1338.03
526.61	1350.83
526.97	1364.09
527.33	1377.22
527.68	1390.82
528.04	1404.52
528.40	1417.83
528.76	1431.25
529.12	1444.24
529.48	1457.60
529.84	1469.92
530.20	1482.86
530.56	1495.67
530.91	1509.05
531.27	1521.93
531.63	1534.62
531.99	1547.66
532.35	1559.97
532.71	1572.46
533.07	1585.40
533.42	1597.87
533.78	1609.97
534.14	1622.10
534.50	1633.39
534.86	1645.03
535.21	1655.89
535.57	1667.61
535.93	1678.85
536.29	1690.07
536.65	1701.62
537.00	1712.67
537.36	1724.15
537.72	1735.38
538.08	1746.87
538.44	1757.84
538.79	1769.08
539.15	1780.25
539.51	1790.97
539.87	1802.47
540.22	1813.45
540.58	1824.50
540.94	1835.43
541.29	1845.82
541.65	1855.87
542.01	1866.46
542.37	1876.60
542.72	1886.80
543.08	1896.55
543.44	1907.30
543.79	1916.70
544.15	1926.33
544.51	1936.53
544.87	1946.61
545.22	1955.90
545.58	1964.83
545.94	1973.79
546.29	1982.33
546.65	1990.75
547.01	1999.12
547.36	2006.92
547.72	2014.68
548.07	2022.31
548.43	2030.22
548.79	2038.15
549.14	2046.34
549.50	2054.94
549.86	2062.79
550.21	2070.41
550.57	2078.17
550.92	2084.84
551.28	2092.35
551.64	2099.58
551.99	2107.23
552.35	2114.36
552.70	2121.21
553.06	2127.89
553.41	2134.27
553.77	2140.83
554.13	2147.22
554.48	2154.25
554.84	2161.34
555.19	2167.86
555.55	2174.32
555.90	2180.58
556.26	2187.43
556.61	2193.40
556.97	2198.05
557.32	2204.03
557.68	2210.30
558.03	2216.10
558.39	2221.71
558.74	2227.74
559.10	2233.21
559.45	2238.57
559.81	2244.16
560.16	2249.69
560.52	2255.55
560.87	2262.00
561.23	2267.80
561.58	2274.52
561.94	2279.71
562.29	2284.47
562.64	2290.46
563.00	2296.20
563.35	2301.69
563.71	2307.33
564.06	2313.13
564.42	2319.22
564.77	2324.20
565.12	2329.68
565.48	2334.67
565.83	2340.01
566.19	2345.22
566.54	2350.77
566.89	2355.41
567.25	2359.92
567.60	2365.52
567.96	2370.59
568.31	2375.06
568.66	2379.41
569.02	2383.14
569.37	2386.81
569.72	2391.10
570.08	2394.58
570.43	2397.62
570.78	2400.74
571.14	2403.24
571.49	2406.21
571.84	2409.71
572.20	2412.63
572.55	2415.35
572.90	2417.66
573.26	2420.40
573.61	2422.96
573.96	2424.85
574.31	2426.70
574.67	2428.49
575.02	2429.15
575.37	2430.57
575.72	2431.29
576.08	2432.46
576.43	2432.61
576.78	2432.93
577.13	2434.41
577.49	2435.65
577.84	2436.50
578.19	2437.71
578.54	2438.14
578.90	2438.65
579.25	2438.41
579.60	2438.25
579.95	2437.41
580.30	2437.35
580.66	2436.47
581.01	2434.66
581.36	2432.08
581.71	2430.68
582.06	2429.42
582.42	2428.43
582.77	2425.97
583.12	2424.21
583.47	2422.91
583.82	2422.15
584.17	2420.82
584.53	2418.45
584.88	2416.07
585.23	2413.92
585.58	2411.36
585.93	2409.30
586.28	2407.03
586.63	2404.34
586.98	2402.01
587.34	2399.75
587.69	2397.12
588.04	2395.08
588.39	2393.71
588.74	2391.26
589.09	2388.27
589.44	2384.97
589.79	2382.41
590.14	2380.32
590.49	2377.29
590.84	2373.23
591.19	2369.87
591.54	2366.53
591.89	2362.33
592.25	2359.01
592.60	2354.84
592.95	2350.75
593.30	2346.46
593.65	2342.09
594.00	2337.65
594.35	2334.45
594.70	2329.96
595.05	2325.34
595.40	2319.69
595.75	2313.61
596.10	2309.84
596.45	2304.95
596.80	2300.38
597.15	2295.08
597.50	2289.18
597.85	2284.23
598.19	2278.86
598.54	2273.09
598.89	2267.75
599.24	2263.20
599.59	2257.04
599.94	2251.21
600.29	2245.17
600.64	2239.26
600.99	2232.30
601.34	2226.72
601.69	2219.61
602.04	2213.15
602.39	2206.48
602.74	2200.23
603.08	2194.65
603.43	2188.11
603.78	2181.21
604.13	2174.03
604.48	2166.62
604.83	2160.35
605.18	2153.98
605.53	2147.03
605.87	2139.99
606.22	2133.27
606.57	2125.34
606.92	2117.31
607.27	2110.29
607.62	2103.50
607.96	2096.43
608.31	2090.05
608.66	2082.31
609.01	2074.73
609.36	2067.61
609.70	2059.92
610.05	2052.20
610.40	2043.96
610.75	2035.45
611.10	2027.72
611.44	2018.78
611.79	2010.15
612.14	2000.16
612.49	1989.54
612.83	1980.33
613.18	1970.93
613.53	1961.52
613.88	1951.88
614.22	1943.22
614.57	1933.35
614.92	1922.70
615.27	1912.33
615.61	1902.18
615.96	1892.44
616.31	1882.83
616.65	1873.28
617.00	1863.51
617.35	1853.84
617.70	1844.15
618.04	1834.34
618.39	1824.15
618.74	1814.59
619.08	1804.80
619.43	1796.18
619.78	1787.95
620.12	1779.27
620.47	1769.83
620.82	1759.51
621.16	1749.76
621.51	1739.89
621.85	1730.05
622.20	1719.84
622.55	1709.46
622.89	1699.61
623.24	1689.89
623.59	1680.09
623.93	1670.04
624.28	1660.40
624.62	1650.37
624.97	1640.01
625.32	1630.17
625.66	1621.32
626.01	1612.55
626.35	1603.49
626.70	1593.48
627.04	1583.38
627.39	1573.29
627.73	1564.06
628.08	1555.22
628.43	1545.74
628.77	1536.61
629.12	1527.85
629.46	1520.19
629.81	1511.81
630.15	1502.27
630.50	1492.54
630.84	1482.17
631.19	1472.35
631.53	1462.96
631.88	1452.80
632.22	1442.95
632.57	1433.67
632.91	1423.75
633.26	1413.84
633.60	1404.22
633.95	1394.99
634.29	1385.50
634.64	1376.28
634.98	1366.28
635.32	1357.02
635.67	1348.58
636.01	1339.25
636.36	1329.58
636.70	1320.00
637.05	1310.72
637.39	1301.79
637.73	1293.28
638.08	1285.64
638.42	1277.42
638.77	1268.64
639.11	1260.48
639.45	1252.75
639.80	1244.26
640.14	1235.44
640.49	1226.69
640.83	1217.80
641.17	1209.73
641.52	1201.71
641.86	1193.09
642.20	1185.34
642.55	1176.62
642.89	1167.81
643.23	1159.19
643.58	1150.98
643.92	1141.98
644.26	1133.37
644.61	1124.99
644.95	1116.19
645.29	1107.14
645.64	1098.04
645.98	1089.56
646.32	1081.63
646.66	1073.03
647.01	1064.67
647.35	1056.58
647.69	1048.25
648.04	1040.12
648.38	1031.18
648.72	1022.42
649.06	1014.04
649.41	1005.77
649.75	997.95
650.09	990.05
650.43	982.13
650.78	973.80
651.12	966.11
651.46	958.64
651.80	951.41
652.14	944.06
652.49	936.41
652.83	929.08
653.17	921.40
653.51	913.82
653.85	906.60
654.20	899.42
654.54	891.88
654.88	884.71
655.22	877.38
655.56	870.36
655.90	863.54
656.25	856.85
656.59	849.99
656.93	842.94
657.27	835.76
657.61	828.66
657.95	822.60
658.29	816.69
658.64	810.54
658.98	804.06
659.32	797.55
659.66	791.34
660.00	785.00
660.34	778.99
660.68	772.84
661.02	766.41
661.36	760.34
661.70	754.52
662.05	748.81
662.39	743.43
662.73	737.99
663.07	732.58
663.41	726.89
663.75	721.20
664.09	715.47
664.43	710.05
664.77	704.71
665.11	698.87
665.45	692.86
665.79	687.02
666.13	681.32
666.47	675.76
666.81	670.38
667.15	664.96
667.49	659.71
667.83	654.39
668.17	649.17
668.51	644.05
668.85	639.13
669.19	634.20
669.53	629.06
669.87	623.93
670.21	619.18
670.55	614.46
670.89	609.99
671.23	605.68
671.57	601.26
671.91	597.00
672.25	592.80
672.58	588.70
672.92	584.66
673.26	580.65
673.60	576.79
673.94	572.86
674.28	569.23
674.62	565.48
674.96	561.75
675.30	558.29
675.64	554.60
675.97	550.95
676.31	547.27
676.65	543.65
676.99	540.25
677.33	536.40
677.67	532.77
678.01	528.88
678.34	525.20
678.68	521.67
679.02	518.05
679.36	514.32
679.70	510.63
680.04	507.01
680.37	503.61
680.71	500.25
681.05	497.05
681.39	493.78
681.73	490.54
682.06	487.49
682.40	484.33
682.74	481.09
683.08	477.88
683.42	474.73
683.75	471.70
684.09	468.63
684.43	465.75
684.77	462.77
685.10	459.87
685.44	456.95
685.78	453.94
686.12	451.08
686.45	448.38
686.79	445.64
687.13	443.06
687.46	440.38
687.80	437.65
688.14	434.73
688.48	432.03
688.81	429.32
689.15	426.70
689.49	424.04
689.82	421.52
690.16	418.87
690.50	416.35
690.83	413.82
691.17	411.24
691.51	408.74
691.84	406.45
692.18	404.19
692.52	401.93
692.85	399.81
693.19	397.65
693.52	395.44
693.86	393.20
694.20	390.98
694.53	388.80
694.87	386.57
695.21	384.42
695.54	382.23
695.88	380.03
696.21	377.79
696.55	375.60
696.88	373.50
697.22	371.51
697.56	369.62
697.89	367.71
698.23	365.90
698.56	364.09
698.90	362.29
699.23	360.39
699.57	358.50
699.90	356.62
700.24	354.75
700.58	352.96
700.91	351.23
701.25	349.64
701.58	347.98
701.92	346.35
702.25	344.74
702.59	343.13
702.92	341.59
703.26	339.97
703.59	338.48
703.93	337.24
704.26	335.77
704.60	334.25
704.93	332.72
705.26	331.22
705.60	329.70
705.93	328.12
706.27	326.72
706.60	325.42
706.94	324.16
707.27	322.74
707.61	321.36
707.94	320.00
708.27	318.45
708.61	317.00
708.94	315.60
709.28	314.28
709.61	313.03
709.94	311.77
710.28	310.55
710.61	309.34
710.95	307.83
711.28	306.71
711.61	305.49
711.95	304.40
712.28	303.18
712.61	301.98
712.95	300.92
713.28	299.94
713.61	298.75
713.95	297.55
714.28	296.54
714.61	295.47
714.95	294.47
715.28	293.46
715.61	292.41
715.95	291.45
716.28	290.44
716.61	289.46
716.95	288.45
717.28	287.51
717.61	286.55
717.94	285.66
718.28	284.60
718.61	283.70
718.94	282.75
719.27	281.91
719.61	281.08
719.94	280.22
720.27	279.18
720.60	278.31
720.94	277.47
721.27	276.69
721.60	275.96
721.93	275.21
722.27	274.56
722.60	273.91
722.93	273.17
723.26	272.49
723.59	271.77
723.93	271.13
724.26	270.43
724.59	269.77
724.92	269.18
725.25	268.63
725.59	268.03
725.92	267.47
726.25	266.86
726.58	266.30
726.91	265.67
727.24	265.12
727.57	264.55
727.91	263.95
728.24	263.36
728.57	262.80
728.90	262.26
729.23	261.59
729.56	261.14
729.89	260.58
730.22	260.02
730.55	259.44
730.89	258.91
731.22	258.38
731.55	257.86
731.88	257.31
732.21	256.73
732.54	256.17
732.87	255.66
733.20	255.16
733.53	254.67
733.86	254.22
734.19	253.73
734.52	253.32
734.85	253.03
735.18	252.57
735.51	252.17
735.84	251.73
736.17	251.35
736.50	250.79
736.83	250.62
737.16	250.22
737.49	249.86
737.82	249.41
738.15	249.04
738.48	248.62
738.81	248.19
739.14	247.83
739.47	247.47
739.80	247.06
740.13	246.71
740.46	246.28
740.79	245.88
741.12	245.53
741.45	245.16
741.78	244.75
742.11	244.48
742.44	244.10
742.77	243.79
743.10	243.44
743.43	243.07
743.75	242.51
744.08	242.41
744.41	242.09
744.74	241.75
745.07	241.40
745.40	241.12
745.73	240.85
746.06	240.49
746.39	240.19
746.71	239.85
747.04	239.50
747.37	239.17
747.70	238.86
748.03	238.53
748.36	238.25
748.68	237.90
749.01	237.53
749.34	237.23
749.67	236.90
750.00	236.64
750.33	236.52
750.65	236.29
750.98	235.76
751.31	235.48
751.64	235.24
751.97	235.06
752.29	234.79
752.62	234.48
752.95	234.21
753.28	233.92
753.60	233.68
753.93	233.49
754.26	233.26
754.59	232.98
754.91	232.73
755.24	232.46
755.57	232.20
755.90	231.96
756.22	231.72
756.55	231.49
756.88	231.23
757.20	230.88
757.53	230.57
757.86	230.36
758.19	230.17
758.51	229.99
758.84	229.69
759.17	229.47
759.49	229.32
759.82	229.25
760.15	229.09
760.47	228.88
760.80	228.64
761.13	228.52
761.45	228.31
761.78	228.10
762.11	227.92
762.43	227.74
762.76	227.55
763.08	227.42
763.41	227.27
763.74	227.11
764.06	226.95
764.39	226.83
764.71	226.65
765.04	226.43
765.37	226.26
765.69	226.16
766.02	226.03
766.34	225.87
766.67	225.63
767.00	225.55
767.32	225.56
767.65	225.56
767.97	225.39
768.30	225.30
768.62	225.19
768.95	225.02
769.27	224.89
769.60	224.80
769.92	224.62
770.25	224.44
770.57	224.27
770.90	224.15
771.22	223.98
771.55	223.90
771.87	223.84
772.20	223.69
772.52	223.71
772.85	223.82
773.17	223.69
773.50	223.61
773.82	223.46
774.15	223.25
774.47	223.01
774.80	222.89
775.12	222.80
775.45	222.72
775.77	222.68
776.09	222.62
776.42	222.52
776.74	222.49
777.07	222.43
777.39	222.39
777.72	222.29
778.04	222.26
778.36	222.16
778.69	222.08
779.01	222.05
779.33	221.79
779.66	221.50
779.98	221.43
780.31	221.37
780.63	221.38
780.95	221.31
781.28	221.20
781.60	221.10
781.92	221.01
782.25	220.93
782.57	220.88
782.89	220.81
783.22	220.72
783.54	220.57
783.86	220.53
784.19	220.44
784.51	220.46
784.83	220.37
785.16	220.32
785.48	220.25
785.80	220.18
786.12	220.17
786.45	220.06
786.77	220.00
787.09	219.92
787.42	219.76
787.74	219.73
788.06	219.72
788.38	219.69
788.71	219.61
789.03	219.57
789.35	219.51
789.67	219.43
789.99	219.45
790.32	219.43
790.64	219.38
790.96	219.51
791.28	219.38
791.61	219.32
791.93	219.25
792.25	219.20
792.57	219.31
792.89	219.19
793.21	219.21
793.54	219.15
793.86	219.07
794.18	219.05
794.50	218.98
794.82	218.97
795.14	218.95
795.47	218.96
795.79	218.93
796.11	218.82
796.43	218.76
796.75	218.68
797.07	218.61
797.39	218.55
797.71	218.33
798.04	218.30
798.36	218.28
798.68	218.26
799.00	218.23
799.32	218.04
799.64	218.07
799.96	218.02
800.28	218.01
800.60	217.96
800.92	217.94
801.24	217.87
801.56	217.84
801.89	217.78
802.21	217.76
802.53	217.69
802.85	217.74
803.17	217.82
803.49	217.75
803.81	217.71
804.13	217.69
804.45	217.64
804.77	217.61
805.09	217.56
805.41	217.48
805.73	217.42
806.05	217.38
806.37	217.33
806.69	217.25
807.01	217.21
807.33	217.22
807.65	217.11
807.97	217.18
808.28	217.10
808.60	217.08
808.92	217.02
809.24	217.13
809.56	217.04
809.88	216.93
810.20	216.93
810.52	216.95
810.84	216.87
811.16	216.82
811.48	216.80
811.80	216.83
812.12	216.82
812.43	216.82
812.75	216.81
813.07	216.80
813.39	216.77
813.71	216.70
814.03	216.66
814.35	216.66
814.67	216.55
814.98	216.50
815.30	216.48
815.62	216.41
815.94	216.24
816.26	216.26
816.58	216.23
816.89	216.21
817.21	216.12
817.53	216.13
817.85	216.14
818.17	216.10
818.48	216.04
818.80	216.04
819.12	215.99
819.44	215.91
819.76	215.81
820.07	215.83
820.39	215.82
820.71	215.84
821.03	215.82
821.34	215.77
821.66	215.79
821.98	215.75
822.30	215.74
822.61	215.86
822.93	215.79
823.25	215.74
823.57	215.69
823.88	215.72
824.20	215.68
824.52	215.73
824.83	215.74
825.15	215.69
825.47	215.68
825.79	215.70
826.10	215.69
826.42	215.67
826.74	215.68
827.05	215.68
827.37	215.64
827.69	215.58
828.00	215.58
828.32	215.56
828.64	215.53
828.95	215.61
829.27	215.55
829.58	215.53
829.90	215.57
830.22	215.58
830.53	215.52
830.85	215.50
831.17	215.40
831.48	215.38
831.80	215.38
832.11	215.34
832.43	215.27
832.75	215.26
833.06	215.43
833.38	215.35
833.69	215.33
834.01	215.30
834.32	215.32
834.64	215.29
834.96	215.30
835.27	215.29
835.59	215.24
835.90	215.15
836.22	215.15
836.53	215.10
836.85	215.06
837.16	215.30
837.48	215.33
837.79	215.38
838.11	215.36
838.42	215.35
838.74	215.38
839.05	215.39
839.37	215.34
839.68	215.21
840.00	215.18
840.31	215.22
840.63	215.19
840.94	215.17
841.26	215.16
841.57	215.16
841.88	215.18
842.20	215.15
842.51	215.16
842.83	215.16
843.14	215.37
843.46	215.37
843.77	215.20
844.08	215.18
844.40	215.11
844.71	215.11
845.03	215.08
845.34	215.03
845.65	215.02
845.97	215.03
846.28	215.03
846.60	215.04
846.91	214.98
847.22	214.98
847.54	215.06
847.85	215.10
848.16	215.04
848.48	214.99
848.79	215.04
849.10	215.07
849.42	215.06
849.73	214.83
850.04	214.80
850.36	214.77
850.67	214.79
850.98	214.81
851.30	214.80
851.61	214.79
851.92	214.80
852.23	214.87
852.55	214.93
852.86	214.90
853.17	214.94
853.49	214.97
853.80	215.01
854.11	214.95
854.42	214.95
854.74	214.96
855.05	214.99
855.36	214.91
855.67	214.88
855.99	214.90
856.30	215.14
856.61	215.16
856.92	215.11
857.23	215.09
857.55	215.08
857.86	215.10
858.17	215.12
858.48	215.09
858.79	215.02
859.11	215.03
859.42	215.03
859.73	214.99
860.04	214.97
860.35	214.90
860.66	214.87
860.98	214.86
861.29	214.87
861.60	214.84
861.91	214.84
862.22	214.79
862.53	214.72
862.84	214.47
863.16	214.51
863.47	214.49
863.78	214.50
864.09	214.48
864.40	214.47
864.71	214.48
865.02	214.52
865.33	214.53
865.64	214.48
865.95	214.49
866.27	214.66
866.58	214.64
866.89	214.67
867.20	214.67
867.51	214.60
867.82	214.58
868.13	214.64
868.44	214.61
868.75	214.66
869.06	214.68
869.37	214.71
869.68	214.66
869.99	214.71
870.30	214.70
870.61	214.74
870.92	214.70
871.23	214.67
871.54	214.67
871.85	214.68
872.16	214.71
872.47	214.67
872.78	214.51
873.09	214.56
873.40	214.55
873.71	214.57
874.02	214.61
874.33	214.60
874.64	214.54
874.95	214.59
875.26	214.56
875.56	214.56
875.87	214.53
876.18	214.52
876.49	214.70
876.80	214.67
877.11	214.60
877.42	214.60
877.73	214.62
878.04	214.59
878.35	214.59
878.66	214.57
878.96	214.57
879.27	214.53
879.58	214.47
879.89	214.47
880.20	214.50
880.51	214.50
880.82	214.51
881.12	214.51
881.43	214.46
881.74	214.44
882.05	214.46
882.36	214.48
882.67	214.51
882.97	214.28
883.28	214.28
883.59	214.30
883.90	214.31
884.21	214.31
884.51	214.31
884.82	214.28
885.13	214.28
885.44	214.31
885.74	214.33
886.05	214.33
886.36	214.33
886.67	214.26
886.98	214.38
887.28	214.40
887.59	214.45
887.90	214.48
888.20	214.46
888.51	214.48
888.82	214.44
889.13	214.47
889.43	214.64
889.74	214.62
890.05	214.61
890.35	214.60
890.66	214.59
890.97	214.60
891.28	214.56
891.58	214.54
891.89	214.51
892.20	214.47
892.50	214.46
892.81	214.47
893.12	214.47
893.42	214.37
893.73	214.37
894.04	214.36
894.34	214.35
894.65	214.33
894.95	214.30
895.26	214.31
895.57	214.38
895.87	214.19
896.18	214.24
896.48	214.24
896.79	214.25
897.10	214.27
897.40	214.28
897.71	214.31
898.01	214.31
898.32	214.34
898.63	214.36
898.93	214.37
899.24	214.38
899.54	214.39
899.85	214.34
900.15	214.29
900.46	214.28
900.76	214.30
901.07	214.34
901.38	214.37
901.68	214.40
901.99	214.28
902.29	214.33
902.60	214.31
902.90	214.28
903.21	214.29
903.51	214.27
903.82	214.30
904.12	214.32
904.43	214.35
904.73	214.35
905.03	214.38
905.34	214.61
905.64	214.58
905.95	214.57
906.25	214.57
906.56	214.55
906.86	214.55
907.17	214.53
907.47	214.53
907.77	214.49
908.08	214.44
908.38	214.47
908.69	214.48
908.99	214.50
909.30	214.54
909.60	214.51
909.90	214.55
910.21	214.48
910.51	214.43
910.81	214.40
911.12	214.40
911.42	214.38
911.73	214.14
912.03	214.14
912.33	214.18
912.64	214.24
912.94	214.24
913.24	214.18
913.55	214.16
913.85	214.18
914.15	214.24
914.46	214.25
914.76	214.22
915.06	214.18
915.37	214.14
915.67	214.12
915.97	214.13
916.27	214.07
916.58	214.10
916.88	214.09
917.18	214.08
917.49	214.20
917.79	214.21
918.09	214.22
918.39	214.27
918.70	214.25
919.00	214.22
919.30	214.35
919.60	214.37
919.91	214.37
920.21	214.37
920.51	214.29
920.81	214.31
921.12	214.39
921.42	214.38
921.72	214.41
922.02	214.41
922.32	214.43
922.63	214.44
922.93	214.54
923.23	214.52
923.53	214.48
923.83	214.34
924.13	214.35
924.44	214.36
924.74	214.40
925.04	214.44
925.34	214.44
925.64	214.33
925.94	214.31
926.24	214.43
926.55	214.39
926.85	214.40
927.15	214.40
927.45	214.35
927.75	214.38
928.05	214.36
928.35	214.36
928.65	214.41
928.95	214.41
929.26	214.33
929.56	214.42
929.86	214.50
930.16	214.50
930.46	214.48
930.76	214.47
931.06	214.36
931.36	214.29
931.66	214.32
931.96	214.35
932.26	214.40
932.56	214.32
932.86	214.33
933.16	214.32
933.46	214.30
933.76	214.26
934.06	214.29
934.36	214.34
934.66	214.34
934.96	214.30
935.26	214.33
935.56	214.35
935.86	214.30
936.16	214.24
936.46	214.21
936.76	214.20
937.06	214.21
937.36	214.22
937.66	214.24
937.96	214.22
938.26	214.18
938.56	214.12
938.86	214.13
939.16	214.17
939.46	214.20
939.76	214.21
940.06	214.23
940.35	214.17
940.65	214.09
940.95	214.12
941.25	214.05
941.55	214.00
941.85	214.00
942.15	214.01
942.45	214.09
942.75	214.11
943.04	214.14
943.34	214.16
943.64	214.13
943.94	214.14
944.24	214.14
944.54	214.13
944.84	214.14
945.13	214.11
945.43	214.13
945.73	214.10
946.03	214.10
946.33	214.05
946.62	214.02
946.92	214.01
947.22	213.98
947.52	214.01
947.82	214.05
948.11	214.02
948.41	213.98
948.71	213.89
949.01	213.89
949.31	213.85
949.60	213.84
949.90	213.89
950.20	213.88
950.50	213.89
950.79	213.89
951.09	213.92
951.39	213.91
951.69	213.87
951.98	213.92
952.28	213.93
952.58	213.97
952.87	214.01
953.17	214.06
953.47	214.06
953.76	214.08
954.06	214.04
954.36	214.00
954.66	213.99
954.95	214.08
955.25	214.09
955.55	214.12
955.84	214.10
956.14	214.10
956.44	214.13
956.73	214.11
957.03	214.14
957.32	214.18
957.62	214.18
957.92	214.22
958.21	214.19
958.51	214.44
958.81	214.47
959.10	214.50
959.40	214.53
959.69	214.56
959.99	214.60
960.29	214.61
960.58	214.60
960.88	214.69
961.17	214.67
961.47	214.66
961.76	214.61
962.06	214.69
962.36	214.65
962.65	214.63
962.95	214.61
963.24	214.56
963.54	214.53
963.83	214.57
964.13	214.52
964.42	214.48
964.72	214.26
965.01	214.25
965.31	214.22
965.60	214.18
965.90	214.30
966.19	214.25
966.49	214.26
966.78	214.24
967.08	214.21
967.37	214.23
967.67	214.22
967.96	214.29
968.26	214.23
968.55	214.27
968.85	214.25
969.14	214.25
969.43	214.27
969.73	214.22
970.02	214.19
970.32	214.18
970.61	214.16
970.91	214.10
971.20	214.07
971.49	214.04
971.79	214.06
972.08	213.93
972.38	213.93
972.67	213.92
972.96	213.95
973.26	213.92
973.55	213.95
973.85	213.91
974.14	213.88
974.43	213.92
974.73	213.91
975.02	213.89
975.31	213.91
975.61	213.89
975.90	213.88
976.19	213.85
976.49	213.85
976.78	213.88
977.07	213.88
977.37	213.89
977.66	213.89
977.95	213.83
978.24	213.81
978.54	213.84
978.83	213.83
979.12	213.83
979.42	213.82
979.71	213.77
980.00	213.76
980.29	213.75
980.59	213.66
980.88	213.69
981.17	213.69
981.46	213.67
981.76	213.71
982.05	213.78
982.34	213.82
982.63	213.83
982.93	213.80
983.22	213.87
983.51	213.90
983.80	213.92
984.09	213.96
984.39	213.97
984.68	213.93
984.97	213.95
985.26	213.93
985.55	213.95
985.85	213.92
986.14	213.97
986.43	213.99
986.72	214.02
987.01	213.94
987.30	213.95
987.59	213.96
987.89	213.95
988.18	213.90
988.47	213.85
988.76	213.82
989.05	213.83
989.34	213.78
989.63	213.79
989.92	213.80
990.22	213.73
990.51	213.71
990.80	213.70
991.09	213.71
991.38	213.72
991.67	213.70
991.96	213.67
992.25	213.66
992.54	213.63
992.83	213.64
993.12	213.63
993.41	213.62
993.70	213.69
993.99	213.74
994.28	213.73
994.58	213.79
994.87	213.79
995.16	213.78
995.45	213.77
995.74	213.71
996.03	213.74
996.32	213.81
996.61	213.86
996.90	213.83
997.19	213.82
997.48	213.86
997.77	213.81
998.06	213.85
998.34	213.86
998.63	213.84
998.92	213.85
999.21	213.88
999.50	213.89
999.79	213.81
1000.08	213.81
1000.37	213.85
1000.66	213.82
1000.95	213.89
1001.24	213.92
1001.53	213.96
1001.82	213.97
1002.11	213.88
1002.40	213.89
1002.68	213.94
1002.97	214.14
1003.26	214.09
1003.55	214.04
1003.84	214.08
1004.13	214.13
1004.42	214.10
1004.71	214.13
1004.99	214.11
1005.28	214.17
1005.57	214.16
1005.86	214.13
1006.15	214.06
1006.44	214.00
1006.72	214.04
1007.01	213.95
1007.30	213.93
1007.59	213.91
1007.88	213.93
1008.17	213.97
1008.45	213.93
1008.74	213.81
1009.03	213.69
1009.32	213.73
1009.60	213.73
1009.89	213.72
1010.18	213.65
1010.47	213.64
1010.76	213.64
1011.04	213.64
1011.33	213.66
1011.62	213.72
1011.91	213.74
1012.19	213.78
1012.48	213.81
1012.77	213.82
1013.05	213.95
1013.34	213.97
1013.63	213.99
1013.92	213.97
1014.20	213.95
1014.49	213.96
1014.78	213.98
1015.06	213.91
1015.35	213.88
1015.64	213.93
1015.92	213.97
1016.21	213.98
1016.50	213.98
1016.78	213.99
1017.07	213.97
1017.36	213.94
1017.64	213.87
1017.93	213.89
1018.22	213.86
1018.50	213.85
1018.79	213.84
1019.08	213.71
1019.36	213.73
1019.65	213.66
1019.93	213.71
1020.22	213.77
1020.51	213.89
1020.79	213.90
1021.08	213.67
1021.36	213.33
1021.65	214.03
1021.94	213.45
1022.22	214.19
1022.51	212.90
1022.79	214.60
1023.08	214.38
1023.36	216.52
1023.65	213.78
>>>>>End Processed Spectral Data<<<<<
