SpectraSuite Data File
++++++++++++++++++++++++++++++++++++
Date: Tue Jan 29 16:08:42 EST 2013
User: group
Dark Spectrum Present: No
Reference Spectrum Present: No
Number of Sampled Component Spectra: 1
Spectrometers: USB2E7196
Integration Time (usec): 65000 (USB2E7196)
Spectra Averaged: 100 (USB2E7196)
Boxcar Smoothing: 10 (USB2E7196)
Correct for Electrical Dark: No (USB2E7196)
Strobe/Lamp Enabled: No (USB2E7196)
Correct for Detector Non-linearity: No (USB2E7196)
Correct for Stray Light: No (USB2E7196)
Number of Pixels in Processed Spectrum: 2048
>>>>>Begin Processed Spectral Data<<<<<
339.09	0.00
339.48	202.78
339.86	204.08
340.24	205.30
340.63	206.82
341.01	211.74
341.39	209.88
341.78	210.70
342.16	212.66
342.54	212.70
342.93	201.74
343.31	211.93
343.69	212.48
344.07	212.96
344.46	213.43
344.84	213.83
345.22	213.97
345.60	214.25
345.99	214.47
346.37	214.60
346.75	214.72
347.13	214.81
347.52	214.87
347.90	215.03
348.28	215.05
348.66	215.15
349.05	215.12
349.43	215.15
349.81	215.24
350.19	215.28
350.57	215.36
350.96	215.49
351.34	215.61
351.72	215.72
352.10	215.84
352.48	215.87
352.87	215.93
353.25	216.01
353.63	216.03
354.01	216.08
354.39	216.18
354.77	216.24
355.15	216.38
355.54	216.44
355.92	216.39
356.30	216.46
356.68	216.65
357.06	216.73
357.44	216.76
357.82	216.85
358.20	216.94
358.58	217.00
358.97	217.05
359.35	217.14
359.73	217.20
360.11	217.22
360.49	217.29
360.87	217.32
361.25	217.37
361.63	217.49
362.01	217.57
362.39	217.54
362.77	217.58
363.15	217.61
363.53	217.64
363.91	217.70
364.29	217.73
364.67	217.54
365.05	217.53
365.43	217.59
365.81	217.63
366.19	217.72
366.57	217.82
366.95	217.81
367.33	217.73
367.71	217.72
368.09	217.78
368.47	217.76
368.85	217.76
369.23	217.81
369.61	217.73
369.99	217.76
370.37	217.77
370.75	217.88
371.13	217.79
371.51	217.74
371.89	217.72
372.27	217.74
372.65	217.71
373.03	217.75
373.41	217.71
373.78	217.65
374.16	217.52
374.54	217.41
374.92	217.36
375.30	217.35
375.68	217.27
376.06	217.22
376.44	217.19
376.82	217.17
377.19	217.09
377.57	217.07
377.95	216.95
378.33	216.90
378.71	216.74
379.09	216.73
379.47	216.74
379.84	216.66
380.22	216.59
380.60	216.55
380.98	216.47
381.36	216.39
381.73	216.33
382.11	216.34
382.49	216.30
382.87	216.23
383.25	216.20
383.62	216.43
384.00	216.35
384.38	216.33
384.76	216.36
385.13	216.41
385.51	216.36
385.89	216.35
386.27	216.31
386.64	216.31
387.02	216.29
387.40	216.24
387.78	216.25
388.15	216.21
388.53	216.18
388.91	216.17
389.29	216.16
389.66	216.14
390.04	216.05
390.42	216.07
390.79	216.09
391.17	216.06
391.55	215.80
391.92	215.77
392.30	215.78
392.68	215.73
393.05	215.69
393.43	215.68
393.81	215.67
394.18	215.69
394.56	215.69
394.94	215.73
395.31	215.67
395.69	215.73
396.06	215.80
396.44	215.86
396.82	215.85
397.19	215.98
397.57	215.99
397.95	216.07
398.32	216.03
398.70	216.08
399.07	216.14
399.45	216.24
399.82	216.29
400.20	216.31
400.58	216.37
400.95	216.37
401.33	216.50
401.70	216.70
402.08	216.79
402.45	216.84
402.83	216.96
403.20	217.08
403.58	217.15
403.95	217.26
404.33	217.41
404.71	217.56
405.08	217.81
405.46	217.99
405.83	218.15
406.21	218.38
406.58	218.63
406.96	218.86
407.33	219.10
407.70	219.39
408.08	219.85
408.45	220.19
408.83	220.54
409.20	220.87
409.58	221.14
409.95	221.59
410.33	222.08
410.70	222.49
411.08	223.06
411.45	223.65
411.82	224.22
412.20	224.88
412.57	225.70
412.95	226.24
413.32	227.07
413.69	227.88
414.07	228.74
414.44	229.69
414.82	230.65
415.19	231.76
415.56	232.92
415.94	234.05
416.31	235.39
416.68	236.78
417.06	238.29
417.43	239.77
417.81	241.43
418.18	243.14
418.55	245.01
418.93	246.97
419.30	248.98
419.67	251.17
420.04	253.35
420.42	255.64
420.79	258.37
421.16	261.06
421.54	263.90
421.91	266.79
422.28	269.78
422.66	272.96
423.03	276.14
423.40	279.37
423.77	282.85
424.15	286.38
424.52	290.09
424.89	294.13
425.26	298.04
425.64	301.80
426.01	305.95
426.38	310.31
426.75	314.68
427.13	319.24
427.50	324.01
427.87	329.08
428.24	334.07
428.61	338.87
428.99	344.18
429.36	349.95
429.73	355.61
430.10	361.29
430.47	367.18
430.85	373.20
431.22	379.67
431.59	386.59
431.96	393.13
432.33	400.37
432.70	407.38
433.08	415.63
433.45	423.42
433.82	431.17
434.19	439.76
434.56	448.20
434.93	456.21
435.30	464.21
435.68	472.99
436.05	481.62
436.42	490.21
436.79	498.08
437.16	506.60
437.53	515.58
437.90	524.37
438.27	532.93
438.64	541.88
439.01	550.09
439.38	557.32
439.75	564.40
440.13	572.47
440.50	580.13
440.87	586.33
441.24	592.84
441.61	599.87
441.98	604.99
442.35	611.09
442.72	617.20
443.09	623.02
443.46	626.64
443.83	629.06
444.20	631.21
444.57	634.19
444.94	635.50
445.31	636.89
445.68	638.22
446.05	638.83
446.42	638.08
446.79	637.13
447.16	636.13
447.53	635.46
447.90	632.25
448.27	629.02
448.64	624.52
449.01	621.21
449.37	615.55
449.74	610.04
450.11	603.39
450.48	596.28
450.85	589.06
451.22	582.79
451.59	576.94
451.96	571.27
452.33	563.71
452.70	556.90
453.07	548.70
453.43	540.38
453.80	532.43
454.17	524.69
454.54	517.40
454.91	509.51
455.28	501.80
455.65	494.70
456.02	487.57
456.38	481.49
456.75	473.93
457.12	467.62
457.49	461.40
457.86	455.45
458.23	450.28
458.59	444.66
458.96	438.89
459.33	433.77
459.70	428.60
460.07	424.56
460.43	419.87
460.80	415.48
461.17	411.68
461.54	407.62
461.91	403.76
462.27	399.85
462.64	396.56
463.01	392.90
463.38	389.32
463.74	385.71
464.11	382.60
464.48	379.88
464.85	376.89
465.21	374.56
465.58	371.99
465.95	368.92
466.32	366.35
466.68	363.82
467.05	361.30
467.42	358.86
467.78	356.22
468.15	353.75
468.52	351.95
468.88	349.56
469.25	347.44
469.62	345.75
469.98	343.88
470.35	342.13
470.72	340.51
471.08	338.82
471.45	337.40
471.82	335.94
472.18	334.32
472.55	333.18
472.92	331.85
473.28	330.70
473.65	329.67
474.02	328.65
474.38	327.79
474.75	327.09
475.11	326.35
475.48	325.87
475.85	325.43
476.21	324.93
476.58	324.61
476.94	324.45
477.31	324.17
477.67	323.98
478.04	323.83
478.41	323.82
478.77	323.99
479.14	323.95
479.50	324.09
479.87	324.41
480.23	324.77
480.60	325.05
480.96	325.35
481.33	325.96
481.69	326.54
482.06	327.12
482.42	327.64
482.79	328.20
483.15	328.97
483.52	329.95
483.88	330.85
484.25	331.84
484.61	332.82
484.98	333.88
485.34	335.18
485.71	336.56
486.07	338.02
486.44	339.33
486.80	340.93
487.17	342.62
487.53	344.43
487.90	346.28
488.26	348.31
488.62	350.45
488.99	352.50
489.35	354.70
489.72	357.06
490.08	359.58
490.44	362.15
490.81	364.84
491.17	367.53
491.54	370.49
491.90	373.47
492.26	376.73
492.63	380.10
492.99	383.52
493.36	387.20
493.72	391.03
494.08	395.07
494.45	399.32
494.81	403.65
495.17	408.12
495.54	412.78
495.90	417.57
496.26	422.50
496.63	427.65
496.99	432.95
497.35	438.48
497.72	444.27
498.08	450.21
498.44	456.30
498.80	462.71
499.17	469.21
499.53	475.96
499.89	482.81
500.26	489.79
500.62	496.90
500.98	504.29
501.34	511.72
501.71	519.43
502.07	527.16
502.43	535.10
502.79	543.11
503.16	551.45
503.52	560.06
503.88	568.66
504.24	577.60
504.60	586.64
504.97	595.85
505.33	605.09
505.69	614.96
506.05	624.83
506.41	634.63
506.78	644.61
507.14	654.79
507.50	665.22
507.86	675.80
508.22	686.52
508.59	697.16
508.95	708.22
509.31	719.40
509.67	730.79
510.03	742.17
510.39	753.96
510.75	765.77
511.12	777.56
511.48	789.67
511.84	801.78
512.20	814.03
512.56	826.65
512.92	839.26
513.28	851.68
513.64	864.23
514.00	876.96
514.37	889.83
514.73	902.72
515.09	915.45
515.45	928.29
515.81	941.15
516.17	954.34
516.53	967.33
516.89	980.30
517.25	993.32
517.61	1006.56
517.97	1019.69
518.33	1032.72
518.69	1046.08
519.05	1059.52
519.41	1073.05
519.77	1086.75
520.13	1099.71
520.49	1112.80
520.85	1125.98
521.21	1139.15
521.57	1152.56
521.93	1165.50
522.29	1179.08
522.65	1192.57
523.01	1205.80
523.37	1218.81
523.73	1231.97
524.09	1244.94
524.45	1258.06
524.81	1271.24
525.17	1284.34
525.53	1297.27
525.89	1310.28
526.25	1323.20
526.61	1335.76
526.97	1348.52
527.33	1361.11
527.68	1374.36
528.04	1387.44
528.40	1400.31
528.76	1413.38
529.12	1425.92
529.48	1438.74
529.84	1450.71
530.20	1463.11
530.56	1475.53
530.91	1488.46
531.27	1500.95
531.63	1513.47
531.99	1526.00
532.35	1538.07
532.71	1550.33
533.07	1562.76
533.42	1574.61
533.78	1586.41
534.14	1598.31
534.50	1609.18
534.86	1620.53
535.21	1631.06
535.57	1642.35
535.93	1653.36
536.29	1664.23
536.65	1675.46
537.00	1686.31
537.36	1697.41
537.72	1708.14
538.08	1719.18
538.44	1729.82
538.79	1740.54
539.15	1751.07
539.51	1761.47
539.87	1772.46
540.22	1782.89
540.58	1793.49
540.94	1804.11
541.29	1814.07
541.65	1823.38
542.01	1833.73
542.37	1843.40
542.72	1853.31
543.08	1862.70
543.44	1872.82
543.79	1881.80
544.15	1891.03
544.51	1900.64
544.87	1910.13
545.22	1918.99
545.58	1927.60
545.94	1936.12
546.29	1944.42
546.65	1952.53
547.01	1960.48
547.36	1967.84
547.72	1975.35
548.07	1982.93
548.43	1990.46
548.79	1998.09
549.14	2006.09
549.50	2014.29
549.86	2021.92
550.21	2029.05
550.57	2036.61
550.92	2043.21
551.28	2050.50
551.64	2057.56
551.99	2064.81
552.35	2071.89
552.70	2078.75
553.06	2085.21
553.41	2091.48
553.77	2097.69
554.13	2103.95
554.48	2110.80
554.84	2117.66
555.19	2124.04
555.55	2130.17
555.90	2136.22
556.26	2142.78
556.61	2148.55
556.97	2153.19
557.32	2158.94
557.68	2165.26
558.03	2170.78
558.39	2176.00
558.74	2181.91
559.10	2187.40
559.45	2193.03
559.81	2198.50
560.16	2203.89
560.52	2209.81
560.87	2216.16
561.23	2222.20
561.58	2228.87
561.94	2233.97
562.29	2238.88
562.64	2245.04
563.00	2250.77
563.35	2256.47
563.71	2262.39
564.06	2268.14
564.42	2274.18
564.77	2279.23
565.12	2284.41
565.48	2289.67
565.83	2295.30
566.19	2300.79
566.54	2306.21
566.89	2310.79
567.25	2315.37
567.60	2320.99
567.96	2326.24
568.31	2330.75
568.66	2335.11
569.02	2338.79
569.37	2342.73
569.72	2347.05
570.08	2350.67
570.43	2353.84
570.78	2356.84
571.14	2359.51
571.49	2362.73
571.84	2366.28
572.20	2369.35
572.55	2372.60
572.90	2374.81
573.26	2377.79
573.61	2380.21
573.96	2382.44
574.31	2384.49
574.67	2386.59
575.02	2387.57
575.37	2389.03
575.72	2390.14
576.08	2391.64
576.43	2392.15
576.78	2392.94
577.13	2394.93
577.49	2395.95
577.84	2397.28
578.19	2398.92
578.54	2399.71
578.90	2400.93
579.25	2401.07
579.60	2401.41
579.95	2400.90
580.30	2401.58
580.66	2400.85
581.01	2399.37
581.36	2397.27
581.71	2396.14
582.06	2395.29
582.42	2394.76
582.77	2392.94
583.12	2391.39
583.47	2390.46
583.82	2390.07
584.17	2388.91
584.53	2386.88
584.88	2385.17
585.23	2383.41
585.58	2381.22
585.93	2379.12
586.28	2377.01
586.63	2374.71
586.98	2372.59
587.34	2370.88
587.69	2368.67
588.04	2366.95
588.39	2365.70
588.74	2363.41
589.09	2360.96
589.44	2358.07
589.79	2355.75
590.14	2354.05
590.49	2351.35
590.84	2347.49
591.19	2344.64
591.54	2341.48
591.89	2337.55
592.25	2334.46
592.60	2330.52
592.95	2326.61
593.30	2322.60
593.65	2318.17
594.00	2313.97
594.35	2310.91
594.70	2306.26
595.05	2301.55
595.40	2296.25
595.75	2290.75
596.10	2287.17
596.45	2282.40
596.80	2277.93
597.15	2272.74
597.50	2266.67
597.85	2261.78
598.19	2256.77
598.54	2251.02
598.89	2246.06
599.24	2241.64
599.59	2235.77
599.94	2230.17
600.29	2224.46
600.64	2218.84
600.99	2212.29
601.34	2206.90
601.69	2200.13
602.04	2193.87
602.39	2187.53
602.74	2181.57
603.08	2176.16
603.43	2169.82
603.78	2163.04
604.13	2155.88
604.48	2148.88
604.83	2142.95
605.18	2136.70
605.53	2129.73
605.87	2122.89
606.22	2116.16
606.57	2108.33
606.92	2100.39
607.27	2093.51
607.62	2086.96
607.96	2079.82
608.31	2073.33
608.66	2065.73
609.01	2058.24
609.36	2051.25
609.70	2043.58
610.05	2035.88
610.40	2027.59
610.75	2019.40
611.10	2011.89
611.44	2003.28
611.79	1994.49
612.14	1984.54
612.49	1974.15
612.83	1965.08
613.18	1955.95
613.53	1946.68
613.88	1937.16
614.22	1928.57
614.57	1918.60
614.92	1908.08
615.27	1898.08
615.61	1888.34
615.96	1878.60
616.31	1869.05
616.65	1859.79
617.00	1849.89
617.35	1840.26
617.70	1830.61
618.04	1820.46
618.39	1810.13
618.74	1800.49
619.08	1790.99
619.43	1782.41
619.78	1774.23
620.12	1765.46
620.47	1755.61
620.82	1745.32
621.16	1735.62
621.51	1725.79
621.85	1716.02
622.20	1705.55
622.55	1695.06
622.89	1685.14
623.24	1675.56
623.59	1665.76
623.93	1655.56
624.28	1645.96
624.62	1635.65
624.97	1625.37
625.32	1615.70
625.66	1606.92
626.01	1598.02
626.35	1588.52
626.70	1578.33
627.04	1568.18
627.39	1558.19
627.73	1548.98
628.08	1539.88
628.43	1530.24
628.77	1520.87
629.12	1511.97
629.46	1504.15
629.81	1495.62
630.15	1485.86
630.50	1476.01
630.84	1465.55
631.19	1455.65
631.53	1446.14
631.88	1436.12
632.22	1426.11
632.57	1416.89
632.91	1406.86
633.26	1397.06
633.60	1387.50
633.95	1378.33
634.29	1368.92
634.64	1359.53
634.98	1349.63
635.32	1340.45
635.67	1331.94
636.01	1322.72
636.36	1312.92
636.70	1303.39
637.05	1294.02
637.39	1285.20
637.73	1276.39
638.08	1268.75
638.42	1260.36
638.77	1251.57
639.11	1243.38
639.45	1235.53
639.80	1226.76
640.14	1218.05
640.49	1209.16
640.83	1200.45
641.17	1192.27
641.52	1184.09
641.86	1175.47
642.20	1167.61
642.55	1159.01
642.89	1150.21
643.23	1141.61
643.58	1133.48
643.92	1124.38
644.26	1115.89
644.61	1107.39
644.95	1098.78
645.29	1089.56
645.64	1080.48
645.98	1072.24
646.32	1064.30
646.66	1055.78
647.01	1047.50
647.35	1039.30
647.69	1030.92
648.04	1022.62
648.38	1013.63
648.72	1004.85
649.06	996.44
649.41	988.29
649.75	980.40
650.09	972.47
650.43	964.47
650.78	956.33
651.12	948.73
651.46	941.33
651.80	934.11
652.14	926.80
652.49	919.35
652.83	912.12
653.17	904.38
653.51	896.77
653.85	889.60
654.20	882.33
654.54	874.92
654.88	867.82
655.22	860.70
655.56	853.83
655.90	847.13
656.25	840.47
656.59	833.49
656.93	826.45
657.27	819.42
657.61	812.53
657.95	806.46
658.29	800.67
658.64	794.52
658.98	788.14
659.32	781.61
659.66	775.43
660.00	769.09
660.34	763.08
660.68	757.10
661.02	750.84
661.36	744.99
661.70	739.20
662.05	733.63
662.39	728.16
662.73	722.87
663.07	717.51
663.41	711.93
663.75	706.33
664.09	700.71
664.43	695.29
664.77	689.95
665.11	684.15
665.45	678.23
665.79	672.50
666.13	666.82
666.47	661.44
666.81	656.13
667.15	650.88
667.49	645.75
667.83	640.55
668.17	635.41
668.51	630.39
668.85	625.54
669.19	620.66
669.53	615.70
669.87	610.60
670.21	605.92
670.55	601.33
670.89	597.05
671.23	592.89
671.57	588.62
671.91	584.43
672.25	580.42
672.58	576.33
672.92	572.36
673.26	568.46
673.60	564.68
673.94	560.93
674.28	557.41
674.62	553.76
674.96	550.12
675.30	546.63
675.64	543.02
675.97	539.50
676.31	535.96
676.65	532.40
676.99	529.02
677.33	525.26
677.67	521.66
678.01	517.82
678.34	514.23
678.68	510.76
679.02	507.12
679.36	503.37
679.70	499.84
680.04	496.34
680.37	493.00
680.71	489.72
681.05	486.56
681.39	483.34
681.73	480.20
682.06	477.14
682.40	474.06
682.74	470.88
683.08	467.68
683.42	464.57
683.75	461.65
684.09	458.72
684.43	455.92
684.77	453.09
685.10	450.35
685.44	447.43
685.78	444.50
686.12	441.83
686.45	439.19
686.79	436.52
687.13	434.02
687.46	431.44
687.80	428.77
688.14	425.93
688.48	423.31
688.81	420.64
689.15	418.17
689.49	415.63
689.82	413.23
690.16	410.70
690.50	408.22
690.83	405.74
691.17	403.21
691.51	400.82
691.84	398.65
692.18	396.46
692.52	394.29
692.85	392.23
693.19	390.14
693.52	388.01
693.86	385.89
694.20	383.81
694.53	381.69
694.87	379.52
695.21	377.51
695.54	375.42
695.88	373.32
696.21	371.11
696.55	369.04
696.88	366.99
697.22	365.12
697.56	363.30
697.89	361.49
698.23	359.77
698.56	358.00
698.90	356.21
699.23	354.28
699.57	352.45
699.90	350.64
700.24	348.91
700.58	347.23
700.91	345.62
701.25	344.03
701.58	342.50
701.92	340.98
702.25	339.42
702.59	337.87
702.92	336.40
703.26	334.91
703.59	333.49
703.93	332.25
704.26	330.82
704.60	329.35
704.93	327.92
705.26	326.46
705.60	325.05
705.93	323.58
706.27	322.35
706.60	321.16
706.94	319.93
707.27	318.52
707.61	317.17
707.94	315.85
708.27	314.35
708.61	312.90
708.94	311.53
709.28	310.30
709.61	309.07
709.94	307.91
710.28	306.74
710.61	305.59
710.95	304.20
711.28	303.14
711.61	301.96
711.95	300.87
712.28	299.74
712.61	298.57
712.95	297.51
713.28	296.46
713.61	295.29
713.95	294.14
714.28	293.17
714.61	292.15
714.95	291.13
715.28	290.17
715.61	289.25
715.95	288.33
716.28	287.39
716.61	286.45
716.95	285.44
717.28	284.53
717.61	283.60
717.94	282.73
718.28	281.70
718.61	280.86
718.94	279.95
719.27	279.09
719.61	278.34
719.94	277.51
720.27	276.59
720.60	275.78
720.94	275.04
721.27	274.36
721.60	273.72
721.93	273.05
722.27	272.44
722.60	271.76
722.93	271.10
723.26	270.44
723.59	269.76
723.93	269.16
724.26	268.55
724.59	267.91
724.92	267.35
725.25	266.88
725.59	266.34
725.92	265.83
726.25	265.33
726.58	264.75
726.91	264.21
727.24	263.72
727.57	263.19
727.91	262.61
728.24	262.05
728.57	261.46
728.90	260.90
729.23	260.28
729.56	259.86
729.89	259.32
730.22	258.76
730.55	258.24
730.89	257.75
731.22	257.22
731.55	256.73
731.88	256.19
732.21	255.61
732.54	255.11
732.87	254.61
733.20	254.13
733.53	253.66
733.86	253.17
734.19	252.69
734.52	252.31
734.85	252.03
735.18	251.57
735.51	251.21
735.84	250.78
736.17	250.44
736.50	249.96
736.83	249.80
737.16	249.44
737.49	249.05
737.82	248.64
738.15	248.27
738.48	247.89
738.81	247.56
739.14	247.17
739.47	246.77
739.80	246.37
740.13	246.01
740.46	245.63
740.79	245.25
741.12	244.85
741.45	244.48
741.78	244.04
742.11	243.77
742.44	243.38
742.77	243.11
743.10	242.75
743.43	242.40
743.75	241.85
744.08	241.78
744.41	241.45
744.74	241.11
745.07	240.75
745.40	240.47
745.73	240.20
746.06	239.92
746.39	239.62
746.71	239.30
747.04	238.97
747.37	238.65
747.70	238.39
748.03	238.16
748.36	237.87
748.68	237.57
749.01	237.20
749.34	236.89
749.67	236.57
750.00	236.31
750.33	236.16
750.65	235.94
750.98	235.43
751.31	235.23
751.64	235.03
751.97	234.92
752.29	234.67
752.62	234.36
752.95	234.11
753.28	233.85
753.60	233.65
753.93	233.49
754.26	233.33
754.59	233.06
754.91	232.81
755.24	232.56
755.57	232.35
755.90	232.14
756.22	231.96
756.55	231.73
756.88	231.48
757.20	231.15
757.53	230.88
757.86	230.66
758.19	230.44
758.51	230.20
758.84	229.87
759.17	229.66
759.49	229.51
759.82	229.45
760.15	229.24
760.47	229.04
760.80	228.78
761.13	228.58
761.45	228.42
761.78	228.25
762.11	228.14
762.43	227.94
762.76	227.78
763.08	227.63
763.41	227.52
763.74	227.39
764.06	227.25
764.39	227.09
764.71	226.97
765.04	226.82
765.37	226.68
765.69	226.55
766.02	226.39
766.34	226.22
766.67	226.03
767.00	225.99
767.32	225.99
767.65	226.02
767.97	225.92
768.30	225.81
768.62	225.69
768.95	225.47
769.27	225.39
769.60	225.32
769.92	225.18
770.25	225.01
770.57	224.83
770.90	224.71
771.22	224.57
771.55	224.45
771.87	224.38
772.20	224.27
772.52	224.36
772.85	224.50
773.17	224.41
773.50	224.25
773.82	224.13
774.15	223.89
774.47	223.64
774.80	223.47
775.12	223.38
775.45	223.26
775.77	223.23
776.09	223.14
776.42	223.04
776.74	223.02
777.07	222.95
777.39	222.90
777.72	222.83
778.04	222.81
778.36	222.72
778.69	222.60
779.01	222.53
779.33	222.29
779.66	222.01
779.98	221.90
780.31	221.85
780.63	221.85
780.95	221.85
781.28	221.74
781.60	221.66
781.92	221.56
782.25	221.52
782.57	221.45
782.89	221.39
783.22	221.29
783.54	221.18
783.86	221.13
784.19	221.06
784.51	221.05
784.83	220.96
785.16	220.91
785.48	220.90
785.80	220.85
786.12	220.80
786.45	220.75
786.77	220.71
787.09	220.66
787.42	220.53
787.74	220.48
788.06	220.45
788.38	220.42
788.71	220.34
789.03	220.27
789.35	220.24
789.67	220.16
789.99	220.11
790.32	220.03
790.64	220.02
790.96	220.14
791.28	219.99
791.61	219.92
791.93	219.85
792.25	219.76
792.57	219.84
792.89	219.76
793.21	219.71
793.54	219.64
793.86	219.58
794.18	219.53
794.50	219.44
794.82	219.44
795.14	219.41
795.47	219.45
795.79	219.43
796.11	219.33
796.43	219.27
796.75	219.22
797.07	219.20
797.39	219.11
797.71	218.92
798.04	218.92
798.36	218.92
798.68	218.87
799.00	218.86
799.32	218.70
799.64	218.68
799.96	218.65
800.28	218.64
800.60	218.57
800.92	218.55
801.24	218.50
801.56	218.46
801.89	218.40
802.21	218.35
802.53	218.29
802.85	218.30
803.17	218.38
803.49	218.30
803.81	218.25
804.13	218.23
804.45	218.18
804.77	218.13
805.09	218.11
805.41	218.06
805.73	217.97
806.05	217.92
806.37	217.85
806.69	217.80
807.01	217.76
807.33	217.75
807.65	217.65
807.97	217.73
808.28	217.68
808.60	217.67
808.92	217.63
809.24	217.76
809.56	217.72
809.88	217.63
810.20	217.68
810.52	217.72
810.84	217.65
811.16	217.59
811.48	217.57
811.80	217.62
812.12	217.63
812.43	217.68
812.75	217.64
813.07	217.60
813.39	217.58
813.71	217.56
814.03	217.50
814.35	217.52
814.67	217.41
814.98	217.36
815.30	217.33
815.62	217.25
815.94	217.05
816.26	217.00
816.58	216.94
816.89	216.91
817.21	216.82
817.53	216.82
817.85	216.84
818.17	216.82
818.48	216.71
818.80	216.71
819.12	216.62
819.44	216.59
819.76	216.58
820.07	216.56
820.39	216.53
820.71	216.58
821.03	216.56
821.34	216.53
821.66	216.54
821.98	216.54
822.30	216.53
822.61	216.66
822.93	216.60
823.25	216.57
823.57	216.53
823.88	216.58
824.20	216.56
824.52	216.57
824.83	216.50
825.15	216.48
825.47	216.43
825.79	216.44
826.10	216.39
826.42	216.37
826.74	216.38
827.05	216.36
827.37	216.36
827.69	216.34
828.00	216.34
828.32	216.32
828.64	216.30
828.95	216.39
829.27	216.29
829.58	216.32
829.90	216.36
830.22	216.36
830.53	216.26
830.85	216.23
831.17	216.18
831.48	216.18
831.80	216.17
832.11	216.14
832.43	216.12
832.75	216.11
833.06	216.25
833.38	216.17
833.69	216.16
834.01	216.11
834.32	216.09
834.64	216.06
834.96	216.04
835.27	216.04
835.59	215.98
835.90	215.97
836.22	215.94
836.53	215.89
836.85	215.88
837.16	216.07
837.48	216.08
837.79	216.14
838.11	216.16
838.42	216.16
838.74	216.16
839.05	216.13
839.37	216.11
839.68	215.99
840.00	215.98
840.31	216.00
840.63	215.96
840.94	215.91
841.26	215.89
841.57	215.87
841.88	215.86
842.20	215.83
842.51	215.80
842.83	215.79
843.14	215.96
843.46	215.97
843.77	215.87
844.08	215.82
844.40	215.76
844.71	215.73
845.03	215.70
845.34	215.69
845.65	215.68
845.97	215.70
846.28	215.69
846.60	215.70
846.91	215.69
847.22	215.73
847.54	215.78
847.85	215.81
848.16	215.78
848.48	215.76
848.79	215.87
849.10	215.89
849.42	215.91
849.73	215.73
850.04	215.69
850.36	215.58
850.67	215.65
850.98	215.65
851.30	215.68
851.61	215.69
851.92	215.70
852.23	215.76
852.55	215.77
852.86	215.75
853.17	215.78
853.49	215.79
853.80	215.80
854.11	215.78
854.42	215.81
854.74	215.76
855.05	215.76
855.36	215.63
855.67	215.60
855.99	215.58
856.30	215.83
856.61	215.82
856.92	215.86
857.23	215.80
857.55	215.77
857.86	215.72
858.17	215.74
858.48	215.68
858.79	215.67
859.11	215.70
859.42	215.69
859.73	215.65
860.04	215.66
860.35	215.58
860.66	215.55
860.98	215.50
861.29	215.56
861.60	215.53
861.91	215.59
862.22	215.59
862.53	215.55
862.84	215.31
863.16	215.37
863.47	215.29
863.78	215.29
864.09	215.34
864.40	215.35
864.71	215.36
865.02	215.41
865.33	215.34
865.64	215.30
865.95	215.29
866.27	215.43
866.58	215.39
866.89	215.38
867.20	215.38
867.51	215.35
867.82	215.36
868.13	215.44
868.44	215.36
868.75	215.38
869.06	215.38
869.37	215.36
869.68	215.32
869.99	215.38
870.30	215.42
870.61	215.42
870.92	215.39
871.23	215.35
871.54	215.37
871.85	215.43
872.16	215.42
872.47	215.40
872.78	215.25
873.09	215.27
873.40	215.31
873.71	215.33
874.02	215.34
874.33	215.32
874.64	215.28
874.95	215.35
875.26	215.28
875.56	215.29
875.87	215.28
876.18	215.25
876.49	215.42
876.80	215.38
877.11	215.32
877.42	215.31
877.73	215.31
878.04	215.25
878.35	215.24
878.66	215.26
878.96	215.30
879.27	215.30
879.58	215.26
879.89	215.23
880.20	215.27
880.51	215.28
880.82	215.25
881.12	215.23
881.43	215.21
881.74	215.22
882.05	215.21
882.36	215.26
882.67	215.27
882.97	215.05
883.28	215.02
883.59	215.03
883.90	215.07
884.21	215.12
884.51	215.13
884.82	215.08
885.13	215.07
885.44	215.04
885.74	215.06
886.05	215.08
886.36	215.09
886.67	215.02
886.98	215.10
887.28	215.13
887.59	215.13
887.90	215.10
888.20	215.07
888.51	215.13
888.82	215.09
889.13	215.12
889.43	215.30
889.74	215.31
890.05	215.31
890.35	215.27
890.66	215.22
890.97	215.19
891.28	215.23
891.58	215.24
891.89	215.23
892.20	215.19
892.50	215.15
892.81	215.14
893.12	215.16
893.42	215.04
893.73	215.02
894.04	215.00
894.34	215.03
894.65	215.06
894.95	215.00
895.26	214.97
895.57	215.04
895.87	214.83
896.18	214.85
896.48	214.88
896.79	214.87
897.10	214.91
897.40	214.94
897.71	214.94
898.01	214.91
898.32	214.93
898.63	214.95
898.93	215.00
899.24	215.00
899.54	214.98
899.85	214.98
900.15	215.02
900.46	215.04
900.76	215.04
901.07	215.04
901.38	215.03
901.68	215.06
901.99	214.99
902.29	215.02
902.60	215.00
902.90	214.98
903.21	215.00
903.51	214.93
903.82	214.98
904.12	214.96
904.43	214.96
904.73	214.96
905.03	214.94
905.34	215.11
905.64	215.10
905.95	215.09
906.25	215.11
906.56	215.10
906.86	215.08
907.17	215.08
907.47	215.09
907.77	215.10
908.08	215.06
908.38	215.04
908.69	215.05
908.99	215.10
909.30	215.12
909.60	215.11
909.90	215.16
910.21	215.08
910.51	215.03
910.81	215.03
911.12	215.05
911.42	215.09
911.73	214.90
912.03	214.94
912.33	214.99
912.64	214.96
912.94	214.94
913.24	214.93
913.55	214.91
913.85	214.86
914.15	214.92
914.46	214.96
914.76	214.97
915.06	214.99
915.37	214.96
915.67	214.94
915.97	214.93
916.27	214.93
916.58	214.95
916.88	214.98
917.18	214.96
917.49	215.08
917.79	215.05
918.09	215.09
918.39	215.13
918.70	215.08
919.00	215.11
919.30	215.20
919.60	215.17
919.91	215.15
920.21	215.18
920.51	215.12
920.81	215.09
921.12	215.06
921.42	215.03
921.72	215.03
922.02	215.01
922.32	215.02
922.63	215.03
922.93	215.14
923.23	215.17
923.53	215.18
923.83	215.06
924.13	215.09
924.44	215.07
924.74	215.07
925.04	215.13
925.34	215.11
925.64	215.05
925.94	215.04
926.24	215.18
926.55	215.18
926.85	215.22
927.15	215.23
927.45	215.24
927.75	215.25
928.05	215.24
928.35	215.26
928.65	215.31
928.95	215.30
929.26	215.22
929.56	215.23
929.86	215.24
930.16	215.26
930.46	215.23
930.76	215.25
931.06	215.15
931.36	215.08
931.66	215.12
931.96	215.11
932.26	215.12
932.56	215.02
932.86	215.01
933.16	215.00
933.46	214.97
933.76	214.96
934.06	215.00
934.36	215.09
934.66	215.07
934.96	215.05
935.26	215.03
935.56	215.03
935.86	214.97
936.16	214.92
936.46	214.89
936.76	214.88
937.06	214.85
937.36	214.89
937.66	214.92
937.96	214.87
938.26	214.86
938.56	214.87
938.86	214.87
939.16	214.91
939.46	214.95
939.76	215.00
940.06	214.99
940.35	214.96
940.65	214.82
940.95	214.84
941.25	214.77
941.55	214.77
941.85	214.75
942.15	214.82
942.45	214.87
942.75	214.88
943.04	214.88
943.34	214.93
943.64	214.88
943.94	214.88
944.24	214.88
944.54	214.87
944.84	214.86
945.13	214.84
945.43	214.81
945.73	214.76
946.03	214.72
946.33	214.71
946.62	214.67
946.92	214.70
947.22	214.73
947.52	214.77
947.82	214.78
948.11	214.76
948.41	214.74
948.71	214.69
949.01	214.68
949.31	214.69
949.60	214.65
949.90	214.69
950.20	214.65
950.50	214.65
950.79	214.64
951.09	214.68
951.39	214.68
951.69	214.69
951.98	214.76
952.28	214.78
952.58	214.76
952.87	214.79
953.17	214.81
953.47	214.79
953.76	214.77
954.06	214.73
954.36	214.72
954.66	214.69
954.95	214.76
955.25	214.78
955.55	214.77
955.84	214.75
956.14	214.72
956.44	214.75
956.73	214.76
957.03	214.78
957.32	214.77
957.62	214.77
957.92	214.82
958.21	214.77
958.51	215.00
958.81	215.04
959.10	215.04
959.40	215.08
959.69	215.10
959.99	215.14
960.29	215.16
960.58	215.15
960.88	215.20
961.17	215.16
961.47	215.17
961.76	215.16
962.06	215.18
962.36	215.20
962.65	215.19
962.95	215.19
963.24	215.17
963.54	215.18
963.83	215.19
964.13	215.13
964.42	215.06
964.72	214.85
965.01	214.85
965.31	214.82
965.60	214.77
965.90	214.88
966.19	214.82
966.49	214.84
966.78	214.85
967.08	214.86
967.37	214.87
967.67	214.81
967.96	214.84
968.26	214.84
968.55	214.88
968.85	214.87
969.14	214.88
969.43	214.90
969.73	214.86
970.02	214.84
970.32	214.83
970.61	214.84
970.91	214.81
971.20	214.79
971.49	214.79
971.79	214.79
972.08	214.62
972.38	214.65
972.67	214.61
972.96	214.63
973.26	214.59
973.55	214.64
973.85	214.64
974.14	214.59
974.43	214.62
974.73	214.57
975.02	214.56
975.31	214.54
975.61	214.53
975.90	214.55
976.19	214.53
976.49	214.56
976.78	214.57
977.07	214.61
977.37	214.64
977.66	214.65
977.95	214.61
978.24	214.65
978.54	214.68
978.83	214.68
979.12	214.66
979.42	214.65
979.71	214.62
980.00	214.62
980.29	214.62
980.59	214.55
980.88	214.62
981.17	214.60
981.46	214.58
981.76	214.60
982.05	214.64
982.34	214.65
982.63	214.66
982.93	214.67
983.22	214.69
983.51	214.70
983.80	214.75
984.09	214.78
984.39	214.78
984.68	214.76
984.97	214.76
985.26	214.74
985.55	214.76
985.85	214.74
986.14	214.77
986.43	214.83
986.72	214.85
987.01	214.81
987.30	214.84
987.59	214.85
987.89	214.81
988.18	214.74
988.47	214.73
988.76	214.71
989.05	214.73
989.34	214.68
989.63	214.73
989.92	214.67
990.22	214.66
990.51	214.66
990.80	214.64
991.09	214.69
991.38	214.73
991.67	214.72
991.96	214.70
992.25	214.68
992.54	214.63
992.83	214.62
993.12	214.61
993.41	214.62
993.70	214.70
993.99	214.75
994.28	214.75
994.58	214.78
994.87	214.75
995.16	214.71
995.45	214.71
995.74	214.63
996.03	214.70
996.32	214.75
996.61	214.77
996.90	214.77
997.19	214.74
997.48	214.76
997.77	214.75
998.06	214.76
998.34	214.78
998.63	214.78
998.92	214.76
999.21	214.75
999.50	214.74
999.79	214.67
1000.08	214.68
1000.37	214.68
1000.66	214.63
1000.95	214.70
1001.24	214.72
1001.53	214.77
1001.82	214.75
1002.11	214.67
1002.40	214.67
1002.68	214.70
1002.97	214.83
1003.26	214.80
1003.55	214.77
1003.84	214.78
1004.13	214.83
1004.42	214.80
1004.71	214.78
1004.99	214.80
1005.28	214.86
1005.57	214.84
1005.86	214.81
1006.15	214.79
1006.44	214.82
1006.72	214.83
1007.01	214.81
1007.30	214.81
1007.59	214.74
1007.88	214.74
1008.17	214.76
1008.45	214.71
1008.74	214.62
1009.03	214.52
1009.32	214.54
1009.60	214.52
1009.89	214.51
1010.18	214.40
1010.47	214.40
1010.76	214.38
1011.04	214.36
1011.33	214.38
1011.62	214.40
1011.91	214.44
1012.19	214.46
1012.48	214.40
1012.77	214.44
1013.05	214.53
1013.34	214.52
1013.63	214.52
1013.92	214.54
1014.20	214.56
1014.49	214.58
1014.78	214.64
1015.06	214.61
1015.35	214.62
1015.64	214.64
1015.92	214.65
1016.21	214.68
1016.50	214.68
1016.78	214.74
1017.07	214.77
1017.36	214.71
1017.64	214.70
1017.93	214.72
1018.22	214.69
1018.50	214.71
1018.79	214.69
1019.08	214.58
1019.36	214.54
1019.65	214.54
1019.93	214.59
1020.22	214.62
1020.51	214.73
1020.79	214.69
1021.08	214.25
1021.36	214.23
1021.65	214.76
1021.94	214.28
1022.22	213.93
1022.51	214.09
1022.79	215.78
1023.08	215.11
1023.36	217.49
1023.65	214.08
>>>>>End Processed Spectral Data<<<<<
