SpectraSuite Data File
++++++++++++++++++++++++++++++++++++
Date: Tue Jan 29 16:24:40 EST 2013
User: group
Dark Spectrum Present: No
Reference Spectrum Present: No
Number of Sampled Component Spectra: 1
Spectrometers: USB2E7196
Integration Time (usec): 65000 (USB2E7196)
Spectra Averaged: 100 (USB2E7196)
Boxcar Smoothing: 10 (USB2E7196)
Correct for Electrical Dark: No (USB2E7196)
Strobe/Lamp Enabled: No (USB2E7196)
Correct for Detector Non-linearity: No (USB2E7196)
Correct for Stray Light: No (USB2E7196)
Number of Pixels in Processed Spectrum: 2048
>>>>>Begin Processed Spectral Data<<<<<
339.09	0.00
339.48	202.47
339.86	203.91
340.24	204.71
340.63	206.85
341.01	211.13
341.39	209.49
341.78	211.11
342.16	212.19
342.54	212.89
342.93	201.60
343.31	211.79
343.69	212.34
344.07	212.80
344.46	213.25
344.84	213.64
345.22	213.83
345.60	214.11
345.99	214.30
346.37	214.46
346.75	214.57
347.13	214.63
347.52	214.68
347.90	214.81
348.28	214.87
348.66	214.92
349.05	214.93
349.43	214.98
349.81	215.05
350.19	215.12
350.57	215.22
350.96	215.33
351.34	215.42
351.72	215.49
352.10	215.63
352.48	215.74
352.87	215.77
353.25	215.82
353.63	215.86
354.01	215.90
354.39	215.95
354.77	216.01
355.15	216.16
355.54	216.20
355.92	216.22
356.30	216.31
356.68	216.50
357.06	216.59
357.44	216.60
357.82	216.64
358.20	216.71
358.58	216.73
358.97	216.78
359.35	216.88
359.73	216.99
360.11	217.02
360.49	217.04
360.87	217.12
361.25	217.19
361.63	217.29
362.01	217.35
362.39	217.39
362.77	217.46
363.15	217.49
363.53	217.53
363.91	217.54
364.29	217.55
364.67	217.40
365.05	217.43
365.43	217.46
365.81	217.48
366.19	217.58
366.57	217.67
366.95	217.66
367.33	217.60
367.71	217.60
368.09	217.62
368.47	217.64
368.85	217.59
369.23	217.61
369.61	217.53
369.99	217.58
370.37	217.58
370.75	217.64
371.13	217.56
371.51	217.53
371.89	217.53
372.27	217.50
372.65	217.48
373.03	217.42
373.41	217.41
373.78	217.38
374.16	217.22
374.54	217.14
374.92	217.10
375.30	217.09
375.68	217.02
376.06	217.00
376.44	216.92
376.82	216.90
377.19	216.84
377.57	216.80
377.95	216.70
378.33	216.64
378.71	216.47
379.09	216.45
379.47	216.42
379.84	216.36
380.22	216.30
380.60	216.21
380.98	216.14
381.36	216.08
381.73	216.02
382.11	216.03
382.49	215.97
382.87	215.87
383.25	215.82
383.62	216.00
384.00	215.92
384.38	215.92
384.76	215.92
385.13	215.95
385.51	215.95
385.89	215.89
386.27	215.85
386.64	215.85
387.02	215.81
387.40	215.76
387.78	215.75
388.15	215.75
388.53	215.76
388.91	215.75
389.29	215.71
389.66	215.73
390.04	215.68
390.42	215.71
390.79	215.74
391.17	215.70
391.55	215.46
391.92	215.43
392.30	215.47
392.68	215.43
393.05	215.43
393.43	215.41
393.81	215.44
394.18	215.42
394.56	215.44
394.94	215.51
395.31	215.50
395.69	215.57
396.06	215.59
396.44	215.61
396.82	215.63
397.19	215.76
397.57	215.72
397.95	215.78
398.32	215.75
398.70	215.83
399.07	215.92
399.45	215.96
399.82	216.00
400.20	215.98
400.58	216.04
400.95	216.01
401.33	216.13
401.70	216.35
402.08	216.46
402.45	216.55
402.83	216.63
403.20	216.77
403.58	216.85
403.95	217.00
404.33	217.20
404.71	217.35
405.08	217.64
405.46	217.82
405.83	218.01
406.21	218.22
406.58	218.41
406.96	218.64
407.33	218.90
407.70	219.23
408.08	219.71
408.45	220.07
408.83	220.44
409.20	220.81
409.58	221.06
409.95	221.52
410.33	222.01
410.70	222.48
411.08	223.01
411.45	223.54
411.82	224.09
412.20	224.71
412.57	225.53
412.95	226.07
413.32	226.91
413.69	227.75
414.07	228.69
414.44	229.69
414.82	230.73
415.19	231.90
415.56	233.05
415.94	234.25
416.31	235.66
416.68	237.05
417.06	238.63
417.43	240.17
417.81	241.91
418.18	243.69
418.55	245.61
418.93	247.64
419.30	249.75
419.67	251.99
420.04	254.28
420.42	256.66
420.79	259.47
421.16	262.21
421.54	265.11
421.91	268.02
422.28	271.12
422.66	274.36
423.03	277.61
423.40	280.96
423.77	284.57
424.15	288.19
424.52	292.00
424.89	296.15
425.26	300.17
425.64	304.01
426.01	308.24
426.38	312.67
426.75	317.19
427.13	321.92
427.50	326.89
427.87	332.09
428.24	337.22
428.61	342.18
428.99	347.70
429.36	353.69
429.73	359.60
430.10	365.41
430.47	371.51
430.85	377.73
431.22	384.37
431.59	391.41
431.96	398.19
432.33	405.65
432.70	412.87
433.08	421.38
433.45	429.42
433.82	437.43
434.19	446.30
434.56	454.87
434.93	463.14
435.30	471.38
435.68	480.47
436.05	489.50
436.42	498.36
436.79	506.43
437.16	515.14
437.53	524.34
437.90	533.41
438.27	542.22
438.64	551.42
439.01	559.99
439.38	567.51
439.75	574.82
440.13	583.20
440.50	591.10
440.87	597.53
441.24	604.10
441.61	611.43
441.98	616.77
442.35	623.14
442.72	629.39
443.09	635.38
443.46	639.03
443.83	641.48
444.20	643.71
444.57	646.83
444.94	648.29
445.31	649.74
445.68	651.18
446.05	651.80
446.42	650.97
446.79	649.92
447.16	648.79
447.53	647.98
447.90	644.60
448.27	641.32
448.64	636.66
449.01	633.38
449.37	627.46
449.74	621.79
450.11	614.89
450.48	607.57
450.85	600.13
451.22	593.69
451.59	587.58
451.96	581.67
452.33	573.84
452.70	566.76
453.07	558.22
453.43	549.66
453.80	541.40
454.17	533.52
454.54	526.04
454.91	517.95
455.28	510.04
455.65	502.70
456.02	495.23
456.38	488.89
456.75	481.05
457.12	474.51
457.49	468.04
457.86	461.95
458.23	456.61
458.59	450.77
458.96	444.81
459.33	439.55
459.70	434.29
460.07	430.11
460.43	425.24
460.80	420.75
461.17	416.76
461.54	412.61
461.91	408.62
462.27	404.55
462.64	401.13
463.01	397.36
463.38	393.73
463.74	390.10
464.11	386.90
464.48	384.07
464.85	380.98
465.21	378.56
465.58	375.94
465.95	372.79
466.32	370.12
466.68	367.51
467.05	364.92
467.42	362.38
467.78	359.71
468.15	357.21
468.52	355.30
468.88	352.81
469.25	350.64
469.62	348.87
469.98	346.91
470.35	345.11
470.72	343.45
471.08	341.64
471.45	340.15
471.82	338.67
472.18	336.99
472.55	335.82
472.92	334.43
473.28	333.21
473.65	332.12
474.02	331.04
474.38	330.20
474.75	329.47
475.11	328.66
475.48	328.08
475.85	327.58
476.21	327.09
476.58	326.76
476.94	326.55
477.31	326.22
477.67	326.05
478.04	325.89
478.41	325.93
478.77	326.06
479.14	326.00
479.50	326.10
479.87	326.39
480.23	326.71
480.60	326.99
480.96	327.30
481.33	327.90
481.69	328.48
482.06	329.01
482.42	329.48
482.79	330.05
483.15	330.86
483.52	331.82
483.88	332.72
484.25	333.67
484.61	334.70
484.98	335.74
485.34	336.99
485.71	338.41
486.07	339.81
486.44	341.18
486.80	342.78
487.17	344.52
487.53	346.33
487.90	348.19
488.26	350.24
488.62	352.38
488.99	354.38
489.35	356.60
489.72	358.96
490.08	361.51
490.44	364.10
490.81	366.78
491.17	369.45
491.54	372.47
491.90	375.46
492.26	378.73
492.63	382.15
492.99	385.65
493.36	389.27
493.72	393.13
494.08	397.16
494.45	401.38
494.81	405.73
495.17	410.21
495.54	414.90
495.90	419.71
496.26	424.68
496.63	429.98
496.99	435.37
497.35	441.00
497.72	446.79
498.08	452.72
498.44	458.90
498.80	465.40
499.17	471.94
499.53	478.74
499.89	485.66
500.26	492.69
500.62	499.83
500.98	507.38
501.34	514.88
501.71	522.73
502.07	530.62
502.43	538.66
502.79	546.92
503.16	555.42
503.52	564.07
503.88	572.86
504.24	581.92
504.60	591.02
504.97	600.31
505.33	609.70
505.69	619.57
506.05	629.53
506.41	639.45
506.78	649.51
507.14	659.86
507.50	670.36
507.86	681.19
508.22	692.04
508.59	702.77
508.95	713.98
509.31	725.37
509.67	736.90
510.03	748.35
510.39	760.24
510.75	772.17
511.12	784.25
511.48	796.39
511.84	808.69
512.20	821.10
512.56	833.84
512.92	846.72
513.28	859.56
513.64	872.45
514.00	885.41
514.37	898.58
514.73	911.76
515.09	924.81
515.45	937.81
515.81	951.00
516.17	964.43
516.53	977.69
516.89	990.88
517.25	1004.14
517.61	1017.86
517.97	1031.27
518.33	1044.60
518.69	1058.22
519.05	1072.01
519.41	1085.75
519.77	1099.76
520.13	1113.21
520.49	1126.48
520.85	1140.04
521.21	1153.37
521.57	1167.18
521.93	1180.29
522.29	1194.13
522.65	1208.00
523.01	1221.65
523.37	1234.93
523.73	1248.47
524.09	1261.85
524.45	1275.30
524.81	1288.94
525.17	1302.46
525.53	1315.75
525.89	1329.15
526.25	1342.37
526.61	1355.37
526.97	1368.57
527.33	1381.73
527.68	1395.28
528.04	1408.95
528.40	1422.20
528.76	1435.74
529.12	1448.70
529.48	1462.07
529.84	1474.41
530.20	1487.18
530.56	1499.88
530.91	1513.24
531.27	1526.14
531.63	1538.89
531.99	1551.77
532.35	1564.14
532.71	1576.55
533.07	1589.54
533.42	1601.96
533.78	1614.19
534.14	1626.39
534.50	1637.76
534.86	1649.30
535.21	1660.22
535.57	1671.80
535.93	1683.11
536.29	1694.27
536.65	1705.86
537.00	1717.00
537.36	1728.53
537.72	1739.56
538.08	1751.13
538.44	1762.18
538.79	1773.30
539.15	1784.39
539.51	1795.30
539.87	1806.68
540.22	1817.59
540.58	1828.68
540.94	1839.54
541.29	1849.89
541.65	1859.75
542.01	1870.32
542.37	1880.45
542.72	1890.72
543.08	1900.55
543.44	1911.12
543.79	1920.46
544.15	1929.95
544.51	1939.96
544.87	1949.88
545.22	1959.29
545.58	1968.22
545.94	1977.25
546.29	1985.83
546.65	1994.27
547.01	2002.46
547.36	2010.19
547.72	2017.89
548.07	2025.47
548.43	2033.23
548.79	2041.10
549.14	2049.25
549.50	2057.83
549.86	2065.92
550.21	2073.42
550.57	2081.16
550.92	2087.98
551.28	2095.59
551.64	2102.88
551.99	2110.44
552.35	2117.74
552.70	2124.70
553.06	2131.51
553.41	2137.76
553.77	2144.30
554.13	2150.65
554.48	2157.80
554.84	2164.89
555.19	2171.62
555.55	2178.07
555.90	2184.44
556.26	2191.50
556.61	2197.72
556.97	2202.48
557.32	2208.29
557.68	2214.79
558.03	2220.67
558.39	2226.04
558.74	2232.14
559.10	2237.66
559.45	2243.33
559.81	2248.77
560.16	2254.26
560.52	2260.08
560.87	2266.48
561.23	2272.52
561.58	2279.27
561.94	2284.46
562.29	2289.25
562.64	2295.44
563.00	2301.21
563.35	2306.77
563.71	2312.37
564.06	2318.08
564.42	2324.10
564.77	2329.12
565.12	2334.58
565.48	2339.57
565.83	2345.13
566.19	2350.46
566.54	2356.07
566.89	2360.82
567.25	2365.62
567.60	2371.41
567.96	2376.66
568.31	2381.34
568.66	2385.65
569.02	2389.53
569.37	2393.56
569.72	2398.06
570.08	2401.60
570.43	2404.78
570.78	2407.97
571.14	2410.55
571.49	2413.78
571.84	2417.47
572.20	2420.67
572.55	2423.51
572.90	2425.95
573.26	2428.93
573.61	2431.53
573.96	2433.65
574.31	2435.54
574.67	2437.46
575.02	2438.29
575.37	2439.77
575.72	2440.57
576.08	2442.09
576.43	2442.41
576.78	2442.79
577.13	2444.37
577.49	2445.60
577.84	2446.66
578.19	2448.00
578.54	2448.79
578.90	2449.44
579.25	2449.40
579.60	2449.31
579.95	2448.66
580.30	2448.87
580.66	2448.27
581.01	2446.82
581.36	2444.59
581.71	2443.42
582.06	2442.16
582.42	2441.30
582.77	2439.27
583.12	2437.58
583.47	2436.19
583.82	2435.62
584.17	2434.34
584.53	2432.31
584.88	2430.21
585.23	2428.37
585.58	2426.12
585.93	2424.04
586.28	2421.91
586.63	2419.53
586.98	2417.30
587.34	2415.38
587.69	2412.82
588.04	2410.77
588.39	2409.22
588.74	2406.71
589.09	2403.91
589.44	2400.93
589.79	2398.40
590.14	2396.27
590.49	2393.54
590.84	2389.75
591.19	2386.75
591.54	2383.60
591.89	2379.62
592.25	2376.34
592.60	2372.20
592.95	2368.13
593.30	2364.00
593.65	2359.62
594.00	2355.06
594.35	2352.07
594.70	2347.40
595.05	2342.95
595.40	2337.39
595.75	2331.63
596.10	2328.11
596.45	2323.31
596.80	2318.78
597.15	2313.68
597.50	2307.81
597.85	2302.85
598.19	2297.76
598.54	2291.89
598.89	2286.56
599.24	2281.95
599.59	2275.97
599.94	2270.14
600.29	2264.07
600.64	2258.05
600.99	2251.28
601.34	2245.87
601.69	2238.83
602.04	2232.40
602.39	2225.66
602.74	2219.52
603.08	2213.96
603.43	2207.32
603.78	2200.44
604.13	2193.23
604.48	2185.85
604.83	2179.55
605.18	2173.23
605.53	2166.22
605.87	2159.12
606.22	2152.35
606.57	2144.28
606.92	2136.05
607.27	2128.88
607.62	2122.33
607.96	2115.42
608.31	2108.97
608.66	2101.13
609.01	2093.44
609.36	2086.31
609.70	2078.65
610.05	2070.86
610.40	2062.41
610.75	2053.97
611.10	2046.13
611.44	2037.14
611.79	2028.49
612.14	2018.60
612.49	2007.94
612.83	1998.42
613.18	1989.10
613.53	1979.69
613.88	1970.11
614.22	1961.56
614.57	1951.80
614.92	1941.10
615.27	1930.60
615.61	1920.31
615.96	1910.60
616.31	1900.97
616.65	1891.33
617.00	1881.48
617.35	1871.79
617.70	1862.04
618.04	1852.05
618.39	1841.88
618.74	1832.19
619.08	1822.38
619.43	1813.58
619.78	1805.17
620.12	1796.51
620.47	1786.83
620.82	1776.46
621.16	1766.58
621.51	1756.58
621.85	1746.60
622.20	1736.18
622.55	1725.56
622.89	1715.46
623.24	1705.54
623.59	1695.56
623.93	1685.34
624.28	1675.47
624.62	1665.10
624.97	1654.70
625.32	1644.54
625.66	1635.37
626.01	1626.44
626.35	1616.93
626.70	1606.79
627.04	1596.68
627.39	1586.49
627.73	1577.05
628.08	1567.96
628.43	1558.32
628.77	1548.88
629.12	1539.78
629.46	1531.79
629.81	1523.49
630.15	1514.00
630.50	1504.14
630.84	1493.48
631.19	1483.47
631.53	1474.14
631.88	1463.94
632.22	1453.84
632.57	1444.46
632.91	1434.34
633.26	1424.33
633.60	1414.76
633.95	1405.34
634.29	1395.70
634.64	1386.17
634.98	1376.04
635.32	1366.76
635.67	1358.19
636.01	1348.84
636.36	1339.12
636.70	1329.47
637.05	1319.95
637.39	1310.88
637.73	1302.18
638.08	1294.58
638.42	1286.44
638.77	1277.52
639.11	1269.16
639.45	1261.27
639.80	1252.77
640.14	1243.90
640.49	1234.97
640.83	1225.96
641.17	1217.60
641.52	1209.32
641.86	1200.71
642.20	1192.82
642.55	1184.02
642.89	1174.98
643.23	1166.29
643.58	1158.12
643.92	1149.03
644.26	1140.11
644.61	1131.58
644.95	1122.64
645.29	1113.36
645.64	1103.97
645.98	1095.25
646.32	1087.31
646.66	1078.64
647.01	1070.12
647.35	1061.94
647.69	1053.65
648.04	1045.37
648.38	1036.49
648.72	1027.64
649.06	1019.07
649.41	1010.78
649.75	1002.62
650.09	994.60
650.43	986.43
650.78	977.87
651.12	970.06
651.46	962.66
651.80	955.35
652.14	947.97
652.49	940.25
652.83	932.87
653.17	925.13
653.51	917.34
653.85	910.00
654.20	902.71
654.54	895.11
654.88	887.69
655.22	880.32
655.56	873.20
655.90	866.34
656.25	859.66
656.59	852.66
656.93	845.65
657.27	838.45
657.61	831.35
657.95	825.24
658.29	819.18
658.64	812.87
658.98	806.22
659.32	799.55
659.66	793.31
660.00	786.86
660.34	780.74
660.68	774.51
661.02	768.14
661.36	762.07
661.70	756.19
662.05	750.45
662.39	744.85
662.73	739.40
663.07	733.93
663.41	728.22
663.75	722.37
664.09	716.61
664.43	711.06
664.77	705.66
665.11	699.77
665.45	693.74
665.79	687.93
666.13	682.23
666.47	676.70
666.81	671.16
667.15	665.76
667.49	660.45
667.83	655.17
668.17	649.80
668.51	644.61
668.85	639.56
669.19	634.57
669.53	629.48
669.87	624.26
670.21	619.43
670.55	614.65
670.89	610.14
671.23	605.72
671.57	601.35
671.91	597.02
672.25	592.79
672.58	588.66
672.92	584.58
673.26	580.60
673.60	576.70
673.94	572.83
674.28	569.12
674.62	565.32
674.96	561.49
675.30	557.98
675.64	554.24
675.97	550.72
676.31	547.08
676.65	543.46
676.99	540.03
677.33	536.15
677.67	532.41
678.01	528.53
678.34	524.89
678.68	521.33
679.02	517.68
679.36	513.99
679.70	510.31
680.04	506.64
680.37	503.08
680.71	499.65
681.05	496.40
681.39	493.09
681.73	489.88
682.06	486.83
682.40	483.72
682.74	480.50
683.08	477.23
683.42	474.04
683.75	470.98
684.09	467.88
684.43	464.95
684.77	462.01
685.10	459.15
685.44	456.18
685.78	453.22
686.12	450.38
686.45	447.54
686.79	444.85
687.13	442.29
687.46	439.70
687.80	437.01
688.14	434.20
688.48	431.55
688.81	428.82
689.15	426.17
689.49	423.43
689.82	420.86
690.16	418.24
690.50	415.72
690.83	413.20
691.17	410.63
691.51	408.18
691.84	405.86
692.18	403.59
692.52	401.32
692.85	399.13
693.19	396.99
693.52	394.82
693.86	392.57
694.20	390.30
694.53	388.07
694.87	385.83
695.21	383.66
695.54	381.45
695.88	379.24
696.21	377.01
696.55	374.94
696.88	372.86
697.22	370.81
697.56	368.87
697.89	366.92
698.23	365.21
698.56	363.41
698.90	361.59
699.23	359.68
699.57	357.80
699.90	355.94
700.24	354.11
700.58	352.34
700.91	350.66
701.25	349.09
701.58	347.51
701.92	345.89
702.25	344.26
702.59	342.60
702.92	341.07
703.26	339.49
703.59	337.92
703.93	336.63
704.26	335.22
704.60	333.72
704.93	332.26
705.26	330.65
705.60	329.14
705.93	327.64
706.27	326.24
706.60	324.96
706.94	323.70
707.27	322.26
707.61	320.90
707.94	319.56
708.27	318.05
708.61	316.55
708.94	315.19
709.28	313.86
709.61	312.61
709.94	311.37
710.28	310.19
710.61	309.01
710.95	307.59
711.28	306.49
711.61	305.32
711.95	304.16
712.28	302.94
712.61	301.70
712.95	300.62
713.28	299.56
713.61	298.38
713.95	297.24
714.28	296.16
714.61	295.09
714.95	294.04
715.28	293.01
715.61	292.01
715.95	291.01
716.28	290.06
716.61	289.13
716.95	288.13
717.28	287.16
717.61	286.18
717.94	285.28
718.28	284.19
718.61	283.31
718.94	282.39
719.27	281.53
719.61	280.74
719.94	279.88
720.27	278.92
720.60	278.07
720.94	277.22
721.27	276.49
721.60	275.78
721.93	275.08
722.27	274.40
722.60	273.71
722.93	272.99
723.26	272.31
723.59	271.54
723.93	270.88
724.26	270.24
724.59	269.59
724.92	268.96
725.25	268.43
725.59	267.80
725.92	267.23
726.25	266.70
726.58	266.11
726.91	265.51
727.24	264.96
727.57	264.42
727.91	263.82
728.24	263.24
728.57	262.66
728.90	262.05
729.23	261.45
729.56	261.01
729.89	260.46
730.22	259.86
730.55	259.36
730.89	258.82
731.22	258.28
731.55	257.79
731.88	257.28
732.21	256.71
732.54	256.19
732.87	255.69
733.20	255.20
733.53	254.72
733.86	254.27
734.19	253.77
734.52	253.31
734.85	253.00
735.18	252.54
735.51	252.14
735.84	251.73
736.17	251.33
736.50	250.80
736.83	250.62
737.16	250.24
737.49	249.85
737.82	249.45
738.15	249.09
738.48	248.69
738.81	248.27
739.14	247.88
739.47	247.49
739.80	247.09
740.13	246.72
740.46	246.35
740.79	245.95
741.12	245.61
741.45	245.26
741.78	244.82
742.11	244.54
742.44	244.15
742.77	243.85
743.10	243.48
743.43	243.07
743.75	242.50
744.08	242.42
744.41	242.02
744.74	241.68
745.07	241.26
745.40	240.92
745.73	240.66
746.06	240.33
746.39	239.99
746.71	239.65
747.04	239.30
747.37	238.97
747.70	238.65
748.03	238.32
748.36	238.05
748.68	237.75
749.01	237.38
749.34	237.09
749.67	236.79
750.00	236.57
750.33	236.47
750.65	236.27
750.98	235.75
751.31	235.55
751.64	235.34
751.97	235.24
752.29	235.01
752.62	234.70
752.95	234.44
753.28	234.17
753.60	233.92
753.93	233.77
754.26	233.55
754.59	233.33
754.91	233.11
755.24	232.87
755.57	232.65
755.90	232.42
756.22	232.20
756.55	231.94
756.88	231.68
757.20	231.36
757.53	231.08
757.86	230.87
758.19	230.68
758.51	230.43
758.84	230.11
759.17	229.91
759.49	229.72
759.82	229.66
760.15	229.53
760.47	229.33
760.80	229.06
761.13	228.91
761.45	228.69
761.78	228.53
762.11	228.35
762.43	228.15
762.76	227.95
763.08	227.78
763.41	227.69
763.74	227.53
764.06	227.36
764.39	227.21
764.71	227.03
765.04	226.84
765.37	226.73
765.69	226.55
766.02	226.39
766.34	226.24
766.67	226.02
767.00	225.89
767.32	225.87
767.65	225.87
767.97	225.73
768.30	225.66
768.62	225.52
768.95	225.35
769.27	225.24
769.60	225.16
769.92	225.00
770.25	224.81
770.57	224.66
770.90	224.54
771.22	224.40
771.55	224.32
771.87	224.23
772.20	224.11
772.52	224.17
772.85	224.33
773.17	224.25
773.50	224.13
773.82	224.01
774.15	223.86
774.47	223.62
774.80	223.50
775.12	223.36
775.45	223.22
775.77	223.15
776.09	223.02
776.42	222.94
776.74	222.90
777.07	222.80
777.39	222.72
777.72	222.61
778.04	222.58
778.36	222.48
778.69	222.39
779.01	222.29
779.33	222.01
779.66	221.69
779.98	221.56
780.31	221.51
780.63	221.52
780.95	221.45
781.28	221.36
781.60	221.25
781.92	221.19
782.25	221.15
782.57	221.08
782.89	221.04
783.22	220.92
783.54	220.83
783.86	220.77
784.19	220.69
784.51	220.70
784.83	220.56
785.16	220.48
785.48	220.40
785.80	220.34
786.12	220.33
786.45	220.28
786.77	220.26
787.09	220.20
787.42	220.05
787.74	220.00
788.06	219.96
788.38	219.92
788.71	219.81
789.03	219.76
789.35	219.74
789.67	219.69
789.99	219.67
790.32	219.60
790.64	219.59
790.96	219.71
791.28	219.60
791.61	219.56
791.93	219.50
792.25	219.47
792.57	219.58
792.89	219.47
793.21	219.45
793.54	219.37
793.86	219.28
794.18	219.27
794.50	219.16
794.82	219.13
795.14	219.11
795.47	219.11
795.79	219.06
796.11	218.96
796.43	218.87
796.75	218.82
797.07	218.81
797.39	218.73
797.71	218.53
798.04	218.50
798.36	218.46
798.68	218.47
799.00	218.44
799.32	218.30
799.64	218.32
799.96	218.29
800.28	218.30
800.60	218.24
800.92	218.20
801.24	218.18
801.56	218.16
801.89	218.11
802.21	218.08
802.53	218.02
802.85	218.08
803.17	218.17
803.49	218.10
803.81	218.02
804.13	217.98
804.45	217.97
804.77	217.95
805.09	217.93
805.41	217.88
805.73	217.81
806.05	217.74
806.37	217.67
806.69	217.59
807.01	217.54
807.33	217.54
807.65	217.46
807.97	217.54
808.28	217.51
808.60	217.48
808.92	217.46
809.24	217.56
809.56	217.49
809.88	217.39
810.20	217.36
810.52	217.38
810.84	217.31
811.16	217.24
811.48	217.19
811.80	217.23
812.12	217.17
812.43	217.19
812.75	217.16
813.07	217.15
813.39	217.13
813.71	217.10
814.03	217.07
814.35	217.04
814.67	216.89
814.98	216.85
815.30	216.83
815.62	216.76
815.94	216.61
816.26	216.58
816.58	216.53
816.89	216.50
817.21	216.46
817.53	216.48
817.85	216.46
818.17	216.42
818.48	216.33
818.80	216.38
819.12	216.33
819.44	216.28
819.76	216.23
820.07	216.22
820.39	216.19
820.71	216.16
821.03	216.17
821.34	216.14
821.66	216.16
821.98	216.17
822.30	216.14
822.61	216.23
822.93	216.20
823.25	216.19
823.57	216.18
823.88	216.21
824.20	216.16
824.52	216.21
824.83	216.21
825.15	216.16
825.47	216.11
825.79	216.10
826.10	216.07
826.42	216.07
826.74	216.10
827.05	216.11
827.37	216.14
827.69	216.08
828.00	216.08
828.32	216.04
828.64	215.99
828.95	216.11
829.27	216.04
829.58	216.04
829.90	216.06
830.22	216.08
830.53	216.05
830.85	216.03
831.17	215.95
831.48	215.98
831.80	215.96
832.11	215.97
832.43	215.94
832.75	215.95
833.06	216.05
833.38	215.95
833.69	215.91
834.01	215.90
834.32	215.90
834.64	215.90
834.96	215.91
835.27	215.91
835.59	215.82
835.90	215.77
836.22	215.75
836.53	215.70
836.85	215.66
837.16	215.83
837.48	215.86
837.79	215.90
838.11	215.88
838.42	215.91
838.74	215.94
839.05	215.92
839.37	215.89
839.68	215.76
840.00	215.75
840.31	215.80
840.63	215.77
840.94	215.75
841.26	215.72
841.57	215.72
841.88	215.73
842.20	215.71
842.51	215.67
842.83	215.66
843.14	215.84
843.46	215.83
843.77	215.70
844.08	215.65
844.40	215.59
844.71	215.59
845.03	215.55
845.34	215.50
845.65	215.50
845.97	215.50
846.28	215.48
846.60	215.49
846.91	215.44
847.22	215.41
847.54	215.45
847.85	215.45
848.16	215.39
848.48	215.35
848.79	215.40
849.10	215.44
849.42	215.48
849.73	215.28
850.04	215.24
850.36	215.18
850.67	215.24
850.98	215.23
851.30	215.19
851.61	215.20
851.92	215.19
852.23	215.25
852.55	215.26
852.86	215.29
853.17	215.27
853.49	215.26
853.80	215.31
854.11	215.28
854.42	215.30
854.74	215.29
855.05	215.29
855.36	215.20
855.67	215.16
855.99	215.14
856.30	215.39
856.61	215.41
856.92	215.43
857.23	215.38
857.55	215.38
857.86	215.37
858.17	215.38
858.48	215.36
858.79	215.33
859.11	215.36
859.42	215.34
859.73	215.33
860.04	215.35
860.35	215.28
860.66	215.26
860.98	215.23
861.29	215.26
861.60	215.21
861.91	215.25
862.22	215.24
862.53	215.20
862.84	214.97
863.16	215.00
863.47	214.92
863.78	214.93
864.09	214.91
864.40	214.93
864.71	214.92
865.02	214.96
865.33	214.91
865.64	214.87
865.95	214.87
866.27	214.98
866.58	214.99
866.89	215.03
867.20	215.00
867.51	214.98
867.82	214.95
868.13	215.04
868.44	214.97
868.75	215.02
869.06	215.04
869.37	215.04
869.68	214.98
869.99	215.05
870.30	215.05
870.61	215.09
870.92	215.05
871.23	215.02
871.54	215.01
871.85	215.07
872.16	215.09
872.47	215.07
872.78	214.96
873.09	214.96
873.40	214.94
873.71	214.96
874.02	214.97
874.33	214.95
874.64	214.89
874.95	214.96
875.26	214.89
875.56	214.88
875.87	214.88
876.18	214.85
876.49	215.03
876.80	214.98
877.11	214.93
877.42	214.93
877.73	214.96
878.04	214.95
878.35	214.95
878.66	214.95
878.96	214.95
879.27	214.94
879.58	214.92
879.89	214.88
880.20	214.92
880.51	214.93
880.82	214.94
881.12	214.96
881.43	214.93
881.74	214.91
882.05	214.88
882.36	214.88
882.67	214.91
882.97	214.70
883.28	214.72
883.59	214.73
883.90	214.76
884.21	214.80
884.51	214.75
884.82	214.70
885.13	214.69
885.44	214.69
885.74	214.69
886.05	214.67
886.36	214.67
886.67	214.66
886.98	214.74
887.28	214.75
887.59	214.74
887.90	214.73
888.20	214.73
888.51	214.76
888.82	214.75
889.13	214.77
889.43	214.93
889.74	214.93
890.05	214.92
890.35	214.88
890.66	214.80
890.97	214.83
891.28	214.81
891.58	214.81
891.89	214.82
892.20	214.78
892.50	214.79
892.81	214.82
893.12	214.76
893.42	214.68
893.73	214.66
894.04	214.67
894.34	214.69
894.65	214.72
894.95	214.74
895.26	214.72
895.57	214.80
895.87	214.65
896.18	214.67
896.48	214.67
896.79	214.69
897.10	214.76
897.40	214.76
897.71	214.77
898.01	214.76
898.32	214.80
898.63	214.84
898.93	214.84
899.24	214.83
899.54	214.81
899.85	214.80
900.15	214.84
900.46	214.79
900.76	214.84
901.07	214.79
901.38	214.75
901.68	214.81
901.99	214.70
902.29	214.69
902.60	214.68
902.90	214.64
903.21	214.61
903.51	214.58
903.82	214.62
904.12	214.63
904.43	214.61
904.73	214.55
905.03	214.56
905.34	214.75
905.64	214.76
905.95	214.80
906.25	214.77
906.56	214.74
906.86	214.76
907.17	214.70
907.47	214.73
907.77	214.71
908.08	214.66
908.38	214.65
908.69	214.67
908.99	214.70
909.30	214.73
909.60	214.78
909.90	214.78
910.21	214.74
910.51	214.70
910.81	214.72
911.12	214.74
911.42	214.73
911.73	214.51
912.03	214.51
912.33	214.55
912.64	214.54
912.94	214.53
913.24	214.49
913.55	214.49
913.85	214.49
914.15	214.54
914.46	214.54
914.76	214.53
915.06	214.51
915.37	214.46
915.67	214.43
915.97	214.41
916.27	214.38
916.58	214.37
916.88	214.34
917.18	214.34
917.49	214.48
917.79	214.48
918.09	214.51
918.39	214.57
918.70	214.55
919.00	214.58
919.30	214.67
919.60	214.66
919.91	214.63
920.21	214.66
920.51	214.64
920.81	214.62
921.12	214.65
921.42	214.62
921.72	214.63
922.02	214.64
922.32	214.65
922.63	214.66
922.93	214.75
923.23	214.80
923.53	214.77
923.83	214.65
924.13	214.66
924.44	214.70
924.74	214.72
925.04	214.76
925.34	214.76
925.64	214.69
925.94	214.73
926.24	214.85
926.55	214.83
926.85	214.82
927.15	214.83
927.45	214.85
927.75	214.86
928.05	214.90
928.35	214.92
928.65	214.96
928.95	214.97
929.26	214.92
929.56	214.95
929.86	214.99
930.16	214.97
930.46	214.95
930.76	214.90
931.06	214.82
931.36	214.77
931.66	214.82
931.96	214.82
932.26	214.81
932.56	214.72
932.86	214.72
933.16	214.74
933.46	214.73
933.76	214.69
934.06	214.74
934.36	214.77
934.66	214.76
934.96	214.72
935.26	214.72
935.56	214.71
935.86	214.64
936.16	214.59
936.46	214.56
936.76	214.56
937.06	214.54
937.36	214.56
937.66	214.56
937.96	214.52
938.26	214.51
938.56	214.51
938.86	214.52
939.16	214.56
939.46	214.59
939.76	214.62
940.06	214.63
940.35	214.57
940.65	214.49
940.95	214.48
941.25	214.41
941.55	214.41
941.85	214.40
942.15	214.47
942.45	214.56
942.75	214.55
943.04	214.55
943.34	214.61
943.64	214.55
943.94	214.53
944.24	214.49
944.54	214.49
944.84	214.47
945.13	214.47
945.43	214.45
945.73	214.42
946.03	214.37
946.33	214.32
946.62	214.32
946.92	214.31
947.22	214.35
947.52	214.37
947.82	214.42
948.11	214.39
948.41	214.32
948.71	214.24
949.01	214.25
949.31	214.26
949.60	214.22
949.90	214.25
950.20	214.25
950.50	214.27
950.79	214.22
951.09	214.28
951.39	214.25
951.69	214.21
951.98	214.24
952.28	214.27
952.58	214.29
952.87	214.29
953.17	214.28
953.47	214.23
953.76	214.24
954.06	214.19
954.36	214.14
954.66	214.16
954.95	214.24
955.25	214.24
955.55	214.23
955.84	214.21
956.14	214.25
956.44	214.27
956.73	214.25
957.03	214.28
957.32	214.26
957.62	214.28
957.92	214.33
958.21	214.28
958.51	214.52
958.81	214.56
959.10	214.59
959.40	214.68
959.69	214.71
959.99	214.76
960.29	214.76
960.58	214.77
960.88	214.84
961.17	214.77
961.47	214.81
961.76	214.79
962.06	214.83
962.36	214.79
962.65	214.79
962.95	214.79
963.24	214.78
963.54	214.76
963.83	214.75
964.13	214.74
964.42	214.73
964.72	214.56
965.01	214.53
965.31	214.50
965.60	214.41
965.90	214.55
966.19	214.50
966.49	214.52
966.78	214.51
967.08	214.46
967.37	214.51
967.67	214.48
967.96	214.54
968.26	214.54
968.55	214.56
968.85	214.52
969.14	214.53
969.43	214.52
969.73	214.52
970.02	214.54
970.32	214.50
970.61	214.49
970.91	214.44
971.20	214.46
971.49	214.46
971.79	214.51
972.08	214.35
972.38	214.37
972.67	214.34
972.96	214.40
973.26	214.37
973.55	214.40
973.85	214.37
974.14	214.34
974.43	214.34
974.73	214.29
975.02	214.32
975.31	214.33
975.61	214.33
975.90	214.32
976.19	214.29
976.49	214.30
976.78	214.31
977.07	214.29
977.37	214.29
977.66	214.30
977.95	214.25
978.24	214.29
978.54	214.31
978.83	214.30
979.12	214.28
979.42	214.27
979.71	214.24
980.00	214.27
980.29	214.28
980.59	214.22
980.88	214.30
981.17	214.28
981.46	214.29
981.76	214.29
982.05	214.36
982.34	214.39
982.63	214.41
982.93	214.40
983.22	214.45
983.51	214.45
983.80	214.48
984.09	214.51
984.39	214.48
984.68	214.44
984.97	214.46
985.26	214.42
985.55	214.44
985.85	214.38
986.14	214.39
986.43	214.39
986.72	214.38
987.01	214.33
987.30	214.32
987.59	214.28
987.89	214.27
988.18	214.20
988.47	214.15
988.76	214.14
989.05	214.15
989.34	214.15
989.63	214.20
989.92	214.16
990.22	214.11
990.51	214.12
990.80	214.10
991.09	214.09
991.38	214.11
991.67	214.13
991.96	214.13
992.25	214.15
992.54	214.12
992.83	214.15
993.12	214.16
993.41	214.20
993.70	214.31
993.99	214.35
994.28	214.41
994.58	214.45
994.87	214.40
995.16	214.38
995.45	214.33
995.74	214.26
996.03	214.30
996.32	214.36
996.61	214.40
996.90	214.37
997.19	214.40
997.48	214.41
997.77	214.36
998.06	214.36
998.34	214.33
998.63	214.35
998.92	214.35
999.21	214.31
999.50	214.32
999.79	214.27
1000.08	214.30
1000.37	214.28
1000.66	214.30
1000.95	214.38
1001.24	214.40
1001.53	214.46
1001.82	214.46
1002.11	214.41
1002.40	214.44
1002.68	214.48
1002.97	214.67
1003.26	214.64
1003.55	214.63
1003.84	214.67
1004.13	214.74
1004.42	214.75
1004.71	214.74
1004.99	214.71
1005.28	214.80
1005.57	214.78
1005.86	214.70
1006.15	214.67
1006.44	214.63
1006.72	214.63
1007.01	214.58
1007.30	214.59
1007.59	214.57
1007.88	214.58
1008.17	214.59
1008.45	214.53
1008.74	214.44
1009.03	214.32
1009.32	214.29
1009.60	214.28
1009.89	214.23
1010.18	214.16
1010.47	214.17
1010.76	214.16
1011.04	214.16
1011.33	214.15
1011.62	214.16
1011.91	214.18
1012.19	214.20
1012.48	214.21
1012.77	214.20
1013.05	214.29
1013.34	214.27
1013.63	214.24
1013.92	214.26
1014.20	214.23
1014.49	214.25
1014.78	214.29
1015.06	214.25
1015.35	214.29
1015.64	214.33
1015.92	214.39
1016.21	214.37
1016.50	214.35
1016.78	214.41
1017.07	214.43
1017.36	214.37
1017.64	214.35
1017.93	214.37
1018.22	214.32
1018.50	214.29
1018.79	214.30
1019.08	214.15
1019.36	214.15
1019.65	214.14
1019.93	214.18
1020.22	214.22
1020.51	214.31
1020.79	214.26
1021.08	213.43
1021.36	213.50
1021.65	214.79
1021.94	212.87
1022.22	214.18
1022.51	213.97
1022.79	215.24
1023.08	214.62
1023.36	216.75
1023.65	213.20
>>>>>End Processed Spectral Data<<<<<
