SpectraSuite Data File
++++++++++++++++++++++++++++++++++++
Date: Tue Jan 29 16:42:30 EST 2013
User: group
Dark Spectrum Present: No
Reference Spectrum Present: No
Number of Sampled Component Spectra: 1
Spectrometers: USB2E7196
Integration Time (usec): 65000 (USB2E7196)
Spectra Averaged: 100 (USB2E7196)
Boxcar Smoothing: 10 (USB2E7196)
Correct for Electrical Dark: No (USB2E7196)
Strobe/Lamp Enabled: No (USB2E7196)
Correct for Detector Non-linearity: No (USB2E7196)
Correct for Stray Light: No (USB2E7196)
Number of Pixels in Processed Spectrum: 2048
>>>>>Begin Processed Spectral Data<<<<<
339.09	0.00
339.48	201.48
339.86	202.87
340.24	204.36
340.63	205.74
341.01	210.19
341.39	208.52
341.78	210.53
342.16	211.75
342.54	211.75
342.93	200.97
343.31	211.14
343.69	211.71
344.07	212.18
344.46	212.65
344.84	213.07
345.22	213.28
345.60	213.58
345.99	213.75
346.37	213.91
346.75	214.06
347.13	214.14
347.52	214.24
347.90	214.39
348.28	214.44
348.66	214.51
349.05	214.45
349.43	214.52
349.81	214.63
350.19	214.71
350.57	214.79
350.96	214.90
351.34	215.00
351.72	215.08
352.10	215.22
352.48	215.28
352.87	215.31
353.25	215.38
353.63	215.42
354.01	215.52
354.39	215.59
354.77	215.64
355.15	215.79
355.54	215.84
355.92	215.83
356.30	215.92
356.68	216.16
357.06	216.28
357.44	216.32
357.82	216.37
358.20	216.45
358.58	216.51
358.97	216.59
359.35	216.69
359.73	216.79
360.11	216.83
360.49	216.89
360.87	216.95
361.25	217.03
361.63	217.15
362.01	217.18
362.39	217.20
362.77	217.25
363.15	217.24
363.53	217.26
363.91	217.32
364.29	217.30
364.67	217.09
365.05	217.08
365.43	217.11
365.81	217.13
366.19	217.22
366.57	217.33
366.95	217.29
367.33	217.26
367.71	217.28
368.09	217.31
368.47	217.33
368.85	217.30
369.23	217.30
369.61	217.24
369.99	217.28
370.37	217.32
370.75	217.39
371.13	217.34
371.51	217.28
371.89	217.25
372.27	217.26
372.65	217.24
373.03	217.23
373.41	217.15
373.78	217.09
374.16	216.94
374.54	216.82
374.92	216.75
375.30	216.69
375.68	216.62
376.06	216.61
376.44	216.53
376.82	216.51
377.19	216.45
377.57	216.36
377.95	216.24
378.33	216.15
378.71	216.01
379.09	215.98
379.47	215.97
379.84	215.89
380.22	215.81
380.60	215.75
380.98	215.69
381.36	215.68
381.73	215.62
382.11	215.61
382.49	215.59
382.87	215.54
383.25	215.53
383.62	215.69
384.00	215.59
384.38	215.57
384.76	215.59
385.13	215.65
385.51	215.63
385.89	215.58
386.27	215.57
386.64	215.56
387.02	215.49
387.40	215.47
387.78	215.48
388.15	215.47
388.53	215.44
388.91	215.42
389.29	215.38
389.66	215.37
390.04	215.33
390.42	215.31
390.79	215.30
391.17	215.25
391.55	215.03
391.92	215.03
392.30	215.05
392.68	214.98
393.05	214.96
393.43	215.01
393.81	215.02
394.18	214.97
394.56	214.97
394.94	215.03
395.31	215.00
395.69	215.04
396.06	215.05
396.44	215.07
396.82	215.09
397.19	215.26
397.57	215.28
397.95	215.38
398.32	215.35
398.70	215.37
399.07	215.45
399.45	215.46
399.82	215.53
400.20	215.55
400.58	215.63
400.95	215.60
401.33	215.65
401.70	215.88
402.08	215.96
402.45	216.07
402.83	216.19
403.20	216.30
403.58	216.37
403.95	216.53
404.33	216.70
404.71	216.84
405.08	217.07
405.46	217.24
405.83	217.40
406.21	217.63
406.58	217.90
406.96	218.12
407.33	218.37
407.70	218.67
408.08	219.14
408.45	219.50
408.83	219.90
409.20	220.25
409.58	220.50
409.95	221.00
410.33	221.44
410.70	221.88
411.08	222.49
411.45	223.10
411.82	223.71
412.20	224.42
412.57	225.25
412.95	225.79
413.32	226.62
413.69	227.45
414.07	228.38
414.44	229.39
414.82	230.43
415.19	231.63
415.56	232.83
415.94	233.99
416.31	235.41
416.68	236.80
417.06	238.44
417.43	240.00
417.81	241.73
418.18	243.58
418.55	245.51
418.93	247.52
419.30	249.62
419.67	251.82
420.04	254.09
420.42	256.52
420.79	259.41
421.16	262.26
421.54	265.18
421.91	268.18
422.28	271.29
422.66	274.59
423.03	277.89
423.40	281.27
423.77	284.88
424.15	288.54
424.52	292.41
424.89	296.64
425.26	300.70
425.64	304.60
426.01	308.87
426.38	313.37
426.75	317.94
427.13	322.65
427.50	327.66
427.87	332.90
428.24	338.07
428.61	343.06
428.99	348.54
429.36	354.59
429.73	360.52
430.10	366.42
430.47	372.52
430.85	378.80
431.22	385.46
431.59	392.62
431.96	399.45
432.33	406.97
432.70	414.17
433.08	422.78
433.45	430.86
433.82	438.96
434.19	447.86
434.56	456.58
434.93	464.98
435.30	473.27
435.68	482.41
436.05	491.44
436.42	500.35
436.79	508.53
437.16	517.37
437.53	526.65
437.90	535.75
438.27	544.75
438.64	553.96
439.01	562.55
439.38	570.13
439.75	577.47
440.13	585.87
440.50	593.93
440.87	600.36
441.24	606.98
441.61	614.27
441.98	619.70
442.35	626.00
442.72	632.36
443.09	638.42
443.46	642.16
443.83	644.70
444.20	646.90
444.57	650.10
444.94	651.51
445.31	653.00
445.68	654.48
446.05	655.06
446.42	654.35
446.79	653.47
447.16	652.43
447.53	651.71
447.90	648.43
448.27	645.11
448.64	640.52
449.01	637.24
449.37	631.36
449.74	625.67
450.11	618.82
450.48	611.40
450.85	603.98
451.22	597.47
451.59	591.33
451.96	585.52
452.33	577.62
452.70	570.49
453.07	561.95
453.43	553.26
453.80	544.98
454.17	536.96
454.54	529.32
454.91	521.06
455.28	513.01
455.65	505.52
456.02	497.98
456.38	491.51
456.75	483.59
457.12	476.98
457.49	470.45
457.86	464.23
458.23	458.84
458.59	452.85
458.96	446.84
459.33	441.48
459.70	436.08
460.07	431.78
460.43	426.89
460.80	422.28
461.17	418.29
461.54	414.05
461.91	410.00
462.27	405.86
462.64	402.48
463.01	398.69
463.38	395.00
463.74	391.30
464.11	388.08
464.48	385.25
464.85	382.14
465.21	379.67
465.58	376.99
465.95	373.80
466.32	371.12
466.68	368.51
467.05	365.91
467.42	363.32
467.78	360.59
468.15	358.02
468.52	356.05
468.88	353.57
469.25	351.34
469.62	349.56
469.98	347.66
470.35	345.80
470.72	344.10
471.08	342.29
471.45	340.76
471.82	339.24
472.18	337.54
472.55	336.32
472.92	334.90
473.28	333.71
473.65	332.62
474.02	331.55
474.38	330.65
474.75	329.87
475.11	329.05
475.48	328.50
475.85	328.04
476.21	327.60
476.58	327.22
476.94	326.98
477.31	326.62
477.67	326.35
478.04	326.19
478.41	326.14
478.77	326.30
479.14	326.24
479.50	326.32
479.87	326.61
480.23	326.92
480.60	327.18
480.96	327.42
481.33	327.98
481.69	328.56
482.06	329.10
482.42	329.59
482.79	330.19
483.15	330.96
483.52	331.85
483.88	332.73
484.25	333.71
484.61	334.72
484.98	335.75
485.34	337.08
485.71	338.45
486.07	339.86
486.44	341.19
486.80	342.84
487.17	344.51
487.53	346.33
487.90	348.23
488.26	350.29
488.62	352.46
488.99	354.50
489.35	356.65
489.72	358.99
490.08	361.51
490.44	364.08
490.81	366.85
491.17	369.61
491.54	372.59
491.90	375.63
492.26	378.89
492.63	382.28
492.99	385.71
493.36	389.35
493.72	393.24
494.08	397.30
494.45	401.52
494.81	405.92
495.17	410.33
495.54	415.02
495.90	419.80
496.26	424.73
496.63	429.95
496.99	435.39
497.35	440.96
497.72	446.79
498.08	452.76
498.44	458.80
498.80	465.18
499.17	471.71
499.53	478.37
499.89	485.31
500.26	492.31
500.62	499.37
500.98	506.83
501.34	514.32
501.71	522.07
502.07	529.86
502.43	537.85
502.79	546.10
503.16	554.44
503.52	563.03
503.88	571.75
504.24	580.69
504.60	589.75
504.97	598.98
505.33	608.33
505.69	618.17
506.05	628.12
506.41	637.95
506.78	647.94
507.14	658.19
507.50	668.59
507.86	679.30
508.22	690.18
508.59	700.87
508.95	711.90
509.31	723.18
509.67	734.70
510.03	746.13
510.39	757.77
510.75	769.69
511.12	781.63
511.48	793.74
511.84	806.07
512.20	818.43
512.56	831.14
512.92	843.91
513.28	856.58
513.64	869.35
514.00	882.35
514.37	895.42
514.73	908.61
515.09	921.68
515.45	934.79
515.81	947.78
516.17	961.17
516.53	974.52
516.89	987.61
517.25	1000.83
517.61	1014.39
517.97	1027.81
518.33	1040.96
518.69	1054.65
519.05	1068.45
519.41	1082.20
519.77	1096.15
520.13	1109.47
520.49	1122.66
520.85	1136.16
521.21	1149.51
521.57	1163.22
521.93	1176.31
522.29	1190.11
522.65	1203.77
523.01	1217.40
523.37	1230.75
523.73	1244.22
524.09	1257.48
524.45	1271.00
524.81	1284.60
525.17	1298.02
525.53	1311.40
525.89	1324.93
526.25	1337.97
526.61	1350.86
526.97	1364.01
527.33	1377.03
527.68	1390.69
528.04	1404.29
528.40	1417.47
528.76	1430.92
529.12	1443.90
529.48	1457.32
529.84	1469.59
530.20	1482.49
530.56	1495.16
530.91	1508.50
531.27	1521.45
531.63	1534.30
531.99	1547.17
532.35	1559.35
532.71	1571.90
533.07	1584.86
533.42	1597.12
533.78	1609.52
534.14	1621.76
534.50	1633.12
534.86	1644.80
535.21	1655.67
535.57	1667.34
535.93	1678.69
536.29	1689.88
536.65	1701.46
537.00	1712.47
537.36	1724.00
537.72	1735.09
538.08	1746.55
538.44	1757.63
538.79	1768.78
539.15	1779.70
539.51	1790.61
539.87	1802.12
540.22	1813.04
540.58	1824.06
540.94	1835.07
541.29	1845.34
541.65	1855.04
542.01	1865.50
542.37	1875.71
542.72	1885.95
543.08	1895.78
543.44	1906.37
543.79	1915.72
544.15	1925.27
544.51	1935.39
544.87	1945.36
545.22	1954.58
545.58	1963.59
545.94	1972.43
546.29	1980.95
546.65	1989.50
547.01	1997.80
547.36	2005.50
547.72	2013.30
548.07	2020.82
548.43	2028.66
548.79	2036.59
549.14	2044.96
549.50	2053.54
549.86	2061.49
550.21	2069.06
550.57	2076.80
550.92	2083.59
551.28	2091.18
551.64	2098.39
551.99	2105.95
552.35	2113.20
552.70	2120.27
553.06	2126.86
553.41	2133.33
553.77	2140.05
554.13	2146.43
554.48	2153.58
554.84	2160.91
555.19	2167.58
555.55	2174.24
555.90	2180.44
556.26	2187.30
556.61	2193.40
556.97	2198.25
557.32	2203.99
557.68	2210.36
558.03	2216.06
558.39	2221.48
558.74	2227.41
559.10	2232.95
559.45	2238.40
559.81	2243.98
560.16	2249.36
560.52	2255.35
560.87	2261.64
561.23	2267.46
561.58	2274.13
561.94	2279.32
562.29	2283.85
562.64	2289.81
563.00	2295.43
563.35	2300.97
563.71	2306.59
564.06	2312.24
564.42	2318.14
564.77	2323.21
565.12	2328.43
565.48	2333.48
565.83	2338.82
566.19	2344.16
566.54	2349.55
566.89	2354.30
567.25	2358.76
567.60	2364.48
567.96	2369.47
568.31	2374.06
568.66	2378.19
569.02	2381.97
569.37	2385.55
569.72	2389.71
570.08	2392.99
570.43	2395.99
570.78	2399.04
571.14	2401.59
571.49	2404.54
571.84	2408.04
572.20	2410.77
572.55	2413.63
572.90	2415.86
573.26	2418.55
573.61	2421.11
573.96	2423.21
574.31	2425.03
574.67	2426.91
575.02	2427.56
575.37	2428.93
575.72	2429.52
576.08	2430.90
576.43	2430.94
576.78	2431.26
577.13	2432.91
577.49	2434.06
577.84	2434.89
578.19	2436.10
578.54	2436.64
578.90	2437.22
579.25	2436.99
579.60	2436.85
579.95	2435.99
580.30	2436.02
580.66	2435.29
581.01	2433.41
581.36	2430.84
581.71	2429.31
582.06	2427.95
582.42	2427.02
582.77	2424.56
583.12	2422.65
583.47	2421.08
583.82	2420.32
584.17	2418.95
584.53	2416.69
584.88	2414.53
585.23	2412.63
585.58	2410.24
585.93	2408.04
586.28	2405.82
586.63	2403.15
586.98	2400.87
587.34	2398.54
587.69	2395.88
588.04	2393.69
588.39	2392.06
588.74	2389.44
589.09	2386.63
589.44	2383.23
589.79	2380.58
590.14	2378.50
590.49	2375.62
590.84	2371.73
591.19	2368.50
591.54	2365.13
591.89	2360.96
592.25	2357.63
592.60	2353.25
592.95	2349.10
593.30	2344.82
593.65	2340.37
594.00	2335.78
594.35	2332.64
594.70	2328.16
595.05	2323.65
595.40	2318.09
595.75	2312.21
596.10	2308.55
596.45	2303.66
596.80	2299.01
597.15	2293.87
597.50	2287.94
597.85	2282.89
598.19	2277.61
598.54	2271.77
598.89	2266.47
599.24	2261.77
599.59	2255.48
599.94	2249.62
600.29	2243.54
600.64	2237.54
600.99	2230.69
601.34	2225.22
601.69	2218.24
602.04	2211.84
602.39	2205.17
602.74	2199.03
603.08	2193.55
603.43	2186.92
603.78	2179.92
604.13	2172.90
604.48	2165.36
604.83	2159.25
605.18	2153.06
605.53	2146.13
605.87	2139.06
606.22	2132.31
606.57	2124.36
606.92	2116.31
607.27	2109.29
607.62	2102.62
607.96	2095.58
608.31	2089.06
608.66	2081.27
609.01	2073.62
609.36	2066.41
609.70	2058.71
610.05	2050.99
610.40	2042.68
610.75	2034.36
611.10	2026.62
611.44	2017.72
611.79	2009.10
612.14	1999.03
612.49	1988.39
612.83	1979.11
613.18	1969.78
613.53	1960.38
613.88	1950.84
614.22	1942.32
614.57	1932.54
614.92	1921.99
615.27	1911.73
615.61	1901.51
615.96	1891.91
616.31	1882.21
616.65	1872.82
617.00	1863.00
617.35	1853.29
617.70	1843.51
618.04	1833.60
618.39	1823.43
618.74	1813.84
619.08	1804.15
619.43	1795.53
619.78	1787.27
620.12	1778.64
620.47	1769.08
620.82	1758.86
621.16	1749.04
621.51	1739.15
621.85	1729.43
622.20	1719.18
622.55	1708.66
622.89	1698.77
623.24	1689.08
623.59	1679.40
623.93	1669.27
624.28	1659.50
624.62	1649.38
624.97	1639.18
625.32	1629.26
625.66	1620.47
626.01	1611.78
626.35	1602.60
626.70	1592.54
627.04	1582.62
627.39	1572.45
627.73	1563.19
628.08	1554.27
628.43	1544.93
628.77	1535.66
629.12	1526.81
629.46	1518.97
629.81	1510.69
630.15	1501.26
630.50	1491.47
630.84	1480.94
631.19	1471.09
631.53	1461.89
631.88	1451.87
632.22	1441.95
632.57	1432.71
632.91	1422.69
633.26	1412.78
633.60	1403.12
633.95	1393.85
634.29	1384.36
634.64	1375.10
634.98	1365.25
635.32	1355.98
635.67	1347.50
636.01	1338.23
636.36	1328.58
636.70	1319.05
637.05	1309.78
637.39	1300.94
637.73	1292.32
638.08	1284.79
638.42	1276.70
638.77	1267.98
639.11	1259.83
639.45	1252.06
639.80	1243.63
640.14	1234.93
640.49	1226.18
640.83	1217.50
641.17	1209.47
641.52	1201.34
641.86	1192.81
642.20	1185.00
642.55	1176.46
642.89	1167.59
643.23	1159.05
643.58	1150.97
643.92	1141.90
644.26	1133.26
644.61	1124.84
644.95	1116.14
645.29	1107.03
645.64	1097.88
645.98	1089.30
646.32	1081.30
646.66	1072.74
647.01	1064.41
647.35	1056.36
647.69	1048.02
648.04	1039.72
648.38	1030.83
648.72	1022.08
649.06	1013.63
649.41	1005.44
649.75	997.51
650.09	989.54
650.43	981.59
650.78	973.16
651.12	965.48
651.46	958.05
651.80	950.80
652.14	943.56
652.49	936.02
652.83	928.73
653.17	921.10
653.51	913.52
653.85	906.32
654.20	899.11
654.54	891.61
654.88	884.41
655.22	877.14
655.56	870.15
655.90	863.29
656.25	856.53
656.59	849.60
656.93	842.56
657.27	835.51
657.61	828.46
657.95	822.32
658.29	816.42
658.64	810.30
658.98	803.84
659.32	797.24
659.66	790.95
660.00	784.62
660.34	778.50
660.68	772.38
661.02	765.98
661.36	760.04
661.70	754.17
662.05	748.48
662.39	743.03
662.73	737.62
663.07	732.26
663.41	726.76
663.75	721.07
664.09	715.32
664.43	709.90
664.77	704.61
665.11	698.82
665.45	692.87
665.79	686.96
666.13	681.25
666.47	675.71
666.81	670.32
667.15	664.81
667.49	659.67
667.83	654.40
668.17	649.15
668.51	643.92
668.85	638.99
669.19	634.07
669.53	628.97
669.87	623.80
670.21	618.93
670.55	614.12
670.89	609.67
671.23	605.36
671.57	600.88
671.91	596.55
672.25	592.33
672.58	588.20
672.92	584.17
673.26	580.24
673.60	576.35
673.94	572.47
674.28	568.92
674.62	565.12
674.96	561.33
675.30	557.89
675.64	554.19
675.97	550.54
676.31	546.93
676.65	543.36
676.99	539.97
677.33	536.15
677.67	532.46
678.01	528.53
678.34	524.87
678.68	521.41
679.02	517.81
679.36	514.12
679.70	510.44
680.04	506.83
680.37	503.33
680.71	499.97
681.05	496.77
681.39	493.42
681.73	490.23
682.06	487.17
682.40	484.02
682.74	480.83
683.08	477.60
683.42	474.35
683.75	471.28
684.09	468.18
684.43	465.38
684.77	462.47
685.10	459.63
685.44	456.67
685.78	453.67
686.12	450.84
686.45	448.07
686.79	445.42
687.13	442.78
687.46	440.14
687.80	437.46
688.14	434.58
688.48	431.90
688.81	429.21
689.15	426.61
689.49	423.93
689.82	421.35
690.16	418.75
690.50	416.27
690.83	413.77
691.17	411.18
691.51	408.62
691.84	406.34
692.18	404.03
692.52	401.77
692.85	399.58
693.19	397.40
693.52	395.22
693.86	392.96
694.20	390.82
694.53	388.64
694.87	386.39
695.21	384.24
695.54	382.08
695.88	379.85
696.21	377.61
696.55	375.43
696.88	373.35
697.22	371.39
697.56	369.43
697.89	367.48
698.23	365.74
698.56	363.92
698.90	362.04
699.23	360.17
699.57	358.28
699.90	356.37
700.24	354.49
700.58	352.72
700.91	351.00
701.25	349.43
701.58	347.78
701.92	346.12
702.25	344.50
702.59	342.86
702.92	341.34
703.26	339.71
703.59	338.23
703.93	336.94
704.26	335.45
704.60	333.93
704.93	332.40
705.26	330.85
705.60	329.36
705.93	327.82
706.27	326.48
706.60	325.23
706.94	324.04
707.27	322.66
707.61	321.29
707.94	319.92
708.27	318.35
708.61	316.90
708.94	315.54
709.28	314.24
709.61	312.97
709.94	311.70
710.28	310.51
710.61	309.31
710.95	307.84
711.28	306.71
711.61	305.53
711.95	304.38
712.28	303.18
712.61	302.00
712.95	300.97
713.28	299.91
713.61	298.71
713.95	297.50
714.28	296.48
714.61	295.41
714.95	294.38
715.28	293.34
715.61	292.28
715.95	291.28
716.28	290.30
716.61	289.32
716.95	288.29
717.28	287.33
717.61	286.34
717.94	285.43
718.28	284.39
718.61	283.47
718.94	282.59
719.27	281.74
719.61	280.93
719.94	280.05
720.27	279.06
720.60	278.19
720.94	277.41
721.27	276.59
721.60	275.88
721.93	275.17
722.27	274.52
722.60	273.87
722.93	273.16
723.26	272.45
723.59	271.72
723.93	271.12
724.26	270.48
724.59	269.87
724.92	269.27
725.25	268.70
725.59	268.17
725.92	267.60
726.25	267.04
726.58	266.41
726.91	265.78
727.24	265.25
727.57	264.67
727.91	264.02
728.24	263.48
728.57	262.83
728.90	262.29
729.23	261.63
729.56	261.17
729.89	260.63
730.22	260.04
730.55	259.50
730.89	258.94
731.22	258.38
731.55	257.85
731.88	257.32
732.21	256.80
732.54	256.22
732.87	255.73
733.20	255.22
733.53	254.74
733.86	254.28
734.19	253.78
734.52	253.34
734.85	253.06
735.18	252.58
735.51	252.23
735.84	251.74
736.17	251.39
736.50	250.85
736.83	250.69
737.16	250.35
737.49	249.98
737.82	249.58
738.15	249.17
738.48	248.81
738.81	248.41
739.14	247.97
739.47	247.61
739.80	247.19
740.13	246.83
740.46	246.45
740.79	246.07
741.12	245.70
741.45	245.31
741.78	244.88
742.11	244.59
742.44	244.18
742.77	243.89
743.10	243.52
743.43	243.16
743.75	242.55
744.08	242.45
744.41	242.06
744.74	241.74
745.07	241.37
745.40	241.03
745.73	240.78
746.06	240.48
746.39	240.16
746.71	239.81
747.04	239.43
747.37	239.07
747.70	238.78
748.03	238.50
748.36	238.22
748.68	237.88
749.01	237.56
749.34	237.31
749.67	237.00
750.00	236.74
750.33	236.62
750.65	236.38
750.98	235.83
751.31	235.61
751.64	235.36
751.97	235.23
752.29	234.95
752.62	234.62
752.95	234.35
753.28	234.08
753.60	233.85
753.93	233.70
754.26	233.49
754.59	233.22
754.91	232.94
755.24	232.71
755.57	232.49
755.90	232.22
756.22	231.94
756.55	231.70
756.88	231.42
757.20	231.07
757.53	230.83
757.86	230.60
758.19	230.38
758.51	230.12
758.84	229.84
759.17	229.63
759.49	229.46
759.82	229.36
760.15	229.19
760.47	229.03
760.80	228.77
761.13	228.63
761.45	228.42
761.78	228.25
762.11	228.09
762.43	227.88
762.76	227.71
763.08	227.56
763.41	227.45
763.74	227.31
764.06	227.15
764.39	227.00
764.71	226.84
765.04	226.70
765.37	226.55
765.69	226.39
766.02	226.23
766.34	226.05
766.67	225.83
767.00	225.70
767.32	225.65
767.65	225.67
767.97	225.49
768.30	225.40
768.62	225.28
768.95	225.13
769.27	225.00
769.60	224.91
769.92	224.73
770.25	224.54
770.57	224.38
770.90	224.26
771.22	224.12
771.55	224.03
771.87	223.90
772.20	223.81
772.52	223.85
772.85	224.03
773.17	223.94
773.50	223.83
773.82	223.72
774.15	223.55
774.47	223.28
774.80	223.18
775.12	223.05
775.45	222.98
775.77	222.88
776.09	222.82
776.42	222.72
776.74	222.70
777.07	222.61
777.39	222.54
777.72	222.45
778.04	222.39
778.36	222.29
778.69	222.22
779.01	222.14
779.33	221.88
779.66	221.52
779.98	221.44
780.31	221.40
780.63	221.40
780.95	221.32
781.28	221.27
781.60	221.18
781.92	221.13
782.25	221.05
782.57	220.97
782.89	220.90
783.22	220.84
783.54	220.73
783.86	220.68
784.19	220.62
784.51	220.61
784.83	220.52
785.16	220.44
785.48	220.35
785.80	220.32
786.12	220.30
786.45	220.27
786.77	220.22
787.09	220.12
787.42	219.98
787.74	219.92
788.06	219.85
788.38	219.78
788.71	219.73
789.03	219.67
789.35	219.65
789.67	219.54
789.99	219.50
790.32	219.44
790.64	219.42
790.96	219.53
791.28	219.39
791.61	219.32
791.93	219.29
792.25	219.23
792.57	219.29
792.89	219.16
793.21	219.11
793.54	219.03
793.86	218.96
794.18	218.93
794.50	218.88
794.82	218.87
795.14	218.84
795.47	218.78
795.79	218.76
796.11	218.65
796.43	218.64
796.75	218.59
797.07	218.54
797.39	218.47
797.71	218.28
798.04	218.26
798.36	218.24
798.68	218.21
799.00	218.19
799.32	218.07
799.64	218.11
799.96	218.03
800.28	218.01
800.60	217.97
800.92	217.93
801.24	217.86
801.56	217.80
801.89	217.76
802.21	217.74
802.53	217.64
802.85	217.68
803.17	217.71
803.49	217.61
803.81	217.57
804.13	217.50
804.45	217.44
804.77	217.41
805.09	217.39
805.41	217.35
805.73	217.31
806.05	217.21
806.37	217.16
806.69	217.14
807.01	217.12
807.33	217.12
807.65	217.04
807.97	217.13
808.28	217.09
808.60	217.04
808.92	216.99
809.24	217.10
809.56	217.03
809.88	216.94
810.20	216.95
810.52	216.95
810.84	216.91
811.16	216.88
811.48	216.86
811.80	216.91
812.12	216.85
812.43	216.86
812.75	216.84
813.07	216.83
813.39	216.81
813.71	216.75
814.03	216.69
814.35	216.67
814.67	216.55
814.98	216.51
815.30	216.51
815.62	216.46
815.94	216.29
816.26	216.27
816.58	216.24
816.89	216.26
817.21	216.23
817.53	216.21
817.85	216.20
818.17	216.13
818.48	216.02
818.80	216.06
819.12	215.99
819.44	215.94
819.76	215.85
820.07	215.86
820.39	215.83
820.71	215.84
821.03	215.83
821.34	215.80
821.66	215.81
821.98	215.81
822.30	215.78
822.61	215.90
822.93	215.85
823.25	215.83
823.57	215.77
823.88	215.79
824.20	215.79
824.52	215.80
824.83	215.79
825.15	215.80
825.47	215.79
825.79	215.80
826.10	215.79
826.42	215.79
826.74	215.77
827.05	215.78
827.37	215.75
827.69	215.76
828.00	215.75
828.32	215.73
828.64	215.68
828.95	215.79
829.27	215.71
829.58	215.70
829.90	215.74
830.22	215.73
830.53	215.66
830.85	215.62
831.17	215.56
831.48	215.54
831.80	215.54
832.11	215.49
832.43	215.46
832.75	215.44
833.06	215.57
833.38	215.50
833.69	215.46
834.01	215.48
834.32	215.40
834.64	215.37
834.96	215.33
835.27	215.34
835.59	215.28
835.90	215.24
836.22	215.24
836.53	215.20
836.85	215.17
837.16	215.38
837.48	215.33
837.79	215.40
838.11	215.42
838.42	215.38
838.74	215.39
839.05	215.36
839.37	215.34
839.68	215.17
840.00	215.17
840.31	215.18
840.63	215.15
840.94	215.15
841.26	215.11
841.57	215.12
841.88	215.10
842.20	215.03
842.51	215.02
842.83	215.00
843.14	215.18
843.46	215.19
843.77	215.04
844.08	215.06
844.40	214.99
844.71	214.95
845.03	214.89
845.34	214.85
845.65	214.86
845.97	214.89
846.28	214.90
846.60	214.90
846.91	214.87
847.22	214.86
847.54	214.88
847.85	214.88
848.16	214.83
848.48	214.80
848.79	214.89
849.10	214.89
849.42	214.91
849.73	214.70
850.04	214.69
850.36	214.63
850.67	214.68
850.98	214.68
851.30	214.69
851.61	214.72
851.92	214.74
852.23	214.79
852.55	214.77
852.86	214.78
853.17	214.79
853.49	214.83
853.80	214.85
854.11	214.89
854.42	214.92
854.74	214.94
855.05	214.95
855.36	214.84
855.67	214.85
855.99	214.87
856.30	215.12
856.61	215.08
856.92	215.08
857.23	215.02
857.55	214.99
857.86	214.97
858.17	214.99
858.48	214.94
858.79	214.91
859.11	214.93
859.42	214.89
859.73	214.88
860.04	214.88
860.35	214.83
860.66	214.75
860.98	214.72
861.29	214.73
861.60	214.73
861.91	214.77
862.22	214.73
862.53	214.68
862.84	214.44
863.16	214.51
863.47	214.46
863.78	214.47
864.09	214.52
864.40	214.56
864.71	214.53
865.02	214.53
865.33	214.48
865.64	214.45
865.95	214.49
866.27	214.64
866.58	214.63
866.89	214.64
867.20	214.61
867.51	214.60
867.82	214.63
868.13	214.68
868.44	214.64
868.75	214.72
869.06	214.73
869.37	214.76
869.68	214.69
869.99	214.75
870.30	214.76
870.61	214.81
870.92	214.78
871.23	214.79
871.54	214.85
871.85	214.92
872.16	214.96
872.47	214.95
872.78	214.80
873.09	214.83
873.40	214.82
873.71	214.84
874.02	214.86
874.33	214.82
874.64	214.77
874.95	214.81
875.26	214.73
875.56	214.70
875.87	214.68
876.18	214.68
876.49	214.90
876.80	214.87
877.11	214.79
877.42	214.81
877.73	214.80
878.04	214.75
878.35	214.75
878.66	214.74
878.96	214.70
879.27	214.69
879.58	214.67
879.89	214.68
880.20	214.74
880.51	214.72
880.82	214.76
881.12	214.77
881.43	214.73
881.74	214.70
882.05	214.66
882.36	214.67
882.67	214.69
882.97	214.45
883.28	214.44
883.59	214.43
883.90	214.41
884.21	214.45
884.51	214.43
884.82	214.37
885.13	214.38
885.44	214.38
885.74	214.37
886.05	214.35
886.36	214.35
886.67	214.29
886.98	214.39
887.28	214.39
887.59	214.38
887.90	214.37
888.20	214.34
888.51	214.45
888.82	214.40
889.13	214.42
889.43	214.58
889.74	214.55
890.05	214.53
890.35	214.53
890.66	214.45
890.97	214.47
891.28	214.47
891.58	214.46
891.89	214.46
892.20	214.43
892.50	214.37
892.81	214.35
893.12	214.38
893.42	214.25
893.73	214.25
894.04	214.23
894.34	214.25
894.65	214.28
894.95	214.20
895.26	214.23
895.57	214.32
895.87	214.13
896.18	214.20
896.48	214.24
896.79	214.22
897.10	214.30
897.40	214.28
897.71	214.31
898.01	214.28
898.32	214.29
898.63	214.28
898.93	214.33
899.24	214.35
899.54	214.32
899.85	214.33
900.15	214.32
900.46	214.35
900.76	214.35
901.07	214.35
901.38	214.36
901.68	214.38
901.99	214.28
902.29	214.31
902.60	214.26
902.90	214.24
903.21	214.27
903.51	214.26
903.82	214.31
904.12	214.30
904.43	214.33
904.73	214.34
905.03	214.34
905.34	214.52
905.64	214.48
905.95	214.49
906.25	214.51
906.56	214.51
906.86	214.49
907.17	214.46
907.47	214.48
907.77	214.46
908.08	214.42
908.38	214.42
908.69	214.41
908.99	214.45
909.30	214.47
909.60	214.43
909.90	214.41
910.21	214.36
910.51	214.33
910.81	214.33
911.12	214.36
911.42	214.39
911.73	214.18
912.03	214.24
912.33	214.26
912.64	214.24
912.94	214.23
913.24	214.19
913.55	214.20
913.85	214.21
914.15	214.24
914.46	214.26
914.76	214.25
915.06	214.22
915.37	214.17
915.67	214.16
915.97	214.21
916.27	214.20
916.58	214.19
916.88	214.19
917.18	214.16
917.49	214.27
917.79	214.25
918.09	214.27
918.39	214.27
918.70	214.27
919.00	214.29
919.30	214.38
919.60	214.42
919.91	214.39
920.21	214.38
920.51	214.32
920.81	214.35
921.12	214.37
921.42	214.40
921.72	214.41
922.02	214.41
922.32	214.41
922.63	214.42
922.93	214.52
923.23	214.50
923.53	214.49
923.83	214.34
924.13	214.39
924.44	214.38
924.74	214.41
925.04	214.46
925.34	214.42
925.64	214.34
925.94	214.33
926.24	214.44
926.55	214.42
926.85	214.45
927.15	214.42
927.45	214.43
927.75	214.38
928.05	214.39
928.35	214.39
928.65	214.41
928.95	214.42
929.26	214.33
929.56	214.41
929.86	214.41
930.16	214.45
930.46	214.43
930.76	214.44
931.06	214.36
931.36	214.30
931.66	214.37
931.96	214.35
932.26	214.35
932.56	214.26
932.86	214.27
933.16	214.26
933.46	214.27
933.76	214.23
934.06	214.31
934.36	214.37
934.66	214.36
934.96	214.36
935.26	214.35
935.56	214.36
935.86	214.28
936.16	214.26
936.46	214.22
936.76	214.19
937.06	214.14
937.36	214.17
937.66	214.16
937.96	214.11
938.26	214.07
938.56	214.05
938.86	214.05
939.16	214.09
939.46	214.11
939.76	214.09
940.06	214.11
940.35	214.05
940.65	213.92
940.95	213.94
941.25	213.85
941.55	213.86
941.85	213.85
942.15	213.89
942.45	213.97
942.75	213.96
943.04	213.96
943.34	214.03
943.64	213.98
943.94	213.97
944.24	213.98
944.54	214.02
944.84	214.01
945.13	214.02
945.43	214.00
945.73	213.99
946.03	214.00
946.33	213.94
946.62	213.94
946.92	213.94
947.22	213.94
947.52	213.95
947.82	213.97
948.11	213.98
948.41	213.95
948.71	213.91
949.01	213.93
949.31	213.95
949.60	213.92
949.90	213.97
950.20	213.96
950.50	213.98
950.79	213.95
951.09	213.98
951.39	213.97
951.69	213.96
951.98	213.97
952.28	213.96
952.58	213.97
952.87	213.97
953.17	214.04
953.47	214.01
953.76	214.03
954.06	214.00
954.36	213.95
954.66	213.96
954.95	214.00
955.25	214.01
955.55	214.03
955.84	214.02
956.14	214.03
956.44	214.05
956.73	214.01
957.03	214.04
957.32	214.04
957.62	214.02
957.92	214.06
958.21	214.06
958.51	214.33
958.81	214.35
959.10	214.38
959.40	214.41
959.69	214.42
959.99	214.43
960.29	214.43
960.58	214.41
960.88	214.45
961.17	214.41
961.47	214.39
961.76	214.33
962.06	214.34
962.36	214.29
962.65	214.32
962.95	214.34
963.24	214.28
963.54	214.30
963.83	214.30
964.13	214.30
964.42	214.24
964.72	214.06
965.01	214.08
965.31	214.06
965.60	214.00
965.90	214.15
966.19	214.14
966.49	214.16
966.78	214.18
967.08	214.18
967.37	214.19
967.67	214.15
967.96	214.22
968.26	214.24
968.55	214.28
968.85	214.26
969.14	214.26
969.43	214.30
969.73	214.27
970.02	214.26
970.32	214.22
970.61	214.24
970.91	214.19
971.20	214.14
971.49	214.14
971.79	214.16
972.08	214.02
972.38	214.04
972.67	214.03
972.96	214.06
973.26	214.03
973.55	214.09
973.85	214.10
974.14	214.08
974.43	214.08
974.73	214.03
975.02	214.02
975.31	214.00
975.61	214.01
975.90	214.00
976.19	213.97
976.49	213.97
976.78	213.99
977.07	213.98
977.37	213.98
977.66	214.00
977.95	213.99
978.24	213.97
978.54	214.01
978.83	213.99
979.12	213.98
979.42	213.96
979.71	213.92
980.00	213.93
980.29	213.95
980.59	213.91
980.88	213.99
981.17	213.96
981.46	213.98
981.76	213.94
982.05	213.98
982.34	214.01
982.63	214.02
982.93	214.01
983.22	214.08
983.51	214.09
983.80	214.09
984.09	214.13
984.39	214.10
984.68	214.02
984.97	214.01
985.26	213.98
985.55	214.05
985.85	214.00
986.14	214.02
986.43	214.02
986.72	214.04
987.01	213.96
987.30	213.97
987.59	213.93
987.89	213.98
988.18	213.96
988.47	213.96
988.76	213.92
989.05	213.91
989.34	213.85
989.63	213.89
989.92	213.88
990.22	213.83
990.51	213.83
990.80	213.83
991.09	213.87
991.38	213.87
991.67	213.82
991.96	213.82
992.25	213.84
992.54	213.79
992.83	213.76
993.12	213.79
993.41	213.86
993.70	213.97
993.99	213.96
994.28	213.96
994.58	213.99
994.87	214.00
995.16	214.00
995.45	214.00
995.74	213.94
996.03	213.97
996.32	214.02
996.61	214.09
996.90	214.10
997.19	214.07
997.48	214.07
997.77	214.04
998.06	214.05
998.34	214.03
998.63	214.04
998.92	214.06
999.21	214.05
999.50	214.00
999.79	213.92
1000.08	213.93
1000.37	213.90
1000.66	213.88
1000.95	213.93
1001.24	213.91
1001.53	213.93
1001.82	213.91
1002.11	213.86
1002.40	213.87
1002.68	213.91
1002.97	214.02
1003.26	214.02
1003.55	214.04
1003.84	214.06
1004.13	214.12
1004.42	214.09
1004.71	214.07
1004.99	214.05
1005.28	214.10
1005.57	214.11
1005.86	214.08
1006.15	214.07
1006.44	214.05
1006.72	214.07
1007.01	214.05
1007.30	214.06
1007.59	214.03
1007.88	214.04
1008.17	214.06
1008.45	214.01
1008.74	213.93
1009.03	213.86
1009.32	213.87
1009.60	213.83
1009.89	213.81
1010.18	213.73
1010.47	213.72
1010.76	213.74
1011.04	213.73
1011.33	213.72
1011.62	213.72
1011.91	213.72
1012.19	213.70
1012.48	213.72
1012.77	213.69
1013.05	213.74
1013.34	213.76
1013.63	213.76
1013.92	213.76
1014.20	213.73
1014.49	213.75
1014.78	213.78
1015.06	213.72
1015.35	213.70
1015.64	213.73
1015.92	213.78
1016.21	213.78
1016.50	213.78
1016.78	213.80
1017.07	213.83
1017.36	213.81
1017.64	213.81
1017.93	213.87
1018.22	213.87
1018.50	213.86
1018.79	213.87
1019.08	213.78
1019.36	213.78
1019.65	213.75
1019.93	213.82
1020.22	213.89
1020.51	213.97
1020.79	213.95
1021.08	213.63
1021.36	213.28
1021.65	213.63
1021.94	213.68
1022.22	213.68
1022.51	213.28
1022.79	214.79
1023.08	214.63
1023.36	215.95
1023.65	214.14
>>>>>End Processed Spectral Data<<<<<
