SpectraSuite Data File
++++++++++++++++++++++++++++++++++++
Date: Tue Jan 29 16:55:21 EST 2013
User: group
Dark Spectrum Present: No
Reference Spectrum Present: No
Number of Sampled Component Spectra: 1
Spectrometers: USB2E7196
Integration Time (usec): 65000 (USB2E7196)
Spectra Averaged: 100 (USB2E7196)
Boxcar Smoothing: 10 (USB2E7196)
Correct for Electrical Dark: No (USB2E7196)
Strobe/Lamp Enabled: No (USB2E7196)
Correct for Detector Non-linearity: No (USB2E7196)
Correct for Stray Light: No (USB2E7196)
Number of Pixels in Processed Spectrum: 2048
>>>>>Begin Processed Spectral Data<<<<<
339.09	0.00
339.48	201.15
339.86	202.75
340.24	203.83
340.63	205.01
341.01	210.34
341.39	208.05
341.78	209.46
342.16	211.46
342.54	211.21
342.93	200.49
343.31	210.64
343.69	211.19
344.07	211.66
344.46	212.10
344.84	212.53
345.22	212.69
345.60	212.99
345.99	213.22
346.37	213.37
346.75	213.50
347.13	213.61
347.52	213.70
347.90	213.83
348.28	213.86
348.66	213.95
349.05	213.92
349.43	213.98
349.81	214.08
350.19	214.14
350.57	214.23
350.96	214.34
351.34	214.46
351.72	214.60
352.10	214.73
352.48	214.84
352.87	214.92
353.25	215.01
353.63	215.06
354.01	215.13
354.39	215.19
354.77	215.30
355.15	215.44
355.54	215.47
355.92	215.46
356.30	215.56
356.68	215.76
357.06	215.87
357.44	215.92
357.82	215.97
358.20	216.08
358.58	216.14
358.97	216.23
359.35	216.30
359.73	216.40
360.11	216.45
360.49	216.52
360.87	216.57
361.25	216.64
361.63	216.77
362.01	216.83
362.39	216.88
362.77	216.91
363.15	216.95
363.53	217.03
363.91	217.10
364.29	217.11
364.67	216.96
365.05	216.97
365.43	217.00
365.81	217.06
366.19	217.15
366.57	217.22
366.95	217.24
367.33	217.21
367.71	217.21
368.09	217.27
368.47	217.27
368.85	217.27
369.23	217.26
369.61	217.18
369.99	217.21
370.37	217.23
370.75	217.31
371.13	217.22
371.51	217.15
371.89	217.11
372.27	217.12
372.65	217.14
373.03	217.09
373.41	217.05
373.78	216.98
374.16	216.82
374.54	216.75
374.92	216.66
375.30	216.63
375.68	216.54
376.06	216.48
376.44	216.37
376.82	216.34
377.19	216.31
377.57	216.23
377.95	216.15
378.33	216.09
378.71	215.93
379.09	215.89
379.47	215.84
379.84	215.79
380.22	215.75
380.60	215.61
380.98	215.59
381.36	215.55
381.73	215.48
382.11	215.48
382.49	215.42
382.87	215.34
383.25	215.27
383.62	215.47
384.00	215.38
384.38	215.38
384.76	215.36
385.13	215.39
385.51	215.35
385.89	215.25
386.27	215.21
386.64	215.21
387.02	215.20
387.40	215.18
387.78	215.15
388.15	215.08
388.53	215.08
388.91	215.02
389.29	214.98
389.66	215.02
390.04	214.98
390.42	214.99
390.79	214.99
391.17	214.98
391.55	214.75
391.92	214.72
392.30	214.73
392.68	214.63
393.05	214.60
393.43	214.61
393.81	214.62
394.18	214.56
394.56	214.57
394.94	214.59
395.31	214.59
395.69	214.66
396.06	214.71
396.44	214.74
396.82	214.74
397.19	214.87
397.57	214.84
397.95	214.87
398.32	214.84
398.70	214.89
399.07	214.97
399.45	215.00
399.82	215.07
400.20	215.09
400.58	215.17
400.95	215.14
401.33	215.26
401.70	215.49
402.08	215.58
402.45	215.66
402.83	215.78
403.20	215.85
403.58	215.96
403.95	216.11
404.33	216.30
404.71	216.46
405.08	216.71
405.46	216.88
405.83	217.14
406.21	217.34
406.58	217.56
406.96	217.76
407.33	218.04
407.70	218.35
408.08	218.81
408.45	219.18
408.83	219.60
409.20	219.97
409.58	220.26
409.95	220.79
410.33	221.29
410.70	221.76
411.08	222.32
411.45	222.89
411.82	223.48
412.20	224.16
412.57	224.96
412.95	225.52
413.32	226.35
413.69	227.14
414.07	228.08
414.44	229.07
414.82	230.11
415.19	231.27
415.56	232.47
415.94	233.68
416.31	235.08
416.68	236.50
417.06	238.10
417.43	239.66
417.81	241.38
418.18	243.15
418.55	245.10
418.93	247.16
419.30	249.24
419.67	251.51
420.04	253.83
420.42	256.24
420.79	259.09
421.16	261.88
421.54	264.83
421.91	267.81
422.28	270.96
422.66	274.28
423.03	277.56
423.40	280.90
423.77	284.54
424.15	288.23
424.52	292.09
424.89	296.28
425.26	300.39
425.64	304.31
426.01	308.64
426.38	313.18
426.75	317.71
427.13	322.52
427.50	327.47
427.87	332.66
428.24	337.88
428.61	342.92
428.99	348.49
429.36	354.50
429.73	360.46
430.10	366.36
430.47	372.47
430.85	378.79
431.22	385.54
431.59	392.62
431.96	399.47
432.33	407.06
432.70	414.33
433.08	422.91
433.45	431.08
433.82	439.14
434.19	448.07
434.56	456.88
434.93	465.27
435.30	473.66
435.68	482.80
436.05	491.89
436.42	500.86
436.79	509.06
437.16	517.90
437.53	527.27
437.90	536.50
438.27	545.55
438.64	554.85
439.01	563.42
439.38	571.09
439.75	578.45
440.13	586.91
440.50	595.00
440.87	601.42
441.24	608.03
441.61	615.34
441.98	620.73
442.35	627.13
442.72	633.49
443.09	639.59
443.46	643.43
443.83	645.94
444.20	648.19
444.57	651.43
444.94	652.92
445.31	654.35
445.68	655.72
446.05	656.36
446.42	655.62
446.79	654.72
447.16	653.68
447.53	652.95
447.90	649.57
448.27	646.25
448.64	641.62
449.01	638.27
449.37	632.40
449.74	626.69
450.11	619.72
450.48	612.32
450.85	604.77
451.22	598.25
451.59	592.04
451.96	586.14
452.33	578.22
452.70	571.06
453.07	562.48
453.43	553.83
453.80	545.47
454.17	537.41
454.54	529.79
454.91	521.50
455.28	513.47
455.65	506.01
456.02	498.42
456.38	492.06
456.75	484.11
457.12	477.50
457.49	470.92
457.86	464.66
458.23	459.20
458.59	453.23
458.96	447.18
459.33	441.87
459.70	436.42
460.07	432.08
460.43	427.14
460.80	422.55
461.17	418.54
461.54	414.28
461.91	410.22
462.27	406.03
462.64	402.61
463.01	398.79
463.38	395.04
463.74	391.31
464.11	388.03
464.48	385.21
464.85	382.12
465.21	379.73
465.58	377.12
465.95	373.99
466.32	371.38
466.68	368.75
467.05	366.13
467.42	363.60
467.78	360.87
468.15	358.29
468.52	356.38
468.88	353.85
469.25	351.57
469.62	349.75
469.98	347.81
470.35	345.95
470.72	344.23
471.08	342.41
471.45	340.88
471.82	339.31
472.18	337.62
472.55	336.35
472.92	334.90
473.28	333.63
473.65	332.42
474.02	331.22
474.38	330.31
474.75	329.55
475.11	328.70
475.48	328.09
475.85	327.63
476.21	327.16
476.58	326.81
476.94	326.57
477.31	326.21
477.67	325.97
478.04	325.81
478.41	325.74
478.77	325.89
479.14	325.81
479.50	325.94
479.87	326.20
480.23	326.48
480.60	326.70
480.96	326.96
481.33	327.56
481.69	328.13
482.06	328.61
482.42	329.06
482.79	329.65
483.15	330.45
483.52	331.38
483.88	332.19
484.25	333.10
484.61	334.08
484.98	335.16
485.34	336.47
485.71	337.82
486.07	339.27
486.44	340.63
486.80	342.27
487.17	343.93
487.53	345.78
487.90	347.69
488.26	349.71
488.62	351.95
488.99	354.02
489.35	356.20
489.72	358.62
490.08	361.18
490.44	363.72
490.81	366.44
491.17	369.11
491.54	372.13
491.90	375.18
492.26	378.44
492.63	381.90
492.99	385.33
493.36	389.01
493.72	392.93
494.08	396.89
494.45	401.08
494.81	405.42
495.17	409.87
495.54	414.59
495.90	419.40
496.26	424.25
496.63	429.44
496.99	434.86
497.35	440.33
497.72	446.10
498.08	452.02
498.44	458.11
498.80	464.55
499.17	470.97
499.53	477.65
499.89	484.52
500.26	491.45
500.62	498.52
500.98	505.91
501.34	513.32
501.71	521.07
502.07	528.85
502.43	536.82
502.79	544.89
503.16	553.27
503.52	561.83
503.88	570.56
504.24	579.50
504.60	588.52
504.97	597.85
505.33	607.08
505.69	616.91
506.05	626.77
506.41	636.59
506.78	646.62
507.14	656.84
507.50	667.29
507.86	677.95
508.22	688.72
508.59	699.40
508.95	710.35
509.31	721.50
509.67	733.04
510.03	744.35
510.39	756.05
510.75	767.78
511.12	779.65
511.48	791.64
511.84	803.76
512.20	815.99
512.56	828.58
512.92	841.36
513.28	853.91
513.64	866.68
514.00	879.51
514.37	892.52
514.73	905.64
515.09	918.66
515.45	931.58
515.81	944.68
516.17	958.03
516.53	971.28
516.89	984.46
517.25	997.51
517.61	1011.18
517.97	1024.55
518.33	1037.65
518.69	1051.21
519.05	1064.94
519.41	1078.72
519.77	1092.64
520.13	1105.97
520.49	1119.15
520.85	1132.59
521.21	1145.87
521.57	1159.51
521.93	1172.56
522.29	1186.23
522.65	1199.75
523.01	1213.40
523.37	1226.56
523.73	1239.93
524.09	1253.29
524.45	1266.70
524.81	1280.22
525.17	1293.55
525.53	1306.83
525.89	1320.26
526.25	1333.39
526.61	1346.28
526.97	1359.43
527.33	1372.35
527.68	1385.84
528.04	1399.28
528.40	1412.41
528.76	1425.84
529.12	1438.85
529.48	1452.19
529.84	1464.51
530.20	1477.37
530.56	1489.84
530.91	1503.12
531.27	1515.87
531.63	1528.47
531.99	1541.31
532.35	1553.64
532.71	1566.11
533.07	1579.17
533.42	1591.52
533.78	1603.73
534.14	1615.83
534.50	1627.06
534.86	1638.83
535.21	1649.62
535.57	1661.48
535.93	1672.81
536.29	1683.89
536.65	1695.35
537.00	1706.43
537.36	1717.96
537.72	1729.03
538.08	1740.78
538.44	1751.88
538.79	1763.11
539.15	1774.31
539.51	1785.25
539.87	1796.67
540.22	1807.49
540.58	1818.49
540.94	1829.40
541.29	1839.69
541.65	1849.63
542.01	1860.13
542.37	1870.23
542.72	1880.54
543.08	1890.18
543.44	1900.85
543.79	1910.15
544.15	1919.67
544.51	1929.64
544.87	1939.59
545.22	1948.81
545.58	1957.72
545.94	1966.61
546.29	1975.22
546.65	1983.59
547.01	1991.78
547.36	1999.42
547.72	2007.18
548.07	2014.65
548.43	2022.38
548.79	2030.32
549.14	2038.52
549.50	2047.12
549.86	2055.15
550.21	2062.66
550.57	2070.41
550.92	2077.22
551.28	2084.72
551.64	2092.00
551.99	2099.47
552.35	2106.56
552.70	2113.51
553.06	2120.09
553.41	2126.29
553.77	2132.82
554.13	2139.08
554.48	2146.09
554.84	2153.27
555.19	2159.91
555.55	2166.29
555.90	2172.69
556.26	2179.55
556.61	2185.69
556.97	2190.45
557.32	2196.09
557.68	2202.46
558.03	2208.23
558.39	2213.68
558.74	2219.81
559.10	2225.22
559.45	2230.79
559.81	2236.39
560.16	2241.88
560.52	2247.71
560.87	2254.13
561.23	2259.91
561.58	2266.60
561.94	2271.88
562.29	2276.40
562.64	2282.24
563.00	2287.89
563.35	2293.28
563.71	2298.84
564.06	2304.36
564.42	2310.27
564.77	2315.12
565.12	2320.34
565.48	2325.26
565.83	2330.47
566.19	2335.57
566.54	2340.75
566.89	2345.18
567.25	2349.57
567.60	2355.13
567.96	2359.93
568.31	2364.29
568.66	2368.50
569.02	2372.28
569.37	2375.82
569.72	2380.12
570.08	2383.50
570.43	2386.57
570.78	2389.87
571.14	2392.18
571.49	2395.22
571.84	2398.61
572.20	2401.67
572.55	2404.36
572.90	2406.76
573.26	2409.37
573.61	2411.92
573.96	2414.18
574.31	2416.28
574.67	2417.96
575.02	2418.49
575.37	2419.97
575.72	2420.52
576.08	2421.82
576.43	2421.73
576.78	2422.00
577.13	2423.31
577.49	2424.48
577.84	2425.21
578.19	2425.94
578.54	2426.37
578.90	2426.61
579.25	2426.11
579.60	2425.65
579.95	2424.75
580.30	2424.15
580.66	2423.44
581.01	2421.65
581.36	2418.84
581.71	2416.98
582.06	2415.71
582.42	2414.78
582.77	2412.35
583.12	2410.59
583.47	2408.86
583.82	2408.19
584.17	2406.74
584.53	2404.60
584.88	2402.22
585.23	2400.11
585.58	2397.78
585.93	2395.81
586.28	2393.68
586.63	2391.22
586.98	2388.81
587.34	2386.69
587.69	2384.01
588.04	2381.61
588.39	2379.83
588.74	2377.44
589.09	2374.61
589.44	2371.18
589.79	2368.38
590.14	2366.21
590.49	2363.30
590.84	2359.35
591.19	2355.93
591.54	2352.70
591.89	2348.48
592.25	2345.13
592.60	2340.81
592.95	2336.65
593.30	2332.29
593.65	2327.61
594.00	2323.04
594.35	2320.05
594.70	2315.32
595.05	2310.97
595.40	2305.49
595.75	2299.57
596.10	2295.72
596.45	2290.77
596.80	2286.24
597.15	2281.09
597.50	2275.19
597.85	2270.07
598.19	2264.91
598.54	2259.19
598.89	2253.64
599.24	2248.96
599.59	2242.75
599.94	2236.80
600.29	2230.71
600.64	2224.63
600.99	2217.90
601.34	2212.29
601.69	2205.19
602.04	2198.77
602.39	2192.05
602.74	2185.90
603.08	2180.35
603.43	2173.94
603.78	2167.20
604.13	2160.14
604.48	2152.70
604.83	2146.48
605.18	2140.36
605.53	2133.53
605.87	2126.44
606.22	2119.80
606.57	2112.02
606.92	2103.97
607.27	2097.03
607.62	2090.32
607.96	2083.42
608.31	2077.02
608.66	2069.35
609.01	2061.71
609.36	2054.50
609.70	2046.91
610.05	2039.17
610.40	2030.96
610.75	2022.48
611.10	2014.70
611.44	2005.74
611.79	1997.08
612.14	1987.18
612.49	1976.42
612.83	1966.91
613.18	1957.49
613.53	1948.19
613.88	1938.45
614.22	1929.97
614.57	1920.16
614.92	1909.61
615.27	1899.26
615.61	1888.93
615.96	1879.27
616.31	1869.79
616.65	1860.38
617.00	1850.86
617.35	1841.15
617.70	1831.45
618.04	1821.67
618.39	1811.77
618.74	1802.16
619.08	1792.64
619.43	1784.08
619.78	1775.89
620.12	1767.33
620.47	1758.00
620.82	1747.65
621.16	1738.08
621.51	1728.22
621.85	1718.55
622.20	1708.51
622.55	1698.15
622.89	1688.39
623.24	1678.91
623.59	1669.22
623.93	1659.31
624.28	1649.36
624.62	1639.48
624.97	1629.34
625.32	1619.57
625.66	1610.55
626.01	1602.05
626.35	1592.80
626.70	1582.78
627.04	1572.99
627.39	1562.98
627.73	1553.76
628.08	1545.07
628.43	1535.62
628.77	1526.61
629.12	1517.92
629.46	1510.13
629.81	1502.04
630.15	1492.93
630.50	1483.14
630.84	1472.70
631.19	1462.79
631.53	1453.81
631.88	1443.82
632.22	1433.96
632.57	1424.68
632.91	1414.76
633.26	1404.92
633.60	1395.55
633.95	1386.51
634.29	1377.03
634.64	1367.87
634.98	1358.05
635.32	1348.88
635.67	1340.64
636.01	1331.40
636.36	1321.75
636.70	1312.27
637.05	1302.97
637.39	1294.04
637.73	1285.61
638.08	1278.20
638.42	1270.31
638.77	1261.60
639.11	1253.42
639.45	1245.77
639.80	1237.56
640.14	1228.95
640.49	1220.16
640.83	1211.34
641.17	1203.16
641.52	1195.10
641.86	1186.68
642.20	1179.05
642.55	1170.42
642.89	1161.53
643.23	1153.03
643.58	1144.95
643.92	1136.07
644.26	1127.47
644.61	1119.16
644.95	1110.42
645.29	1101.35
645.64	1092.30
645.98	1083.79
646.32	1075.97
646.66	1067.51
647.01	1059.19
647.35	1051.14
647.69	1043.04
648.04	1035.04
648.38	1026.33
648.72	1017.74
649.06	1009.36
649.41	1001.11
649.75	993.31
650.09	985.56
650.43	977.59
650.78	969.36
651.12	961.68
651.46	954.28
651.80	947.03
652.14	939.85
652.49	932.31
652.83	925.00
653.17	917.42
653.51	909.81
653.85	902.66
654.20	895.46
654.54	888.20
654.88	880.99
655.22	873.71
655.56	866.72
655.90	859.96
656.25	853.37
656.59	846.62
656.93	839.73
657.27	832.64
657.61	825.74
657.95	819.63
658.29	813.72
658.64	807.74
658.98	801.31
659.32	794.79
659.66	788.70
660.00	782.53
660.34	776.46
660.68	770.44
661.02	764.06
661.36	758.06
661.70	752.23
662.05	746.63
662.39	741.18
662.73	735.80
663.07	730.48
663.41	724.88
663.75	719.14
664.09	713.41
664.43	707.95
664.77	702.64
665.11	696.91
665.45	691.07
665.79	685.19
666.13	679.64
666.47	674.09
666.81	668.58
667.15	663.08
667.49	657.88
667.83	652.68
668.17	647.48
668.51	642.36
668.85	637.40
669.19	632.49
669.53	627.47
669.87	622.34
670.21	617.51
670.55	612.80
670.89	608.31
671.23	603.98
671.57	599.58
671.91	595.20
672.25	591.02
672.58	586.93
672.92	582.85
673.26	578.91
673.60	575.05
673.94	571.25
674.28	567.67
674.62	563.98
674.96	560.18
675.30	556.70
675.64	553.04
675.97	549.38
676.31	545.74
676.65	542.19
676.99	538.82
677.33	534.96
677.67	531.27
678.01	527.43
678.34	523.84
678.68	520.32
679.02	516.76
679.36	513.11
679.70	509.42
680.04	505.86
680.37	502.29
680.71	498.92
681.05	495.72
681.39	492.42
681.73	489.23
682.06	486.11
682.40	482.98
682.74	479.80
683.08	476.60
683.42	473.37
683.75	470.29
684.09	467.18
684.43	464.37
684.77	461.53
685.10	458.69
685.44	455.70
685.78	452.79
686.12	449.96
686.45	447.18
686.79	444.48
687.13	441.89
687.46	439.33
687.80	436.70
688.14	433.83
688.48	431.14
688.81	428.39
689.15	425.81
689.49	423.22
689.82	420.67
690.16	418.04
690.50	415.65
690.83	413.14
691.17	410.54
691.51	408.01
691.84	405.66
692.18	403.38
692.52	401.20
692.85	399.06
693.19	396.92
693.52	394.75
693.86	392.52
694.20	390.30
694.53	388.07
694.87	385.78
695.21	383.62
695.54	381.46
695.88	379.30
696.21	377.11
696.55	374.95
696.88	372.89
697.22	370.94
697.56	368.97
697.89	367.05
698.23	365.30
698.56	363.46
698.90	361.69
699.23	359.83
699.57	357.91
699.90	355.99
700.24	354.19
700.58	352.44
700.91	350.79
701.25	349.20
701.58	347.62
701.92	346.06
702.25	344.45
702.59	342.84
702.92	341.28
703.26	339.69
703.59	338.18
703.93	336.86
704.26	335.39
704.60	333.83
704.93	332.31
705.26	330.83
705.60	329.36
705.93	327.79
706.27	326.39
706.60	325.11
706.94	323.85
707.27	322.44
707.61	321.05
707.94	319.68
708.27	318.18
708.61	316.70
708.94	315.30
709.28	314.02
709.61	312.75
709.94	311.56
710.28	310.37
710.61	309.16
710.95	307.76
711.28	306.67
711.61	305.47
711.95	304.32
712.28	303.08
712.61	301.85
712.95	300.81
713.28	299.74
713.61	298.60
713.95	297.44
714.28	296.41
714.61	295.36
714.95	294.30
715.28	293.27
715.61	292.24
715.95	291.28
716.28	290.27
716.61	289.27
716.95	288.21
717.28	287.25
717.61	286.25
717.94	285.31
718.28	284.23
718.61	283.33
718.94	282.44
719.27	281.55
719.61	280.77
719.94	279.87
720.27	278.90
720.60	278.03
720.94	277.20
721.27	276.39
721.60	275.66
721.93	274.94
722.27	274.27
722.60	273.58
722.93	272.86
723.26	272.19
723.59	271.51
723.93	270.86
724.26	270.19
724.59	269.55
724.92	268.92
725.25	268.40
725.59	267.83
725.92	267.28
726.25	266.69
726.58	266.10
726.91	265.50
727.24	264.92
727.57	264.33
727.91	263.68
728.24	263.13
728.57	262.53
728.90	261.96
729.23	261.32
729.56	260.89
729.89	260.32
730.22	259.74
730.55	259.16
730.89	258.61
731.22	258.05
731.55	257.55
731.88	257.03
732.21	256.46
732.54	255.90
732.87	255.36
733.20	254.91
733.53	254.42
733.86	253.94
734.19	253.46
734.52	253.06
734.85	252.82
735.18	252.35
735.51	252.01
735.84	251.61
736.17	251.24
736.50	250.67
736.83	250.54
737.16	250.15
737.49	249.77
737.82	249.37
738.15	249.00
738.48	248.59
738.81	248.18
739.14	247.78
739.47	247.37
739.80	247.04
740.13	246.65
740.46	246.24
740.79	245.84
741.12	245.49
741.45	245.09
741.78	244.63
742.11	244.36
742.44	243.96
742.77	243.61
743.10	243.27
743.43	242.92
743.75	242.31
744.08	242.26
744.41	241.92
744.74	241.59
745.07	241.20
745.40	240.89
745.73	240.65
746.06	240.32
746.39	240.04
746.71	239.65
747.04	239.29
747.37	238.99
747.70	238.73
748.03	238.39
748.36	238.11
748.68	237.75
749.01	237.38
749.34	237.06
749.67	236.73
750.00	236.43
750.33	236.29
750.65	236.03
750.98	235.45
751.31	235.23
751.64	234.93
751.97	234.80
752.29	234.52
752.62	234.16
752.95	233.89
753.28	233.61
753.60	233.38
753.93	233.23
754.26	232.99
754.59	232.71
754.91	232.47
755.24	232.24
755.57	231.99
755.90	231.74
756.22	231.51
756.55	231.26
756.88	230.99
757.20	230.66
757.53	230.42
757.86	230.20
758.19	229.98
758.51	229.80
758.84	229.47
759.17	229.29
759.49	229.13
759.82	229.04
760.15	228.92
760.47	228.74
760.80	228.49
761.13	228.36
761.45	228.17
761.78	227.99
762.11	227.80
762.43	227.61
762.76	227.46
763.08	227.32
763.41	227.16
763.74	227.03
764.06	226.85
764.39	226.68
764.71	226.50
765.04	226.36
765.37	226.19
765.69	226.08
766.02	225.93
766.34	225.76
766.67	225.56
767.00	225.40
767.32	225.35
767.65	225.38
767.97	225.20
768.30	225.09
768.62	224.98
768.95	224.84
769.27	224.78
769.60	224.68
769.92	224.52
770.25	224.37
770.57	224.22
770.90	224.09
771.22	223.97
771.55	223.88
771.87	223.75
772.20	223.64
772.52	223.66
772.85	223.76
773.17	223.66
773.50	223.56
773.82	223.48
774.15	223.30
774.47	223.03
774.80	222.92
775.12	222.83
775.45	222.71
775.77	222.62
776.09	222.51
776.42	222.40
776.74	222.37
777.07	222.27
777.39	222.18
777.72	222.08
778.04	222.02
778.36	221.92
778.69	221.80
779.01	221.74
779.33	221.49
779.66	221.22
779.98	221.12
780.31	221.01
780.63	220.99
780.95	220.95
781.28	220.86
781.60	220.75
781.92	220.62
782.25	220.57
782.57	220.51
782.89	220.40
783.22	220.31
783.54	220.18
783.86	220.14
784.19	220.05
784.51	220.09
784.83	219.99
785.16	219.93
785.48	219.90
785.80	219.84
786.12	219.81
786.45	219.71
786.77	219.65
787.09	219.57
787.42	219.42
787.74	219.37
788.06	219.30
788.38	219.26
788.71	219.19
789.03	219.15
789.35	219.11
789.67	219.07
789.99	219.02
790.32	218.96
790.64	218.92
790.96	219.05
791.28	218.89
791.61	218.84
791.93	218.83
792.25	218.78
792.57	218.87
792.89	218.80
793.21	218.77
793.54	218.70
793.86	218.65
794.18	218.63
794.50	218.51
794.82	218.48
795.14	218.47
795.47	218.47
795.79	218.42
796.11	218.33
796.43	218.25
796.75	218.24
797.07	218.20
797.39	218.16
797.71	217.96
798.04	217.93
798.36	217.89
798.68	217.81
799.00	217.77
799.32	217.66
799.64	217.65
799.96	217.62
800.28	217.63
800.60	217.59
800.92	217.57
801.24	217.54
801.56	217.55
801.89	217.50
802.21	217.47
802.53	217.42
802.85	217.45
803.17	217.54
803.49	217.43
803.81	217.40
804.13	217.34
804.45	217.27
804.77	217.28
805.09	217.25
805.41	217.17
805.73	217.11
806.05	216.97
806.37	216.91
806.69	216.83
807.01	216.77
807.33	216.79
807.65	216.67
807.97	216.72
808.28	216.63
808.60	216.59
808.92	216.57
809.24	216.65
809.56	216.59
809.88	216.48
810.20	216.49
810.52	216.49
810.84	216.48
811.16	216.44
811.48	216.39
811.80	216.45
812.12	216.44
812.43	216.46
812.75	216.47
813.07	216.44
813.39	216.46
813.71	216.42
814.03	216.34
814.35	216.33
814.67	216.22
814.98	216.22
815.30	216.20
815.62	216.14
815.94	215.98
816.26	215.96
816.58	215.92
816.89	215.92
817.21	215.86
817.53	215.81
817.85	215.86
818.17	215.85
818.48	215.74
818.80	215.78
819.12	215.73
819.44	215.69
819.76	215.65
820.07	215.61
820.39	215.62
820.71	215.60
821.03	215.55
821.34	215.53
821.66	215.53
821.98	215.50
822.30	215.48
822.61	215.58
822.93	215.53
823.25	215.49
823.57	215.46
823.88	215.49
824.20	215.50
824.52	215.49
824.83	215.44
825.15	215.40
825.47	215.39
825.79	215.37
826.10	215.33
826.42	215.28
826.74	215.32
827.05	215.30
827.37	215.30
827.69	215.31
828.00	215.31
828.32	215.28
828.64	215.27
828.95	215.35
829.27	215.28
829.58	215.26
829.90	215.28
830.22	215.27
830.53	215.17
830.85	215.13
831.17	215.06
831.48	215.05
831.80	215.02
832.11	214.98
832.43	214.96
832.75	214.97
833.06	215.13
833.38	215.04
833.69	215.02
834.01	215.04
834.32	215.05
834.64	215.04
834.96	215.06
835.27	215.04
835.59	215.00
835.90	214.97
836.22	214.97
836.53	214.94
836.85	214.91
837.16	215.15
837.48	215.15
837.79	215.19
838.11	215.17
838.42	215.21
838.74	215.24
839.05	215.23
839.37	215.22
839.68	215.04
840.00	215.05
840.31	215.08
840.63	215.03
840.94	214.98
841.26	214.96
841.57	214.93
841.88	214.95
842.20	214.88
842.51	214.86
842.83	214.86
843.14	215.03
843.46	215.03
843.77	214.90
844.08	214.89
844.40	214.83
844.71	214.84
845.03	214.78
845.34	214.73
845.65	214.74
845.97	214.74
846.28	214.76
846.60	214.74
846.91	214.71
847.22	214.69
847.54	214.71
847.85	214.70
848.16	214.66
848.48	214.60
848.79	214.68
849.10	214.67
849.42	214.66
849.73	214.47
850.04	214.48
850.36	214.41
850.67	214.45
850.98	214.48
851.30	214.47
851.61	214.47
851.92	214.46
852.23	214.48
852.55	214.47
852.86	214.44
853.17	214.44
853.49	214.47
853.80	214.52
854.11	214.56
854.42	214.57
854.74	214.59
855.05	214.62
855.36	214.51
855.67	214.49
855.99	214.48
856.30	214.69
856.61	214.68
856.92	214.67
857.23	214.63
857.55	214.59
857.86	214.57
858.17	214.62
858.48	214.61
858.79	214.58
859.11	214.58
859.42	214.63
859.73	214.61
860.04	214.59
860.35	214.54
860.66	214.46
860.98	214.43
861.29	214.46
861.60	214.42
861.91	214.45
862.22	214.43
862.53	214.40
862.84	214.15
863.16	214.21
863.47	214.17
863.78	214.16
864.09	214.20
864.40	214.20
864.71	214.21
865.02	214.23
865.33	214.21
865.64	214.19
865.95	214.18
866.27	214.31
866.58	214.29
866.89	214.32
867.20	214.34
867.51	214.32
867.82	214.27
868.13	214.35
868.44	214.32
868.75	214.37
869.06	214.40
869.37	214.44
869.68	214.35
869.99	214.41
870.30	214.45
870.61	214.43
870.92	214.41
871.23	214.40
871.54	214.41
871.85	214.43
872.16	214.46
872.47	214.46
872.78	214.35
873.09	214.34
873.40	214.32
873.71	214.31
874.02	214.35
874.33	214.34
874.64	214.31
874.95	214.33
875.26	214.29
875.56	214.26
875.87	214.23
876.18	214.25
876.49	214.44
876.80	214.37
877.11	214.35
877.42	214.34
877.73	214.30
878.04	214.24
878.35	214.26
878.66	214.23
878.96	214.20
879.27	214.20
879.58	214.19
879.89	214.15
880.20	214.20
880.51	214.15
880.82	214.17
881.12	214.18
881.43	214.15
881.74	214.11
882.05	214.11
882.36	214.15
882.67	214.16
882.97	213.93
883.28	213.94
883.59	213.93
883.90	213.96
884.21	214.02
884.51	214.01
884.82	213.98
885.13	213.99
885.44	214.01
885.74	213.99
886.05	213.97
886.36	214.00
886.67	213.94
886.98	214.05
887.28	214.05
887.59	214.02
887.90	214.03
888.20	214.04
888.51	214.04
888.82	214.02
889.13	214.01
889.43	214.18
889.74	214.18
890.05	214.16
890.35	214.14
890.66	214.11
890.97	214.12
891.28	214.13
891.58	214.13
891.89	214.13
892.20	214.11
892.50	214.13
892.81	214.09
893.12	214.07
893.42	213.97
893.73	213.99
894.04	213.99
894.34	214.00
894.65	213.99
894.95	213.98
895.26	213.97
895.57	214.11
895.87	213.91
896.18	213.94
896.48	213.98
896.79	213.99
897.10	214.02
897.40	214.02
897.71	214.04
898.01	214.05
898.32	214.05
898.63	214.06
898.93	214.08
899.24	214.10
899.54	214.07
899.85	214.08
900.15	214.08
900.46	214.08
900.76	214.11
901.07	214.10
901.38	214.10
901.68	214.13
901.99	213.98
902.29	213.98
902.60	213.93
902.90	213.92
903.21	213.89
903.51	213.86
903.82	213.90
904.12	213.87
904.43	213.85
904.73	213.83
905.03	213.82
905.34	214.01
905.64	214.00
905.95	214.00
906.25	214.00
906.56	213.95
906.86	213.95
907.17	213.92
907.47	213.92
907.77	213.90
908.08	213.85
908.38	213.87
908.69	213.86
908.99	213.92
909.30	213.89
909.60	213.89
909.90	213.90
910.21	213.85
910.51	213.82
910.81	213.84
911.12	213.85
911.42	213.85
911.73	213.63
912.03	213.65
912.33	213.69
912.64	213.70
912.94	213.69
913.24	213.66
913.55	213.67
913.85	213.68
914.15	213.77
914.46	213.77
914.76	213.75
915.06	213.74
915.37	213.69
915.67	213.69
915.97	213.69
916.27	213.62
916.58	213.65
916.88	213.62
917.18	213.59
917.49	213.74
917.79	213.70
918.09	213.70
918.39	213.79
918.70	213.78
919.00	213.77
919.30	213.86
919.60	213.85
919.91	213.85
920.21	213.85
920.51	213.76
920.81	213.76
921.12	213.81
921.42	213.83
921.72	213.85
922.02	213.86
922.32	213.87
922.63	213.90
922.93	213.99
923.23	214.03
923.53	214.03
923.83	213.86
924.13	213.91
924.44	213.93
924.74	213.90
925.04	213.96
925.34	213.98
925.64	213.93
925.94	213.93
926.24	214.01
926.55	214.00
926.85	214.04
927.15	214.06
927.45	214.02
927.75	213.97
928.05	213.97
928.35	213.96
928.65	214.01
928.95	214.04
929.26	213.95
929.56	213.99
929.86	214.01
930.16	214.01
930.46	213.98
930.76	213.97
931.06	213.91
931.36	213.81
931.66	213.86
931.96	213.85
932.26	213.85
932.56	213.77
932.86	213.76
933.16	213.77
933.46	213.72
933.76	213.73
934.06	213.81
934.36	213.90
934.66	213.89
934.96	213.87
935.26	213.86
935.56	213.90
935.86	213.82
936.16	213.79
936.46	213.79
936.76	213.80
937.06	213.76
937.36	213.78
937.66	213.82
937.96	213.78
938.26	213.75
938.56	213.72
938.86	213.75
939.16	213.80
939.46	213.80
939.76	213.82
940.06	213.78
940.35	213.75
940.65	213.63
940.95	213.65
941.25	213.60
941.55	213.58
941.85	213.56
942.15	213.63
942.45	213.68
942.75	213.64
943.04	213.65
943.34	213.74
943.64	213.75
943.94	213.71
944.24	213.71
944.54	213.70
944.84	213.71
945.13	213.67
945.43	213.62
945.73	213.61
946.03	213.59
946.33	213.61
946.62	213.59
946.92	213.59
947.22	213.58
947.52	213.61
947.82	213.63
948.11	213.58
948.41	213.51
948.71	213.48
949.01	213.54
949.31	213.52
949.60	213.45
949.90	213.43
950.20	213.44
950.50	213.45
950.79	213.46
951.09	213.49
951.39	213.47
951.69	213.49
951.98	213.55
952.28	213.58
952.58	213.53
952.87	213.51
953.17	213.56
953.47	213.53
953.76	213.50
954.06	213.48
954.36	213.44
954.66	213.43
954.95	213.48
955.25	213.49
955.55	213.50
955.84	213.51
956.14	213.52
956.44	213.52
956.73	213.49
957.03	213.51
957.32	213.53
957.62	213.52
957.92	213.52
958.21	213.46
958.51	213.71
958.81	213.76
959.10	213.85
959.40	213.88
959.69	213.89
959.99	213.94
960.29	213.95
960.58	213.99
960.88	214.07
961.17	214.05
961.47	214.04
961.76	214.03
962.06	214.06
962.36	214.02
962.65	214.03
962.95	214.01
963.24	213.98
963.54	213.97
963.83	213.99
964.13	213.98
964.42	213.94
964.72	213.73
965.01	213.74
965.31	213.69
965.60	213.65
965.90	213.79
966.19	213.74
966.49	213.76
966.78	213.79
967.08	213.76
967.37	213.75
967.67	213.72
967.96	213.74
968.26	213.74
968.55	213.81
968.85	213.82
969.14	213.85
969.43	213.84
969.73	213.81
970.02	213.81
970.32	213.81
970.61	213.82
970.91	213.78
971.20	213.71
971.49	213.68
971.79	213.69
972.08	213.55
972.38	213.53
972.67	213.51
972.96	213.51
973.26	213.49
973.55	213.56
973.85	213.55
974.14	213.57
974.43	213.56
974.73	213.51
975.02	213.50
975.31	213.48
975.61	213.49
975.90	213.50
976.19	213.47
976.49	213.50
976.78	213.52
977.07	213.47
977.37	213.49
977.66	213.52
977.95	213.50
978.24	213.51
978.54	213.58
978.83	213.55
979.12	213.56
979.42	213.57
979.71	213.54
980.00	213.53
980.29	213.52
980.59	213.47
980.88	213.52
981.17	213.53
981.46	213.53
981.76	213.54
982.05	213.61
982.34	213.61
982.63	213.66
982.93	213.66
983.22	213.77
983.51	213.79
983.80	213.81
984.09	213.82
984.39	213.81
984.68	213.79
984.97	213.82
985.26	213.81
985.55	213.82
985.85	213.76
986.14	213.79
986.43	213.81
986.72	213.78
987.01	213.72
987.30	213.69
987.59	213.67
987.89	213.65
988.18	213.56
988.47	213.57
988.76	213.50
989.05	213.48
989.34	213.42
989.63	213.49
989.92	213.49
990.22	213.48
990.51	213.47
990.80	213.45
991.09	213.48
991.38	213.47
991.67	213.43
991.96	213.39
992.25	213.40
992.54	213.37
992.83	213.40
993.12	213.40
993.41	213.44
993.70	213.54
993.99	213.58
994.28	213.63
994.58	213.65
994.87	213.60
995.16	213.62
995.45	213.60
995.74	213.48
996.03	213.46
996.32	213.48
996.61	213.53
996.90	213.54
997.19	213.50
997.48	213.54
997.77	213.51
998.06	213.58
998.34	213.54
998.63	213.53
998.92	213.54
999.21	213.58
999.50	213.56
999.79	213.46
1000.08	213.44
1000.37	213.45
1000.66	213.43
1000.95	213.50
1001.24	213.50
1001.53	213.55
1001.82	213.56
1002.11	213.52
1002.40	213.55
1002.68	213.58
1002.97	213.74
1003.26	213.73
1003.55	213.67
1003.84	213.72
1004.13	213.77
1004.42	213.79
1004.71	213.80
1004.99	213.81
1005.28	213.83
1005.57	213.83
1005.86	213.86
1006.15	213.86
1006.44	213.78
1006.72	213.81
1007.01	213.78
1007.30	213.79
1007.59	213.75
1007.88	213.75
1008.17	213.76
1008.45	213.72
1008.74	213.61
1009.03	213.47
1009.32	213.46
1009.60	213.44
1009.89	213.40
1010.18	213.31
1010.47	213.30
1010.76	213.29
1011.04	213.28
1011.33	213.29
1011.62	213.32
1011.91	213.35
1012.19	213.35
1012.48	213.38
1012.77	213.37
1013.05	213.46
1013.34	213.43
1013.63	213.44
1013.92	213.48
1014.20	213.45
1014.49	213.49
1014.78	213.50
1015.06	213.47
1015.35	213.49
1015.64	213.52
1015.92	213.57
1016.21	213.57
1016.50	213.53
1016.78	213.56
1017.07	213.57
1017.36	213.54
1017.64	213.51
1017.93	213.48
1018.22	213.49
1018.50	213.49
1018.79	213.50
1019.08	213.42
1019.36	213.45
1019.65	213.45
1019.93	213.49
1020.22	213.54
1020.51	213.63
1020.79	213.66
1021.08	213.82
1021.36	213.17
1021.65	213.80
1021.94	213.52
1022.22	213.53
1022.51	213.44
1022.79	214.66
1023.08	213.70
1023.36	215.95
1023.65	213.79
>>>>>End Processed Spectral Data<<<<<
