SpectraSuite Data File
++++++++++++++++++++++++++++++++++++
Date: Tue Jan 29 16:43:04 EST 2013
User: group
Dark Spectrum Present: No
Reference Spectrum Present: No
Number of Sampled Component Spectra: 1
Spectrometers: USB2E7196
Integration Time (usec): 65000 (USB2E7196)
Spectra Averaged: 100 (USB2E7196)
Boxcar Smoothing: 10 (USB2E7196)
Correct for Electrical Dark: No (USB2E7196)
Strobe/Lamp Enabled: No (USB2E7196)
Correct for Detector Non-linearity: No (USB2E7196)
Correct for Stray Light: No (USB2E7196)
Number of Pixels in Processed Spectrum: 2048
>>>>>Begin Processed Spectral Data<<<<<
339.09	0.00
339.48	201.46
339.86	202.76
340.24	204.86
340.63	206.01
341.01	211.00
341.39	208.58
341.78	210.08
342.16	211.23
342.54	211.83
342.93	200.84
343.31	211.00
343.69	211.53
344.07	212.01
344.46	212.45
344.84	212.85
345.22	213.02
345.60	213.31
345.99	213.55
346.37	213.71
346.75	213.85
347.13	213.94
347.52	214.04
347.90	214.20
348.28	214.25
348.66	214.34
349.05	214.32
349.43	214.39
349.81	214.48
350.19	214.57
350.57	214.66
350.96	214.77
351.34	214.87
351.72	215.02
352.10	215.15
352.48	215.21
352.87	215.27
353.25	215.33
353.63	215.39
354.01	215.44
354.39	215.49
354.77	215.56
355.15	215.71
355.54	215.77
355.92	215.72
356.30	215.81
356.68	216.01
357.06	216.09
357.44	216.13
357.82	216.22
358.20	216.28
358.58	216.34
358.97	216.41
359.35	216.51
359.73	216.61
360.11	216.66
360.49	216.73
360.87	216.79
361.25	216.86
361.63	216.94
362.01	216.98
362.39	217.04
362.77	217.10
363.15	217.12
363.53	217.15
363.91	217.18
364.29	217.23
364.67	217.05
365.05	217.07
365.43	217.14
365.81	217.14
366.19	217.22
366.57	217.32
366.95	217.31
367.33	217.26
367.71	217.24
368.09	217.27
368.47	217.27
368.85	217.25
369.23	217.28
369.61	217.22
369.99	217.27
370.37	217.25
370.75	217.30
371.13	217.25
371.51	217.20
371.89	217.23
372.27	217.20
372.65	217.23
373.03	217.22
373.41	217.18
373.78	217.16
374.16	217.05
374.54	216.92
374.92	216.86
375.30	216.84
375.68	216.76
376.06	216.71
376.44	216.62
376.82	216.59
377.19	216.53
377.57	216.51
377.95	216.37
378.33	216.30
378.71	216.14
379.09	216.13
379.47	216.11
379.84	216.01
380.22	215.97
380.60	215.88
380.98	215.79
381.36	215.75
381.73	215.65
382.11	215.62
382.49	215.63
382.87	215.54
383.25	215.51
383.62	215.71
384.00	215.63
384.38	215.62
384.76	215.62
385.13	215.67
385.51	215.60
385.89	215.54
386.27	215.54
386.64	215.57
387.02	215.49
387.40	215.44
387.78	215.42
388.15	215.35
388.53	215.31
388.91	215.31
389.29	215.27
389.66	215.27
390.04	215.22
390.42	215.23
390.79	215.24
391.17	215.22
391.55	214.97
391.92	214.96
392.30	214.96
392.68	214.90
393.05	214.87
393.43	214.89
393.81	214.92
394.18	214.86
394.56	214.83
394.94	214.87
395.31	214.84
395.69	214.91
396.06	214.97
396.44	214.98
396.82	214.99
397.19	215.09
397.57	215.11
397.95	215.18
398.32	215.11
398.70	215.18
399.07	215.26
399.45	215.29
399.82	215.35
400.20	215.37
400.58	215.43
400.95	215.40
401.33	215.51
401.70	215.71
402.08	215.83
402.45	215.92
402.83	216.07
403.20	216.21
403.58	216.30
403.95	216.46
404.33	216.67
404.71	216.83
405.08	217.11
405.46	217.27
405.83	217.43
406.21	217.65
406.58	217.87
406.96	218.08
407.33	218.35
407.70	218.64
408.08	219.14
408.45	219.49
408.83	219.89
409.20	220.22
409.58	220.50
409.95	220.99
410.33	221.47
410.70	221.92
411.08	222.47
411.45	223.05
411.82	223.63
412.20	224.30
412.57	225.12
412.95	225.66
413.32	226.51
413.69	227.40
414.07	228.31
414.44	229.33
414.82	230.38
415.19	231.56
415.56	232.76
415.94	233.92
416.31	235.34
416.68	236.74
417.06	238.38
417.43	239.96
417.81	241.71
418.18	243.52
418.55	245.48
418.93	247.54
419.30	249.64
419.67	251.84
420.04	254.11
420.42	256.50
420.79	259.37
421.16	262.16
421.54	265.08
421.91	268.09
422.28	271.16
422.66	274.44
423.03	277.70
423.40	281.08
423.77	284.73
424.15	288.45
424.52	292.26
424.89	296.41
425.26	300.46
425.64	304.34
426.01	308.64
426.38	313.08
426.75	317.62
427.13	322.42
427.50	327.46
427.87	332.74
428.24	338.03
428.61	343.04
428.99	348.58
429.36	354.60
429.73	360.49
430.10	366.35
430.47	372.48
430.85	378.86
431.22	385.54
431.59	392.61
431.96	399.42
432.33	406.97
432.70	414.23
433.08	422.83
433.45	430.92
433.82	438.92
434.19	447.88
434.56	456.63
434.93	464.93
435.30	473.29
435.68	482.40
436.05	491.34
436.42	500.32
436.79	508.46
437.16	517.18
437.53	526.54
437.90	535.81
438.27	544.78
438.64	554.06
439.01	562.67
439.38	570.29
439.75	577.74
440.13	586.20
440.50	594.18
440.87	600.59
441.24	607.25
441.61	614.66
441.98	620.06
442.35	626.38
442.72	632.76
443.09	638.81
443.46	642.59
443.83	645.14
444.20	647.36
444.57	650.53
444.94	652.12
445.31	653.53
445.68	654.88
446.05	655.55
446.42	654.70
446.79	653.75
447.16	652.70
447.53	651.89
447.90	648.58
448.27	645.36
448.64	640.76
449.01	637.45
449.37	631.55
449.74	625.88
450.11	618.95
450.48	611.52
450.85	604.04
451.22	597.52
451.59	591.35
451.96	585.44
452.33	577.61
452.70	570.40
453.07	561.93
453.43	553.32
453.80	544.99
454.17	536.99
454.54	529.43
454.91	521.24
455.28	513.17
455.65	505.73
456.02	498.10
456.38	491.73
456.75	483.78
457.12	477.15
457.49	470.61
457.86	464.42
458.23	459.03
458.59	453.06
458.96	447.02
459.33	441.68
459.70	436.26
460.07	431.92
460.43	427.00
460.80	422.40
461.17	418.39
461.54	414.14
461.91	410.06
462.27	405.90
462.64	402.41
463.01	398.65
463.38	394.95
463.74	391.27
464.11	387.98
464.48	385.16
464.85	382.07
465.21	379.60
465.58	376.94
465.95	373.77
466.32	371.12
466.68	368.51
467.05	365.94
467.42	363.37
467.78	360.69
468.15	358.12
468.52	356.17
468.88	353.63
469.25	351.43
469.62	349.64
469.98	347.65
470.35	345.86
470.72	344.15
471.08	342.30
471.45	340.78
471.82	339.25
472.18	337.53
472.55	336.28
472.92	334.89
473.28	333.66
473.65	332.52
474.02	331.42
474.38	330.53
474.75	329.70
475.11	328.88
475.48	328.28
475.85	327.79
476.21	327.30
476.58	326.96
476.94	326.70
477.31	326.38
477.67	326.18
478.04	325.95
478.41	325.85
478.77	326.04
479.14	325.97
479.50	326.10
479.87	326.45
480.23	326.82
480.60	327.07
480.96	327.36
481.33	327.97
481.69	328.50
482.06	328.99
482.42	329.46
482.79	330.08
483.15	330.87
483.52	331.84
483.88	332.70
484.25	333.59
484.61	334.61
484.98	335.62
485.34	336.90
485.71	338.33
486.07	339.80
486.44	341.11
486.80	342.78
487.17	344.49
487.53	346.33
487.90	348.18
488.26	350.21
488.62	352.36
488.99	354.37
489.35	356.59
489.72	358.99
490.08	361.57
490.44	364.13
490.81	366.82
491.17	369.49
491.54	372.47
491.90	375.56
492.26	378.76
492.63	382.22
492.99	385.71
493.36	389.37
493.72	393.26
494.08	397.27
494.45	401.49
494.81	405.82
495.17	410.22
495.54	414.93
495.90	419.74
496.26	424.66
496.63	429.89
496.99	435.29
497.35	440.85
497.72	446.65
498.08	452.63
498.44	458.76
498.80	465.25
499.17	471.79
499.53	478.45
499.89	485.37
500.26	492.33
500.62	499.47
500.98	506.89
501.34	514.35
501.71	522.11
502.07	529.85
502.43	537.82
502.79	545.98
503.16	554.35
503.52	562.94
503.88	571.69
504.24	580.61
504.60	589.66
504.97	598.92
505.33	608.22
505.69	618.10
506.05	628.01
506.41	637.89
506.78	647.90
507.14	658.17
507.50	668.68
507.86	679.44
508.22	690.24
508.59	700.93
508.95	711.95
509.31	723.28
509.67	734.79
510.03	746.20
510.39	757.93
510.75	769.74
511.12	781.66
511.48	793.75
511.84	806.00
512.20	818.35
512.56	830.99
512.92	843.81
513.28	856.39
513.64	869.12
514.00	881.93
514.37	895.02
514.73	908.16
515.09	921.18
515.45	934.11
515.81	947.08
516.17	960.49
516.53	973.78
516.89	986.84
517.25	1000.08
517.61	1013.66
517.97	1027.15
518.33	1040.38
518.69	1054.02
519.05	1067.83
519.41	1081.68
519.77	1095.67
520.13	1109.02
520.49	1122.25
520.85	1135.76
521.21	1149.21
521.57	1162.95
521.93	1176.04
522.29	1189.85
522.65	1203.51
523.01	1217.25
523.37	1230.61
523.73	1243.97
524.09	1257.29
524.45	1270.75
524.81	1284.37
525.17	1297.84
525.53	1311.11
525.89	1324.54
526.25	1337.70
526.61	1350.60
526.97	1363.73
527.33	1376.74
527.68	1390.29
528.04	1403.85
528.40	1416.98
528.76	1430.44
529.12	1443.39
529.48	1456.74
529.84	1469.07
530.20	1481.88
530.56	1494.46
530.91	1507.76
531.27	1520.63
531.63	1533.43
531.99	1546.43
532.35	1558.71
532.71	1571.19
533.07	1584.13
533.42	1596.58
533.78	1608.79
534.14	1620.86
534.50	1632.22
534.86	1643.84
535.21	1654.80
535.57	1666.47
535.93	1677.91
536.29	1689.04
536.65	1700.60
537.00	1711.68
537.36	1723.22
537.72	1734.32
538.08	1745.80
538.44	1756.97
538.79	1768.38
539.15	1779.46
539.51	1790.24
539.87	1801.61
540.22	1812.45
540.58	1823.57
540.94	1834.40
541.29	1844.82
541.65	1854.74
542.01	1865.18
542.37	1875.35
542.72	1885.63
543.08	1895.32
543.44	1906.01
543.79	1915.30
544.15	1924.85
544.51	1934.90
544.87	1944.87
545.22	1954.21
545.58	1963.22
545.94	1972.18
546.29	1980.56
546.65	1988.96
547.01	1997.36
547.36	2005.12
547.72	2012.99
548.07	2020.51
548.43	2028.38
548.79	2036.27
549.14	2044.56
549.50	2053.20
549.86	2061.17
550.21	2068.62
550.57	2076.56
550.92	2083.28
551.28	2090.97
551.64	2098.30
551.99	2105.78
552.35	2113.02
552.70	2119.95
553.06	2126.66
553.41	2132.95
553.77	2139.59
554.13	2146.01
554.48	2153.01
554.84	2160.31
555.19	2166.91
555.55	2173.51
555.90	2179.76
556.26	2186.60
556.61	2192.76
556.97	2197.67
557.32	2203.44
557.68	2209.82
558.03	2215.47
558.39	2220.87
558.74	2226.77
559.10	2232.33
559.45	2237.86
559.81	2243.49
560.16	2248.95
560.52	2254.79
560.87	2261.09
561.23	2266.91
561.58	2273.55
561.94	2278.74
562.29	2283.33
562.64	2289.37
563.00	2294.98
563.35	2300.49
563.71	2306.13
564.06	2311.69
564.42	2317.43
564.77	2322.61
565.12	2328.00
565.48	2333.13
565.83	2338.59
566.19	2343.92
566.54	2349.26
566.89	2353.97
567.25	2358.41
567.60	2364.20
567.96	2369.26
568.31	2373.70
568.66	2378.00
569.02	2381.68
569.37	2385.40
569.72	2389.73
570.08	2393.16
570.43	2396.04
570.78	2399.24
571.14	2401.71
571.49	2404.83
571.84	2408.48
572.20	2411.27
572.55	2414.12
572.90	2416.31
573.26	2418.99
573.61	2421.50
573.96	2423.54
574.31	2425.57
574.67	2427.31
575.02	2427.82
575.37	2429.17
575.72	2429.76
576.08	2431.03
576.43	2431.20
576.78	2431.42
577.13	2432.81
577.49	2433.90
577.84	2434.79
578.19	2435.91
578.54	2436.39
578.90	2436.85
579.25	2436.48
579.60	2436.17
579.95	2435.29
580.30	2435.17
580.66	2434.34
581.01	2432.49
581.36	2429.79
581.71	2428.20
582.06	2426.81
582.42	2425.93
582.77	2423.47
583.12	2421.89
583.47	2420.45
583.82	2419.61
584.17	2418.36
584.53	2416.03
584.88	2413.89
585.23	2411.97
585.58	2409.54
585.93	2407.43
586.28	2405.25
586.63	2402.63
586.98	2400.25
587.34	2398.12
587.69	2395.63
588.04	2393.39
588.39	2391.87
588.74	2389.37
589.09	2386.43
589.44	2383.30
589.79	2380.58
590.14	2378.56
590.49	2375.43
590.84	2371.36
591.19	2368.07
591.54	2364.65
591.89	2360.55
592.25	2357.13
592.60	2352.92
592.95	2348.66
593.30	2344.41
593.65	2339.87
594.00	2335.37
594.35	2332.16
594.70	2327.45
595.05	2322.75
595.40	2317.25
595.75	2311.30
596.10	2307.70
596.45	2302.77
596.80	2298.01
597.15	2292.67
597.50	2286.74
597.85	2281.87
598.19	2276.64
598.54	2270.90
598.89	2265.52
599.24	2260.83
599.59	2254.48
599.94	2248.64
600.29	2242.50
600.64	2236.45
600.99	2229.47
601.34	2223.96
601.69	2217.07
602.04	2210.59
602.39	2203.90
602.74	2197.76
603.08	2192.13
603.43	2185.50
603.78	2178.64
604.13	2171.56
604.48	2164.35
604.83	2158.14
605.18	2151.76
605.53	2144.76
605.87	2137.69
606.22	2130.88
606.57	2123.05
606.92	2115.22
607.27	2108.06
607.62	2101.45
607.96	2094.49
608.31	2088.08
608.66	2080.31
609.01	2072.62
609.36	2065.39
609.70	2057.69
610.05	2049.82
610.40	2041.61
610.75	2033.31
611.10	2025.57
611.44	2016.58
611.79	2007.84
612.14	1997.83
612.49	1987.25
612.83	1977.92
613.18	1968.60
613.53	1959.41
613.88	1949.77
614.22	1941.05
614.57	1931.21
614.92	1920.54
615.27	1910.31
615.61	1900.12
615.96	1890.45
616.31	1880.98
616.65	1871.68
617.00	1862.14
617.35	1852.48
617.70	1842.79
618.04	1832.75
618.39	1822.58
618.74	1812.94
619.08	1803.34
619.43	1794.78
619.78	1786.57
620.12	1778.01
620.47	1768.55
620.82	1758.17
621.16	1748.45
621.51	1738.66
621.85	1728.97
622.20	1718.71
622.55	1708.11
622.89	1698.24
623.24	1688.63
623.59	1678.79
623.93	1668.67
624.28	1658.66
624.62	1648.66
624.97	1638.50
625.32	1628.82
625.66	1619.90
626.01	1611.27
626.35	1601.93
626.70	1591.89
627.04	1581.79
627.39	1571.69
627.73	1562.46
628.08	1553.50
628.43	1543.98
628.77	1534.77
629.12	1525.73
629.46	1517.96
629.81	1509.83
630.15	1500.51
630.50	1490.79
630.84	1480.37
631.19	1470.57
631.53	1461.45
631.88	1451.33
632.22	1441.29
632.57	1431.97
632.91	1422.07
633.26	1412.20
633.60	1402.71
633.95	1393.50
634.29	1384.02
634.64	1374.77
634.98	1364.81
635.32	1355.76
635.67	1347.47
636.01	1338.21
636.36	1328.59
636.70	1319.19
637.05	1309.74
637.39	1300.84
637.73	1292.13
638.08	1284.65
638.42	1276.46
638.77	1267.75
639.11	1259.55
639.45	1251.82
639.80	1243.33
640.14	1234.59
640.49	1225.85
640.83	1217.08
641.17	1208.95
641.52	1200.95
641.86	1192.54
642.20	1184.76
642.55	1176.09
642.89	1167.08
643.23	1158.57
643.58	1150.61
643.92	1141.57
644.26	1132.92
644.61	1124.43
644.95	1115.63
645.29	1106.50
645.64	1097.31
645.98	1088.83
646.32	1081.02
646.66	1072.55
647.01	1064.19
647.35	1056.07
647.69	1047.81
648.04	1039.53
648.38	1030.64
648.72	1021.82
649.06	1013.30
649.41	1005.13
649.75	997.17
650.09	989.39
650.43	981.34
650.78	972.95
651.12	965.35
651.46	957.91
651.80	950.71
652.14	943.45
652.49	935.88
652.83	928.68
653.17	920.96
653.51	913.26
653.85	906.04
654.20	898.81
654.54	891.41
654.88	884.11
655.22	876.91
655.56	869.92
655.90	863.16
656.25	856.42
656.59	849.55
656.93	842.57
657.27	835.37
657.61	828.33
657.95	822.25
658.29	816.31
658.64	810.20
658.98	803.77
659.32	797.33
659.66	790.97
660.00	784.56
660.34	778.53
660.68	772.37
661.02	766.01
661.36	760.03
661.70	754.27
662.05	748.69
662.39	743.16
662.73	737.81
663.07	732.43
663.41	726.82
663.75	721.07
664.09	715.33
664.43	709.89
664.77	704.56
665.11	698.72
665.45	692.75
665.79	686.94
666.13	681.19
666.47	675.60
666.81	670.20
667.15	664.77
667.49	659.54
667.83	654.34
668.17	649.10
668.51	643.94
668.85	638.94
669.19	634.01
669.53	628.94
669.87	623.72
670.21	618.95
670.55	614.32
670.89	609.82
671.23	605.50
671.57	601.10
671.91	596.77
672.25	592.55
672.58	588.38
672.92	584.32
673.26	580.35
673.60	576.43
673.94	572.62
674.28	569.06
674.62	565.30
674.96	561.47
675.30	557.88
675.64	554.17
675.97	550.53
676.31	546.86
676.65	543.30
676.99	539.87
677.33	536.01
677.67	532.20
678.01	528.31
678.34	524.62
678.68	521.07
679.02	517.46
679.36	513.78
679.70	510.16
680.04	506.50
680.37	503.02
680.71	499.71
681.05	496.55
681.39	493.18
681.73	489.97
682.06	486.92
682.40	483.85
682.74	480.69
683.08	477.44
683.42	474.18
683.75	471.12
684.09	468.09
684.43	465.21
684.77	462.33
685.10	459.49
685.44	456.57
685.78	453.63
686.12	450.84
686.45	448.11
686.79	445.41
687.13	442.91
687.46	440.28
687.80	437.54
688.14	434.60
688.48	431.95
688.81	429.24
689.15	426.65
689.49	424.00
689.82	421.38
690.16	418.76
690.50	416.35
690.83	413.84
691.17	411.21
691.51	408.73
691.84	406.39
692.18	404.15
692.52	401.88
692.85	399.71
693.19	397.49
693.52	395.32
693.86	393.05
694.20	390.82
694.53	388.62
694.87	386.43
695.21	384.25
695.54	382.06
695.88	379.86
696.21	377.60
696.55	375.43
696.88	373.39
697.22	371.40
697.56	369.48
697.89	367.59
698.23	365.82
698.56	363.95
698.90	362.18
699.23	360.24
699.57	358.36
699.90	356.39
700.24	354.49
700.58	352.65
700.91	350.94
701.25	349.34
701.58	347.74
701.92	346.07
702.25	344.49
702.59	342.88
702.92	341.34
703.26	339.79
703.59	338.28
703.93	336.95
704.26	335.46
704.60	333.89
704.93	332.36
705.26	330.81
705.60	329.34
705.93	327.80
706.27	326.45
706.60	325.15
706.94	323.97
707.27	322.67
707.61	321.31
707.94	319.96
708.27	318.40
708.61	316.88
708.94	315.50
709.28	314.19
709.61	312.88
709.94	311.66
710.28	310.38
710.61	309.19
710.95	307.77
711.28	306.71
711.61	305.54
711.95	304.41
712.28	303.20
712.61	302.00
712.95	300.94
713.28	299.90
713.61	298.73
713.95	297.57
714.28	296.50
714.61	295.46
714.95	294.45
715.28	293.46
715.61	292.45
715.95	291.44
716.28	290.45
716.61	289.48
716.95	288.45
717.28	287.53
717.61	286.52
717.94	285.60
718.28	284.53
718.61	283.59
718.94	282.63
719.27	281.78
719.61	280.97
719.94	280.07
720.27	279.08
720.60	278.20
720.94	277.35
721.27	276.58
721.60	275.89
721.93	275.09
722.27	274.43
722.60	273.76
722.93	273.06
723.26	272.42
723.59	271.72
723.93	271.08
724.26	270.44
724.59	269.82
724.92	269.24
725.25	268.68
725.59	268.11
725.92	267.58
726.25	267.01
726.58	266.40
726.91	265.78
727.24	265.21
727.57	264.61
727.91	263.99
728.24	263.41
728.57	262.75
728.90	262.20
729.23	261.54
729.56	261.09
729.89	260.53
730.22	259.94
730.55	259.39
730.89	258.81
731.22	258.24
731.55	257.72
731.88	257.18
732.21	256.61
732.54	256.06
732.87	255.55
733.20	255.04
733.53	254.59
733.86	254.13
734.19	253.64
734.52	253.27
734.85	252.99
735.18	252.52
735.51	252.18
735.84	251.75
736.17	251.41
736.50	250.86
736.83	250.72
737.16	250.29
737.49	249.90
737.82	249.50
738.15	249.13
738.48	248.72
738.81	248.33
739.14	247.91
739.47	247.51
739.80	247.14
740.13	246.78
740.46	246.38
740.79	245.98
741.12	245.64
741.45	245.25
741.78	244.78
742.11	244.52
742.44	244.13
742.77	243.85
743.10	243.47
743.43	243.12
743.75	242.53
744.08	242.48
744.41	242.13
744.74	241.77
745.07	241.37
745.40	241.04
745.73	240.77
746.06	240.46
746.39	240.20
746.71	239.81
747.04	239.46
747.37	239.15
747.70	238.89
748.03	238.54
748.36	238.24
748.68	237.93
749.01	237.50
749.34	237.21
749.67	236.89
750.00	236.63
750.33	236.48
750.65	236.23
750.98	235.73
751.31	235.46
751.64	235.24
751.97	235.13
752.29	234.89
752.62	234.52
752.95	234.25
753.28	233.96
753.60	233.73
753.93	233.57
754.26	233.31
754.59	233.02
754.91	232.77
755.24	232.53
755.57	232.29
755.90	232.12
756.22	231.86
756.55	231.58
756.88	231.34
757.20	230.97
757.53	230.70
757.86	230.45
758.19	230.30
758.51	230.11
758.84	229.80
759.17	229.58
759.49	229.41
759.82	229.32
760.15	229.16
760.47	228.98
760.80	228.71
761.13	228.60
761.45	228.40
761.78	228.23
762.11	228.06
762.43	227.87
762.76	227.67
763.08	227.53
763.41	227.43
763.74	227.28
764.06	227.12
764.39	226.98
764.71	226.85
765.04	226.64
765.37	226.48
765.69	226.33
766.02	226.17
766.34	226.03
766.67	225.81
767.00	225.69
767.32	225.69
767.65	225.71
767.97	225.53
768.30	225.42
768.62	225.29
768.95	225.14
769.27	225.02
769.60	224.91
769.92	224.73
770.25	224.56
770.57	224.38
770.90	224.26
771.22	224.08
771.55	223.96
771.87	223.86
772.20	223.73
772.52	223.77
772.85	223.92
773.17	223.81
773.50	223.67
773.82	223.55
774.15	223.34
774.47	223.10
774.80	222.97
775.12	222.87
775.45	222.78
775.77	222.71
776.09	222.64
776.42	222.55
776.74	222.53
777.07	222.42
777.39	222.36
777.72	222.27
778.04	222.26
778.36	222.16
778.69	222.08
779.01	222.01
779.33	221.74
779.66	221.44
779.98	221.34
780.31	221.28
780.63	221.27
780.95	221.22
781.28	221.15
781.60	221.05
781.92	220.98
782.25	220.92
782.57	220.84
782.89	220.74
783.22	220.66
783.54	220.59
783.86	220.57
784.19	220.49
784.51	220.49
784.83	220.38
785.16	220.29
785.48	220.24
785.80	220.18
786.12	220.13
786.45	220.03
786.77	219.99
787.09	219.93
787.42	219.80
787.74	219.71
788.06	219.68
788.38	219.65
788.71	219.55
789.03	219.48
789.35	219.45
789.67	219.39
789.99	219.35
790.32	219.27
790.64	219.23
790.96	219.34
791.28	219.22
791.61	219.17
791.93	219.15
792.25	219.09
792.57	219.18
792.89	219.12
793.21	219.12
793.54	219.05
793.86	218.99
794.18	218.94
794.50	218.91
794.82	218.82
795.14	218.79
795.47	218.77
795.79	218.71
796.11	218.64
796.43	218.58
796.75	218.54
797.07	218.49
797.39	218.40
797.71	218.22
798.04	218.20
798.36	218.17
798.68	218.08
799.00	218.04
799.32	217.89
799.64	217.87
799.96	217.82
800.28	217.80
800.60	217.76
800.92	217.72
801.24	217.64
801.56	217.64
801.89	217.61
802.21	217.62
802.53	217.57
802.85	217.56
803.17	217.65
803.49	217.56
803.81	217.53
804.13	217.51
804.45	217.43
804.77	217.39
805.09	217.36
805.41	217.33
805.73	217.28
806.05	217.21
806.37	217.18
806.69	217.12
807.01	217.07
807.33	217.06
807.65	216.97
807.97	217.02
808.28	216.94
808.60	216.88
808.92	216.81
809.24	216.89
809.56	216.84
809.88	216.73
810.20	216.73
810.52	216.73
810.84	216.69
811.16	216.66
811.48	216.63
811.80	216.65
812.12	216.66
812.43	216.66
812.75	216.65
813.07	216.60
813.39	216.62
813.71	216.58
814.03	216.55
814.35	216.53
814.67	216.46
814.98	216.43
815.30	216.42
815.62	216.38
815.94	216.23
816.26	216.21
816.58	216.14
816.89	216.15
817.21	216.08
817.53	216.07
817.85	216.08
818.17	216.07
818.48	216.00
818.80	216.00
819.12	215.93
819.44	215.87
819.76	215.84
820.07	215.82
820.39	215.81
820.71	215.80
821.03	215.84
821.34	215.81
821.66	215.83
821.98	215.83
822.30	215.80
822.61	215.92
822.93	215.89
823.25	215.87
823.57	215.82
823.88	215.87
824.20	215.84
824.52	215.85
824.83	215.83
825.15	215.81
825.47	215.78
825.79	215.81
826.10	215.78
826.42	215.75
826.74	215.78
827.05	215.77
827.37	215.77
827.69	215.73
828.00	215.71
828.32	215.70
828.64	215.70
828.95	215.79
829.27	215.71
829.58	215.70
829.90	215.74
830.22	215.74
830.53	215.68
830.85	215.67
831.17	215.65
831.48	215.64
831.80	215.64
832.11	215.63
832.43	215.61
832.75	215.62
833.06	215.75
833.38	215.66
833.69	215.65
834.01	215.63
834.32	215.58
834.64	215.55
834.96	215.55
835.27	215.52
835.59	215.44
835.90	215.40
836.22	215.38
836.53	215.32
836.85	215.30
837.16	215.48
837.48	215.46
837.79	215.49
838.11	215.48
838.42	215.46
838.74	215.49
839.05	215.44
839.37	215.42
839.68	215.25
840.00	215.25
840.31	215.25
840.63	215.24
840.94	215.24
841.26	215.21
841.57	215.21
841.88	215.22
842.20	215.19
842.51	215.17
842.83	215.17
843.14	215.34
843.46	215.36
843.77	215.23
844.08	215.21
844.40	215.15
844.71	215.12
845.03	215.08
845.34	215.03
845.65	215.02
845.97	215.02
846.28	215.07
846.60	215.07
846.91	215.03
847.22	215.02
847.54	215.04
847.85	215.03
848.16	214.96
848.48	214.92
848.79	215.01
849.10	215.02
849.42	215.02
849.73	214.82
850.04	214.74
850.36	214.69
850.67	214.72
850.98	214.72
851.30	214.72
851.61	214.72
851.92	214.70
852.23	214.76
852.55	214.77
852.86	214.76
853.17	214.75
853.49	214.80
853.80	214.81
854.11	214.83
854.42	214.85
854.74	214.85
855.05	214.84
855.36	214.72
855.67	214.73
855.99	214.74
856.30	214.99
856.61	215.00
856.92	215.00
857.23	214.97
857.55	214.96
857.86	214.98
858.17	215.04
858.48	214.99
858.79	214.95
859.11	214.97
859.42	214.95
859.73	214.92
860.04	214.94
860.35	214.92
860.66	214.88
860.98	214.88
861.29	214.94
861.60	214.94
861.91	214.98
862.22	214.94
862.53	214.90
862.84	214.67
863.16	214.73
863.47	214.71
863.78	214.74
864.09	214.74
864.40	214.73
864.71	214.72
865.02	214.79
865.33	214.76
865.64	214.71
865.95	214.66
866.27	214.83
866.58	214.79
866.89	214.77
867.20	214.76
867.51	214.75
867.82	214.70
868.13	214.76
868.44	214.71
868.75	214.76
869.06	214.79
869.37	214.81
869.68	214.76
869.99	214.78
870.30	214.78
870.61	214.77
870.92	214.74
871.23	214.70
871.54	214.71
871.85	214.80
872.16	214.83
872.47	214.86
872.78	214.73
873.09	214.75
873.40	214.76
873.71	214.77
874.02	214.77
874.33	214.76
874.64	214.73
874.95	214.76
875.26	214.69
875.56	214.66
875.87	214.64
876.18	214.60
876.49	214.80
876.80	214.77
877.11	214.74
877.42	214.76
877.73	214.76
878.04	214.71
878.35	214.69
878.66	214.67
878.96	214.64
879.27	214.61
879.58	214.57
879.89	214.55
880.20	214.61
880.51	214.59
880.82	214.59
881.12	214.60
881.43	214.54
881.74	214.53
882.05	214.53
882.36	214.52
882.67	214.55
882.97	214.30
883.28	214.27
883.59	214.28
883.90	214.31
884.21	214.33
884.51	214.30
884.82	214.26
885.13	214.24
885.44	214.24
885.74	214.24
886.05	214.24
886.36	214.24
886.67	214.15
886.98	214.23
887.28	214.25
887.59	214.22
887.90	214.27
888.20	214.28
888.51	214.34
888.82	214.31
889.13	214.32
889.43	214.48
889.74	214.44
890.05	214.44
890.35	214.43
890.66	214.40
890.97	214.38
891.28	214.34
891.58	214.37
891.89	214.37
892.20	214.34
892.50	214.33
892.81	214.29
893.12	214.28
893.42	214.20
893.73	214.19
894.04	214.18
894.34	214.18
894.65	214.17
894.95	214.12
895.26	214.13
895.57	214.19
895.87	214.00
896.18	214.08
896.48	214.09
896.79	214.04
897.10	214.07
897.40	214.14
897.71	214.21
898.01	214.20
898.32	214.25
898.63	214.26
898.93	214.26
899.24	214.28
899.54	214.31
899.85	214.30
900.15	214.29
900.46	214.28
900.76	214.31
901.07	214.30
901.38	214.31
901.68	214.35
901.99	214.28
902.29	214.28
902.60	214.23
902.90	214.22
903.21	214.24
903.51	214.25
903.82	214.27
904.12	214.26
904.43	214.26
904.73	214.22
905.03	214.22
905.34	214.42
905.64	214.42
905.95	214.42
906.25	214.44
906.56	214.46
906.86	214.50
907.17	214.47
907.47	214.50
907.77	214.48
908.08	214.45
908.38	214.49
908.69	214.53
908.99	214.58
909.30	214.58
909.60	214.58
909.90	214.56
910.21	214.48
910.51	214.44
910.81	214.44
911.12	214.48
911.42	214.47
911.73	214.27
912.03	214.29
912.33	214.32
912.64	214.31
912.94	214.28
913.24	214.24
913.55	214.22
913.85	214.19
914.15	214.24
914.46	214.23
914.76	214.18
915.06	214.15
915.37	214.11
915.67	214.10
915.97	214.09
916.27	214.05
916.58	214.08
916.88	214.08
917.18	214.08
917.49	214.20
917.79	214.19
918.09	214.21
918.39	214.25
918.70	214.24
919.00	214.23
919.30	214.32
919.60	214.29
919.91	214.28
920.21	214.29
920.51	214.23
920.81	214.24
921.12	214.30
921.42	214.28
921.72	214.29
922.02	214.26
922.32	214.28
922.63	214.29
922.93	214.35
923.23	214.35
923.53	214.29
923.83	214.15
924.13	214.16
924.44	214.16
924.74	214.18
925.04	214.24
925.34	214.23
925.64	214.14
925.94	214.16
926.24	214.28
926.55	214.27
926.85	214.31
927.15	214.31
927.45	214.28
927.75	214.27
928.05	214.30
928.35	214.31
928.65	214.35
928.95	214.37
929.26	214.31
929.56	214.34
929.86	214.41
930.16	214.39
930.46	214.37
930.76	214.40
931.06	214.29
931.36	214.20
931.66	214.26
931.96	214.32
932.26	214.34
932.56	214.24
932.86	214.26
933.16	214.24
933.46	214.25
933.76	214.22
934.06	214.29
934.36	214.33
934.66	214.33
934.96	214.29
935.26	214.30
935.56	214.34
935.86	214.30
936.16	214.28
936.46	214.26
936.76	214.26
937.06	214.24
937.36	214.26
937.66	214.28
937.96	214.22
938.26	214.13
938.56	214.09
938.86	214.11
939.16	214.15
939.46	214.16
939.76	214.14
940.06	214.15
940.35	214.10
940.65	213.99
940.95	214.03
941.25	213.97
941.55	213.95
941.85	213.93
942.15	213.98
942.45	214.01
942.75	214.01
943.04	214.04
943.34	214.05
943.64	214.04
943.94	214.00
944.24	214.01
944.54	214.07
944.84	214.07
945.13	214.05
945.43	213.98
945.73	213.96
946.03	213.93
946.33	213.94
946.62	213.93
946.92	213.93
947.22	213.94
947.52	213.98
947.82	213.99
948.11	213.98
948.41	213.92
948.71	213.86
949.01	213.86
949.31	213.86
949.60	213.81
949.90	213.83
950.20	213.85
950.50	213.85
950.79	213.81
951.09	213.84
951.39	213.83
951.69	213.84
951.98	213.88
952.28	213.93
952.58	213.92
952.87	213.96
953.17	213.98
953.47	213.94
953.76	213.95
954.06	213.92
954.36	213.87
954.66	213.86
954.95	213.93
955.25	213.97
955.55	213.96
955.84	213.96
956.14	213.99
956.44	213.99
956.73	213.96
957.03	214.01
957.32	214.03
957.62	214.02
957.92	214.05
958.21	214.03
958.51	214.25
958.81	214.24
959.10	214.25
959.40	214.30
959.69	214.29
959.99	214.29
960.29	214.29
960.58	214.30
960.88	214.38
961.17	214.34
961.47	214.35
961.76	214.31
962.06	214.35
962.36	214.34
962.65	214.36
962.95	214.37
963.24	214.34
963.54	214.33
963.83	214.34
964.13	214.36
964.42	214.30
964.72	214.12
965.01	214.12
965.31	214.08
965.60	214.04
965.90	214.21
966.19	214.16
966.49	214.16
966.78	214.19
967.08	214.18
967.37	214.19
967.67	214.14
967.96	214.19
968.26	214.18
968.55	214.22
968.85	214.20
969.14	214.20
969.43	214.16
969.73	214.13
970.02	214.14
970.32	214.14
970.61	214.16
970.91	214.10
971.20	214.08
971.49	214.07
971.79	214.08
972.08	213.93
972.38	213.95
972.67	213.91
972.96	213.95
973.26	213.87
973.55	213.92
973.85	213.92
974.14	213.92
974.43	213.92
974.73	213.86
975.02	213.80
975.31	213.78
975.61	213.79
975.90	213.80
976.19	213.77
976.49	213.74
976.78	213.71
977.07	213.74
977.37	213.74
977.66	213.77
977.95	213.78
978.24	213.76
978.54	213.80
978.83	213.82
979.12	213.77
979.42	213.82
979.71	213.77
980.00	213.80
980.29	213.78
980.59	213.77
980.88	213.85
981.17	213.86
981.46	213.90
981.76	213.92
982.05	213.96
982.34	213.97
982.63	213.98
982.93	214.00
983.22	214.03
983.51	214.04
983.80	214.06
984.09	214.07
984.39	214.05
984.68	214.00
984.97	214.01
985.26	213.99
985.55	214.00
985.85	213.97
986.14	213.96
986.43	214.01
986.72	213.96
987.01	213.88
987.30	213.87
987.59	213.82
987.89	213.82
988.18	213.76
988.47	213.72
988.76	213.71
989.05	213.69
989.34	213.65
989.63	213.69
989.92	213.65
990.22	213.63
990.51	213.65
990.80	213.65
991.09	213.70
991.38	213.73
991.67	213.71
991.96	213.71
992.25	213.71
992.54	213.62
992.83	213.64
993.12	213.64
993.41	213.70
993.70	213.82
993.99	213.84
994.28	213.87
994.58	213.93
994.87	213.93
995.16	213.93
995.45	213.91
995.74	213.85
996.03	213.85
996.32	213.88
996.61	213.93
996.90	213.94
997.19	213.91
997.48	213.92
997.77	213.88
998.06	213.90
998.34	213.89
998.63	213.88
998.92	213.88
999.21	213.91
999.50	213.88
999.79	213.80
1000.08	213.79
1000.37	213.80
1000.66	213.74
1000.95	213.77
1001.24	213.78
1001.53	213.80
1001.82	213.79
1002.11	213.77
1002.40	213.77
1002.68	213.79
1002.97	213.92
1003.26	213.89
1003.55	213.85
1003.84	213.87
1004.13	213.92
1004.42	213.92
1004.71	213.98
1004.99	213.99
1005.28	214.01
1005.57	214.01
1005.86	213.98
1006.15	213.98
1006.44	213.92
1006.72	213.96
1007.01	213.93
1007.30	213.94
1007.59	213.94
1007.88	213.95
1008.17	213.96
1008.45	213.92
1008.74	213.83
1009.03	213.74
1009.32	213.73
1009.60	213.74
1009.89	213.70
1010.18	213.60
1010.47	213.58
1010.76	213.56
1011.04	213.55
1011.33	213.59
1011.62	213.61
1011.91	213.64
1012.19	213.65
1012.48	213.63
1012.77	213.62
1013.05	213.72
1013.34	213.74
1013.63	213.68
1013.92	213.70
1014.20	213.71
1014.49	213.72
1014.78	213.74
1015.06	213.69
1015.35	213.69
1015.64	213.75
1015.92	213.80
1016.21	213.85
1016.50	213.85
1016.78	213.87
1017.07	213.88
1017.36	213.82
1017.64	213.80
1017.93	213.78
1018.22	213.74
1018.50	213.75
1018.79	213.77
1019.08	213.66
1019.36	213.66
1019.65	213.67
1019.93	213.70
1020.22	213.71
1020.51	213.82
1020.79	213.81
1021.08	213.21
1021.36	212.98
1021.65	214.10
1021.94	213.42
1022.22	213.62
1022.51	213.37
1022.79	214.45
1023.08	213.68
1023.36	216.24
1023.65	213.48
>>>>>End Processed Spectral Data<<<<<
