SpectraSuite Data File
++++++++++++++++++++++++++++++++++++
Date: Tue Jan 29 16:20:39 EST 2013
User: group
Dark Spectrum Present: No
Reference Spectrum Present: No
Number of Sampled Component Spectra: 1
Spectrometers: USB2E7196
Integration Time (usec): 65000 (USB2E7196)
Spectra Averaged: 100 (USB2E7196)
Boxcar Smoothing: 10 (USB2E7196)
Correct for Electrical Dark: No (USB2E7196)
Strobe/Lamp Enabled: No (USB2E7196)
Correct for Detector Non-linearity: No (USB2E7196)
Correct for Stray Light: No (USB2E7196)
Number of Pixels in Processed Spectrum: 2048
>>>>>Begin Processed Spectral Data<<<<<
339.09	0.00
339.48	202.73
339.86	203.66
340.24	205.18
340.63	206.55
341.01	211.01
341.39	209.58
341.78	210.83
342.16	212.33
342.54	212.15
342.93	201.52
343.31	211.71
343.69	212.23
344.07	212.70
344.46	213.13
344.84	213.53
345.22	213.70
345.60	213.95
345.99	214.15
346.37	214.27
346.75	214.40
347.13	214.47
347.52	214.53
347.90	214.65
348.28	214.69
348.66	214.77
349.05	214.74
349.43	214.79
349.81	214.83
350.19	214.89
350.57	214.93
350.96	215.05
351.34	215.15
351.72	215.23
352.10	215.37
352.48	215.46
352.87	215.49
353.25	215.56
353.63	215.64
354.01	215.73
354.39	215.80
354.77	215.87
355.15	216.00
355.54	216.06
355.92	216.08
356.30	216.16
356.68	216.35
357.06	216.46
357.44	216.52
357.82	216.61
358.20	216.72
358.58	216.83
358.97	216.92
359.35	217.02
359.73	217.11
360.11	217.16
360.49	217.24
360.87	217.32
361.25	217.43
361.63	217.53
362.01	217.57
362.39	217.61
362.77	217.67
363.15	217.70
363.53	217.76
363.91	217.79
364.29	217.79
364.67	217.63
365.05	217.64
365.43	217.66
365.81	217.68
366.19	217.76
366.57	217.82
366.95	217.84
367.33	217.82
367.71	217.86
368.09	217.89
368.47	217.90
368.85	217.89
369.23	217.90
369.61	217.84
369.99	217.89
370.37	217.93
370.75	218.02
371.13	217.94
371.51	217.87
371.89	217.90
372.27	217.94
372.65	217.95
373.03	217.94
373.41	217.92
373.78	217.86
374.16	217.72
374.54	217.61
374.92	217.52
375.30	217.47
375.68	217.36
376.06	217.34
376.44	217.24
376.82	217.23
377.19	217.20
377.57	217.14
377.95	217.03
378.33	216.93
378.71	216.75
379.09	216.79
379.47	216.78
379.84	216.66
380.22	216.55
380.60	216.46
380.98	216.41
381.36	216.36
381.73	216.32
382.11	216.34
382.49	216.31
382.87	216.25
383.25	216.22
383.62	216.43
384.00	216.34
384.38	216.31
384.76	216.28
385.13	216.30
385.51	216.28
385.89	216.22
386.27	216.22
386.64	216.23
387.02	216.13
387.40	216.08
387.78	216.10
388.15	216.11
388.53	216.09
388.91	216.05
389.29	215.99
389.66	216.01
390.04	215.95
390.42	215.96
390.79	215.99
391.17	215.96
391.55	215.73
391.92	215.73
392.30	215.76
392.68	215.70
393.05	215.65
393.43	215.64
393.81	215.63
394.18	215.59
394.56	215.58
394.94	215.65
395.31	215.64
395.69	215.71
396.06	215.74
396.44	215.81
396.82	215.80
397.19	215.95
397.57	215.92
397.95	215.99
398.32	215.98
398.70	215.99
399.07	216.04
399.45	216.09
399.82	216.13
400.20	216.13
400.58	216.20
400.95	216.17
401.33	216.25
401.70	216.49
402.08	216.60
402.45	216.72
402.83	216.85
403.20	216.95
403.58	217.01
403.95	217.15
404.33	217.30
404.71	217.47
405.08	217.72
405.46	217.91
405.83	218.07
406.21	218.30
406.58	218.52
406.96	218.78
407.33	219.03
407.70	219.31
408.08	219.83
408.45	220.18
408.83	220.61
409.20	220.95
409.58	221.23
409.95	221.65
410.33	222.09
410.70	222.48
411.08	223.06
411.45	223.65
411.82	224.19
412.20	224.82
412.57	225.64
412.95	226.16
413.32	227.02
413.69	227.85
414.07	228.73
414.44	229.75
414.82	230.74
415.19	231.90
415.56	233.07
415.94	234.19
416.31	235.56
416.68	236.91
417.06	238.50
417.43	240.01
417.81	241.78
418.18	243.56
418.55	245.51
418.93	247.44
419.30	249.51
419.67	251.70
420.04	254.00
420.42	256.36
420.79	259.20
421.16	261.89
421.54	264.75
421.91	267.69
422.28	270.74
422.66	273.99
423.03	277.17
423.40	280.51
423.77	284.06
424.15	287.72
424.52	291.49
424.89	295.63
425.26	299.64
425.64	303.45
426.01	307.66
426.38	312.07
426.75	316.63
427.13	321.31
427.50	326.22
427.87	331.32
428.24	336.48
428.61	341.39
428.99	346.87
429.36	352.82
429.73	358.65
430.10	364.43
430.47	370.38
430.85	376.61
431.22	383.20
431.59	390.19
431.96	396.90
432.33	404.33
432.70	411.44
433.08	419.85
433.45	427.82
433.82	435.71
434.19	444.45
434.56	453.00
434.93	461.19
435.30	469.33
435.68	478.32
436.05	487.10
436.42	495.87
436.79	503.86
437.16	512.46
437.53	521.55
437.90	530.58
438.27	539.41
438.64	548.50
439.01	556.92
439.38	564.41
439.75	571.61
440.13	579.89
440.50	587.76
440.87	594.13
441.24	600.69
441.61	607.95
441.98	613.23
442.35	619.45
442.72	625.75
443.09	631.75
443.46	635.43
443.83	637.97
444.20	640.13
444.57	643.30
444.94	644.78
445.31	646.28
445.68	647.67
446.05	648.29
446.42	647.54
446.79	646.57
447.16	645.46
447.53	644.76
447.90	641.48
448.27	638.19
448.64	633.60
449.01	630.27
449.37	624.43
449.74	618.89
450.11	612.08
450.48	604.74
450.85	597.34
451.22	590.97
451.59	584.87
451.96	579.09
452.33	571.25
452.70	564.19
453.07	555.81
453.43	547.30
453.80	539.15
454.17	531.25
454.54	523.82
454.91	515.80
455.28	507.89
455.65	500.61
456.02	493.29
456.38	487.00
456.75	479.23
457.12	472.74
457.49	466.32
457.86	460.23
458.23	454.96
458.59	449.18
458.96	443.26
459.33	438.04
459.70	432.77
460.07	428.62
460.43	423.81
460.80	419.23
461.17	415.26
461.54	411.11
461.91	407.09
462.27	403.06
462.64	399.64
463.01	395.96
463.38	392.29
463.74	388.63
464.11	385.47
464.48	382.74
464.85	379.72
465.21	377.30
465.58	374.69
465.95	371.53
466.32	368.94
466.68	366.35
467.05	363.78
467.42	361.30
467.78	358.63
468.15	356.14
468.52	354.28
468.88	351.87
469.25	349.70
469.62	347.99
469.98	346.05
470.35	344.28
470.72	342.58
471.08	340.78
471.45	339.30
471.82	337.74
472.18	336.11
472.55	334.92
472.92	333.57
473.28	332.41
473.65	331.31
474.02	330.24
474.38	329.42
474.75	328.75
475.11	327.91
475.48	327.39
475.85	326.93
476.21	326.48
476.58	326.13
476.94	325.91
477.31	325.63
477.67	325.39
478.04	325.23
478.41	325.22
478.77	325.40
479.14	325.34
479.50	325.55
479.87	325.80
480.23	326.13
480.60	326.34
480.96	326.61
481.33	327.24
481.69	327.82
482.06	328.35
482.42	328.76
482.79	329.36
483.15	330.12
483.52	331.12
483.88	331.99
484.25	332.92
484.61	333.98
484.98	335.02
485.34	336.35
485.71	337.76
486.07	339.25
486.44	340.59
486.80	342.24
487.17	343.90
487.53	345.74
487.90	347.59
488.26	349.67
488.62	351.88
488.99	353.89
489.35	356.06
489.72	358.47
490.08	361.03
490.44	363.66
490.81	366.41
491.17	369.07
491.54	372.08
491.90	375.13
492.26	378.35
492.63	381.77
492.99	385.30
493.36	388.99
493.72	392.82
494.08	396.90
494.45	401.15
494.81	405.56
495.17	410.00
495.54	414.80
495.90	419.66
496.26	424.58
496.63	429.86
496.99	435.22
497.35	440.76
497.72	446.63
498.08	452.54
498.44	458.66
498.80	465.16
499.17	471.69
499.53	478.45
499.89	485.40
500.26	492.43
500.62	499.50
500.98	506.97
501.34	514.48
501.71	522.25
502.07	530.05
502.43	538.01
502.79	546.18
503.16	554.54
503.52	563.18
503.88	571.95
504.24	580.90
504.60	590.06
504.97	599.33
505.33	608.60
505.69	618.54
506.05	628.57
506.41	638.48
506.78	648.58
507.14	658.91
507.50	669.37
507.86	680.12
508.22	690.96
508.59	701.58
508.95	712.74
509.31	724.09
509.67	735.63
510.03	747.15
510.39	759.07
510.75	771.02
511.12	782.98
511.48	795.07
511.84	807.40
512.20	819.81
512.56	832.52
512.92	845.41
513.28	858.09
513.64	870.85
514.00	883.68
514.37	896.76
514.73	909.85
515.09	922.85
515.45	935.75
515.81	948.88
516.17	962.36
516.53	975.66
516.89	988.82
517.25	1002.06
517.61	1015.57
517.97	1028.97
518.33	1042.24
518.69	1055.86
519.05	1069.67
519.41	1083.33
519.77	1097.23
520.13	1110.63
520.49	1123.88
520.85	1137.36
521.21	1150.70
521.57	1164.46
521.93	1177.52
522.29	1191.42
522.65	1205.20
523.01	1218.88
523.37	1232.07
523.73	1245.44
524.09	1258.68
524.45	1272.08
524.81	1285.74
525.17	1299.18
525.53	1312.33
525.89	1325.54
526.25	1338.63
526.61	1351.49
526.97	1364.67
527.33	1377.65
527.68	1391.09
528.04	1404.54
528.40	1417.63
528.76	1430.91
529.12	1443.75
529.48	1457.12
529.84	1469.35
530.20	1482.09
530.56	1494.64
530.91	1507.95
531.27	1520.82
531.63	1533.52
531.99	1546.31
532.35	1558.34
532.71	1570.74
533.07	1583.60
533.42	1596.00
533.78	1608.16
534.14	1620.34
534.50	1631.63
534.86	1643.30
535.21	1654.24
535.57	1665.80
535.93	1677.04
536.29	1688.22
536.65	1699.60
537.00	1710.57
537.36	1721.99
537.72	1733.02
538.08	1744.58
538.44	1755.56
538.79	1766.58
539.15	1777.37
539.51	1788.19
539.87	1799.51
540.22	1810.21
540.58	1821.26
540.94	1832.05
541.29	1842.24
541.65	1851.86
542.01	1862.25
542.37	1872.17
542.72	1882.29
543.08	1892.04
543.44	1902.56
543.79	1911.81
544.15	1921.38
544.51	1931.36
544.87	1941.20
545.22	1950.15
545.58	1958.85
545.94	1967.66
546.29	1976.12
546.65	1984.56
547.01	1992.60
547.36	2000.27
547.72	2008.08
548.07	2015.60
548.43	2023.27
548.79	2031.14
549.14	2039.33
549.50	2047.79
549.86	2055.65
550.21	2063.16
550.57	2070.87
550.92	2077.55
551.28	2085.05
551.64	2092.31
551.99	2099.58
552.35	2106.69
552.70	2113.71
553.06	2120.46
553.41	2126.74
553.77	2133.34
554.13	2139.64
554.48	2146.73
554.84	2153.80
555.19	2160.30
555.55	2166.73
555.90	2173.07
556.26	2179.89
556.61	2186.04
556.97	2190.85
557.32	2196.71
557.68	2203.12
558.03	2208.80
558.39	2214.31
558.74	2220.31
559.10	2225.78
559.45	2231.50
559.81	2237.05
560.16	2242.67
560.52	2248.59
560.87	2255.03
561.23	2261.00
561.58	2267.88
561.94	2273.10
562.29	2277.87
562.64	2284.15
563.00	2289.89
563.35	2295.55
563.71	2301.32
564.06	2306.85
564.42	2313.07
564.77	2318.35
565.12	2323.68
565.48	2329.05
565.83	2334.68
566.19	2340.24
566.54	2345.77
566.89	2350.51
567.25	2355.31
567.60	2361.16
567.96	2366.39
568.31	2371.07
568.66	2375.50
569.02	2379.40
569.37	2383.46
569.72	2388.10
570.08	2391.58
570.43	2394.69
570.78	2397.79
571.14	2400.53
571.49	2403.87
571.84	2407.29
572.20	2410.17
572.55	2413.15
572.90	2415.48
573.26	2418.26
573.61	2420.93
573.96	2423.27
574.31	2425.35
574.67	2427.19
575.02	2428.03
575.37	2429.58
575.72	2430.40
576.08	2431.93
576.43	2432.11
576.78	2432.43
577.13	2434.03
577.49	2435.30
577.84	2436.59
578.19	2438.11
578.54	2438.90
578.90	2439.81
579.25	2439.99
579.60	2440.07
579.95	2439.56
580.30	2439.64
580.66	2439.17
581.01	2437.56
581.36	2435.27
581.71	2433.97
582.06	2432.95
582.42	2432.30
582.77	2430.22
583.12	2428.71
583.47	2427.37
583.82	2427.00
584.17	2425.89
584.53	2423.93
584.88	2422.15
585.23	2420.51
585.58	2418.32
585.93	2416.30
586.28	2414.19
586.63	2411.76
586.98	2409.80
587.34	2407.88
587.69	2405.63
588.04	2403.64
588.39	2402.29
588.74	2399.97
589.09	2397.43
589.44	2394.53
589.79	2392.11
590.14	2390.22
590.49	2387.64
590.84	2383.84
591.19	2380.84
591.54	2377.80
591.89	2373.85
592.25	2370.69
592.60	2366.34
592.95	2362.31
593.30	2358.39
593.65	2354.04
594.00	2349.90
594.35	2346.75
594.70	2342.18
595.05	2337.59
595.40	2332.19
595.75	2326.35
596.10	2322.85
596.45	2318.00
596.80	2313.42
597.15	2308.18
597.50	2302.32
597.85	2297.38
598.19	2292.20
598.54	2286.50
598.89	2281.34
599.24	2276.80
599.59	2270.59
599.94	2264.74
600.29	2258.80
600.64	2252.72
600.99	2245.89
601.34	2240.18
601.69	2233.32
602.04	2226.88
602.39	2220.34
602.74	2214.23
603.08	2209.03
603.43	2202.40
603.78	2195.67
604.13	2188.65
604.48	2181.34
604.83	2175.24
605.18	2169.06
605.53	2162.28
605.87	2155.11
606.22	2148.28
606.57	2140.25
606.92	2132.21
607.27	2125.35
607.62	2118.82
607.96	2111.85
608.31	2105.56
608.66	2098.00
609.01	2090.26
609.36	2083.12
609.70	2075.41
610.05	2067.71
610.40	2059.21
610.75	2050.90
611.10	2043.17
611.44	2034.14
611.79	2025.54
612.14	2015.43
612.49	2004.65
612.83	1995.13
613.18	1985.90
613.53	1976.62
613.88	1967.07
614.22	1958.46
614.57	1948.51
614.92	1937.85
615.27	1927.58
615.61	1917.30
615.96	1907.39
616.31	1897.84
616.65	1888.30
617.00	1878.45
617.35	1868.63
617.70	1858.79
618.04	1848.71
618.39	1838.29
618.74	1828.59
619.08	1818.80
619.43	1810.05
619.78	1801.52
620.12	1792.90
620.47	1783.10
620.82	1772.71
621.16	1762.95
621.51	1752.86
621.85	1742.96
622.20	1732.46
622.55	1721.68
622.89	1711.64
623.24	1701.90
623.59	1691.97
623.93	1681.72
624.28	1671.79
624.62	1661.49
624.97	1651.10
625.32	1641.11
625.66	1632.22
626.01	1623.34
626.35	1613.90
626.70	1603.83
627.04	1593.79
627.39	1583.59
627.73	1574.22
628.08	1565.03
628.43	1555.24
628.77	1545.91
629.12	1536.85
629.46	1528.90
629.81	1520.54
630.15	1510.96
630.50	1500.85
630.84	1490.14
631.19	1480.24
631.53	1470.93
631.88	1460.75
632.22	1450.61
632.57	1441.15
632.91	1430.89
633.26	1420.83
633.60	1411.03
633.95	1401.55
634.29	1391.91
634.64	1382.52
634.98	1372.50
635.32	1363.12
635.67	1354.58
636.01	1345.26
636.36	1335.46
636.70	1325.79
637.05	1316.31
637.39	1307.19
637.73	1298.60
638.08	1290.97
638.42	1282.66
638.77	1273.70
639.11	1265.30
639.45	1257.42
639.80	1248.76
640.14	1239.87
640.49	1230.98
640.83	1222.20
641.17	1213.90
641.52	1205.65
641.86	1196.90
642.20	1188.91
642.55	1180.12
642.89	1171.08
643.23	1162.29
643.58	1154.09
643.92	1144.92
644.26	1136.18
644.61	1127.77
644.95	1118.77
645.29	1109.44
645.64	1100.12
645.98	1091.53
646.32	1083.54
646.66	1074.90
647.01	1066.53
647.35	1058.27
647.69	1049.85
648.04	1041.29
648.38	1032.42
648.72	1023.55
649.06	1014.92
649.41	1006.65
649.75	998.63
650.09	990.62
650.43	982.47
650.78	974.04
651.12	966.22
651.46	958.60
651.80	951.16
652.14	943.83
652.49	936.29
652.83	928.87
653.17	921.12
653.51	913.41
653.85	906.05
654.20	898.66
654.54	891.14
654.88	883.83
655.22	876.63
655.56	869.42
655.90	862.52
656.25	855.85
656.59	848.84
656.93	841.77
657.27	834.53
657.61	827.50
657.95	821.36
658.29	815.41
658.64	809.26
658.98	802.66
659.32	796.05
659.66	789.69
660.00	783.29
660.34	777.19
660.68	771.01
661.02	764.66
661.36	758.56
661.70	752.70
662.05	747.05
662.39	741.49
662.73	736.05
663.07	730.64
663.41	724.93
663.75	719.22
664.09	713.46
664.43	708.07
664.77	702.71
665.11	696.78
665.45	690.78
665.79	684.93
666.13	679.24
666.47	673.63
666.81	668.15
667.15	662.68
667.49	657.41
667.83	652.10
668.17	646.81
668.51	641.73
668.85	636.77
669.19	631.75
669.53	626.68
669.87	621.56
670.21	616.73
670.55	611.95
670.89	607.44
671.23	603.07
671.57	598.62
671.91	594.30
672.25	590.13
672.58	585.95
672.92	581.83
673.26	577.87
673.60	574.01
673.94	570.17
674.28	566.60
674.62	562.78
674.96	558.99
675.30	555.44
675.64	551.73
675.97	548.11
676.31	544.46
676.65	540.79
676.99	537.30
677.33	533.44
677.67	529.79
678.01	525.95
678.34	522.30
678.68	518.70
679.02	515.06
679.36	511.33
679.70	507.66
680.04	504.07
680.37	500.59
680.71	497.23
681.05	493.98
681.39	490.66
681.73	487.45
682.06	484.37
682.40	481.24
682.74	478.03
683.08	474.72
683.42	471.49
683.75	468.55
684.09	465.54
684.43	462.72
684.77	459.80
685.10	456.94
685.44	454.00
685.78	451.04
686.12	448.23
686.45	445.48
686.79	442.82
687.13	440.27
687.46	437.60
687.80	434.96
688.14	432.14
688.48	429.47
688.81	426.85
689.15	424.25
689.49	421.64
689.82	419.09
690.16	416.52
690.50	414.02
690.83	411.42
691.17	408.81
691.51	406.31
691.84	404.05
692.18	401.80
692.52	399.59
692.85	397.50
693.19	395.33
693.52	393.14
693.86	390.92
694.20	388.70
694.53	386.58
694.87	384.33
695.21	382.19
695.54	380.07
695.88	377.86
696.21	375.72
696.55	373.54
696.88	371.51
697.22	369.56
697.56	367.65
697.89	365.82
698.23	364.10
698.56	362.33
698.90	360.52
699.23	358.59
699.57	356.74
699.90	354.84
700.24	353.05
700.58	351.29
700.91	349.63
701.25	348.04
701.58	346.43
701.92	344.82
702.25	343.25
702.59	341.61
702.92	340.07
703.26	338.47
703.59	337.02
703.93	335.70
704.26	334.25
704.60	332.77
704.93	331.23
705.26	329.69
705.60	328.19
705.93	326.68
706.27	325.32
706.60	324.01
706.94	322.79
707.27	321.36
707.61	320.04
707.94	318.68
708.27	317.18
708.61	315.72
708.94	314.32
709.28	313.00
709.61	311.73
709.94	310.50
710.28	309.25
710.61	308.03
710.95	306.64
711.28	305.55
711.61	304.36
711.95	303.25
712.28	302.06
712.61	300.88
712.95	299.84
713.28	298.84
713.61	297.71
713.95	296.56
714.28	295.58
714.61	294.54
714.95	293.52
715.28	292.53
715.61	291.51
715.95	290.61
716.28	289.63
716.61	288.69
716.95	287.72
717.28	286.80
717.61	285.85
717.94	284.93
718.28	283.91
718.61	283.03
718.94	282.12
719.27	281.25
719.61	280.44
719.94	279.51
720.27	278.51
720.60	277.65
720.94	276.82
721.27	276.07
721.60	275.37
721.93	274.64
722.27	273.97
722.60	273.33
722.93	272.59
723.26	271.91
723.59	271.21
723.93	270.56
724.26	269.93
724.59	269.29
724.92	268.72
725.25	268.21
725.59	267.64
725.92	267.10
726.25	266.55
726.58	265.93
726.91	265.38
727.24	264.84
727.57	264.27
727.91	263.68
728.24	263.08
728.57	262.47
728.90	261.90
729.23	261.31
729.56	260.85
729.89	260.32
730.22	259.75
730.55	259.20
730.89	258.65
731.22	258.09
731.55	257.56
731.88	257.00
732.21	256.42
732.54	255.86
732.87	255.34
733.20	254.85
733.53	254.41
733.86	253.97
734.19	253.53
734.52	253.10
734.85	252.80
735.18	252.34
735.51	251.96
735.84	251.57
736.17	251.17
736.50	250.64
736.83	250.47
737.16	250.10
737.49	249.72
737.82	249.31
738.15	248.95
738.48	248.59
738.81	248.21
739.14	247.78
739.47	247.43
739.80	247.06
740.13	246.77
740.46	246.34
740.79	245.92
741.12	245.52
741.45	245.15
741.78	244.71
742.11	244.42
742.44	244.06
742.77	243.75
743.10	243.41
743.43	243.04
743.75	242.46
744.08	242.40
744.41	242.06
744.74	241.70
745.07	241.33
745.40	241.04
745.73	240.79
746.06	240.47
746.39	240.18
746.71	239.82
747.04	239.43
747.37	239.13
747.70	238.84
748.03	238.55
748.36	238.31
748.68	238.00
749.01	237.65
749.34	237.34
749.67	237.01
750.00	236.74
750.33	236.61
750.65	236.38
750.98	235.84
751.31	235.60
751.64	235.38
751.97	235.28
752.29	234.97
752.62	234.64
752.95	234.40
753.28	234.15
753.60	233.91
753.93	233.78
754.26	233.56
754.59	233.32
754.91	233.11
755.24	232.86
755.57	232.65
755.90	232.44
756.22	232.20
756.55	231.97
756.88	231.71
757.20	231.34
757.53	231.04
757.86	230.83
758.19	230.64
758.51	230.44
758.84	230.12
759.17	229.93
759.49	229.75
759.82	229.64
760.15	229.46
760.47	229.29
760.80	229.00
761.13	228.86
761.45	228.69
761.78	228.50
762.11	228.33
762.43	228.14
762.76	227.99
763.08	227.84
763.41	227.67
763.74	227.56
764.06	227.45
764.39	227.32
764.71	227.19
765.04	227.03
765.37	226.87
765.69	226.70
766.02	226.59
766.34	226.45
766.67	226.24
767.00	226.14
767.32	226.10
767.65	226.10
767.97	225.93
768.30	225.78
768.62	225.61
768.95	225.47
769.27	225.35
769.60	225.23
769.92	225.07
770.25	224.91
770.57	224.71
770.90	224.58
771.22	224.43
771.55	224.32
771.87	224.19
772.20	224.03
772.52	224.12
772.85	224.27
773.17	224.13
773.50	224.05
773.82	223.89
774.15	223.71
774.47	223.51
774.80	223.41
775.12	223.32
775.45	223.26
775.77	223.16
776.09	223.06
776.42	222.98
776.74	223.00
777.07	222.93
777.39	222.88
777.72	222.78
778.04	222.76
778.36	222.64
778.69	222.61
779.01	222.58
779.33	222.34
779.66	221.99
779.98	221.96
780.31	221.86
780.63	221.87
780.95	221.83
781.28	221.78
781.60	221.69
781.92	221.59
782.25	221.54
782.57	221.46
782.89	221.39
783.22	221.29
783.54	221.18
783.86	221.16
784.19	221.11
784.51	221.13
784.83	221.03
785.16	220.99
785.48	220.91
785.80	220.85
786.12	220.78
786.45	220.71
786.77	220.62
787.09	220.58
787.42	220.47
787.74	220.36
788.06	220.29
788.38	220.23
788.71	220.18
789.03	220.12
789.35	220.13
789.67	220.07
789.99	220.04
790.32	219.93
790.64	219.88
790.96	219.96
791.28	219.85
791.61	219.78
791.93	219.76
792.25	219.69
792.57	219.78
792.89	219.71
793.21	219.69
793.54	219.63
793.86	219.55
794.18	219.50
794.50	219.43
794.82	219.39
795.14	219.37
795.47	219.35
795.79	219.28
796.11	219.20
796.43	219.15
796.75	219.10
797.07	219.05
797.39	218.99
797.71	218.81
798.04	218.77
798.36	218.74
798.68	218.68
799.00	218.66
799.32	218.52
799.64	218.53
799.96	218.52
800.28	218.51
800.60	218.47
800.92	218.46
801.24	218.39
801.56	218.34
801.89	218.30
802.21	218.32
802.53	218.25
802.85	218.24
803.17	218.28
803.49	218.23
803.81	218.21
804.13	218.19
804.45	218.12
804.77	218.09
805.09	218.07
805.41	217.98
805.73	217.92
806.05	217.84
806.37	217.78
806.69	217.72
807.01	217.71
807.33	217.72
807.65	217.59
807.97	217.71
808.28	217.69
808.60	217.65
808.92	217.59
809.24	217.68
809.56	217.61
809.88	217.55
810.20	217.54
810.52	217.53
810.84	217.48
811.16	217.47
811.48	217.42
811.80	217.45
812.12	217.46
812.43	217.48
812.75	217.46
813.07	217.43
813.39	217.42
813.71	217.34
814.03	217.27
814.35	217.28
814.67	217.16
814.98	217.11
815.30	217.06
815.62	217.00
815.94	216.86
816.26	216.87
816.58	216.80
816.89	216.78
817.21	216.70
817.53	216.66
817.85	216.63
818.17	216.63
818.48	216.55
818.80	216.58
819.12	216.52
819.44	216.48
819.76	216.42
820.07	216.38
820.39	216.38
820.71	216.37
821.03	216.33
821.34	216.29
821.66	216.31
821.98	216.31
822.30	216.26
822.61	216.36
822.93	216.30
823.25	216.28
823.57	216.28
823.88	216.33
824.20	216.33
824.52	216.34
824.83	216.30
825.15	216.26
825.47	216.17
825.79	216.18
826.10	216.15
826.42	216.14
826.74	216.14
827.05	216.11
827.37	216.13
827.69	216.15
828.00	216.16
828.32	216.15
828.64	216.16
828.95	216.26
829.27	216.20
829.58	216.21
829.90	216.26
830.22	216.24
830.53	216.19
830.85	216.16
831.17	216.09
831.48	216.10
831.80	216.12
832.11	216.14
832.43	216.12
832.75	216.10
833.06	216.24
833.38	216.19
833.69	216.17
834.01	216.16
834.32	216.14
834.64	216.13
834.96	216.11
835.27	216.10
835.59	216.03
835.90	215.99
836.22	215.97
836.53	215.94
836.85	215.92
837.16	216.11
837.48	216.11
837.79	216.19
838.11	216.20
838.42	216.19
838.74	216.22
839.05	216.18
839.37	216.16
839.68	216.02
840.00	216.00
840.31	216.03
840.63	216.00
840.94	215.96
841.26	215.92
841.57	215.92
841.88	215.93
842.20	215.89
842.51	215.84
842.83	215.86
843.14	216.01
843.46	216.02
843.77	215.85
844.08	215.84
844.40	215.77
844.71	215.71
845.03	215.68
845.34	215.63
845.65	215.63
845.97	215.65
846.28	215.65
846.60	215.64
846.91	215.60
847.22	215.62
847.54	215.68
847.85	215.68
848.16	215.65
848.48	215.60
848.79	215.68
849.10	215.73
849.42	215.70
849.73	215.50
850.04	215.47
850.36	215.43
850.67	215.44
850.98	215.43
851.30	215.45
851.61	215.42
851.92	215.42
852.23	215.48
852.55	215.48
852.86	215.49
853.17	215.49
853.49	215.50
853.80	215.52
854.11	215.52
854.42	215.57
854.74	215.55
855.05	215.54
855.36	215.43
855.67	215.39
855.99	215.41
856.30	215.64
856.61	215.63
856.92	215.61
857.23	215.59
857.55	215.60
857.86	215.56
858.17	215.63
858.48	215.62
858.79	215.60
859.11	215.60
859.42	215.59
859.73	215.58
860.04	215.59
860.35	215.52
860.66	215.44
860.98	215.41
861.29	215.44
861.60	215.41
861.91	215.47
862.22	215.45
862.53	215.40
862.84	215.17
863.16	215.22
863.47	215.23
863.78	215.21
864.09	215.23
864.40	215.24
864.71	215.22
865.02	215.21
865.33	215.17
865.64	215.10
865.95	215.12
866.27	215.28
866.58	215.25
866.89	215.29
867.20	215.30
867.51	215.26
867.82	215.22
868.13	215.25
868.44	215.20
868.75	215.23
869.06	215.26
869.37	215.25
869.68	215.20
869.99	215.20
870.30	215.22
870.61	215.24
870.92	215.25
871.23	215.22
871.54	215.25
871.85	215.29
872.16	215.34
872.47	215.29
872.78	215.13
873.09	215.16
873.40	215.10
873.71	215.12
874.02	215.14
874.33	215.14
874.64	215.14
874.95	215.17
875.26	215.15
875.56	215.14
875.87	215.18
876.18	215.15
876.49	215.35
876.80	215.33
877.11	215.24
877.42	215.22
877.73	215.22
878.04	215.19
878.35	215.18
878.66	215.18
878.96	215.18
879.27	215.19
879.58	215.16
879.89	215.19
880.20	215.23
880.51	215.20
880.82	215.21
881.12	215.21
881.43	215.18
881.74	215.17
882.05	215.12
882.36	215.13
882.67	215.14
882.97	214.91
883.28	214.88
883.59	214.90
883.90	214.94
884.21	214.97
884.51	214.94
884.82	214.96
885.13	214.95
885.44	214.95
885.74	214.95
886.05	214.94
886.36	214.93
886.67	214.84
886.98	214.94
887.28	214.96
887.59	214.95
887.90	214.97
888.20	214.94
888.51	215.02
888.82	214.92
889.13	214.97
889.43	215.15
889.74	215.15
890.05	215.15
890.35	215.13
890.66	215.07
890.97	215.07
891.28	215.02
891.58	215.03
891.89	215.01
892.20	214.97
892.50	214.94
892.81	214.95
893.12	215.01
893.42	214.93
893.73	214.95
894.04	214.95
894.34	214.96
894.65	214.95
894.95	214.93
895.26	214.97
895.57	215.04
895.87	214.84
896.18	214.88
896.48	214.90
896.79	214.89
897.10	214.92
897.40	214.94
897.71	214.98
898.01	214.96
898.32	215.00
898.63	215.02
898.93	215.08
899.24	215.08
899.54	215.01
899.85	214.98
900.15	214.92
900.46	214.90
900.76	214.90
901.07	214.89
901.38	214.87
901.68	214.86
901.99	214.71
902.29	214.73
902.60	214.67
902.90	214.62
903.21	214.62
903.51	214.62
903.82	214.66
904.12	214.66
904.43	214.67
904.73	214.65
905.03	214.65
905.34	214.81
905.64	214.78
905.95	214.80
906.25	214.82
906.56	214.86
906.86	214.86
907.17	214.82
907.47	214.86
907.77	214.81
908.08	214.81
908.38	214.87
908.69	214.89
908.99	214.98
909.30	215.01
909.60	215.03
909.90	215.02
910.21	214.95
910.51	214.90
910.81	214.90
911.12	214.88
911.42	214.89
911.73	214.68
912.03	214.71
912.33	214.75
912.64	214.73
912.94	214.70
913.24	214.64
913.55	214.65
913.85	214.65
914.15	214.70
914.46	214.67
914.76	214.64
915.06	214.64
915.37	214.58
915.67	214.59
915.97	214.58
916.27	214.54
916.58	214.53
916.88	214.56
917.18	214.56
917.49	214.72
917.79	214.71
918.09	214.74
918.39	214.76
918.70	214.75
919.00	214.76
919.30	214.84
919.60	214.88
919.91	214.88
920.21	214.90
920.51	214.88
920.81	214.90
921.12	214.91
921.42	214.91
921.72	214.93
922.02	214.91
922.32	214.92
922.63	214.94
922.93	215.08
923.23	215.05
923.53	215.01
923.83	214.87
924.13	214.87
924.44	214.87
924.74	214.92
925.04	214.99
925.34	214.96
925.64	214.90
925.94	214.88
926.24	215.00
926.55	214.96
926.85	215.00
927.15	215.00
927.45	215.02
927.75	215.01
928.05	215.01
928.35	215.00
928.65	215.06
928.95	215.07
929.26	214.98
929.56	215.06
929.86	215.10
930.16	215.13
930.46	215.12
930.76	215.12
931.06	215.01
931.36	214.93
931.66	214.97
931.96	214.97
932.26	214.98
932.56	214.91
932.86	214.94
933.16	214.93
933.46	214.92
933.76	214.89
934.06	214.93
934.36	215.00
934.66	215.01
934.96	214.99
935.26	215.03
935.56	215.05
935.86	214.96
936.16	214.98
936.46	214.93
936.76	214.93
937.06	214.91
937.36	214.95
937.66	214.95
937.96	214.93
938.26	214.87
938.56	214.86
938.86	214.85
939.16	214.87
939.46	214.90
939.76	214.92
940.06	214.92
940.35	214.90
940.65	214.77
940.95	214.75
941.25	214.69
941.55	214.66
941.85	214.65
942.15	214.69
942.45	214.71
942.75	214.73
943.04	214.73
943.34	214.77
943.64	214.73
943.94	214.72
944.24	214.73
944.54	214.78
944.84	214.79
945.13	214.73
945.43	214.72
945.73	214.68
946.03	214.63
946.33	214.62
946.62	214.60
946.92	214.63
947.22	214.66
947.52	214.66
947.82	214.68
948.11	214.65
948.41	214.62
948.71	214.57
949.01	214.56
949.31	214.54
949.60	214.52
949.90	214.58
950.20	214.57
950.50	214.56
950.79	214.54
951.09	214.54
951.39	214.57
951.69	214.53
951.98	214.60
952.28	214.62
952.58	214.60
952.87	214.57
953.17	214.57
953.47	214.55
953.76	214.53
954.06	214.51
954.36	214.48
954.66	214.46
954.95	214.53
955.25	214.54
955.55	214.54
955.84	214.52
956.14	214.52
956.44	214.53
956.73	214.51
957.03	214.53
957.32	214.56
957.62	214.55
957.92	214.60
958.21	214.57
958.51	214.82
958.81	214.87
959.10	214.92
959.40	214.95
959.69	214.99
959.99	215.03
960.29	214.99
960.58	215.01
960.88	215.09
961.17	215.04
961.47	215.03
961.76	215.01
962.06	215.02
962.36	214.96
962.65	214.98
962.95	214.98
963.24	214.98
963.54	214.94
963.83	214.95
964.13	214.93
964.42	214.86
964.72	214.68
965.01	214.68
965.31	214.65
965.60	214.63
965.90	214.74
966.19	214.71
966.49	214.72
966.78	214.70
967.08	214.66
967.37	214.68
967.67	214.68
967.96	214.73
968.26	214.72
968.55	214.78
968.85	214.76
969.14	214.77
969.43	214.77
969.73	214.78
970.02	214.74
970.32	214.70
970.61	214.70
970.91	214.63
971.20	214.62
971.49	214.60
971.79	214.62
972.08	214.49
972.38	214.52
972.67	214.54
972.96	214.57
973.26	214.54
973.55	214.60
973.85	214.57
974.14	214.55
974.43	214.56
974.73	214.54
975.02	214.52
975.31	214.49
975.61	214.49
975.90	214.47
976.19	214.47
976.49	214.52
976.78	214.57
977.07	214.57
977.37	214.57
977.66	214.62
977.95	214.59
978.24	214.61
978.54	214.61
978.83	214.56
979.12	214.57
979.42	214.57
979.71	214.53
980.00	214.52
980.29	214.51
980.59	214.49
980.88	214.53
981.17	214.52
981.46	214.52
981.76	214.50
982.05	214.58
982.34	214.60
982.63	214.58
982.93	214.55
983.22	214.64
983.51	214.64
983.80	214.64
984.09	214.69
984.39	214.66
984.68	214.64
984.97	214.64
985.26	214.61
985.55	214.62
985.85	214.58
986.14	214.64
986.43	214.67
986.72	214.68
987.01	214.62
987.30	214.63
987.59	214.63
987.89	214.65
988.18	214.56
988.47	214.54
988.76	214.54
989.05	214.56
989.34	214.50
989.63	214.57
989.92	214.54
990.22	214.47
990.51	214.48
990.80	214.47
991.09	214.52
991.38	214.54
991.67	214.54
991.96	214.55
992.25	214.54
992.54	214.50
992.83	214.47
993.12	214.48
993.41	214.50
993.70	214.60
993.99	214.61
994.28	214.64
994.58	214.65
994.87	214.62
995.16	214.64
995.45	214.62
995.74	214.51
996.03	214.53
996.32	214.58
996.61	214.62
996.90	214.62
997.19	214.59
997.48	214.59
997.77	214.56
998.06	214.56
998.34	214.54
998.63	214.57
998.92	214.59
999.21	214.63
999.50	214.60
999.79	214.53
1000.08	214.51
1000.37	214.55
1000.66	214.53
1000.95	214.61
1001.24	214.60
1001.53	214.65
1001.82	214.64
1002.11	214.61
1002.40	214.61
1002.68	214.65
1002.97	214.82
1003.26	214.79
1003.55	214.79
1003.84	214.82
1004.13	214.87
1004.42	214.87
1004.71	214.86
1004.99	214.84
1005.28	214.87
1005.57	214.89
1005.86	214.91
1006.15	214.88
1006.44	214.83
1006.72	214.87
1007.01	214.78
1007.30	214.76
1007.59	214.71
1007.88	214.74
1008.17	214.75
1008.45	214.72
1008.74	214.65
1009.03	214.55
1009.32	214.54
1009.60	214.51
1009.89	214.49
1010.18	214.40
1010.47	214.39
1010.76	214.39
1011.04	214.36
1011.33	214.33
1011.62	214.35
1011.91	214.34
1012.19	214.39
1012.48	214.41
1012.77	214.42
1013.05	214.52
1013.34	214.52
1013.63	214.49
1013.92	214.51
1014.20	214.52
1014.49	214.54
1014.78	214.53
1015.06	214.48
1015.35	214.51
1015.64	214.57
1015.92	214.59
1016.21	214.58
1016.50	214.58
1016.78	214.58
1017.07	214.63
1017.36	214.59
1017.64	214.55
1017.93	214.55
1018.22	214.52
1018.50	214.51
1018.79	214.50
1019.08	214.42
1019.36	214.44
1019.65	214.44
1019.93	214.50
1020.22	214.52
1020.51	214.61
1020.79	214.60
1021.08	214.31
1021.36	214.23
1021.65	214.65
1021.94	214.51
1022.22	214.54
1022.51	213.98
1022.79	216.20
1023.08	214.81
1023.36	216.86
1023.65	214.14
>>>>>End Processed Spectral Data<<<<<
