SpectraSuite Data File
++++++++++++++++++++++++++++++++++++
Date: Tue Jan 29 16:51:47 EST 2013
User: group
Dark Spectrum Present: No
Reference Spectrum Present: No
Number of Sampled Component Spectra: 1
Spectrometers: USB2E7196
Integration Time (usec): 65000 (USB2E7196)
Spectra Averaged: 100 (USB2E7196)
Boxcar Smoothing: 10 (USB2E7196)
Correct for Electrical Dark: No (USB2E7196)
Strobe/Lamp Enabled: No (USB2E7196)
Correct for Detector Non-linearity: No (USB2E7196)
Correct for Stray Light: No (USB2E7196)
Number of Pixels in Processed Spectrum: 2048
>>>>>Begin Processed Spectral Data<<<<<
339.09	0.00
339.48	201.34
339.86	202.99
340.24	204.23
340.63	205.15
341.01	209.83
341.39	208.21
341.78	210.00
342.16	211.43
342.54	211.21
342.93	200.64
343.31	210.79
343.69	211.31
344.07	211.76
344.46	212.21
344.84	212.62
345.22	212.78
345.60	213.04
345.99	213.22
346.37	213.35
346.75	213.46
347.13	213.50
347.52	213.57
347.90	213.70
348.28	213.72
348.66	213.80
349.05	213.78
349.43	213.84
349.81	213.90
350.19	213.95
350.57	213.98
350.96	214.08
351.34	214.14
351.72	214.28
352.10	214.39
352.48	214.42
352.87	214.47
353.25	214.56
353.63	214.65
354.01	214.70
354.39	214.79
354.77	214.88
355.15	215.03
355.54	215.06
355.92	215.03
356.30	215.14
356.68	215.35
357.06	215.43
357.44	215.46
357.82	215.53
358.20	215.63
358.58	215.74
358.97	215.78
359.35	215.93
359.73	216.02
360.11	216.10
360.49	216.20
360.87	216.28
361.25	216.36
361.63	216.47
362.01	216.58
362.39	216.60
362.77	216.66
363.15	216.70
363.53	216.76
363.91	216.85
364.29	216.85
364.67	216.67
365.05	216.66
365.43	216.72
365.81	216.74
366.19	216.82
366.57	216.89
366.95	216.93
367.33	216.87
367.71	216.91
368.09	216.95
368.47	216.95
368.85	216.94
369.23	216.96
369.61	216.89
369.99	216.94
370.37	216.97
370.75	217.07
371.13	217.02
371.51	217.00
371.89	216.98
372.27	216.98
372.65	217.00
373.03	217.03
373.41	216.99
373.78	216.97
374.16	216.83
374.54	216.73
374.92	216.68
375.30	216.66
375.68	216.54
376.06	216.51
376.44	216.46
376.82	216.43
377.19	216.40
377.57	216.33
377.95	216.19
378.33	216.11
378.71	215.96
379.09	215.90
379.47	215.87
379.84	215.80
380.22	215.74
380.60	215.65
380.98	215.58
381.36	215.54
381.73	215.48
382.11	215.48
382.49	215.47
382.87	215.40
383.25	215.38
383.62	215.60
384.00	215.53
384.38	215.51
384.76	215.54
385.13	215.57
385.51	215.55
385.89	215.48
386.27	215.44
386.64	215.44
387.02	215.40
387.40	215.34
387.78	215.34
388.15	215.32
388.53	215.32
388.91	215.31
389.29	215.27
389.66	215.27
390.04	215.21
390.42	215.20
390.79	215.18
391.17	215.13
391.55	214.85
391.92	214.81
392.30	214.80
392.68	214.73
393.05	214.69
393.43	214.69
393.81	214.71
394.18	214.68
394.56	214.69
394.94	214.73
395.31	214.73
395.69	214.80
396.06	214.82
396.44	214.82
396.82	214.85
397.19	214.98
397.57	214.98
397.95	215.06
398.32	215.04
398.70	215.07
399.07	215.15
399.45	215.19
399.82	215.26
400.20	215.29
400.58	215.34
400.95	215.32
401.33	215.45
401.70	215.66
402.08	215.76
402.45	215.83
402.83	215.96
403.20	216.08
403.58	216.13
403.95	216.28
404.33	216.45
404.71	216.58
405.08	216.84
405.46	216.99
405.83	217.18
406.21	217.38
406.58	217.62
406.96	217.84
407.33	218.14
407.70	218.40
408.08	218.88
408.45	219.25
408.83	219.65
409.20	219.96
409.58	220.25
409.95	220.70
410.33	221.19
410.70	221.61
411.08	222.17
411.45	222.77
411.82	223.32
412.20	224.01
412.57	224.83
412.95	225.38
413.32	226.24
413.69	227.10
414.07	228.04
414.44	229.04
414.82	230.06
415.19	231.21
415.56	232.46
415.94	233.63
416.31	235.04
416.68	236.44
417.06	238.09
417.43	239.65
417.81	241.43
418.18	243.23
418.55	245.21
418.93	247.24
419.30	249.36
419.67	251.62
420.04	253.91
420.42	256.31
420.79	259.16
421.16	261.99
421.54	264.90
421.91	267.86
422.28	270.93
422.66	274.24
423.03	277.53
423.40	280.89
423.77	284.50
424.15	288.17
424.52	292.07
424.89	296.21
425.26	300.29
425.64	304.19
426.01	308.51
426.38	313.02
426.75	317.63
427.13	322.40
427.50	327.41
427.87	332.66
428.24	337.90
428.61	342.91
428.99	348.40
429.36	354.44
429.73	360.39
430.10	366.33
430.47	372.45
430.85	378.79
431.22	385.53
431.59	392.73
431.96	399.55
432.33	407.05
432.70	414.33
433.08	422.96
433.45	431.02
433.82	439.05
434.19	447.92
434.56	456.62
434.93	465.01
435.30	473.26
435.68	482.44
436.05	491.50
436.42	500.43
436.79	508.64
437.16	517.43
437.53	526.77
437.90	536.01
438.27	544.98
438.64	554.29
439.01	562.83
439.38	570.44
439.75	577.82
440.13	586.32
440.50	594.34
440.87	600.78
441.24	607.48
441.61	614.90
441.98	620.38
442.35	626.76
442.72	633.09
443.09	639.26
443.46	642.98
443.83	645.51
444.20	647.75
444.57	650.98
444.94	652.42
445.31	653.88
445.68	655.28
446.05	656.02
446.42	655.21
446.79	654.28
447.16	653.26
447.53	652.55
447.90	649.25
448.27	645.99
448.64	641.29
449.01	638.01
449.37	632.07
449.74	626.38
450.11	619.51
450.48	612.07
450.85	604.60
451.22	598.12
451.59	591.94
451.96	586.13
452.33	578.18
452.70	571.09
453.07	562.51
453.43	553.88
453.80	545.50
454.17	537.49
454.54	529.92
454.91	521.60
455.28	513.51
455.65	505.98
456.02	498.43
456.38	492.04
456.75	484.10
457.12	477.45
457.49	470.82
457.86	464.54
458.23	459.07
458.59	453.04
458.96	446.97
459.33	441.60
459.70	436.12
460.07	431.84
460.43	426.96
460.80	422.35
461.17	418.22
461.54	413.97
461.91	409.90
462.27	405.68
462.64	402.26
463.01	398.48
463.38	394.77
463.74	391.04
464.11	387.83
464.48	384.98
464.85	381.89
465.21	379.46
465.58	376.84
465.95	373.75
466.32	371.15
466.68	368.59
467.05	365.97
467.42	363.43
467.78	360.73
468.15	358.09
468.52	356.16
468.88	353.70
469.25	351.42
469.62	349.59
469.98	347.69
470.35	345.82
470.72	344.09
471.08	342.23
471.45	340.71
471.82	339.13
472.18	337.43
472.55	336.18
472.92	334.74
473.28	333.47
473.65	332.32
474.02	331.18
474.38	330.24
474.75	329.49
475.11	328.65
475.48	328.05
475.85	327.58
476.21	327.07
476.58	326.67
476.94	326.43
477.31	326.12
477.67	325.85
478.04	325.70
478.41	325.65
478.77	325.86
479.14	325.79
479.50	325.92
479.87	326.18
480.23	326.51
480.60	326.79
480.96	327.09
481.33	327.68
481.69	328.25
482.06	328.77
482.42	329.23
482.79	329.79
483.15	330.55
483.52	331.55
483.88	332.45
484.25	333.43
484.61	334.45
484.98	335.50
485.34	336.82
485.71	338.21
486.07	339.63
486.44	340.90
486.80	342.52
487.17	344.17
487.53	346.01
487.90	347.87
488.26	349.91
488.62	352.05
488.99	354.08
489.35	356.25
489.72	358.60
490.08	361.16
490.44	363.74
490.81	366.45
491.17	369.14
491.54	372.13
491.90	375.13
492.26	378.36
492.63	381.75
492.99	385.19
493.36	388.83
493.72	392.73
494.08	396.79
494.45	400.96
494.81	405.32
495.17	409.78
495.54	414.48
495.90	419.26
496.26	424.16
496.63	429.33
496.99	434.71
497.35	440.27
497.72	446.07
498.08	452.00
498.44	458.04
498.80	464.46
499.17	470.94
499.53	477.63
499.89	484.52
500.26	491.46
500.62	498.54
500.98	505.90
501.34	513.32
501.71	521.08
502.07	528.89
502.43	536.84
502.79	544.95
503.16	553.38
503.52	562.05
503.88	570.73
504.24	579.74
504.60	588.83
504.97	598.08
505.33	607.31
505.69	617.15
506.05	627.03
506.41	636.85
506.78	646.89
507.14	657.15
507.50	667.56
507.86	678.23
508.22	689.00
508.59	699.68
508.95	710.66
509.31	721.81
509.67	733.25
510.03	744.61
510.39	756.25
510.75	767.94
511.12	779.75
511.48	791.81
511.84	804.00
512.20	816.24
512.56	828.76
512.92	841.58
513.28	854.20
513.64	867.00
514.00	879.88
514.37	892.83
514.73	905.94
515.09	918.90
515.45	931.88
515.81	944.90
516.17	958.23
516.53	971.62
516.89	984.80
517.25	998.09
517.61	1011.67
517.97	1025.13
518.33	1038.33
518.69	1051.95
519.05	1065.78
519.41	1079.45
519.77	1093.43
520.13	1106.80
520.49	1119.97
520.85	1133.27
521.21	1146.58
521.57	1160.18
521.93	1173.20
522.29	1187.02
522.65	1200.67
523.01	1214.27
523.37	1227.40
523.73	1240.75
524.09	1253.94
524.45	1267.46
524.81	1280.84
525.17	1294.19
525.53	1307.44
525.89	1320.81
526.25	1333.92
526.61	1346.68
526.97	1359.74
527.33	1372.72
527.68	1386.19
528.04	1399.79
528.40	1413.01
528.76	1426.41
529.12	1439.36
529.48	1452.72
529.84	1465.08
530.20	1477.86
530.56	1490.42
530.91	1503.85
531.27	1516.81
531.63	1529.50
531.99	1542.30
532.35	1554.55
532.71	1567.00
533.07	1579.96
533.42	1592.27
533.78	1604.41
534.14	1616.60
534.50	1627.96
534.86	1639.67
535.21	1650.63
535.57	1662.13
535.93	1673.54
536.29	1684.71
536.65	1696.26
537.00	1707.35
537.36	1718.64
537.72	1729.79
538.08	1741.38
538.44	1752.47
538.79	1763.66
539.15	1774.71
539.51	1785.52
539.87	1796.95
540.22	1807.99
540.58	1819.01
540.94	1829.97
541.29	1840.37
541.65	1850.21
542.01	1860.69
542.37	1870.72
542.72	1880.91
543.08	1890.84
543.44	1901.41
543.79	1910.73
544.15	1920.22
544.51	1930.28
544.87	1940.20
545.22	1949.41
545.58	1958.34
545.94	1967.29
546.29	1975.86
546.65	1984.26
547.01	1992.61
547.36	2000.40
547.72	2008.15
548.07	2015.74
548.43	2023.55
548.79	2031.44
549.14	2039.60
549.50	2048.28
549.86	2056.23
550.21	2063.79
550.57	2071.54
550.92	2078.33
551.28	2085.84
551.64	2093.15
551.99	2100.69
552.35	2107.93
552.70	2114.91
553.06	2121.64
553.41	2127.81
553.77	2134.32
554.13	2140.77
554.48	2147.72
554.84	2154.94
555.19	2161.35
555.55	2167.69
555.90	2173.95
556.26	2180.71
556.61	2186.78
556.97	2191.50
557.32	2197.25
557.68	2203.66
558.03	2209.44
558.39	2214.79
558.74	2220.79
559.10	2226.33
559.45	2231.78
559.81	2237.27
560.16	2242.79
560.52	2248.62
560.87	2255.03
561.23	2260.79
561.58	2267.33
561.94	2272.42
562.29	2276.92
562.64	2283.04
563.00	2288.74
563.35	2294.18
563.71	2299.78
564.06	2305.53
564.42	2311.44
564.77	2316.65
565.12	2321.93
565.48	2326.66
565.83	2332.03
566.19	2337.21
566.54	2342.37
566.89	2346.80
567.25	2351.28
567.60	2356.93
567.96	2361.92
568.31	2366.31
568.66	2370.69
569.02	2374.53
569.37	2378.16
569.72	2382.47
570.08	2385.66
570.43	2388.69
570.78	2391.74
571.14	2394.14
571.49	2397.10
571.84	2400.45
572.20	2403.14
572.55	2405.88
572.90	2408.23
573.26	2410.97
573.61	2413.47
573.96	2415.46
574.31	2417.64
574.67	2419.33
575.02	2419.81
575.37	2421.13
575.72	2421.71
576.08	2422.92
576.43	2423.05
576.78	2423.48
577.13	2424.87
577.49	2426.06
577.84	2427.01
578.19	2428.19
578.54	2428.67
578.90	2429.04
579.25	2428.77
579.60	2428.34
579.95	2427.34
580.30	2427.11
580.66	2426.07
581.01	2424.31
581.36	2421.79
581.71	2420.07
582.06	2418.85
582.42	2418.02
582.77	2415.53
583.12	2413.66
583.47	2412.01
583.82	2411.12
584.17	2409.68
584.53	2407.31
584.88	2405.00
585.23	2402.76
585.58	2400.14
585.93	2398.09
586.28	2395.87
586.63	2393.24
586.98	2390.93
587.34	2388.84
587.69	2386.23
588.04	2384.09
588.39	2382.49
588.74	2380.01
589.09	2377.08
589.44	2373.54
589.79	2370.77
590.14	2368.64
590.49	2365.77
590.84	2361.87
591.19	2358.44
591.54	2354.97
591.89	2350.93
592.25	2347.50
592.60	2343.22
592.95	2339.12
593.30	2334.73
593.65	2330.17
594.00	2325.76
594.35	2322.75
594.70	2317.97
595.05	2313.42
595.40	2307.82
595.75	2301.89
596.10	2298.10
596.45	2293.27
596.80	2288.76
597.15	2283.40
597.50	2277.49
597.85	2272.54
598.19	2267.31
598.54	2261.51
598.89	2256.12
599.24	2251.39
599.59	2245.19
599.94	2239.29
600.29	2233.16
600.64	2227.27
600.99	2220.43
601.34	2214.78
601.69	2207.73
602.04	2201.36
602.39	2194.77
602.74	2188.65
603.08	2183.05
603.43	2176.47
603.78	2169.61
604.13	2162.63
604.48	2155.36
604.83	2149.19
605.18	2142.95
605.53	2136.01
605.87	2128.95
606.22	2122.28
606.57	2114.41
606.92	2106.43
607.27	2099.57
607.62	2093.07
607.96	2085.96
608.31	2079.53
608.66	2071.72
609.01	2064.08
609.36	2056.81
609.70	2048.94
610.05	2041.03
610.40	2032.80
610.75	2024.42
611.10	2016.48
611.44	2007.33
611.79	1998.76
612.14	1988.86
612.49	1978.03
612.83	1968.63
613.18	1959.35
613.53	1950.10
613.88	1940.66
614.22	1932.19
614.57	1922.28
614.92	1911.64
615.27	1901.47
615.61	1891.25
615.96	1881.70
616.31	1872.12
616.65	1862.84
617.00	1853.36
617.35	1843.87
617.70	1834.21
618.04	1824.39
618.39	1814.43
618.74	1805.07
619.08	1795.37
619.43	1786.71
619.78	1778.61
620.12	1770.14
620.47	1760.76
620.82	1750.48
621.16	1740.63
621.51	1730.74
621.85	1721.08
622.20	1710.99
622.55	1700.49
622.89	1690.73
623.24	1681.08
623.59	1671.35
623.93	1661.27
624.28	1651.45
624.62	1641.54
624.97	1631.38
625.32	1621.53
625.66	1612.73
626.01	1604.01
626.35	1594.77
626.70	1584.80
627.04	1574.92
627.39	1564.86
627.73	1555.73
628.08	1546.94
628.43	1537.42
628.77	1528.35
629.12	1519.51
629.46	1511.64
629.81	1503.63
630.15	1494.27
630.50	1484.59
630.84	1474.25
631.19	1464.40
631.53	1455.26
631.88	1445.26
632.22	1435.26
632.57	1425.99
632.91	1416.08
633.26	1406.35
633.60	1396.90
633.95	1387.72
634.29	1378.21
634.64	1368.96
634.98	1358.99
635.32	1349.80
635.67	1341.52
636.01	1332.19
636.36	1322.56
636.70	1313.17
637.05	1303.72
637.39	1294.92
637.73	1286.33
638.08	1278.77
638.42	1270.91
638.77	1262.20
639.11	1254.03
639.45	1246.41
639.80	1238.16
640.14	1229.52
640.49	1220.75
640.83	1211.99
641.17	1203.93
641.52	1196.02
641.86	1187.56
642.20	1179.73
642.55	1171.07
642.89	1162.24
643.23	1153.84
643.58	1145.81
643.92	1136.80
644.26	1128.22
644.61	1119.90
644.95	1111.27
645.29	1102.22
645.64	1093.01
645.98	1084.55
646.32	1076.79
646.66	1068.37
647.01	1060.08
647.35	1052.06
647.69	1043.82
648.04	1035.69
648.38	1026.94
648.72	1018.22
649.06	1009.94
649.41	1001.89
649.75	994.10
650.09	986.39
650.43	978.44
650.78	970.16
651.12	962.53
651.46	955.25
651.80	948.08
652.14	940.87
652.49	933.40
652.83	926.15
653.17	918.57
653.51	910.82
653.85	903.59
654.20	896.38
654.54	888.91
654.88	881.74
655.22	874.56
655.56	867.47
655.90	860.69
656.25	853.96
656.59	847.15
656.93	840.22
657.27	833.08
657.61	826.06
657.95	819.93
658.29	814.00
658.64	807.96
658.98	801.42
659.32	794.96
659.66	788.74
660.00	782.46
660.34	776.45
660.68	770.41
661.02	764.10
661.36	758.07
661.70	752.29
662.05	746.75
662.39	741.20
662.73	735.88
663.07	730.50
663.41	724.90
663.75	719.18
664.09	713.44
664.43	708.03
664.77	702.77
665.11	697.03
665.45	691.20
665.79	685.18
666.13	679.50
666.47	673.95
666.81	668.48
667.15	663.08
667.49	657.84
667.83	652.62
668.17	647.36
668.51	642.34
668.85	637.39
669.19	632.43
669.53	627.44
669.87	622.29
670.21	617.50
670.55	612.81
670.89	608.35
671.23	604.05
671.57	599.67
671.91	595.39
672.25	591.23
672.58	587.12
672.92	583.11
673.26	579.21
673.60	575.30
673.94	571.54
674.28	567.97
674.62	564.27
674.96	560.45
675.30	556.93
675.64	553.21
675.97	549.59
676.31	545.96
676.65	542.37
676.99	539.04
677.33	535.22
677.67	531.55
678.01	527.68
678.34	524.10
678.68	520.57
679.02	516.91
679.36	513.22
679.70	509.56
680.04	506.03
680.37	502.55
680.71	499.18
681.05	495.94
681.39	492.60
681.73	489.35
682.06	486.35
682.40	483.20
682.74	480.02
683.08	476.76
683.42	473.53
683.75	470.47
684.09	467.33
684.43	464.53
684.77	461.57
685.10	458.74
685.44	455.73
685.78	452.83
686.12	450.01
686.45	447.25
686.79	444.57
687.13	442.00
687.46	439.34
687.80	436.66
688.14	433.82
688.48	431.20
688.81	428.49
689.15	425.85
689.49	423.28
689.82	420.72
690.16	418.15
690.50	415.64
690.83	413.12
691.17	410.57
691.51	408.04
691.84	405.73
692.18	403.46
692.52	401.25
692.85	399.03
693.19	396.90
693.52	394.74
693.86	392.52
694.20	390.31
694.53	388.16
694.87	385.95
695.21	383.77
695.54	381.59
695.88	379.43
696.21	377.21
696.55	375.02
696.88	372.90
697.22	370.89
697.56	368.98
697.89	367.06
698.23	365.32
698.56	363.50
698.90	361.72
699.23	359.80
699.57	357.90
699.90	356.05
700.24	354.20
700.58	352.38
700.91	350.69
701.25	349.09
701.58	347.44
701.92	345.85
702.25	344.26
702.59	342.60
702.92	341.01
703.26	339.44
703.59	337.98
703.93	336.72
704.26	335.29
704.60	333.77
704.93	332.27
705.26	330.73
705.60	329.26
705.93	327.72
706.27	326.36
706.60	325.05
706.94	323.79
707.27	322.38
707.61	321.01
707.94	319.63
708.27	318.10
708.61	316.66
708.94	315.28
709.28	313.93
709.61	312.69
709.94	311.50
710.28	310.27
710.61	309.06
710.95	307.63
711.28	306.51
711.61	305.33
711.95	304.18
712.28	302.98
712.61	301.76
712.95	300.71
713.28	299.62
713.61	298.44
713.95	297.29
714.28	296.26
714.61	295.21
714.95	294.20
715.28	293.15
715.61	292.12
715.95	291.11
716.28	290.15
716.61	289.17
716.95	288.14
717.28	287.18
717.61	286.16
717.94	285.24
718.28	284.21
718.61	283.32
718.94	282.42
719.27	281.53
719.61	280.70
719.94	279.85
720.27	278.86
720.60	277.96
720.94	277.13
721.27	276.38
721.60	275.68
721.93	274.95
722.27	274.29
722.60	273.62
722.93	272.93
723.26	272.27
723.59	271.53
723.93	270.85
724.26	270.21
724.59	269.59
724.92	269.00
725.25	268.47
725.59	267.90
725.92	267.34
726.25	266.77
726.58	266.19
726.91	265.54
727.24	265.04
727.57	264.55
727.91	263.92
728.24	263.33
728.57	262.70
728.90	262.12
729.23	261.52
729.56	261.08
729.89	260.50
730.22	259.89
730.55	259.37
730.89	258.85
731.22	258.31
731.55	257.77
731.88	257.20
732.21	256.57
732.54	256.01
732.87	255.48
733.20	254.98
733.53	254.46
733.86	254.02
734.19	253.51
734.52	253.06
734.85	252.78
735.18	252.32
735.51	251.95
735.84	251.51
736.17	251.12
736.50	250.57
736.83	250.41
737.16	250.03
737.49	249.63
737.82	249.22
738.15	248.86
738.48	248.48
738.81	248.09
739.14	247.72
739.47	247.32
739.80	246.91
740.13	246.58
740.46	246.21
740.79	245.79
741.12	245.46
741.45	245.07
741.78	244.63
742.11	244.34
742.44	243.97
742.77	243.67
743.10	243.31
743.43	242.95
743.75	242.38
744.08	242.29
744.41	241.96
744.74	241.61
745.07	241.21
745.40	240.91
745.73	240.67
746.06	240.34
746.39	240.05
746.71	239.73
747.04	239.38
747.37	239.04
747.70	238.77
748.03	238.41
748.36	238.12
748.68	237.77
749.01	237.40
749.34	237.11
749.67	236.77
750.00	236.46
750.33	236.35
750.65	236.10
750.98	235.54
751.31	235.29
751.64	235.08
751.97	234.99
752.29	234.71
752.62	234.36
752.95	234.06
753.28	233.76
753.60	233.54
753.93	233.33
754.26	233.11
754.59	232.81
754.91	232.60
755.24	232.37
755.57	232.13
755.90	231.91
756.22	231.65
756.55	231.43
756.88	231.20
757.20	230.84
757.53	230.55
757.86	230.35
758.19	230.12
758.51	229.87
758.84	229.53
759.17	229.32
759.49	229.16
759.82	229.10
760.15	228.94
760.47	228.73
760.80	228.46
761.13	228.29
761.45	228.13
761.78	227.94
762.11	227.75
762.43	227.58
762.76	227.39
763.08	227.24
763.41	227.10
763.74	226.95
764.06	226.78
764.39	226.63
764.71	226.49
765.04	226.33
765.37	226.19
765.69	226.04
766.02	225.91
766.34	225.73
766.67	225.50
767.00	225.42
767.32	225.40
767.65	225.41
767.97	225.27
768.30	225.13
768.62	225.03
768.95	224.91
769.27	224.76
769.60	224.67
769.92	224.54
770.25	224.38
770.57	224.20
770.90	224.07
771.22	223.92
771.55	223.81
771.87	223.69
772.20	223.58
772.52	223.64
772.85	223.77
773.17	223.67
773.50	223.53
773.82	223.38
774.15	223.19
774.47	222.97
774.80	222.84
775.12	222.74
775.45	222.57
775.77	222.50
776.09	222.46
776.42	222.38
776.74	222.33
777.07	222.23
777.39	222.17
777.72	222.07
778.04	222.02
778.36	221.94
778.69	221.86
779.01	221.78
779.33	221.50
779.66	221.17
779.98	221.05
780.31	220.99
780.63	220.99
780.95	220.94
781.28	220.82
781.60	220.75
781.92	220.69
782.25	220.62
782.57	220.50
782.89	220.36
783.22	220.22
783.54	220.11
783.86	220.07
784.19	220.02
784.51	220.06
784.83	219.97
785.16	219.87
785.48	219.82
785.80	219.75
786.12	219.72
786.45	219.70
786.77	219.70
787.09	219.66
787.42	219.51
787.74	219.48
788.06	219.45
788.38	219.39
788.71	219.29
789.03	219.22
789.35	219.21
789.67	219.18
789.99	219.16
790.32	219.07
790.64	219.00
790.96	219.10
791.28	218.96
791.61	218.90
791.93	218.88
792.25	218.84
792.57	218.94
792.89	218.87
793.21	218.81
793.54	218.72
793.86	218.67
794.18	218.67
794.50	218.58
794.82	218.55
795.14	218.55
795.47	218.57
795.79	218.55
796.11	218.45
796.43	218.37
796.75	218.30
797.07	218.31
797.39	218.26
797.71	218.07
798.04	218.04
798.36	218.01
798.68	217.97
799.00	217.91
799.32	217.75
799.64	217.75
799.96	217.72
800.28	217.70
800.60	217.64
800.92	217.61
801.24	217.54
801.56	217.52
801.89	217.46
802.21	217.43
802.53	217.37
802.85	217.39
803.17	217.48
803.49	217.45
803.81	217.37
804.13	217.33
804.45	217.27
804.77	217.25
805.09	217.24
805.41	217.17
805.73	217.11
806.05	217.04
806.37	216.95
806.69	216.90
807.01	216.91
807.33	216.87
807.65	216.77
807.97	216.86
808.28	216.80
808.60	216.77
808.92	216.71
809.24	216.80
809.56	216.72
809.88	216.61
810.20	216.60
810.52	216.61
810.84	216.57
811.16	216.51
811.48	216.47
811.80	216.49
812.12	216.47
812.43	216.51
812.75	216.48
813.07	216.44
813.39	216.40
813.71	216.30
814.03	216.27
814.35	216.23
814.67	216.11
814.98	216.06
815.30	216.03
815.62	215.97
815.94	215.82
816.26	215.85
816.58	215.78
816.89	215.75
817.21	215.67
817.53	215.68
817.85	215.71
818.17	215.69
818.48	215.59
818.80	215.61
819.12	215.59
819.44	215.55
819.76	215.52
820.07	215.54
820.39	215.55
820.71	215.56
821.03	215.56
821.34	215.53
821.66	215.55
821.98	215.55
822.30	215.53
822.61	215.62
822.93	215.58
823.25	215.56
823.57	215.53
823.88	215.57
824.20	215.54
824.52	215.54
824.83	215.53
825.15	215.51
825.47	215.45
825.79	215.43
826.10	215.39
826.42	215.37
826.74	215.37
827.05	215.35
827.37	215.33
827.69	215.31
828.00	215.31
828.32	215.32
828.64	215.28
828.95	215.41
829.27	215.36
829.58	215.34
829.90	215.36
830.22	215.39
830.53	215.33
830.85	215.28
831.17	215.21
831.48	215.19
831.80	215.19
832.11	215.17
832.43	215.12
832.75	215.14
833.06	215.26
833.38	215.19
833.69	215.19
834.01	215.19
834.32	215.18
834.64	215.13
834.96	215.12
835.27	215.11
835.59	215.02
835.90	214.99
836.22	214.97
836.53	214.95
836.85	214.90
837.16	215.07
837.48	215.08
837.79	215.14
838.11	215.13
838.42	215.12
838.74	215.15
839.05	215.13
839.37	215.11
839.68	214.98
840.00	214.97
840.31	214.99
840.63	214.97
840.94	214.96
841.26	214.95
841.57	214.92
841.88	214.93
842.20	214.86
842.51	214.81
842.83	214.80
843.14	214.96
843.46	214.96
843.77	214.86
844.08	214.84
844.40	214.77
844.71	214.76
845.03	214.73
845.34	214.73
845.65	214.71
845.97	214.69
846.28	214.68
846.60	214.68
846.91	214.65
847.22	214.61
847.54	214.65
847.85	214.65
848.16	214.63
848.48	214.60
848.79	214.67
849.10	214.72
849.42	214.74
849.73	214.57
850.04	214.55
850.36	214.48
850.67	214.51
850.98	214.52
851.30	214.52
851.61	214.52
851.92	214.50
852.23	214.58
852.55	214.64
852.86	214.66
853.17	214.67
853.49	214.70
853.80	214.74
854.11	214.75
854.42	214.75
854.74	214.71
855.05	214.69
855.36	214.58
855.67	214.56
855.99	214.55
856.30	214.78
856.61	214.79
856.92	214.77
857.23	214.79
857.55	214.75
857.86	214.74
858.17	214.78
858.48	214.76
858.79	214.70
859.11	214.69
859.42	214.66
859.73	214.61
860.04	214.58
860.35	214.52
860.66	214.49
860.98	214.50
861.29	214.57
861.60	214.55
861.91	214.62
862.22	214.58
862.53	214.54
862.84	214.25
863.16	214.31
863.47	214.28
863.78	214.26
864.09	214.31
864.40	214.30
864.71	214.27
865.02	214.26
865.33	214.22
865.64	214.17
865.95	214.15
866.27	214.33
866.58	214.31
866.89	214.32
867.20	214.28
867.51	214.23
867.82	214.19
868.13	214.24
868.44	214.21
868.75	214.26
869.06	214.27
869.37	214.34
869.68	214.29
869.99	214.30
870.30	214.29
870.61	214.31
870.92	214.29
871.23	214.28
871.54	214.29
871.85	214.34
872.16	214.36
872.47	214.35
872.78	214.20
873.09	214.22
873.40	214.18
873.71	214.19
874.02	214.22
874.33	214.20
874.64	214.13
874.95	214.13
875.26	214.11
875.56	214.12
875.87	214.12
876.18	214.07
876.49	214.33
876.80	214.33
877.11	214.27
877.42	214.30
877.73	214.29
878.04	214.28
878.35	214.28
878.66	214.29
878.96	214.30
879.27	214.29
879.58	214.27
879.89	214.27
880.20	214.34
880.51	214.33
880.82	214.35
881.12	214.39
881.43	214.38
881.74	214.35
882.05	214.33
882.36	214.33
882.67	214.35
882.97	214.08
883.28	214.03
883.59	214.04
883.90	214.04
884.21	214.08
884.51	214.06
884.82	214.08
885.13	214.10
885.44	214.11
885.74	214.15
886.05	214.14
886.36	214.16
886.67	214.07
886.98	214.17
887.28	214.18
887.59	214.17
887.90	214.18
888.20	214.18
888.51	214.20
888.82	214.15
889.13	214.16
889.43	214.35
889.74	214.37
890.05	214.35
890.35	214.34
890.66	214.29
890.97	214.29
891.28	214.23
891.58	214.19
891.89	214.17
892.20	214.11
892.50	214.08
892.81	214.04
893.12	214.04
893.42	213.93
893.73	213.96
894.04	213.94
894.34	213.95
894.65	213.92
894.95	213.88
895.26	213.90
895.57	214.01
895.87	213.79
896.18	213.84
896.48	213.85
896.79	213.85
897.10	213.86
897.40	213.87
897.71	213.88
898.01	213.88
898.32	213.90
898.63	213.89
898.93	213.93
899.24	213.98
899.54	213.97
899.85	213.93
900.15	213.91
900.46	213.92
900.76	213.93
901.07	213.93
901.38	213.98
901.68	213.98
901.99	213.83
902.29	213.85
902.60	213.82
902.90	213.78
903.21	213.76
903.51	213.75
903.82	213.78
904.12	213.80
904.43	213.80
904.73	213.78
905.03	213.84
905.34	214.03
905.64	214.00
905.95	213.98
906.25	214.01
906.56	214.00
906.86	213.97
907.17	213.95
907.47	214.00
907.77	213.94
908.08	213.91
908.38	213.94
908.69	213.96
908.99	213.98
909.30	214.00
909.60	214.01
909.90	214.01
910.21	213.94
910.51	213.91
910.81	213.89
911.12	213.89
911.42	213.88
911.73	213.66
912.03	213.67
912.33	213.73
912.64	213.75
912.94	213.71
913.24	213.71
913.55	213.71
913.85	213.69
914.15	213.74
914.46	213.79
914.76	213.76
915.06	213.75
915.37	213.69
915.67	213.69
915.97	213.72
916.27	213.70
916.58	213.73
916.88	213.72
917.18	213.72
917.49	213.86
917.79	213.86
918.09	213.87
918.39	213.92
918.70	213.89
919.00	213.89
919.30	214.06
919.60	214.05
919.91	214.03
920.21	214.03
920.51	213.97
920.81	213.93
921.12	213.97
921.42	213.98
921.72	214.02
922.02	214.03
922.32	214.03
922.63	214.07
922.93	214.18
923.23	214.22
923.53	214.26
923.83	214.15
924.13	214.17
924.44	214.19
924.74	214.19
925.04	214.24
925.34	214.24
925.64	214.09
925.94	214.09
926.24	214.21
926.55	214.20
926.85	214.23
927.15	214.22
927.45	214.22
927.75	214.23
928.05	214.26
928.35	214.26
928.65	214.27
928.95	214.27
929.26	214.19
929.56	214.21
929.86	214.18
930.16	214.15
930.46	214.15
930.76	214.14
931.06	214.05
931.36	214.01
931.66	214.03
931.96	214.06
932.26	214.07
932.56	213.99
932.86	213.98
933.16	213.99
933.46	213.96
933.76	213.92
934.06	213.93
934.36	213.94
934.66	213.94
934.96	213.93
935.26	213.95
935.56	213.95
935.86	213.91
936.16	213.88
936.46	213.86
936.76	213.85
937.06	213.83
937.36	213.85
937.66	213.85
937.96	213.85
938.26	213.82
938.56	213.81
938.86	213.83
939.16	213.89
939.46	213.93
939.76	213.95
940.06	213.93
940.35	213.89
940.65	213.82
940.95	213.84
941.25	213.78
941.55	213.74
941.85	213.72
942.15	213.75
942.45	213.81
942.75	213.78
943.04	213.77
943.34	213.81
943.64	213.81
943.94	213.79
944.24	213.79
944.54	213.81
944.84	213.80
945.13	213.79
945.43	213.74
945.73	213.72
946.03	213.73
946.33	213.74
946.62	213.74
946.92	213.71
947.22	213.74
947.52	213.77
947.82	213.80
948.11	213.79
948.41	213.78
948.71	213.71
949.01	213.75
949.31	213.74
949.60	213.75
949.90	213.78
950.20	213.75
950.50	213.72
950.79	213.70
951.09	213.73
951.39	213.71
951.69	213.67
951.98	213.68
952.28	213.69
952.58	213.69
952.87	213.69
953.17	213.77
953.47	213.75
953.76	213.74
954.06	213.69
954.36	213.66
954.66	213.64
954.95	213.71
955.25	213.70
955.55	213.69
955.84	213.62
956.14	213.61
956.44	213.61
956.73	213.57
957.03	213.56
957.32	213.53
957.62	213.50
957.92	213.57
958.21	213.58
958.51	213.82
958.81	213.86
959.10	213.88
959.40	213.89
959.69	213.89
959.99	213.91
960.29	213.93
960.58	213.92
960.88	214.02
961.17	213.98
961.47	214.01
961.76	214.00
962.06	214.08
962.36	214.06
962.65	214.09
962.95	214.10
963.24	214.10
963.54	214.11
963.83	214.09
964.13	214.08
964.42	214.00
964.72	213.84
965.01	213.83
965.31	213.81
965.60	213.77
965.90	213.86
966.19	213.81
966.49	213.81
966.78	213.78
967.08	213.75
967.37	213.75
967.67	213.72
967.96	213.77
968.26	213.73
968.55	213.77
968.85	213.77
969.14	213.77
969.43	213.78
969.73	213.78
970.02	213.80
970.32	213.76
970.61	213.74
970.91	213.66
971.20	213.58
971.49	213.53
971.79	213.56
972.08	213.43
972.38	213.44
972.67	213.41
972.96	213.46
973.26	213.39
973.55	213.45
973.85	213.41
974.14	213.41
974.43	213.39
974.73	213.37
975.02	213.35
975.31	213.35
975.61	213.35
975.90	213.32
976.19	213.29
976.49	213.33
976.78	213.38
977.07	213.39
977.37	213.46
977.66	213.52
977.95	213.48
978.24	213.49
978.54	213.50
978.83	213.53
979.12	213.52
979.42	213.55
979.71	213.51
980.00	213.52
980.29	213.54
980.59	213.54
980.88	213.58
981.17	213.57
981.46	213.57
981.76	213.56
982.05	213.66
982.34	213.70
982.63	213.69
982.93	213.69
983.22	213.76
983.51	213.74
983.80	213.77
984.09	213.79
984.39	213.78
984.68	213.78
984.97	213.83
985.26	213.79
985.55	213.83
985.85	213.78
986.14	213.85
986.43	213.86
986.72	213.84
987.01	213.76
987.30	213.77
987.59	213.77
987.89	213.78
988.18	213.72
988.47	213.69
988.76	213.67
989.05	213.63
989.34	213.60
989.63	213.66
989.92	213.63
990.22	213.58
990.51	213.62
990.80	213.61
991.09	213.58
991.38	213.61
991.67	213.57
991.96	213.57
992.25	213.52
992.54	213.47
992.83	213.47
993.12	213.49
993.41	213.52
993.70	213.62
993.99	213.64
994.28	213.64
994.58	213.69
994.87	213.66
995.16	213.69
995.45	213.64
995.74	213.57
996.03	213.57
996.32	213.62
996.61	213.64
996.90	213.65
997.19	213.64
997.48	213.65
997.77	213.65
998.06	213.67
998.34	213.68
998.63	213.68
998.92	213.68
999.21	213.72
999.50	213.73
999.79	213.67
1000.08	213.67
1000.37	213.65
1000.66	213.63
1000.95	213.71
1001.24	213.69
1001.53	213.72
1001.82	213.71
1002.11	213.65
1002.40	213.67
1002.68	213.72
1002.97	213.83
1003.26	213.81
1003.55	213.78
1003.84	213.78
1004.13	213.86
1004.42	213.83
1004.71	213.83
1004.99	213.82
1005.28	213.85
1005.57	213.85
1005.86	213.82
1006.15	213.81
1006.44	213.81
1006.72	213.83
1007.01	213.76
1007.30	213.80
1007.59	213.76
1007.88	213.77
1008.17	213.81
1008.45	213.74
1008.74	213.67
1009.03	213.53
1009.32	213.51
1009.60	213.48
1009.89	213.47
1010.18	213.37
1010.47	213.36
1010.76	213.37
1011.04	213.39
1011.33	213.43
1011.62	213.43
1011.91	213.43
1012.19	213.40
1012.48	213.37
1012.77	213.37
1013.05	213.48
1013.34	213.47
1013.63	213.48
1013.92	213.45
1014.20	213.42
1014.49	213.48
1014.78	213.47
1015.06	213.47
1015.35	213.50
1015.64	213.57
1015.92	213.59
1016.21	213.62
1016.50	213.64
1016.78	213.65
1017.07	213.64
1017.36	213.56
1017.64	213.54
1017.93	213.59
1018.22	213.60
1018.50	213.63
1018.79	213.59
1019.08	213.51
1019.36	213.51
1019.65	213.50
1019.93	213.59
1020.22	213.66
1020.51	213.75
1020.79	213.73
1021.08	213.35
1021.36	213.41
1021.65	213.07
1021.94	213.66
1022.22	213.97
1022.51	213.26
1022.79	214.48
1023.08	214.21
1023.36	216.19
1023.65	212.72
>>>>>End Processed Spectral Data<<<<<
