SpectraSuite Data File
++++++++++++++++++++++++++++++++++++
Date: Tue Jan 29 16:13:04 EST 2013
User: group
Dark Spectrum Present: No
Reference Spectrum Present: No
Number of Sampled Component Spectra: 1
Spectrometers: USB2E7196
Integration Time (usec): 65000 (USB2E7196)
Spectra Averaged: 100 (USB2E7196)
Boxcar Smoothing: 10 (USB2E7196)
Correct for Electrical Dark: No (USB2E7196)
Strobe/Lamp Enabled: No (USB2E7196)
Correct for Detector Non-linearity: No (USB2E7196)
Correct for Stray Light: No (USB2E7196)
Number of Pixels in Processed Spectrum: 2048
>>>>>Begin Processed Spectral Data<<<<<
339.09	0.00
339.48	202.68
339.86	203.83
340.24	205.49
340.63	207.11
341.01	211.43
341.39	209.15
341.78	211.06
342.16	212.84
342.54	212.55
342.93	201.73
343.31	211.92
343.69	212.46
344.07	212.93
344.46	213.38
344.84	213.76
345.22	213.94
345.60	214.25
345.99	214.43
346.37	214.54
346.75	214.66
347.13	214.71
347.52	214.76
347.90	214.91
348.28	214.96
348.66	215.07
349.05	215.04
349.43	215.12
349.81	215.15
350.19	215.22
350.57	215.31
350.96	215.38
351.34	215.47
351.72	215.55
352.10	215.66
352.48	215.71
352.87	215.72
353.25	215.77
353.63	215.81
354.01	215.90
354.39	215.97
354.77	216.06
355.15	216.21
355.54	216.27
355.92	216.22
356.30	216.26
356.68	216.42
357.06	216.52
357.44	216.54
357.82	216.59
358.20	216.68
358.58	216.73
358.97	216.79
359.35	216.89
359.73	217.02
360.11	217.08
360.49	217.16
360.87	217.25
361.25	217.33
361.63	217.42
362.01	217.48
362.39	217.49
362.77	217.54
363.15	217.52
363.53	217.57
363.91	217.63
364.29	217.67
364.67	217.51
365.05	217.48
365.43	217.55
365.81	217.61
366.19	217.67
366.57	217.75
366.95	217.77
367.33	217.71
367.71	217.66
368.09	217.68
368.47	217.67
368.85	217.65
369.23	217.66
369.61	217.57
369.99	217.62
370.37	217.63
370.75	217.68
371.13	217.63
371.51	217.60
371.89	217.60
372.27	217.59
372.65	217.58
373.03	217.60
373.41	217.55
373.78	217.48
374.16	217.34
374.54	217.23
374.92	217.17
375.30	217.17
375.68	217.11
376.06	217.07
376.44	217.03
376.82	217.00
377.19	216.92
377.57	216.90
377.95	216.75
378.33	216.70
378.71	216.53
379.09	216.51
379.47	216.48
379.84	216.39
380.22	216.31
380.60	216.25
380.98	216.18
381.36	216.14
381.73	216.07
382.11	216.10
382.49	216.07
382.87	215.98
383.25	215.94
383.62	216.15
384.00	216.08
384.38	216.05
384.76	216.03
385.13	216.10
385.51	216.07
385.89	216.03
386.27	216.02
386.64	216.04
387.02	216.01
387.40	215.96
387.78	215.98
388.15	215.99
388.53	215.96
388.91	215.93
389.29	215.87
389.66	215.87
390.04	215.81
390.42	215.83
390.79	215.85
391.17	215.82
391.55	215.58
391.92	215.59
392.30	215.60
392.68	215.58
393.05	215.55
393.43	215.52
393.81	215.55
394.18	215.51
394.56	215.51
394.94	215.56
395.31	215.56
395.69	215.58
396.06	215.60
396.44	215.64
396.82	215.64
397.19	215.80
397.57	215.84
397.95	215.87
398.32	215.81
398.70	215.88
399.07	215.98
399.45	216.00
399.82	216.04
400.20	216.06
400.58	216.13
400.95	216.07
401.33	216.20
401.70	216.39
402.08	216.50
402.45	216.58
402.83	216.70
403.20	216.80
403.58	216.88
403.95	217.07
404.33	217.21
404.71	217.35
405.08	217.58
405.46	217.72
405.83	217.93
406.21	218.14
406.58	218.32
406.96	218.54
407.33	218.82
407.70	219.08
408.08	219.55
408.45	219.86
408.83	220.26
409.20	220.61
409.58	220.90
409.95	221.32
410.33	221.78
410.70	222.22
411.08	222.80
411.45	223.36
411.82	223.90
412.20	224.57
412.57	225.41
412.95	225.94
413.32	226.74
413.69	227.57
414.07	228.45
414.44	229.41
414.82	230.34
415.19	231.47
415.56	232.64
415.94	233.76
416.31	235.10
416.68	236.45
417.06	237.99
417.43	239.48
417.81	241.17
418.18	242.88
418.55	244.73
418.93	246.63
419.30	248.66
419.67	250.81
420.04	253.00
420.42	255.30
420.79	258.07
421.16	260.77
421.54	263.53
421.91	266.42
422.28	269.44
422.66	272.67
423.03	275.79
423.40	279.04
423.77	282.53
424.15	286.13
424.52	289.87
424.89	293.89
425.26	297.80
425.64	301.55
426.01	305.68
426.38	310.03
426.75	314.44
427.13	319.02
427.50	323.85
427.87	328.92
428.24	333.92
428.61	338.72
428.99	344.08
429.36	349.93
429.73	355.68
430.10	361.37
430.47	367.24
430.85	373.32
431.22	379.82
431.59	386.68
431.96	393.25
432.33	400.48
432.70	407.52
433.08	415.80
433.45	423.63
433.82	431.43
434.19	440.01
434.56	448.43
434.93	456.49
435.30	464.44
435.68	473.22
436.05	481.91
436.42	490.48
436.79	498.34
437.16	506.85
437.53	515.81
437.90	524.62
438.27	533.26
438.64	542.13
439.01	550.34
439.38	557.72
439.75	564.77
440.13	572.92
440.50	580.63
440.87	586.76
441.24	593.15
441.61	600.20
441.98	605.43
442.35	611.54
442.72	617.59
443.09	623.47
443.46	627.04
443.83	629.51
444.20	631.64
444.57	634.68
444.94	635.99
445.31	637.32
445.68	638.72
446.05	639.28
446.42	638.55
446.79	637.64
447.16	636.53
447.53	635.77
447.90	632.55
448.27	629.31
448.64	624.80
449.01	621.57
449.37	615.84
449.74	610.30
450.11	603.60
450.48	596.50
450.85	589.25
451.22	583.07
451.59	577.12
451.96	571.52
452.33	563.89
452.70	557.02
453.07	548.84
453.43	540.44
453.80	532.41
454.17	524.73
454.54	517.46
454.91	509.56
455.28	501.93
455.65	494.75
456.02	487.54
456.38	481.51
456.75	473.96
457.12	467.66
457.49	461.43
457.86	455.47
458.23	450.31
458.59	444.66
458.96	438.85
459.33	433.76
459.70	428.55
460.07	424.48
460.43	419.81
460.80	415.43
461.17	411.64
461.54	407.64
461.91	403.81
462.27	399.79
462.64	396.46
463.01	392.78
463.38	389.21
463.74	385.67
464.11	382.53
464.48	379.76
464.85	376.79
465.21	374.39
465.58	371.90
465.95	368.86
466.32	366.35
466.68	363.84
467.05	361.32
467.42	358.86
467.78	356.31
468.15	353.84
468.52	351.97
468.88	349.57
469.25	347.42
469.62	345.67
469.98	343.81
470.35	342.15
470.72	340.55
471.08	338.89
471.45	337.45
471.82	335.97
472.18	334.43
472.55	333.33
472.92	332.04
473.28	330.88
473.65	329.79
474.02	328.67
474.38	327.82
474.75	327.11
475.11	326.35
475.48	325.83
475.85	325.43
476.21	325.00
476.58	324.64
476.94	324.49
477.31	324.22
477.67	324.04
478.04	323.95
478.41	323.94
478.77	324.08
479.14	324.03
479.50	324.18
479.87	324.51
480.23	324.79
480.60	324.98
480.96	325.29
481.33	325.96
481.69	326.57
482.06	327.14
482.42	327.62
482.79	328.26
483.15	329.05
483.52	330.01
483.88	330.89
484.25	331.91
484.61	332.90
484.98	333.92
485.34	335.23
485.71	336.50
486.07	337.92
486.44	339.24
486.80	340.84
487.17	342.49
487.53	344.28
487.90	346.15
488.26	348.21
488.62	350.32
488.99	352.31
489.35	354.47
489.72	356.83
490.08	359.36
490.44	361.90
490.81	364.58
491.17	367.28
491.54	370.24
491.90	373.21
492.26	376.46
492.63	379.88
492.99	383.32
493.36	387.07
493.72	390.94
494.08	395.00
494.45	399.24
494.81	403.60
495.17	408.02
495.54	412.69
495.90	417.52
496.26	422.46
496.63	427.68
496.99	433.09
497.35	438.66
497.72	444.46
498.08	450.38
498.44	456.46
498.80	462.82
499.17	469.30
499.53	475.98
499.89	482.82
500.26	489.81
500.62	496.85
500.98	504.19
501.34	511.61
501.71	519.36
502.07	527.11
502.43	535.07
502.79	543.15
503.16	551.48
503.52	559.98
503.88	568.63
504.24	577.50
504.60	586.50
504.97	595.66
505.33	604.85
505.69	614.61
506.05	624.42
506.41	634.18
506.78	644.20
507.14	654.44
507.50	664.83
507.86	675.45
508.22	686.18
508.59	696.81
508.95	707.79
509.31	718.88
509.67	730.25
510.03	741.63
510.39	753.33
510.75	765.09
511.12	777.00
511.48	788.98
511.84	801.09
512.20	813.32
512.56	825.83
512.92	838.62
513.28	851.12
513.64	863.76
514.00	876.48
514.37	889.27
514.73	902.12
515.09	914.96
515.45	927.64
515.81	940.49
516.17	953.64
516.53	966.73
516.89	979.65
517.25	992.60
517.61	1005.88
517.97	1019.03
518.33	1031.96
518.69	1045.13
519.05	1058.71
519.41	1072.15
519.77	1085.75
520.13	1098.81
520.49	1111.72
520.85	1124.88
521.21	1137.95
521.57	1151.44
521.93	1164.37
522.29	1177.96
522.65	1191.43
523.01	1204.82
523.37	1217.83
523.73	1230.88
524.09	1243.72
524.45	1256.93
524.81	1270.26
525.17	1283.41
525.53	1296.34
525.89	1309.43
526.25	1322.34
526.61	1334.78
526.97	1347.59
527.33	1360.20
527.68	1373.44
528.04	1386.57
528.40	1399.36
528.76	1412.36
529.12	1424.96
529.48	1437.88
529.84	1449.89
530.20	1462.23
530.56	1474.60
530.91	1487.51
531.27	1500.05
531.63	1512.46
531.99	1524.91
532.35	1536.78
532.71	1548.89
533.07	1561.36
533.42	1573.28
533.78	1585.03
534.14	1596.89
534.50	1607.83
534.86	1619.10
535.21	1629.57
535.57	1640.80
535.93	1651.83
536.29	1662.66
536.65	1673.67
537.00	1684.26
537.36	1695.22
537.72	1705.92
538.08	1716.81
538.44	1727.50
538.79	1738.11
539.15	1748.71
539.51	1759.10
539.87	1770.06
540.22	1780.58
540.58	1791.20
540.94	1801.77
541.29	1811.85
541.65	1821.22
542.01	1831.47
542.37	1841.25
542.72	1851.18
543.08	1860.49
543.44	1870.73
543.79	1879.72
544.15	1888.92
544.51	1898.68
544.87	1908.24
545.22	1917.09
545.58	1925.72
545.94	1934.20
546.29	1942.62
546.65	1950.75
547.01	1958.68
547.36	1966.06
547.72	1973.51
548.07	1980.92
548.43	1988.35
548.79	1995.90
549.14	2003.89
549.50	2012.04
549.86	2019.72
550.21	2026.81
550.57	2034.32
550.92	2040.80
551.28	2048.17
551.64	2055.26
551.99	2062.53
552.35	2069.63
552.70	2076.37
553.06	2082.81
553.41	2088.98
553.77	2095.29
554.13	2101.56
554.48	2108.51
554.84	2115.46
555.19	2121.80
555.55	2128.23
555.90	2134.47
556.26	2141.16
556.61	2146.97
556.97	2151.68
557.32	2157.41
557.68	2163.79
558.03	2169.50
558.39	2174.60
558.74	2180.40
559.10	2185.96
559.45	2191.48
559.81	2196.80
560.16	2202.29
560.52	2208.18
560.87	2214.43
561.23	2220.23
561.58	2226.77
561.94	2231.85
562.29	2236.56
562.64	2242.50
563.00	2247.89
563.35	2253.35
563.71	2259.17
564.06	2264.87
564.42	2270.84
564.77	2275.91
565.12	2281.14
565.48	2286.29
565.83	2291.94
566.19	2297.29
566.54	2302.80
566.89	2307.36
567.25	2311.95
567.60	2317.73
567.96	2323.02
568.31	2327.55
568.66	2332.01
569.02	2336.11
569.37	2340.06
569.72	2344.61
570.08	2348.34
570.43	2351.43
570.78	2354.60
571.14	2357.14
571.49	2360.32
571.84	2363.94
572.20	2366.85
572.55	2369.84
572.90	2372.16
573.26	2375.20
573.61	2377.87
573.96	2380.04
574.31	2382.18
574.67	2384.17
575.02	2385.00
575.37	2386.44
575.72	2387.48
576.08	2388.99
576.43	2389.07
576.78	2389.73
577.13	2391.57
577.49	2392.86
577.84	2394.32
578.19	2395.97
578.54	2396.70
578.90	2397.80
579.25	2397.89
579.60	2398.20
579.95	2397.85
580.30	2398.30
580.66	2397.76
581.01	2396.21
581.36	2394.10
581.71	2392.74
582.06	2391.93
582.42	2391.16
582.77	2389.18
583.12	2387.75
583.47	2386.75
583.82	2386.45
584.17	2385.36
584.53	2383.27
584.88	2381.30
585.23	2379.51
585.58	2377.20
585.93	2375.35
586.28	2373.30
586.63	2370.93
586.98	2368.63
587.34	2366.66
587.69	2364.33
588.04	2362.28
588.39	2360.92
588.74	2358.45
589.09	2356.21
589.44	2353.27
589.79	2351.00
590.14	2349.30
590.49	2346.63
590.84	2342.80
591.19	2339.94
591.54	2336.77
591.89	2332.90
592.25	2329.85
592.60	2325.85
592.95	2321.98
593.30	2317.85
593.65	2313.62
594.00	2309.35
594.35	2306.63
594.70	2302.23
595.05	2297.85
595.40	2292.60
595.75	2287.30
596.10	2283.90
596.45	2279.07
596.80	2274.51
597.15	2269.40
597.50	2263.54
597.85	2258.65
598.19	2253.49
598.54	2247.65
598.89	2242.63
599.24	2238.15
599.59	2232.10
599.94	2226.50
600.29	2220.66
600.64	2214.88
600.99	2208.19
601.34	2202.87
601.69	2196.04
602.04	2189.76
602.39	2183.35
602.74	2177.49
603.08	2171.91
603.43	2165.50
603.78	2158.83
604.13	2151.93
604.48	2145.10
604.83	2139.16
605.18	2132.92
605.53	2126.08
605.87	2119.26
606.22	2112.58
606.57	2104.82
606.92	2097.01
607.27	2090.14
607.62	2083.65
607.96	2076.69
608.31	2070.29
608.66	2062.66
609.01	2055.11
609.36	2048.03
609.70	2040.24
610.05	2032.42
610.40	2024.22
610.75	2015.96
611.10	2008.38
611.44	1999.76
611.79	1990.84
612.14	1980.82
612.49	1970.46
612.83	1961.40
613.18	1952.17
613.53	1942.85
613.88	1933.46
614.22	1924.90
614.57	1915.00
614.92	1904.57
615.27	1894.60
615.61	1884.61
615.96	1874.95
616.31	1865.36
616.65	1856.02
617.00	1846.22
617.35	1836.58
617.70	1826.95
618.04	1816.87
618.39	1806.54
618.74	1796.81
619.08	1787.30
619.43	1778.74
619.78	1770.47
620.12	1761.74
620.47	1752.07
620.82	1741.81
621.16	1731.96
621.51	1722.14
621.85	1712.33
622.20	1701.86
622.55	1691.32
622.89	1681.48
623.24	1671.71
623.59	1662.03
623.93	1651.92
624.28	1642.33
624.62	1632.34
624.97	1622.05
625.32	1612.38
625.66	1603.69
626.01	1594.83
626.35	1585.40
626.70	1575.35
627.04	1565.24
627.39	1555.19
627.73	1545.94
628.08	1537.00
628.43	1527.38
628.77	1518.10
629.12	1509.33
629.46	1501.53
629.81	1493.12
630.15	1483.47
630.50	1473.71
630.84	1463.28
631.19	1453.39
631.53	1443.98
631.88	1433.86
632.22	1423.90
632.57	1414.62
632.91	1404.37
633.26	1394.60
633.60	1385.10
633.95	1375.68
634.29	1366.28
634.64	1356.92
634.98	1347.18
635.32	1337.78
635.67	1329.19
636.01	1319.95
636.36	1310.06
636.70	1300.59
637.05	1291.33
637.39	1282.41
637.73	1273.79
638.08	1266.15
638.42	1257.88
638.77	1249.19
639.11	1240.99
639.45	1233.18
639.80	1224.57
640.14	1215.89
640.49	1207.00
640.83	1198.16
641.17	1190.14
641.52	1181.98
641.86	1173.52
642.20	1165.61
642.55	1157.09
642.89	1148.38
643.23	1139.75
643.58	1131.67
643.92	1122.58
644.26	1113.89
644.61	1105.57
644.95	1096.99
645.29	1087.78
645.64	1078.78
645.98	1070.38
646.32	1062.44
646.66	1053.92
647.01	1045.60
647.35	1037.55
647.69	1029.22
648.04	1021.00
648.38	1012.13
648.72	1003.42
649.06	994.99
649.41	986.89
649.75	979.01
650.09	971.22
650.43	963.27
650.78	955.14
651.12	947.61
651.46	940.28
651.80	933.03
652.14	925.72
652.49	918.34
652.83	911.05
653.17	903.35
653.51	895.68
653.85	888.52
654.20	881.27
654.54	873.81
654.88	866.73
655.22	859.61
655.56	852.77
655.90	846.08
656.25	839.51
656.59	832.55
656.93	825.56
657.27	818.45
657.61	811.56
657.95	805.48
658.29	799.56
658.64	793.52
658.98	787.14
659.32	780.62
659.66	774.39
660.00	768.12
660.34	762.21
660.68	756.27
661.02	750.02
661.36	744.25
661.70	738.52
662.05	732.95
662.39	727.54
662.73	722.11
663.07	716.77
663.41	711.25
663.75	705.67
664.09	700.06
664.43	694.72
664.77	689.41
665.11	683.66
665.45	677.88
665.79	672.12
666.13	666.47
666.47	661.01
666.81	655.65
667.15	650.42
667.49	645.28
667.83	640.09
668.17	634.96
668.51	629.97
668.85	625.20
669.19	620.33
669.53	615.39
669.87	610.39
670.21	605.71
670.55	601.02
670.89	596.65
671.23	592.49
671.57	588.26
671.91	584.03
672.25	579.97
672.58	575.92
672.92	571.91
673.26	568.08
673.60	564.40
673.94	560.68
674.28	557.04
674.62	553.33
674.96	549.65
675.30	546.21
675.64	542.52
675.97	538.97
676.31	535.50
676.65	531.95
676.99	528.58
677.33	524.80
677.67	521.13
678.01	517.33
678.34	513.73
678.68	510.19
679.02	506.60
679.36	502.94
679.70	499.32
680.04	495.83
680.37	492.47
680.71	489.15
681.05	485.99
681.39	482.83
681.73	479.76
682.06	476.77
682.40	473.69
682.74	470.55
683.08	467.40
683.42	464.26
683.75	461.32
684.09	458.37
684.43	455.63
684.77	452.85
685.10	450.05
685.44	447.18
685.78	444.33
686.12	441.67
686.45	439.07
686.79	436.51
687.13	434.01
687.46	431.42
687.80	428.82
688.14	426.02
688.48	423.43
688.81	420.77
689.15	418.26
689.49	415.69
689.82	413.22
690.16	410.72
690.50	408.28
690.83	405.84
691.17	403.37
691.51	401.01
691.84	398.78
692.18	396.66
692.52	394.48
692.85	392.37
693.19	390.26
693.52	388.10
693.86	385.91
694.20	383.76
694.53	381.66
694.87	379.49
695.21	377.42
695.54	375.32
695.88	373.24
696.21	371.07
696.55	369.00
696.88	367.00
697.22	365.09
697.56	363.22
697.89	361.35
698.23	359.60
698.56	357.80
698.90	356.06
699.23	354.17
699.57	352.36
699.90	350.54
700.24	348.79
700.58	347.04
700.91	345.42
701.25	343.97
701.58	342.44
701.92	340.86
702.25	339.34
702.59	337.74
702.92	336.24
703.26	334.74
703.59	333.34
703.93	332.10
704.26	330.64
704.60	329.22
704.93	327.84
705.26	326.35
705.60	324.88
705.93	323.41
706.27	322.10
706.60	320.89
706.94	319.67
707.27	318.28
707.61	317.00
707.94	315.70
708.27	314.16
708.61	312.73
708.94	311.41
709.28	310.15
709.61	308.94
709.94	307.73
710.28	306.53
710.61	305.33
710.95	303.96
711.28	302.92
711.61	301.71
711.95	300.56
712.28	299.41
712.61	298.29
712.95	297.27
713.28	296.27
713.61	295.16
713.95	294.06
714.28	293.07
714.61	292.04
714.95	291.02
715.28	290.00
715.61	289.02
715.95	288.10
716.28	287.12
716.61	286.16
716.95	285.19
717.28	284.31
717.61	283.41
717.94	282.53
718.28	281.53
718.61	280.76
718.94	279.83
719.27	279.00
719.61	278.23
719.94	277.37
720.27	276.43
720.60	275.61
720.94	274.85
721.27	274.16
721.60	273.50
721.93	272.79
722.27	272.22
722.60	271.56
722.93	270.90
723.26	270.27
723.59	269.60
723.93	269.01
724.26	268.34
724.59	267.68
724.92	267.10
725.25	266.62
725.59	266.01
725.92	265.50
726.25	265.00
726.58	264.40
726.91	263.84
727.24	263.32
727.57	262.76
727.91	262.15
728.24	261.63
728.57	261.05
728.90	260.54
729.23	259.90
729.56	259.48
729.89	258.94
730.22	258.38
730.55	257.91
730.89	257.38
731.22	256.89
731.55	256.41
731.88	255.89
732.21	255.35
732.54	254.83
732.87	254.34
733.20	253.83
733.53	253.40
733.86	252.97
734.19	252.50
734.52	252.08
734.85	251.83
735.18	251.32
735.51	250.94
735.84	250.53
736.17	250.21
736.50	249.69
736.83	249.57
737.16	249.22
737.49	248.81
737.82	248.44
738.15	248.10
738.48	247.74
738.81	247.36
739.14	246.94
739.47	246.60
739.80	246.26
740.13	245.93
740.46	245.55
740.79	245.15
741.12	244.82
741.45	244.47
741.78	243.99
742.11	243.77
742.44	243.42
742.77	243.15
743.10	242.79
743.43	242.47
743.75	241.85
744.08	241.80
744.41	241.46
744.74	241.13
745.07	240.80
745.40	240.49
745.73	240.27
746.06	239.97
746.39	239.67
746.71	239.39
747.04	239.07
747.37	238.76
747.70	238.52
748.03	238.22
748.36	237.95
748.68	237.70
749.01	237.35
749.34	237.09
749.67	236.78
750.00	236.52
750.33	236.41
750.65	236.24
750.98	235.72
751.31	235.50
751.64	235.29
751.97	235.15
752.29	234.88
752.62	234.54
752.95	234.30
753.28	234.01
753.60	233.69
753.93	233.53
754.26	233.33
754.59	233.06
754.91	232.83
755.24	232.62
755.57	232.37
755.90	232.13
756.22	231.87
756.55	231.64
756.88	231.39
757.20	231.06
757.53	230.78
757.86	230.59
758.19	230.37
758.51	230.14
758.84	229.87
759.17	229.71
759.49	229.53
759.82	229.46
760.15	229.35
760.47	229.17
760.80	228.93
761.13	228.79
761.45	228.58
761.78	228.41
762.11	228.21
762.43	228.04
762.76	227.89
763.08	227.72
763.41	227.58
763.74	227.43
764.06	227.23
764.39	227.08
764.71	226.90
765.04	226.73
765.37	226.60
765.69	226.43
766.02	226.30
766.34	226.16
766.67	225.95
767.00	225.83
767.32	225.82
767.65	225.79
767.97	225.63
768.30	225.55
768.62	225.42
768.95	225.28
769.27	225.18
769.60	225.07
769.92	224.93
770.25	224.78
770.57	224.63
770.90	224.54
771.22	224.40
771.55	224.31
771.87	224.22
772.20	224.07
772.52	224.14
772.85	224.22
773.17	224.11
773.50	223.95
773.82	223.84
774.15	223.64
774.47	223.42
774.80	223.29
775.12	223.18
775.45	223.10
775.77	223.03
776.09	222.90
776.42	222.78
776.74	222.79
777.07	222.70
777.39	222.63
777.72	222.53
778.04	222.49
778.36	222.39
778.69	222.34
779.01	222.27
779.33	222.00
779.66	221.72
779.98	221.63
780.31	221.58
780.63	221.54
780.95	221.48
781.28	221.39
781.60	221.34
781.92	221.30
782.25	221.23
782.57	221.14
782.89	221.08
783.22	221.05
783.54	220.91
783.86	220.86
784.19	220.77
784.51	220.78
784.83	220.67
785.16	220.64
785.48	220.55
785.80	220.51
786.12	220.48
786.45	220.41
786.77	220.39
787.09	220.35
787.42	220.22
787.74	220.17
788.06	220.15
788.38	220.09
788.71	220.02
789.03	219.97
789.35	219.93
789.67	219.86
789.99	219.82
790.32	219.74
790.64	219.70
790.96	219.84
791.28	219.73
791.61	219.69
791.93	219.60
792.25	219.54
792.57	219.64
792.89	219.54
793.21	219.54
793.54	219.48
793.86	219.40
794.18	219.35
794.50	219.30
794.82	219.27
795.14	219.25
795.47	219.24
795.79	219.21
796.11	219.16
796.43	219.08
796.75	219.03
797.07	219.05
797.39	218.99
797.71	218.80
798.04	218.77
798.36	218.75
798.68	218.75
799.00	218.77
799.32	218.62
799.64	218.65
799.96	218.60
800.28	218.60
800.60	218.57
800.92	218.62
801.24	218.56
801.56	218.53
801.89	218.47
802.21	218.46
802.53	218.37
802.85	218.37
803.17	218.48
803.49	218.42
803.81	218.34
804.13	218.30
804.45	218.22
804.77	218.20
805.09	218.18
805.41	218.11
805.73	218.00
806.05	217.93
806.37	217.87
806.69	217.79
807.01	217.76
807.33	217.74
807.65	217.60
807.97	217.70
808.28	217.66
808.60	217.61
808.92	217.54
809.24	217.64
809.56	217.55
809.88	217.45
810.20	217.44
810.52	217.46
810.84	217.43
811.16	217.39
811.48	217.34
811.80	217.40
812.12	217.36
812.43	217.39
812.75	217.39
813.07	217.33
813.39	217.37
813.71	217.27
814.03	217.23
814.35	217.19
814.67	217.08
814.98	217.05
815.30	217.03
815.62	216.97
815.94	216.81
816.26	216.84
816.58	216.78
816.89	216.79
817.21	216.70
817.53	216.72
817.85	216.75
818.17	216.74
818.48	216.63
818.80	216.63
819.12	216.60
819.44	216.51
819.76	216.49
820.07	216.45
820.39	216.44
820.71	216.45
821.03	216.45
821.34	216.43
821.66	216.43
821.98	216.44
822.30	216.42
822.61	216.54
822.93	216.49
823.25	216.48
823.57	216.43
823.88	216.47
824.20	216.42
824.52	216.40
824.83	216.38
825.15	216.34
825.47	216.34
825.79	216.33
826.10	216.35
826.42	216.33
826.74	216.36
827.05	216.35
827.37	216.35
827.69	216.35
828.00	216.35
828.32	216.32
828.64	216.28
828.95	216.38
829.27	216.29
829.58	216.27
829.90	216.29
830.22	216.29
830.53	216.21
830.85	216.20
831.17	216.17
831.48	216.14
831.80	216.15
832.11	216.11
832.43	216.08
832.75	216.05
833.06	216.14
833.38	216.04
833.69	216.04
834.01	216.01
834.32	215.97
834.64	215.94
834.96	215.94
835.27	215.92
835.59	215.83
835.90	215.80
836.22	215.78
836.53	215.74
836.85	215.72
837.16	215.92
837.48	215.90
837.79	215.95
838.11	215.94
838.42	215.94
838.74	215.99
839.05	216.00
839.37	216.00
839.68	215.86
840.00	215.86
840.31	215.86
840.63	215.85
840.94	215.84
841.26	215.82
841.57	215.80
841.88	215.82
842.20	215.78
842.51	215.78
842.83	215.80
843.14	215.98
843.46	215.99
843.77	215.91
844.08	215.89
844.40	215.82
844.71	215.84
845.03	215.81
845.34	215.73
845.65	215.70
845.97	215.72
846.28	215.74
846.60	215.75
846.91	215.69
847.22	215.71
847.54	215.76
847.85	215.74
848.16	215.72
848.48	215.68
848.79	215.79
849.10	215.79
849.42	215.79
849.73	215.59
850.04	215.55
850.36	215.46
850.67	215.49
850.98	215.48
851.30	215.48
851.61	215.47
851.92	215.49
852.23	215.53
852.55	215.51
852.86	215.52
853.17	215.53
853.49	215.59
853.80	215.61
854.11	215.62
854.42	215.66
854.74	215.65
855.05	215.67
855.36	215.57
855.67	215.58
855.99	215.60
856.30	215.84
856.61	215.85
856.92	215.86
857.23	215.87
857.55	215.83
857.86	215.81
858.17	215.86
858.48	215.80
858.79	215.77
859.11	215.81
859.42	215.81
859.73	215.81
860.04	215.80
860.35	215.73
860.66	215.66
860.98	215.64
861.29	215.65
861.60	215.63
861.91	215.66
862.22	215.59
862.53	215.56
862.84	215.32
863.16	215.35
863.47	215.31
863.78	215.27
864.09	215.30
864.40	215.31
864.71	215.29
865.02	215.35
865.33	215.32
865.64	215.26
865.95	215.26
866.27	215.38
866.58	215.35
866.89	215.38
867.20	215.37
867.51	215.33
867.82	215.32
868.13	215.37
868.44	215.36
868.75	215.41
869.06	215.40
869.37	215.45
869.68	215.40
869.99	215.42
870.30	215.43
870.61	215.43
870.92	215.41
871.23	215.40
871.54	215.39
871.85	215.43
872.16	215.47
872.47	215.43
872.78	215.30
873.09	215.31
873.40	215.30
873.71	215.34
874.02	215.37
874.33	215.35
874.64	215.32
874.95	215.34
875.26	215.30
875.56	215.30
875.87	215.25
876.18	215.23
876.49	215.40
876.80	215.35
877.11	215.32
877.42	215.30
877.73	215.30
878.04	215.27
878.35	215.30
878.66	215.29
878.96	215.30
879.27	215.27
879.58	215.27
879.89	215.22
880.20	215.25
880.51	215.22
880.82	215.21
881.12	215.21
881.43	215.15
881.74	215.12
882.05	215.12
882.36	215.14
882.67	215.18
882.97	214.97
883.28	214.99
883.59	215.02
883.90	215.05
884.21	215.09
884.51	215.07
884.82	215.03
885.13	215.05
885.44	215.05
885.74	215.02
886.05	215.00
886.36	215.02
886.67	214.94
886.98	215.04
887.28	215.07
887.59	215.07
887.90	215.07
888.20	215.05
888.51	215.08
888.82	215.02
889.13	215.03
889.43	215.19
889.74	215.19
890.05	215.17
890.35	215.15
890.66	215.09
890.97	215.05
891.28	215.02
891.58	215.02
891.89	215.00
892.20	215.02
892.50	215.00
892.81	215.01
893.12	214.99
893.42	214.90
893.73	214.90
894.04	214.90
894.34	214.94
894.65	214.96
894.95	214.94
895.26	214.95
895.57	215.03
895.87	214.82
896.18	214.85
896.48	214.88
896.79	214.88
897.10	214.91
897.40	214.95
897.71	214.98
898.01	214.95
898.32	214.96
898.63	214.97
898.93	214.99
899.24	215.00
899.54	215.02
899.85	214.99
900.15	214.97
900.46	214.95
900.76	214.96
901.07	214.94
901.38	214.93
901.68	214.96
901.99	214.86
902.29	214.92
902.60	214.90
902.90	214.87
903.21	214.87
903.51	214.89
903.82	214.95
904.12	214.91
904.43	214.90
904.73	214.91
905.03	214.91
905.34	215.10
905.64	215.07
905.95	215.04
906.25	215.06
906.56	215.06
906.86	215.05
907.17	215.01
907.47	215.05
907.77	215.03
908.08	214.96
908.38	214.97
908.69	214.94
908.99	214.99
909.30	214.99
909.60	214.98
909.90	214.99
910.21	214.91
910.51	214.89
910.81	214.92
911.12	214.91
911.42	214.90
911.73	214.70
912.03	214.72
912.33	214.75
912.64	214.74
912.94	214.71
913.24	214.71
913.55	214.72
913.85	214.70
914.15	214.74
914.46	214.78
914.76	214.76
915.06	214.76
915.37	214.67
915.67	214.65
915.97	214.66
916.27	214.58
916.58	214.60
916.88	214.60
917.18	214.57
917.49	214.73
917.79	214.74
918.09	214.76
918.39	214.80
918.70	214.81
919.00	214.80
919.30	214.89
919.60	214.88
919.91	214.87
920.21	214.88
920.51	214.85
920.81	214.83
921.12	214.88
921.42	214.87
921.72	214.92
922.02	214.95
922.32	214.95
922.63	214.98
922.93	215.06
923.23	215.07
923.53	215.05
923.83	214.89
924.13	214.89
924.44	214.87
924.74	214.92
925.04	214.98
925.34	215.01
925.64	214.93
925.94	214.89
926.24	214.98
926.55	214.95
926.85	214.96
927.15	214.94
927.45	214.90
927.75	214.92
928.05	214.90
928.35	214.84
928.65	214.89
928.95	214.91
929.26	214.85
929.56	214.91
929.86	214.92
930.16	214.91
930.46	214.90
930.76	214.95
931.06	214.83
931.36	214.75
931.66	214.77
931.96	214.78
932.26	214.84
932.56	214.75
932.86	214.76
933.16	214.75
933.46	214.77
933.76	214.73
934.06	214.79
934.36	214.91
934.66	214.95
934.96	214.93
935.26	214.91
935.56	214.95
935.86	214.89
936.16	214.87
936.46	214.87
936.76	214.88
937.06	214.83
937.36	214.90
937.66	214.90
937.96	214.89
938.26	214.87
938.56	214.86
938.86	214.88
939.16	214.90
939.46	214.94
939.76	214.94
940.06	214.97
940.35	214.88
940.65	214.74
940.95	214.76
941.25	214.72
941.55	214.70
941.85	214.66
942.15	214.70
942.45	214.80
942.75	214.77
943.04	214.76
943.34	214.81
943.64	214.78
943.94	214.78
944.24	214.78
944.54	214.81
944.84	214.79
945.13	214.78
945.43	214.79
945.73	214.78
946.03	214.76
946.33	214.77
946.62	214.81
946.92	214.83
947.22	214.83
947.52	214.84
947.82	214.89
948.11	214.89
948.41	214.87
948.71	214.76
949.01	214.78
949.31	214.77
949.60	214.76
949.90	214.78
950.20	214.77
950.50	214.76
950.79	214.71
951.09	214.73
951.39	214.72
951.69	214.69
951.98	214.71
952.28	214.72
952.58	214.68
952.87	214.68
953.17	214.69
953.47	214.65
953.76	214.64
954.06	214.58
954.36	214.53
954.66	214.54
954.95	214.59
955.25	214.60
955.55	214.62
955.84	214.61
956.14	214.61
956.44	214.64
956.73	214.63
957.03	214.64
957.32	214.65
957.62	214.62
957.92	214.65
958.21	214.61
958.51	214.84
958.81	214.88
959.10	214.90
959.40	214.93
959.69	214.96
959.99	214.99
960.29	215.01
960.58	215.03
960.88	215.11
961.17	215.07
961.47	215.11
961.76	215.09
962.06	215.09
962.36	215.06
962.65	215.05
962.95	215.04
963.24	214.98
963.54	214.97
963.83	215.02
964.13	215.00
964.42	214.98
964.72	214.79
965.01	214.80
965.31	214.76
965.60	214.72
965.90	214.83
966.19	214.75
966.49	214.77
966.78	214.76
967.08	214.71
967.37	214.72
967.67	214.64
967.96	214.69
968.26	214.68
968.55	214.71
968.85	214.71
969.14	214.72
969.43	214.75
969.73	214.73
970.02	214.71
970.32	214.71
970.61	214.67
970.91	214.61
971.20	214.60
971.49	214.57
971.79	214.55
972.08	214.45
972.38	214.48
972.67	214.47
972.96	214.47
973.26	214.45
973.55	214.52
973.85	214.49
974.14	214.43
974.43	214.43
974.73	214.41
975.02	214.39
975.31	214.39
975.61	214.39
975.90	214.40
976.19	214.36
976.49	214.39
976.78	214.41
977.07	214.42
977.37	214.43
977.66	214.46
977.95	214.48
978.24	214.47
978.54	214.52
978.83	214.47
979.12	214.49
979.42	214.52
979.71	214.46
980.00	214.50
980.29	214.52
980.59	214.50
980.88	214.53
981.17	214.52
981.46	214.51
981.76	214.54
982.05	214.58
982.34	214.60
982.63	214.55
982.93	214.58
983.22	214.64
983.51	214.64
983.80	214.68
984.09	214.69
984.39	214.69
984.68	214.64
984.97	214.66
985.26	214.60
985.55	214.59
985.85	214.55
986.14	214.56
986.43	214.57
986.72	214.56
987.01	214.51
987.30	214.52
987.59	214.55
987.89	214.56
988.18	214.52
988.47	214.53
988.76	214.54
989.05	214.50
989.34	214.44
989.63	214.51
989.92	214.45
990.22	214.42
990.51	214.40
990.80	214.41
991.09	214.44
991.38	214.48
991.67	214.46
991.96	214.46
992.25	214.49
992.54	214.46
992.83	214.47
993.12	214.47
993.41	214.48
993.70	214.53
993.99	214.53
994.28	214.57
994.58	214.60
994.87	214.57
995.16	214.63
995.45	214.64
995.74	214.57
996.03	214.60
996.32	214.65
996.61	214.70
996.90	214.65
997.19	214.65
997.48	214.69
997.77	214.69
998.06	214.70
998.34	214.66
998.63	214.63
998.92	214.62
999.21	214.65
999.50	214.68
999.79	214.63
1000.08	214.65
1000.37	214.67
1000.66	214.62
1000.95	214.69
1001.24	214.65
1001.53	214.67
1001.82	214.64
1002.11	214.60
1002.40	214.62
1002.68	214.66
1002.97	214.87
1003.26	214.80
1003.55	214.76
1003.84	214.77
1004.13	214.84
1004.42	214.85
1004.71	214.89
1004.99	214.88
1005.28	214.94
1005.57	214.91
1005.86	214.88
1006.15	214.84
1006.44	214.79
1006.72	214.83
1007.01	214.78
1007.30	214.79
1007.59	214.77
1007.88	214.80
1008.17	214.81
1008.45	214.76
1008.74	214.67
1009.03	214.55
1009.32	214.57
1009.60	214.55
1009.89	214.52
1010.18	214.42
1010.47	214.38
1010.76	214.38
1011.04	214.41
1011.33	214.42
1011.62	214.43
1011.91	214.45
1012.19	214.48
1012.48	214.48
1012.77	214.47
1013.05	214.58
1013.34	214.60
1013.63	214.56
1013.92	214.55
1014.20	214.54
1014.49	214.56
1014.78	214.60
1015.06	214.55
1015.35	214.57
1015.64	214.61
1015.92	214.65
1016.21	214.67
1016.50	214.69
1016.78	214.70
1017.07	214.70
1017.36	214.63
1017.64	214.60
1017.93	214.63
1018.22	214.60
1018.50	214.60
1018.79	214.59
1019.08	214.50
1019.36	214.49
1019.65	214.53
1019.93	214.61
1020.22	214.66
1020.51	214.78
1020.79	214.73
1021.08	214.30
1021.36	214.26
1021.65	214.46
1021.94	214.74
1022.22	214.65
1022.51	214.56
1022.79	215.85
1023.08	215.26
1023.36	217.44
1023.65	213.84
>>>>>End Processed Spectral Data<<<<<
