SpectraSuite Data File
++++++++++++++++++++++++++++++++++++
Date: Tue Jan 29 16:12:37 EST 2013
User: group
Dark Spectrum Present: No
Reference Spectrum Present: No
Number of Sampled Component Spectra: 1
Spectrometers: USB2E7196
Integration Time (usec): 65000 (USB2E7196)
Spectra Averaged: 100 (USB2E7196)
Boxcar Smoothing: 10 (USB2E7196)
Correct for Electrical Dark: No (USB2E7196)
Strobe/Lamp Enabled: No (USB2E7196)
Correct for Detector Non-linearity: No (USB2E7196)
Correct for Stray Light: No (USB2E7196)
Number of Pixels in Processed Spectrum: 2048
>>>>>Begin Processed Spectral Data<<<<<
339.09	0.00
339.48	202.38
339.86	203.30
340.24	205.45
340.63	206.64
341.01	210.46
341.39	209.31
341.78	211.07
342.16	211.90
342.54	212.39
342.93	201.48
343.31	211.66
343.69	212.21
344.07	212.70
344.46	213.13
344.84	213.56
345.22	213.77
345.60	214.03
345.99	214.24
346.37	214.41
346.75	214.54
347.13	214.62
347.52	214.73
347.90	214.84
348.28	214.90
348.66	214.98
349.05	214.96
349.43	215.03
349.81	215.12
350.19	215.21
350.57	215.26
350.96	215.40
351.34	215.53
351.72	215.65
352.10	215.76
352.48	215.84
352.87	215.86
353.25	215.96
353.63	216.03
354.01	216.06
354.39	216.11
354.77	216.18
355.15	216.33
355.54	216.39
355.92	216.42
356.30	216.48
356.68	216.71
357.06	216.81
357.44	216.85
357.82	216.90
358.20	217.01
358.58	217.09
358.97	217.16
359.35	217.27
359.73	217.35
360.11	217.45
360.49	217.54
360.87	217.59
361.25	217.65
361.63	217.74
362.01	217.83
362.39	217.89
362.77	217.94
363.15	217.95
363.53	217.99
363.91	217.98
364.29	218.00
364.67	217.82
365.05	217.86
365.43	217.91
365.81	217.95
366.19	218.00
366.57	218.11
366.95	218.12
367.33	218.06
367.71	218.05
368.09	218.08
368.47	218.07
368.85	218.09
369.23	218.11
369.61	218.08
369.99	218.12
370.37	218.13
370.75	218.23
371.13	218.17
371.51	218.12
371.89	218.17
372.27	218.17
372.65	218.15
373.03	218.09
373.41	218.07
373.78	218.02
374.16	217.89
374.54	217.76
374.92	217.67
375.30	217.61
375.68	217.54
376.06	217.52
376.44	217.45
376.82	217.41
377.19	217.37
377.57	217.29
377.95	217.18
378.33	217.10
378.71	216.91
379.09	216.90
379.47	216.87
379.84	216.79
380.22	216.75
380.60	216.67
380.98	216.60
381.36	216.53
381.73	216.48
382.11	216.47
382.49	216.41
382.87	216.35
383.25	216.34
383.62	216.49
384.00	216.39
384.38	216.35
384.76	216.35
385.13	216.37
385.51	216.31
385.89	216.24
386.27	216.23
386.64	216.24
387.02	216.18
387.40	216.14
387.78	216.10
388.15	216.08
388.53	216.05
388.91	216.06
389.29	216.01
389.66	216.04
390.04	216.01
390.42	216.02
390.79	215.99
391.17	215.96
391.55	215.76
391.92	215.78
392.30	215.77
392.68	215.71
393.05	215.67
393.43	215.68
393.81	215.67
394.18	215.63
394.56	215.60
394.94	215.65
395.31	215.64
395.69	215.73
396.06	215.79
396.44	215.83
396.82	215.82
397.19	215.96
397.57	215.93
397.95	215.98
398.32	215.93
398.70	215.97
399.07	216.04
399.45	216.05
399.82	216.08
400.20	216.13
400.58	216.20
400.95	216.18
401.33	216.29
401.70	216.54
402.08	216.61
402.45	216.74
402.83	216.87
403.20	216.98
403.58	217.03
403.95	217.13
404.33	217.27
404.71	217.38
405.08	217.64
405.46	217.82
405.83	218.00
406.21	218.22
406.58	218.47
406.96	218.67
407.33	218.96
407.70	219.26
408.08	219.68
408.45	220.02
408.83	220.43
409.20	220.76
409.58	221.00
409.95	221.46
410.33	221.87
410.70	222.30
411.08	222.84
411.45	223.40
411.82	223.96
412.20	224.62
412.57	225.43
412.95	225.93
413.32	226.74
413.69	227.58
414.07	228.47
414.44	229.42
414.82	230.39
415.19	231.53
415.56	232.65
415.94	233.80
416.31	235.16
416.68	236.50
417.06	238.04
417.43	239.56
417.81	241.23
418.18	242.99
418.55	244.82
418.93	246.75
419.30	248.77
419.67	250.93
420.04	253.16
420.42	255.43
420.79	258.17
421.16	260.85
421.54	263.63
421.91	266.49
422.28	269.48
422.66	272.64
423.03	275.78
423.40	279.03
423.77	282.49
424.15	286.00
424.52	289.70
424.89	293.77
425.26	297.72
425.64	301.50
426.01	305.64
426.38	310.00
426.75	314.44
427.13	319.04
427.50	323.82
427.87	328.85
428.24	333.93
428.61	338.75
428.99	344.07
429.36	349.87
429.73	355.57
430.10	361.21
430.47	367.14
430.85	373.19
431.22	379.61
431.59	386.49
431.96	393.15
432.33	400.37
432.70	407.34
433.08	415.56
433.45	423.36
433.82	431.08
434.19	439.62
434.56	448.01
434.93	456.06
435.30	464.07
435.68	472.82
436.05	481.45
436.42	490.11
436.79	498.01
437.16	506.49
437.53	515.45
437.90	524.32
438.27	532.94
438.64	541.88
439.01	550.17
439.38	557.47
439.75	564.48
440.13	572.64
440.50	580.27
440.87	586.42
441.24	592.76
441.61	599.85
441.98	605.04
442.35	611.09
442.72	617.14
443.09	623.00
443.46	626.60
443.83	629.01
444.20	631.09
444.57	634.12
444.94	635.49
445.31	636.89
445.68	638.30
446.05	638.90
446.42	638.07
446.79	637.14
447.16	636.10
447.53	635.37
447.90	632.12
448.27	628.96
448.64	624.45
449.01	621.29
449.37	615.63
449.74	610.14
450.11	603.49
450.48	596.35
450.85	589.10
451.22	582.81
451.59	576.91
451.96	571.23
452.33	563.59
452.70	556.77
453.07	548.60
453.43	540.22
453.80	532.25
454.17	524.57
454.54	517.29
454.91	509.42
455.28	501.71
455.65	494.57
456.02	487.37
456.38	481.36
456.75	473.79
457.12	467.40
457.49	461.18
457.86	455.26
458.23	450.13
458.59	444.49
458.96	438.75
459.33	433.67
459.70	428.55
460.07	424.49
460.43	419.76
460.80	415.30
461.17	411.45
461.54	407.35
461.91	403.53
462.27	399.58
462.64	396.26
463.01	392.66
463.38	389.14
463.74	385.56
464.11	382.45
464.48	379.71
464.85	376.80
465.21	374.44
465.58	371.89
465.95	368.86
466.32	366.30
466.68	363.80
467.05	361.30
467.42	358.83
467.78	356.26
468.15	353.82
468.52	352.00
468.88	349.56
469.25	347.47
469.62	345.72
469.98	343.87
470.35	342.17
470.72	340.50
471.08	338.73
471.45	337.30
471.82	335.81
472.18	334.21
472.55	333.05
472.92	331.72
473.28	330.59
473.65	329.48
474.02	328.48
474.38	327.63
474.75	326.91
475.11	326.17
475.48	325.60
475.85	325.20
476.21	324.76
476.58	324.52
476.94	324.30
477.31	324.04
477.67	323.80
478.04	323.68
478.41	323.72
478.77	323.94
479.14	323.93
479.50	324.09
479.87	324.39
480.23	324.71
480.60	324.96
480.96	325.26
481.33	325.90
481.69	326.49
482.06	327.06
482.42	327.58
482.79	328.20
483.15	328.98
483.52	329.96
483.88	330.87
484.25	331.80
484.61	332.84
484.98	333.91
485.34	335.18
485.71	336.53
486.07	337.98
486.44	339.31
486.80	340.90
487.17	342.54
487.53	344.35
487.90	346.20
488.26	348.24
488.62	350.37
488.99	352.41
489.35	354.56
489.72	356.93
490.08	359.39
490.44	361.90
490.81	364.64
491.17	367.32
491.54	370.23
491.90	373.25
492.26	376.50
492.63	379.91
492.99	383.43
493.36	387.13
493.72	390.98
494.08	395.00
494.45	399.20
494.81	403.58
495.17	408.00
495.54	412.65
495.90	417.48
496.26	422.39
496.63	427.55
496.99	432.86
497.35	438.41
497.72	444.21
498.08	450.17
498.44	456.25
498.80	462.66
499.17	469.17
499.53	475.83
499.89	482.72
500.26	489.60
500.62	496.64
500.98	503.99
501.34	511.31
501.71	518.99
502.07	526.75
502.43	534.73
502.79	542.81
503.16	551.21
503.52	559.77
503.88	568.40
504.24	577.33
504.60	586.40
504.97	595.56
505.33	604.76
505.69	614.53
506.05	624.32
506.41	634.13
506.78	644.09
507.14	654.33
507.50	664.68
507.86	675.37
508.22	686.07
508.59	696.66
508.95	707.75
509.31	718.97
509.67	730.37
510.03	741.77
510.39	753.57
510.75	765.31
511.12	777.09
511.48	789.10
511.84	801.23
512.20	813.41
512.56	825.98
512.92	838.76
513.28	851.32
513.64	863.91
514.00	876.54
514.37	889.36
514.73	902.38
515.09	915.22
515.45	927.89
515.81	940.74
516.17	954.02
516.53	966.95
516.89	979.90
517.25	992.89
517.61	1006.08
517.97	1019.18
518.33	1032.08
518.69	1045.43
519.05	1059.01
519.41	1072.49
519.77	1086.23
520.13	1099.28
520.49	1112.12
520.85	1125.21
521.21	1138.35
521.57	1151.84
521.93	1164.74
522.29	1178.13
522.65	1191.55
523.01	1204.92
523.37	1217.93
523.73	1230.82
524.09	1243.87
524.45	1257.04
524.81	1270.28
525.17	1283.41
525.53	1296.22
525.89	1309.25
526.25	1322.19
526.61	1334.72
526.97	1347.48
527.33	1360.11
527.68	1373.36
528.04	1386.64
528.40	1399.47
528.76	1412.50
529.12	1425.00
529.48	1438.08
529.84	1450.06
530.20	1462.44
530.56	1474.75
530.91	1487.69
531.27	1500.28
531.63	1512.77
531.99	1525.24
532.35	1537.17
532.71	1549.39
533.07	1561.98
533.42	1573.97
533.78	1585.64
534.14	1597.38
534.50	1608.29
534.86	1619.53
535.21	1630.09
535.57	1641.23
535.93	1652.30
536.29	1663.03
536.65	1674.21
537.00	1684.76
537.36	1695.78
537.72	1706.54
538.08	1717.66
538.44	1728.34
538.79	1739.04
539.15	1749.48
539.51	1759.75
539.87	1770.82
540.22	1781.15
540.58	1791.71
540.94	1802.22
541.29	1812.21
541.65	1821.74
542.01	1831.96
542.37	1841.65
542.72	1851.52
543.08	1860.96
543.44	1871.00
543.79	1880.13
544.15	1889.17
544.51	1898.88
544.87	1908.45
545.22	1917.36
545.58	1925.89
545.94	1934.36
546.29	1942.65
546.65	1950.72
547.01	1958.75
547.36	1966.15
547.72	1973.69
548.07	1981.15
548.43	1988.77
548.79	1996.51
549.14	2004.40
549.50	2012.69
549.86	2020.32
550.21	2027.32
550.57	2034.90
550.92	2041.56
551.28	2048.91
551.64	2056.06
551.99	2063.39
552.35	2070.39
552.70	2076.97
553.06	2083.56
553.41	2089.80
553.77	2096.05
554.13	2102.47
554.48	2109.26
554.84	2116.05
555.19	2122.33
555.55	2128.67
555.90	2134.73
556.26	2141.25
556.61	2147.13
556.97	2151.70
557.32	2157.37
557.68	2163.85
558.03	2169.36
558.39	2174.48
558.74	2180.18
559.10	2185.75
559.45	2191.16
559.81	2196.68
560.16	2202.19
560.52	2208.06
560.87	2214.37
561.23	2220.36
561.58	2226.81
561.94	2231.95
562.29	2236.79
562.64	2243.04
563.00	2248.59
563.35	2254.14
563.71	2260.00
564.06	2265.54
564.42	2271.65
564.77	2276.99
565.12	2282.20
565.48	2287.50
565.83	2293.11
566.19	2298.71
566.54	2304.13
566.89	2308.84
567.25	2313.40
567.60	2319.14
567.96	2324.24
568.31	2328.81
568.66	2333.15
569.02	2337.05
569.37	2341.01
569.72	2345.41
570.08	2348.95
570.43	2352.21
570.78	2355.26
571.14	2357.92
571.49	2361.09
571.84	2364.70
572.20	2367.57
572.55	2370.60
572.90	2372.91
573.26	2375.81
573.61	2378.25
573.96	2380.49
574.31	2382.54
574.67	2384.52
575.02	2385.37
575.37	2386.93
575.72	2387.85
576.08	2389.48
576.43	2389.92
576.78	2390.60
577.13	2392.44
577.49	2393.61
577.84	2394.84
578.19	2396.45
578.54	2397.02
578.90	2398.30
579.25	2398.09
579.60	2398.21
579.95	2397.70
580.30	2398.13
580.66	2397.68
581.01	2396.37
581.36	2394.25
581.71	2392.99
582.06	2392.19
582.42	2391.65
582.77	2389.58
583.12	2388.19
583.47	2387.01
583.82	2386.54
584.17	2385.44
584.53	2383.28
584.88	2381.48
585.23	2379.69
585.58	2377.52
585.93	2375.69
586.28	2373.61
586.63	2371.44
586.98	2369.54
587.34	2367.71
587.69	2365.49
588.04	2363.62
588.39	2362.25
588.74	2359.78
589.09	2357.41
589.44	2354.48
589.79	2352.21
590.14	2350.40
590.49	2347.69
590.84	2343.99
591.19	2341.16
591.54	2338.12
591.89	2334.33
592.25	2331.15
592.60	2327.08
592.95	2323.11
593.30	2318.96
593.65	2314.52
594.00	2310.36
594.35	2307.30
594.70	2302.85
595.05	2298.26
595.40	2292.88
595.75	2287.39
596.10	2283.95
596.45	2279.17
596.80	2274.56
597.15	2269.33
597.50	2263.57
597.85	2258.68
598.19	2253.65
598.54	2248.01
598.89	2242.89
599.24	2238.50
599.59	2232.48
599.94	2226.88
600.29	2221.11
600.64	2215.52
600.99	2209.04
601.34	2203.74
601.69	2196.87
602.04	2190.49
602.39	2184.01
602.74	2178.09
603.08	2172.59
603.43	2166.19
603.78	2159.39
604.13	2152.42
604.48	2145.32
604.83	2139.46
605.18	2133.24
605.53	2126.31
605.87	2119.23
606.22	2112.53
606.57	2104.66
606.92	2096.94
607.27	2090.03
607.62	2083.48
607.96	2076.39
608.31	2069.91
608.66	2062.17
609.01	2054.59
609.36	2047.56
609.70	2039.91
610.05	2032.31
610.40	2024.12
610.75	2016.04
611.10	2008.63
611.44	1999.94
611.79	1991.22
612.14	1981.19
612.49	1970.69
612.83	1961.48
613.18	1952.44
613.53	1943.21
613.88	1933.73
614.22	1925.08
614.57	1915.23
614.92	1904.85
615.27	1894.90
615.61	1884.88
615.96	1875.28
616.31	1865.78
616.65	1856.42
617.00	1846.60
617.35	1836.83
617.70	1827.06
618.04	1816.92
618.39	1806.53
618.74	1796.89
619.08	1787.46
619.43	1778.89
619.78	1770.80
620.12	1762.26
620.47	1752.47
620.82	1742.20
621.16	1732.44
621.51	1722.59
621.85	1712.81
622.20	1702.29
622.55	1691.71
622.89	1681.92
623.24	1672.29
623.59	1662.40
623.93	1652.39
624.28	1642.74
624.62	1632.63
624.97	1622.48
625.32	1612.79
625.66	1604.04
626.01	1595.15
626.35	1585.58
626.70	1575.45
627.04	1565.24
627.39	1555.04
627.73	1545.82
628.08	1536.82
628.43	1527.20
628.77	1517.99
629.12	1509.18
629.46	1501.45
629.81	1493.12
630.15	1483.53
630.50	1473.64
630.84	1463.49
631.19	1453.51
631.53	1444.11
631.88	1434.11
632.22	1424.02
632.57	1414.66
632.91	1404.51
633.26	1394.77
633.60	1385.34
633.95	1376.08
634.29	1366.79
634.64	1357.52
634.98	1347.62
635.32	1338.30
635.67	1329.87
636.01	1320.58
636.36	1310.80
636.70	1301.19
637.05	1291.75
637.39	1282.81
637.73	1274.17
638.08	1266.54
638.42	1258.43
638.77	1249.83
639.11	1241.53
639.45	1233.73
639.80	1225.05
640.14	1216.39
640.49	1207.51
640.83	1198.72
641.17	1190.65
641.52	1182.44
641.86	1173.88
642.20	1166.02
642.55	1157.47
642.89	1148.64
643.23	1139.96
643.58	1131.90
643.92	1122.99
644.26	1114.47
644.61	1106.12
644.95	1097.46
645.29	1088.16
645.64	1078.98
645.98	1070.57
646.32	1062.65
646.66	1054.24
647.01	1046.06
647.35	1037.96
647.69	1029.60
648.04	1021.32
648.38	1012.36
648.72	1003.65
649.06	995.21
649.41	987.12
649.75	979.18
650.09	971.36
650.43	963.41
650.78	955.24
651.12	947.63
651.46	940.21
651.80	932.96
652.14	925.68
652.49	918.22
652.83	911.02
653.17	903.28
653.51	895.75
653.85	888.50
654.20	881.35
654.54	873.89
654.88	866.88
655.22	859.75
655.56	852.82
655.90	846.05
656.25	839.51
656.59	832.51
656.93	825.56
657.27	818.54
657.61	811.72
657.95	805.66
658.29	799.72
658.64	793.68
658.98	787.34
659.32	780.81
659.66	774.67
660.00	768.36
660.34	762.43
660.68	756.31
661.02	750.10
661.36	744.19
661.70	738.54
662.05	732.85
662.39	727.48
662.73	722.19
663.07	716.94
663.41	711.38
663.75	705.84
664.09	700.30
664.43	694.85
664.77	689.60
665.11	683.85
665.45	678.07
665.79	672.31
666.13	666.67
666.47	661.23
666.81	655.86
667.15	650.56
667.49	645.43
667.83	640.33
668.17	635.16
668.51	630.06
668.85	625.20
669.19	620.43
669.53	615.48
669.87	610.45
670.21	605.69
670.55	601.02
670.89	596.61
671.23	592.43
671.57	588.12
671.91	583.80
672.25	579.72
672.58	575.67
672.92	571.65
673.26	567.81
673.60	564.05
673.94	560.32
674.28	556.78
674.62	553.10
674.96	549.42
675.30	545.93
675.64	542.34
675.97	538.77
676.31	535.14
676.65	531.55
676.99	528.12
677.33	524.36
677.67	520.82
678.01	517.08
678.34	513.41
678.68	509.99
679.02	506.42
679.36	502.73
679.70	499.14
680.04	495.72
680.37	492.32
680.71	489.07
681.05	485.88
681.39	482.74
681.73	479.60
682.06	476.57
682.40	473.60
682.74	470.44
683.08	467.30
683.42	464.26
683.75	461.37
684.09	458.43
684.43	455.66
684.77	452.76
685.10	449.95
685.44	447.12
685.78	444.26
686.12	441.58
686.45	438.96
686.79	436.34
687.13	433.80
687.46	431.17
687.80	428.54
688.14	425.76
688.48	423.07
688.81	420.46
689.15	417.97
689.49	415.33
689.82	412.87
690.16	410.32
690.50	407.87
690.83	405.44
691.17	402.97
691.51	400.59
691.84	398.40
692.18	396.27
692.52	394.07
692.85	391.99
693.19	389.94
693.52	387.78
693.86	385.64
694.20	383.49
694.53	381.40
694.87	379.24
695.21	377.19
695.54	375.13
695.88	373.02
696.21	370.82
696.55	368.72
696.88	366.73
697.22	364.81
697.56	362.99
697.89	361.15
698.23	359.41
698.56	357.65
698.90	355.97
699.23	354.11
699.57	352.36
699.90	350.54
700.24	348.77
700.58	347.11
700.91	345.51
701.25	343.99
701.58	342.42
701.92	340.88
702.25	339.29
702.59	337.70
702.92	336.21
703.26	334.74
703.59	333.38
703.93	332.13
704.26	330.77
704.60	329.25
704.93	327.82
705.26	326.37
705.60	324.96
705.93	323.45
706.27	322.17
706.60	320.89
706.94	319.71
707.27	318.31
707.61	316.99
707.94	315.63
708.27	314.19
708.61	312.82
708.94	311.47
709.28	310.28
709.61	309.07
709.94	307.90
710.28	306.71
710.61	305.53
710.95	304.19
711.28	303.12
711.61	301.99
711.95	300.87
712.28	299.68
712.61	298.58
712.95	297.55
713.28	296.53
713.61	295.40
713.95	294.26
714.28	293.29
714.61	292.24
714.95	291.30
715.28	290.31
715.61	289.33
715.95	288.42
716.28	287.44
716.61	286.53
716.95	285.54
717.28	284.63
717.61	283.70
717.94	282.83
718.28	281.81
718.61	280.97
718.94	280.07
719.27	279.23
719.61	278.38
719.94	277.56
720.27	276.59
720.60	275.78
720.94	275.00
721.27	274.28
721.60	273.61
721.93	272.89
722.27	272.24
722.60	271.58
722.93	270.90
723.26	270.27
723.59	269.59
723.93	269.04
724.26	268.43
724.59	267.77
724.92	267.18
725.25	266.68
725.59	266.15
725.92	265.68
726.25	265.15
726.58	264.58
726.91	263.99
727.24	263.48
727.57	262.95
727.91	262.36
728.24	261.84
728.57	261.25
728.90	260.73
729.23	260.12
729.56	259.71
729.89	259.20
730.22	258.65
730.55	258.10
730.89	257.55
731.22	257.01
731.55	256.55
731.88	256.05
732.21	255.50
732.54	254.96
732.87	254.42
733.20	253.97
733.53	253.52
733.86	253.08
734.19	252.62
734.52	252.23
734.85	251.97
735.18	251.49
735.51	251.12
735.84	250.69
736.17	250.36
736.50	249.84
736.83	249.71
737.16	249.32
737.49	248.97
737.82	248.56
738.15	248.21
738.48	247.83
738.81	247.44
739.14	247.03
739.47	246.66
739.80	246.31
740.13	245.96
740.46	245.58
740.79	245.19
741.12	244.81
741.45	244.45
741.78	244.00
742.11	243.72
742.44	243.36
742.77	243.06
743.10	242.70
743.43	242.37
743.75	241.81
744.08	241.75
744.41	241.42
744.74	241.06
745.07	240.70
745.40	240.41
745.73	240.18
746.06	239.88
746.39	239.56
746.71	239.24
747.04	238.90
747.37	238.60
747.70	238.35
748.03	238.10
748.36	237.82
748.68	237.51
749.01	237.17
749.34	236.90
749.67	236.63
750.00	236.38
750.33	236.27
750.65	236.00
750.98	235.50
751.31	235.25
751.64	235.05
751.97	234.94
752.29	234.64
752.62	234.29
752.95	234.07
753.28	233.85
753.60	233.59
753.93	233.45
754.26	233.26
754.59	232.93
754.91	232.68
755.24	232.43
755.57	232.20
755.90	231.96
756.22	231.73
756.55	231.48
756.88	231.22
757.20	230.87
757.53	230.60
757.86	230.39
758.19	230.21
758.51	230.01
758.84	229.73
759.17	229.59
759.49	229.46
759.82	229.37
760.15	229.20
760.47	229.03
760.80	228.79
761.13	228.62
761.45	228.47
761.78	228.30
762.11	228.12
762.43	227.94
762.76	227.79
763.08	227.66
763.41	227.52
763.74	227.39
764.06	227.23
764.39	227.11
764.71	226.94
765.04	226.77
765.37	226.64
765.69	226.48
766.02	226.29
766.34	226.13
766.67	225.93
767.00	225.83
767.32	225.81
767.65	225.79
767.97	225.63
768.30	225.53
768.62	225.43
768.95	225.32
769.27	225.20
769.60	225.12
769.92	224.94
770.25	224.78
770.57	224.61
770.90	224.49
771.22	224.35
771.55	224.25
771.87	224.14
772.20	224.02
772.52	224.10
772.85	224.24
773.17	224.11
773.50	223.99
773.82	223.88
774.15	223.68
774.47	223.48
774.80	223.40
775.12	223.31
775.45	223.21
775.77	223.13
776.09	223.05
776.42	222.95
776.74	222.95
777.07	222.87
777.39	222.79
777.72	222.69
778.04	222.65
778.36	222.56
778.69	222.49
779.01	222.44
779.33	222.13
779.66	221.83
779.98	221.74
780.31	221.66
780.63	221.63
780.95	221.57
781.28	221.46
781.60	221.37
781.92	221.30
782.25	221.24
782.57	221.18
782.89	221.09
783.22	221.00
783.54	220.90
783.86	220.83
784.19	220.80
784.51	220.83
784.83	220.73
785.16	220.66
785.48	220.59
785.80	220.50
786.12	220.50
786.45	220.46
786.77	220.43
787.09	220.38
787.42	220.23
787.74	220.19
788.06	220.15
788.38	220.06
788.71	219.97
789.03	219.92
789.35	219.86
789.67	219.79
789.99	219.76
790.32	219.68
790.64	219.66
790.96	219.80
791.28	219.63
791.61	219.59
791.93	219.57
792.25	219.55
792.57	219.66
792.89	219.58
793.21	219.55
793.54	219.52
793.86	219.43
794.18	219.44
794.50	219.34
794.82	219.28
795.14	219.27
795.47	219.29
795.79	219.24
796.11	219.16
796.43	219.10
796.75	219.05
797.07	219.02
797.39	218.95
797.71	218.75
798.04	218.73
798.36	218.69
798.68	218.63
799.00	218.59
799.32	218.44
799.64	218.45
799.96	218.41
800.28	218.39
800.60	218.36
800.92	218.31
801.24	218.25
801.56	218.23
801.89	218.17
802.21	218.16
802.53	218.10
802.85	218.12
803.17	218.21
803.49	218.16
803.81	218.08
804.13	218.03
804.45	217.98
804.77	217.96
805.09	217.94
805.41	217.90
805.73	217.83
806.05	217.73
806.37	217.68
806.69	217.64
807.01	217.57
807.33	217.55
807.65	217.50
807.97	217.63
808.28	217.60
808.60	217.63
808.92	217.56
809.24	217.66
809.56	217.62
809.88	217.55
810.20	217.53
810.52	217.57
810.84	217.54
811.16	217.49
811.48	217.47
811.80	217.52
812.12	217.51
812.43	217.55
812.75	217.54
813.07	217.49
813.39	217.46
813.71	217.42
814.03	217.41
814.35	217.35
814.67	217.19
814.98	217.14
815.30	217.11
815.62	217.07
815.94	216.90
816.26	216.88
816.58	216.83
816.89	216.85
817.21	216.77
817.53	216.77
817.85	216.76
818.17	216.73
818.48	216.64
818.80	216.65
819.12	216.54
819.44	216.50
819.76	216.50
820.07	216.46
820.39	216.46
820.71	216.45
821.03	216.44
821.34	216.45
821.66	216.46
821.98	216.44
822.30	216.41
822.61	216.54
822.93	216.49
823.25	216.46
823.57	216.40
823.88	216.42
824.20	216.38
824.52	216.43
824.83	216.42
825.15	216.39
825.47	216.35
825.79	216.37
826.10	216.39
826.42	216.36
826.74	216.39
827.05	216.34
827.37	216.32
827.69	216.31
828.00	216.27
828.32	216.28
828.64	216.25
828.95	216.33
829.27	216.27
829.58	216.27
829.90	216.29
830.22	216.28
830.53	216.25
830.85	216.24
831.17	216.14
831.48	216.13
831.80	216.14
832.11	216.12
832.43	216.09
832.75	216.03
833.06	216.16
833.38	216.10
833.69	216.10
834.01	216.12
834.32	216.12
834.64	216.12
834.96	216.11
835.27	216.10
835.59	216.06
835.90	216.00
836.22	215.99
836.53	215.92
836.85	215.89
837.16	216.07
837.48	216.07
837.79	216.17
838.11	216.17
838.42	216.16
838.74	216.18
839.05	216.16
839.37	216.17
839.68	216.01
840.00	215.96
840.31	216.02
840.63	215.97
840.94	215.95
841.26	215.93
841.57	215.89
841.88	215.89
842.20	215.81
842.51	215.78
842.83	215.74
843.14	215.95
843.46	215.97
843.77	215.86
844.08	215.80
844.40	215.71
844.71	215.65
845.03	215.61
845.34	215.57
845.65	215.58
845.97	215.56
846.28	215.60
846.60	215.66
846.91	215.57
847.22	215.56
847.54	215.57
847.85	215.57
848.16	215.53
848.48	215.51
848.79	215.60
849.10	215.65
849.42	215.65
849.73	215.41
850.04	215.38
850.36	215.27
850.67	215.33
850.98	215.35
851.30	215.39
851.61	215.37
851.92	215.39
852.23	215.44
852.55	215.45
852.86	215.44
853.17	215.44
853.49	215.50
853.80	215.55
854.11	215.58
854.42	215.63
854.74	215.60
855.05	215.59
855.36	215.48
855.67	215.47
855.99	215.49
856.30	215.75
856.61	215.77
856.92	215.78
857.23	215.80
857.55	215.76
857.86	215.75
858.17	215.77
858.48	215.73
858.79	215.70
859.11	215.73
859.42	215.73
859.73	215.68
860.04	215.70
860.35	215.63
860.66	215.58
860.98	215.54
861.29	215.58
861.60	215.53
861.91	215.60
862.22	215.55
862.53	215.53
862.84	215.30
863.16	215.31
863.47	215.30
863.78	215.28
864.09	215.31
864.40	215.30
864.71	215.34
865.02	215.34
865.33	215.33
865.64	215.29
865.95	215.29
866.27	215.43
866.58	215.39
866.89	215.43
867.20	215.42
867.51	215.40
867.82	215.39
868.13	215.48
868.44	215.40
868.75	215.44
869.06	215.45
869.37	215.45
869.68	215.41
869.99	215.47
870.30	215.48
870.61	215.48
870.92	215.47
871.23	215.45
871.54	215.47
871.85	215.49
872.16	215.51
872.47	215.47
872.78	215.32
873.09	215.35
873.40	215.32
873.71	215.32
874.02	215.35
874.33	215.33
874.64	215.28
874.95	215.35
875.26	215.32
875.56	215.30
875.87	215.30
876.18	215.26
876.49	215.42
876.80	215.39
877.11	215.36
877.42	215.36
877.73	215.37
878.04	215.33
878.35	215.32
878.66	215.32
878.96	215.32
879.27	215.32
879.58	215.28
879.89	215.28
880.20	215.34
880.51	215.33
880.82	215.33
881.12	215.34
881.43	215.32
881.74	215.31
882.05	215.30
882.36	215.31
882.67	215.39
882.97	215.17
883.28	215.13
883.59	215.11
883.90	215.12
884.21	215.17
884.51	215.16
884.82	215.13
885.13	215.11
885.44	215.10
885.74	215.09
886.05	215.09
886.36	215.02
886.67	214.97
886.98	215.07
887.28	215.07
887.59	215.07
887.90	215.06
888.20	215.07
888.51	215.15
888.82	215.09
889.13	215.08
889.43	215.30
889.74	215.30
890.05	215.28
890.35	215.30
890.66	215.25
890.97	215.27
891.28	215.25
891.58	215.28
891.89	215.28
892.20	215.28
892.50	215.28
892.81	215.28
893.12	215.25
893.42	215.15
893.73	215.17
894.04	215.15
894.34	215.17
894.65	215.13
894.95	215.08
895.26	215.11
895.57	215.16
895.87	214.91
896.18	214.93
896.48	214.95
896.79	214.92
897.10	214.93
897.40	214.91
897.71	214.91
898.01	214.87
898.32	214.89
898.63	214.90
898.93	214.89
899.24	214.92
899.54	214.92
899.85	214.90
900.15	214.86
900.46	214.87
900.76	214.85
901.07	214.86
901.38	214.84
901.68	214.87
901.99	214.77
902.29	214.80
902.60	214.77
902.90	214.79
903.21	214.76
903.51	214.75
903.82	214.78
904.12	214.82
904.43	214.85
904.73	214.86
905.03	214.86
905.34	215.06
905.64	215.04
905.95	215.04
906.25	215.08
906.56	215.09
906.86	215.10
907.17	215.12
907.47	215.10
907.77	215.09
908.08	215.07
908.38	215.08
908.69	215.11
908.99	215.15
909.30	215.13
909.60	215.14
909.90	215.13
910.21	215.10
910.51	215.07
910.81	215.08
911.12	215.08
911.42	215.12
911.73	214.90
912.03	214.92
912.33	214.98
912.64	214.96
912.94	214.94
913.24	214.89
913.55	214.85
913.85	214.86
914.15	214.91
914.46	214.94
914.76	214.93
915.06	214.90
915.37	214.88
915.67	214.88
915.97	214.90
916.27	214.87
916.58	214.89
916.88	214.89
917.18	214.88
917.49	215.02
917.79	214.97
918.09	215.02
918.39	215.07
918.70	215.03
919.00	215.04
919.30	215.14
919.60	215.13
919.91	215.13
920.21	215.15
920.51	215.07
920.81	215.05
921.12	215.10
921.42	215.09
921.72	215.10
922.02	215.11
922.32	215.15
922.63	215.13
922.93	215.24
923.23	215.23
923.53	215.20
923.83	215.05
924.13	215.08
924.44	215.07
924.74	215.08
925.04	215.15
925.34	215.16
925.64	215.06
925.94	215.07
926.24	215.21
926.55	215.18
926.85	215.22
927.15	215.20
927.45	215.20
927.75	215.20
928.05	215.21
928.35	215.22
928.65	215.22
928.95	215.23
929.26	215.15
929.56	215.20
929.86	215.20
930.16	215.18
930.46	215.17
930.76	215.19
931.06	215.06
931.36	215.00
931.66	215.04
931.96	215.07
932.26	215.10
932.56	215.00
932.86	215.02
933.16	215.00
933.46	215.01
933.76	214.98
934.06	215.03
934.36	215.09
934.66	215.08
934.96	215.06
935.26	215.09
935.56	215.13
935.86	215.05
936.16	215.04
936.46	215.04
936.76	215.03
937.06	214.96
937.36	215.01
937.66	215.00
937.96	214.96
938.26	214.91
938.56	214.87
938.86	214.88
939.16	214.93
939.46	214.96
939.76	214.96
940.06	214.98
940.35	214.92
940.65	214.80
940.95	214.80
941.25	214.74
941.55	214.69
941.85	214.65
942.15	214.71
942.45	214.77
942.75	214.78
943.04	214.80
943.34	214.88
943.64	214.85
943.94	214.81
944.24	214.82
944.54	214.84
944.84	214.83
945.13	214.79
945.43	214.77
945.73	214.76
946.03	214.74
946.33	214.72
946.62	214.73
946.92	214.75
947.22	214.78
947.52	214.78
947.82	214.83
948.11	214.79
948.41	214.76
948.71	214.69
949.01	214.69
949.31	214.67
949.60	214.64
949.90	214.67
950.20	214.66
950.50	214.63
950.79	214.63
951.09	214.68
951.39	214.70
951.69	214.65
951.98	214.66
952.28	214.67
952.58	214.63
952.87	214.65
953.17	214.66
953.47	214.62
953.76	214.64
954.06	214.58
954.36	214.57
954.66	214.56
954.95	214.61
955.25	214.62
955.55	214.59
955.84	214.58
956.14	214.59
956.44	214.63
956.73	214.61
957.03	214.61
957.32	214.60
957.62	214.57
957.92	214.63
958.21	214.61
958.51	214.85
958.81	214.88
959.10	214.87
959.40	214.93
959.69	214.96
959.99	214.96
960.29	214.98
960.58	214.98
960.88	215.05
961.17	215.05
961.47	215.06
961.76	215.04
962.06	215.06
962.36	215.05
962.65	215.03
962.95	215.06
963.24	215.09
963.54	215.06
963.83	215.09
964.13	215.05
964.42	215.00
964.72	214.82
965.01	214.85
965.31	214.83
965.60	214.75
965.90	214.88
966.19	214.86
966.49	214.91
966.78	214.88
967.08	214.86
967.37	214.85
967.67	214.81
967.96	214.88
968.26	214.88
968.55	214.89
968.85	214.90
969.14	214.91
969.43	214.88
969.73	214.88
970.02	214.83
970.32	214.83
970.61	214.86
970.91	214.79
971.20	214.75
971.49	214.75
971.79	214.79
972.08	214.64
972.38	214.64
972.67	214.61
972.96	214.62
973.26	214.56
973.55	214.62
973.85	214.62
974.14	214.61
974.43	214.61
974.73	214.56
975.02	214.56
975.31	214.56
975.61	214.55
975.90	214.59
976.19	214.58
976.49	214.58
976.78	214.57
977.07	214.56
977.37	214.57
977.66	214.57
977.95	214.54
978.24	214.55
978.54	214.62
978.83	214.62
979.12	214.66
979.42	214.67
979.71	214.63
980.00	214.62
980.29	214.62
980.59	214.59
980.88	214.67
981.17	214.64
981.46	214.63
981.76	214.64
982.05	214.66
982.34	214.69
982.63	214.72
982.93	214.73
983.22	214.79
983.51	214.84
983.80	214.89
984.09	214.90
984.39	214.89
984.68	214.84
984.97	214.84
985.26	214.79
985.55	214.83
985.85	214.75
986.14	214.79
986.43	214.81
986.72	214.80
987.01	214.75
987.30	214.76
987.59	214.76
987.89	214.75
988.18	214.71
988.47	214.69
988.76	214.65
989.05	214.65
989.34	214.60
989.63	214.63
989.92	214.59
990.22	214.56
990.51	214.54
990.80	214.52
991.09	214.55
991.38	214.57
991.67	214.52
991.96	214.49
992.25	214.48
992.54	214.43
992.83	214.46
993.12	214.43
993.41	214.46
993.70	214.55
993.99	214.58
994.28	214.60
994.58	214.64
994.87	214.63
995.16	214.59
995.45	214.57
995.74	214.48
996.03	214.49
996.32	214.56
996.61	214.58
996.90	214.59
997.19	214.53
997.48	214.56
997.77	214.57
998.06	214.61
998.34	214.61
998.63	214.58
998.92	214.56
999.21	214.61
999.50	214.60
999.79	214.50
1000.08	214.53
1000.37	214.51
1000.66	214.48
1000.95	214.53
1001.24	214.58
1001.53	214.61
1001.82	214.59
1002.11	214.55
1002.40	214.54
1002.68	214.60
1002.97	214.72
1003.26	214.71
1003.55	214.66
1003.84	214.67
1004.13	214.75
1004.42	214.74
1004.71	214.78
1004.99	214.76
1005.28	214.80
1005.57	214.80
1005.86	214.78
1006.15	214.73
1006.44	214.70
1006.72	214.71
1007.01	214.68
1007.30	214.65
1007.59	214.63
1007.88	214.64
1008.17	214.67
1008.45	214.63
1008.74	214.54
1009.03	214.47
1009.32	214.47
1009.60	214.50
1009.89	214.47
1010.18	214.36
1010.47	214.35
1010.76	214.34
1011.04	214.36
1011.33	214.36
1011.62	214.37
1011.91	214.41
1012.19	214.43
1012.48	214.43
1012.77	214.44
1013.05	214.54
1013.34	214.53
1013.63	214.52
1013.92	214.50
1014.20	214.48
1014.49	214.46
1014.78	214.52
1015.06	214.45
1015.35	214.45
1015.64	214.47
1015.92	214.52
1016.21	214.53
1016.50	214.53
1016.78	214.55
1017.07	214.54
1017.36	214.49
1017.64	214.48
1017.93	214.50
1018.22	214.49
1018.50	214.49
1018.79	214.48
1019.08	214.39
1019.36	214.41
1019.65	214.42
1019.93	214.51
1020.22	214.54
1020.51	214.67
1020.79	214.62
1021.08	214.46
1021.36	214.21
1021.65	214.33
1021.94	214.90
1022.22	214.37
1022.51	214.24
1022.79	215.71
1023.08	214.90
1023.36	216.69
1023.65	213.89
>>>>>End Processed Spectral Data<<<<<
