SpectraSuite Data File
++++++++++++++++++++++++++++++++++++
Date: Tue Jan 29 16:11:23 EST 2013
User: group
Dark Spectrum Present: No
Reference Spectrum Present: No
Number of Sampled Component Spectra: 1
Spectrometers: USB2E7196
Integration Time (usec): 65000 (USB2E7196)
Spectra Averaged: 100 (USB2E7196)
Boxcar Smoothing: 10 (USB2E7196)
Correct for Electrical Dark: No (USB2E7196)
Strobe/Lamp Enabled: No (USB2E7196)
Correct for Detector Non-linearity: No (USB2E7196)
Correct for Stray Light: No (USB2E7196)
Number of Pixels in Processed Spectrum: 2048
>>>>>Begin Processed Spectral Data<<<<<
339.09	0.00
339.48	202.29
339.86	204.05
340.24	205.09
340.63	206.50
341.01	211.20
341.39	209.46
341.78	211.44
342.16	212.16
342.54	212.73
342.93	201.68
343.31	211.85
343.69	212.39
344.07	212.86
344.46	213.34
344.84	213.78
345.22	213.94
345.60	214.21
345.99	214.40
346.37	214.57
346.75	214.69
347.13	214.78
347.52	214.83
347.90	214.95
348.28	215.03
348.66	215.12
349.05	215.13
349.43	215.16
349.81	215.22
350.19	215.26
350.57	215.35
350.96	215.47
351.34	215.58
351.72	215.69
352.10	215.80
352.48	215.86
352.87	215.88
353.25	215.96
353.63	216.04
354.01	216.09
354.39	216.13
354.77	216.17
355.15	216.28
355.54	216.32
355.92	216.33
356.30	216.39
356.68	216.58
357.06	216.66
357.44	216.71
357.82	216.74
358.20	216.86
358.58	216.95
358.97	217.00
359.35	217.11
359.73	217.24
360.11	217.29
360.49	217.34
360.87	217.39
361.25	217.46
361.63	217.56
362.01	217.61
362.39	217.62
362.77	217.70
363.15	217.74
363.53	217.76
363.91	217.80
364.29	217.82
364.67	217.63
365.05	217.65
365.43	217.68
365.81	217.72
366.19	217.79
366.57	217.87
366.95	217.86
367.33	217.83
367.71	217.78
368.09	217.84
368.47	217.81
368.85	217.80
369.23	217.83
369.61	217.76
369.99	217.84
370.37	217.88
370.75	217.95
371.13	217.86
371.51	217.84
371.89	217.83
372.27	217.81
372.65	217.81
373.03	217.81
373.41	217.79
373.78	217.75
374.16	217.60
374.54	217.48
374.92	217.42
375.30	217.37
375.68	217.29
376.06	217.26
376.44	217.22
376.82	217.20
377.19	217.14
377.57	217.04
377.95	216.89
378.33	216.83
378.71	216.65
379.09	216.62
379.47	216.59
379.84	216.53
380.22	216.46
380.60	216.35
380.98	216.28
381.36	216.21
381.73	216.14
382.11	216.13
382.49	216.09
382.87	216.05
383.25	216.01
383.62	216.22
384.00	216.14
384.38	216.10
384.76	216.08
385.13	216.11
385.51	216.09
385.89	216.05
386.27	216.02
386.64	216.03
387.02	216.01
387.40	215.96
387.78	215.98
388.15	215.99
388.53	216.01
388.91	215.97
389.29	215.96
389.66	215.98
390.04	215.96
390.42	215.99
390.79	215.98
391.17	215.94
391.55	215.69
391.92	215.65
392.30	215.65
392.68	215.61
393.05	215.58
393.43	215.58
393.81	215.61
394.18	215.58
394.56	215.61
394.94	215.63
395.31	215.66
395.69	215.69
396.06	215.73
396.44	215.75
396.82	215.74
397.19	215.87
397.57	215.85
397.95	215.92
398.32	215.91
398.70	215.92
399.07	216.02
399.45	216.04
399.82	216.13
400.20	216.18
400.58	216.24
400.95	216.25
401.33	216.37
401.70	216.59
402.08	216.69
402.45	216.74
402.83	216.86
403.20	216.97
403.58	217.04
403.95	217.17
404.33	217.31
404.71	217.49
405.08	217.71
405.46	217.88
405.83	218.07
406.21	218.26
406.58	218.51
406.96	218.70
407.33	218.99
407.70	219.26
408.08	219.71
408.45	220.07
408.83	220.44
409.20	220.77
409.58	221.01
409.95	221.45
410.33	221.95
410.70	222.37
411.08	222.89
411.45	223.45
411.82	223.98
412.20	224.65
412.57	225.43
412.95	225.97
413.32	226.80
413.69	227.57
414.07	228.43
414.44	229.35
414.82	230.36
415.19	231.47
415.56	232.60
415.94	233.71
416.31	235.08
416.68	236.44
417.06	237.99
417.43	239.45
417.81	241.12
418.18	242.81
418.55	244.72
418.93	246.67
419.30	248.70
419.67	250.87
420.04	253.07
420.42	255.39
420.79	258.12
421.16	260.81
421.54	263.65
421.91	266.50
422.28	269.47
422.66	272.65
423.03	275.79
423.40	279.05
423.77	282.55
424.15	286.07
424.52	289.73
424.89	293.79
425.26	297.74
425.64	301.47
426.01	305.62
426.38	309.87
426.75	314.28
427.13	318.85
427.50	323.68
427.87	328.70
428.24	333.72
428.61	338.58
428.99	343.89
429.36	349.59
429.73	355.38
430.10	361.05
430.47	366.90
430.85	373.00
431.22	379.44
431.59	386.30
431.96	392.84
432.33	400.06
432.70	407.02
433.08	415.28
433.45	423.13
433.82	430.86
434.19	439.48
434.56	447.88
434.93	455.94
435.30	463.88
435.68	472.69
436.05	481.32
436.42	489.92
436.79	497.78
437.16	506.32
437.53	515.18
437.90	524.04
438.27	532.69
438.64	541.56
439.01	549.83
439.38	557.17
439.75	564.27
440.13	572.47
440.50	580.11
440.87	586.30
441.24	592.65
441.61	599.75
441.98	604.92
442.35	611.00
442.72	617.12
443.09	622.97
443.46	626.59
443.83	629.02
444.20	631.13
444.57	634.25
444.94	635.67
445.31	637.05
445.68	638.36
446.05	638.94
446.42	638.19
446.79	637.29
447.16	636.25
447.53	635.47
447.90	632.20
448.27	629.00
448.64	624.51
449.01	621.26
449.37	615.53
449.74	610.04
450.11	603.40
450.48	596.21
450.85	589.02
451.22	582.75
451.59	576.82
451.96	571.16
452.33	563.47
452.70	556.64
453.07	548.47
453.43	540.24
453.80	532.23
454.17	524.57
454.54	517.25
454.91	509.33
455.28	501.77
455.65	494.66
456.02	487.58
456.38	481.50
456.75	473.99
457.12	467.71
457.49	461.46
457.86	455.54
458.23	450.45
458.59	444.71
458.96	438.97
459.33	433.93
459.70	428.74
460.07	424.68
460.43	419.96
460.80	415.59
461.17	411.71
461.54	407.70
461.91	403.83
462.27	399.92
462.64	396.64
463.01	392.90
463.38	389.36
463.74	385.78
464.11	382.64
464.48	379.91
464.85	376.91
465.21	374.61
465.58	372.08
465.95	369.01
466.32	366.51
466.68	364.01
467.05	361.46
467.42	359.02
467.78	356.42
468.15	353.95
468.52	352.11
468.88	349.72
469.25	347.64
469.62	345.87
469.98	343.96
470.35	342.22
470.72	340.60
471.08	338.85
471.45	337.33
471.82	335.85
472.18	334.27
472.55	333.09
472.92	331.76
473.28	330.61
473.65	329.52
474.02	328.48
474.38	327.66
474.75	327.00
475.11	326.27
475.48	325.75
475.85	325.34
476.21	324.87
476.58	324.56
476.94	324.31
477.31	324.07
477.67	323.86
478.04	323.72
478.41	323.72
478.77	323.88
479.14	323.92
479.50	324.11
479.87	324.42
480.23	324.78
480.60	325.00
480.96	325.26
481.33	325.89
481.69	326.47
482.06	326.98
482.42	327.46
482.79	328.03
483.15	328.80
483.52	329.76
483.88	330.66
484.25	331.56
484.61	332.57
484.98	333.59
485.34	334.88
485.71	336.24
486.07	337.68
486.44	339.01
486.80	340.60
487.17	342.27
487.53	344.06
487.90	345.88
488.26	347.95
488.62	350.09
488.99	352.11
489.35	354.24
489.72	356.59
490.08	359.14
490.44	361.69
490.81	364.37
491.17	367.03
491.54	370.02
491.90	373.11
492.26	376.39
492.63	379.84
492.99	383.33
493.36	387.01
493.72	390.87
494.08	394.89
494.45	399.10
494.81	403.46
495.17	407.98
495.54	412.77
495.90	417.56
496.26	422.44
496.63	427.59
496.99	432.98
497.35	438.52
497.72	444.31
498.08	450.29
498.44	456.40
498.80	462.80
499.17	469.29
499.53	475.97
499.89	482.82
500.26	489.70
500.62	496.74
500.98	504.10
501.34	511.49
501.71	519.22
502.07	526.96
502.43	534.89
502.79	542.93
503.16	551.23
503.52	559.79
503.88	568.47
504.24	577.38
504.60	586.32
504.97	595.54
505.33	604.73
505.69	614.52
506.05	624.30
506.41	634.04
506.78	644.00
507.14	654.15
507.50	664.55
507.86	675.23
508.22	685.93
508.59	696.50
508.95	707.58
509.31	718.84
509.67	730.24
510.03	741.60
510.39	753.28
510.75	765.05
511.12	776.88
511.48	788.89
511.84	801.07
512.20	813.39
512.56	825.88
512.92	838.62
513.28	851.05
513.64	863.65
514.00	876.45
514.37	889.33
514.73	902.35
515.09	915.11
515.45	927.86
515.81	940.75
516.17	954.01
516.53	967.06
516.89	979.96
517.25	992.97
517.61	1006.33
517.97	1019.53
518.33	1032.50
518.69	1045.79
519.05	1059.45
519.41	1072.92
519.77	1086.50
520.13	1099.61
520.49	1112.54
520.85	1125.86
521.21	1139.06
521.57	1152.45
521.93	1165.23
522.29	1178.69
522.65	1192.15
523.01	1205.50
523.37	1218.42
523.73	1231.50
524.09	1244.29
524.45	1257.45
524.81	1270.63
525.17	1283.70
525.53	1296.53
525.89	1309.62
526.25	1322.44
526.61	1334.85
526.97	1347.77
527.33	1360.37
527.68	1373.57
528.04	1386.77
528.40	1399.42
528.76	1412.43
529.12	1425.08
529.48	1438.12
529.84	1450.13
530.20	1462.60
530.56	1474.91
530.91	1487.91
531.27	1500.40
531.63	1512.96
531.99	1525.34
532.35	1537.31
532.71	1549.39
533.07	1562.00
533.42	1573.79
533.78	1585.62
534.14	1597.47
534.50	1608.20
534.86	1619.58
535.21	1630.15
535.57	1641.23
535.93	1652.33
536.29	1663.15
536.65	1674.31
537.00	1685.03
537.36	1696.08
537.72	1706.75
538.08	1717.76
538.44	1728.49
538.79	1739.24
539.15	1749.71
539.51	1760.19
539.87	1771.20
540.22	1781.68
540.58	1792.22
540.94	1802.76
541.29	1812.75
541.65	1822.29
542.01	1832.59
542.37	1842.30
542.72	1852.14
543.08	1861.64
543.44	1871.75
543.79	1880.67
544.15	1889.72
544.51	1899.38
544.87	1908.99
545.22	1917.85
545.58	1926.46
545.94	1934.86
546.29	1943.12
546.65	1951.20
547.01	1959.26
547.36	1966.72
547.72	1974.09
548.07	1981.56
548.43	1989.06
548.79	1996.62
549.14	2004.37
549.50	2012.39
549.86	2019.98
550.21	2027.18
550.57	2034.70
550.92	2041.28
551.28	2048.61
551.64	2055.72
551.99	2063.00
552.35	2070.02
552.70	2076.71
553.06	2083.21
553.41	2089.32
553.77	2095.69
554.13	2101.91
554.48	2108.77
554.84	2115.57
555.19	2121.97
555.55	2128.30
555.90	2134.64
556.26	2141.28
556.61	2147.16
556.97	2151.93
557.32	2157.70
557.68	2163.96
558.03	2169.61
558.39	2174.63
558.74	2180.36
559.10	2185.86
559.45	2191.37
559.81	2196.73
560.16	2202.32
560.52	2208.17
560.87	2214.66
561.23	2220.65
561.58	2227.46
561.94	2232.42
562.29	2237.24
562.64	2243.47
563.00	2248.96
563.35	2254.43
563.71	2260.28
564.06	2265.80
564.42	2271.92
564.77	2276.94
565.12	2282.13
565.48	2287.35
565.83	2292.99
566.19	2298.67
566.54	2304.04
566.89	2308.65
567.25	2313.23
567.60	2318.90
567.96	2324.08
568.31	2328.69
568.66	2332.80
569.02	2336.66
569.37	2340.32
569.72	2344.78
570.08	2348.22
570.43	2351.46
570.78	2354.53
571.14	2357.29
571.49	2360.58
571.84	2364.05
572.20	2367.04
572.55	2370.27
572.90	2372.48
573.26	2375.55
573.61	2377.97
573.96	2380.21
574.31	2382.26
574.67	2384.38
575.02	2385.30
575.37	2386.76
575.72	2387.58
576.08	2389.23
576.43	2389.50
576.78	2390.53
577.13	2392.37
577.49	2393.73
577.84	2395.12
578.19	2396.76
578.54	2397.44
578.90	2398.56
579.25	2398.68
579.60	2398.87
579.95	2398.24
580.30	2398.82
580.66	2398.14
581.01	2396.80
581.36	2394.76
581.71	2393.75
582.06	2392.83
582.42	2392.31
582.77	2390.42
583.12	2389.07
583.47	2387.90
583.82	2387.57
584.17	2386.49
584.53	2384.41
584.88	2382.54
585.23	2380.74
585.58	2378.66
585.93	2376.68
586.28	2374.64
586.63	2372.52
586.98	2370.59
587.34	2368.91
587.69	2366.76
588.04	2365.04
588.39	2363.71
588.74	2361.37
589.09	2358.81
589.44	2355.77
589.79	2353.30
590.14	2351.52
590.49	2348.66
590.84	2345.15
591.19	2342.19
591.54	2338.90
591.89	2334.92
592.25	2331.80
592.60	2327.80
592.95	2323.68
593.30	2319.58
593.65	2315.34
594.00	2311.10
594.35	2308.02
594.70	2303.44
595.05	2298.63
595.40	2293.31
595.75	2287.86
596.10	2284.28
596.45	2279.60
596.80	2275.14
597.15	2269.97
597.50	2264.13
597.85	2259.44
598.19	2254.31
598.54	2248.76
598.89	2243.81
599.24	2239.52
599.59	2233.50
599.94	2227.86
600.29	2222.24
600.64	2216.51
600.99	2209.92
601.34	2204.47
601.69	2197.54
602.04	2191.25
602.39	2185.05
602.74	2179.06
603.08	2173.61
603.43	2167.17
603.78	2160.38
604.13	2153.41
604.48	2146.29
604.83	2140.43
605.18	2134.17
605.53	2127.23
605.87	2120.16
606.22	2113.47
606.57	2105.68
606.92	2097.95
607.27	2090.91
607.62	2084.24
607.96	2077.35
608.31	2070.81
608.66	2063.12
609.01	2055.69
609.36	2048.60
609.70	2040.87
610.05	2033.28
610.40	2024.99
610.75	2016.74
611.10	2009.14
611.44	2000.55
611.79	1991.85
612.14	1981.72
612.49	1971.25
612.83	1962.20
613.18	1953.12
613.53	1943.90
613.88	1934.33
614.22	1925.68
614.57	1915.96
614.92	1905.54
615.27	1895.51
615.61	1885.60
615.96	1876.02
616.31	1866.51
616.65	1857.31
617.00	1847.38
617.35	1837.77
617.70	1828.11
618.04	1818.04
618.39	1807.71
618.74	1797.93
619.08	1788.47
619.43	1779.94
619.78	1771.75
620.12	1762.93
620.47	1753.15
620.82	1742.77
621.16	1732.91
621.51	1722.96
621.85	1713.00
622.20	1702.52
622.55	1691.98
622.89	1682.09
623.24	1672.33
623.59	1662.63
623.93	1652.54
624.28	1642.85
624.62	1632.57
624.97	1622.30
625.32	1612.71
625.66	1604.01
626.01	1595.24
626.35	1585.88
626.70	1575.63
627.04	1565.48
627.39	1555.50
627.73	1546.23
628.08	1537.30
628.43	1527.83
628.77	1518.68
629.12	1509.95
629.46	1502.10
629.81	1493.65
630.15	1484.10
630.50	1474.33
630.84	1463.84
631.19	1453.85
631.53	1444.58
631.88	1434.44
632.22	1424.39
632.57	1415.04
632.91	1404.84
633.26	1395.08
633.60	1385.55
633.95	1376.34
634.29	1367.04
634.64	1357.66
634.98	1347.83
635.32	1338.45
635.67	1329.94
636.01	1320.75
636.36	1310.95
636.70	1301.43
637.05	1292.15
637.39	1283.19
637.73	1274.51
638.08	1266.96
638.42	1258.77
638.77	1249.97
639.11	1241.83
639.45	1234.05
639.80	1225.40
640.14	1216.77
640.49	1207.85
640.83	1199.02
641.17	1190.97
641.52	1182.79
641.86	1174.27
642.20	1166.40
642.55	1157.95
642.89	1149.14
643.23	1140.44
643.58	1132.36
643.92	1123.40
644.26	1114.74
644.61	1106.37
644.95	1097.59
645.29	1088.32
645.64	1079.22
645.98	1070.78
646.32	1062.87
646.66	1054.38
647.01	1046.09
647.35	1037.92
647.69	1029.51
648.04	1021.25
648.38	1012.27
648.72	1003.52
649.06	995.20
649.41	987.06
649.75	979.01
650.09	971.25
650.43	963.21
650.78	955.01
651.12	947.35
651.46	940.01
651.80	932.69
652.14	925.50
652.49	918.14
652.83	910.93
653.17	903.35
653.51	895.76
653.85	888.61
654.20	881.42
654.54	874.00
654.88	866.99
655.22	859.79
655.56	852.90
655.90	846.14
656.25	839.46
656.59	832.50
656.93	825.59
657.27	818.42
657.61	811.66
657.95	805.61
658.29	799.82
658.64	793.69
658.98	787.39
659.32	780.89
659.66	774.72
660.00	768.37
660.34	762.35
660.68	756.35
661.02	750.03
661.36	744.19
661.70	738.49
662.05	732.81
662.39	727.47
662.73	722.23
663.07	716.93
663.41	711.36
663.75	705.82
664.09	700.28
664.43	694.98
664.77	689.58
665.11	683.79
665.45	677.90
665.79	672.16
666.13	666.53
666.47	661.14
666.81	655.73
667.15	650.46
667.49	645.34
667.83	640.16
668.17	635.06
668.51	630.03
668.85	625.17
669.19	620.33
669.53	615.30
669.87	610.28
670.21	605.54
670.55	600.94
670.89	596.59
671.23	592.42
671.57	588.12
671.91	583.90
672.25	579.86
672.58	575.81
672.92	571.82
673.26	567.97
673.60	564.15
673.94	560.40
674.28	556.81
674.62	553.10
674.96	549.38
675.30	545.87
675.64	542.25
675.97	538.69
676.31	535.21
676.65	531.71
676.99	528.30
677.33	524.54
677.67	520.93
678.01	517.09
678.34	513.40
678.68	509.95
679.02	506.38
679.36	502.74
679.70	499.16
680.04	495.67
680.37	492.26
680.71	489.00
681.05	485.85
681.39	482.65
681.73	479.52
682.06	476.58
682.40	473.60
682.74	470.48
683.08	467.41
683.42	464.26
683.75	461.34
684.09	458.37
684.43	455.62
684.77	452.75
685.10	450.01
685.44	447.14
685.78	444.26
686.12	441.61
686.45	438.91
686.79	436.30
687.13	433.85
687.46	431.27
687.80	428.64
688.14	425.86
688.48	423.32
688.81	420.70
689.15	418.16
689.49	415.54
689.82	413.08
690.16	410.56
690.50	408.19
690.83	405.72
691.17	403.24
691.51	400.85
691.84	398.64
692.18	396.46
692.52	394.34
692.85	392.23
693.19	390.11
693.52	388.02
693.86	385.86
694.20	383.70
694.53	381.65
694.87	379.46
695.21	377.39
695.54	375.22
695.88	373.13
696.21	370.96
696.55	368.90
696.88	366.83
697.22	364.87
697.56	362.96
697.89	361.17
698.23	359.46
698.56	357.68
698.90	355.99
699.23	354.09
699.57	352.24
699.90	350.43
700.24	348.69
700.58	346.98
700.91	345.36
701.25	343.85
701.58	342.25
701.92	340.76
702.25	339.20
702.59	337.64
702.92	336.12
703.26	334.64
703.59	333.19
703.93	331.98
704.26	330.55
704.60	329.15
704.93	327.68
705.26	326.23
705.60	324.80
705.93	323.32
706.27	322.07
706.60	320.84
706.94	319.68
707.27	318.29
707.61	316.98
707.94	315.66
708.27	314.16
708.61	312.75
708.94	311.42
709.28	310.14
709.61	308.96
709.94	307.88
710.28	306.71
710.61	305.59
710.95	304.19
711.28	303.19
711.61	302.02
711.95	300.93
712.28	299.75
712.61	298.60
712.95	297.56
713.28	296.53
713.61	295.41
713.95	294.27
714.28	293.26
714.61	292.26
714.95	291.30
715.28	290.33
715.61	289.38
715.95	288.47
716.28	287.58
716.61	286.64
716.95	285.61
717.28	284.68
717.61	283.73
717.94	282.87
718.28	281.84
718.61	280.96
718.94	280.07
719.27	279.22
719.61	278.48
719.94	277.61
720.27	276.67
720.60	275.83
720.94	275.05
721.27	274.34
721.60	273.64
721.93	272.89
722.27	272.26
722.60	271.59
722.93	270.88
723.26	270.21
723.59	269.57
723.93	268.96
724.26	268.34
724.59	267.70
724.92	267.16
725.25	266.66
725.59	266.12
725.92	265.60
726.25	265.07
726.58	264.47
726.91	263.89
727.24	263.36
727.57	262.83
727.91	262.19
728.24	261.65
728.57	261.07
728.90	260.63
729.23	260.06
729.56	259.65
729.89	259.10
730.22	258.55
730.55	257.98
730.89	257.47
731.22	256.94
731.55	256.45
731.88	255.91
732.21	255.37
732.54	254.82
732.87	254.33
733.20	253.85
733.53	253.37
733.86	252.96
734.19	252.47
734.52	252.10
734.85	251.88
735.18	251.43
735.51	251.09
735.84	250.63
736.17	250.23
736.50	249.70
736.83	249.60
737.16	249.22
737.49	248.86
737.82	248.48
738.15	248.15
738.48	247.78
738.81	247.41
739.14	246.97
739.47	246.61
739.80	246.24
740.13	245.91
740.46	245.58
740.79	245.17
741.12	244.84
741.45	244.48
741.78	244.00
742.11	243.71
742.44	243.30
742.77	243.00
743.10	242.65
743.43	242.35
743.75	241.74
744.08	241.68
744.41	241.35
744.74	241.00
745.07	240.65
745.40	240.37
745.73	240.17
746.06	239.90
746.39	239.62
746.71	239.26
747.04	238.90
747.37	238.54
747.70	238.29
748.03	238.00
748.36	237.71
748.68	237.42
749.01	237.09
749.34	236.86
749.67	236.56
750.00	236.31
750.33	236.14
750.65	235.93
750.98	235.42
751.31	235.20
751.64	234.98
751.97	234.83
752.29	234.59
752.62	234.21
752.95	233.97
753.28	233.69
753.60	233.48
753.93	233.36
754.26	233.19
754.59	232.94
754.91	232.70
755.24	232.49
755.57	232.28
755.90	232.08
756.22	231.81
756.55	231.58
756.88	231.36
757.20	231.03
757.53	230.78
757.86	230.55
758.19	230.33
758.51	230.12
758.84	229.84
759.17	229.62
759.49	229.46
759.82	229.36
760.15	229.22
760.47	229.03
760.80	228.78
761.13	228.61
761.45	228.42
761.78	228.25
762.11	228.07
762.43	227.91
762.76	227.72
763.08	227.60
763.41	227.45
763.74	227.31
764.06	227.17
764.39	227.02
764.71	226.86
765.04	226.71
765.37	226.56
765.69	226.42
766.02	226.27
766.34	226.14
766.67	225.96
767.00	225.85
767.32	225.85
767.65	225.86
767.97	225.72
768.30	225.61
768.62	225.51
768.95	225.37
769.27	225.23
769.60	225.16
769.92	225.00
770.25	224.85
770.57	224.66
770.90	224.57
771.22	224.45
771.55	224.39
771.87	224.27
772.20	224.15
772.52	224.19
772.85	224.34
773.17	224.21
773.50	224.08
773.82	223.94
774.15	223.75
774.47	223.55
774.80	223.43
775.12	223.35
775.45	223.27
775.77	223.20
776.09	223.13
776.42	223.03
776.74	223.00
777.07	222.93
777.39	222.87
777.72	222.78
778.04	222.70
778.36	222.59
778.69	222.54
779.01	222.48
779.33	222.23
779.66	221.93
779.98	221.85
780.31	221.80
780.63	221.80
780.95	221.76
781.28	221.65
781.60	221.53
781.92	221.48
782.25	221.42
782.57	221.35
782.89	221.24
783.22	221.16
783.54	221.04
783.86	221.03
784.19	220.97
784.51	220.94
784.83	220.89
785.16	220.81
785.48	220.77
785.80	220.68
786.12	220.62
786.45	220.56
786.77	220.55
787.09	220.51
787.42	220.38
787.74	220.32
788.06	220.30
788.38	220.25
788.71	220.15
789.03	220.09
789.35	220.05
789.67	219.99
789.99	219.97
790.32	219.91
790.64	219.85
790.96	219.94
791.28	219.84
791.61	219.76
791.93	219.73
792.25	219.66
792.57	219.78
792.89	219.70
793.21	219.66
793.54	219.56
793.86	219.46
794.18	219.43
794.50	219.36
794.82	219.31
795.14	219.34
795.47	219.33
795.79	219.29
796.11	219.19
796.43	219.10
796.75	219.03
797.07	218.99
797.39	218.93
797.71	218.71
798.04	218.68
798.36	218.68
798.68	218.61
799.00	218.58
799.32	218.46
799.64	218.46
799.96	218.42
800.28	218.42
800.60	218.38
800.92	218.34
801.24	218.29
801.56	218.25
801.89	218.17
802.21	218.16
802.53	218.12
802.85	218.15
803.17	218.21
803.49	218.13
803.81	218.11
804.13	218.08
804.45	218.06
804.77	218.02
805.09	217.98
805.41	217.98
805.73	217.91
806.05	217.81
806.37	217.78
806.69	217.70
807.01	217.66
807.33	217.67
807.65	217.58
807.97	217.62
808.28	217.59
808.60	217.54
808.92	217.48
809.24	217.55
809.56	217.48
809.88	217.43
810.20	217.44
810.52	217.49
810.84	217.40
811.16	217.34
811.48	217.33
811.80	217.36
812.12	217.32
812.43	217.36
812.75	217.36
813.07	217.32
813.39	217.35
813.71	217.32
814.03	217.25
814.35	217.24
814.67	217.17
814.98	217.11
815.30	217.13
815.62	217.06
815.94	216.91
816.26	216.87
816.58	216.82
816.89	216.80
817.21	216.70
817.53	216.70
817.85	216.71
818.17	216.66
818.48	216.54
818.80	216.56
819.12	216.50
819.44	216.45
819.76	216.42
820.07	216.40
820.39	216.39
820.71	216.39
821.03	216.38
821.34	216.36
821.66	216.38
821.98	216.38
822.30	216.39
822.61	216.49
822.93	216.47
823.25	216.45
823.57	216.46
823.88	216.46
824.20	216.45
824.52	216.49
824.83	216.45
825.15	216.47
825.47	216.45
825.79	216.46
826.10	216.43
826.42	216.41
826.74	216.44
827.05	216.41
827.37	216.41
827.69	216.39
828.00	216.38
828.32	216.35
828.64	216.30
828.95	216.42
829.27	216.35
829.58	216.36
829.90	216.39
830.22	216.37
830.53	216.34
830.85	216.32
831.17	216.27
831.48	216.31
831.80	216.35
832.11	216.34
832.43	216.32
832.75	216.31
833.06	216.43
833.38	216.33
833.69	216.30
834.01	216.31
834.32	216.30
834.64	216.28
834.96	216.29
835.27	216.30
835.59	216.16
835.90	216.15
836.22	216.16
836.53	216.11
836.85	216.08
837.16	216.29
837.48	216.31
837.79	216.34
838.11	216.33
838.42	216.28
838.74	216.29
839.05	216.26
839.37	216.26
839.68	216.12
840.00	216.12
840.31	216.15
840.63	216.12
840.94	216.09
841.26	216.02
841.57	215.99
841.88	216.00
842.20	215.97
842.51	215.90
842.83	215.85
843.14	216.04
843.46	216.00
843.77	215.84
844.08	215.82
844.40	215.75
844.71	215.71
845.03	215.66
845.34	215.61
845.65	215.60
845.97	215.60
846.28	215.61
846.60	215.61
846.91	215.57
847.22	215.55
847.54	215.59
847.85	215.65
848.16	215.62
848.48	215.56
848.79	215.63
849.10	215.70
849.42	215.70
849.73	215.48
850.04	215.50
850.36	215.44
850.67	215.45
850.98	215.47
851.30	215.49
851.61	215.50
851.92	215.49
852.23	215.52
852.55	215.52
852.86	215.56
853.17	215.56
853.49	215.59
853.80	215.63
854.11	215.64
854.42	215.66
854.74	215.67
855.05	215.67
855.36	215.55
855.67	215.54
855.99	215.55
856.30	215.78
856.61	215.78
856.92	215.79
857.23	215.81
857.55	215.74
857.86	215.72
858.17	215.75
858.48	215.74
858.79	215.71
859.11	215.73
859.42	215.68
859.73	215.64
860.04	215.64
860.35	215.59
860.66	215.52
860.98	215.50
861.29	215.49
861.60	215.51
861.91	215.60
862.22	215.57
862.53	215.53
862.84	215.30
863.16	215.34
863.47	215.31
863.78	215.25
864.09	215.28
864.40	215.31
864.71	215.29
865.02	215.29
865.33	215.27
865.64	215.23
865.95	215.22
866.27	215.38
866.58	215.34
866.89	215.34
867.20	215.33
867.51	215.27
867.82	215.26
868.13	215.31
868.44	215.26
868.75	215.29
869.06	215.30
869.37	215.31
869.68	215.26
869.99	215.30
870.30	215.31
870.61	215.35
870.92	215.30
871.23	215.28
871.54	215.33
871.85	215.37
872.16	215.37
872.47	215.35
872.78	215.21
873.09	215.21
873.40	215.24
873.71	215.28
874.02	215.31
874.33	215.29
874.64	215.26
874.95	215.27
875.26	215.25
875.56	215.23
875.87	215.21
876.18	215.20
876.49	215.39
876.80	215.41
877.11	215.38
877.42	215.38
877.73	215.41
878.04	215.36
878.35	215.34
878.66	215.34
878.96	215.36
879.27	215.35
879.58	215.37
879.89	215.34
880.20	215.38
880.51	215.37
880.82	215.36
881.12	215.34
881.43	215.26
881.74	215.21
882.05	215.24
882.36	215.27
882.67	215.27
882.97	215.04
883.28	215.01
883.59	214.98
883.90	215.02
884.21	215.03
884.51	215.02
884.82	214.99
885.13	215.00
885.44	214.98
885.74	214.99
886.05	214.96
886.36	214.96
886.67	214.89
886.98	214.97
887.28	214.99
887.59	215.00
887.90	215.05
888.20	215.04
888.51	215.07
888.82	215.02
889.13	215.07
889.43	215.21
889.74	215.22
890.05	215.21
890.35	215.20
890.66	215.16
890.97	215.17
891.28	215.17
891.58	215.15
891.89	215.15
892.20	215.12
892.50	215.11
892.81	215.10
893.12	215.09
893.42	215.00
893.73	215.02
894.04	215.00
894.34	215.00
894.65	215.00
894.95	214.98
895.26	214.97
895.57	215.04
895.87	214.89
896.18	214.93
896.48	214.96
896.79	214.95
897.10	214.95
897.40	214.91
897.71	214.93
898.01	214.92
898.32	214.96
898.63	214.95
898.93	214.94
899.24	214.95
899.54	214.95
899.85	214.94
900.15	214.95
900.46	214.92
900.76	214.93
901.07	214.95
901.38	214.93
901.68	214.95
901.99	214.81
902.29	214.80
902.60	214.77
902.90	214.71
903.21	214.67
903.51	214.69
903.82	214.75
904.12	214.74
904.43	214.75
904.73	214.72
905.03	214.75
905.34	214.92
905.64	214.94
905.95	214.94
906.25	214.92
906.56	214.89
906.86	214.94
907.17	214.95
907.47	214.95
907.77	214.92
908.08	214.90
908.38	214.95
908.69	214.97
908.99	215.01
909.30	215.05
909.60	215.07
909.90	215.12
910.21	215.06
910.51	215.06
910.81	215.09
911.12	215.11
911.42	215.11
911.73	214.95
912.03	214.96
912.33	214.98
912.64	215.00
912.94	215.01
913.24	214.95
913.55	214.92
913.85	214.92
914.15	214.96
914.46	215.02
914.76	215.02
915.06	215.01
915.37	214.94
915.67	214.91
915.97	214.92
916.27	214.81
916.58	214.82
916.88	214.82
917.18	214.80
917.49	214.94
917.79	214.94
918.09	214.96
918.39	215.01
918.70	215.05
919.00	215.06
919.30	215.19
919.60	215.16
919.91	215.14
920.21	215.15
920.51	215.10
920.81	215.07
921.12	215.11
921.42	215.10
921.72	215.15
922.02	215.17
922.32	215.21
922.63	215.24
922.93	215.35
923.23	215.34
923.53	215.32
923.83	215.17
924.13	215.18
924.44	215.17
924.74	215.19
925.04	215.21
925.34	215.18
925.64	215.07
925.94	215.09
926.24	215.22
926.55	215.18
926.85	215.23
927.15	215.21
927.45	215.19
927.75	215.19
928.05	215.17
928.35	215.12
928.65	215.14
928.95	215.16
929.26	215.05
929.56	215.06
929.86	215.08
930.16	215.10
930.46	215.06
930.76	215.04
931.06	214.90
931.36	214.81
931.66	214.86
931.96	214.85
932.26	214.85
932.56	214.74
932.86	214.76
933.16	214.78
933.46	214.77
933.76	214.72
934.06	214.78
934.36	214.86
934.66	214.88
934.96	214.85
935.26	214.86
935.56	214.89
935.86	214.85
936.16	214.83
936.46	214.80
936.76	214.82
937.06	214.81
937.36	214.85
937.66	214.90
937.96	214.87
938.26	214.87
938.56	214.88
938.86	214.92
939.16	214.95
939.46	214.95
939.76	214.94
940.06	214.94
940.35	214.87
940.65	214.77
940.95	214.80
941.25	214.73
941.55	214.68
941.85	214.67
942.15	214.72
942.45	214.78
942.75	214.76
943.04	214.79
943.34	214.85
943.64	214.83
943.94	214.81
944.24	214.80
944.54	214.79
944.84	214.79
945.13	214.76
945.43	214.70
945.73	214.71
946.03	214.69
946.33	214.66
946.62	214.63
946.92	214.63
947.22	214.63
947.52	214.64
947.82	214.67
948.11	214.64
948.41	214.59
948.71	214.54
949.01	214.56
949.31	214.52
949.60	214.49
949.90	214.54
950.20	214.52
950.50	214.55
950.79	214.52
951.09	214.52
951.39	214.49
951.69	214.48
951.98	214.53
952.28	214.58
952.58	214.59
952.87	214.60
953.17	214.63
953.47	214.58
953.76	214.64
954.06	214.61
954.36	214.60
954.66	214.63
954.95	214.67
955.25	214.68
955.55	214.70
955.84	214.65
956.14	214.62
956.44	214.63
956.73	214.60
957.03	214.64
957.32	214.64
957.62	214.66
957.92	214.73
958.21	214.68
958.51	214.88
958.81	214.92
959.10	214.94
959.40	214.98
959.69	215.03
959.99	215.01
960.29	215.02
960.58	214.98
960.88	215.02
961.17	214.98
961.47	215.00
961.76	214.96
962.06	215.02
962.36	215.00
962.65	215.01
962.95	215.02
963.24	214.98
963.54	214.99
963.83	214.98
964.13	214.93
964.42	214.84
964.72	214.70
965.01	214.71
965.31	214.72
965.60	214.66
965.90	214.80
966.19	214.78
966.49	214.80
966.78	214.79
967.08	214.80
967.37	214.81
967.67	214.75
967.96	214.83
968.26	214.81
968.55	214.83
968.85	214.83
969.14	214.80
969.43	214.81
969.73	214.79
970.02	214.84
970.32	214.82
970.61	214.86
970.91	214.79
971.20	214.74
971.49	214.72
971.79	214.77
972.08	214.60
972.38	214.59
972.67	214.59
972.96	214.68
973.26	214.62
973.55	214.70
973.85	214.72
974.14	214.68
974.43	214.69
974.73	214.71
975.02	214.66
975.31	214.71
975.61	214.71
975.90	214.70
976.19	214.66
976.49	214.70
976.78	214.70
977.07	214.67
977.37	214.71
977.66	214.70
977.95	214.66
978.24	214.68
978.54	214.71
978.83	214.68
979.12	214.64
979.42	214.62
979.71	214.56
980.00	214.56
980.29	214.58
980.59	214.52
980.88	214.54
981.17	214.55
981.46	214.55
981.76	214.53
982.05	214.60
982.34	214.61
982.63	214.58
982.93	214.58
983.22	214.63
983.51	214.62
983.80	214.67
984.09	214.68
984.39	214.67
984.68	214.67
984.97	214.68
985.26	214.65
985.55	214.65
985.85	214.61
986.14	214.63
986.43	214.67
986.72	214.66
987.01	214.60
987.30	214.61
987.59	214.57
987.89	214.57
988.18	214.49
988.47	214.45
988.76	214.46
989.05	214.45
989.34	214.40
989.63	214.45
989.92	214.39
990.22	214.38
990.51	214.36
990.80	214.34
991.09	214.40
991.38	214.44
991.67	214.45
991.96	214.45
992.25	214.46
992.54	214.39
992.83	214.41
993.12	214.39
993.41	214.41
993.70	214.51
993.99	214.55
994.28	214.61
994.58	214.65
994.87	214.63
995.16	214.65
995.45	214.66
995.74	214.60
996.03	214.66
996.32	214.69
996.61	214.74
996.90	214.74
997.19	214.68
997.48	214.69
997.77	214.66
998.06	214.66
998.34	214.67
998.63	214.68
998.92	214.66
999.21	214.74
999.50	214.73
999.79	214.66
1000.08	214.67
1000.37	214.67
1000.66	214.64
1000.95	214.69
1001.24	214.67
1001.53	214.70
1001.82	214.71
1002.11	214.62
1002.40	214.65
1002.68	214.68
1002.97	214.80
1003.26	214.80
1003.55	214.77
1003.84	214.83
1004.13	214.93
1004.42	214.87
1004.71	214.88
1004.99	214.90
1005.28	214.91
1005.57	214.90
1005.86	214.89
1006.15	214.84
1006.44	214.81
1006.72	214.85
1007.01	214.83
1007.30	214.81
1007.59	214.80
1007.88	214.78
1008.17	214.77
1008.45	214.70
1008.74	214.65
1009.03	214.56
1009.32	214.54
1009.60	214.54
1009.89	214.51
1010.18	214.40
1010.47	214.39
1010.76	214.37
1011.04	214.38
1011.33	214.42
1011.62	214.43
1011.91	214.46
1012.19	214.48
1012.48	214.47
1012.77	214.45
1013.05	214.55
1013.34	214.56
1013.63	214.53
1013.92	214.57
1014.20	214.61
1014.49	214.59
1014.78	214.61
1015.06	214.53
1015.35	214.56
1015.64	214.59
1015.92	214.60
1016.21	214.60
1016.50	214.66
1016.78	214.67
1017.07	214.68
1017.36	214.60
1017.64	214.56
1017.93	214.56
1018.22	214.57
1018.50	214.56
1018.79	214.57
1019.08	214.48
1019.36	214.51
1019.65	214.51
1019.93	214.55
1020.22	214.56
1020.51	214.67
1020.79	214.64
1021.08	214.75
1021.36	213.95
1021.65	214.43
1021.94	214.91
1022.22	214.92
1022.51	214.06
1022.79	215.56
1023.08	214.93
1023.36	216.29
1023.65	214.12
>>>>>End Processed Spectral Data<<<<<
