SpectraSuite Data File
++++++++++++++++++++++++++++++++++++
Date: Tue Jan 29 16:31:21 EST 2013
User: group
Dark Spectrum Present: No
Reference Spectrum Present: No
Number of Sampled Component Spectra: 1
Spectrometers: USB2E7196
Integration Time (usec): 65000 (USB2E7196)
Spectra Averaged: 100 (USB2E7196)
Boxcar Smoothing: 10 (USB2E7196)
Correct for Electrical Dark: No (USB2E7196)
Strobe/Lamp Enabled: No (USB2E7196)
Correct for Detector Non-linearity: No (USB2E7196)
Correct for Stray Light: No (USB2E7196)
Number of Pixels in Processed Spectrum: 2048
>>>>>Begin Processed Spectral Data<<<<<
339.09	0.00
339.48	201.60
339.86	203.82
340.24	204.49
340.63	206.17
341.01	210.94
341.39	209.47
341.78	210.25
342.16	212.10
342.54	212.09
342.93	201.23
343.31	211.39
343.69	211.94
344.07	212.40
344.46	212.86
344.84	213.27
345.22	213.42
345.60	213.67
345.99	213.90
346.37	214.03
346.75	214.15
347.13	214.24
347.52	214.33
347.90	214.49
348.28	214.53
348.66	214.61
349.05	214.58
349.43	214.64
349.81	214.73
350.19	214.77
350.57	214.84
350.96	214.86
351.34	214.98
351.72	215.09
352.10	215.17
352.48	215.25
352.87	215.29
353.25	215.37
353.63	215.42
354.01	215.44
354.39	215.51
354.77	215.60
355.15	215.73
355.54	215.78
355.92	215.82
356.30	215.89
356.68	216.12
357.06	216.19
357.44	216.23
357.82	216.25
358.20	216.34
358.58	216.37
358.97	216.47
359.35	216.55
359.73	216.64
360.11	216.74
360.49	216.81
360.87	216.86
361.25	216.94
361.63	217.05
362.01	217.13
362.39	217.16
362.77	217.19
363.15	217.21
363.53	217.23
363.91	217.24
364.29	217.27
364.67	217.08
365.05	217.09
365.43	217.15
365.81	217.20
366.19	217.30
366.57	217.43
366.95	217.44
367.33	217.42
367.71	217.43
368.09	217.42
368.47	217.43
368.85	217.42
369.23	217.44
369.61	217.36
369.99	217.39
370.37	217.39
370.75	217.46
371.13	217.39
371.51	217.35
371.89	217.35
372.27	217.31
372.65	217.32
373.03	217.33
373.41	217.27
373.78	217.23
374.16	217.10
374.54	217.00
374.92	216.95
375.30	216.90
375.68	216.79
376.06	216.77
376.44	216.69
376.82	216.66
377.19	216.64
377.57	216.59
377.95	216.52
378.33	216.48
378.71	216.34
379.09	216.32
379.47	216.31
379.84	216.23
380.22	216.18
380.60	216.07
380.98	215.99
381.36	215.98
381.73	215.92
382.11	215.94
382.49	215.88
382.87	215.80
383.25	215.78
383.62	216.01
384.00	215.95
384.38	215.91
384.76	215.93
385.13	215.96
385.51	215.93
385.89	215.87
386.27	215.83
386.64	215.83
387.02	215.81
387.40	215.75
387.78	215.77
388.15	215.75
388.53	215.75
388.91	215.72
389.29	215.67
389.66	215.68
390.04	215.62
390.42	215.65
390.79	215.70
391.17	215.69
391.55	215.43
391.92	215.43
392.30	215.46
392.68	215.39
393.05	215.35
393.43	215.35
393.81	215.36
394.18	215.34
394.56	215.30
394.94	215.32
395.31	215.32
395.69	215.34
396.06	215.39
396.44	215.42
396.82	215.45
397.19	215.58
397.57	215.57
397.95	215.62
398.32	215.58
398.70	215.62
399.07	215.69
399.45	215.72
399.82	215.78
400.20	215.81
400.58	215.87
400.95	215.86
401.33	215.96
401.70	216.15
402.08	216.23
402.45	216.33
402.83	216.44
403.20	216.55
403.58	216.62
403.95	216.78
404.33	216.91
404.71	217.10
405.08	217.35
405.46	217.51
405.83	217.74
406.21	217.94
406.58	218.17
406.96	218.38
407.33	218.66
407.70	218.94
408.08	219.40
408.45	219.77
408.83	220.17
409.20	220.54
409.58	220.82
409.95	221.29
410.33	221.79
410.70	222.25
411.08	222.80
411.45	223.42
411.82	223.97
412.20	224.64
412.57	225.43
412.95	225.96
413.32	226.79
413.69	227.63
414.07	228.58
414.44	229.55
414.82	230.57
415.19	231.76
415.56	232.96
415.94	234.14
416.31	235.54
416.68	236.96
417.06	238.57
417.43	240.09
417.81	241.87
418.18	243.68
418.55	245.59
418.93	247.66
419.30	249.72
419.67	251.97
420.04	254.30
420.42	256.71
420.79	259.56
421.16	262.36
421.54	265.25
421.91	268.18
422.28	271.31
422.66	274.61
423.03	277.88
423.40	281.26
423.77	284.85
424.15	288.51
424.52	292.34
424.89	296.51
425.26	300.62
425.64	304.49
426.01	308.74
426.38	313.25
426.75	317.78
427.13	322.52
427.50	327.46
427.87	332.64
428.24	337.83
428.61	342.89
428.99	348.45
429.36	354.48
429.73	360.36
430.10	366.23
430.47	372.34
430.85	378.66
431.22	385.29
431.59	392.38
431.96	399.17
432.33	406.62
432.70	413.86
433.08	422.32
433.45	430.37
433.82	438.37
434.19	447.20
434.56	455.90
434.93	464.24
435.30	472.51
435.68	481.64
436.05	490.61
436.42	499.43
436.79	507.57
437.16	516.26
437.53	525.53
437.90	534.68
438.27	543.59
438.64	552.75
439.01	561.35
439.38	568.91
439.75	576.24
440.13	584.71
440.50	592.61
440.87	599.09
441.24	605.74
441.61	613.06
441.98	618.44
442.35	624.75
442.72	631.13
443.09	637.21
443.46	640.91
443.83	643.46
444.20	645.75
444.57	648.89
444.94	650.33
445.31	651.82
445.68	653.21
446.05	653.87
446.42	653.08
446.79	652.12
447.16	651.12
447.53	650.40
447.90	647.06
448.27	643.84
448.64	639.21
449.01	635.87
449.37	630.02
449.74	624.39
450.11	617.52
450.48	610.15
450.85	602.76
451.22	596.27
451.59	590.07
451.96	584.14
452.33	576.23
452.70	569.18
453.07	560.72
453.43	552.07
453.80	543.71
454.17	535.77
454.54	528.16
454.91	519.97
455.28	511.97
455.65	504.54
456.02	497.00
456.38	490.67
456.75	482.83
457.12	476.29
457.49	469.76
457.86	463.58
458.23	458.13
458.59	452.16
458.96	446.17
459.33	440.92
459.70	435.62
460.07	431.40
460.43	426.50
460.80	421.93
461.17	417.94
461.54	413.77
461.91	409.71
462.27	405.58
462.64	402.13
463.01	398.37
463.38	394.73
463.74	391.05
464.11	387.79
464.48	384.94
464.85	381.80
465.21	379.36
465.58	376.69
465.95	373.56
466.32	370.93
466.68	368.31
467.05	365.72
467.42	363.09
467.78	360.39
468.15	357.83
468.52	355.86
468.88	353.39
469.25	351.16
469.62	349.36
469.98	347.45
470.35	345.65
470.72	343.92
471.08	342.07
471.45	340.55
471.82	339.02
472.18	337.38
472.55	336.18
472.92	334.83
473.28	333.62
473.65	332.46
474.02	331.38
474.38	330.55
474.75	329.71
475.11	328.93
475.48	328.39
475.85	327.90
476.21	327.43
476.58	327.05
476.94	326.81
477.31	326.50
477.67	326.20
478.04	326.05
478.41	325.98
478.77	326.14
479.14	326.06
479.50	326.14
479.87	326.39
480.23	326.72
480.60	326.93
480.96	327.22
481.33	327.85
481.69	328.39
482.06	328.83
482.42	329.36
482.79	329.98
483.15	330.74
483.52	331.70
483.88	332.58
484.25	333.54
484.61	334.56
484.98	335.61
485.34	336.96
485.71	338.33
486.07	339.73
486.44	341.02
486.80	342.66
487.17	344.39
487.53	346.21
487.90	348.08
488.26	350.12
488.62	352.25
488.99	354.26
489.35	356.42
489.72	358.85
490.08	361.36
490.44	363.92
490.81	366.61
491.17	369.35
491.54	372.36
491.90	375.43
492.26	378.66
492.63	382.10
492.99	385.61
493.36	389.25
493.72	393.19
494.08	397.24
494.45	401.50
494.81	405.83
495.17	410.30
495.54	415.00
495.90	419.81
496.26	424.75
496.63	429.97
496.99	435.38
497.35	441.00
497.72	446.89
498.08	452.90
498.44	459.06
498.80	465.51
499.17	472.01
499.53	478.74
499.89	485.66
500.26	492.69
500.62	499.82
500.98	507.28
501.34	514.84
501.71	522.66
502.07	530.52
502.43	538.59
502.79	546.78
503.16	555.15
503.52	563.82
503.88	572.63
504.24	581.65
504.60	590.80
504.97	600.01
505.33	609.29
505.69	619.21
506.05	629.12
506.41	639.00
506.78	649.09
507.14	659.35
507.50	669.87
507.86	680.64
508.22	691.39
508.59	702.04
508.95	713.12
509.31	724.45
509.67	735.96
510.03	747.45
510.39	759.29
510.75	771.30
511.12	783.24
511.48	795.34
511.84	807.64
512.20	820.03
512.56	832.74
512.92	845.60
513.28	858.25
513.64	871.03
514.00	883.98
514.37	897.06
514.73	910.26
515.09	923.32
515.45	936.24
515.81	949.40
516.17	962.96
516.53	976.26
516.89	989.52
517.25	1002.79
517.61	1016.39
517.97	1029.88
518.33	1043.06
518.69	1056.76
519.05	1070.67
519.41	1084.37
519.77	1098.37
520.13	1111.81
520.49	1125.11
520.85	1138.55
521.21	1152.06
521.57	1165.83
521.93	1179.07
522.29	1192.95
522.65	1206.73
523.01	1220.47
523.37	1233.84
523.73	1247.22
524.09	1260.55
524.45	1274.01
524.81	1287.61
525.17	1301.21
525.53	1314.60
525.89	1327.98
526.25	1341.23
526.61	1354.15
526.97	1367.45
527.33	1380.62
527.68	1394.25
528.04	1407.89
528.40	1421.12
528.76	1434.60
529.12	1447.68
529.48	1461.05
529.84	1473.37
530.20	1486.21
530.56	1498.94
530.91	1512.21
531.27	1525.23
531.63	1538.04
531.99	1550.93
532.35	1563.24
532.71	1575.67
533.07	1588.62
533.42	1601.00
533.78	1613.25
534.14	1625.45
534.50	1636.82
534.86	1648.48
535.21	1659.39
535.57	1670.91
535.93	1682.37
536.29	1693.51
536.65	1705.01
537.00	1716.12
537.36	1727.57
537.72	1738.70
538.08	1750.28
538.44	1761.37
538.79	1772.53
539.15	1783.64
539.51	1794.55
539.87	1805.98
540.22	1816.83
540.58	1827.90
540.94	1838.97
541.29	1849.31
541.65	1859.20
542.01	1869.85
542.37	1879.82
542.72	1890.24
543.08	1900.22
543.44	1910.82
543.79	1920.22
544.15	1929.77
544.51	1939.88
544.87	1949.95
545.22	1959.35
545.58	1968.25
545.94	1977.31
546.29	1985.90
546.65	1994.30
547.01	2002.62
547.36	2010.44
547.72	2018.28
548.07	2025.90
548.43	2033.74
548.79	2041.69
549.14	2049.87
549.50	2058.41
549.86	2066.53
550.21	2074.02
550.57	2081.77
550.92	2088.63
551.28	2096.23
551.64	2103.58
551.99	2111.11
552.35	2118.44
552.70	2125.27
553.06	2131.95
553.41	2138.32
553.77	2144.93
554.13	2151.34
554.48	2158.31
554.84	2165.38
555.19	2172.07
555.55	2178.65
555.90	2185.08
556.26	2191.94
556.61	2198.12
556.97	2202.85
557.32	2208.70
557.68	2215.06
558.03	2220.93
558.39	2226.28
558.74	2232.42
559.10	2237.93
559.45	2243.50
559.81	2249.06
560.16	2254.62
560.52	2260.52
560.87	2267.02
561.23	2272.96
561.58	2279.65
561.94	2284.88
562.29	2289.67
562.64	2295.76
563.00	2301.39
563.35	2306.94
563.71	2312.73
564.06	2318.52
564.42	2324.66
564.77	2329.66
565.12	2334.96
565.48	2339.98
565.83	2345.50
566.19	2350.77
566.54	2356.32
566.89	2360.98
567.25	2365.57
567.60	2371.31
567.96	2376.45
568.31	2380.96
568.66	2385.24
569.02	2389.11
569.37	2392.91
569.72	2397.37
570.08	2400.86
570.43	2403.87
570.78	2406.99
571.14	2409.49
571.49	2412.52
571.84	2416.08
572.20	2418.99
572.55	2421.91
572.90	2424.18
573.26	2427.03
573.61	2429.55
573.96	2431.50
574.31	2433.52
574.67	2435.31
575.02	2436.14
575.37	2437.61
575.72	2438.24
576.08	2439.77
576.43	2440.03
576.78	2440.46
577.13	2442.06
577.49	2443.19
577.84	2444.33
578.19	2445.44
578.54	2446.10
578.90	2446.71
579.25	2446.38
579.60	2446.29
579.95	2445.53
580.30	2445.72
580.66	2444.87
581.01	2442.99
581.36	2440.63
581.71	2439.03
582.06	2437.87
582.42	2436.95
582.77	2434.60
583.12	2432.99
583.47	2431.53
583.82	2430.94
584.17	2429.71
584.53	2427.32
584.88	2425.12
585.23	2423.05
585.58	2420.79
585.93	2418.59
586.28	2416.33
586.63	2413.93
586.98	2411.69
587.34	2409.73
587.69	2407.30
588.04	2405.25
588.39	2403.99
588.74	2401.42
589.09	2398.76
589.44	2395.54
589.79	2392.92
590.14	2390.96
590.49	2387.86
590.84	2383.90
591.19	2380.64
591.54	2377.38
591.89	2373.45
592.25	2370.21
592.60	2365.99
592.95	2361.80
593.30	2357.53
593.65	2353.16
594.00	2348.52
594.35	2345.44
594.70	2340.60
595.05	2335.89
595.40	2330.26
595.75	2324.41
596.10	2320.78
596.45	2315.91
596.80	2311.27
597.15	2306.06
597.50	2299.99
597.85	2295.18
598.19	2289.95
598.54	2284.10
598.89	2278.79
599.24	2274.22
599.59	2267.95
599.94	2262.07
600.29	2256.07
600.64	2250.20
600.99	2243.24
601.34	2237.93
601.69	2230.85
602.04	2224.42
602.39	2217.79
602.74	2211.89
603.08	2206.44
603.43	2199.90
603.78	2192.95
604.13	2185.81
604.48	2178.42
604.83	2172.42
605.18	2166.10
605.53	2159.11
605.87	2151.99
606.22	2145.10
606.57	2136.97
606.92	2128.96
607.27	2121.96
607.62	2115.24
607.96	2108.12
608.31	2101.76
608.66	2093.90
609.01	2086.21
609.36	2079.15
609.70	2071.42
610.05	2063.51
610.40	2055.07
610.75	2046.69
611.10	2039.00
611.44	2030.09
611.79	2021.32
612.14	2011.23
612.49	2000.58
612.83	1991.17
613.18	1981.89
613.53	1972.61
613.88	1963.10
614.22	1954.50
614.57	1944.63
614.92	1933.99
615.27	1923.71
615.61	1913.49
615.96	1903.75
616.31	1894.19
616.65	1884.64
617.00	1874.58
617.35	1864.69
617.70	1854.81
618.04	1844.74
618.39	1834.50
618.74	1824.84
619.08	1815.11
619.43	1806.40
619.78	1798.05
620.12	1789.41
620.47	1779.76
620.82	1769.34
621.16	1759.54
621.51	1749.60
621.85	1739.75
622.20	1729.43
622.55	1718.84
622.89	1708.89
623.24	1699.11
623.59	1689.15
623.93	1679.08
624.28	1669.43
624.62	1659.44
624.97	1649.21
625.32	1639.31
625.66	1630.39
626.01	1621.60
626.35	1612.28
626.70	1602.19
627.04	1592.03
627.39	1581.82
627.73	1572.45
628.08	1563.53
628.43	1553.86
628.77	1544.58
629.12	1535.64
629.46	1527.81
629.81	1519.46
630.15	1509.88
630.50	1500.06
630.84	1489.67
631.19	1479.70
631.53	1470.43
631.88	1460.14
632.22	1450.06
632.57	1440.69
632.91	1430.48
633.26	1420.53
633.60	1410.85
633.95	1401.54
634.29	1392.04
634.64	1382.74
634.98	1372.81
635.32	1363.41
635.67	1354.88
636.01	1345.54
636.36	1335.59
636.70	1325.90
637.05	1316.49
637.39	1307.54
637.73	1298.86
638.08	1291.23
638.42	1283.00
638.77	1274.01
639.11	1265.86
639.45	1257.92
639.80	1249.28
640.14	1240.55
640.49	1231.55
640.83	1222.69
641.17	1214.41
641.52	1206.26
641.86	1197.64
642.20	1189.75
642.55	1181.13
642.89	1172.18
643.23	1163.56
643.58	1155.53
643.92	1146.55
644.26	1137.76
644.61	1129.25
644.95	1120.38
645.29	1111.12
645.64	1101.83
645.98	1093.32
646.32	1085.31
646.66	1076.80
647.01	1068.50
647.35	1060.41
647.69	1052.08
648.04	1043.76
648.38	1034.87
648.72	1025.93
649.06	1017.44
649.41	1009.10
649.75	1001.02
650.09	993.12
650.43	984.95
650.78	976.57
651.12	968.75
651.46	961.34
651.80	954.14
652.14	946.78
652.49	939.24
652.83	931.91
653.17	924.17
653.51	916.42
653.85	909.04
654.20	901.66
654.54	894.06
654.88	886.77
655.22	879.50
655.56	872.41
655.90	865.58
656.25	858.84
656.59	851.84
656.93	844.72
657.27	837.50
657.61	830.47
657.95	824.29
658.29	818.35
658.64	812.11
658.98	805.48
659.32	798.96
659.66	792.51
660.00	786.10
660.34	780.01
660.68	773.93
661.02	767.71
661.36	761.69
661.70	755.83
662.05	750.15
662.39	744.56
662.73	739.08
663.07	733.70
663.41	728.03
663.75	722.33
664.09	716.69
664.43	711.19
664.77	705.75
665.11	699.85
665.45	693.83
665.79	687.97
666.13	682.22
666.47	676.63
666.81	671.19
667.15	665.75
667.49	660.44
667.83	655.09
668.17	649.69
668.51	644.55
668.85	639.53
669.19	634.57
669.53	629.61
669.87	624.45
670.21	619.63
670.55	614.83
670.89	610.33
671.23	605.97
671.57	601.56
671.91	597.27
672.25	593.16
672.58	589.02
672.92	584.96
673.26	580.97
673.60	577.03
673.94	573.15
674.28	569.54
674.62	565.78
674.96	561.98
675.30	558.46
675.64	554.81
675.97	551.23
676.31	547.57
676.65	543.92
676.99	540.49
677.33	536.57
677.67	532.89
678.01	528.99
678.34	525.29
678.68	521.73
679.02	518.09
679.36	514.28
679.70	510.54
680.04	506.88
680.37	503.34
680.71	499.98
681.05	496.77
681.39	493.43
681.73	490.25
682.06	487.19
682.40	484.05
682.74	480.76
683.08	477.48
683.42	474.27
683.75	471.20
684.09	468.10
684.43	465.27
684.77	462.32
685.10	459.44
685.44	456.53
685.78	453.56
686.12	450.71
686.45	447.97
686.79	445.29
687.13	442.74
687.46	440.11
687.80	437.38
688.14	434.51
688.48	431.82
688.81	429.01
689.15	426.35
689.49	423.75
689.82	421.21
690.16	418.55
690.50	416.05
690.83	413.52
691.17	410.96
691.51	408.47
691.84	406.14
692.18	403.87
692.52	401.59
692.85	399.45
693.19	397.32
693.52	395.14
693.86	392.91
694.20	390.69
694.53	388.51
694.87	386.27
695.21	384.14
695.54	381.97
695.88	379.84
696.21	377.62
696.55	375.47
696.88	373.33
697.22	371.39
697.56	369.49
697.89	367.60
698.23	365.84
698.56	364.00
698.90	362.24
699.23	360.32
699.57	358.42
699.90	356.50
700.24	354.65
700.58	352.86
700.91	351.16
701.25	349.57
701.58	347.95
701.92	346.40
702.25	344.75
702.59	343.12
702.92	341.57
703.26	340.03
703.59	338.50
703.93	337.25
704.26	335.75
704.60	334.16
704.93	332.63
705.26	331.09
705.60	329.61
705.93	328.04
706.27	326.69
706.60	325.40
706.94	324.12
707.27	322.71
707.61	321.33
707.94	319.98
708.27	318.45
708.61	317.01
708.94	315.55
709.28	314.27
709.61	312.97
709.94	311.73
710.28	310.45
710.61	309.24
710.95	307.78
711.28	306.70
711.61	305.50
711.95	304.36
712.28	303.13
712.61	301.93
712.95	300.85
713.28	299.77
713.61	298.61
713.95	297.45
714.28	296.42
714.61	295.39
714.95	294.33
715.28	293.30
715.61	292.25
715.95	291.29
716.28	290.29
716.61	289.34
716.95	288.33
717.28	287.38
717.61	286.40
717.94	285.49
718.28	284.42
718.61	283.54
718.94	282.55
719.27	281.73
719.61	280.92
719.94	280.05
720.27	279.09
720.60	278.25
720.94	277.44
721.27	276.66
721.60	275.95
721.93	275.21
722.27	274.56
722.60	273.88
722.93	273.13
723.26	272.42
723.59	271.71
723.93	271.06
724.26	270.41
724.59	269.75
724.92	269.11
725.25	268.57
725.59	267.99
725.92	267.50
726.25	266.95
726.58	266.32
726.91	265.73
727.24	265.19
727.57	264.61
727.91	263.96
728.24	263.42
728.57	262.77
728.90	262.23
729.23	261.58
729.56	261.12
729.89	260.61
730.22	260.06
730.55	259.50
730.89	258.92
731.22	258.39
731.55	257.88
731.88	257.36
732.21	256.80
732.54	256.26
732.87	255.73
733.20	255.21
733.53	254.75
733.86	254.32
734.19	253.81
734.52	253.41
734.85	253.15
735.18	252.68
735.51	252.34
735.84	251.89
736.17	251.50
736.50	250.97
736.83	250.83
737.16	250.43
737.49	250.05
737.82	249.65
738.15	249.28
738.48	248.89
738.81	248.48
739.14	248.06
739.47	247.71
739.80	247.33
740.13	246.97
740.46	246.55
740.79	246.13
741.12	245.75
741.45	245.36
741.78	244.90
742.11	244.61
742.44	244.21
742.77	243.92
743.10	243.59
743.43	243.25
743.75	242.67
744.08	242.60
744.41	242.27
744.74	241.91
745.07	241.52
745.40	241.23
745.73	240.97
746.06	240.69
746.39	240.34
746.71	239.97
747.04	239.60
747.37	239.27
747.70	238.98
748.03	238.70
748.36	238.42
748.68	238.06
749.01	237.70
749.34	237.41
749.67	237.08
750.00	236.81
750.33	236.70
750.65	236.42
750.98	235.88
751.31	235.62
751.64	235.38
751.97	235.27
752.29	235.02
752.62	234.68
752.95	234.38
753.28	234.15
753.60	233.92
753.93	233.76
754.26	233.55
754.59	233.27
754.91	233.01
755.24	232.76
755.57	232.51
755.90	232.26
756.22	232.01
756.55	231.78
756.88	231.52
757.20	231.13
757.53	230.87
757.86	230.67
758.19	230.46
758.51	230.28
758.84	229.96
759.17	229.72
759.49	229.57
759.82	229.47
760.15	229.27
760.47	229.09
760.80	228.82
761.13	228.66
761.45	228.45
761.78	228.26
762.11	228.09
762.43	227.93
762.76	227.75
763.08	227.61
763.41	227.45
763.74	227.29
764.06	227.14
764.39	226.97
764.71	226.82
765.04	226.65
765.37	226.45
765.69	226.30
766.02	226.17
766.34	226.02
766.67	225.85
767.00	225.78
767.32	225.78
767.65	225.76
767.97	225.62
768.30	225.56
768.62	225.46
768.95	225.28
769.27	225.15
769.60	225.07
769.92	224.90
770.25	224.76
770.57	224.58
770.90	224.47
771.22	224.35
771.55	224.24
771.87	224.17
772.20	224.07
772.52	224.12
772.85	224.25
773.17	224.09
773.50	223.96
773.82	223.79
774.15	223.56
774.47	223.33
774.80	223.20
775.12	223.06
775.45	222.97
775.77	222.93
776.09	222.88
776.42	222.78
776.74	222.77
777.07	222.66
777.39	222.59
777.72	222.50
778.04	222.46
778.36	222.36
778.69	222.26
779.01	222.17
779.33	221.93
779.66	221.64
779.98	221.59
780.31	221.53
780.63	221.53
780.95	221.49
781.28	221.43
781.60	221.36
781.92	221.28
782.25	221.22
782.57	221.13
782.89	221.01
783.22	220.95
783.54	220.83
783.86	220.79
784.19	220.73
784.51	220.71
784.83	220.61
785.16	220.53
785.48	220.44
785.80	220.42
786.12	220.34
786.45	220.28
786.77	220.21
787.09	220.12
787.42	219.98
787.74	219.93
788.06	219.86
788.38	219.81
788.71	219.77
789.03	219.74
789.35	219.71
789.67	219.63
789.99	219.58
790.32	219.53
790.64	219.48
790.96	219.59
791.28	219.50
791.61	219.41
791.93	219.39
792.25	219.37
792.57	219.46
792.89	219.36
793.21	219.33
793.54	219.28
793.86	219.22
794.18	219.18
794.50	219.10
794.82	219.08
795.14	219.04
795.47	219.02
795.79	218.94
796.11	218.85
796.43	218.81
796.75	218.74
797.07	218.66
797.39	218.60
797.71	218.44
798.04	218.36
798.36	218.35
798.68	218.31
799.00	218.28
799.32	218.11
799.64	218.15
799.96	218.09
800.28	218.08
800.60	218.04
800.92	218.00
801.24	217.96
801.56	217.93
801.89	217.89
802.21	217.86
802.53	217.82
802.85	217.85
803.17	217.91
803.49	217.87
803.81	217.84
804.13	217.79
804.45	217.71
804.77	217.74
805.09	217.71
805.41	217.66
805.73	217.57
806.05	217.51
806.37	217.43
806.69	217.40
807.01	217.37
807.33	217.36
807.65	217.27
807.97	217.35
808.28	217.32
808.60	217.31
808.92	217.24
809.24	217.33
809.56	217.23
809.88	217.15
810.20	217.13
810.52	217.15
810.84	217.12
811.16	217.08
811.48	217.04
811.80	217.07
812.12	217.02
812.43	217.07
812.75	217.05
813.07	217.02
813.39	217.02
813.71	216.94
814.03	216.89
814.35	216.88
814.67	216.74
814.98	216.71
815.30	216.65
815.62	216.60
815.94	216.45
816.26	216.47
816.58	216.39
816.89	216.39
817.21	216.32
817.53	216.31
817.85	216.29
818.17	216.26
818.48	216.17
818.80	216.19
819.12	216.13
819.44	216.06
819.76	215.99
820.07	215.97
820.39	215.95
820.71	215.95
821.03	215.95
821.34	215.93
821.66	215.91
821.98	215.94
822.30	215.92
822.61	216.01
822.93	215.94
823.25	215.89
823.57	215.85
823.88	215.87
824.20	215.91
824.52	215.92
824.83	215.94
825.15	215.92
825.47	215.90
825.79	215.91
826.10	215.90
826.42	215.91
826.74	215.92
827.05	215.93
827.37	215.92
827.69	215.91
828.00	215.89
828.32	215.90
828.64	215.85
828.95	215.93
829.27	215.88
829.58	215.89
829.90	215.95
830.22	215.96
830.53	215.88
830.85	215.79
831.17	215.76
831.48	215.74
831.80	215.70
832.11	215.72
832.43	215.66
832.75	215.68
833.06	215.77
833.38	215.66
833.69	215.61
834.01	215.59
834.32	215.57
834.64	215.57
834.96	215.55
835.27	215.53
835.59	215.46
835.90	215.43
836.22	215.41
836.53	215.37
836.85	215.31
837.16	215.51
837.48	215.54
837.79	215.59
838.11	215.58
838.42	215.58
838.74	215.58
839.05	215.57
839.37	215.54
839.68	215.43
840.00	215.45
840.31	215.49
840.63	215.50
840.94	215.49
841.26	215.45
841.57	215.43
841.88	215.41
842.20	215.38
842.51	215.33
842.83	215.33
843.14	215.52
843.46	215.54
843.77	215.40
844.08	215.33
844.40	215.26
844.71	215.20
845.03	215.18
845.34	215.13
845.65	215.13
845.97	215.13
846.28	215.13
846.60	215.15
846.91	215.11
847.22	215.06
847.54	215.11
847.85	215.12
848.16	215.10
848.48	215.10
848.79	215.18
849.10	215.24
849.42	215.24
849.73	215.02
850.04	214.99
850.36	214.96
850.67	215.02
850.98	215.03
851.30	215.06
851.61	215.06
851.92	215.06
852.23	215.12
852.55	215.15
852.86	215.17
853.17	215.18
853.49	215.23
853.80	215.26
854.11	215.25
854.42	215.27
854.74	215.24
855.05	215.26
855.36	215.14
855.67	215.13
855.99	215.11
856.30	215.37
856.61	215.38
856.92	215.35
857.23	215.33
857.55	215.32
857.86	215.30
858.17	215.33
858.48	215.31
858.79	215.26
859.11	215.23
859.42	215.22
859.73	215.18
860.04	215.16
860.35	215.10
860.66	215.05
860.98	215.02
861.29	215.06
861.60	215.04
861.91	215.10
862.22	215.06
862.53	215.03
862.84	214.75
863.16	214.84
863.47	214.79
863.78	214.81
864.09	214.79
864.40	214.81
864.71	214.81
865.02	214.83
865.33	214.81
865.64	214.81
865.95	214.79
866.27	214.96
866.58	214.93
866.89	214.96
867.20	214.93
867.51	214.91
867.82	214.90
868.13	214.96
868.44	214.89
868.75	214.92
869.06	214.92
869.37	214.97
869.68	214.86
869.99	214.91
870.30	214.88
870.61	214.91
870.92	214.87
871.23	214.85
871.54	214.84
871.85	214.90
872.16	214.92
872.47	214.88
872.78	214.71
873.09	214.72
873.40	214.72
873.71	214.77
874.02	214.78
874.33	214.79
874.64	214.73
874.95	214.82
875.26	214.80
875.56	214.82
875.87	214.79
876.18	214.79
876.49	215.00
876.80	215.00
877.11	214.97
877.42	214.99
877.73	214.98
878.04	214.99
878.35	214.97
878.66	214.94
878.96	214.96
879.27	214.96
879.58	214.96
879.89	214.91
880.20	214.94
880.51	214.93
880.82	214.90
881.12	214.91
881.43	214.84
881.74	214.82
882.05	214.78
882.36	214.81
882.67	214.83
882.97	214.59
883.28	214.56
883.59	214.53
883.90	214.55
884.21	214.58
884.51	214.56
884.82	214.55
885.13	214.56
885.44	214.57
885.74	214.57
886.05	214.56
886.36	214.59
886.67	214.54
886.98	214.64
887.28	214.68
887.59	214.68
887.90	214.69
888.20	214.67
888.51	214.73
888.82	214.72
889.13	214.72
889.43	214.91
889.74	214.90
890.05	214.92
890.35	214.90
890.66	214.84
890.97	214.81
891.28	214.79
891.58	214.77
891.89	214.76
892.20	214.75
892.50	214.76
892.81	214.76
893.12	214.75
893.42	214.67
893.73	214.63
894.04	214.60
894.34	214.61
894.65	214.60
894.95	214.57
895.26	214.55
895.57	214.61
895.87	214.40
896.18	214.45
896.48	214.46
896.79	214.44
897.10	214.48
897.40	214.50
897.71	214.50
898.01	214.50
898.32	214.49
898.63	214.49
898.93	214.51
899.24	214.48
899.54	214.43
899.85	214.41
900.15	214.43
900.46	214.45
900.76	214.45
901.07	214.46
901.38	214.44
901.68	214.48
901.99	214.38
902.29	214.42
902.60	214.37
902.90	214.36
903.21	214.36
903.51	214.32
903.82	214.37
904.12	214.36
904.43	214.35
904.73	214.34
905.03	214.35
905.34	214.51
905.64	214.49
905.95	214.54
906.25	214.56
906.56	214.55
906.86	214.54
907.17	214.50
907.47	214.53
907.77	214.52
908.08	214.47
908.38	214.49
908.69	214.50
908.99	214.55
909.30	214.56
909.60	214.54
909.90	214.58
910.21	214.50
910.51	214.50
910.81	214.53
911.12	214.55
911.42	214.56
911.73	214.36
912.03	214.41
912.33	214.46
912.64	214.43
912.94	214.42
913.24	214.40
913.55	214.39
913.85	214.35
914.15	214.37
914.46	214.40
914.76	214.36
915.06	214.37
915.37	214.34
915.67	214.30
915.97	214.31
916.27	214.25
916.58	214.30
916.88	214.25
917.18	214.22
917.49	214.35
917.79	214.32
918.09	214.38
918.39	214.42
918.70	214.36
919.00	214.39
919.30	214.49
919.60	214.50
919.91	214.54
920.21	214.58
920.51	214.54
920.81	214.53
921.12	214.58
921.42	214.57
921.72	214.59
922.02	214.60
922.32	214.62
922.63	214.65
922.93	214.73
923.23	214.77
923.53	214.76
923.83	214.62
924.13	214.64
924.44	214.60
924.74	214.65
925.04	214.68
925.34	214.65
925.64	214.54
925.94	214.54
926.24	214.60
926.55	214.58
926.85	214.63
927.15	214.63
927.45	214.61
927.75	214.63
928.05	214.62
928.35	214.60
928.65	214.61
928.95	214.61
929.26	214.55
929.56	214.59
929.86	214.64
930.16	214.61
930.46	214.58
930.76	214.61
931.06	214.47
931.36	214.45
931.66	214.49
931.96	214.53
932.26	214.52
932.56	214.46
932.86	214.47
933.16	214.44
933.46	214.40
933.76	214.38
934.06	214.40
934.36	214.47
934.66	214.49
934.96	214.50
935.26	214.51
935.56	214.52
935.86	214.48
936.16	214.44
936.46	214.44
936.76	214.46
937.06	214.43
937.36	214.47
937.66	214.46
937.96	214.41
938.26	214.39
938.56	214.38
938.86	214.38
939.16	214.45
939.46	214.49
939.76	214.50
940.06	214.50
940.35	214.43
940.65	214.30
940.95	214.31
941.25	214.24
941.55	214.24
941.85	214.23
942.15	214.25
942.45	214.31
942.75	214.32
943.04	214.33
943.34	214.35
943.64	214.32
943.94	214.29
944.24	214.34
944.54	214.33
944.84	214.33
945.13	214.28
945.43	214.22
945.73	214.22
946.03	214.22
946.33	214.22
946.62	214.24
946.92	214.25
947.22	214.25
947.52	214.28
947.82	214.27
948.11	214.22
948.41	214.17
948.71	214.10
949.01	214.10
949.31	214.08
949.60	214.09
949.90	214.12
950.20	214.09
950.50	214.09
950.79	214.10
951.09	214.14
951.39	214.15
951.69	214.15
951.98	214.18
952.28	214.20
952.58	214.16
952.87	214.15
953.17	214.19
953.47	214.16
953.76	214.19
954.06	214.15
954.36	214.15
954.66	214.15
954.95	214.23
955.25	214.23
955.55	214.25
955.84	214.20
956.14	214.21
956.44	214.24
956.73	214.22
957.03	214.19
957.32	214.17
957.62	214.15
957.92	214.18
958.21	214.12
958.51	214.38
958.81	214.42
959.10	214.45
959.40	214.51
959.69	214.54
959.99	214.53
960.29	214.55
960.58	214.52
960.88	214.61
961.17	214.56
961.47	214.60
961.76	214.57
962.06	214.61
962.36	214.56
962.65	214.58
962.95	214.55
963.24	214.53
963.54	214.54
963.83	214.56
964.13	214.52
964.42	214.46
964.72	214.28
965.01	214.29
965.31	214.29
965.60	214.22
965.90	214.36
966.19	214.28
966.49	214.29
966.78	214.30
967.08	214.29
967.37	214.34
967.67	214.31
967.96	214.33
968.26	214.33
968.55	214.42
968.85	214.40
969.14	214.39
969.43	214.39
969.73	214.36
970.02	214.37
970.32	214.34
970.61	214.33
970.91	214.30
971.20	214.25
971.49	214.25
971.79	214.26
972.08	214.10
972.38	214.14
972.67	214.11
972.96	214.15
973.26	214.10
973.55	214.13
973.85	214.11
974.14	214.10
974.43	214.09
974.73	214.02
975.02	214.01
975.31	214.02
975.61	214.02
975.90	214.02
976.19	214.01
976.49	214.06
976.78	214.10
977.07	214.07
977.37	214.05
977.66	214.04
977.95	214.02
978.24	214.04
978.54	214.08
978.83	214.08
979.12	214.05
979.42	214.03
979.71	214.00
980.00	214.00
980.29	214.01
980.59	214.00
980.88	214.02
981.17	214.02
981.46	214.05
981.76	214.07
982.05	214.15
982.34	214.14
982.63	214.11
982.93	214.12
983.22	214.16
983.51	214.19
983.80	214.24
984.09	214.23
984.39	214.20
984.68	214.15
984.97	214.19
985.26	214.19
985.55	214.25
985.85	214.17
986.14	214.22
986.43	214.22
986.72	214.21
987.01	214.17
987.30	214.21
987.59	214.16
987.89	214.16
988.18	214.09
988.47	214.11
988.76	214.12
989.05	214.13
989.34	214.14
989.63	214.20
989.92	214.13
990.22	214.14
990.51	214.11
990.80	214.14
991.09	214.11
991.38	214.14
991.67	214.11
991.96	214.11
992.25	214.07
992.54	214.05
992.83	214.04
993.12	214.05
993.41	214.04
993.70	214.12
993.99	214.14
994.28	214.15
994.58	214.17
994.87	214.10
995.16	214.08
995.45	214.02
995.74	213.94
996.03	214.02
996.32	214.05
996.61	214.11
996.90	214.09
997.19	214.09
997.48	214.10
997.77	214.11
998.06	214.11
998.34	214.08
998.63	214.10
998.92	214.12
999.21	214.14
999.50	214.15
999.79	214.12
1000.08	214.14
1000.37	214.13
1000.66	214.09
1000.95	214.20
1001.24	214.20
1001.53	214.27
1001.82	214.26
1002.11	214.16
1002.40	214.18
1002.68	214.22
1002.97	214.37
1003.26	214.36
1003.55	214.32
1003.84	214.31
1004.13	214.42
1004.42	214.41
1004.71	214.39
1004.99	214.39
1005.28	214.44
1005.57	214.43
1005.86	214.42
1006.15	214.40
1006.44	214.39
1006.72	214.41
1007.01	214.33
1007.30	214.36
1007.59	214.33
1007.88	214.35
1008.17	214.36
1008.45	214.33
1008.74	214.25
1009.03	214.12
1009.32	214.15
1009.60	214.17
1009.89	214.17
1010.18	214.08
1010.47	214.09
1010.76	214.08
1011.04	214.07
1011.33	214.08
1011.62	214.11
1011.91	214.09
1012.19	214.10
1012.48	214.08
1012.77	214.09
1013.05	214.21
1013.34	214.19
1013.63	214.15
1013.92	214.15
1014.20	214.16
1014.49	214.17
1014.78	214.19
1015.06	214.14
1015.35	214.10
1015.64	214.10
1015.92	214.10
1016.21	214.10
1016.50	214.11
1016.78	214.13
1017.07	214.16
1017.36	214.09
1017.64	214.03
1017.93	214.03
1018.22	214.02
1018.50	214.04
1018.79	214.03
1019.08	213.92
1019.36	213.96
1019.65	213.95
1019.93	214.00
1020.22	214.04
1020.51	214.13
1020.79	214.10
1021.08	213.96
1021.36	213.98
1021.65	214.10
1021.94	213.78
1022.22	214.56
1022.51	213.53
1022.79	214.97
1023.08	214.44
1023.36	216.11
1023.65	213.54
>>>>>End Processed Spectral Data<<<<<
