SpectraSuite Data File
++++++++++++++++++++++++++++++++++++
Date: Tue Jan 29 16:05:28 EST 2013
User: group
Dark Spectrum Present: No
Reference Spectrum Present: No
Number of Sampled Component Spectra: 1
Spectrometers: USB2E7196
Integration Time (usec): 65000 (USB2E7196)
Spectra Averaged: 100 (USB2E7196)
Boxcar Smoothing: 10 (USB2E7196)
Correct for Electrical Dark: No (USB2E7196)
Strobe/Lamp Enabled: No (USB2E7196)
Correct for Detector Non-linearity: No (USB2E7196)
Correct for Stray Light: No (USB2E7196)
Number of Pixels in Processed Spectrum: 2048
>>>>>Begin Processed Spectral Data<<<<<
339.09	0.00
339.48	202.13
339.86	204.37
340.24	205.55
340.63	205.74
341.01	210.84
341.39	209.81
341.78	211.41
342.16	212.59
342.54	212.53
342.93	201.83
343.31	212.00
343.69	212.57
344.07	213.03
344.46	213.45
344.84	213.92
345.22	214.14
345.60	214.40
345.99	214.59
346.37	214.71
346.75	214.84
347.13	214.92
347.52	214.99
347.90	215.10
348.28	215.14
348.66	215.22
349.05	215.17
349.43	215.26
349.81	215.30
350.19	215.33
350.57	215.40
350.96	215.48
351.34	215.61
351.72	215.70
352.10	215.81
352.48	215.89
352.87	215.94
353.25	215.97
353.63	216.01
354.01	216.06
354.39	216.14
354.77	216.21
355.15	216.34
355.54	216.35
355.92	216.35
356.30	216.41
356.68	216.59
357.06	216.68
357.44	216.67
357.82	216.72
358.20	216.81
358.58	216.86
358.97	216.96
359.35	217.03
359.73	217.11
360.11	217.14
360.49	217.19
360.87	217.22
361.25	217.31
361.63	217.43
362.01	217.48
362.39	217.49
362.77	217.54
363.15	217.52
363.53	217.56
363.91	217.62
364.29	217.64
364.67	217.47
365.05	217.48
365.43	217.53
365.81	217.57
366.19	217.64
366.57	217.72
366.95	217.67
367.33	217.65
367.71	217.63
368.09	217.69
368.47	217.69
368.85	217.70
369.23	217.71
369.61	217.63
369.99	217.68
370.37	217.67
370.75	217.73
371.13	217.70
371.51	217.65
371.89	217.67
372.27	217.67
372.65	217.65
373.03	217.61
373.41	217.59
373.78	217.55
374.16	217.44
374.54	217.37
374.92	217.32
375.30	217.28
375.68	217.20
376.06	217.17
376.44	217.10
376.82	217.09
377.19	217.02
377.57	216.98
377.95	216.84
378.33	216.82
378.71	216.69
379.09	216.69
379.47	216.68
379.84	216.58
380.22	216.51
380.60	216.45
380.98	216.40
381.36	216.38
381.73	216.30
382.11	216.29
382.49	216.26
382.87	216.20
383.25	216.16
383.62	216.40
384.00	216.31
384.38	216.33
384.76	216.33
385.13	216.39
385.51	216.35
385.89	216.31
386.27	216.30
386.64	216.28
387.02	216.19
387.40	216.14
387.78	216.12
388.15	216.11
388.53	216.09
388.91	216.09
389.29	216.03
389.66	216.06
390.04	216.00
390.42	215.99
390.79	216.02
391.17	216.01
391.55	215.77
391.92	215.76
392.30	215.78
392.68	215.70
393.05	215.66
393.43	215.67
393.81	215.72
394.18	215.71
394.56	215.72
394.94	215.80
395.31	215.80
395.69	215.87
396.06	215.91
396.44	215.94
396.82	215.92
397.19	216.07
397.57	216.04
397.95	216.09
398.32	216.07
398.70	216.08
399.07	216.17
399.45	216.21
399.82	216.27
400.20	216.30
400.58	216.35
400.95	216.33
401.33	216.40
401.70	216.60
402.08	216.66
402.45	216.72
402.83	216.85
403.20	217.00
403.58	217.07
403.95	217.21
404.33	217.37
404.71	217.53
405.08	217.78
405.46	217.97
405.83	218.19
406.21	218.38
406.58	218.63
406.96	218.85
407.33	219.11
407.70	219.41
408.08	219.84
408.45	220.18
408.83	220.59
409.20	220.94
409.58	221.22
409.95	221.69
410.33	222.19
410.70	222.59
411.08	223.11
411.45	223.64
411.82	224.20
412.20	224.82
412.57	225.64
412.95	226.20
413.32	226.97
413.69	227.76
414.07	228.64
414.44	229.59
414.82	230.57
415.19	231.71
415.56	232.86
415.94	234.06
416.31	235.42
416.68	236.73
417.06	238.28
417.43	239.78
417.81	241.45
418.18	243.18
418.55	245.06
418.93	246.99
419.30	249.06
419.67	251.21
420.04	253.44
420.42	255.70
420.79	258.42
421.16	261.11
421.54	263.91
421.91	266.80
422.28	269.79
422.66	272.95
423.03	276.08
423.40	279.29
423.77	282.73
424.15	286.27
424.52	289.99
424.89	294.01
425.26	297.91
425.64	301.66
426.01	305.77
426.38	310.05
426.75	314.44
427.13	319.03
427.50	323.82
427.87	328.87
428.24	333.90
428.61	338.74
428.99	344.17
429.36	349.95
429.73	355.63
430.10	361.31
430.47	367.19
430.85	373.25
431.22	379.72
431.59	386.56
431.96	393.14
432.33	400.42
432.70	407.42
433.08	415.68
433.45	423.47
433.82	431.19
434.19	439.84
434.56	448.25
434.93	456.22
435.30	464.25
435.68	473.02
436.05	481.68
436.42	490.23
436.79	498.00
437.16	506.52
437.53	515.47
437.90	524.29
438.27	532.90
438.64	541.80
439.01	550.04
439.38	557.33
439.75	564.41
440.13	572.53
440.50	580.19
440.87	586.40
441.24	592.83
441.61	599.95
441.98	605.10
442.35	611.20
442.72	617.30
443.09	623.09
443.46	626.72
443.83	629.12
444.20	631.24
444.57	634.21
444.94	635.51
445.31	636.87
445.68	638.19
446.05	638.82
446.42	638.05
446.79	637.12
447.16	636.12
447.53	635.39
447.90	632.12
448.27	628.97
448.64	624.37
449.01	621.09
449.37	615.29
449.74	609.78
450.11	603.07
450.48	595.95
450.85	588.76
451.22	582.50
451.59	576.59
451.96	570.90
452.33	563.34
452.70	556.51
453.07	548.33
453.43	540.04
453.80	532.05
454.17	524.39
454.54	517.08
454.91	509.17
455.28	501.50
455.65	494.39
456.02	487.21
456.38	481.20
456.75	473.70
457.12	467.47
457.49	461.29
457.86	455.45
458.23	450.31
458.59	444.61
458.96	438.83
459.33	433.78
459.70	428.70
460.07	424.66
460.43	420.00
460.80	415.60
461.17	411.75
461.54	407.67
461.91	403.77
462.27	399.85
462.64	396.54
463.01	392.88
463.38	389.35
463.74	385.73
464.11	382.62
464.48	379.86
464.85	376.87
465.21	374.47
465.58	371.87
465.95	368.82
466.32	366.31
466.68	363.80
467.05	361.31
467.42	358.84
467.78	356.28
468.15	353.86
468.52	352.07
468.88	349.72
469.25	347.60
469.62	345.91
469.98	344.07
470.35	342.37
470.72	340.73
471.08	338.95
471.45	337.58
471.82	336.11
472.18	334.55
472.55	333.41
472.92	332.08
473.28	330.95
473.65	329.86
474.02	328.84
474.38	328.05
474.75	327.32
475.11	326.58
475.48	326.03
475.85	325.56
476.21	325.06
476.58	324.69
476.94	324.50
477.31	324.22
477.67	323.97
478.04	323.85
478.41	323.85
478.77	324.04
479.14	323.99
479.50	324.06
479.87	324.35
480.23	324.69
480.60	324.95
480.96	325.24
481.33	325.86
481.69	326.45
482.06	326.97
482.42	327.50
482.79	328.07
483.15	328.87
483.52	329.79
483.88	330.74
484.25	331.72
484.61	332.75
484.98	333.81
485.34	335.15
485.71	336.47
486.07	337.88
486.44	339.23
486.80	340.82
487.17	342.53
487.53	344.37
487.90	346.19
488.26	348.25
488.62	350.42
488.99	352.48
489.35	354.64
489.72	357.00
490.08	359.50
490.44	362.09
490.81	364.73
491.17	367.44
491.54	370.40
491.90	373.45
492.26	376.65
492.63	380.05
492.99	383.56
493.36	387.24
493.72	391.11
494.08	395.09
494.45	399.33
494.81	403.71
495.17	408.15
495.54	412.84
495.90	417.66
496.26	422.55
496.63	427.68
496.99	433.05
497.35	438.58
497.72	444.39
498.08	450.32
498.44	456.42
498.80	462.81
499.17	469.26
499.53	475.90
499.89	482.82
500.26	489.77
500.62	496.79
500.98	504.20
501.34	511.68
501.71	519.36
502.07	527.09
502.43	535.04
502.79	543.07
503.16	551.48
503.52	560.01
503.88	568.65
504.24	577.63
504.60	586.62
504.97	595.76
505.33	605.01
505.69	614.78
506.05	624.64
506.41	634.51
506.78	644.56
507.14	654.89
507.50	665.27
507.86	675.90
508.22	686.64
508.59	697.25
508.95	708.22
509.31	719.57
509.67	730.96
510.03	742.32
510.39	754.11
510.75	765.82
511.12	777.69
511.48	789.81
511.84	801.94
512.20	814.19
512.56	826.81
512.92	839.55
513.28	852.11
513.64	864.70
514.00	877.42
514.37	890.30
514.73	903.20
515.09	916.03
515.45	928.78
515.81	941.71
516.17	954.90
516.53	968.11
516.89	981.03
517.25	994.13
517.61	1007.55
517.97	1020.66
518.33	1033.68
518.69	1047.07
519.05	1060.54
519.41	1073.99
519.77	1087.68
520.13	1100.74
520.49	1113.63
520.85	1126.83
521.21	1139.92
521.57	1153.36
521.93	1166.18
522.29	1179.77
522.65	1193.25
523.01	1206.58
523.37	1219.56
523.73	1232.67
524.09	1245.48
524.45	1258.63
524.81	1271.75
525.17	1284.73
525.53	1297.83
525.89	1310.90
526.25	1323.67
526.61	1336.32
526.97	1349.22
527.33	1361.84
527.68	1375.05
528.04	1388.31
528.40	1401.17
528.76	1414.32
529.12	1426.94
529.48	1439.99
529.84	1451.90
530.20	1464.32
530.56	1476.82
530.91	1489.75
531.27	1502.33
531.63	1514.87
531.99	1527.23
532.35	1539.24
532.71	1551.38
533.07	1563.75
533.42	1575.69
533.78	1587.55
534.14	1599.30
534.50	1610.16
534.86	1621.55
535.21	1632.16
535.57	1643.24
535.93	1654.27
536.29	1665.07
536.65	1676.19
537.00	1686.91
537.36	1698.03
537.72	1708.73
538.08	1719.66
538.44	1730.19
538.79	1740.90
539.15	1751.37
539.51	1761.82
539.87	1772.84
540.22	1783.36
540.58	1794.00
540.94	1804.51
541.29	1814.42
541.65	1823.82
542.01	1834.12
542.37	1843.88
542.72	1853.79
543.08	1863.44
543.44	1873.48
543.79	1882.54
544.15	1891.72
544.51	1901.34
544.87	1910.94
545.22	1919.78
545.58	1928.44
545.94	1937.26
546.29	1945.50
546.65	1953.60
547.01	1961.61
547.36	1969.10
547.72	1976.60
548.07	1984.14
548.43	1991.61
548.79	1999.33
549.14	2007.40
549.50	2015.54
549.86	2023.02
550.21	2030.07
550.57	2037.39
550.92	2043.94
551.28	2051.21
551.64	2058.38
551.99	2065.64
552.35	2072.54
552.70	2079.34
553.06	2085.86
553.41	2091.85
553.77	2098.22
554.13	2104.38
554.48	2111.27
554.84	2118.05
555.19	2124.48
555.55	2130.78
555.90	2137.00
556.26	2143.65
556.61	2149.42
556.97	2154.14
557.32	2159.99
557.68	2166.34
558.03	2172.03
558.39	2177.27
558.74	2183.22
559.10	2188.69
559.45	2194.19
559.81	2199.71
560.16	2205.03
560.52	2210.97
560.87	2217.30
561.23	2223.22
561.58	2230.01
561.94	2235.16
562.29	2240.04
562.64	2246.21
563.00	2251.69
563.35	2257.35
563.71	2263.11
564.06	2268.78
564.42	2274.85
564.77	2280.05
565.12	2285.30
565.48	2290.53
565.83	2296.19
566.19	2301.64
566.54	2307.12
566.89	2311.79
567.25	2316.46
567.60	2322.44
567.96	2327.54
568.31	2332.22
568.66	2336.54
569.02	2340.46
569.37	2344.29
569.72	2348.80
570.08	2352.30
570.43	2355.62
570.78	2358.70
571.14	2361.43
571.49	2364.70
571.84	2368.33
572.20	2371.21
572.55	2374.31
572.90	2376.58
573.26	2379.55
573.61	2382.13
573.96	2384.23
574.31	2386.43
574.67	2388.41
575.02	2389.31
575.37	2390.92
575.72	2391.90
576.08	2393.46
576.43	2393.75
576.78	2394.81
577.13	2396.66
577.49	2397.88
577.84	2399.19
578.19	2400.79
578.54	2401.62
578.90	2402.69
579.25	2402.70
579.60	2402.96
579.95	2402.50
580.30	2403.16
580.66	2402.64
581.01	2401.12
581.36	2399.26
581.71	2398.10
582.06	2397.33
582.42	2396.72
582.77	2394.91
583.12	2393.44
583.47	2392.47
583.82	2392.29
584.17	2391.02
584.53	2389.09
584.88	2387.39
585.23	2385.59
585.58	2383.48
585.93	2381.36
586.28	2379.40
586.63	2377.28
586.98	2375.19
587.34	2373.48
587.69	2371.00
588.04	2369.25
588.39	2368.10
588.74	2365.64
589.09	2363.22
589.44	2360.15
589.79	2357.78
590.14	2356.02
590.49	2353.37
590.84	2349.68
591.19	2346.70
591.54	2343.54
591.89	2339.52
592.25	2336.37
592.60	2332.48
592.95	2328.46
593.30	2324.61
593.65	2320.14
594.00	2316.01
594.35	2313.08
594.70	2308.49
595.05	2304.14
595.40	2298.79
595.75	2293.17
596.10	2289.73
596.45	2285.00
596.80	2280.66
597.15	2275.57
597.50	2269.53
597.85	2264.62
598.19	2259.52
598.54	2253.79
598.89	2248.78
599.24	2244.43
599.59	2238.36
599.94	2232.72
600.29	2227.16
600.64	2221.32
600.99	2214.94
601.34	2209.52
601.69	2202.68
602.04	2196.53
602.39	2190.00
602.74	2184.02
603.08	2178.48
603.43	2172.05
603.78	2165.27
604.13	2158.17
604.48	2151.12
604.83	2145.17
605.18	2139.02
605.53	2132.19
605.87	2125.22
606.22	2118.52
606.57	2110.69
606.92	2102.97
607.27	2096.05
607.62	2089.42
607.96	2082.45
608.31	2075.94
608.66	2068.22
609.01	2060.68
609.36	2053.64
609.70	2046.03
610.05	2038.44
610.40	2030.44
610.75	2022.17
611.10	2014.60
611.44	2006.01
611.79	1997.19
612.14	1987.20
612.49	1976.76
612.83	1967.65
613.18	1958.47
613.53	1949.09
613.88	1939.44
614.22	1930.82
614.57	1920.93
614.92	1910.43
615.27	1900.40
615.61	1890.49
615.96	1880.80
616.31	1871.24
616.65	1861.79
617.00	1852.00
617.35	1842.35
617.70	1832.57
618.04	1822.41
618.39	1812.00
618.74	1802.26
619.08	1792.87
619.43	1784.25
619.78	1775.90
620.12	1767.05
620.47	1757.30
620.82	1746.99
621.16	1737.32
621.51	1727.35
621.85	1717.43
622.20	1706.88
622.55	1696.22
622.89	1686.32
623.24	1676.57
623.59	1666.80
623.93	1656.71
624.28	1646.95
624.62	1636.68
624.97	1626.34
625.32	1616.86
625.66	1608.14
626.01	1599.22
626.35	1589.63
626.70	1579.45
627.04	1569.41
627.39	1559.42
627.73	1550.19
628.08	1541.25
628.43	1531.71
628.77	1522.50
629.12	1513.68
629.46	1505.82
629.81	1497.46
630.15	1487.77
630.50	1477.94
630.84	1467.54
631.19	1457.52
631.53	1448.09
631.88	1437.96
632.22	1427.93
632.57	1418.35
632.91	1408.13
633.26	1398.34
633.60	1388.82
633.95	1379.51
634.29	1370.10
634.64	1360.75
634.98	1350.88
635.32	1341.57
635.67	1332.98
636.01	1323.75
636.36	1313.93
636.70	1304.43
637.05	1295.07
637.39	1286.15
637.73	1277.53
638.08	1269.89
638.42	1261.66
638.77	1252.96
639.11	1244.68
639.45	1236.79
639.80	1228.19
640.14	1219.58
640.49	1210.69
640.83	1201.91
641.17	1193.80
641.52	1185.54
641.86	1176.83
642.20	1169.06
642.55	1160.47
642.89	1151.51
643.23	1142.73
643.58	1134.66
643.92	1125.61
644.26	1116.97
644.61	1108.47
644.95	1099.64
645.29	1090.33
645.64	1081.19
645.98	1072.86
646.32	1064.90
646.66	1056.45
647.01	1048.06
647.35	1039.96
647.69	1031.52
648.04	1023.23
648.38	1014.32
648.72	1005.55
649.06	997.18
649.41	988.83
649.75	980.82
650.09	972.99
650.43	964.97
650.78	956.76
651.12	949.11
651.46	941.78
651.80	934.60
652.14	927.28
652.49	919.83
652.83	912.48
653.17	904.69
653.51	897.11
653.85	889.83
654.20	882.69
654.54	874.98
654.88	867.92
655.22	860.76
655.56	853.84
655.90	847.10
656.25	840.47
656.59	833.61
656.93	826.68
657.27	819.63
657.61	812.78
657.95	806.73
658.29	800.83
658.64	794.57
658.98	788.13
659.32	781.65
659.66	775.46
660.00	769.27
660.34	763.33
660.68	757.35
661.02	751.19
661.36	745.33
661.70	739.71
662.05	734.04
662.39	728.54
662.73	723.23
663.07	717.89
663.41	712.36
663.75	706.70
664.09	701.13
664.43	695.78
664.77	690.48
665.11	684.64
665.45	678.76
665.79	673.04
666.13	667.36
666.47	661.95
666.81	656.59
667.15	651.30
667.49	646.13
667.83	640.88
668.17	635.65
668.51	630.59
668.85	625.74
669.19	620.86
669.53	615.90
669.87	610.87
670.21	606.17
670.55	601.46
670.89	597.17
671.23	592.94
671.57	588.62
671.91	584.37
672.25	580.28
672.58	576.24
672.92	572.24
673.26	568.44
673.60	564.65
673.94	560.88
674.28	557.24
674.62	553.54
674.96	549.81
675.30	546.39
675.64	542.73
675.97	539.18
676.31	535.67
676.65	532.09
676.99	528.66
677.33	524.88
677.67	521.28
678.01	517.44
678.34	513.78
678.68	510.29
679.02	506.74
679.36	503.08
679.70	499.53
680.04	496.04
680.37	492.61
680.71	489.32
681.05	486.19
681.39	483.05
681.73	479.98
682.06	477.01
682.40	473.91
682.74	470.78
683.08	467.65
683.42	464.53
683.75	461.68
684.09	458.70
684.43	455.92
684.77	453.03
685.10	450.24
685.44	447.32
685.78	444.46
686.12	441.77
686.45	439.17
686.79	436.52
687.13	434.03
687.46	431.44
687.80	428.78
688.14	425.99
688.48	423.39
688.81	420.71
689.15	418.25
689.49	415.61
689.82	413.17
690.16	410.58
690.50	408.17
690.83	405.69
691.17	403.26
691.51	400.82
691.84	398.65
692.18	396.53
692.52	394.40
692.85	392.31
693.19	390.16
693.52	388.03
693.86	385.86
694.20	383.75
694.53	381.65
694.87	379.49
695.21	377.39
695.54	375.27
695.88	373.15
696.21	370.95
696.55	368.93
696.88	366.91
697.22	365.04
697.56	363.16
697.89	361.32
698.23	359.61
698.56	357.91
698.90	356.15
699.23	354.21
699.57	352.38
699.90	350.58
700.24	348.87
700.58	347.14
700.91	345.59
701.25	344.02
701.58	342.46
701.92	340.93
702.25	339.39
702.59	337.83
702.92	336.35
703.26	334.84
703.59	333.47
703.93	332.19
704.26	330.74
704.60	329.32
704.93	327.87
705.26	326.39
705.60	324.91
705.93	323.46
706.27	322.23
706.60	321.02
706.94	319.81
707.27	318.42
707.61	317.08
707.94	315.74
708.27	314.30
708.61	312.87
708.94	311.54
709.28	310.28
709.61	309.02
709.94	307.81
710.28	306.60
710.61	305.41
710.95	304.01
711.28	302.95
711.61	301.76
711.95	300.68
712.28	299.52
712.61	298.41
712.95	297.37
713.28	296.33
713.61	295.22
713.95	294.07
714.28	293.11
714.61	292.10
714.95	291.10
715.28	290.10
715.61	289.16
715.95	288.22
716.28	287.27
716.61	286.38
716.95	285.46
717.28	284.61
717.61	283.67
717.94	282.83
718.28	281.82
718.61	280.98
718.94	280.10
719.27	279.27
719.61	278.44
719.94	277.58
720.27	276.63
720.60	275.78
720.94	275.02
721.27	274.26
721.60	273.57
721.93	272.88
722.27	272.28
722.60	271.62
722.93	270.91
723.26	270.27
723.59	269.59
723.93	268.98
724.26	268.32
724.59	267.71
724.92	267.14
725.25	266.67
725.59	266.11
725.92	265.62
726.25	265.09
726.58	264.52
726.91	263.93
727.24	263.43
727.57	262.91
727.91	262.30
728.24	261.77
728.57	261.21
728.90	260.67
729.23	260.08
729.56	259.66
729.89	259.18
730.22	258.66
730.55	258.14
730.89	257.61
731.22	257.10
731.55	256.61
731.88	256.12
732.21	255.58
732.54	255.06
732.87	254.52
733.20	254.01
733.53	253.53
733.86	253.12
734.19	252.66
734.52	252.24
734.85	252.00
735.18	251.52
735.51	251.16
735.84	250.73
736.17	250.33
736.50	249.82
736.83	249.66
737.16	249.30
737.49	248.91
737.82	248.53
738.15	248.17
738.48	247.79
738.81	247.40
739.14	246.97
739.47	246.61
739.80	246.24
740.13	245.92
740.46	245.57
740.79	245.16
741.12	244.83
741.45	244.46
741.78	244.00
742.11	243.78
742.44	243.40
742.77	243.11
743.10	242.80
743.43	242.45
743.75	241.86
744.08	241.77
744.41	241.43
744.74	241.08
745.07	240.70
745.40	240.43
745.73	240.17
746.06	239.84
746.39	239.57
746.71	239.22
747.04	238.87
747.37	238.57
747.70	238.30
748.03	238.00
748.36	237.78
748.68	237.49
749.01	237.16
749.34	236.91
749.67	236.63
750.00	236.38
750.33	236.27
750.65	236.05
750.98	235.55
751.31	235.31
751.64	235.12
751.97	235.04
752.29	234.78
752.62	234.47
752.95	234.28
753.28	234.02
753.60	233.79
753.93	233.67
754.26	233.44
754.59	233.18
754.91	232.94
755.24	232.69
755.57	232.48
755.90	232.26
756.22	232.01
756.55	231.77
756.88	231.49
757.20	231.18
757.53	230.94
757.86	230.73
758.19	230.55
758.51	230.32
758.84	230.00
759.17	229.80
759.49	229.61
759.82	229.52
760.15	229.36
760.47	229.18
760.80	228.93
761.13	228.81
761.45	228.59
761.78	228.40
762.11	228.23
762.43	228.03
762.76	227.83
763.08	227.67
763.41	227.48
763.74	227.36
764.06	227.20
764.39	227.05
764.71	226.88
765.04	226.73
765.37	226.59
765.69	226.45
766.02	226.30
766.34	226.14
766.67	225.90
767.00	225.80
767.32	225.79
767.65	225.75
767.97	225.59
768.30	225.53
768.62	225.43
768.95	225.28
769.27	225.20
769.60	225.10
769.92	224.96
770.25	224.81
770.57	224.67
770.90	224.54
771.22	224.40
771.55	224.32
771.87	224.20
772.20	224.06
772.52	224.11
772.85	224.25
773.17	224.16
773.50	224.05
773.82	223.92
774.15	223.75
774.47	223.51
774.80	223.40
775.12	223.28
775.45	223.20
775.77	223.12
776.09	223.03
776.42	222.95
776.74	222.93
777.07	222.83
777.39	222.76
777.72	222.69
778.04	222.64
778.36	222.55
778.69	222.49
779.01	222.43
779.33	222.17
779.66	221.86
779.98	221.79
780.31	221.72
780.63	221.70
780.95	221.64
781.28	221.60
781.60	221.54
781.92	221.47
782.25	221.38
782.57	221.31
782.89	221.24
783.22	221.15
783.54	221.02
783.86	220.97
784.19	220.86
784.51	220.84
784.83	220.74
785.16	220.67
785.48	220.57
785.80	220.52
786.12	220.49
786.45	220.42
786.77	220.39
787.09	220.33
787.42	220.21
787.74	220.15
788.06	220.10
788.38	220.02
788.71	219.95
789.03	219.91
789.35	219.90
789.67	219.83
789.99	219.79
790.32	219.76
790.64	219.76
790.96	219.88
791.28	219.76
791.61	219.71
791.93	219.68
792.25	219.68
792.57	219.79
792.89	219.72
793.21	219.69
793.54	219.62
793.86	219.56
794.18	219.51
794.50	219.43
794.82	219.39
795.14	219.37
795.47	219.37
795.79	219.35
796.11	219.25
796.43	219.19
796.75	219.16
797.07	219.11
797.39	219.06
797.71	218.92
798.04	218.91
798.36	218.89
798.68	218.84
799.00	218.81
799.32	218.66
799.64	218.66
799.96	218.65
800.28	218.61
800.60	218.60
800.92	218.59
801.24	218.56
801.56	218.54
801.89	218.53
802.21	218.52
802.53	218.47
802.85	218.47
803.17	218.54
803.49	218.47
803.81	218.43
804.13	218.37
804.45	218.27
804.77	218.26
805.09	218.20
805.41	218.15
805.73	218.09
806.05	217.95
806.37	217.92
806.69	217.87
807.01	217.83
807.33	217.78
807.65	217.69
807.97	217.74
808.28	217.74
808.60	217.68
808.92	217.61
809.24	217.67
809.56	217.61
809.88	217.52
810.20	217.53
810.52	217.56
810.84	217.52
811.16	217.50
811.48	217.47
811.80	217.52
812.12	217.51
812.43	217.53
812.75	217.57
813.07	217.52
813.39	217.52
813.71	217.50
814.03	217.49
814.35	217.50
814.67	217.39
814.98	217.31
815.30	217.28
815.62	217.22
815.94	217.09
816.26	217.10
816.58	217.06
816.89	217.03
817.21	216.96
817.53	216.94
817.85	216.91
818.17	216.87
818.48	216.80
818.80	216.80
819.12	216.76
819.44	216.73
819.76	216.70
820.07	216.64
820.39	216.64
820.71	216.64
821.03	216.61
821.34	216.58
821.66	216.60
821.98	216.62
822.30	216.61
822.61	216.70
822.93	216.65
823.25	216.61
823.57	216.57
823.88	216.61
824.20	216.62
824.52	216.68
824.83	216.64
825.15	216.63
825.47	216.59
825.79	216.58
826.10	216.52
826.42	216.51
826.74	216.55
827.05	216.52
827.37	216.52
827.69	216.51
828.00	216.51
828.32	216.48
828.64	216.45
828.95	216.54
829.27	216.51
829.58	216.52
829.90	216.52
830.22	216.54
830.53	216.45
830.85	216.41
831.17	216.36
831.48	216.41
831.80	216.36
832.11	216.38
832.43	216.37
832.75	216.38
833.06	216.51
833.38	216.42
833.69	216.40
834.01	216.36
834.32	216.34
834.64	216.35
834.96	216.34
835.27	216.31
835.59	216.26
835.90	216.20
836.22	216.18
836.53	216.14
836.85	216.10
837.16	216.32
837.48	216.34
837.79	216.36
838.11	216.33
838.42	216.34
838.74	216.35
839.05	216.32
839.37	216.30
839.68	216.14
840.00	216.13
840.31	216.16
840.63	216.15
840.94	216.15
841.26	216.11
841.57	216.14
841.88	216.16
842.20	216.09
842.51	216.07
842.83	216.07
843.14	216.25
843.46	216.23
843.77	216.13
844.08	216.11
844.40	216.05
844.71	216.05
845.03	216.01
845.34	215.99
845.65	215.95
845.97	215.96
846.28	215.99
846.60	216.02
846.91	215.99
847.22	216.00
847.54	216.02
847.85	216.01
848.16	215.95
848.48	215.92
848.79	216.02
849.10	216.00
849.42	216.01
849.73	215.83
850.04	215.85
850.36	215.73
850.67	215.76
850.98	215.78
851.30	215.78
851.61	215.76
851.92	215.72
852.23	215.77
852.55	215.80
852.86	215.77
853.17	215.76
853.49	215.81
853.80	215.83
854.11	215.85
854.42	215.89
854.74	215.91
855.05	215.91
855.36	215.80
855.67	215.81
855.99	215.80
856.30	216.03
856.61	216.01
856.92	216.01
857.23	216.00
857.55	215.96
857.86	215.92
858.17	215.99
858.48	215.97
858.79	215.92
859.11	215.92
859.42	215.93
859.73	215.90
860.04	215.85
860.35	215.82
860.66	215.72
860.98	215.68
861.29	215.69
861.60	215.68
861.91	215.74
862.22	215.73
862.53	215.70
862.84	215.47
863.16	215.54
863.47	215.51
863.78	215.49
864.09	215.52
864.40	215.53
864.71	215.52
865.02	215.53
865.33	215.52
865.64	215.46
865.95	215.44
866.27	215.58
866.58	215.58
866.89	215.54
867.20	215.57
867.51	215.55
867.82	215.51
868.13	215.58
868.44	215.53
868.75	215.53
869.06	215.52
869.37	215.51
869.68	215.44
869.99	215.47
870.30	215.49
870.61	215.48
870.92	215.45
871.23	215.42
871.54	215.46
871.85	215.53
872.16	215.55
872.47	215.56
872.78	215.42
873.09	215.44
873.40	215.44
873.71	215.48
874.02	215.46
874.33	215.47
874.64	215.41
874.95	215.44
875.26	215.41
875.56	215.42
875.87	215.41
876.18	215.39
876.49	215.60
876.80	215.57
877.11	215.55
877.42	215.58
877.73	215.58
878.04	215.53
878.35	215.53
878.66	215.54
878.96	215.54
879.27	215.52
879.58	215.52
879.89	215.51
880.20	215.55
880.51	215.57
880.82	215.57
881.12	215.58
881.43	215.49
881.74	215.50
882.05	215.49
882.36	215.49
882.67	215.51
882.97	215.28
883.28	215.27
883.59	215.27
883.90	215.26
884.21	215.31
884.51	215.28
884.82	215.21
885.13	215.18
885.44	215.16
885.74	215.15
886.05	215.14
886.36	215.13
886.67	215.03
886.98	215.11
887.28	215.12
887.59	215.11
887.90	215.15
888.20	215.11
888.51	215.20
888.82	215.18
889.13	215.19
889.43	215.35
889.74	215.34
890.05	215.32
890.35	215.32
890.66	215.26
890.97	215.24
891.28	215.25
891.58	215.27
891.89	215.27
892.20	215.28
892.50	215.24
892.81	215.26
893.12	215.27
893.42	215.17
893.73	215.16
894.04	215.14
894.34	215.18
894.65	215.19
894.95	215.09
895.26	215.10
895.57	215.20
895.87	215.01
896.18	215.05
896.48	215.05
896.79	215.05
897.10	215.09
897.40	215.13
897.71	215.14
898.01	215.11
898.32	215.14
898.63	215.14
898.93	215.20
899.24	215.22
899.54	215.20
899.85	215.23
900.15	215.23
900.46	215.22
900.76	215.16
901.07	215.18
901.38	215.17
901.68	215.17
901.99	215.06
902.29	215.07
902.60	215.05
902.90	215.04
903.21	215.03
903.51	215.00
903.82	215.04
904.12	215.05
904.43	215.08
904.73	215.05
905.03	215.05
905.34	215.23
905.64	215.20
905.95	215.17
906.25	215.13
906.56	215.10
906.86	215.10
907.17	215.14
907.47	215.14
907.77	215.12
908.08	215.07
908.38	215.12
908.69	215.13
908.99	215.18
909.30	215.18
909.60	215.19
909.90	215.19
910.21	215.14
910.51	215.12
910.81	215.11
911.12	215.16
911.42	215.16
911.73	214.97
912.03	214.97
912.33	215.05
912.64	215.04
912.94	215.04
913.24	215.01
913.55	214.99
913.85	214.96
914.15	215.05
914.46	215.13
914.76	215.08
915.06	215.04
915.37	214.98
915.67	214.99
915.97	214.98
916.27	214.93
916.58	214.97
916.88	214.91
917.18	214.89
917.49	215.02
917.79	214.98
918.09	214.99
918.39	215.03
918.70	215.01
919.00	215.05
919.30	215.16
919.60	215.16
919.91	215.12
920.21	215.14
920.51	215.06
920.81	215.02
921.12	215.06
921.42	215.07
921.72	215.10
922.02	215.08
922.32	215.09
922.63	215.12
922.93	215.16
923.23	215.20
923.53	215.19
923.83	215.04
924.13	215.07
924.44	215.08
924.74	215.13
925.04	215.18
925.34	215.13
925.64	215.06
925.94	215.06
926.24	215.19
926.55	215.16
926.85	215.21
927.15	215.20
927.45	215.16
927.75	215.15
928.05	215.15
928.35	215.16
928.65	215.21
928.95	215.21
929.26	215.13
929.56	215.17
929.86	215.18
930.16	215.17
930.46	215.15
930.76	215.18
931.06	215.07
931.36	215.03
931.66	215.06
931.96	215.07
932.26	215.07
932.56	214.99
932.86	215.01
933.16	214.99
933.46	214.97
933.76	214.94
934.06	215.02
934.36	215.07
934.66	215.08
934.96	215.04
935.26	215.06
935.56	215.09
935.86	215.07
936.16	215.05
936.46	215.01
936.76	215.00
937.06	214.92
937.36	214.93
937.66	214.94
937.96	214.96
938.26	214.91
938.56	214.91
938.86	214.93
939.16	214.95
939.46	214.95
939.76	214.96
940.06	214.96
940.35	214.89
940.65	214.79
940.95	214.78
941.25	214.76
941.55	214.75
941.85	214.76
942.15	214.76
942.45	214.83
942.75	214.85
943.04	214.87
943.34	214.92
943.64	214.91
943.94	214.87
944.24	214.85
944.54	214.89
944.84	214.91
945.13	214.87
945.43	214.82
945.73	214.86
946.03	214.88
946.33	214.86
946.62	214.90
946.92	214.89
947.22	214.91
947.52	214.89
947.82	214.89
948.11	214.86
948.41	214.84
948.71	214.78
949.01	214.80
949.31	214.76
949.60	214.76
949.90	214.78
950.20	214.79
950.50	214.80
950.79	214.76
951.09	214.75
951.39	214.76
951.69	214.74
951.98	214.76
952.28	214.75
952.58	214.77
952.87	214.69
953.17	214.74
953.47	214.69
953.76	214.71
954.06	214.71
954.36	214.68
954.66	214.64
954.95	214.68
955.25	214.67
955.55	214.71
955.84	214.65
956.14	214.68
956.44	214.69
956.73	214.67
957.03	214.66
957.32	214.68
957.62	214.64
957.92	214.71
958.21	214.69
958.51	214.93
958.81	214.97
959.10	215.00
959.40	215.03
959.69	215.07
959.99	215.12
960.29	215.08
960.58	215.05
960.88	215.16
961.17	215.13
961.47	215.17
961.76	215.14
962.06	215.21
962.36	215.16
962.65	215.16
962.95	215.15
963.24	215.17
963.54	215.17
963.83	215.20
964.13	215.17
964.42	215.12
964.72	214.94
965.01	214.92
965.31	214.96
965.60	214.93
965.90	215.06
966.19	214.98
966.49	215.03
966.78	215.03
967.08	215.03
967.37	215.03
967.67	214.98
967.96	215.00
968.26	214.96
968.55	214.98
968.85	214.99
969.14	215.00
969.43	214.96
969.73	214.92
970.02	214.95
970.32	214.95
970.61	214.97
970.91	214.91
971.20	214.88
971.49	214.85
971.79	214.85
972.08	214.71
972.38	214.73
972.67	214.70
972.96	214.72
973.26	214.64
973.55	214.72
973.85	214.72
974.14	214.71
974.43	214.74
974.73	214.71
975.02	214.68
975.31	214.67
975.61	214.72
975.90	214.72
976.19	214.68
976.49	214.71
976.78	214.71
977.07	214.73
977.37	214.75
977.66	214.75
977.95	214.71
978.24	214.72
978.54	214.78
978.83	214.75
979.12	214.74
979.42	214.75
979.71	214.71
980.00	214.73
980.29	214.73
980.59	214.71
980.88	214.76
981.17	214.75
981.46	214.75
981.76	214.73
982.05	214.79
982.34	214.81
982.63	214.76
982.93	214.75
983.22	214.78
983.51	214.77
983.80	214.79
984.09	214.83
984.39	214.79
984.68	214.76
984.97	214.81
985.26	214.80
985.55	214.83
985.85	214.80
986.14	214.80
986.43	214.83
986.72	214.81
987.01	214.75
987.30	214.74
987.59	214.73
987.89	214.73
988.18	214.64
988.47	214.61
988.76	214.63
989.05	214.61
989.34	214.56
989.63	214.61
989.92	214.59
990.22	214.56
990.51	214.60
990.80	214.57
991.09	214.58
991.38	214.62
991.67	214.59
991.96	214.56
992.25	214.56
992.54	214.52
992.83	214.53
993.12	214.50
993.41	214.54
993.70	214.62
993.99	214.67
994.28	214.72
994.58	214.77
994.87	214.74
995.16	214.78
995.45	214.79
995.74	214.72
996.03	214.75
996.32	214.79
996.61	214.80
996.90	214.84
997.19	214.82
997.48	214.83
997.77	214.81
998.06	214.83
998.34	214.85
998.63	214.87
998.92	214.90
999.21	214.99
999.50	215.00
999.79	214.93
1000.08	214.90
1000.37	214.88
1000.66	214.85
1000.95	214.90
1001.24	214.91
1001.53	214.93
1001.82	214.94
1002.11	214.93
1002.40	214.94
1002.68	214.99
1002.97	215.08
1003.26	215.06
1003.55	215.04
1003.84	215.05
1004.13	215.13
1004.42	215.10
1004.71	215.09
1004.99	215.05
1005.28	215.06
1005.57	215.03
1005.86	215.01
1006.15	214.99
1006.44	214.97
1006.72	215.00
1007.01	214.98
1007.30	214.96
1007.59	214.97
1007.88	214.95
1008.17	214.95
1008.45	214.92
1008.74	214.81
1009.03	214.74
1009.32	214.70
1009.60	214.70
1009.89	214.70
1010.18	214.59
1010.47	214.58
1010.76	214.59
1011.04	214.56
1011.33	214.59
1011.62	214.61
1011.91	214.63
1012.19	214.64
1012.48	214.63
1012.77	214.63
1013.05	214.75
1013.34	214.74
1013.63	214.71
1013.92	214.77
1014.20	214.72
1014.49	214.71
1014.78	214.74
1015.06	214.66
1015.35	214.70
1015.64	214.73
1015.92	214.74
1016.21	214.78
1016.50	214.80
1016.78	214.82
1017.07	214.90
1017.36	214.85
1017.64	214.81
1017.93	214.82
1018.22	214.78
1018.50	214.76
1018.79	214.76
1019.08	214.62
1019.36	214.62
1019.65	214.59
1019.93	214.62
1020.22	214.67
1020.51	214.83
1020.79	214.82
1021.08	213.80
1021.36	213.86
1021.65	214.93
1021.94	214.20
1022.22	214.51
1022.51	214.15
1022.79	215.60
1023.08	215.31
1023.36	217.86
1023.65	214.27
>>>>>End Processed Spectral Data<<<<<
