SpectraSuite Data File
++++++++++++++++++++++++++++++++++++
Date: Tue Jan 29 16:23:46 EST 2013
User: group
Dark Spectrum Present: No
Reference Spectrum Present: No
Number of Sampled Component Spectra: 1
Spectrometers: USB2E7196
Integration Time (usec): 65000 (USB2E7196)
Spectra Averaged: 100 (USB2E7196)
Boxcar Smoothing: 10 (USB2E7196)
Correct for Electrical Dark: No (USB2E7196)
Strobe/Lamp Enabled: No (USB2E7196)
Correct for Detector Non-linearity: No (USB2E7196)
Correct for Stray Light: No (USB2E7196)
Number of Pixels in Processed Spectrum: 2048
>>>>>Begin Processed Spectral Data<<<<<
339.09	0.00
339.48	201.99
339.86	203.49
340.24	205.29
340.63	206.36
341.01	210.96
341.39	208.92
341.78	211.33
342.16	211.23
342.54	212.40
342.93	201.41
343.31	211.60
343.69	212.13
344.07	212.59
344.46	213.02
344.84	213.44
345.22	213.61
345.60	213.88
345.99	214.06
346.37	214.22
346.75	214.35
347.13	214.46
347.52	214.52
347.90	214.60
348.28	214.63
348.66	214.69
349.05	214.67
349.43	214.72
349.81	214.78
350.19	214.88
350.57	214.94
350.96	215.05
351.34	215.15
351.72	215.28
352.10	215.40
352.48	215.48
352.87	215.52
353.25	215.63
353.63	215.70
354.01	215.77
354.39	215.85
354.77	215.91
355.15	216.05
355.54	216.08
355.92	216.04
356.30	216.09
356.68	216.30
357.06	216.36
357.44	216.41
357.82	216.48
358.20	216.53
358.58	216.57
358.97	216.63
359.35	216.73
359.73	216.80
360.11	216.86
360.49	216.92
360.87	216.95
361.25	216.99
361.63	217.11
362.01	217.16
362.39	217.18
362.77	217.24
363.15	217.25
363.53	217.32
363.91	217.41
364.29	217.44
364.67	217.27
365.05	217.31
365.43	217.36
365.81	217.42
366.19	217.51
366.57	217.61
366.95	217.62
367.33	217.54
367.71	217.55
368.09	217.60
368.47	217.60
368.85	217.62
369.23	217.66
369.61	217.55
369.99	217.61
370.37	217.63
370.75	217.69
371.13	217.63
371.51	217.59
371.89	217.56
372.27	217.56
372.65	217.52
373.03	217.51
373.41	217.46
373.78	217.40
374.16	217.27
374.54	217.21
374.92	217.15
375.30	217.15
375.68	217.06
376.06	217.04
376.44	217.01
376.82	216.96
377.19	216.91
377.57	216.91
377.95	216.78
378.33	216.76
378.71	216.61
379.09	216.58
379.47	216.56
379.84	216.51
380.22	216.46
380.60	216.43
380.98	216.37
381.36	216.30
381.73	216.24
382.11	216.25
382.49	216.17
382.87	216.10
383.25	216.07
383.62	216.30
384.00	216.19
384.38	216.14
384.76	216.16
385.13	216.22
385.51	216.17
385.89	216.11
386.27	216.05
386.64	216.05
387.02	216.00
387.40	215.93
387.78	215.93
388.15	215.91
388.53	215.87
388.91	215.84
389.29	215.82
389.66	215.82
390.04	215.77
390.42	215.80
390.79	215.81
391.17	215.76
391.55	215.49
391.92	215.45
392.30	215.49
392.68	215.42
393.05	215.37
393.43	215.34
393.81	215.37
394.18	215.34
394.56	215.32
394.94	215.39
395.31	215.39
395.69	215.43
396.06	215.49
396.44	215.53
396.82	215.60
397.19	215.72
397.57	215.74
397.95	215.79
398.32	215.79
398.70	215.84
399.07	215.95
399.45	215.97
399.82	216.05
400.20	216.05
400.58	216.13
400.95	216.10
401.33	216.23
401.70	216.45
402.08	216.55
402.45	216.66
402.83	216.81
403.20	216.95
403.58	217.05
403.95	217.17
404.33	217.31
404.71	217.43
405.08	217.70
405.46	217.87
405.83	218.05
406.21	218.23
406.58	218.47
406.96	218.70
407.33	219.01
407.70	219.30
408.08	219.77
408.45	220.11
408.83	220.49
409.20	220.82
409.58	221.11
409.95	221.58
410.33	222.06
410.70	222.46
411.08	223.04
411.45	223.60
411.82	224.20
412.20	224.89
412.57	225.72
412.95	226.29
413.32	227.11
413.69	227.96
414.07	228.87
414.44	229.85
414.82	230.84
415.19	232.01
415.56	233.21
415.94	234.38
416.31	235.78
416.68	237.18
417.06	238.78
417.43	240.29
417.81	242.03
418.18	243.84
418.55	245.76
418.93	247.72
419.30	249.82
419.67	252.01
420.04	254.25
420.42	256.60
420.79	259.37
421.16	262.15
421.54	265.01
421.91	267.97
422.28	271.07
422.66	274.31
423.03	277.53
423.40	280.84
423.77	284.44
424.15	288.08
424.52	291.91
424.89	296.05
425.26	300.09
425.64	303.94
426.01	308.17
426.38	312.66
426.75	317.21
427.13	321.94
427.50	326.88
427.87	332.05
428.24	337.23
428.61	342.21
428.99	347.67
429.36	353.69
429.73	359.61
430.10	365.42
430.47	371.48
430.85	377.76
431.22	384.46
431.59	391.48
431.96	398.24
432.33	405.69
432.70	412.87
433.08	421.38
433.45	429.39
433.82	437.32
434.19	446.08
434.56	454.70
434.93	462.95
435.30	471.19
435.68	480.29
436.05	489.22
436.42	498.11
436.79	506.23
437.16	514.98
437.53	524.14
437.90	533.26
438.27	542.18
438.64	551.27
439.01	559.74
439.38	567.28
439.75	574.57
440.13	582.93
440.50	590.89
440.87	597.26
441.24	603.83
441.61	611.19
441.98	616.55
442.35	622.84
442.72	629.15
443.09	635.15
443.46	638.81
443.83	641.28
444.20	643.41
444.57	646.55
444.94	647.94
445.31	649.38
445.68	650.70
446.05	651.29
446.42	650.54
446.79	649.56
447.16	648.50
447.53	647.73
447.90	644.43
448.27	641.16
448.64	636.57
449.01	633.28
449.37	627.41
449.74	621.77
450.11	614.89
450.48	607.44
450.85	600.01
451.22	593.58
451.59	587.46
451.96	581.67
452.33	573.75
452.70	566.68
453.07	558.16
453.43	549.66
453.80	541.43
454.17	533.51
454.54	526.02
454.91	517.86
455.28	509.92
455.65	502.54
456.02	495.06
456.38	488.76
456.75	480.94
457.12	474.40
457.49	467.96
457.86	461.86
458.23	456.60
458.59	450.74
458.96	444.76
459.33	439.52
459.70	434.20
460.07	430.07
460.43	425.22
460.80	420.71
461.17	416.74
461.54	412.61
461.91	408.62
462.27	404.48
462.64	401.07
463.01	397.29
463.38	393.61
463.74	389.89
464.11	386.64
464.48	383.78
464.85	380.67
465.21	378.25
465.58	375.60
465.95	372.47
466.32	369.86
466.68	367.30
467.05	364.71
467.42	362.18
467.78	359.48
468.15	356.94
468.52	355.09
468.88	352.59
469.25	350.34
469.62	348.55
469.98	346.67
470.35	344.92
470.72	343.27
471.08	341.48
471.45	340.04
471.82	338.52
472.18	336.84
472.55	335.67
472.92	334.30
473.28	333.11
473.65	331.97
474.02	330.90
474.38	330.03
474.75	329.30
475.11	328.47
475.48	327.89
475.85	327.39
476.21	326.87
476.58	326.54
476.94	326.34
477.31	326.03
477.67	325.83
478.04	325.65
478.41	325.66
478.77	325.82
479.14	325.75
479.50	325.89
479.87	326.22
480.23	326.51
480.60	326.74
480.96	327.03
481.33	327.63
481.69	328.18
482.06	328.70
482.42	329.21
482.79	329.79
483.15	330.60
483.52	331.59
483.88	332.51
484.25	333.44
484.61	334.44
484.98	335.52
485.34	336.81
485.71	338.18
486.07	339.56
486.44	340.86
486.80	342.48
487.17	344.20
487.53	346.04
487.90	347.92
488.26	349.96
488.62	352.11
488.99	354.15
489.35	356.32
489.72	358.73
490.08	361.25
490.44	363.84
490.81	366.57
491.17	369.23
491.54	372.19
491.90	375.25
492.26	378.50
492.63	381.89
492.99	385.41
493.36	389.12
493.72	393.06
494.08	397.12
494.45	401.38
494.81	405.79
495.17	410.27
495.54	415.02
495.90	419.86
496.26	424.83
496.63	430.04
496.99	435.47
497.35	441.08
497.72	446.88
498.08	452.84
498.44	458.98
498.80	465.46
499.17	472.05
499.53	478.78
499.89	485.76
500.26	492.84
500.62	499.98
500.98	507.41
501.34	514.94
501.71	522.76
502.07	530.63
502.43	538.69
502.79	546.88
503.16	555.28
503.52	563.96
503.88	572.77
504.24	581.80
504.60	590.89
504.97	600.20
505.33	609.64
505.69	619.58
506.05	629.51
506.41	639.45
506.78	649.58
507.14	659.94
507.50	670.49
507.86	681.23
508.22	692.14
508.59	702.85
508.95	713.98
509.31	725.28
509.67	736.86
510.03	748.29
510.39	760.18
510.75	772.20
511.12	784.20
511.48	796.38
511.84	808.78
512.20	821.29
512.56	833.97
512.92	846.83
513.28	859.61
513.64	872.54
514.00	885.52
514.37	898.61
514.73	911.81
515.09	924.88
515.45	937.89
515.81	950.92
516.17	964.52
516.53	977.85
516.89	991.11
517.25	1004.35
517.61	1018.02
517.97	1031.52
518.33	1044.67
518.69	1058.39
519.05	1072.24
519.41	1085.96
519.77	1099.94
520.13	1113.42
520.49	1126.61
520.85	1140.13
521.21	1153.55
521.57	1167.34
521.93	1180.38
522.29	1194.34
522.65	1208.02
523.01	1221.88
523.37	1235.29
523.73	1248.74
524.09	1262.13
524.45	1275.65
524.81	1289.25
525.17	1302.77
525.53	1316.01
525.89	1329.58
526.25	1342.71
526.61	1355.65
526.97	1368.83
527.33	1381.84
527.68	1395.44
528.04	1409.13
528.40	1422.30
528.76	1435.84
529.12	1448.89
529.48	1462.31
529.84	1474.57
530.20	1487.47
530.56	1500.01
530.91	1513.35
531.27	1526.30
531.63	1539.08
531.99	1551.92
532.35	1564.18
532.71	1576.61
533.07	1589.65
533.42	1602.05
533.78	1614.25
534.14	1626.49
534.50	1637.93
534.86	1649.59
535.21	1660.51
535.57	1671.94
535.93	1683.35
536.29	1694.42
536.65	1705.94
537.00	1717.11
537.36	1728.66
537.72	1739.76
538.08	1751.28
538.44	1762.33
538.79	1773.42
539.15	1784.41
539.51	1795.43
539.87	1806.87
540.22	1817.77
540.58	1828.84
540.94	1839.62
541.29	1850.10
541.65	1859.86
542.01	1870.35
542.37	1880.50
542.72	1890.85
543.08	1900.91
543.44	1911.46
543.79	1920.90
544.15	1930.49
544.51	1940.55
544.87	1950.38
545.22	1959.69
545.58	1968.53
545.94	1977.47
546.29	1986.05
546.65	1994.44
547.01	2002.59
547.36	2010.38
547.72	2018.17
548.07	2025.61
548.43	2033.48
548.79	2041.33
549.14	2049.67
549.50	2058.17
549.86	2066.18
550.21	2073.48
550.57	2081.19
550.92	2087.99
551.28	2095.38
551.64	2102.52
551.99	2110.03
552.35	2117.24
552.70	2124.16
553.06	2130.90
553.41	2137.14
553.77	2143.79
554.13	2150.16
554.48	2157.26
554.84	2164.29
555.19	2170.93
555.55	2177.46
555.90	2183.73
556.26	2190.57
556.61	2196.62
556.97	2201.44
557.32	2207.26
557.68	2213.81
558.03	2219.63
558.39	2225.01
558.74	2231.11
559.10	2236.68
559.45	2242.23
559.81	2247.82
560.16	2253.42
560.52	2259.59
560.87	2266.22
561.23	2272.05
561.58	2278.88
561.94	2284.12
562.29	2289.02
562.64	2295.16
563.00	2300.92
563.35	2306.73
563.71	2312.45
564.06	2318.10
564.42	2324.25
564.77	2329.43
565.12	2335.01
565.48	2340.16
565.83	2345.69
566.19	2351.03
566.54	2356.43
566.89	2361.12
567.25	2365.81
567.60	2371.53
567.96	2376.62
568.31	2381.08
568.66	2385.45
569.02	2389.36
569.37	2393.30
569.72	2397.85
570.08	2401.38
570.43	2404.48
570.78	2407.52
571.14	2410.12
571.49	2413.42
571.84	2416.96
572.20	2419.94
572.55	2422.68
572.90	2425.10
573.26	2428.02
573.61	2430.84
573.96	2433.33
574.31	2435.48
574.67	2437.45
575.02	2438.30
575.37	2439.80
575.72	2440.54
576.08	2442.24
576.43	2442.46
576.78	2442.82
577.13	2444.30
577.49	2445.61
577.84	2446.77
578.19	2448.12
578.54	2448.79
578.90	2449.56
579.25	2449.58
579.60	2449.53
579.95	2448.87
580.30	2448.90
580.66	2448.44
581.01	2446.87
581.36	2444.44
581.71	2443.14
582.06	2441.99
582.42	2441.16
582.77	2438.98
583.12	2437.45
583.47	2436.01
583.82	2435.53
584.17	2434.43
584.53	2432.48
584.88	2430.49
585.23	2428.85
585.58	2426.71
585.93	2424.83
586.28	2422.66
586.63	2420.21
586.98	2418.11
587.34	2416.21
587.69	2413.87
588.04	2411.72
588.39	2410.16
588.74	2407.69
589.09	2404.91
589.44	2401.76
589.79	2399.40
590.14	2397.48
590.49	2394.65
590.84	2390.80
591.19	2387.58
591.54	2384.37
591.89	2380.35
592.25	2377.08
592.60	2372.71
592.95	2368.55
593.30	2364.30
593.65	2359.96
594.00	2355.61
594.35	2352.65
594.70	2347.95
595.05	2343.48
595.40	2338.05
595.75	2332.28
596.10	2328.70
596.45	2323.89
596.80	2319.32
597.15	2314.09
597.50	2308.31
597.85	2303.39
598.19	2298.15
598.54	2292.31
598.89	2287.18
599.24	2282.59
599.59	2276.27
599.94	2270.39
600.29	2264.38
600.64	2258.45
600.99	2251.56
601.34	2246.05
601.69	2238.87
602.04	2232.57
602.39	2225.76
602.74	2219.49
603.08	2213.99
603.43	2207.49
603.78	2200.57
604.13	2193.60
604.48	2186.29
604.83	2180.03
605.18	2173.93
605.53	2167.00
605.87	2159.99
606.22	2153.07
606.57	2144.99
606.92	2137.05
607.27	2130.13
607.62	2123.44
607.96	2116.41
608.31	2110.01
608.66	2102.07
609.01	2094.47
609.36	2087.31
609.70	2079.63
610.05	2071.97
610.40	2063.59
610.75	2055.06
611.10	2047.33
611.44	2038.26
611.79	2029.39
612.14	2019.13
612.49	2008.21
612.83	1998.79
613.18	1989.48
613.53	1980.07
613.88	1970.50
614.22	1961.85
614.57	1951.87
614.92	1941.27
615.27	1930.95
615.61	1920.65
615.96	1910.98
616.31	1901.38
616.65	1891.75
617.00	1881.91
617.35	1872.08
617.70	1862.27
618.04	1852.20
618.39	1841.93
618.74	1832.21
619.08	1822.55
619.43	1814.06
619.78	1805.63
620.12	1796.96
620.47	1787.29
620.82	1776.85
621.16	1767.08
621.51	1757.03
621.85	1747.17
622.20	1736.66
622.55	1726.07
622.89	1716.04
623.24	1706.32
623.59	1696.29
623.93	1686.14
624.28	1676.23
624.62	1666.01
624.97	1655.66
625.32	1645.67
625.66	1636.68
626.01	1627.90
626.35	1618.46
626.70	1608.20
627.04	1598.21
627.39	1587.97
627.73	1578.51
628.08	1569.44
628.43	1559.71
628.77	1550.38
629.12	1541.30
629.46	1533.47
629.81	1525.03
630.15	1515.39
630.50	1505.33
630.84	1494.69
631.19	1484.56
631.53	1475.24
631.88	1464.99
632.22	1454.77
632.57	1445.28
632.91	1434.93
633.26	1424.81
633.60	1414.97
633.95	1405.53
634.29	1395.79
634.64	1386.29
634.98	1376.27
635.32	1366.91
635.67	1358.30
636.01	1348.90
636.36	1339.16
636.70	1329.37
637.05	1319.80
637.39	1310.77
637.73	1302.09
638.08	1294.44
638.42	1286.27
638.77	1277.23
639.11	1268.84
639.45	1260.98
639.80	1252.44
640.14	1243.65
640.49	1234.68
640.83	1225.79
641.17	1217.59
641.52	1209.39
641.86	1200.78
642.20	1192.76
642.55	1183.98
642.89	1174.92
643.23	1166.27
643.58	1158.02
643.92	1148.90
644.26	1140.15
644.61	1131.60
644.95	1122.65
645.29	1113.42
645.64	1103.98
645.98	1095.38
646.32	1087.36
646.66	1078.76
647.01	1070.26
647.35	1062.02
647.69	1053.66
648.04	1045.34
648.38	1036.29
648.72	1027.36
649.06	1018.78
649.41	1010.53
649.75	1002.47
650.09	994.54
650.43	986.30
650.78	977.77
651.12	969.95
651.46	962.40
651.80	955.08
652.14	947.71
652.49	940.03
652.83	932.66
653.17	925.00
653.51	917.30
653.85	909.83
654.20	902.55
654.54	895.01
654.88	887.66
655.22	880.31
655.56	873.17
655.90	866.30
656.25	859.51
656.59	852.54
656.93	845.38
657.27	838.11
657.61	831.07
657.95	824.91
658.29	818.86
658.64	812.64
658.98	806.07
659.32	799.47
659.66	793.11
660.00	786.75
660.34	780.57
660.68	774.30
661.02	767.95
661.36	761.82
661.70	755.94
662.05	750.22
662.39	744.72
662.73	739.19
663.07	733.75
663.41	728.15
663.75	722.43
664.09	716.69
664.43	711.24
664.77	705.78
665.11	699.94
665.45	694.03
665.79	688.18
666.13	682.54
666.47	676.96
666.81	671.43
667.15	665.92
667.49	660.57
667.83	655.28
668.17	650.03
668.51	644.94
668.85	639.99
669.19	634.99
669.53	629.83
669.87	624.73
670.21	619.91
670.55	615.06
670.89	610.44
671.23	606.05
671.57	601.63
671.91	597.28
672.25	593.01
672.58	588.83
672.92	584.66
673.26	580.49
673.60	576.56
673.94	572.73
674.28	569.11
674.62	565.39
674.96	561.65
675.30	558.05
675.64	554.28
675.97	550.59
676.31	546.96
676.65	543.33
676.99	539.82
677.33	535.88
677.67	532.17
678.01	528.29
678.34	524.55
678.68	520.95
679.02	517.34
679.36	513.59
679.70	509.85
680.04	506.25
680.37	502.81
680.71	499.36
681.05	496.07
681.39	492.73
681.73	489.45
682.06	486.35
682.40	483.23
682.74	480.01
683.08	476.80
683.42	473.55
683.75	470.51
684.09	467.49
684.43	464.68
684.77	461.72
685.10	458.82
685.44	455.95
685.78	452.92
686.12	450.06
686.45	447.35
686.79	444.67
687.13	442.11
687.46	439.50
687.80	436.78
688.14	433.92
688.48	431.22
688.81	428.51
689.15	425.89
689.49	423.23
689.82	420.71
690.16	418.05
690.50	415.54
690.83	413.04
691.17	410.44
691.51	407.94
691.84	405.67
692.18	403.42
692.52	401.14
692.85	399.04
693.19	396.89
693.52	394.69
693.86	392.42
694.20	390.22
694.53	388.02
694.87	385.82
695.21	383.68
695.54	381.49
695.88	379.35
696.21	377.12
696.55	375.00
696.88	372.88
697.22	370.91
697.56	369.00
697.89	367.05
698.23	365.32
698.56	363.46
698.90	361.68
699.23	359.77
699.57	357.94
699.90	356.02
700.24	354.19
700.58	352.41
700.91	350.76
701.25	349.11
701.58	347.45
701.92	345.84
702.25	344.21
702.59	342.65
702.92	341.06
703.26	339.44
703.59	337.88
703.93	336.64
704.26	335.20
704.60	333.68
704.93	332.19
705.26	330.62
705.60	329.15
705.93	327.59
706.27	326.24
706.60	324.97
706.94	323.74
707.27	322.33
707.61	320.98
707.94	319.62
708.27	318.13
708.61	316.69
708.94	315.34
709.28	314.07
709.61	312.77
709.94	311.56
710.28	310.35
710.61	309.20
710.95	307.74
711.28	306.64
711.61	305.44
711.95	304.28
712.28	303.06
712.61	301.88
712.95	300.80
713.28	299.70
713.61	298.51
713.95	297.37
714.28	296.32
714.61	295.23
714.95	294.17
715.28	293.12
715.61	292.08
715.95	291.08
716.28	290.05
716.61	289.08
716.95	288.07
717.28	287.14
717.61	286.14
717.94	285.21
718.28	284.19
718.61	283.31
718.94	282.43
719.27	281.58
719.61	280.73
719.94	279.87
720.27	278.95
720.60	278.06
720.94	277.20
721.27	276.45
721.60	275.77
721.93	275.05
722.27	274.42
722.60	273.75
722.93	273.02
723.26	272.38
723.59	271.65
723.93	271.03
724.26	270.35
724.59	269.70
724.92	269.11
725.25	268.53
725.59	267.95
725.92	267.40
726.25	266.83
726.58	266.25
726.91	265.65
727.24	265.11
727.57	264.54
727.91	263.94
728.24	263.34
728.57	262.72
728.90	262.16
729.23	261.54
729.56	261.14
729.89	260.63
730.22	260.03
730.55	259.49
730.89	258.91
731.22	258.38
731.55	257.83
731.88	257.29
732.21	256.73
732.54	256.18
732.87	255.63
733.20	255.15
733.53	254.69
733.86	254.25
734.19	253.76
734.52	253.37
734.85	253.08
735.18	252.65
735.51	252.26
735.84	251.85
736.17	251.42
736.50	250.84
736.83	250.64
737.16	250.27
737.49	249.90
737.82	249.50
738.15	249.15
738.48	248.81
738.81	248.40
739.14	247.99
739.47	247.65
739.80	247.28
740.13	246.94
740.46	246.54
740.79	246.12
741.12	245.76
741.45	245.37
741.78	244.91
742.11	244.61
742.44	244.21
742.77	243.91
743.10	243.61
743.43	243.28
743.75	242.73
744.08	242.67
744.41	242.29
744.74	241.94
745.07	241.54
745.40	241.24
745.73	241.00
746.06	240.67
746.39	240.33
746.71	240.01
747.04	239.65
747.37	239.34
747.70	239.09
748.03	238.76
748.36	238.51
748.68	238.21
749.01	237.87
749.34	237.59
749.67	237.25
750.00	236.99
750.33	236.86
750.65	236.59
750.98	236.06
751.31	235.84
751.64	235.66
751.97	235.51
752.29	235.21
752.62	234.87
752.95	234.64
753.28	234.40
753.60	234.16
753.93	233.98
754.26	233.77
754.59	233.46
754.91	233.22
755.24	232.96
755.57	232.72
755.90	232.50
756.22	232.27
756.55	232.07
756.88	231.81
757.20	231.46
757.53	231.21
757.86	230.97
758.19	230.77
758.51	230.52
758.84	230.23
759.17	230.02
759.49	229.87
759.82	229.76
760.15	229.58
760.47	229.38
760.80	229.12
761.13	228.96
761.45	228.77
761.78	228.59
762.11	228.42
762.43	228.25
762.76	228.08
763.08	227.91
763.41	227.75
763.74	227.60
764.06	227.44
764.39	227.29
764.71	227.14
765.04	226.97
765.37	226.83
765.69	226.66
766.02	226.55
766.34	226.39
766.67	226.16
767.00	226.06
767.32	226.05
767.65	226.03
767.97	225.85
768.30	225.75
768.62	225.63
768.95	225.48
769.27	225.33
769.60	225.25
769.92	225.12
770.25	224.95
770.57	224.78
770.90	224.65
771.22	224.50
771.55	224.39
771.87	224.29
772.20	224.14
772.52	224.20
772.85	224.32
773.17	224.21
773.50	224.09
773.82	223.94
774.15	223.73
774.47	223.52
774.80	223.41
775.12	223.32
775.45	223.20
775.77	223.11
776.09	223.07
776.42	222.94
776.74	222.91
777.07	222.79
777.39	222.70
777.72	222.62
778.04	222.59
778.36	222.50
778.69	222.44
779.01	222.42
779.33	222.20
779.66	221.88
779.98	221.80
780.31	221.74
780.63	221.76
780.95	221.74
781.28	221.68
781.60	221.57
781.92	221.48
782.25	221.43
782.57	221.35
782.89	221.25
783.22	221.18
783.54	221.12
783.86	221.10
784.19	221.07
784.51	221.06
784.83	220.96
785.16	220.89
785.48	220.82
785.80	220.74
786.12	220.70
786.45	220.65
786.77	220.62
787.09	220.55
787.42	220.43
787.74	220.38
788.06	220.32
788.38	220.27
788.71	220.19
789.03	220.14
789.35	220.12
789.67	220.07
789.99	220.03
790.32	219.90
790.64	219.90
790.96	220.01
791.28	219.87
791.61	219.82
791.93	219.78
792.25	219.69
792.57	219.79
792.89	219.68
793.21	219.66
793.54	219.58
793.86	219.51
794.18	219.46
794.50	219.35
794.82	219.32
795.14	219.29
795.47	219.30
795.79	219.26
796.11	219.21
796.43	219.12
796.75	219.07
797.07	219.07
797.39	218.99
797.71	218.80
798.04	218.79
798.36	218.77
798.68	218.75
799.00	218.76
799.32	218.61
799.64	218.63
799.96	218.57
800.28	218.57
800.60	218.52
800.92	218.51
801.24	218.47
801.56	218.46
801.89	218.42
802.21	218.36
802.53	218.30
802.85	218.29
803.17	218.39
803.49	218.32
803.81	218.27
804.13	218.23
804.45	218.18
804.77	218.15
805.09	218.11
805.41	218.04
805.73	217.95
806.05	217.86
806.37	217.83
806.69	217.79
807.01	217.77
807.33	217.78
807.65	217.67
807.97	217.75
808.28	217.70
808.60	217.69
808.92	217.66
809.24	217.77
809.56	217.71
809.88	217.59
810.20	217.59
810.52	217.57
810.84	217.50
811.16	217.44
811.48	217.43
811.80	217.45
812.12	217.43
812.43	217.46
812.75	217.45
813.07	217.36
813.39	217.35
813.71	217.29
814.03	217.24
814.35	217.20
814.67	217.07
814.98	217.05
815.30	217.00
815.62	216.92
815.94	216.74
816.26	216.72
816.58	216.67
816.89	216.64
817.21	216.59
817.53	216.59
817.85	216.60
818.17	216.57
818.48	216.47
818.80	216.48
819.12	216.43
819.44	216.37
819.76	216.33
820.07	216.32
820.39	216.24
820.71	216.24
821.03	216.24
821.34	216.24
821.66	216.23
821.98	216.24
822.30	216.23
822.61	216.38
822.93	216.33
823.25	216.29
823.57	216.26
823.88	216.31
824.20	216.29
824.52	216.27
824.83	216.24
825.15	216.22
825.47	216.18
825.79	216.18
826.10	216.17
826.42	216.15
826.74	216.13
827.05	216.13
827.37	216.14
827.69	216.12
828.00	216.07
828.32	216.08
828.64	216.03
828.95	216.14
829.27	216.05
829.58	216.06
829.90	216.08
830.22	216.09
830.53	216.02
830.85	216.00
831.17	215.96
831.48	215.95
831.80	215.95
832.11	215.93
832.43	215.89
832.75	215.90
833.06	216.04
833.38	216.00
833.69	215.99
834.01	215.99
834.32	215.97
834.64	215.96
834.96	215.92
835.27	215.90
835.59	215.84
835.90	215.77
836.22	215.75
836.53	215.70
836.85	215.67
837.16	215.86
837.48	215.86
837.79	215.94
838.11	215.96
838.42	215.96
838.74	215.98
839.05	215.96
839.37	215.92
839.68	215.79
840.00	215.75
840.31	215.78
840.63	215.72
840.94	215.71
841.26	215.69
841.57	215.68
841.88	215.73
842.20	215.67
842.51	215.66
842.83	215.65
843.14	215.84
843.46	215.84
843.77	215.71
844.08	215.69
844.40	215.63
844.71	215.62
845.03	215.60
845.34	215.56
845.65	215.57
845.97	215.59
846.28	215.60
846.60	215.64
846.91	215.60
847.22	215.64
847.54	215.67
847.85	215.67
848.16	215.68
848.48	215.62
848.79	215.71
849.10	215.71
849.42	215.72
849.73	215.53
850.04	215.52
850.36	215.46
850.67	215.44
850.98	215.46
851.30	215.43
851.61	215.40
851.92	215.41
852.23	215.46
852.55	215.45
852.86	215.45
853.17	215.43
853.49	215.48
853.80	215.49
854.11	215.48
854.42	215.51
854.74	215.49
855.05	215.47
855.36	215.35
855.67	215.34
855.99	215.29
856.30	215.54
856.61	215.54
856.92	215.53
857.23	215.55
857.55	215.52
857.86	215.50
858.17	215.54
858.48	215.50
858.79	215.45
859.11	215.44
859.42	215.44
859.73	215.44
860.04	215.40
860.35	215.33
860.66	215.29
860.98	215.31
861.29	215.32
861.60	215.33
861.91	215.37
862.22	215.35
862.53	215.34
862.84	215.06
863.16	215.10
863.47	215.06
863.78	215.01
864.09	215.03
864.40	215.05
864.71	215.05
865.02	215.09
865.33	215.08
865.64	215.04
865.95	215.01
866.27	215.12
866.58	215.11
866.89	215.14
867.20	215.13
867.51	215.05
867.82	215.00
868.13	215.07
868.44	215.02
868.75	215.04
869.06	215.06
869.37	215.10
869.68	215.04
869.99	215.09
870.30	215.11
870.61	215.08
870.92	215.03
871.23	215.00
871.54	215.00
871.85	215.05
872.16	215.05
872.47	215.04
872.78	214.90
873.09	214.92
873.40	214.90
873.71	214.93
874.02	214.92
874.33	214.94
874.64	214.87
874.95	214.88
875.26	214.89
875.56	214.87
875.87	214.87
876.18	214.86
876.49	215.05
876.80	215.02
877.11	215.00
877.42	215.00
877.73	215.01
878.04	214.95
878.35	214.92
878.66	214.96
878.96	214.96
879.27	214.97
879.58	214.96
879.89	214.95
880.20	215.00
880.51	215.04
880.82	215.01
881.12	215.07
881.43	215.06
881.74	215.01
882.05	215.01
882.36	215.03
882.67	215.05
882.97	214.79
883.28	214.79
883.59	214.80
883.90	214.84
884.21	214.88
884.51	214.93
884.82	214.91
885.13	214.90
885.44	214.88
885.74	214.89
886.05	214.87
886.36	214.89
886.67	214.82
886.98	214.89
887.28	214.95
887.59	214.90
887.90	214.91
888.20	214.93
888.51	214.98
888.82	214.93
889.13	214.94
889.43	215.14
889.74	215.15
890.05	215.16
890.35	215.15
890.66	215.07
890.97	215.03
891.28	215.03
891.58	214.99
891.89	214.99
892.20	214.99
892.50	214.98
892.81	214.96
893.12	214.91
893.42	214.85
893.73	214.83
894.04	214.86
894.34	214.85
894.65	214.84
894.95	214.80
895.26	214.82
895.57	214.94
895.87	214.76
896.18	214.76
896.48	214.81
896.79	214.84
897.10	214.90
897.40	214.93
897.71	214.95
898.01	214.97
898.32	215.00
898.63	214.96
898.93	214.98
899.24	214.95
899.54	214.97
899.85	214.92
900.15	214.94
900.46	214.95
900.76	214.97
901.07	214.95
901.38	214.95
901.68	214.97
901.99	214.82
902.29	214.84
902.60	214.83
902.90	214.77
903.21	214.73
903.51	214.72
903.82	214.73
904.12	214.71
904.43	214.72
904.73	214.74
905.03	214.77
905.34	214.94
905.64	214.97
905.95	214.95
906.25	214.98
906.56	214.96
906.86	214.91
907.17	214.93
907.47	214.91
907.77	214.89
908.08	214.85
908.38	214.88
908.69	214.91
908.99	214.96
909.30	214.98
909.60	214.97
909.90	214.97
910.21	214.92
910.51	214.88
910.81	214.89
911.12	214.87
911.42	214.86
911.73	214.66
912.03	214.68
912.33	214.73
912.64	214.74
912.94	214.69
913.24	214.69
913.55	214.64
913.85	214.68
914.15	214.71
914.46	214.73
914.76	214.68
915.06	214.65
915.37	214.60
915.67	214.59
915.97	214.59
916.27	214.53
916.58	214.51
916.88	214.53
917.18	214.51
917.49	214.65
917.79	214.61
918.09	214.64
918.39	214.68
918.70	214.67
919.00	214.66
919.30	214.74
919.60	214.71
919.91	214.67
920.21	214.70
920.51	214.67
920.81	214.66
921.12	214.72
921.42	214.68
921.72	214.68
922.02	214.70
922.32	214.73
922.63	214.75
922.93	214.86
923.23	214.90
923.53	214.88
923.83	214.75
924.13	214.79
924.44	214.77
924.74	214.78
925.04	214.81
925.34	214.79
925.64	214.72
925.94	214.74
926.24	214.88
926.55	214.86
926.85	214.89
927.15	214.89
927.45	214.87
927.75	214.88
928.05	214.89
928.35	214.86
928.65	214.88
928.95	214.88
929.26	214.80
929.56	214.83
929.86	214.86
930.16	214.84
930.46	214.83
930.76	214.86
931.06	214.76
931.36	214.70
931.66	214.72
931.96	214.73
932.26	214.74
932.56	214.64
932.86	214.60
933.16	214.59
933.46	214.57
933.76	214.56
934.06	214.62
934.36	214.65
934.66	214.65
934.96	214.62
935.26	214.64
935.56	214.68
935.86	214.62
936.16	214.60
936.46	214.58
936.76	214.56
937.06	214.52
937.36	214.53
937.66	214.53
937.96	214.53
938.26	214.49
938.56	214.47
938.86	214.47
939.16	214.55
939.46	214.56
939.76	214.56
940.06	214.53
940.35	214.48
940.65	214.38
940.95	214.41
941.25	214.38
941.55	214.36
941.85	214.33
942.15	214.35
942.45	214.39
942.75	214.39
943.04	214.41
943.34	214.47
943.64	214.48
943.94	214.50
944.24	214.51
944.54	214.55
944.84	214.54
945.13	214.49
945.43	214.42
945.73	214.42
946.03	214.39
946.33	214.40
946.62	214.37
946.92	214.35
947.22	214.36
947.52	214.35
947.82	214.37
948.11	214.33
948.41	214.30
948.71	214.24
949.01	214.27
949.31	214.25
949.60	214.21
949.90	214.23
950.20	214.21
950.50	214.21
950.79	214.21
951.09	214.23
951.39	214.26
951.69	214.25
951.98	214.27
952.28	214.31
952.58	214.29
952.87	214.29
953.17	214.34
953.47	214.30
953.76	214.33
954.06	214.30
954.36	214.28
954.66	214.27
954.95	214.33
955.25	214.30
955.55	214.32
955.84	214.31
956.14	214.30
956.44	214.32
956.73	214.28
957.03	214.29
957.32	214.31
957.62	214.31
957.92	214.38
958.21	214.36
958.51	214.59
958.81	214.62
959.10	214.68
959.40	214.73
959.69	214.75
959.99	214.76
960.29	214.77
960.58	214.76
960.88	214.86
961.17	214.83
961.47	214.84
961.76	214.79
962.06	214.79
962.36	214.79
962.65	214.80
962.95	214.80
963.24	214.76
963.54	214.75
963.83	214.73
964.13	214.70
964.42	214.64
964.72	214.47
965.01	214.46
965.31	214.44
965.60	214.41
965.90	214.54
966.19	214.49
966.49	214.49
966.78	214.52
967.08	214.49
967.37	214.48
967.67	214.46
967.96	214.55
968.26	214.52
968.55	214.57
968.85	214.55
969.14	214.57
969.43	214.58
969.73	214.56
970.02	214.58
970.32	214.56
970.61	214.57
970.91	214.51
971.20	214.47
971.49	214.46
971.79	214.49
972.08	214.37
972.38	214.41
972.67	214.39
972.96	214.43
973.26	214.39
973.55	214.45
973.85	214.46
974.14	214.40
974.43	214.46
974.73	214.40
975.02	214.37
975.31	214.38
975.61	214.39
975.90	214.38
976.19	214.35
976.49	214.38
976.78	214.40
977.07	214.39
977.37	214.42
977.66	214.43
977.95	214.38
978.24	214.36
978.54	214.36
978.83	214.35
979.12	214.33
979.42	214.31
979.71	214.30
980.00	214.31
980.29	214.32
980.59	214.28
980.88	214.30
981.17	214.32
981.46	214.30
981.76	214.29
982.05	214.39
982.34	214.41
982.63	214.40
982.93	214.38
983.22	214.45
983.51	214.44
983.80	214.48
984.09	214.52
984.39	214.50
984.68	214.47
984.97	214.47
985.26	214.44
985.55	214.45
985.85	214.39
986.14	214.41
986.43	214.46
986.72	214.45
987.01	214.42
987.30	214.42
987.59	214.40
987.89	214.39
988.18	214.30
988.47	214.27
988.76	214.25
989.05	214.26
989.34	214.24
989.63	214.30
989.92	214.24
990.22	214.20
990.51	214.22
990.80	214.23
991.09	214.23
991.38	214.27
991.67	214.26
991.96	214.28
992.25	214.27
992.54	214.24
992.83	214.24
993.12	214.21
993.41	214.25
993.70	214.32
993.99	214.38
994.28	214.42
994.58	214.44
994.87	214.44
995.16	214.44
995.45	214.42
995.74	214.36
996.03	214.41
996.32	214.48
996.61	214.52
996.90	214.52
997.19	214.53
997.48	214.52
997.77	214.50
998.06	214.50
998.34	214.47
998.63	214.43
998.92	214.41
999.21	214.48
999.50	214.45
999.79	214.38
1000.08	214.36
1000.37	214.38
1000.66	214.35
1000.95	214.42
1001.24	214.40
1001.53	214.39
1001.82	214.39
1002.11	214.30
1002.40	214.28
1002.68	214.31
1002.97	214.47
1003.26	214.45
1003.55	214.42
1003.84	214.45
1004.13	214.54
1004.42	214.58
1004.71	214.60
1004.99	214.61
1005.28	214.65
1005.57	214.64
1005.86	214.63
1006.15	214.61
1006.44	214.54
1006.72	214.58
1007.01	214.52
1007.30	214.52
1007.59	214.48
1007.88	214.47
1008.17	214.51
1008.45	214.48
1008.74	214.39
1009.03	214.27
1009.32	214.28
1009.60	214.27
1009.89	214.26
1010.18	214.16
1010.47	214.11
1010.76	214.11
1011.04	214.12
1011.33	214.14
1011.62	214.15
1011.91	214.19
1012.19	214.21
1012.48	214.21
1012.77	214.24
1013.05	214.35
1013.34	214.38
1013.63	214.42
1013.92	214.43
1014.20	214.41
1014.49	214.42
1014.78	214.46
1015.06	214.35
1015.35	214.33
1015.64	214.35
1015.92	214.38
1016.21	214.36
1016.50	214.38
1016.78	214.42
1017.07	214.42
1017.36	214.35
1017.64	214.33
1017.93	214.34
1018.22	214.32
1018.50	214.34
1018.79	214.31
1019.08	214.20
1019.36	214.20
1019.65	214.18
1019.93	214.23
1020.22	214.26
1020.51	214.37
1020.79	214.34
1021.08	214.14
1021.36	214.00
1021.65	214.37
1021.94	214.28
1022.22	214.54
1022.51	214.05
1022.79	215.08
1023.08	214.24
1023.36	216.80
1023.65	213.92
>>>>>End Processed Spectral Data<<<<<
