SpectraSuite Data File
++++++++++++++++++++++++++++++++++++
Date: Tue Jan 29 16:08:09 EST 2013
User: group
Dark Spectrum Present: No
Reference Spectrum Present: No
Number of Sampled Component Spectra: 1
Spectrometers: USB2E7196
Integration Time (usec): 65000 (USB2E7196)
Spectra Averaged: 100 (USB2E7196)
Boxcar Smoothing: 10 (USB2E7196)
Correct for Electrical Dark: No (USB2E7196)
Strobe/Lamp Enabled: No (USB2E7196)
Correct for Detector Non-linearity: No (USB2E7196)
Correct for Stray Light: No (USB2E7196)
Number of Pixels in Processed Spectrum: 2048
>>>>>Begin Processed Spectral Data<<<<<
339.09	0.00
339.48	201.99
339.86	203.69
340.24	205.83
340.63	206.22
341.01	211.22
341.39	209.14
341.78	211.26
342.16	212.72
342.54	212.40
342.93	201.61
343.31	211.80
343.69	212.40
344.07	212.89
344.46	213.33
344.84	213.76
345.22	213.95
345.60	214.23
345.99	214.40
346.37	214.53
346.75	214.66
347.13	214.76
347.52	214.85
347.90	215.00
348.28	215.03
348.66	215.10
349.05	215.10
349.43	215.17
349.81	215.27
350.19	215.33
350.57	215.45
350.96	215.56
351.34	215.70
351.72	215.77
352.10	215.91
352.48	215.98
352.87	216.02
353.25	216.11
353.63	216.19
354.01	216.29
354.39	216.38
354.77	216.44
355.15	216.58
355.54	216.66
355.92	216.66
356.30	216.74
356.68	216.96
357.06	217.05
357.44	217.08
357.82	217.14
358.20	217.24
358.58	217.27
358.97	217.34
359.35	217.41
359.73	217.51
360.11	217.54
360.49	217.59
360.87	217.66
361.25	217.70
361.63	217.80
362.01	217.86
362.39	217.87
362.77	217.95
363.15	217.95
363.53	217.98
363.91	218.02
364.29	218.06
364.67	217.90
365.05	217.90
365.43	217.93
365.81	217.99
366.19	218.08
366.57	218.18
366.95	218.17
367.33	218.16
367.71	218.17
368.09	218.19
368.47	218.23
368.85	218.20
369.23	218.23
369.61	218.17
369.99	218.23
370.37	218.23
370.75	218.28
371.13	218.25
371.51	218.20
371.89	218.19
372.27	218.15
372.65	218.11
373.03	218.09
373.41	218.05
373.78	217.98
374.16	217.83
374.54	217.68
374.92	217.62
375.30	217.56
375.68	217.45
376.06	217.44
376.44	217.38
376.82	217.38
377.19	217.30
377.57	217.23
377.95	217.10
378.33	217.01
378.71	216.89
379.09	216.89
379.47	216.87
379.84	216.83
380.22	216.75
380.60	216.69
380.98	216.65
381.36	216.56
381.73	216.49
382.11	216.50
382.49	216.52
382.87	216.47
383.25	216.41
383.62	216.65
384.00	216.55
384.38	216.48
384.76	216.46
385.13	216.52
385.51	216.51
385.89	216.45
386.27	216.46
386.64	216.42
387.02	216.34
387.40	216.28
387.78	216.25
388.15	216.26
388.53	216.26
388.91	216.26
389.29	216.29
389.66	216.29
390.04	216.24
390.42	216.22
390.79	216.24
391.17	216.22
391.55	215.95
391.92	215.94
392.30	215.96
392.68	215.91
393.05	215.90
393.43	215.90
393.81	215.92
394.18	215.87
394.56	215.85
394.94	215.88
395.31	215.89
395.69	215.90
396.06	215.93
396.44	215.95
396.82	215.96
397.19	216.07
397.57	216.08
397.95	216.15
398.32	216.16
398.70	216.18
399.07	216.29
399.45	216.34
399.82	216.40
400.20	216.44
400.58	216.51
400.95	216.48
401.33	216.55
401.70	216.79
402.08	216.88
402.45	217.00
402.83	217.12
403.20	217.25
403.58	217.37
403.95	217.50
404.33	217.66
404.71	217.76
405.08	218.02
405.46	218.18
405.83	218.35
406.21	218.52
406.58	218.77
406.96	218.98
407.33	219.23
407.70	219.50
408.08	219.96
408.45	220.29
408.83	220.67
409.20	221.04
409.58	221.30
409.95	221.75
410.33	222.22
410.70	222.61
411.08	223.14
411.45	223.65
411.82	224.25
412.20	224.90
412.57	225.71
412.95	226.23
413.32	227.04
413.69	227.84
414.07	228.74
414.44	229.67
414.82	230.63
415.19	231.81
415.56	232.96
415.94	234.05
416.31	235.40
416.68	236.74
417.06	238.26
417.43	239.74
417.81	241.42
418.18	243.15
418.55	245.04
418.93	246.97
419.30	249.03
419.67	251.18
420.04	253.36
420.42	255.67
420.79	258.41
421.16	261.08
421.54	263.87
421.91	266.74
422.28	269.71
422.66	272.87
423.03	276.03
423.40	279.29
423.77	282.82
424.15	286.36
424.52	290.10
424.89	294.13
425.26	298.07
425.64	301.84
426.01	305.94
426.38	310.24
426.75	314.70
427.13	319.23
427.50	324.01
427.87	329.04
428.24	334.04
428.61	338.85
428.99	344.22
429.36	350.03
429.73	355.72
430.10	361.38
430.47	367.28
430.85	373.31
431.22	379.76
431.59	386.57
431.96	393.18
432.33	400.37
432.70	407.39
433.08	415.66
433.45	423.46
433.82	431.19
434.19	439.85
434.56	448.22
434.93	456.29
435.30	464.27
435.68	473.13
436.05	481.79
436.42	490.38
436.79	498.23
437.16	506.69
437.53	515.60
437.90	524.51
438.27	533.18
438.64	542.07
439.01	550.37
439.38	557.68
439.75	564.73
440.13	572.86
440.50	580.52
440.87	586.69
441.24	593.03
441.61	600.16
441.98	605.29
442.35	611.40
442.72	617.45
443.09	623.34
443.46	626.91
443.83	629.32
444.20	631.41
444.57	634.40
444.94	635.76
445.31	637.22
445.68	638.49
446.05	639.03
446.42	638.25
446.79	637.24
447.16	636.25
447.53	635.47
447.90	632.28
448.27	629.12
448.64	624.57
449.01	621.36
449.37	615.68
449.74	610.21
450.11	603.46
450.48	596.38
450.85	589.17
451.22	582.92
451.59	577.03
451.96	571.43
452.33	563.85
452.70	557.07
453.07	548.85
453.43	540.56
453.80	532.57
454.17	524.88
454.54	517.55
454.91	509.66
455.28	501.96
455.65	494.80
456.02	487.57
456.38	481.56
456.75	473.99
457.12	467.67
457.49	461.42
457.86	455.52
458.23	450.36
458.59	444.65
458.96	438.91
459.33	433.79
459.70	428.60
460.07	424.55
460.43	419.80
460.80	415.45
461.17	411.64
461.54	407.57
461.91	403.71
462.27	399.78
462.64	396.47
463.01	392.83
463.38	389.27
463.74	385.67
464.11	382.54
464.48	379.86
464.85	376.85
465.21	374.49
465.58	371.97
465.95	368.91
466.32	366.38
466.68	363.81
467.05	361.36
467.42	358.93
467.78	356.35
468.15	353.89
468.52	352.03
468.88	349.60
469.25	347.50
469.62	345.76
469.98	343.90
470.35	342.18
470.72	340.63
471.08	338.94
471.45	337.50
471.82	335.98
472.18	334.35
472.55	333.20
472.92	331.86
473.28	330.71
473.65	329.67
474.02	328.60
474.38	327.78
474.75	327.07
475.11	326.29
475.48	325.73
475.85	325.29
476.21	324.84
476.58	324.53
476.94	324.33
477.31	324.07
477.67	323.87
478.04	323.73
478.41	323.70
478.77	323.89
479.14	323.87
479.50	324.08
479.87	324.39
480.23	324.79
480.60	325.08
480.96	325.38
481.33	325.95
481.69	326.57
482.06	327.13
482.42	327.58
482.79	328.20
483.15	329.01
483.52	330.02
483.88	330.92
484.25	331.87
484.61	332.92
484.98	333.97
485.34	335.30
485.71	336.69
486.07	338.09
486.44	339.40
486.80	341.00
487.17	342.66
487.53	344.49
487.90	346.32
488.26	348.29
488.62	350.47
488.99	352.50
489.35	354.68
489.72	357.08
490.08	359.65
490.44	362.24
490.81	364.95
491.17	367.60
491.54	370.58
491.90	373.62
492.26	376.86
492.63	380.23
492.99	383.71
493.36	387.40
493.72	391.32
494.08	395.36
494.45	399.61
494.81	403.98
495.17	408.39
495.54	413.05
495.90	417.93
496.26	422.77
496.63	427.99
496.99	433.35
497.35	438.84
497.72	444.61
498.08	450.56
498.44	456.61
498.80	463.02
499.17	469.51
499.53	476.12
499.89	482.91
500.26	489.82
500.62	496.87
500.98	504.22
501.34	511.61
501.71	519.28
502.07	527.02
502.43	534.97
502.79	543.12
503.16	551.43
503.52	559.93
503.88	568.66
504.24	577.57
504.60	586.56
504.97	595.79
505.33	605.03
505.69	614.77
506.05	624.63
506.41	634.45
506.78	644.44
507.14	654.70
507.50	665.14
507.86	675.86
508.22	686.58
508.59	697.23
508.95	708.26
509.31	719.51
509.67	730.90
510.03	742.25
510.39	753.97
510.75	765.80
511.12	777.72
511.48	789.76
511.84	801.95
512.20	814.25
512.56	826.81
512.92	839.41
513.28	851.87
513.64	864.51
514.00	877.18
514.37	889.98
514.73	902.93
515.09	915.76
515.45	928.50
515.81	941.39
516.17	954.59
516.53	967.69
516.89	980.65
517.25	993.76
517.61	1007.15
517.97	1020.28
518.33	1033.23
518.69	1046.50
519.05	1059.98
519.41	1073.39
519.77	1086.99
520.13	1100.14
520.49	1113.24
520.85	1126.55
521.21	1139.74
521.57	1153.28
521.93	1166.17
522.29	1179.75
522.65	1193.17
523.01	1206.53
523.37	1219.44
523.73	1232.48
524.09	1245.44
524.45	1258.56
524.81	1271.75
525.17	1284.85
525.53	1297.80
525.89	1310.75
526.25	1323.67
526.61	1336.19
526.97	1349.09
527.33	1361.69
527.68	1374.85
528.04	1388.04
528.40	1400.90
528.76	1413.88
529.12	1426.57
529.48	1439.58
529.84	1451.59
530.20	1464.25
530.56	1476.72
530.91	1489.76
531.27	1502.18
531.63	1514.67
531.99	1527.12
532.35	1539.09
532.71	1551.20
533.07	1563.71
533.42	1575.74
533.78	1587.55
534.14	1599.41
534.50	1610.40
534.86	1621.77
535.21	1632.33
535.57	1643.46
535.93	1654.37
536.29	1665.24
536.65	1676.19
537.00	1686.89
537.36	1697.91
537.72	1708.46
538.08	1719.41
538.44	1729.80
538.79	1740.68
539.15	1751.21
539.51	1761.61
539.87	1772.68
540.22	1783.11
540.58	1793.68
540.94	1804.20
541.29	1814.07
541.65	1823.64
542.01	1833.81
542.37	1843.52
542.72	1853.46
543.08	1862.99
543.44	1873.18
543.79	1882.31
544.15	1891.53
544.51	1901.26
544.87	1910.86
545.22	1919.71
545.58	1928.29
545.94	1937.17
546.29	1945.61
546.65	1953.76
547.01	1961.82
547.36	1969.19
547.72	1976.84
548.07	1984.43
548.43	1992.02
548.79	1999.81
549.14	2007.71
549.50	2015.78
549.86	2023.41
550.21	2030.63
550.57	2038.01
550.92	2044.57
551.28	2051.70
551.64	2058.84
551.99	2066.13
552.35	2073.09
552.70	2079.81
553.06	2086.37
553.41	2092.48
553.77	2098.64
554.13	2104.75
554.48	2111.64
554.84	2118.58
555.19	2124.99
555.55	2131.19
555.90	2137.14
556.26	2143.70
556.61	2149.51
556.97	2154.42
557.32	2160.27
557.68	2166.44
558.03	2172.24
558.39	2177.47
558.74	2183.37
559.10	2188.93
559.45	2194.42
559.81	2199.83
560.16	2205.43
560.52	2211.32
560.87	2217.67
561.23	2223.63
561.58	2230.29
561.94	2235.32
562.29	2240.12
562.64	2246.13
563.00	2251.70
563.35	2257.53
563.71	2263.47
564.06	2269.04
564.42	2274.89
564.77	2279.97
565.12	2285.17
565.48	2290.38
565.83	2295.96
566.19	2301.66
566.54	2306.92
566.89	2311.64
567.25	2316.28
567.60	2322.00
567.96	2327.21
568.31	2331.82
568.66	2336.16
569.02	2340.06
569.37	2344.03
569.72	2348.30
570.08	2351.90
570.43	2355.03
570.78	2358.01
571.14	2360.58
571.49	2363.89
571.84	2367.48
572.20	2370.37
572.55	2373.58
572.90	2375.74
573.26	2378.72
573.61	2380.90
573.96	2383.07
574.31	2385.07
574.67	2387.00
575.02	2387.94
575.37	2389.27
575.72	2390.26
576.08	2391.99
576.43	2392.56
576.78	2393.31
577.13	2395.34
577.49	2396.48
577.84	2397.91
578.19	2399.51
578.54	2400.27
578.90	2401.46
579.25	2401.54
579.60	2401.77
579.95	2401.32
580.30	2401.86
580.66	2401.26
581.01	2399.90
581.36	2398.07
581.71	2396.96
582.06	2396.33
582.42	2395.65
582.77	2393.83
583.12	2392.47
583.47	2391.17
583.82	2390.65
584.17	2389.53
584.53	2387.40
584.88	2385.63
585.23	2383.81
585.58	2381.87
585.93	2379.95
586.28	2377.80
586.63	2375.82
586.98	2373.76
587.34	2371.87
587.69	2369.78
588.04	2367.99
588.39	2366.78
588.74	2364.47
589.09	2362.15
589.44	2359.21
589.79	2356.97
590.14	2355.33
590.49	2352.53
590.84	2348.98
591.19	2346.17
591.54	2342.95
591.89	2339.02
592.25	2336.03
592.60	2332.06
592.95	2328.00
593.30	2323.96
593.65	2319.73
594.00	2315.42
594.35	2312.45
594.70	2308.00
595.05	2303.39
595.40	2298.20
595.75	2292.74
596.10	2289.25
596.45	2284.16
596.80	2279.58
597.15	2274.42
597.50	2268.55
597.85	2263.80
598.19	2258.65
598.54	2252.79
598.89	2248.01
599.24	2243.70
599.59	2237.61
599.94	2232.07
600.29	2226.32
600.64	2220.51
600.99	2213.99
601.34	2208.48
601.69	2201.60
602.04	2195.41
602.39	2188.91
602.74	2182.97
603.08	2177.42
603.43	2170.83
603.78	2164.28
604.13	2157.32
604.48	2150.19
604.83	2144.16
605.18	2137.67
605.53	2130.67
605.87	2123.88
606.22	2116.94
606.57	2108.98
606.92	2101.12
607.27	2094.06
607.62	2087.52
607.96	2080.51
608.31	2073.95
608.66	2066.30
609.01	2058.77
609.36	2051.71
609.70	2044.03
610.05	2036.35
610.40	2028.22
610.75	2020.12
611.10	2012.63
611.44	2003.90
611.79	1995.17
612.14	1985.24
612.49	1975.00
612.83	1966.02
613.18	1956.90
613.53	1947.54
613.88	1938.11
614.22	1929.57
614.57	1919.78
614.92	1909.27
615.27	1899.28
615.61	1889.36
615.96	1879.61
616.31	1870.18
616.65	1860.64
617.00	1850.76
617.35	1841.08
617.70	1831.28
618.04	1821.13
618.39	1810.74
618.74	1801.12
619.08	1791.72
619.43	1783.01
619.78	1774.70
620.12	1765.90
620.47	1756.11
620.82	1745.89
621.16	1736.13
621.51	1726.12
621.85	1716.26
622.20	1705.69
622.55	1695.14
622.89	1685.25
623.24	1675.65
623.59	1665.73
623.93	1655.64
624.28	1646.01
624.62	1635.73
624.97	1625.48
625.32	1615.89
625.66	1607.14
626.01	1598.29
626.35	1588.71
626.70	1578.51
627.04	1568.41
627.39	1558.48
627.73	1549.15
628.08	1540.10
628.43	1530.48
628.77	1521.31
629.12	1512.50
629.46	1504.79
629.81	1496.38
630.15	1486.75
630.50	1476.86
630.84	1466.56
631.19	1456.69
631.53	1447.23
631.88	1437.20
632.22	1427.15
632.57	1417.63
632.91	1407.41
633.26	1397.57
633.60	1388.12
633.95	1378.87
634.29	1369.48
634.64	1360.01
634.98	1350.12
635.32	1340.96
635.67	1332.45
636.01	1323.24
636.36	1313.38
636.70	1303.83
637.05	1294.36
637.39	1285.40
637.73	1276.86
638.08	1269.24
638.42	1261.05
638.77	1252.28
639.11	1243.98
639.45	1236.18
639.80	1227.52
640.14	1218.86
640.49	1209.81
640.83	1201.02
641.17	1192.98
641.52	1184.65
641.86	1176.16
642.20	1168.35
642.55	1159.70
642.89	1150.79
643.23	1142.11
643.58	1134.07
643.92	1125.07
644.26	1116.46
644.61	1107.98
644.95	1099.23
645.29	1089.92
645.64	1080.69
645.98	1072.44
646.32	1064.59
646.66	1056.04
647.01	1047.74
647.35	1039.64
647.69	1031.35
648.04	1023.01
648.38	1014.08
648.72	1005.35
649.06	996.87
649.41	988.71
649.75	980.80
650.09	973.05
650.43	965.01
650.78	956.82
651.12	949.08
651.46	941.82
651.80	934.60
652.14	927.23
652.49	919.80
652.83	912.60
653.17	904.83
653.51	897.17
653.85	889.97
654.20	882.73
654.54	875.13
654.88	868.05
655.22	860.89
655.56	853.99
655.90	847.32
656.25	840.68
656.59	833.65
656.93	826.70
657.27	819.60
657.61	812.78
657.95	806.65
658.29	800.89
658.64	794.75
658.98	788.40
659.32	781.92
659.66	775.74
660.00	769.43
660.34	763.47
660.68	757.35
661.02	751.11
661.36	745.33
661.70	739.69
662.05	734.07
662.39	728.64
662.73	723.32
663.07	717.96
663.41	712.47
663.75	706.92
664.09	701.33
664.43	696.00
664.77	690.59
665.11	684.80
665.45	678.82
665.79	673.06
666.13	667.41
666.47	661.92
666.81	656.51
667.15	651.22
667.49	646.07
667.83	640.90
668.17	635.75
668.51	630.63
668.85	625.77
669.19	620.91
669.53	615.97
669.87	610.88
670.21	606.17
670.55	601.47
670.89	597.13
671.23	592.88
671.57	588.50
671.91	584.31
672.25	580.26
672.58	576.26
672.92	572.26
673.26	568.42
673.60	564.64
673.94	560.92
674.28	557.30
674.62	553.59
674.96	549.89
675.30	546.46
675.64	542.89
675.97	539.33
676.31	535.74
676.65	532.19
676.99	528.79
677.33	525.02
677.67	521.36
678.01	517.55
678.34	513.94
678.68	510.43
679.02	506.82
679.36	503.19
679.70	499.61
680.04	496.13
680.37	492.74
680.71	489.48
681.05	486.32
681.39	483.17
681.73	480.07
682.06	477.15
682.40	474.10
682.74	470.91
683.08	467.77
683.42	464.70
683.75	461.74
684.09	458.75
684.43	455.96
684.77	453.09
685.10	450.28
685.44	447.36
685.78	444.53
686.12	441.86
686.45	439.17
686.79	436.56
687.13	434.02
687.46	431.49
687.80	428.86
688.14	426.06
688.48	423.49
688.81	420.83
689.15	418.28
689.49	415.72
689.82	413.32
690.16	410.80
690.50	408.34
690.83	405.91
691.17	403.44
691.51	401.05
691.84	398.89
692.18	396.70
692.52	394.59
692.85	392.52
693.19	390.42
693.52	388.30
693.86	386.11
694.20	383.95
694.53	381.81
694.87	379.66
695.21	377.61
695.54	375.49
695.88	373.40
696.21	371.22
696.55	369.13
696.88	367.06
697.22	365.15
697.56	363.37
697.89	361.52
698.23	359.80
698.56	358.03
698.90	356.30
699.23	354.42
699.57	352.58
699.90	350.74
700.24	348.99
700.58	347.28
700.91	345.68
701.25	344.17
701.58	342.63
701.92	341.10
702.25	339.57
702.59	337.97
702.92	336.49
703.26	334.98
703.59	333.59
703.93	332.39
704.26	331.00
704.60	329.47
704.93	328.05
705.26	326.62
705.60	325.19
705.93	323.70
706.27	322.44
706.60	321.24
706.94	320.06
707.27	318.71
707.61	317.39
707.94	316.08
708.27	314.61
708.61	313.15
708.94	311.80
709.28	310.53
709.61	309.38
709.94	308.17
710.28	306.98
710.61	305.77
710.95	304.36
711.28	303.27
711.61	302.15
711.95	301.05
712.28	299.88
712.61	298.74
712.95	297.73
713.28	296.72
713.61	295.58
713.95	294.46
714.28	293.47
714.61	292.46
714.95	291.47
715.28	290.47
715.61	289.52
715.95	288.58
716.28	287.64
716.61	286.67
716.95	285.70
717.28	284.84
717.61	283.90
717.94	283.06
718.28	282.06
718.61	281.17
718.94	280.25
719.27	279.40
719.61	278.59
719.94	277.71
720.27	276.74
720.60	275.96
720.94	275.19
721.27	274.41
721.60	273.74
721.93	273.02
722.27	272.41
722.60	271.75
722.93	271.07
723.26	270.39
723.59	269.73
723.93	269.14
724.26	268.51
724.59	267.91
724.92	267.32
725.25	266.86
725.59	266.32
725.92	265.80
726.25	265.26
726.58	264.72
726.91	264.16
727.24	263.68
727.57	263.08
727.91	262.46
728.24	261.95
728.57	261.35
728.90	260.82
729.23	260.20
729.56	259.76
729.89	259.24
730.22	258.71
730.55	258.20
730.89	257.71
731.22	257.16
731.55	256.63
731.88	256.09
732.21	255.51
732.54	255.01
732.87	254.53
733.20	254.07
733.53	253.60
733.86	253.16
734.19	252.66
734.52	252.25
734.85	251.99
735.18	251.52
735.51	251.18
735.84	250.76
736.17	250.40
736.50	249.89
736.83	249.74
737.16	249.36
737.49	248.98
737.82	248.57
738.15	248.23
738.48	247.86
738.81	247.48
739.14	247.12
739.47	246.74
739.80	246.36
740.13	246.02
740.46	245.66
740.79	245.29
741.12	244.97
741.45	244.61
741.78	244.17
742.11	243.91
742.44	243.52
742.77	243.24
743.10	242.88
743.43	242.53
743.75	241.96
744.08	241.92
744.41	241.57
744.74	241.20
745.07	240.85
745.40	240.57
745.73	240.37
746.06	240.04
746.39	239.76
746.71	239.44
747.04	239.09
747.37	238.76
747.70	238.49
748.03	238.18
748.36	237.91
748.68	237.60
749.01	237.23
749.34	236.97
749.67	236.63
750.00	236.39
750.33	236.30
750.65	236.06
750.98	235.55
751.31	235.32
751.64	235.12
751.97	235.01
752.29	234.77
752.62	234.43
752.95	234.18
753.28	233.88
753.60	233.63
753.93	233.46
754.26	233.25
754.59	232.97
754.91	232.74
755.24	232.53
755.57	232.30
755.90	232.10
756.22	231.86
756.55	231.69
756.88	231.45
757.20	231.10
757.53	230.87
757.86	230.64
758.19	230.45
758.51	230.24
758.84	229.96
759.17	229.74
759.49	229.53
759.82	229.46
760.15	229.31
760.47	229.18
760.80	228.94
761.13	228.79
761.45	228.60
761.78	228.41
762.11	228.20
762.43	227.99
762.76	227.84
763.08	227.71
763.41	227.55
763.74	227.42
764.06	227.23
764.39	227.13
764.71	226.98
765.04	226.80
765.37	226.64
765.69	226.48
766.02	226.37
766.34	226.25
766.67	226.05
767.00	225.95
767.32	225.88
767.65	225.88
767.97	225.74
768.30	225.66
768.62	225.56
768.95	225.45
769.27	225.33
769.60	225.22
769.92	225.05
770.25	224.84
770.57	224.68
770.90	224.56
771.22	224.43
771.55	224.31
771.87	224.23
772.20	224.12
772.52	224.21
772.85	224.34
773.17	224.23
773.50	224.12
773.82	224.00
774.15	223.83
774.47	223.62
774.80	223.51
775.12	223.41
775.45	223.33
775.77	223.26
776.09	223.22
776.42	223.14
776.74	223.14
777.07	223.07
777.39	223.00
777.72	222.89
778.04	222.81
778.36	222.73
778.69	222.65
779.01	222.59
779.33	222.28
779.66	221.95
779.98	221.86
780.31	221.77
780.63	221.77
780.95	221.73
781.28	221.68
781.60	221.57
781.92	221.54
782.25	221.48
782.57	221.42
782.89	221.31
783.22	221.22
783.54	221.12
783.86	221.10
784.19	221.02
784.51	221.08
784.83	220.98
785.16	220.90
785.48	220.87
785.80	220.82
786.12	220.78
786.45	220.71
786.77	220.68
787.09	220.62
787.42	220.48
787.74	220.40
788.06	220.32
788.38	220.28
788.71	220.18
789.03	220.11
789.35	220.04
789.67	219.99
789.99	219.99
790.32	219.92
790.64	219.90
790.96	220.00
791.28	219.86
791.61	219.83
791.93	219.80
792.25	219.73
792.57	219.82
792.89	219.74
793.21	219.71
793.54	219.65
793.86	219.60
794.18	219.58
794.50	219.51
794.82	219.48
795.14	219.49
795.47	219.48
795.79	219.45
796.11	219.39
796.43	219.33
796.75	219.24
797.07	219.20
797.39	219.12
797.71	218.95
798.04	218.92
798.36	218.89
798.68	218.86
799.00	218.81
799.32	218.68
799.64	218.71
799.96	218.68
800.28	218.68
800.60	218.64
800.92	218.61
801.24	218.56
801.56	218.51
801.89	218.45
802.21	218.45
802.53	218.37
802.85	218.36
803.17	218.43
803.49	218.36
803.81	218.34
804.13	218.33
804.45	218.28
804.77	218.29
805.09	218.22
805.41	218.18
805.73	218.12
806.05	218.06
806.37	218.04
806.69	218.01
807.01	217.96
807.33	217.95
807.65	217.85
807.97	217.92
808.28	217.89
808.60	217.87
808.92	217.79
809.24	217.91
809.56	217.87
809.88	217.77
810.20	217.78
810.52	217.80
810.84	217.71
811.16	217.69
811.48	217.67
811.80	217.73
812.12	217.69
812.43	217.70
812.75	217.65
813.07	217.58
813.39	217.55
813.71	217.52
814.03	217.43
814.35	217.43
814.67	217.31
814.98	217.26
815.30	217.22
815.62	217.17
815.94	217.00
816.26	217.00
816.58	216.98
816.89	216.94
817.21	216.88
817.53	216.87
817.85	216.88
818.17	216.82
818.48	216.72
818.80	216.75
819.12	216.68
819.44	216.66
819.76	216.63
820.07	216.60
820.39	216.54
820.71	216.59
821.03	216.58
821.34	216.61
821.66	216.60
821.98	216.63
822.30	216.63
822.61	216.74
822.93	216.70
823.25	216.64
823.57	216.62
823.88	216.64
824.20	216.65
824.52	216.65
824.83	216.64
825.15	216.63
825.47	216.60
825.79	216.60
826.10	216.58
826.42	216.57
826.74	216.62
827.05	216.66
827.37	216.64
827.69	216.59
828.00	216.58
828.32	216.58
828.64	216.53
828.95	216.62
829.27	216.57
829.58	216.55
829.90	216.61
830.22	216.62
830.53	216.52
830.85	216.49
831.17	216.47
831.48	216.46
831.80	216.44
832.11	216.44
832.43	216.44
832.75	216.43
833.06	216.54
833.38	216.44
833.69	216.42
834.01	216.46
834.32	216.47
834.64	216.41
834.96	216.42
835.27	216.38
835.59	216.33
835.90	216.25
836.22	216.24
836.53	216.14
836.85	216.12
837.16	216.33
837.48	216.33
837.79	216.35
838.11	216.34
838.42	216.33
838.74	216.36
839.05	216.33
839.37	216.30
839.68	216.19
840.00	216.17
840.31	216.17
840.63	216.08
840.94	216.09
841.26	216.07
841.57	216.07
841.88	216.11
842.20	216.04
842.51	216.01
842.83	216.02
843.14	216.23
843.46	216.23
843.77	216.12
844.08	216.10
844.40	216.03
844.71	215.99
845.03	215.97
845.34	215.92
845.65	215.89
845.97	215.89
846.28	215.89
846.60	215.90
846.91	215.84
847.22	215.87
847.54	215.91
847.85	215.91
848.16	215.88
848.48	215.83
848.79	215.93
849.10	215.98
849.42	215.98
849.73	215.79
850.04	215.77
850.36	215.70
850.67	215.73
850.98	215.73
851.30	215.75
851.61	215.75
851.92	215.72
852.23	215.78
852.55	215.79
852.86	215.77
853.17	215.78
853.49	215.84
853.80	215.84
854.11	215.85
854.42	215.87
854.74	215.83
855.05	215.85
855.36	215.74
855.67	215.74
855.99	215.75
856.30	215.98
856.61	215.96
856.92	215.98
857.23	215.96
857.55	215.95
857.86	215.95
858.17	215.98
858.48	215.94
858.79	215.87
859.11	215.87
859.42	215.86
859.73	215.83
860.04	215.82
860.35	215.78
860.66	215.69
860.98	215.65
861.29	215.69
861.60	215.67
861.91	215.67
862.22	215.61
862.53	215.57
862.84	215.32
863.16	215.38
863.47	215.32
863.78	215.29
864.09	215.30
864.40	215.32
864.71	215.31
865.02	215.38
865.33	215.40
865.64	215.40
865.95	215.38
866.27	215.54
866.58	215.50
866.89	215.49
867.20	215.49
867.51	215.49
867.82	215.45
868.13	215.50
868.44	215.48
868.75	215.53
869.06	215.54
869.37	215.56
869.68	215.47
869.99	215.53
870.30	215.55
870.61	215.55
870.92	215.49
871.23	215.45
871.54	215.45
871.85	215.49
872.16	215.50
872.47	215.48
872.78	215.36
873.09	215.39
873.40	215.39
873.71	215.42
874.02	215.44
874.33	215.43
874.64	215.38
874.95	215.41
875.26	215.37
875.56	215.35
875.87	215.35
876.18	215.37
876.49	215.54
876.80	215.53
877.11	215.50
877.42	215.52
877.73	215.51
878.04	215.46
878.35	215.45
878.66	215.48
878.96	215.51
879.27	215.50
879.58	215.48
879.89	215.46
880.20	215.50
880.51	215.47
880.82	215.51
881.12	215.53
881.43	215.49
881.74	215.47
882.05	215.45
882.36	215.45
882.67	215.46
882.97	215.25
883.28	215.22
883.59	215.21
883.90	215.24
884.21	215.30
884.51	215.30
884.82	215.28
885.13	215.22
885.44	215.18
885.74	215.18
886.05	215.18
886.36	215.20
886.67	215.12
886.98	215.23
887.28	215.22
887.59	215.22
887.90	215.20
888.20	215.20
888.51	215.26
888.82	215.21
889.13	215.21
889.43	215.38
889.74	215.36
890.05	215.39
890.35	215.34
890.66	215.31
890.97	215.30
891.28	215.26
891.58	215.30
891.89	215.31
892.20	215.23
892.50	215.20
892.81	215.17
893.12	215.18
893.42	215.07
893.73	215.09
894.04	215.06
894.34	215.07
894.65	215.05
894.95	214.98
895.26	215.01
895.57	215.11
895.87	214.90
896.18	214.97
896.48	214.95
896.79	214.96
897.10	214.98
897.40	214.97
897.71	215.00
898.01	214.95
898.32	214.94
898.63	214.97
898.93	214.98
899.24	215.00
899.54	214.97
899.85	214.99
900.15	214.96
900.46	214.94
900.76	215.00
901.07	214.99
901.38	214.99
901.68	215.02
901.99	214.90
902.29	214.93
902.60	214.90
902.90	214.87
903.21	214.87
903.51	214.84
903.82	214.91
904.12	214.92
904.43	214.93
904.73	214.96
905.03	214.96
905.34	215.19
905.64	215.18
905.95	215.21
906.25	215.19
906.56	215.20
906.86	215.22
907.17	215.18
907.47	215.23
907.77	215.24
908.08	215.20
908.38	215.22
908.69	215.26
908.99	215.28
909.30	215.32
909.60	215.31
909.90	215.32
910.21	215.24
910.51	215.23
910.81	215.23
911.12	215.23
911.42	215.23
911.73	215.00
912.03	215.03
912.33	215.05
912.64	215.05
912.94	215.00
913.24	214.96
913.55	214.94
913.85	214.90
914.15	214.98
914.46	215.01
914.76	215.01
915.06	214.96
915.37	214.93
915.67	214.91
915.97	214.91
916.27	214.87
916.58	214.85
916.88	214.85
917.18	214.86
917.49	215.02
917.79	215.02
918.09	215.06
918.39	215.11
918.70	215.09
919.00	215.11
919.30	215.22
919.60	215.22
919.91	215.22
920.21	215.22
920.51	215.17
920.81	215.13
921.12	215.18
921.42	215.19
921.72	215.21
922.02	215.24
922.32	215.29
922.63	215.29
922.93	215.44
923.23	215.44
923.53	215.41
923.83	215.25
924.13	215.23
924.44	215.20
924.74	215.22
925.04	215.27
925.34	215.23
925.64	215.15
925.94	215.17
926.24	215.27
926.55	215.24
926.85	215.28
927.15	215.28
927.45	215.27
927.75	215.27
928.05	215.25
928.35	215.25
928.65	215.25
928.95	215.30
929.26	215.22
929.56	215.25
929.86	215.30
930.16	215.26
930.46	215.27
930.76	215.28
931.06	215.16
931.36	215.08
931.66	215.16
931.96	215.18
932.26	215.19
932.56	215.09
932.86	215.11
933.16	215.06
933.46	215.05
933.76	215.01
934.06	215.05
934.36	215.14
934.66	215.09
934.96	215.08
935.26	215.07
935.56	215.06
935.86	215.01
936.16	214.95
936.46	214.95
936.76	214.93
937.06	214.92
937.36	214.98
937.66	214.98
937.96	214.95
938.26	214.88
938.56	214.87
938.86	214.87
939.16	214.92
939.46	214.94
939.76	214.95
940.06	214.93
940.35	214.87
940.65	214.74
940.95	214.80
941.25	214.74
941.55	214.71
941.85	214.73
942.15	214.78
942.45	214.84
942.75	214.85
943.04	214.86
943.34	214.89
943.64	214.84
943.94	214.82
944.24	214.81
944.54	214.84
944.84	214.84
945.13	214.83
945.43	214.80
945.73	214.80
946.03	214.76
946.33	214.77
946.62	214.78
946.92	214.78
947.22	214.77
947.52	214.81
947.82	214.84
948.11	214.82
948.41	214.79
948.71	214.72
949.01	214.73
949.31	214.72
949.60	214.70
949.90	214.71
950.20	214.69
950.50	214.68
950.79	214.70
951.09	214.74
951.39	214.76
951.69	214.73
951.98	214.77
952.28	214.80
952.58	214.80
952.87	214.78
953.17	214.83
953.47	214.79
953.76	214.78
954.06	214.72
954.36	214.68
954.66	214.65
954.95	214.70
955.25	214.73
955.55	214.73
955.84	214.71
956.14	214.72
956.44	214.75
956.73	214.74
957.03	214.73
957.32	214.74
957.62	214.72
957.92	214.77
958.21	214.77
958.51	215.02
958.81	215.05
959.10	215.09
959.40	215.14
959.69	215.19
959.99	215.24
960.29	215.28
960.58	215.29
960.88	215.37
961.17	215.39
961.47	215.41
961.76	215.43
962.06	215.46
962.36	215.45
962.65	215.44
962.95	215.45
963.24	215.44
963.54	215.42
963.83	215.44
964.13	215.40
964.42	215.32
964.72	215.14
965.01	215.14
965.31	215.11
965.60	215.07
965.90	215.20
966.19	215.12
966.49	215.14
966.78	215.15
967.08	215.13
967.37	215.13
967.67	215.08
967.96	215.13
968.26	215.13
968.55	215.20
968.85	215.24
969.14	215.23
969.43	215.22
969.73	215.20
970.02	215.20
970.32	215.20
970.61	215.20
970.91	215.13
971.20	215.08
971.49	215.10
971.79	215.10
972.08	214.93
972.38	214.94
972.67	214.91
972.96	214.90
973.26	214.83
973.55	214.89
973.85	214.86
974.14	214.81
974.43	214.83
974.73	214.75
975.02	214.71
975.31	214.71
975.61	214.71
975.90	214.70
976.19	214.66
976.49	214.68
976.78	214.71
977.07	214.68
977.37	214.71
977.66	214.71
977.95	214.69
978.24	214.70
978.54	214.73
978.83	214.73
979.12	214.73
979.42	214.73
979.71	214.68
980.00	214.68
980.29	214.69
980.59	214.66
980.88	214.71
981.17	214.70
981.46	214.69
981.76	214.69
982.05	214.77
982.34	214.82
982.63	214.81
982.93	214.79
983.22	214.88
983.51	214.87
983.80	214.90
984.09	214.92
984.39	214.93
984.68	214.90
984.97	214.91
985.26	214.88
985.55	214.92
985.85	214.87
986.14	214.94
986.43	214.95
986.72	214.93
987.01	214.87
987.30	214.89
987.59	214.90
987.89	214.88
988.18	214.82
988.47	214.79
988.76	214.79
989.05	214.81
989.34	214.76
989.63	214.84
989.92	214.77
990.22	214.73
990.51	214.72
990.80	214.73
991.09	214.73
991.38	214.77
991.67	214.76
991.96	214.74
992.25	214.75
992.54	214.69
992.83	214.69
993.12	214.68
993.41	214.71
993.70	214.78
993.99	214.86
994.28	214.89
994.58	214.91
994.87	214.87
995.16	214.88
995.45	214.88
995.74	214.80
996.03	214.88
996.32	214.92
996.61	214.94
996.90	214.92
997.19	214.91
997.48	214.94
997.77	214.92
998.06	214.94
998.34	214.88
998.63	214.91
998.92	214.91
999.21	214.97
999.50	214.96
999.79	214.86
1000.08	214.85
1000.37	214.83
1000.66	214.81
1000.95	214.85
1001.24	214.82
1001.53	214.83
1001.82	214.80
1002.11	214.74
1002.40	214.76
1002.68	214.81
1002.97	214.97
1003.26	214.93
1003.55	214.89
1003.84	214.92
1004.13	214.97
1004.42	214.99
1004.71	214.99
1004.99	214.96
1005.28	214.98
1005.57	214.99
1005.86	215.00
1006.15	214.97
1006.44	214.93
1006.72	214.97
1007.01	214.98
1007.30	215.01
1007.59	214.99
1007.88	215.01
1008.17	215.01
1008.45	214.95
1008.74	214.86
1009.03	214.74
1009.32	214.78
1009.60	214.79
1009.89	214.74
1010.18	214.68
1010.47	214.65
1010.76	214.67
1011.04	214.70
1011.33	214.69
1011.62	214.69
1011.91	214.70
1012.19	214.75
1012.48	214.76
1012.77	214.75
1013.05	214.79
1013.34	214.77
1013.63	214.76
1013.92	214.79
1014.20	214.79
1014.49	214.81
1014.78	214.83
1015.06	214.78
1015.35	214.76
1015.64	214.79
1015.92	214.82
1016.21	214.84
1016.50	214.88
1016.78	214.86
1017.07	214.89
1017.36	214.88
1017.64	214.84
1017.93	214.86
1018.22	214.81
1018.50	214.80
1018.79	214.80
1019.08	214.72
1019.36	214.72
1019.65	214.70
1019.93	214.72
1020.22	214.73
1020.51	214.82
1020.79	214.81
1021.08	214.50
1021.36	214.36
1021.65	214.94
1021.94	214.60
1022.22	214.54
1022.51	214.06
1022.79	215.67
1023.08	214.64
1023.36	216.83
1023.65	214.15
>>>>>End Processed Spectral Data<<<<<
