SpectraSuite Data File
++++++++++++++++++++++++++++++++++++
Date: Tue Jan 29 16:14:44 EST 2013
User: group
Dark Spectrum Present: No
Reference Spectrum Present: No
Number of Sampled Component Spectra: 1
Spectrometers: USB2E7196
Integration Time (usec): 65000 (USB2E7196)
Spectra Averaged: 100 (USB2E7196)
Boxcar Smoothing: 10 (USB2E7196)
Correct for Electrical Dark: No (USB2E7196)
Strobe/Lamp Enabled: No (USB2E7196)
Correct for Detector Non-linearity: No (USB2E7196)
Correct for Stray Light: No (USB2E7196)
Number of Pixels in Processed Spectrum: 2048
>>>>>Begin Processed Spectral Data<<<<<
339.09	0.00
339.48	202.14
339.86	204.02
340.24	204.82
340.63	206.79
341.01	211.05
341.39	209.47
341.78	210.69
342.16	212.55
342.54	212.74
342.93	201.60
343.31	211.80
343.69	212.38
344.07	212.84
344.46	213.29
344.84	213.67
345.22	213.85
345.60	214.12
345.99	214.34
346.37	214.46
346.75	214.58
347.13	214.65
347.52	214.73
347.90	214.86
348.28	214.91
348.66	215.02
349.05	215.00
349.43	215.08
349.81	215.11
350.19	215.14
350.57	215.18
350.96	215.29
351.34	215.38
351.72	215.48
352.10	215.62
352.48	215.68
352.87	215.72
353.25	215.79
353.63	215.85
354.01	215.90
354.39	215.97
354.77	216.05
355.15	216.22
355.54	216.28
355.92	216.27
356.30	216.32
356.68	216.50
357.06	216.60
357.44	216.63
357.82	216.70
358.20	216.80
358.58	216.89
358.97	216.98
359.35	217.09
359.73	217.16
360.11	217.17
360.49	217.26
360.87	217.33
361.25	217.38
361.63	217.49
362.01	217.57
362.39	217.61
362.77	217.63
363.15	217.65
363.53	217.64
363.91	217.69
364.29	217.71
364.67	217.55
365.05	217.54
365.43	217.61
365.81	217.68
366.19	217.78
366.57	217.89
366.95	217.86
367.33	217.80
367.71	217.79
368.09	217.86
368.47	217.86
368.85	217.85
369.23	217.91
369.61	217.82
369.99	217.89
370.37	217.90
370.75	218.00
371.13	217.94
371.51	217.90
371.89	217.87
372.27	217.87
372.65	217.86
373.03	217.80
373.41	217.73
373.78	217.67
374.16	217.53
374.54	217.42
374.92	217.35
375.30	217.32
375.68	217.22
376.06	217.16
376.44	217.10
376.82	217.09
377.19	217.03
377.57	216.96
377.95	216.80
378.33	216.71
378.71	216.56
379.09	216.55
379.47	216.57
379.84	216.54
380.22	216.48
380.60	216.39
380.98	216.38
381.36	216.35
381.73	216.29
382.11	216.29
382.49	216.25
382.87	216.19
383.25	216.14
383.62	216.38
384.00	216.31
384.38	216.27
384.76	216.29
385.13	216.32
385.51	216.31
385.89	216.29
386.27	216.29
386.64	216.26
387.02	216.20
387.40	216.15
387.78	216.12
388.15	216.08
388.53	216.05
388.91	215.99
389.29	215.90
389.66	215.92
390.04	215.86
390.42	215.87
390.79	215.86
391.17	215.87
391.55	215.63
391.92	215.62
392.30	215.62
392.68	215.57
393.05	215.52
393.43	215.52
393.81	215.51
394.18	215.45
394.56	215.42
394.94	215.43
395.31	215.43
395.69	215.48
396.06	215.52
396.44	215.55
396.82	215.58
397.19	215.76
397.57	215.77
397.95	215.84
398.32	215.81
398.70	215.85
399.07	215.91
399.45	215.93
399.82	215.96
400.20	216.00
400.58	216.04
400.95	216.03
401.33	216.13
401.70	216.39
402.08	216.52
402.45	216.64
402.83	216.81
403.20	216.89
403.58	216.99
403.95	217.14
404.33	217.29
404.71	217.41
405.08	217.64
405.46	217.78
405.83	217.99
406.21	218.21
406.58	218.45
406.96	218.70
407.33	218.98
407.70	219.30
408.08	219.78
408.45	220.11
408.83	220.51
409.20	220.85
409.58	221.08
409.95	221.50
410.33	221.98
410.70	222.37
411.08	222.93
411.45	223.49
411.82	224.06
412.20	224.75
412.57	225.59
412.95	226.15
413.32	226.96
413.69	227.77
414.07	228.63
414.44	229.58
414.82	230.55
415.19	231.70
415.56	232.82
415.94	233.96
416.31	235.29
416.68	236.64
417.06	238.16
417.43	239.66
417.81	241.33
418.18	243.03
418.55	244.89
418.93	246.85
419.30	248.89
419.67	251.03
420.04	253.22
420.42	255.49
420.79	258.19
421.16	260.88
421.54	263.66
421.91	266.52
422.28	269.51
422.66	272.71
423.03	275.81
423.40	279.04
423.77	282.51
424.15	286.08
424.52	289.79
424.89	293.82
425.26	297.74
425.64	301.49
426.01	305.62
426.38	309.94
426.75	314.33
427.13	318.90
427.50	323.72
427.87	328.73
428.24	333.79
428.61	338.61
428.99	343.96
429.36	349.76
429.73	355.48
430.10	361.20
430.47	367.06
430.85	373.17
431.22	379.68
431.59	386.50
431.96	393.06
432.33	400.35
432.70	407.41
433.08	415.65
433.45	423.43
433.82	431.19
434.19	439.80
434.56	448.26
434.93	456.31
435.30	464.29
435.68	473.09
436.05	481.75
436.42	490.36
436.79	498.23
437.16	506.69
437.53	515.63
437.90	524.44
438.27	533.04
438.64	541.94
439.01	550.15
439.38	557.52
439.75	564.64
440.13	572.76
440.50	580.42
440.87	586.64
441.24	593.06
441.61	600.17
441.98	605.29
442.35	611.38
442.72	617.46
443.09	623.33
443.46	626.97
443.83	629.45
444.20	631.52
444.57	634.47
444.94	635.85
445.31	637.29
445.68	638.62
446.05	639.23
446.42	638.37
446.79	637.44
447.16	636.38
447.53	635.59
447.90	632.34
448.27	629.11
448.64	624.63
449.01	621.38
449.37	615.65
449.74	610.23
450.11	603.54
450.48	596.39
450.85	589.17
451.22	582.91
451.59	576.94
451.96	571.33
452.33	563.85
452.70	556.99
453.07	548.80
453.43	540.49
453.80	532.50
454.17	524.85
454.54	517.59
454.91	509.75
455.28	502.09
455.65	494.91
456.02	487.73
456.38	481.55
456.75	474.02
457.12	467.73
457.49	461.44
457.86	455.51
458.23	450.37
458.59	444.65
458.96	438.88
459.33	433.75
459.70	428.61
460.07	424.47
460.43	419.81
460.80	415.38
461.17	411.53
461.54	407.50
461.91	403.72
462.27	399.73
462.64	396.36
463.01	392.68
463.38	389.14
463.74	385.57
464.11	382.48
464.48	379.71
464.85	376.69
465.21	374.38
465.58	371.79
465.95	368.73
466.32	366.24
466.68	363.71
467.05	361.24
467.42	358.75
467.78	356.18
468.15	353.72
468.52	351.87
468.88	349.47
469.25	347.33
469.62	345.54
469.98	343.70
470.35	341.97
470.72	340.40
471.08	338.68
471.45	337.22
471.82	335.74
472.18	334.16
472.55	333.04
472.92	331.69
473.28	330.57
473.65	329.51
474.02	328.46
474.38	327.68
474.75	327.00
475.11	326.26
475.48	325.73
475.85	325.29
476.21	324.87
476.58	324.57
476.94	324.38
477.31	324.12
477.67	323.89
478.04	323.76
478.41	323.75
478.77	323.92
479.14	323.94
479.50	324.12
479.87	324.48
480.23	324.78
480.60	325.03
480.96	325.30
481.33	325.88
481.69	326.48
482.06	326.97
482.42	327.41
482.79	328.01
483.15	328.83
483.52	329.82
483.88	330.68
484.25	331.60
484.61	332.63
484.98	333.71
485.34	334.99
485.71	336.39
486.07	337.82
486.44	339.17
486.80	340.79
487.17	342.44
487.53	344.19
487.90	346.05
488.26	348.07
488.62	350.24
488.99	352.29
489.35	354.45
489.72	356.82
490.08	359.35
490.44	361.87
490.81	364.52
491.17	367.15
491.54	370.13
491.90	373.18
492.26	376.41
492.63	379.80
492.99	383.28
493.36	386.96
493.72	390.84
494.08	394.81
494.45	399.01
494.81	403.34
495.17	407.82
495.54	412.58
495.90	417.38
496.26	422.29
496.63	427.48
496.99	432.86
497.35	438.43
497.72	444.27
498.08	450.21
498.44	456.30
498.80	462.73
499.17	469.21
499.53	475.89
499.89	482.78
500.26	489.68
500.62	496.74
500.98	504.04
501.34	511.42
501.71	519.15
502.07	526.91
502.43	534.93
502.79	543.02
503.16	551.28
503.52	559.76
503.88	568.42
504.24	577.33
504.60	586.34
504.97	595.46
505.33	604.59
505.69	614.41
506.05	624.21
506.41	633.95
506.78	643.93
507.14	654.11
507.50	664.44
507.86	675.11
508.22	685.83
508.59	696.40
508.95	707.40
509.31	718.56
509.67	729.94
510.03	741.18
510.39	752.81
510.75	764.56
511.12	776.47
511.48	788.41
511.84	800.47
512.20	812.64
512.56	825.22
512.92	837.93
513.28	850.37
513.64	862.99
514.00	875.69
514.37	888.44
514.73	901.41
515.09	914.23
515.45	926.89
515.81	939.70
516.17	952.96
516.53	965.91
516.89	978.81
517.25	991.74
517.61	1005.15
517.97	1018.34
518.33	1031.31
518.69	1044.67
519.05	1058.28
519.41	1071.78
519.77	1085.42
520.13	1098.51
520.49	1111.34
520.85	1124.66
521.21	1137.74
521.57	1151.15
521.93	1164.14
522.29	1177.58
522.65	1190.98
523.01	1204.50
523.37	1217.53
523.73	1230.48
524.09	1243.49
524.45	1256.75
524.81	1270.04
525.17	1283.11
525.53	1295.93
525.89	1308.93
526.25	1321.83
526.61	1334.16
526.97	1346.82
527.33	1359.52
527.68	1372.55
528.04	1385.85
528.40	1398.46
528.76	1411.47
529.12	1424.12
529.48	1436.99
529.84	1448.96
530.20	1461.26
530.56	1473.46
530.91	1486.44
531.27	1498.99
531.63	1511.53
531.99	1523.87
532.35	1535.79
532.71	1547.83
533.07	1560.41
533.42	1572.30
533.78	1583.94
534.14	1595.93
534.50	1606.92
534.86	1618.21
535.21	1628.88
535.57	1640.00
535.93	1651.02
536.29	1661.78
536.65	1672.85
537.00	1683.72
537.36	1694.70
537.72	1705.36
538.08	1716.40
538.44	1726.93
538.79	1737.77
539.15	1748.13
539.51	1758.57
539.87	1769.49
540.22	1779.95
540.58	1790.57
540.94	1801.26
541.29	1811.24
541.65	1820.56
542.01	1830.86
542.37	1840.54
542.72	1850.33
543.08	1859.81
543.44	1870.04
543.79	1879.01
544.15	1888.18
544.51	1897.70
544.87	1907.41
545.22	1916.46
545.58	1925.07
545.94	1933.61
546.29	1941.77
546.65	1949.94
547.01	1957.92
547.36	1965.41
547.72	1972.88
548.07	1980.30
548.43	1987.72
548.79	1995.31
549.14	2003.41
549.50	2011.62
549.86	2019.28
550.21	2026.56
550.57	2033.95
550.92	2040.57
551.28	2047.95
551.64	2055.05
551.99	2062.39
552.35	2069.28
552.70	2075.97
553.06	2082.39
553.41	2088.54
553.77	2094.93
554.13	2101.15
554.48	2107.93
554.84	2114.73
555.19	2121.20
555.55	2127.48
555.90	2133.61
556.26	2140.20
556.61	2145.86
556.97	2150.54
557.32	2156.24
557.68	2162.39
558.03	2168.13
558.39	2173.29
558.74	2179.11
559.10	2184.66
559.45	2190.10
559.81	2195.53
560.16	2201.14
560.52	2207.03
560.87	2213.48
561.23	2219.44
561.58	2226.01
561.94	2231.22
562.29	2235.99
562.64	2242.07
563.00	2247.60
563.35	2253.20
563.71	2259.10
564.06	2264.76
564.42	2270.76
564.77	2275.86
565.12	2281.12
565.48	2286.24
565.83	2291.75
566.19	2297.17
566.54	2302.38
566.89	2307.00
567.25	2311.61
567.60	2317.00
567.96	2322.13
568.31	2326.59
568.66	2330.81
569.02	2334.68
569.37	2338.42
569.72	2342.90
570.08	2346.49
570.43	2349.60
570.78	2352.65
571.14	2355.19
571.49	2358.46
571.84	2362.07
572.20	2365.02
572.55	2368.15
572.90	2370.42
573.26	2373.28
573.61	2375.78
573.96	2377.99
574.31	2380.08
574.67	2382.10
575.02	2383.13
575.37	2384.66
575.72	2385.63
576.08	2387.27
576.43	2387.69
576.78	2388.55
577.13	2390.28
577.49	2391.52
577.84	2392.98
578.19	2394.58
578.54	2395.46
578.90	2396.55
579.25	2396.53
579.60	2396.58
579.95	2396.07
580.30	2396.55
580.66	2396.14
581.01	2394.75
581.36	2392.70
581.71	2391.57
582.06	2390.61
582.42	2390.14
582.77	2388.22
583.12	2386.70
583.47	2385.50
583.82	2385.14
584.17	2383.86
584.53	2381.84
584.88	2379.94
585.23	2378.12
585.58	2376.00
585.93	2373.89
586.28	2371.75
586.63	2369.55
586.98	2367.51
587.34	2365.78
587.69	2363.59
588.04	2361.62
588.39	2360.37
588.74	2358.13
589.09	2355.51
589.44	2352.65
589.79	2350.22
590.14	2348.45
590.49	2345.74
590.84	2342.15
591.19	2339.08
591.54	2336.02
591.89	2332.16
592.25	2329.00
592.60	2324.90
592.95	2320.93
593.30	2316.99
593.65	2312.68
594.00	2308.38
594.35	2305.48
594.70	2300.88
595.05	2296.32
595.40	2291.00
595.75	2285.53
596.10	2282.01
596.45	2277.40
596.80	2272.93
597.15	2267.67
597.50	2261.77
597.85	2256.89
598.19	2251.62
598.54	2246.04
598.89	2241.07
599.24	2236.63
599.59	2230.68
599.94	2225.11
600.29	2219.33
600.64	2213.61
600.99	2207.02
601.34	2201.61
601.69	2194.69
602.04	2188.38
602.39	2181.95
602.74	2176.01
603.08	2170.60
603.43	2164.17
603.78	2157.39
604.13	2150.36
604.48	2143.31
604.83	2137.32
605.18	2131.28
605.53	2124.49
605.87	2117.49
606.22	2110.72
606.57	2102.95
606.92	2095.09
607.27	2088.13
607.62	2081.56
607.96	2074.64
608.31	2068.22
608.66	2060.60
609.01	2053.15
609.36	2046.19
609.70	2038.45
610.05	2030.75
610.40	2022.36
610.75	2014.10
611.10	2006.59
611.44	1997.87
611.79	1989.19
612.14	1979.24
612.49	1968.64
612.83	1959.52
613.18	1950.35
613.53	1940.99
613.88	1931.51
614.22	1922.96
614.57	1913.18
614.92	1902.72
615.27	1892.57
615.61	1882.65
615.96	1872.99
616.31	1863.53
616.65	1854.24
617.00	1844.50
617.35	1834.96
617.70	1825.31
618.04	1815.35
618.39	1805.05
618.74	1795.46
619.08	1785.91
619.43	1777.29
619.78	1769.14
620.12	1760.40
620.47	1750.75
620.82	1740.63
621.16	1730.91
621.51	1721.04
621.85	1711.17
622.20	1700.68
622.55	1690.21
622.89	1680.37
623.24	1670.75
623.59	1660.97
623.93	1650.83
624.28	1641.17
624.62	1631.04
624.97	1620.78
625.32	1611.02
625.66	1602.33
626.01	1593.48
626.35	1584.24
626.70	1574.23
627.04	1564.23
627.39	1554.24
627.73	1545.16
628.08	1536.18
628.43	1526.61
628.77	1517.40
629.12	1508.65
629.46	1500.96
629.81	1492.49
630.15	1482.88
630.50	1473.05
630.84	1462.50
631.19	1452.71
631.53	1443.32
631.88	1433.16
632.22	1423.28
632.57	1414.00
632.91	1403.72
633.26	1393.94
633.60	1384.38
633.95	1375.04
634.29	1365.62
634.64	1356.30
634.98	1346.33
635.32	1337.05
635.67	1328.52
636.01	1319.33
636.36	1309.46
636.70	1299.90
637.05	1290.69
637.39	1281.79
637.73	1273.12
638.08	1265.70
638.42	1257.42
638.77	1248.68
639.11	1240.43
639.45	1232.55
639.80	1223.84
640.14	1215.25
640.49	1206.49
640.83	1197.70
641.17	1189.67
641.52	1181.47
641.86	1172.91
642.20	1165.11
642.55	1156.57
642.89	1147.76
643.23	1139.07
643.58	1131.12
643.92	1122.07
644.26	1113.37
644.61	1104.96
644.95	1096.29
645.29	1087.15
645.64	1078.01
645.98	1069.64
646.32	1061.86
646.66	1053.40
647.01	1045.27
647.35	1037.19
647.69	1028.75
648.04	1020.44
648.38	1011.61
648.72	1002.84
649.06	994.47
649.41	986.34
649.75	978.42
650.09	970.72
650.43	962.73
650.78	954.46
651.12	946.88
651.46	939.57
651.80	932.37
652.14	925.13
652.49	917.60
652.83	910.38
653.17	902.75
653.51	895.18
653.85	888.05
654.20	880.86
654.54	873.36
654.88	866.33
655.22	859.25
655.56	852.36
655.90	845.70
656.25	839.13
656.59	832.18
656.93	825.22
657.27	818.12
657.61	811.34
657.95	805.35
658.29	799.57
658.64	793.44
658.98	787.08
659.32	780.50
659.66	774.32
660.00	768.00
660.34	762.00
660.68	755.88
661.02	749.71
661.36	743.85
661.70	738.13
662.05	732.48
662.39	727.06
662.73	721.70
663.07	716.38
663.41	710.85
663.75	705.34
664.09	699.79
664.43	694.41
664.77	689.06
665.11	683.24
665.45	677.38
665.79	671.71
666.13	666.08
666.47	660.75
666.81	655.46
667.15	650.15
667.49	645.09
667.83	639.93
668.17	634.68
668.51	629.63
668.85	624.88
669.19	620.10
669.53	615.19
669.87	610.17
670.21	605.49
670.55	600.78
670.89	596.37
671.23	592.14
671.57	587.85
671.91	583.64
672.25	579.67
672.58	575.61
672.92	571.57
673.26	567.75
673.60	563.95
673.94	560.16
674.28	556.63
674.62	552.95
674.96	549.35
675.30	545.85
675.64	542.24
675.97	538.67
676.31	535.13
676.65	531.57
676.99	528.24
677.33	524.47
677.67	520.89
678.01	517.13
678.34	513.55
678.68	510.07
679.02	506.54
679.36	502.88
679.70	499.30
680.04	495.81
680.37	492.39
680.71	489.13
681.05	486.01
681.39	482.84
681.73	479.73
682.06	476.74
682.40	473.72
682.74	470.54
683.08	467.43
683.42	464.30
683.75	461.35
684.09	458.32
684.43	455.57
684.77	452.76
685.10	449.98
685.44	447.08
685.78	444.26
686.12	441.54
686.45	438.91
686.79	436.32
687.13	433.83
687.46	431.29
687.80	428.70
688.14	425.92
688.48	423.34
688.81	420.71
689.15	418.09
689.49	415.53
689.82	413.08
690.16	410.50
690.50	408.09
690.83	405.60
691.17	403.15
691.51	400.75
691.84	398.55
692.18	396.36
692.52	394.20
692.85	392.04
693.19	389.93
693.52	387.74
693.86	385.61
694.20	383.47
694.53	381.38
694.87	379.20
695.21	377.17
695.54	375.05
695.88	372.94
696.21	370.83
696.55	368.79
696.88	366.84
697.22	364.94
697.56	363.07
697.89	361.29
698.23	359.55
698.56	357.78
698.90	355.98
699.23	354.10
699.57	352.27
699.90	350.49
700.24	348.72
700.58	347.01
700.91	345.40
701.25	343.86
701.58	342.26
701.92	340.73
702.25	339.11
702.59	337.56
702.92	336.08
703.26	334.59
703.59	333.15
703.93	331.86
704.26	330.45
704.60	329.00
704.93	327.53
705.26	326.07
705.60	324.66
705.93	323.19
706.27	321.88
706.60	320.70
706.94	319.50
707.27	318.15
707.61	316.86
707.94	315.53
708.27	314.07
708.61	312.67
708.94	311.34
709.28	310.11
709.61	308.87
709.94	307.70
710.28	306.53
710.61	305.35
710.95	303.98
711.28	302.95
711.61	301.81
711.95	300.74
712.28	299.59
712.61	298.44
712.95	297.46
713.28	296.52
713.61	295.36
713.95	294.20
714.28	293.26
714.61	292.24
714.95	291.23
715.28	290.26
715.61	289.27
715.95	288.32
716.28	287.39
716.61	286.44
716.95	285.48
717.28	284.58
717.61	283.68
717.94	282.79
718.28	281.74
718.61	280.91
718.94	280.02
719.27	279.17
719.61	278.39
719.94	277.52
720.27	276.53
720.60	275.77
720.94	274.99
721.27	274.22
721.60	273.54
721.93	272.84
722.27	272.23
722.60	271.61
722.93	270.93
723.26	270.30
723.59	269.62
723.93	269.02
724.26	268.38
724.59	267.72
724.92	267.14
725.25	266.66
725.59	266.06
725.92	265.53
726.25	264.99
726.58	264.41
726.91	263.86
727.24	263.33
727.57	262.76
727.91	262.17
728.24	261.65
728.57	261.05
728.90	260.50
729.23	259.88
729.56	259.43
729.89	258.92
730.22	258.36
730.55	257.82
730.89	257.29
731.22	256.80
731.55	256.31
731.88	255.86
732.21	255.33
732.54	254.81
732.87	254.29
733.20	253.82
733.53	253.36
733.86	252.93
734.19	252.46
734.52	252.06
734.85	251.84
735.18	251.34
735.51	250.99
735.84	250.62
736.17	250.24
736.50	249.74
736.83	249.58
737.16	249.22
737.49	248.89
737.82	248.49
738.15	248.10
738.48	247.75
738.81	247.30
739.14	246.90
739.47	246.53
739.80	246.16
740.13	245.79
740.46	245.41
740.79	245.00
741.12	244.69
741.45	244.32
741.78	243.84
742.11	243.62
742.44	243.25
742.77	242.95
743.10	242.62
743.43	242.31
743.75	241.73
744.08	241.64
744.41	241.29
744.74	240.97
745.07	240.59
745.40	240.27
745.73	240.06
746.06	239.75
746.39	239.49
746.71	239.18
747.04	238.88
747.37	238.57
747.70	238.33
748.03	238.02
748.36	237.72
748.68	237.46
749.01	237.11
749.34	236.85
749.67	236.54
750.00	236.27
750.33	236.14
750.65	235.95
750.98	235.46
751.31	235.24
751.64	235.00
751.97	234.90
752.29	234.67
752.62	234.33
752.95	234.08
753.28	233.83
753.60	233.61
753.93	233.44
754.26	233.26
754.59	232.96
754.91	232.72
755.24	232.50
755.57	232.27
755.90	232.05
756.22	231.81
756.55	231.56
756.88	231.37
757.20	231.03
757.53	230.76
757.86	230.55
758.19	230.35
758.51	230.14
758.84	229.86
759.17	229.67
759.49	229.54
759.82	229.47
760.15	229.30
760.47	229.11
760.80	228.87
761.13	228.71
761.45	228.50
761.78	228.31
762.11	228.15
762.43	227.96
762.76	227.79
763.08	227.66
763.41	227.52
763.74	227.35
764.06	227.18
764.39	227.04
764.71	226.87
765.04	226.71
765.37	226.59
765.69	226.48
766.02	226.33
766.34	226.14
766.67	225.91
767.00	225.81
767.32	225.81
767.65	225.81
767.97	225.65
768.30	225.56
768.62	225.49
768.95	225.34
769.27	225.22
769.60	225.11
769.92	224.94
770.25	224.77
770.57	224.60
770.90	224.48
771.22	224.35
771.55	224.26
771.87	224.18
772.20	224.00
772.52	224.04
772.85	224.18
773.17	224.10
773.50	223.99
773.82	223.86
774.15	223.64
774.47	223.40
774.80	223.29
775.12	223.20
775.45	223.05
775.77	222.96
776.09	222.92
776.42	222.87
776.74	222.87
777.07	222.81
777.39	222.73
777.72	222.64
778.04	222.58
778.36	222.48
778.69	222.40
779.01	222.34
779.33	222.08
779.66	221.78
779.98	221.64
780.31	221.55
780.63	221.57
780.95	221.53
781.28	221.49
781.60	221.38
781.92	221.34
782.25	221.30
782.57	221.26
782.89	221.13
783.22	221.01
783.54	220.87
783.86	220.83
784.19	220.77
784.51	220.77
784.83	220.68
785.16	220.60
785.48	220.53
785.80	220.50
786.12	220.47
786.45	220.44
786.77	220.42
787.09	220.38
787.42	220.22
787.74	220.14
788.06	220.06
788.38	220.01
788.71	219.92
789.03	219.86
789.35	219.84
789.67	219.79
789.99	219.74
790.32	219.68
790.64	219.64
790.96	219.74
791.28	219.64
791.61	219.58
791.93	219.58
792.25	219.51
792.57	219.62
792.89	219.51
793.21	219.46
793.54	219.39
793.86	219.34
794.18	219.33
794.50	219.26
794.82	219.21
795.14	219.20
795.47	219.21
795.79	219.18
796.11	219.07
796.43	218.97
796.75	218.97
797.07	218.94
797.39	218.88
797.71	218.70
798.04	218.67
798.36	218.68
798.68	218.61
799.00	218.61
799.32	218.43
799.64	218.46
799.96	218.42
800.28	218.42
800.60	218.38
800.92	218.37
801.24	218.35
801.56	218.32
801.89	218.28
802.21	218.27
802.53	218.21
802.85	218.25
803.17	218.33
803.49	218.24
803.81	218.18
804.13	218.13
804.45	218.08
804.77	218.03
805.09	217.97
805.41	217.91
805.73	217.83
806.05	217.79
806.37	217.75
806.69	217.68
807.01	217.65
807.33	217.64
807.65	217.52
807.97	217.58
808.28	217.54
808.60	217.50
808.92	217.42
809.24	217.51
809.56	217.44
809.88	217.37
810.20	217.38
810.52	217.41
810.84	217.36
811.16	217.34
811.48	217.31
811.80	217.36
812.12	217.32
812.43	217.33
812.75	217.31
813.07	217.23
813.39	217.20
813.71	217.15
814.03	217.10
814.35	217.07
814.67	216.96
814.98	216.91
815.30	216.89
815.62	216.86
815.94	216.70
816.26	216.67
816.58	216.62
816.89	216.62
817.21	216.54
817.53	216.53
817.85	216.53
818.17	216.55
818.48	216.44
818.80	216.49
819.12	216.48
819.44	216.41
819.76	216.38
820.07	216.37
820.39	216.34
820.71	216.35
821.03	216.34
821.34	216.31
821.66	216.34
821.98	216.32
822.30	216.29
822.61	216.40
822.93	216.36
823.25	216.33
823.57	216.27
823.88	216.32
824.20	216.33
824.52	216.31
824.83	216.26
825.15	216.23
825.47	216.20
825.79	216.18
826.10	216.16
826.42	216.13
826.74	216.14
827.05	216.15
827.37	216.12
827.69	216.10
828.00	216.11
828.32	216.07
828.64	216.05
828.95	216.11
829.27	216.05
829.58	216.04
829.90	216.06
830.22	216.09
830.53	216.03
830.85	215.98
831.17	215.97
831.48	215.96
831.80	215.97
832.11	215.96
832.43	215.93
832.75	215.95
833.06	216.10
833.38	216.03
833.69	216.02
834.01	216.03
834.32	216.06
834.64	216.05
834.96	216.08
835.27	216.09
835.59	216.04
835.90	216.00
836.22	215.99
836.53	215.95
836.85	215.90
837.16	216.12
837.48	216.15
837.79	216.20
838.11	216.22
838.42	216.22
838.74	216.22
839.05	216.20
839.37	216.18
839.68	216.05
840.00	216.05
840.31	216.03
840.63	216.01
840.94	215.96
841.26	215.91
841.57	215.89
841.88	215.88
842.20	215.88
842.51	215.88
842.83	215.85
843.14	216.03
843.46	216.05
843.77	215.87
844.08	215.84
844.40	215.76
844.71	215.73
845.03	215.70
845.34	215.68
845.65	215.69
845.97	215.69
846.28	215.67
846.60	215.68
846.91	215.66
847.22	215.64
847.54	215.70
847.85	215.70
848.16	215.66
848.48	215.63
848.79	215.68
849.10	215.66
849.42	215.73
849.73	215.54
850.04	215.51
850.36	215.49
850.67	215.53
850.98	215.60
851.30	215.57
851.61	215.58
851.92	215.58
852.23	215.64
852.55	215.64
852.86	215.68
853.17	215.70
853.49	215.74
853.80	215.79
854.11	215.78
854.42	215.80
854.74	215.81
855.05	215.81
855.36	215.69
855.67	215.70
855.99	215.68
856.30	215.94
856.61	215.93
856.92	215.91
857.23	215.87
857.55	215.80
857.86	215.79
858.17	215.80
858.48	215.74
858.79	215.68
859.11	215.68
859.42	215.65
859.73	215.64
860.04	215.62
860.35	215.55
860.66	215.49
860.98	215.51
861.29	215.47
861.60	215.45
861.91	215.52
862.22	215.48
862.53	215.45
862.84	215.15
863.16	215.20
863.47	215.16
863.78	215.17
864.09	215.19
864.40	215.20
864.71	215.21
865.02	215.22
865.33	215.18
865.64	215.13
865.95	215.11
866.27	215.22
866.58	215.21
866.89	215.23
867.20	215.22
867.51	215.16
867.82	215.17
868.13	215.25
868.44	215.20
868.75	215.21
869.06	215.20
869.37	215.26
869.68	215.20
869.99	215.25
870.30	215.22
870.61	215.23
870.92	215.19
871.23	215.19
871.54	215.22
871.85	215.26
872.16	215.31
872.47	215.31
872.78	215.16
873.09	215.17
873.40	215.16
873.71	215.20
874.02	215.22
874.33	215.21
874.64	215.14
874.95	215.19
875.26	215.15
875.56	215.15
875.87	215.14
876.18	215.10
876.49	215.28
876.80	215.25
877.11	215.19
877.42	215.22
877.73	215.21
878.04	215.16
878.35	215.18
878.66	215.15
878.96	215.13
879.27	215.14
879.58	215.10
879.89	215.05
880.20	215.07
880.51	215.08
880.82	215.07
881.12	215.05
881.43	214.98
881.74	214.98
882.05	214.98
882.36	215.00
882.67	215.03
882.97	214.81
883.28	214.82
883.59	214.83
883.90	214.84
884.21	214.82
884.51	214.80
884.82	214.75
885.13	214.77
885.44	214.79
885.74	214.81
886.05	214.82
886.36	214.87
886.67	214.79
886.98	214.85
887.28	214.88
887.59	214.89
887.90	214.90
888.20	214.88
888.51	214.91
888.82	214.84
889.13	214.87
889.43	215.06
889.74	215.05
890.05	215.08
890.35	215.08
890.66	215.09
890.97	215.08
891.28	215.06
891.58	215.07
891.89	215.04
892.20	214.99
892.50	214.96
892.81	214.92
893.12	214.94
893.42	214.83
893.73	214.83
894.04	214.85
894.34	214.89
894.65	214.90
894.95	214.86
895.26	214.90
895.57	214.97
895.87	214.78
896.18	214.82
896.48	214.81
896.79	214.79
897.10	214.83
897.40	214.89
897.71	214.93
898.01	214.91
898.32	214.94
898.63	214.94
898.93	214.99
899.24	215.02
899.54	215.01
899.85	215.02
900.15	215.04
900.46	215.03
900.76	215.03
901.07	215.01
901.38	215.04
901.68	215.06
901.99	214.98
902.29	214.96
902.60	214.97
902.90	214.96
903.21	214.96
903.51	214.93
903.82	214.95
904.12	214.95
904.43	214.95
904.73	214.93
905.03	214.97
905.34	215.12
905.64	215.10
905.95	215.05
906.25	215.06
906.56	215.04
906.86	215.04
907.17	215.01
907.47	215.01
907.77	215.00
908.08	214.95
908.38	214.94
908.69	214.96
908.99	214.99
909.30	214.96
909.60	214.95
909.90	214.94
910.21	214.90
910.51	214.85
910.81	214.86
911.12	214.91
911.42	214.93
911.73	214.73
912.03	214.75
912.33	214.84
912.64	214.84
912.94	214.81
913.24	214.82
913.55	214.83
913.85	214.85
914.15	214.87
914.46	214.91
914.76	214.87
915.06	214.87
915.37	214.80
915.67	214.81
915.97	214.82
916.27	214.78
916.58	214.76
916.88	214.76
917.18	214.75
917.49	214.85
917.79	214.84
918.09	214.86
918.39	214.89
918.70	214.86
919.00	214.87
919.30	214.97
919.60	214.92
919.91	214.91
920.21	214.88
920.51	214.87
920.81	214.84
921.12	214.88
921.42	214.87
921.72	214.90
922.02	214.92
922.32	214.95
922.63	214.97
922.93	215.10
923.23	215.12
923.53	215.08
923.83	214.95
924.13	214.94
924.44	214.95
924.74	214.99
925.04	215.06
925.34	215.03
925.64	214.93
925.94	214.94
926.24	215.02
926.55	215.05
926.85	215.06
927.15	215.07
927.45	215.09
927.75	215.09
928.05	215.10
928.35	215.08
928.65	215.12
928.95	215.11
929.26	215.05
929.56	215.12
929.86	215.14
930.16	215.13
930.46	215.13
930.76	215.12
931.06	215.02
931.36	214.95
931.66	214.99
931.96	215.02
932.26	215.03
932.56	214.95
932.86	214.96
933.16	214.95
933.46	214.89
933.76	214.85
934.06	214.92
934.36	215.00
934.66	215.00
934.96	214.97
935.26	214.98
935.56	215.00
935.86	214.90
936.16	214.91
936.46	214.89
936.76	214.90
937.06	214.88
937.36	214.89
937.66	214.90
937.96	214.88
938.26	214.84
938.56	214.83
938.86	214.83
939.16	214.87
939.46	214.88
939.76	214.92
940.06	214.89
940.35	214.83
940.65	214.70
940.95	214.72
941.25	214.64
941.55	214.60
941.85	214.54
942.15	214.61
942.45	214.63
942.75	214.65
943.04	214.67
943.34	214.72
943.64	214.71
943.94	214.71
944.24	214.70
944.54	214.71
944.84	214.71
945.13	214.70
945.43	214.67
945.73	214.70
946.03	214.68
946.33	214.67
946.62	214.67
946.92	214.69
947.22	214.70
947.52	214.74
947.82	214.80
948.11	214.82
948.41	214.76
948.71	214.71
949.01	214.73
949.31	214.70
949.60	214.65
949.90	214.68
950.20	214.65
950.50	214.65
950.79	214.64
951.09	214.68
951.39	214.69
951.69	214.69
951.98	214.70
952.28	214.74
952.58	214.74
952.87	214.70
953.17	214.71
953.47	214.69
953.76	214.67
954.06	214.61
954.36	214.58
954.66	214.56
954.95	214.63
955.25	214.60
955.55	214.61
955.84	214.58
956.14	214.59
956.44	214.63
956.73	214.60
957.03	214.60
957.32	214.58
957.62	214.56
957.92	214.57
958.21	214.52
958.51	214.75
958.81	214.78
959.10	214.82
959.40	214.85
959.69	214.87
959.99	214.92
960.29	214.91
960.58	214.90
960.88	215.00
961.17	214.99
961.47	215.01
961.76	214.96
962.06	215.00
962.36	214.98
962.65	214.96
962.95	214.96
963.24	214.95
963.54	214.93
963.83	214.96
964.13	214.92
964.42	214.87
964.72	214.69
965.01	214.69
965.31	214.67
965.60	214.61
965.90	214.73
966.19	214.68
966.49	214.71
966.78	214.70
967.08	214.67
967.37	214.63
967.67	214.60
967.96	214.68
968.26	214.65
968.55	214.69
968.85	214.68
969.14	214.70
969.43	214.68
969.73	214.68
970.02	214.64
970.32	214.67
970.61	214.68
970.91	214.63
971.20	214.61
971.49	214.61
971.79	214.64
972.08	214.49
972.38	214.53
972.67	214.53
972.96	214.59
973.26	214.56
973.55	214.63
973.85	214.62
974.14	214.62
974.43	214.65
974.73	214.60
975.02	214.63
975.31	214.62
975.61	214.64
975.90	214.64
976.19	214.62
976.49	214.63
976.78	214.66
977.07	214.69
977.37	214.70
977.66	214.72
977.95	214.67
978.24	214.68
978.54	214.70
978.83	214.66
979.12	214.61
979.42	214.59
979.71	214.55
980.00	214.52
980.29	214.52
980.59	214.48
980.88	214.55
981.17	214.52
981.46	214.54
981.76	214.52
982.05	214.58
982.34	214.61
982.63	214.57
982.93	214.54
983.22	214.55
983.51	214.56
983.80	214.57
984.09	214.62
984.39	214.60
984.68	214.58
984.97	214.58
985.26	214.58
985.55	214.61
985.85	214.58
986.14	214.60
986.43	214.61
986.72	214.59
987.01	214.49
987.30	214.50
987.59	214.48
987.89	214.50
988.18	214.42
988.47	214.41
988.76	214.44
989.05	214.42
989.34	214.40
989.63	214.43
989.92	214.41
990.22	214.36
990.51	214.36
990.80	214.29
991.09	214.31
991.38	214.34
991.67	214.36
991.96	214.37
992.25	214.38
992.54	214.34
992.83	214.37
993.12	214.38
993.41	214.41
993.70	214.49
993.99	214.50
994.28	214.52
994.58	214.57
994.87	214.52
995.16	214.55
995.45	214.56
995.74	214.48
996.03	214.51
996.32	214.57
996.61	214.62
996.90	214.67
997.19	214.68
997.48	214.66
997.77	214.59
998.06	214.56
998.34	214.54
998.63	214.56
998.92	214.55
999.21	214.58
999.50	214.57
999.79	214.49
1000.08	214.51
1000.37	214.53
1000.66	214.48
1000.95	214.54
1001.24	214.54
1001.53	214.56
1001.82	214.57
1002.11	214.53
1002.40	214.51
1002.68	214.57
1002.97	214.72
1003.26	214.68
1003.55	214.68
1003.84	214.73
1004.13	214.84
1004.42	214.85
1004.71	214.83
1004.99	214.84
1005.28	214.93
1005.57	214.90
1005.86	214.88
1006.15	214.84
1006.44	214.76
1006.72	214.79
1007.01	214.74
1007.30	214.75
1007.59	214.75
1007.88	214.74
1008.17	214.74
1008.45	214.72
1008.74	214.62
1009.03	214.53
1009.32	214.55
1009.60	214.55
1009.89	214.54
1010.18	214.45
1010.47	214.43
1010.76	214.44
1011.04	214.42
1011.33	214.40
1011.62	214.46
1011.91	214.48
1012.19	214.52
1012.48	214.58
1012.77	214.58
1013.05	214.69
1013.34	214.72
1013.63	214.71
1013.92	214.71
1014.20	214.71
1014.49	214.73
1014.78	214.78
1015.06	214.69
1015.35	214.71
1015.64	214.72
1015.92	214.74
1016.21	214.75
1016.50	214.77
1016.78	214.78
1017.07	214.79
1017.36	214.75
1017.64	214.68
1017.93	214.68
1018.22	214.67
1018.50	214.70
1018.79	214.68
1019.08	214.54
1019.36	214.55
1019.65	214.52
1019.93	214.59
1020.22	214.61
1020.51	214.71
1020.79	214.68
1021.08	214.69
1021.36	214.91
1021.65	214.50
1021.94	213.84
1022.22	215.06
1022.51	214.42
1022.79	215.53
1023.08	214.53
1023.36	216.92
1023.65	214.45
>>>>>End Processed Spectral Data<<<<<
