SpectraSuite Data File
++++++++++++++++++++++++++++++++++++
Date: Tue Jan 29 16:19:39 EST 2013
User: group
Dark Spectrum Present: No
Reference Spectrum Present: No
Number of Sampled Component Spectra: 1
Spectrometers: USB2E7196
Integration Time (usec): 65000 (USB2E7196)
Spectra Averaged: 100 (USB2E7196)
Boxcar Smoothing: 10 (USB2E7196)
Correct for Electrical Dark: No (USB2E7196)
Strobe/Lamp Enabled: No (USB2E7196)
Correct for Detector Non-linearity: No (USB2E7196)
Correct for Stray Light: No (USB2E7196)
Number of Pixels in Processed Spectrum: 2048
>>>>>Begin Processed Spectral Data<<<<<
339.09	0.00
339.48	201.74
339.86	203.46
340.24	205.33
340.63	206.37
341.01	210.82
341.39	209.29
341.78	210.88
342.16	212.60
342.54	213.05
342.93	201.60
343.31	211.80
343.69	212.38
344.07	212.87
344.46	213.32
344.84	213.71
345.22	213.91
345.60	214.19
345.99	214.41
346.37	214.51
346.75	214.58
347.13	214.66
347.52	214.71
347.90	214.85
348.28	214.90
348.66	214.99
349.05	214.97
349.43	215.03
349.81	215.07
350.19	215.13
350.57	215.22
350.96	215.31
351.34	215.39
351.72	215.48
352.10	215.60
352.48	215.67
352.87	215.73
353.25	215.81
353.63	215.88
354.01	215.92
354.39	216.04
354.77	216.13
355.15	216.25
355.54	216.31
355.92	216.30
356.30	216.37
356.68	216.55
357.06	216.62
357.44	216.62
357.82	216.64
358.20	216.73
358.58	216.79
358.97	216.86
359.35	216.98
359.73	217.08
360.11	217.10
360.49	217.17
360.87	217.25
361.25	217.30
361.63	217.39
362.01	217.46
362.39	217.48
362.77	217.51
363.15	217.51
363.53	217.54
363.91	217.55
364.29	217.55
364.67	217.43
365.05	217.45
365.43	217.51
365.81	217.57
366.19	217.61
366.57	217.69
366.95	217.68
367.33	217.62
367.71	217.61
368.09	217.67
368.47	217.65
368.85	217.60
369.23	217.63
369.61	217.54
369.99	217.57
370.37	217.56
370.75	217.66
371.13	217.60
371.51	217.55
371.89	217.54
372.27	217.52
372.65	217.46
373.03	217.44
373.41	217.39
373.78	217.38
374.16	217.25
374.54	217.14
374.92	217.09
375.30	217.04
375.68	216.96
376.06	216.91
376.44	216.89
376.82	216.86
377.19	216.78
377.57	216.73
377.95	216.61
378.33	216.54
378.71	216.39
379.09	216.38
379.47	216.37
379.84	216.32
380.22	216.28
380.60	216.24
380.98	216.16
381.36	216.16
381.73	216.08
382.11	216.10
382.49	216.09
382.87	216.04
383.25	216.02
383.62	216.20
384.00	216.15
384.38	216.08
384.76	216.12
385.13	216.14
385.51	216.09
385.89	216.06
386.27	216.05
386.64	216.03
387.02	216.00
387.40	215.96
387.78	215.95
388.15	215.93
388.53	215.89
388.91	215.89
389.29	215.79
389.66	215.78
390.04	215.73
390.42	215.75
390.79	215.74
391.17	215.75
391.55	215.52
391.92	215.52
392.30	215.57
392.68	215.49
393.05	215.50
393.43	215.56
393.81	215.61
394.18	215.59
394.56	215.61
394.94	215.65
395.31	215.64
395.69	215.75
396.06	215.82
396.44	215.85
396.82	215.88
397.19	216.02
397.57	216.05
397.95	216.11
398.32	216.08
398.70	216.14
399.07	216.20
399.45	216.25
399.82	216.27
400.20	216.25
400.58	216.33
400.95	216.32
401.33	216.40
401.70	216.57
402.08	216.66
402.45	216.72
402.83	216.85
403.20	216.99
403.58	216.98
403.95	217.09
404.33	217.27
404.71	217.41
405.08	217.64
405.46	217.80
405.83	217.99
406.21	218.19
406.58	218.40
406.96	218.58
407.33	218.83
407.70	219.15
408.08	219.63
408.45	220.01
408.83	220.39
409.20	220.72
409.58	221.03
409.95	221.49
410.33	221.97
410.70	222.38
411.08	222.89
411.45	223.47
411.82	224.04
412.20	224.70
412.57	225.51
412.95	226.09
413.32	226.94
413.69	227.76
414.07	228.64
414.44	229.58
414.82	230.62
415.19	231.78
415.56	232.94
415.94	234.06
416.31	235.40
416.68	236.76
417.06	238.32
417.43	239.84
417.81	241.51
418.18	243.27
418.55	245.20
418.93	247.24
419.30	249.32
419.67	251.53
420.04	253.78
420.42	256.10
420.79	258.90
421.16	261.62
421.54	264.46
421.91	267.41
422.28	270.47
422.66	273.69
423.03	276.89
423.40	280.21
423.77	283.79
424.15	287.38
424.52	291.16
424.89	295.30
425.26	299.27
425.64	303.12
426.01	307.31
426.38	311.66
426.75	316.11
427.13	320.73
427.50	325.59
427.87	330.69
428.24	335.76
428.61	340.62
428.99	346.03
429.36	351.96
429.73	357.71
430.10	363.50
430.47	369.44
430.85	375.65
431.22	382.20
431.59	389.20
431.96	395.89
432.33	403.24
432.70	410.33
433.08	418.72
433.45	426.60
433.82	434.54
434.19	443.29
434.56	451.85
434.93	460.10
435.30	468.24
435.68	477.24
436.05	486.07
436.42	494.79
436.79	502.80
437.16	511.37
437.53	520.52
437.90	529.48
438.27	538.26
438.64	547.31
439.01	555.67
439.38	563.06
439.75	570.25
440.13	578.57
440.50	586.39
440.87	592.68
441.24	599.19
441.61	606.39
441.98	611.68
442.35	617.91
442.72	624.08
443.09	630.03
443.46	633.68
443.83	636.15
444.20	638.27
444.57	641.38
444.94	642.80
445.31	644.23
445.68	645.62
446.05	646.22
446.42	645.45
446.79	644.56
447.16	643.54
447.53	642.80
447.90	639.48
448.27	636.16
448.64	631.57
449.01	628.34
449.37	622.47
449.74	616.89
450.11	610.09
450.48	602.78
450.85	595.40
451.22	588.98
451.59	582.98
451.96	577.24
452.33	569.48
452.70	562.52
453.07	554.20
453.43	545.74
453.80	537.66
454.17	529.81
454.54	522.38
454.91	514.29
455.28	506.45
455.65	499.27
456.02	492.01
456.38	485.85
456.75	478.15
457.12	471.70
457.49	465.27
457.86	459.20
458.23	454.01
458.59	448.28
458.96	442.41
459.33	437.26
459.70	432.07
460.07	427.87
460.43	423.07
460.80	418.60
461.17	414.67
461.54	410.56
461.91	406.60
462.27	402.53
462.64	399.21
463.01	395.47
463.38	391.78
463.74	388.12
464.11	384.91
464.48	382.09
464.85	379.07
465.21	376.73
465.58	374.11
465.95	371.02
466.32	368.45
466.68	365.91
467.05	363.31
467.42	360.81
467.78	358.20
468.15	355.69
468.52	353.81
468.88	351.40
469.25	349.22
469.62	347.46
469.98	345.58
470.35	343.80
470.72	342.21
471.08	340.42
471.45	338.96
471.82	337.48
472.18	335.87
472.55	334.68
472.92	333.29
473.28	332.16
473.65	331.02
474.02	329.89
474.38	329.01
474.75	328.32
475.11	327.52
475.48	327.02
475.85	326.60
476.21	326.12
476.58	325.78
476.94	325.49
477.31	325.22
477.67	324.98
478.04	324.86
478.41	324.81
478.77	325.02
479.14	324.96
479.50	325.14
479.87	325.45
480.23	325.81
480.60	326.09
480.96	326.39
481.33	326.99
481.69	327.60
482.06	328.14
482.42	328.63
482.79	329.26
483.15	330.09
483.52	331.04
483.88	331.91
484.25	332.89
484.61	333.94
484.98	334.99
485.34	336.36
485.71	337.69
486.07	339.08
486.44	340.39
486.80	342.05
487.17	343.71
487.53	345.54
487.90	347.41
488.26	349.46
488.62	351.64
488.99	353.70
489.35	355.92
489.72	358.33
490.08	360.87
490.44	363.44
490.81	366.07
491.17	368.77
491.54	371.78
491.90	374.82
492.26	378.08
492.63	381.50
492.99	384.98
493.36	388.71
493.72	392.65
494.08	396.71
494.45	400.90
494.81	405.26
495.17	409.74
495.54	414.46
495.90	419.29
496.26	424.18
496.63	429.44
496.99	434.80
497.35	440.37
497.72	446.20
498.08	452.14
498.44	458.28
498.80	464.74
499.17	471.23
499.53	477.95
499.89	484.89
500.26	491.89
500.62	498.96
500.98	506.40
501.34	513.84
501.71	521.61
502.07	529.48
502.43	537.54
502.79	545.69
503.16	554.12
503.52	562.71
503.88	571.51
504.24	580.50
504.60	589.58
504.97	598.85
505.33	608.17
505.69	618.04
506.05	627.90
506.41	637.74
506.78	647.85
507.14	658.07
507.50	668.53
507.86	679.26
508.22	690.09
508.59	700.74
508.95	711.91
509.31	723.20
509.67	734.70
510.03	746.14
510.39	757.90
510.75	769.75
511.12	781.73
511.48	793.83
511.84	806.02
512.20	818.39
512.56	831.04
512.92	843.87
513.28	856.59
513.64	869.42
514.00	882.24
514.37	895.27
514.73	908.37
515.09	921.41
515.45	934.32
515.81	947.33
516.17	960.73
516.53	973.86
516.89	986.91
517.25	1000.04
517.61	1013.75
517.97	1027.14
518.33	1040.19
518.69	1053.73
519.05	1067.48
519.41	1081.19
519.77	1095.12
520.13	1108.40
520.49	1121.52
520.85	1134.89
521.21	1148.22
521.57	1161.94
521.93	1175.04
522.29	1188.82
522.65	1202.48
523.01	1216.07
523.37	1229.39
523.73	1242.60
524.09	1255.78
524.45	1269.23
524.81	1282.66
525.17	1295.75
525.53	1308.99
525.89	1322.43
526.25	1335.41
526.61	1348.21
526.97	1361.23
527.33	1374.06
527.68	1387.53
528.04	1401.04
528.40	1414.10
528.76	1427.41
529.12	1440.28
529.48	1453.51
529.84	1465.67
530.20	1478.38
530.56	1490.90
530.91	1504.02
531.27	1516.97
531.63	1529.75
531.99	1542.36
532.35	1554.66
532.71	1567.05
533.07	1579.77
533.42	1591.89
533.78	1604.01
534.14	1615.99
534.50	1627.23
534.86	1638.76
535.21	1649.46
535.57	1660.88
535.93	1671.98
536.29	1682.99
536.65	1694.27
537.00	1705.13
537.36	1716.44
537.72	1727.35
538.08	1738.59
538.44	1749.39
538.79	1760.29
539.15	1771.16
539.51	1781.90
539.87	1793.05
540.22	1803.68
540.58	1814.56
540.94	1825.41
541.29	1835.64
541.65	1845.30
542.01	1855.63
542.37	1865.62
542.72	1875.71
543.08	1885.40
543.44	1895.85
543.79	1904.93
544.15	1914.28
544.51	1924.16
544.87	1934.02
545.22	1943.07
545.58	1951.96
545.94	1960.87
546.29	1969.36
546.65	1977.65
547.01	1985.80
547.36	1993.32
547.72	2000.99
548.07	2008.58
548.43	2016.24
548.79	2023.97
549.14	2032.07
549.50	2040.53
549.86	2048.26
550.21	2055.67
550.57	2063.19
550.92	2069.91
551.28	2077.39
551.64	2084.67
551.99	2092.15
552.35	2099.16
552.70	2105.92
553.06	2112.58
553.41	2118.80
553.77	2125.18
554.13	2131.55
554.48	2138.61
554.84	2145.65
555.19	2152.23
555.55	2158.47
555.90	2164.61
556.26	2171.51
556.61	2177.66
556.97	2182.46
557.32	2188.21
557.68	2194.67
558.03	2200.36
558.39	2205.64
558.74	2211.69
559.10	2217.12
559.45	2222.78
559.81	2228.37
560.16	2234.00
560.52	2239.91
560.87	2246.17
561.23	2252.12
561.58	2258.67
561.94	2263.93
562.29	2268.80
562.64	2274.96
563.00	2280.77
563.35	2286.37
563.71	2292.08
564.06	2297.75
564.42	2303.84
564.77	2309.11
565.12	2314.44
565.48	2319.68
565.83	2325.35
566.19	2330.69
566.54	2336.20
566.89	2340.80
567.25	2345.51
567.60	2351.21
567.96	2356.33
568.31	2361.16
568.66	2365.55
569.02	2369.73
569.37	2373.56
569.72	2378.16
570.08	2381.79
570.43	2385.02
570.78	2388.32
571.14	2390.94
571.49	2394.24
571.84	2397.86
572.20	2400.82
572.55	2403.91
572.90	2406.35
573.26	2409.19
573.61	2412.05
573.96	2414.36
574.31	2416.59
574.67	2418.58
575.02	2419.55
575.37	2421.25
575.72	2421.97
576.08	2423.50
576.43	2423.60
576.78	2424.21
577.13	2425.81
577.49	2427.03
577.84	2428.08
578.19	2429.55
578.54	2430.25
578.90	2430.88
579.25	2430.98
579.60	2431.04
579.95	2430.37
580.30	2430.66
580.66	2430.34
581.01	2428.79
581.36	2426.61
581.71	2425.23
582.06	2424.25
582.42	2423.55
582.77	2421.48
583.12	2420.07
583.47	2418.91
583.82	2418.59
584.17	2417.47
584.53	2415.46
584.88	2413.60
585.23	2411.94
585.58	2409.80
585.93	2408.05
586.28	2406.16
586.63	2403.70
586.98	2401.69
587.34	2400.02
587.69	2397.70
588.04	2395.60
588.39	2394.32
588.74	2392.03
589.09	2389.51
589.44	2386.47
589.79	2384.21
590.14	2382.18
590.49	2379.52
590.84	2375.76
591.19	2372.66
591.54	2369.58
591.89	2365.80
592.25	2362.58
592.60	2358.56
592.95	2354.63
593.30	2350.58
593.65	2346.21
594.00	2341.89
594.35	2339.00
594.70	2334.43
595.05	2329.99
595.40	2324.69
595.75	2318.94
596.10	2315.44
596.45	2310.67
596.80	2306.22
597.15	2301.09
597.50	2295.38
597.85	2290.49
598.19	2285.30
598.54	2279.67
598.89	2274.29
599.24	2269.66
599.59	2263.50
599.94	2257.71
600.29	2251.75
600.64	2245.80
600.99	2239.02
601.34	2233.50
601.69	2226.56
602.04	2220.13
602.39	2213.55
602.74	2207.24
603.08	2201.76
603.43	2195.16
603.78	2188.22
604.13	2181.05
604.48	2173.68
604.83	2167.64
605.18	2161.45
605.53	2154.64
605.87	2147.49
606.22	2140.90
606.57	2133.02
606.92	2125.05
607.27	2118.04
607.62	2111.40
607.96	2104.49
608.31	2098.15
608.66	2090.55
609.01	2082.91
609.36	2075.75
609.70	2068.08
610.05	2060.59
610.40	2052.32
610.75	2044.13
611.10	2036.48
611.44	2027.59
611.79	2018.93
612.14	2008.80
612.49	1998.07
612.83	1988.64
613.18	1979.27
613.53	1969.91
613.88	1960.42
614.22	1952.03
614.57	1942.18
614.92	1931.65
615.27	1921.12
615.61	1910.85
615.96	1901.18
616.31	1891.54
616.65	1881.98
617.00	1872.27
617.35	1862.33
617.70	1852.56
618.04	1842.34
618.39	1832.11
618.74	1822.47
619.08	1812.68
619.43	1804.05
619.78	1795.74
620.12	1787.20
620.47	1777.69
620.82	1767.33
621.16	1757.33
621.51	1747.15
621.85	1737.26
622.20	1726.75
622.55	1716.30
622.89	1706.33
623.24	1696.47
623.59	1686.59
623.93	1676.43
624.28	1666.41
624.62	1656.33
624.97	1645.91
625.32	1636.00
625.66	1626.96
626.01	1618.08
626.35	1608.68
626.70	1598.50
627.04	1588.40
627.39	1578.14
627.73	1568.75
628.08	1559.69
628.43	1550.03
628.77	1540.70
629.12	1531.75
629.46	1523.81
629.81	1515.34
630.15	1505.72
630.50	1495.77
630.84	1485.03
631.19	1475.06
631.53	1465.77
631.88	1455.53
632.22	1445.34
632.57	1435.86
632.91	1425.69
633.26	1415.72
633.60	1405.98
633.95	1396.71
634.29	1387.03
634.64	1377.67
634.98	1367.55
635.32	1358.23
635.67	1349.69
636.01	1340.40
636.36	1330.58
636.70	1320.89
637.05	1311.45
637.39	1302.47
637.73	1293.76
638.08	1286.21
638.42	1278.07
638.77	1269.13
639.11	1260.83
639.45	1253.08
639.80	1244.52
640.14	1235.66
640.49	1226.68
640.83	1217.80
641.17	1209.36
641.52	1201.12
641.86	1192.34
642.20	1184.47
642.55	1175.59
642.89	1166.62
643.23	1157.73
643.58	1149.45
643.92	1140.27
644.26	1131.52
644.61	1122.99
644.95	1114.10
645.29	1104.73
645.64	1095.32
645.98	1086.75
646.32	1078.73
646.66	1070.07
647.01	1061.71
647.35	1053.50
647.69	1045.20
648.04	1036.89
648.38	1027.95
648.72	1019.13
649.06	1010.68
649.41	1002.36
649.75	994.48
650.09	986.52
650.43	978.45
650.78	969.98
651.12	962.31
651.46	954.79
651.80	947.41
652.14	940.08
652.49	932.63
652.83	925.23
653.17	917.44
653.51	909.78
653.85	902.46
654.20	895.07
654.54	887.61
654.88	880.20
655.22	872.96
655.56	865.98
655.90	859.11
656.25	852.37
656.59	845.41
656.93	838.27
657.27	831.13
657.61	824.22
657.95	818.15
658.29	812.10
658.64	805.94
658.98	799.45
659.32	792.88
659.66	786.57
660.00	780.20
660.34	774.10
660.68	767.93
661.02	761.54
661.36	755.62
661.70	749.81
662.05	744.23
662.39	738.63
662.73	733.14
663.07	727.76
663.41	722.08
663.75	716.36
664.09	710.66
664.43	705.17
664.77	699.70
665.11	693.92
665.45	688.06
665.79	682.18
666.13	676.55
666.47	671.02
666.81	665.54
667.15	660.12
667.49	654.86
667.83	649.60
668.17	644.37
668.51	639.15
668.85	634.11
669.19	629.14
669.53	624.15
669.87	619.03
670.21	614.22
670.55	609.56
670.89	605.10
671.23	600.76
671.57	596.32
671.91	592.07
672.25	587.80
672.58	583.67
672.92	579.62
673.26	575.63
673.60	571.73
673.94	567.87
674.28	564.31
674.62	560.58
674.96	556.82
675.30	553.28
675.64	549.66
675.97	546.09
676.31	542.45
676.65	538.82
676.99	535.45
677.33	531.52
677.67	527.79
678.01	523.85
678.34	520.21
678.68	516.71
679.02	513.16
679.36	509.50
679.70	505.78
680.04	502.21
680.37	498.76
680.71	495.35
681.05	492.12
681.39	488.80
681.73	485.60
682.06	482.53
682.40	479.41
682.74	476.20
683.08	472.97
683.42	469.75
683.75	466.68
684.09	463.55
684.43	460.83
684.77	457.90
685.10	455.13
685.44	452.17
685.78	449.26
686.12	446.44
686.45	443.71
686.79	441.07
687.13	438.60
687.46	435.95
687.80	433.32
688.14	430.54
688.48	427.88
688.81	425.24
689.15	422.63
689.49	420.07
689.82	417.55
690.16	414.95
690.50	412.54
690.83	410.13
691.17	407.58
691.51	405.04
691.84	402.81
692.18	400.57
692.52	398.38
692.85	396.21
693.19	394.06
693.52	391.85
693.86	389.67
694.20	387.43
694.53	385.34
694.87	383.19
695.21	381.04
695.54	378.92
695.88	376.73
696.21	374.56
696.55	372.48
696.88	370.37
697.22	368.39
697.56	366.49
697.89	364.56
698.23	362.85
698.56	361.10
698.90	359.32
699.23	357.46
699.57	355.63
699.90	353.80
700.24	351.98
700.58	350.30
700.91	348.63
701.25	347.08
701.58	345.43
701.92	343.79
702.25	342.23
702.59	340.61
702.92	339.10
703.26	337.55
703.59	336.03
703.93	334.78
704.26	333.41
704.60	331.92
704.93	330.46
705.26	328.96
705.60	327.46
705.93	325.92
706.27	324.57
706.60	323.28
706.94	322.07
707.27	320.71
707.61	319.37
707.94	318.05
708.27	316.54
708.61	315.14
708.94	313.83
709.28	312.52
709.61	311.26
709.94	310.00
710.28	308.80
710.61	307.63
710.95	306.24
711.28	305.17
711.61	303.99
711.95	302.84
712.28	301.68
712.61	300.54
712.95	299.52
713.28	298.45
713.61	297.27
713.95	296.09
714.28	295.07
714.61	294.03
714.95	292.93
715.28	291.92
715.61	290.90
715.95	289.92
716.28	288.95
716.61	288.05
716.95	287.09
717.28	286.17
717.61	285.20
717.94	284.29
718.28	283.26
718.61	282.38
718.94	281.53
719.27	280.70
719.61	279.89
719.94	279.01
720.27	278.05
720.60	277.24
720.94	276.47
721.27	275.70
721.60	274.99
721.93	274.27
722.27	273.63
722.60	272.96
722.93	272.21
723.26	271.60
723.59	270.88
723.93	270.26
724.26	269.57
724.59	268.91
724.92	268.32
725.25	267.79
725.59	267.20
725.92	266.63
726.25	266.03
726.58	265.43
726.91	264.85
727.24	264.36
727.57	263.78
727.91	263.17
728.24	262.65
728.57	262.04
728.90	261.51
729.23	260.90
729.56	260.48
729.89	260.00
730.22	259.38
730.55	258.84
730.89	258.32
731.22	257.83
731.55	257.32
731.88	256.80
732.21	256.24
732.54	255.71
732.87	255.19
733.20	254.71
733.53	254.25
733.86	253.80
734.19	253.30
734.52	252.91
734.85	252.63
735.18	252.14
735.51	251.78
735.84	251.36
736.17	250.99
736.50	250.45
736.83	250.27
737.16	249.91
737.49	249.53
737.82	249.09
738.15	248.77
738.48	248.42
738.81	248.05
739.14	247.65
739.47	247.24
739.80	246.90
740.13	246.57
740.46	246.22
740.79	245.84
741.12	245.51
741.45	245.10
741.78	244.65
742.11	244.38
742.44	244.04
742.77	243.75
743.10	243.39
743.43	243.04
743.75	242.49
744.08	242.42
744.41	242.04
744.74	241.70
745.07	241.30
745.40	240.98
745.73	240.73
746.06	240.40
746.39	240.16
746.71	239.81
747.04	239.47
747.37	239.13
747.70	238.82
748.03	238.49
748.36	238.23
748.68	237.91
749.01	237.54
749.34	237.22
749.67	236.94
750.00	236.71
750.33	236.57
750.65	236.30
750.98	235.78
751.31	235.57
751.64	235.38
751.97	235.25
752.29	234.99
752.62	234.66
752.95	234.41
753.28	234.08
753.60	233.86
753.93	233.68
754.26	233.46
754.59	233.21
754.91	232.99
755.24	232.76
755.57	232.55
755.90	232.35
756.22	232.13
756.55	231.90
756.88	231.63
757.20	231.29
757.53	231.04
757.86	230.85
758.19	230.67
758.51	230.41
758.84	230.09
759.17	229.89
759.49	229.71
759.82	229.67
760.15	229.54
760.47	229.35
760.80	229.09
761.13	228.90
761.45	228.72
761.78	228.53
762.11	228.40
762.43	228.19
762.76	228.01
763.08	227.85
763.41	227.72
763.74	227.55
764.06	227.40
764.39	227.25
764.71	227.06
765.04	226.87
765.37	226.76
765.69	226.63
766.02	226.48
766.34	226.31
766.67	226.03
767.00	225.93
767.32	225.91
767.65	225.93
767.97	225.80
768.30	225.69
768.62	225.57
768.95	225.38
769.27	225.25
769.60	225.18
769.92	225.01
770.25	224.85
770.57	224.69
770.90	224.56
771.22	224.43
771.55	224.32
771.87	224.22
772.20	224.06
772.52	224.10
772.85	224.26
773.17	224.18
773.50	224.09
773.82	223.95
774.15	223.73
774.47	223.48
774.80	223.39
775.12	223.29
775.45	223.18
775.77	223.14
776.09	223.08
776.42	222.98
776.74	222.97
777.07	222.81
777.39	222.73
777.72	222.63
778.04	222.61
778.36	222.51
778.69	222.42
779.01	222.38
779.33	222.15
779.66	221.86
779.98	221.76
780.31	221.67
780.63	221.69
780.95	221.67
781.28	221.60
781.60	221.49
781.92	221.42
782.25	221.35
782.57	221.24
782.89	221.18
783.22	221.09
783.54	220.98
783.86	220.98
784.19	220.93
784.51	220.96
784.83	220.84
785.16	220.81
785.48	220.77
785.80	220.71
786.12	220.68
786.45	220.59
786.77	220.55
787.09	220.49
787.42	220.36
787.74	220.32
788.06	220.28
788.38	220.24
788.71	220.18
789.03	220.16
789.35	220.11
789.67	220.01
789.99	219.94
790.32	219.89
790.64	219.86
790.96	219.98
791.28	219.85
791.61	219.82
791.93	219.76
792.25	219.71
792.57	219.78
792.89	219.66
793.21	219.63
793.54	219.57
793.86	219.51
794.18	219.47
794.50	219.38
794.82	219.33
795.14	219.30
795.47	219.29
795.79	219.23
796.11	219.17
796.43	219.14
796.75	219.11
797.07	219.04
797.39	218.99
797.71	218.81
798.04	218.79
798.36	218.75
798.68	218.71
799.00	218.68
799.32	218.55
799.64	218.59
799.96	218.55
800.28	218.53
800.60	218.51
800.92	218.48
801.24	218.41
801.56	218.38
801.89	218.31
802.21	218.28
802.53	218.22
802.85	218.26
803.17	218.32
803.49	218.30
803.81	218.26
804.13	218.23
804.45	218.18
804.77	218.13
805.09	218.10
805.41	218.07
805.73	217.98
806.05	217.90
806.37	217.83
806.69	217.80
807.01	217.78
807.33	217.79
807.65	217.67
807.97	217.76
808.28	217.73
808.60	217.70
808.92	217.64
809.24	217.75
809.56	217.65
809.88	217.52
810.20	217.48
810.52	217.48
810.84	217.43
811.16	217.38
811.48	217.35
811.80	217.41
812.12	217.41
812.43	217.45
812.75	217.47
813.07	217.41
813.39	217.35
813.71	217.29
814.03	217.22
814.35	217.23
814.67	217.11
814.98	217.06
815.30	217.05
815.62	217.00
815.94	216.82
816.26	216.83
816.58	216.80
816.89	216.79
817.21	216.73
817.53	216.68
817.85	216.69
818.17	216.66
818.48	216.53
818.80	216.50
819.12	216.41
819.44	216.32
819.76	216.31
820.07	216.31
820.39	216.26
820.71	216.29
821.03	216.28
821.34	216.30
821.66	216.30
821.98	216.31
822.30	216.31
822.61	216.44
822.93	216.39
823.25	216.36
823.57	216.34
823.88	216.38
824.20	216.37
824.52	216.38
824.83	216.36
825.15	216.35
825.47	216.35
825.79	216.36
826.10	216.36
826.42	216.33
826.74	216.35
827.05	216.39
827.37	216.39
827.69	216.34
828.00	216.35
828.32	216.33
828.64	216.28
828.95	216.38
829.27	216.28
829.58	216.29
829.90	216.33
830.22	216.32
830.53	216.27
830.85	216.22
831.17	216.14
831.48	216.14
831.80	216.12
832.11	216.07
832.43	216.07
832.75	216.07
833.06	216.23
833.38	216.15
833.69	216.13
834.01	216.07
834.32	216.09
834.64	216.01
834.96	216.01
835.27	216.01
835.59	215.94
835.90	215.92
836.22	215.91
836.53	215.85
836.85	215.83
837.16	216.00
837.48	216.05
837.79	216.14
838.11	216.16
838.42	216.18
838.74	216.20
839.05	216.17
839.37	216.15
839.68	215.96
840.00	215.92
840.31	215.91
840.63	215.93
840.94	215.88
841.26	215.88
841.57	215.89
841.88	215.90
842.20	215.85
842.51	215.80
842.83	215.79
843.14	215.95
843.46	215.92
843.77	215.78
844.08	215.72
844.40	215.63
844.71	215.62
845.03	215.58
845.34	215.53
845.65	215.52
845.97	215.51
846.28	215.56
846.60	215.59
846.91	215.58
847.22	215.55
847.54	215.62
847.85	215.62
848.16	215.56
848.48	215.52
848.79	215.57
849.10	215.61
849.42	215.61
849.73	215.43
850.04	215.44
850.36	215.37
850.67	215.41
850.98	215.40
851.30	215.38
851.61	215.35
851.92	215.36
852.23	215.42
852.55	215.41
852.86	215.38
853.17	215.38
853.49	215.39
853.80	215.44
854.11	215.39
854.42	215.41
854.74	215.41
855.05	215.42
855.36	215.35
855.67	215.34
855.99	215.34
856.30	215.58
856.61	215.57
856.92	215.60
857.23	215.59
857.55	215.55
857.86	215.55
858.17	215.59
858.48	215.59
858.79	215.53
859.11	215.54
859.42	215.53
859.73	215.50
860.04	215.50
860.35	215.43
860.66	215.39
860.98	215.37
861.29	215.38
861.60	215.33
861.91	215.36
862.22	215.32
862.53	215.27
862.84	215.03
863.16	215.08
863.47	215.05
863.78	215.04
864.09	215.09
864.40	215.10
864.71	215.09
865.02	215.11
865.33	215.08
865.64	215.04
865.95	215.03
866.27	215.18
866.58	215.13
866.89	215.18
867.20	215.20
867.51	215.18
867.82	215.22
868.13	215.30
868.44	215.25
868.75	215.32
869.06	215.34
869.37	215.35
869.68	215.29
869.99	215.31
870.30	215.33
870.61	215.30
870.92	215.26
871.23	215.25
871.54	215.25
871.85	215.29
872.16	215.35
872.47	215.33
872.78	215.20
873.09	215.25
873.40	215.21
873.71	215.22
874.02	215.25
874.33	215.17
874.64	215.12
874.95	215.16
875.26	215.10
875.56	215.09
875.87	215.06
876.18	215.07
876.49	215.25
876.80	215.20
877.11	215.18
877.42	215.19
877.73	215.18
878.04	215.18
878.35	215.19
878.66	215.17
878.96	215.22
879.27	215.21
879.58	215.19
879.89	215.16
880.20	215.21
880.51	215.19
880.82	215.21
881.12	215.22
881.43	215.18
881.74	215.13
882.05	215.11
882.36	215.12
882.67	215.13
882.97	214.89
883.28	214.94
883.59	214.94
883.90	214.97
884.21	215.00
884.51	214.99
884.82	214.97
885.13	214.96
885.44	214.92
885.74	214.90
886.05	214.87
886.36	214.89
886.67	214.79
886.98	214.90
887.28	214.89
887.59	214.92
887.90	214.91
888.20	214.94
888.51	214.98
888.82	214.96
889.13	214.98
889.43	215.17
889.74	215.14
890.05	215.14
890.35	215.11
890.66	215.06
890.97	215.03
891.28	215.01
891.58	214.99
891.89	214.97
892.20	214.99
892.50	214.98
892.81	214.94
893.12	214.97
893.42	214.86
893.73	214.85
894.04	214.81
894.34	214.85
894.65	214.84
894.95	214.82
895.26	214.83
895.57	214.91
895.87	214.71
896.18	214.73
896.48	214.73
896.79	214.73
897.10	214.75
897.40	214.76
897.71	214.79
898.01	214.78
898.32	214.81
898.63	214.78
898.93	214.80
899.24	214.83
899.54	214.80
899.85	214.79
900.15	214.81
900.46	214.84
900.76	214.82
901.07	214.82
901.38	214.80
901.68	214.82
901.99	214.70
902.29	214.72
902.60	214.72
902.90	214.69
903.21	214.70
903.51	214.69
903.82	214.72
904.12	214.74
904.43	214.78
904.73	214.77
905.03	214.78
905.34	214.98
905.64	214.97
905.95	215.01
906.25	214.98
906.56	214.93
906.86	214.94
907.17	214.93
907.47	214.95
907.77	214.96
908.08	214.93
908.38	214.98
908.69	215.01
908.99	215.02
909.30	215.07
909.60	215.05
909.90	215.05
910.21	214.98
910.51	214.94
910.81	214.94
911.12	214.94
911.42	214.96
911.73	214.75
912.03	214.80
912.33	214.84
912.64	214.89
912.94	214.90
913.24	214.86
913.55	214.86
913.85	214.82
914.15	214.87
914.46	214.87
914.76	214.85
915.06	214.82
915.37	214.79
915.67	214.75
915.97	214.75
916.27	214.73
916.58	214.77
916.88	214.72
917.18	214.70
917.49	214.88
917.79	214.85
918.09	214.89
918.39	214.91
918.70	214.86
919.00	214.83
919.30	214.92
919.60	214.89
919.91	214.84
920.21	214.87
920.51	214.83
920.81	214.85
921.12	214.87
921.42	214.87
921.72	214.86
922.02	214.88
922.32	214.94
922.63	214.92
922.93	215.01
923.23	215.03
923.53	215.00
923.83	214.83
924.13	214.87
924.44	214.83
924.74	214.82
925.04	214.90
925.34	214.89
925.64	214.80
925.94	214.85
926.24	214.98
926.55	214.93
926.85	214.95
927.15	214.90
927.45	214.91
927.75	214.90
928.05	214.95
928.35	214.91
928.65	214.92
928.95	214.98
929.26	214.91
929.56	214.94
929.86	214.95
930.16	214.94
930.46	214.90
930.76	214.94
931.06	214.87
931.36	214.76
931.66	214.80
931.96	214.84
932.26	214.83
932.56	214.72
932.86	214.77
933.16	214.77
933.46	214.79
933.76	214.75
934.06	214.80
934.36	214.85
934.66	214.89
934.96	214.90
935.26	214.87
935.56	214.88
935.86	214.86
936.16	214.86
936.46	214.85
936.76	214.86
937.06	214.81
937.36	214.83
937.66	214.87
937.96	214.86
938.26	214.78
938.56	214.78
938.86	214.81
939.16	214.82
939.46	214.85
939.76	214.87
940.06	214.86
940.35	214.81
940.65	214.72
940.95	214.76
941.25	214.67
941.55	214.65
941.85	214.64
942.15	214.70
942.45	214.76
942.75	214.77
943.04	214.76
943.34	214.80
943.64	214.78
943.94	214.75
944.24	214.75
944.54	214.83
944.84	214.78
945.13	214.76
945.43	214.74
945.73	214.71
946.03	214.67
946.33	214.67
946.62	214.66
946.92	214.65
947.22	214.61
947.52	214.65
947.82	214.66
948.11	214.65
948.41	214.58
948.71	214.51
949.01	214.48
949.31	214.48
949.60	214.45
949.90	214.52
950.20	214.50
950.50	214.49
950.79	214.43
951.09	214.50
951.39	214.52
951.69	214.52
951.98	214.55
952.28	214.60
952.58	214.60
952.87	214.61
953.17	214.64
953.47	214.61
953.76	214.61
954.06	214.59
954.36	214.57
954.66	214.57
954.95	214.61
955.25	214.65
955.55	214.67
955.84	214.64
956.14	214.63
956.44	214.68
956.73	214.67
957.03	214.67
957.32	214.65
957.62	214.65
957.92	214.68
958.21	214.67
958.51	214.90
958.81	214.93
959.10	214.92
959.40	214.95
959.69	214.97
959.99	215.01
960.29	215.00
960.58	215.02
960.88	215.07
961.17	215.05
961.47	215.05
961.76	215.04
962.06	215.10
962.36	215.06
962.65	215.06
962.95	215.02
963.24	215.03
963.54	215.01
963.83	215.02
964.13	215.03
964.42	214.99
964.72	214.81
965.01	214.77
965.31	214.79
965.60	214.76
965.90	214.90
966.19	214.82
966.49	214.84
966.78	214.81
967.08	214.85
967.37	214.87
967.67	214.84
967.96	214.87
968.26	214.87
968.55	214.92
968.85	214.88
969.14	214.92
969.43	214.90
969.73	214.91
970.02	214.85
970.32	214.81
970.61	214.81
970.91	214.73
971.20	214.73
971.49	214.71
971.79	214.72
972.08	214.58
972.38	214.59
972.67	214.60
972.96	214.65
973.26	214.59
973.55	214.63
973.85	214.58
974.14	214.59
974.43	214.56
974.73	214.48
975.02	214.47
975.31	214.49
975.61	214.49
975.90	214.47
976.19	214.46
976.49	214.51
976.78	214.52
977.07	214.52
977.37	214.56
977.66	214.57
977.95	214.54
978.24	214.55
978.54	214.59
978.83	214.58
979.12	214.56
979.42	214.57
979.71	214.53
980.00	214.54
980.29	214.52
980.59	214.53
980.88	214.64
981.17	214.65
981.46	214.63
981.76	214.64
982.05	214.68
982.34	214.73
982.63	214.69
982.93	214.71
983.22	214.78
983.51	214.76
983.80	214.75
984.09	214.77
984.39	214.75
984.68	214.73
984.97	214.71
985.26	214.72
985.55	214.72
985.85	214.68
986.14	214.73
986.43	214.77
986.72	214.73
987.01	214.62
987.30	214.59
987.59	214.60
987.89	214.64
988.18	214.62
988.47	214.55
988.76	214.54
989.05	214.49
989.34	214.45
989.63	214.52
989.92	214.56
990.22	214.54
990.51	214.52
990.80	214.52
991.09	214.55
991.38	214.56
991.67	214.54
991.96	214.51
992.25	214.52
992.54	214.50
992.83	214.50
993.12	214.52
993.41	214.57
993.70	214.64
993.99	214.67
994.28	214.67
994.58	214.73
994.87	214.69
995.16	214.70
995.45	214.67
995.74	214.60
996.03	214.58
996.32	214.63
996.61	214.69
996.90	214.70
997.19	214.67
997.48	214.65
997.77	214.63
998.06	214.67
998.34	214.63
998.63	214.60
998.92	214.60
999.21	214.64
999.50	214.62
999.79	214.56
1000.08	214.55
1000.37	214.54
1000.66	214.51
1000.95	214.57
1001.24	214.58
1001.53	214.61
1001.82	214.60
1002.11	214.54
1002.40	214.53
1002.68	214.55
1002.97	214.72
1003.26	214.71
1003.55	214.69
1003.84	214.70
1004.13	214.79
1004.42	214.80
1004.71	214.80
1004.99	214.78
1005.28	214.82
1005.57	214.84
1005.86	214.81
1006.15	214.78
1006.44	214.75
1006.72	214.78
1007.01	214.75
1007.30	214.78
1007.59	214.78
1007.88	214.78
1008.17	214.81
1008.45	214.75
1008.74	214.70
1009.03	214.56
1009.32	214.56
1009.60	214.55
1009.89	214.56
1010.18	214.45
1010.47	214.45
1010.76	214.47
1011.04	214.49
1011.33	214.53
1011.62	214.54
1011.91	214.55
1012.19	214.55
1012.48	214.54
1012.77	214.55
1013.05	214.66
1013.34	214.64
1013.63	214.63
1013.92	214.64
1014.20	214.66
1014.49	214.69
1014.78	214.70
1015.06	214.65
1015.35	214.66
1015.64	214.69
1015.92	214.70
1016.21	214.70
1016.50	214.68
1016.78	214.71
1017.07	214.72
1017.36	214.66
1017.64	214.60
1017.93	214.67
1018.22	214.63
1018.50	214.66
1018.79	214.62
1019.08	214.50
1019.36	214.48
1019.65	214.45
1019.93	214.52
1020.22	214.52
1020.51	214.62
1020.79	214.58
1021.08	213.95
1021.36	214.33
1021.65	214.01
1021.94	214.16
1022.22	214.33
1022.51	214.11
1022.79	215.77
1023.08	214.77
1023.36	216.78
1023.65	213.93
>>>>>End Processed Spectral Data<<<<<
