SpectraSuite Data File
++++++++++++++++++++++++++++++++++++
Date: Tue Jan 29 16:02:41 EST 2013
User: group
Dark Spectrum Present: No
Reference Spectrum Present: No
Number of Sampled Component Spectra: 1
Spectrometers: USB2E7196
Integration Time (usec): 65000 (USB2E7196)
Spectra Averaged: 100 (USB2E7196)
Boxcar Smoothing: 10 (USB2E7196)
Correct for Electrical Dark: No (USB2E7196)
Strobe/Lamp Enabled: No (USB2E7196)
Correct for Detector Non-linearity: No (USB2E7196)
Correct for Stray Light: No (USB2E7196)
Number of Pixels in Processed Spectrum: 2048
>>>>>Begin Processed Spectral Data<<<<<
339.09	0.00
339.48	202.95
339.86	204.26
340.24	205.91
340.63	206.95
341.01	211.35
341.39	210.10
341.78	211.78
342.16	212.49
342.54	213.03
342.93	202.01
343.31	212.22
343.69	212.73
344.07	213.20
344.46	213.64
344.84	214.04
345.22	214.21
345.60	214.48
345.99	214.67
346.37	214.82
346.75	214.93
347.13	215.02
347.52	215.12
347.90	215.28
348.28	215.32
348.66	215.38
349.05	215.36
349.43	215.40
349.81	215.48
350.19	215.53
350.57	215.58
350.96	215.68
351.34	215.74
351.72	215.88
352.10	216.00
352.48	216.07
352.87	216.12
353.25	216.20
353.63	216.27
354.01	216.31
354.39	216.37
354.77	216.44
355.15	216.52
355.54	216.55
355.92	216.53
356.30	216.58
356.68	216.78
357.06	216.85
357.44	216.92
357.82	216.93
358.20	217.02
358.58	217.10
358.97	217.17
359.35	217.28
359.73	217.35
360.11	217.40
360.49	217.44
360.87	217.52
361.25	217.56
361.63	217.66
362.01	217.69
362.39	217.72
362.77	217.75
363.15	217.77
363.53	217.79
363.91	217.84
364.29	217.87
364.67	217.74
365.05	217.75
365.43	217.76
365.81	217.82
366.19	217.89
366.57	217.98
366.95	217.99
367.33	217.95
367.71	217.96
368.09	217.95
368.47	217.96
368.85	217.92
369.23	217.97
369.61	217.87
369.99	217.96
370.37	217.98
370.75	218.06
371.13	217.99
371.51	217.95
371.89	217.94
372.27	217.91
372.65	217.90
373.03	217.84
373.41	217.79
373.78	217.76
374.16	217.60
374.54	217.51
374.92	217.44
375.30	217.41
375.68	217.36
376.06	217.33
376.44	217.27
376.82	217.26
377.19	217.18
377.57	217.13
377.95	217.00
378.33	216.92
378.71	216.74
379.09	216.76
379.47	216.74
379.84	216.64
380.22	216.60
380.60	216.51
380.98	216.47
381.36	216.41
381.73	216.35
382.11	216.39
382.49	216.35
382.87	216.28
383.25	216.24
383.62	216.42
384.00	216.37
384.38	216.33
384.76	216.35
385.13	216.40
385.51	216.38
385.89	216.31
386.27	216.31
386.64	216.32
387.02	216.24
387.40	216.20
387.78	216.20
388.15	216.18
388.53	216.16
388.91	216.11
389.29	216.10
389.66	216.12
390.04	216.07
390.42	216.08
390.79	216.07
391.17	216.08
391.55	215.84
391.92	215.82
392.30	215.86
392.68	215.80
393.05	215.75
393.43	215.72
393.81	215.77
394.18	215.75
394.56	215.75
394.94	215.81
395.31	215.82
395.69	215.88
396.06	215.93
396.44	215.96
396.82	215.98
397.19	216.11
397.57	216.11
397.95	216.15
398.32	216.13
398.70	216.20
399.07	216.27
399.45	216.27
399.82	216.32
400.20	216.31
400.58	216.35
400.95	216.34
401.33	216.50
401.70	216.69
402.08	216.78
402.45	216.86
402.83	216.99
403.20	217.10
403.58	217.20
403.95	217.31
404.33	217.49
404.71	217.67
405.08	217.95
405.46	218.11
405.83	218.33
406.21	218.56
406.58	218.76
406.96	218.97
407.33	219.24
407.70	219.54
408.08	220.00
408.45	220.36
408.83	220.72
409.20	220.98
409.58	221.25
409.95	221.66
410.33	222.17
410.70	222.59
411.08	223.13
411.45	223.67
411.82	224.23
412.20	224.87
412.57	225.67
412.95	226.17
413.32	226.96
413.69	227.75
414.07	228.58
414.44	229.53
414.82	230.51
415.19	231.66
415.56	232.78
415.94	233.90
416.31	235.24
416.68	236.62
417.06	238.22
417.43	239.74
417.81	241.43
418.18	243.16
418.55	245.03
418.93	246.96
419.30	248.99
419.67	251.16
420.04	253.37
420.42	255.64
420.79	258.39
421.16	261.06
421.54	263.85
421.91	266.73
422.28	269.74
422.66	272.95
423.03	276.10
423.40	279.37
423.77	282.88
424.15	286.43
424.52	290.15
424.89	294.20
425.26	298.15
425.64	301.94
426.01	306.10
426.38	310.44
426.75	314.87
427.13	319.42
427.50	324.22
427.87	329.25
428.24	334.28
428.61	339.08
428.99	344.42
429.36	350.23
429.73	355.92
430.10	361.59
430.47	367.40
430.85	373.51
431.22	379.94
431.59	386.81
431.96	393.40
432.33	400.70
432.70	407.67
433.08	415.87
433.45	423.60
433.82	431.25
434.19	439.78
434.56	448.13
434.93	456.20
435.30	464.19
435.68	472.94
436.05	481.60
436.42	490.19
436.79	498.09
437.16	506.54
437.53	515.50
437.90	524.35
438.27	532.96
438.64	541.85
439.01	550.13
439.38	557.36
439.75	564.34
440.13	572.37
440.50	580.04
440.87	586.28
441.24	592.70
441.61	599.78
441.98	604.99
442.35	611.13
442.72	617.21
443.09	623.01
443.46	626.60
443.83	628.96
444.20	631.07
444.57	634.11
444.94	635.43
445.31	636.86
445.68	638.08
446.05	638.75
446.42	637.87
446.79	636.88
447.16	635.83
447.53	635.14
447.90	631.93
448.27	628.75
448.64	624.15
449.01	620.87
449.37	615.16
449.74	609.62
450.11	602.92
450.48	595.78
450.85	588.56
451.22	582.30
451.59	576.39
451.96	570.73
452.33	563.12
452.70	556.32
453.07	548.05
453.43	539.82
453.80	531.74
454.17	524.08
454.54	516.84
454.91	509.02
455.28	501.34
455.65	494.20
456.02	487.04
456.38	481.00
456.75	473.50
457.12	467.23
457.49	461.06
457.86	455.18
458.23	450.02
458.59	444.37
458.96	438.68
459.33	433.61
459.70	428.52
460.07	424.40
460.43	419.69
460.80	415.32
461.17	411.47
461.54	407.47
461.91	403.63
462.27	399.68
462.64	396.33
463.01	392.68
463.38	389.13
463.74	385.52
464.11	382.38
464.48	379.67
464.85	376.66
465.21	374.28
465.58	371.71
465.95	368.65
466.32	366.17
466.68	363.63
467.05	361.16
467.42	358.67
467.78	356.11
468.15	353.67
468.52	351.88
468.88	349.54
469.25	347.40
469.62	345.65
469.98	343.82
470.35	342.16
470.72	340.53
471.08	338.79
471.45	337.39
471.82	335.96
472.18	334.36
472.55	333.23
472.92	331.90
473.28	330.73
473.65	329.68
474.02	328.66
474.38	327.85
474.75	327.14
475.11	326.40
475.48	325.86
475.85	325.46
476.21	324.97
476.58	324.63
476.94	324.49
477.31	324.20
477.67	323.93
478.04	323.77
478.41	323.77
478.77	323.98
479.14	323.95
479.50	324.09
479.87	324.39
480.23	324.76
480.60	325.09
480.96	325.42
481.33	326.04
481.69	326.59
482.06	327.10
482.42	327.65
482.79	328.26
483.15	329.07
483.52	330.00
483.88	330.94
484.25	331.89
484.61	332.89
484.98	333.97
485.34	335.32
485.71	336.70
486.07	338.16
486.44	339.49
486.80	341.10
487.17	342.82
487.53	344.63
487.90	346.47
488.26	348.48
488.62	350.63
488.99	352.65
489.35	354.82
489.72	357.25
490.08	359.73
490.44	362.28
490.81	365.00
491.17	367.73
491.54	370.73
491.90	373.76
492.26	377.01
492.63	380.46
492.99	383.91
493.36	387.61
493.72	391.46
494.08	395.47
494.45	399.63
494.81	403.98
495.17	408.44
495.54	413.16
495.90	417.91
496.26	422.85
496.63	428.03
496.99	433.38
497.35	438.94
497.72	444.69
498.08	450.57
498.44	456.62
498.80	463.01
499.17	469.44
499.53	476.16
499.89	483.07
500.26	490.02
500.62	497.15
500.98	504.44
501.34	511.93
501.71	519.66
502.07	527.42
502.43	535.41
502.79	543.51
503.16	551.80
503.52	560.40
503.88	569.03
504.24	578.02
504.60	587.08
504.97	596.24
505.33	605.58
505.69	615.42
506.05	625.34
506.41	635.17
506.78	645.24
507.14	655.39
507.50	665.75
507.86	676.41
508.22	687.12
508.59	697.89
508.95	708.92
509.31	720.17
509.67	731.49
510.03	742.86
510.39	754.59
510.75	766.47
511.12	778.36
511.48	790.46
511.84	802.55
512.20	814.81
512.56	827.31
512.92	839.95
513.28	852.57
513.64	865.26
514.00	877.91
514.37	890.78
514.73	903.80
515.09	916.55
515.45	929.22
515.81	942.09
516.17	955.24
516.53	968.26
516.89	981.20
517.25	994.35
517.61	1007.72
517.97	1020.93
518.33	1033.93
518.69	1047.28
519.05	1060.89
519.41	1074.32
519.77	1088.05
520.13	1101.35
520.49	1114.35
520.85	1127.42
521.21	1140.48
521.57	1154.01
521.93	1166.87
522.29	1180.45
522.65	1194.07
523.01	1207.59
523.37	1220.64
523.73	1233.76
524.09	1246.70
524.45	1259.98
524.81	1273.20
525.17	1286.20
525.53	1299.09
525.89	1312.06
526.25	1324.87
526.61	1337.36
526.97	1350.31
527.33	1362.87
527.68	1375.99
528.04	1389.18
528.40	1402.13
528.76	1415.08
529.12	1427.63
529.48	1440.67
529.84	1452.68
530.20	1465.06
530.56	1477.40
530.91	1490.33
531.27	1502.88
531.63	1515.45
531.99	1527.86
532.35	1539.88
532.71	1552.06
533.07	1564.63
533.42	1576.62
533.78	1588.49
534.14	1600.29
534.50	1611.13
534.86	1622.50
535.21	1632.96
535.57	1644.08
535.93	1655.08
536.29	1666.02
536.65	1677.20
537.00	1687.87
537.36	1698.83
537.72	1709.52
538.08	1720.36
538.44	1730.96
538.79	1741.74
539.15	1752.25
539.51	1762.62
539.87	1773.65
540.22	1784.14
540.58	1794.79
540.94	1805.27
541.29	1815.19
541.65	1824.57
542.01	1834.79
542.37	1844.60
542.72	1854.64
543.08	1864.20
543.44	1874.32
543.79	1883.40
544.15	1892.60
544.51	1902.44
544.87	1912.05
545.22	1920.80
545.58	1929.55
545.94	1938.13
546.29	1946.39
546.65	1954.53
547.01	1962.61
547.36	1970.01
547.72	1977.49
548.07	1984.90
548.43	1992.48
548.79	2000.20
549.14	2008.28
549.50	2016.50
549.86	2023.96
550.21	2031.01
550.57	2038.51
550.92	2045.02
551.28	2052.24
551.64	2059.34
551.99	2066.55
552.35	2073.44
552.70	2080.24
553.06	2086.75
553.41	2092.91
553.77	2099.24
554.13	2105.50
554.48	2112.26
554.84	2119.00
555.19	2125.26
555.55	2131.59
555.90	2137.89
556.26	2144.50
556.61	2150.12
556.97	2154.91
557.32	2160.80
557.68	2167.18
558.03	2172.78
558.39	2178.08
558.74	2183.99
559.10	2189.58
559.45	2194.99
559.81	2200.46
560.16	2206.15
560.52	2212.05
560.87	2218.45
561.23	2224.41
561.58	2231.04
561.94	2236.32
562.29	2241.26
562.64	2247.59
563.00	2253.02
563.35	2258.54
563.71	2264.47
564.06	2270.13
564.42	2276.11
564.77	2281.17
565.12	2286.28
565.48	2291.47
565.83	2296.96
566.19	2302.53
566.54	2307.97
566.89	2312.53
567.25	2317.33
567.60	2322.82
567.96	2328.14
568.31	2332.65
568.66	2336.88
569.02	2340.79
569.37	2344.55
569.72	2349.00
570.08	2352.55
570.43	2355.80
570.78	2358.81
571.14	2361.43
571.49	2364.84
571.84	2368.49
572.20	2371.38
572.55	2374.50
572.90	2376.93
573.26	2380.09
573.61	2382.49
573.96	2384.66
574.31	2386.90
574.67	2388.79
575.02	2390.01
575.37	2391.42
575.72	2392.55
576.08	2394.19
576.43	2394.63
576.78	2395.46
577.13	2397.49
577.49	2398.80
577.84	2400.29
578.19	2401.91
578.54	2402.80
578.90	2403.92
579.25	2403.91
579.60	2404.21
579.95	2403.80
580.30	2404.23
580.66	2403.64
581.01	2402.23
581.36	2400.33
581.71	2399.22
582.06	2398.48
582.42	2397.76
582.77	2395.82
583.12	2394.46
583.47	2393.44
583.82	2392.91
584.17	2391.81
584.53	2389.59
584.88	2387.77
585.23	2386.04
585.58	2383.99
585.93	2381.93
586.28	2379.96
586.63	2377.84
586.98	2375.85
587.34	2374.33
587.69	2372.21
588.04	2370.50
588.39	2369.33
588.74	2366.95
589.09	2364.58
589.44	2361.77
589.79	2359.55
590.14	2357.78
590.49	2355.00
590.84	2351.33
591.19	2348.56
591.54	2345.43
591.89	2341.59
592.25	2338.53
592.60	2334.43
592.95	2330.46
593.30	2326.48
593.65	2322.13
594.00	2317.92
594.35	2315.05
594.70	2310.36
595.05	2305.83
595.40	2300.48
595.75	2295.04
596.10	2291.52
596.45	2286.82
596.80	2282.33
597.15	2277.15
597.50	2271.31
597.85	2266.43
598.19	2261.35
598.54	2255.71
598.89	2250.83
599.24	2246.52
599.59	2240.51
599.94	2235.10
600.29	2229.40
600.64	2223.63
600.99	2217.11
601.34	2211.76
601.69	2204.72
602.04	2198.40
602.39	2191.89
602.74	2185.92
603.08	2180.43
603.43	2173.94
603.78	2167.11
604.13	2160.10
604.48	2152.95
604.83	2147.10
605.18	2140.93
605.53	2134.03
605.87	2127.02
606.22	2120.04
606.57	2112.13
606.92	2104.30
607.27	2097.31
607.62	2090.67
607.96	2083.68
608.31	2077.21
608.66	2069.38
609.01	2061.94
609.36	2054.90
609.70	2047.23
610.05	2039.50
610.40	2031.20
610.75	2023.01
611.10	2015.45
611.44	2006.79
611.79	1998.08
612.14	1988.01
612.49	1977.60
612.83	1968.51
613.18	1959.37
613.53	1950.17
613.88	1940.69
614.22	1932.23
614.57	1922.23
614.92	1911.75
615.27	1901.80
615.61	1891.84
615.96	1882.28
616.31	1872.79
616.65	1863.58
617.00	1853.63
617.35	1844.04
617.70	1834.35
618.04	1824.31
618.39	1813.89
618.74	1804.18
619.08	1794.79
619.43	1786.25
619.78	1778.13
620.12	1769.34
620.47	1759.54
620.82	1749.34
621.16	1739.57
621.51	1729.53
621.85	1719.67
622.20	1709.11
622.55	1698.43
622.89	1688.56
623.24	1678.93
623.59	1669.20
623.93	1658.89
624.28	1649.34
624.62	1639.09
624.97	1628.77
625.32	1619.14
625.66	1610.32
626.01	1601.41
626.35	1591.83
626.70	1581.55
627.04	1571.33
627.39	1561.22
627.73	1552.04
628.08	1542.93
628.43	1533.29
628.77	1523.97
629.12	1515.13
629.46	1507.27
629.81	1498.75
630.15	1489.11
630.50	1479.17
630.84	1468.60
631.19	1458.73
631.53	1449.25
631.88	1439.13
632.22	1429.16
632.57	1419.64
632.91	1409.52
633.26	1399.65
633.60	1390.06
633.95	1380.76
634.29	1371.34
634.64	1361.97
634.98	1351.98
635.32	1342.64
635.67	1334.11
636.01	1324.81
636.36	1315.02
636.70	1305.56
637.05	1296.19
637.39	1287.22
637.73	1278.56
638.08	1271.09
638.42	1262.71
638.77	1253.99
639.11	1245.70
639.45	1237.82
639.80	1229.16
640.14	1220.47
640.49	1211.53
640.83	1202.75
641.17	1194.73
641.52	1186.30
641.86	1177.70
642.20	1169.76
642.55	1161.17
642.89	1152.28
643.23	1143.74
643.58	1135.54
643.92	1126.45
644.26	1117.87
644.61	1109.38
644.95	1100.64
645.29	1091.24
645.64	1082.15
645.98	1073.76
646.32	1065.77
646.66	1057.26
647.01	1048.83
647.35	1040.64
647.69	1032.24
648.04	1023.90
648.38	1014.87
648.72	1006.17
649.06	997.67
649.41	989.53
649.75	981.43
650.09	973.58
650.43	965.47
650.78	957.35
651.12	949.71
651.46	942.31
651.80	935.08
652.14	927.65
652.49	920.21
652.83	912.85
653.17	905.05
653.51	897.43
653.85	890.08
654.20	882.88
654.54	875.42
654.88	868.33
655.22	861.20
655.56	854.33
655.90	847.59
656.25	841.01
656.59	834.05
656.93	827.15
657.27	820.03
657.61	813.17
657.95	807.02
658.29	801.20
658.64	795.04
658.98	788.52
659.32	782.05
659.66	775.79
660.00	769.51
660.34	763.55
660.68	757.47
661.02	751.26
661.36	745.42
661.70	739.66
662.05	733.94
662.39	728.48
662.73	723.10
663.07	717.77
663.41	712.18
663.75	706.57
664.09	701.04
664.43	695.66
664.77	690.33
665.11	684.53
665.45	678.73
665.79	673.03
666.13	667.43
666.47	662.02
666.81	656.68
667.15	651.40
667.49	646.19
667.83	641.08
668.17	635.92
668.51	630.80
668.85	625.93
669.19	621.16
669.53	616.16
669.87	611.13
670.21	606.43
670.55	601.79
670.89	597.43
671.23	593.19
671.57	588.89
671.91	584.63
672.25	580.57
672.58	576.34
672.92	572.35
673.26	568.46
673.60	564.63
673.94	560.83
674.28	557.25
674.62	553.55
674.96	549.87
675.30	546.40
675.64	542.86
675.97	539.38
676.31	535.81
676.65	532.29
676.99	528.85
677.33	525.03
677.67	521.39
678.01	517.53
678.34	513.92
678.68	510.38
679.02	506.79
679.36	503.13
679.70	499.63
680.04	496.13
680.37	492.76
680.71	489.50
681.05	486.39
681.39	483.25
681.73	480.17
682.06	477.15
682.40	474.07
682.74	470.85
683.08	467.69
683.42	464.55
683.75	461.66
684.09	458.71
684.43	455.94
684.77	453.12
685.10	450.45
685.44	447.55
685.78	444.70
686.12	442.03
686.45	439.34
686.79	436.65
687.13	434.09
687.46	431.47
687.80	428.92
688.14	426.11
688.48	423.51
688.81	420.91
689.15	418.41
689.49	415.87
689.82	413.41
690.16	410.81
690.50	408.39
690.83	405.90
691.17	403.40
691.51	401.03
691.84	398.81
692.18	396.61
692.52	394.46
692.85	392.38
693.19	390.27
693.52	388.16
693.86	386.05
694.20	383.93
694.53	381.88
694.87	379.68
695.21	377.64
695.54	375.51
695.88	373.40
696.21	371.19
696.55	369.11
696.88	367.14
697.22	365.20
697.56	363.36
697.89	361.52
698.23	359.81
698.56	358.04
698.90	356.27
699.23	354.38
699.57	352.55
699.90	350.74
700.24	348.97
700.58	347.25
700.91	345.65
701.25	344.10
701.58	342.52
701.92	340.93
702.25	339.34
702.59	337.77
702.92	336.25
703.26	334.76
703.59	333.35
703.93	332.11
704.26	330.74
704.60	329.30
704.93	327.87
705.26	326.42
705.60	324.98
705.93	323.54
706.27	322.24
706.60	321.04
706.94	319.82
707.27	318.44
707.61	317.15
707.94	315.80
708.27	314.36
708.61	312.94
708.94	311.64
709.28	310.43
709.61	309.19
709.94	308.01
710.28	306.84
710.61	305.64
710.95	304.24
711.28	303.22
711.61	302.09
711.95	300.98
712.28	299.76
712.61	298.63
712.95	297.60
713.28	296.59
713.61	295.49
713.95	294.38
714.28	293.40
714.61	292.40
714.95	291.40
715.28	290.41
715.61	289.46
715.95	288.53
716.28	287.59
716.61	286.70
716.95	285.77
717.28	284.88
717.61	283.99
717.94	283.14
718.28	282.13
718.61	281.26
718.94	280.37
719.27	279.58
719.61	278.80
719.94	277.94
720.27	276.96
720.60	276.10
720.94	275.30
721.27	274.61
721.60	273.96
721.93	273.27
722.27	272.63
722.60	271.97
722.93	271.27
723.26	270.62
723.59	269.95
723.93	269.32
724.26	268.69
724.59	268.06
724.92	267.46
725.25	266.93
725.59	266.37
725.92	265.82
726.25	265.25
726.58	264.67
726.91	264.12
727.24	263.64
727.57	263.09
727.91	262.52
728.24	261.98
728.57	261.35
728.90	260.82
729.23	260.22
729.56	259.78
729.89	259.22
730.22	258.68
730.55	258.13
730.89	257.60
731.22	257.08
731.55	256.54
731.88	256.03
732.21	255.48
732.54	254.98
732.87	254.48
733.20	254.03
733.53	253.56
733.86	253.10
734.19	252.64
734.52	252.26
734.85	251.98
735.18	251.50
735.51	251.15
735.84	250.72
736.17	250.38
736.50	249.89
736.83	249.78
737.16	249.39
737.49	249.01
737.82	248.64
738.15	248.31
738.48	247.97
738.81	247.57
739.14	247.17
739.47	246.76
739.80	246.42
740.13	246.09
740.46	245.71
740.79	245.34
741.12	244.98
741.45	244.60
741.78	244.16
742.11	243.87
742.44	243.48
742.77	243.23
743.10	242.87
743.43	242.45
743.75	241.92
744.08	241.85
744.41	241.51
744.74	241.14
745.07	240.76
745.40	240.44
745.73	240.25
746.06	239.97
746.39	239.69
746.71	239.33
747.04	239.00
747.37	238.66
747.70	238.41
748.03	238.13
748.36	237.88
748.68	237.61
749.01	237.28
749.34	237.03
749.67	236.72
750.00	236.50
750.33	236.45
750.65	236.19
750.98	235.66
751.31	235.46
751.64	235.26
751.97	235.13
752.29	234.88
752.62	234.53
752.95	234.29
753.28	234.05
753.60	233.84
753.93	233.66
754.26	233.49
754.59	233.20
754.91	232.94
755.24	232.70
755.57	232.47
755.90	232.22
756.22	232.00
756.55	231.77
756.88	231.49
757.20	231.17
757.53	230.92
757.86	230.72
758.19	230.50
758.51	230.34
758.84	230.05
759.17	229.85
759.49	229.67
759.82	229.59
760.15	229.44
760.47	229.27
760.80	229.05
761.13	228.90
761.45	228.73
761.78	228.59
762.11	228.42
762.43	228.24
762.76	228.09
763.08	227.96
763.41	227.81
763.74	227.67
764.06	227.52
764.39	227.37
764.71	227.23
765.04	227.06
765.37	226.87
765.69	226.76
766.02	226.64
766.34	226.54
766.67	226.33
767.00	226.22
767.32	226.19
767.65	226.15
767.97	226.01
768.30	225.89
768.62	225.75
768.95	225.62
769.27	225.50
769.60	225.41
769.92	225.26
770.25	225.10
770.57	224.96
770.90	224.81
771.22	224.67
771.55	224.60
771.87	224.50
772.20	224.40
772.52	224.46
772.85	224.57
773.17	224.43
773.50	224.31
773.82	224.16
774.15	223.97
774.47	223.79
774.80	223.63
775.12	223.54
775.45	223.46
775.77	223.38
776.09	223.28
776.42	223.20
776.74	223.15
777.07	223.04
777.39	222.97
777.72	222.89
778.04	222.83
778.36	222.73
778.69	222.67
779.01	222.61
779.33	222.35
779.66	222.03
779.98	221.96
780.31	221.88
780.63	221.91
780.95	221.85
781.28	221.77
781.60	221.75
781.92	221.70
782.25	221.62
782.57	221.55
782.89	221.48
783.22	221.39
783.54	221.27
783.86	221.24
784.19	221.17
784.51	221.17
784.83	221.08
785.16	221.02
785.48	220.93
785.80	220.85
786.12	220.81
786.45	220.74
786.77	220.68
787.09	220.64
787.42	220.48
787.74	220.45
788.06	220.40
788.38	220.30
788.71	220.21
789.03	220.17
789.35	220.13
789.67	220.07
789.99	220.07
790.32	220.04
790.64	220.01
790.96	220.13
791.28	220.03
791.61	220.00
791.93	219.97
792.25	219.94
792.57	220.04
792.89	219.94
793.21	219.91
793.54	219.86
793.86	219.77
794.18	219.77
794.50	219.68
794.82	219.57
795.14	219.56
795.47	219.56
795.79	219.50
796.11	219.42
796.43	219.39
796.75	219.30
797.07	219.27
797.39	219.22
797.71	219.04
798.04	219.01
798.36	218.97
798.68	218.92
799.00	218.89
799.32	218.75
799.64	218.77
799.96	218.77
800.28	218.79
800.60	218.79
800.92	218.73
801.24	218.68
801.56	218.69
801.89	218.65
802.21	218.60
802.53	218.57
802.85	218.60
803.17	218.63
803.49	218.56
803.81	218.52
804.13	218.47
804.45	218.40
804.77	218.39
805.09	218.34
805.41	218.29
805.73	218.23
806.05	218.13
806.37	218.12
806.69	218.07
807.01	218.00
807.33	217.96
807.65	217.86
807.97	217.95
808.28	217.95
808.60	217.91
808.92	217.85
809.24	217.95
809.56	217.89
809.88	217.81
810.20	217.82
810.52	217.83
810.84	217.78
811.16	217.76
811.48	217.72
811.80	217.80
812.12	217.75
812.43	217.75
812.75	217.78
813.07	217.69
813.39	217.67
813.71	217.62
814.03	217.59
814.35	217.62
814.67	217.48
814.98	217.40
815.30	217.37
815.62	217.33
815.94	217.18
816.26	217.15
816.58	217.09
816.89	217.09
817.21	217.00
817.53	217.00
817.85	216.97
818.17	216.94
818.48	216.86
818.80	216.91
819.12	216.86
819.44	216.79
819.76	216.76
820.07	216.74
820.39	216.74
820.71	216.73
821.03	216.75
821.34	216.77
821.66	216.80
821.98	216.84
822.30	216.84
822.61	216.96
822.93	216.92
823.25	216.95
823.57	216.90
823.88	216.94
824.20	216.92
824.52	216.97
824.83	216.96
825.15	216.90
825.47	216.85
825.79	216.87
826.10	216.84
826.42	216.82
826.74	216.86
827.05	216.82
827.37	216.80
827.69	216.72
828.00	216.71
828.32	216.70
828.64	216.67
828.95	216.77
829.27	216.67
829.58	216.68
829.90	216.67
830.22	216.67
830.53	216.62
830.85	216.54
831.17	216.47
831.48	216.42
831.80	216.42
832.11	216.38
832.43	216.34
832.75	216.35
833.06	216.48
833.38	216.38
833.69	216.34
834.01	216.34
834.32	216.31
834.64	216.27
834.96	216.24
835.27	216.24
835.59	216.14
835.90	216.11
836.22	216.08
836.53	216.04
836.85	216.01
837.16	216.20
837.48	216.23
837.79	216.29
838.11	216.32
838.42	216.31
838.74	216.35
839.05	216.33
839.37	216.32
839.68	216.18
840.00	216.15
840.31	216.21
840.63	216.18
840.94	216.18
841.26	216.12
841.57	216.13
841.88	216.11
842.20	216.07
842.51	216.04
842.83	216.05
843.14	216.23
843.46	216.22
843.77	216.10
844.08	216.08
844.40	216.00
844.71	215.94
845.03	215.91
845.34	215.89
845.65	215.90
845.97	215.90
846.28	215.92
846.60	215.93
846.91	215.86
847.22	215.87
847.54	215.90
847.85	215.93
848.16	215.91
848.48	215.90
848.79	215.97
849.10	215.98
849.42	215.98
849.73	215.76
850.04	215.76
850.36	215.67
850.67	215.70
850.98	215.73
851.30	215.78
851.61	215.79
851.92	215.77
852.23	215.82
852.55	215.83
852.86	215.85
853.17	215.87
853.49	215.92
853.80	215.93
854.11	215.95
854.42	216.00
854.74	215.96
855.05	215.98
855.36	215.88
855.67	215.85
855.99	215.84
856.30	216.10
856.61	216.09
856.92	216.10
857.23	216.08
857.55	216.02
857.86	216.00
858.17	216.03
858.48	216.01
858.79	215.96
859.11	215.97
859.42	215.90
859.73	215.87
860.04	215.84
860.35	215.77
860.66	215.71
860.98	215.67
861.29	215.72
861.60	215.67
861.91	215.72
862.22	215.72
862.53	215.69
862.84	215.45
863.16	215.47
863.47	215.45
863.78	215.44
864.09	215.45
864.40	215.46
864.71	215.42
865.02	215.43
865.33	215.38
865.64	215.31
865.95	215.33
866.27	215.48
866.58	215.46
866.89	215.52
867.20	215.48
867.51	215.45
867.82	215.42
868.13	215.49
868.44	215.42
868.75	215.45
869.06	215.44
869.37	215.45
869.68	215.42
869.99	215.42
870.30	215.46
870.61	215.49
870.92	215.47
871.23	215.46
871.54	215.50
871.85	215.55
872.16	215.59
872.47	215.55
872.78	215.40
873.09	215.41
873.40	215.38
873.71	215.41
874.02	215.40
874.33	215.37
874.64	215.32
874.95	215.37
875.26	215.31
875.56	215.34
875.87	215.31
876.18	215.28
876.49	215.49
876.80	215.47
877.11	215.41
877.42	215.40
877.73	215.40
878.04	215.35
878.35	215.36
878.66	215.35
878.96	215.39
879.27	215.37
879.58	215.38
879.89	215.35
880.20	215.40
880.51	215.44
880.82	215.44
881.12	215.45
881.43	215.40
881.74	215.38
882.05	215.41
882.36	215.39
882.67	215.41
882.97	215.22
883.28	215.19
883.59	215.18
883.90	215.21
884.21	215.25
884.51	215.22
884.82	215.19
885.13	215.20
885.44	215.21
885.74	215.24
886.05	215.22
886.36	215.23
886.67	215.16
886.98	215.23
887.28	215.26
887.59	215.29
887.90	215.29
888.20	215.29
888.51	215.29
888.82	215.31
889.13	215.33
889.43	215.51
889.74	215.48
890.05	215.49
890.35	215.47
890.66	215.43
890.97	215.45
891.28	215.43
891.58	215.41
891.89	215.41
892.20	215.42
892.50	215.40
892.81	215.41
893.12	215.41
893.42	215.34
893.73	215.33
894.04	215.33
894.34	215.34
894.65	215.33
894.95	215.28
895.26	215.30
895.57	215.40
895.87	215.18
896.18	215.22
896.48	215.22
896.79	215.24
897.10	215.28
897.40	215.30
897.71	215.34
898.01	215.34
898.32	215.34
898.63	215.31
898.93	215.34
899.24	215.36
899.54	215.35
899.85	215.31
900.15	215.34
900.46	215.34
900.76	215.35
901.07	215.33
901.38	215.37
901.68	215.40
901.99	215.27
902.29	215.31
902.60	215.29
902.90	215.30
903.21	215.27
903.51	215.25
903.82	215.28
904.12	215.29
904.43	215.30
904.73	215.30
905.03	215.30
905.34	215.47
905.64	215.43
905.95	215.42
906.25	215.46
906.56	215.40
906.86	215.35
907.17	215.34
907.47	215.35
907.77	215.31
908.08	215.27
908.38	215.31
908.69	215.34
908.99	215.39
909.30	215.42
909.60	215.44
909.90	215.46
910.21	215.40
910.51	215.38
910.81	215.38
911.12	215.37
911.42	215.36
911.73	215.16
912.03	215.19
912.33	215.22
912.64	215.18
912.94	215.20
913.24	215.20
913.55	215.19
913.85	215.19
914.15	215.23
914.46	215.25
914.76	215.22
915.06	215.18
915.37	215.12
915.67	215.12
915.97	215.11
916.27	215.05
916.58	215.06
916.88	215.03
917.18	215.01
917.49	215.15
917.79	215.14
918.09	215.17
918.39	215.22
918.70	215.22
919.00	215.23
919.30	215.30
919.60	215.29
919.91	215.29
920.21	215.29
920.51	215.26
920.81	215.23
921.12	215.26
921.42	215.24
921.72	215.27
922.02	215.25
922.32	215.29
922.63	215.31
922.93	215.41
923.23	215.43
923.53	215.40
923.83	215.28
924.13	215.28
924.44	215.29
924.74	215.29
925.04	215.33
925.34	215.35
925.64	215.27
925.94	215.28
926.24	215.39
926.55	215.38
926.85	215.40
927.15	215.40
927.45	215.39
927.75	215.40
928.05	215.39
928.35	215.37
928.65	215.38
928.95	215.38
929.26	215.30
929.56	215.34
929.86	215.38
930.16	215.35
930.46	215.36
930.76	215.38
931.06	215.31
931.36	215.27
931.66	215.27
931.96	215.31
932.26	215.32
932.56	215.25
932.86	215.28
933.16	215.26
933.46	215.24
933.76	215.21
934.06	215.25
934.36	215.33
934.66	215.32
934.96	215.33
935.26	215.34
935.56	215.36
935.86	215.30
936.16	215.27
936.46	215.25
936.76	215.25
937.06	215.21
937.36	215.24
937.66	215.24
937.96	215.25
938.26	215.21
938.56	215.21
938.86	215.19
939.16	215.21
939.46	215.28
939.76	215.31
940.06	215.31
940.35	215.28
940.65	215.17
940.95	215.20
941.25	215.12
941.55	215.08
941.85	215.05
942.15	215.10
942.45	215.18
942.75	215.19
943.04	215.17
943.34	215.20
943.64	215.14
943.94	215.08
944.24	215.08
944.54	215.10
944.84	215.07
945.13	215.05
945.43	215.03
945.73	214.96
946.03	214.93
946.33	214.90
946.62	214.87
946.92	214.88
947.22	214.89
947.52	214.89
947.82	214.92
948.11	214.92
948.41	214.87
948.71	214.80
949.01	214.82
949.31	214.81
949.60	214.80
949.90	214.86
950.20	214.88
950.50	214.85
950.79	214.83
951.09	214.86
951.39	214.86
951.69	214.83
951.98	214.87
952.28	214.87
952.58	214.89
952.87	214.90
953.17	214.90
953.47	214.87
953.76	214.85
954.06	214.82
954.36	214.76
954.66	214.76
954.95	214.83
955.25	214.83
955.55	214.86
955.84	214.83
956.14	214.85
956.44	214.86
956.73	214.85
957.03	214.86
957.32	214.87
957.62	214.86
957.92	214.91
958.21	214.90
958.51	215.15
958.81	215.16
959.10	215.17
959.40	215.24
959.69	215.25
959.99	215.33
960.29	215.35
960.58	215.38
960.88	215.47
961.17	215.43
961.47	215.45
961.76	215.42
962.06	215.43
962.36	215.40
962.65	215.38
962.95	215.40
963.24	215.37
963.54	215.35
963.83	215.37
964.13	215.36
964.42	215.29
964.72	215.14
965.01	215.14
965.31	215.13
965.60	215.09
965.90	215.21
966.19	215.16
966.49	215.16
966.78	215.14
967.08	215.08
967.37	215.08
967.67	215.04
967.96	215.10
968.26	215.10
968.55	215.14
968.85	215.16
969.14	215.17
969.43	215.18
969.73	215.18
970.02	215.16
970.32	215.12
970.61	215.17
970.91	215.10
971.20	215.09
971.49	215.06
971.79	215.07
972.08	214.95
972.38	214.95
972.67	214.94
972.96	214.99
973.26	214.98
973.55	215.05
973.85	215.05
974.14	215.02
974.43	215.06
974.73	214.98
975.02	214.98
975.31	214.97
975.61	214.97
975.90	214.95
976.19	214.96
976.49	214.99
976.78	214.95
977.07	214.93
977.37	214.94
977.66	214.95
977.95	214.94
978.24	214.94
978.54	215.00
978.83	214.97
979.12	214.93
979.42	214.94
979.71	214.88
980.00	214.87
980.29	214.88
980.59	214.83
980.88	214.92
981.17	214.89
981.46	214.90
981.76	214.89
982.05	214.94
982.34	214.98
982.63	214.93
982.93	214.93
983.22	215.01
983.51	215.01
983.80	215.04
984.09	215.04
984.39	215.03
984.68	214.95
984.97	214.96
985.26	214.96
985.55	214.95
985.85	214.90
986.14	214.91
986.43	214.91
986.72	214.89
987.01	214.84
987.30	214.81
987.59	214.77
987.89	214.80
988.18	214.74
988.47	214.68
988.76	214.68
989.05	214.69
989.34	214.66
989.63	214.70
989.92	214.67
990.22	214.63
990.51	214.63
990.80	214.66
991.09	214.69
991.38	214.70
991.67	214.68
991.96	214.65
992.25	214.66
992.54	214.63
992.83	214.65
993.12	214.62
993.41	214.71
993.70	214.80
993.99	214.82
994.28	214.88
994.58	214.91
994.87	214.89
995.16	214.92
995.45	214.90
995.74	214.83
996.03	214.87
996.32	214.91
996.61	214.95
996.90	214.90
997.19	214.87
997.48	214.87
997.77	214.90
998.06	214.93
998.34	214.93
998.63	214.93
998.92	214.94
999.21	214.97
999.50	214.92
999.79	214.88
1000.08	214.85
1000.37	214.84
1000.66	214.80
1000.95	214.86
1001.24	214.83
1001.53	214.83
1001.82	214.84
1002.11	214.80
1002.40	214.82
1002.68	214.87
1002.97	215.07
1003.26	215.06
1003.55	215.03
1003.84	215.01
1004.13	215.09
1004.42	215.05
1004.71	215.05
1004.99	215.01
1005.28	215.09
1005.57	215.08
1005.86	215.05
1006.15	215.04
1006.44	214.99
1006.72	215.03
1007.01	215.00
1007.30	214.99
1007.59	214.98
1007.88	214.97
1008.17	214.97
1008.45	214.92
1008.74	214.86
1009.03	214.73
1009.32	214.76
1009.60	214.78
1009.89	214.76
1010.18	214.68
1010.47	214.70
1010.76	214.67
1011.04	214.67
1011.33	214.65
1011.62	214.66
1011.91	214.67
1012.19	214.71
1012.48	214.68
1012.77	214.70
1013.05	214.79
1013.34	214.78
1013.63	214.79
1013.92	214.83
1014.20	214.83
1014.49	214.84
1014.78	214.83
1015.06	214.77
1015.35	214.75
1015.64	214.74
1015.92	214.79
1016.21	214.82
1016.50	214.81
1016.78	214.86
1017.07	214.87
1017.36	214.79
1017.64	214.79
1017.93	214.78
1018.22	214.70
1018.50	214.74
1018.79	214.70
1019.08	214.61
1019.36	214.64
1019.65	214.64
1019.93	214.65
1020.22	214.69
1020.51	214.80
1020.79	214.76
1021.08	213.84
1021.36	214.47
1021.65	214.57
1021.94	214.79
1022.22	214.73
1022.51	214.89
1022.79	215.35
1023.08	215.39
1023.36	217.04
1023.65	213.95
>>>>>End Processed Spectral Data<<<<<
