SpectraSuite Data File
++++++++++++++++++++++++++++++++++++
Date: Tue Jan 29 16:29:41 EST 2013
User: group
Dark Spectrum Present: No
Reference Spectrum Present: No
Number of Sampled Component Spectra: 1
Spectrometers: USB2E7196
Integration Time (usec): 65000 (USB2E7196)
Spectra Averaged: 100 (USB2E7196)
Boxcar Smoothing: 10 (USB2E7196)
Correct for Electrical Dark: No (USB2E7196)
Strobe/Lamp Enabled: No (USB2E7196)
Correct for Detector Non-linearity: No (USB2E7196)
Correct for Stray Light: No (USB2E7196)
Number of Pixels in Processed Spectrum: 2048
>>>>>Begin Processed Spectral Data<<<<<
339.09	0.00
339.48	201.92
339.86	203.35
340.24	204.87
340.63	206.27
341.01	210.46
341.39	209.67
341.78	210.34
342.16	212.09
342.54	212.41
342.93	201.30
343.31	211.47
343.69	212.03
344.07	212.51
344.46	212.96
344.84	213.37
345.22	213.54
345.60	213.79
345.99	214.00
346.37	214.12
346.75	214.23
347.13	214.29
347.52	214.39
347.90	214.52
348.28	214.57
348.66	214.63
349.05	214.58
349.43	214.66
349.81	214.73
350.19	214.79
350.57	214.86
350.96	214.92
351.34	215.02
351.72	215.13
352.10	215.26
352.48	215.32
352.87	215.38
353.25	215.47
353.63	215.57
354.01	215.65
354.39	215.74
354.77	215.82
355.15	215.93
355.54	215.97
355.92	215.96
356.30	216.03
356.68	216.23
357.06	216.36
357.44	216.39
357.82	216.45
358.20	216.54
358.58	216.57
358.97	216.67
359.35	216.78
359.73	216.86
360.11	216.88
360.49	216.94
360.87	216.97
361.25	217.06
361.63	217.12
362.01	217.18
362.39	217.20
362.77	217.25
363.15	217.31
363.53	217.34
363.91	217.36
364.29	217.40
364.67	217.24
365.05	217.25
365.43	217.30
365.81	217.36
366.19	217.48
366.57	217.58
366.95	217.58
367.33	217.51
367.71	217.50
368.09	217.56
368.47	217.54
368.85	217.55
369.23	217.56
369.61	217.50
369.99	217.52
370.37	217.55
370.75	217.62
371.13	217.54
371.51	217.47
371.89	217.48
372.27	217.46
372.65	217.44
373.03	217.41
373.41	217.35
373.78	217.27
374.16	217.11
374.54	217.01
374.92	216.95
375.30	216.93
375.68	216.88
376.06	216.82
376.44	216.79
376.82	216.75
377.19	216.69
377.57	216.62
377.95	216.51
378.33	216.43
378.71	216.27
379.09	216.24
379.47	216.24
379.84	216.18
380.22	216.13
380.60	216.05
380.98	215.99
381.36	215.92
381.73	215.87
382.11	215.88
382.49	215.87
382.87	215.83
383.25	215.79
383.62	215.96
384.00	215.90
384.38	215.87
384.76	215.90
385.13	215.96
385.51	215.91
385.89	215.87
386.27	215.86
386.64	215.86
387.02	215.83
387.40	215.78
387.78	215.73
388.15	215.73
388.53	215.68
388.91	215.67
389.29	215.67
389.66	215.66
390.04	215.62
390.42	215.66
390.79	215.65
391.17	215.64
391.55	215.44
391.92	215.43
392.30	215.43
392.68	215.34
393.05	215.30
393.43	215.34
393.81	215.38
394.18	215.37
394.56	215.35
394.94	215.41
395.31	215.40
395.69	215.49
396.06	215.49
396.44	215.53
396.82	215.53
397.19	215.67
397.57	215.68
397.95	215.74
398.32	215.67
398.70	215.71
399.07	215.78
399.45	215.78
399.82	215.82
400.20	215.86
400.58	215.95
400.95	215.92
401.33	216.01
401.70	216.19
402.08	216.26
402.45	216.36
402.83	216.48
403.20	216.62
403.58	216.70
403.95	216.86
404.33	217.03
404.71	217.22
405.08	217.45
405.46	217.65
405.83	217.84
406.21	218.08
406.58	218.34
406.96	218.55
407.33	218.82
407.70	219.11
408.08	219.57
408.45	219.95
408.83	220.36
409.20	220.68
409.58	220.91
409.95	221.37
410.33	221.86
410.70	222.31
411.08	222.87
411.45	223.45
411.82	224.03
412.20	224.69
412.57	225.52
412.95	226.09
413.32	226.92
413.69	227.73
414.07	228.61
414.44	229.57
414.82	230.63
415.19	231.82
415.56	233.00
415.94	234.16
416.31	235.53
416.68	236.93
417.06	238.54
417.43	240.10
417.81	241.84
418.18	243.65
418.55	245.52
418.93	247.53
419.30	249.67
419.67	251.87
420.04	254.17
420.42	256.53
420.79	259.35
421.16	262.11
421.54	265.01
421.91	267.99
422.28	271.09
422.66	274.36
423.03	277.59
423.40	280.98
423.77	284.60
424.15	288.27
424.52	292.11
424.89	296.31
425.26	300.41
425.64	304.26
426.01	308.52
426.38	313.00
426.75	317.57
427.13	322.26
427.50	327.23
427.87	332.40
428.24	337.56
428.61	342.57
428.99	348.12
429.36	354.14
429.73	360.05
430.10	365.93
430.47	372.00
430.85	378.33
431.22	385.02
431.59	392.11
431.96	398.92
432.33	406.36
432.70	413.57
433.08	422.05
433.45	430.16
433.82	438.18
434.19	447.11
434.56	455.76
434.93	464.13
435.30	472.38
435.68	481.49
436.05	490.43
436.42	499.31
436.79	507.32
437.16	516.06
437.53	525.33
437.90	534.42
438.27	543.34
438.64	552.54
439.01	561.03
439.38	568.59
439.75	575.88
440.13	584.37
440.50	592.30
440.87	598.78
441.24	605.41
441.61	612.72
441.98	618.03
442.35	624.40
442.72	630.65
443.09	636.72
443.46	640.53
443.83	643.15
444.20	645.39
444.57	648.58
444.94	649.95
445.31	651.39
445.68	652.85
446.05	653.45
446.42	652.67
446.79	651.75
447.16	650.72
447.53	649.98
447.90	646.67
448.27	643.40
448.64	638.68
449.01	635.36
449.37	629.50
449.74	623.91
450.11	617.01
450.48	609.66
450.85	602.29
451.22	595.76
451.59	589.60
451.96	583.78
452.33	575.94
452.70	568.93
453.07	560.38
453.43	551.75
453.80	543.47
454.17	535.48
454.54	527.89
454.91	519.66
455.28	511.66
455.65	504.24
456.02	496.75
456.38	490.47
456.75	482.59
457.12	476.01
457.49	469.47
457.86	463.32
458.23	457.95
458.59	452.01
458.96	446.04
459.33	440.72
459.70	435.30
460.07	431.11
460.43	426.21
460.80	421.70
461.17	417.70
461.54	413.56
461.91	409.55
462.27	405.50
462.64	402.10
463.01	398.33
463.38	394.63
463.74	390.94
464.11	387.65
464.48	384.84
464.85	381.72
465.21	379.28
465.58	376.62
465.95	373.46
466.32	370.80
466.68	368.16
467.05	365.58
467.42	363.03
467.78	360.32
468.15	357.79
468.52	355.87
468.88	353.38
469.25	351.12
469.62	349.31
469.98	347.36
470.35	345.48
470.72	343.81
471.08	341.99
471.45	340.48
471.82	338.99
472.18	337.29
472.55	336.12
472.92	334.73
473.28	333.52
473.65	332.36
474.02	331.29
474.38	330.40
474.75	329.62
475.11	328.81
475.48	328.24
475.85	327.77
476.21	327.32
476.58	326.96
476.94	326.74
477.31	326.44
477.67	326.15
478.04	326.05
478.41	326.00
478.77	326.24
479.14	326.17
479.50	326.30
479.87	326.63
480.23	326.92
480.60	327.17
480.96	327.42
481.33	328.08
481.69	328.60
482.06	329.12
482.42	329.62
482.79	330.21
483.15	331.01
483.52	331.94
483.88	332.79
484.25	333.71
484.61	334.71
484.98	335.75
485.34	337.08
485.71	338.44
486.07	339.84
486.44	341.13
486.80	342.79
487.17	344.47
487.53	346.32
487.90	348.19
488.26	350.22
488.62	352.36
488.99	354.37
489.35	356.56
489.72	358.96
490.08	361.48
490.44	364.08
490.81	366.77
491.17	369.51
491.54	372.50
491.90	375.56
492.26	378.85
492.63	382.25
492.99	385.75
493.36	389.43
493.72	393.29
494.08	397.27
494.45	401.48
494.81	405.89
495.17	410.33
495.54	415.10
495.90	419.98
496.26	424.96
496.63	430.18
496.99	435.56
497.35	441.17
497.72	447.01
498.08	452.94
498.44	459.05
498.80	465.54
499.17	472.09
499.53	478.80
499.89	485.71
500.26	492.74
500.62	499.82
500.98	507.30
501.34	514.77
501.71	522.60
502.07	530.44
502.43	538.46
502.79	546.62
503.16	555.01
503.52	563.58
503.88	572.32
504.24	581.32
504.60	590.49
504.97	599.75
505.33	609.04
505.69	618.96
506.05	628.94
506.41	638.80
506.78	648.88
507.14	659.21
507.50	669.68
507.86	680.50
508.22	691.38
508.59	702.10
508.95	713.31
509.31	724.67
509.67	736.21
510.03	747.65
510.39	759.47
510.75	771.36
511.12	783.39
511.48	795.57
511.84	807.91
512.20	820.30
512.56	833.03
512.92	845.95
513.28	858.72
513.64	871.60
514.00	884.51
514.37	897.64
514.73	910.82
515.09	923.98
515.45	936.89
515.81	950.05
516.17	963.53
516.53	976.87
516.89	990.09
517.25	1003.36
517.61	1016.99
517.97	1030.47
518.33	1043.81
518.69	1057.44
519.05	1071.27
519.41	1085.03
519.77	1099.01
520.13	1112.44
520.49	1125.69
520.85	1139.17
521.21	1152.56
521.57	1166.40
521.93	1179.57
522.29	1193.49
522.65	1207.28
523.01	1221.04
523.37	1234.36
523.73	1247.74
524.09	1261.04
524.45	1274.57
524.81	1288.26
525.17	1301.88
525.53	1315.25
525.89	1328.73
526.25	1341.94
526.61	1354.99
526.97	1368.18
527.33	1381.26
527.68	1394.85
528.04	1408.44
528.40	1421.77
528.76	1435.20
529.12	1448.20
529.48	1461.56
529.84	1473.97
530.20	1486.69
530.56	1499.42
530.91	1512.69
531.27	1525.69
531.63	1538.47
531.99	1551.39
532.35	1563.65
532.71	1576.11
533.07	1589.06
533.42	1601.39
533.78	1613.68
534.14	1625.84
534.50	1637.22
534.86	1648.95
535.21	1659.92
535.57	1671.59
535.93	1682.97
536.29	1694.21
536.65	1705.81
537.00	1716.90
537.36	1728.25
537.72	1739.46
538.08	1751.02
538.44	1762.20
538.79	1773.47
539.15	1784.46
539.51	1795.31
539.87	1806.76
540.22	1817.66
540.58	1828.62
540.94	1839.53
541.29	1849.93
541.65	1859.76
542.01	1870.44
542.37	1880.58
542.72	1890.89
543.08	1900.66
543.44	1911.19
543.79	1920.54
544.15	1930.08
544.51	1940.22
544.87	1950.29
545.22	1959.72
545.58	1968.62
545.94	1977.71
546.29	1986.28
546.65	1994.76
547.01	2003.06
547.36	2010.80
547.72	2018.79
548.07	2026.53
548.43	2034.48
548.79	2042.43
549.14	2050.69
549.50	2059.24
549.86	2067.16
550.21	2074.64
550.57	2082.49
550.92	2089.28
551.28	2096.91
551.64	2104.23
551.99	2111.80
552.35	2118.99
552.70	2125.88
553.06	2132.53
553.41	2138.77
553.77	2145.33
554.13	2151.90
554.48	2158.98
554.84	2166.10
555.19	2172.56
555.55	2179.10
555.90	2185.39
556.26	2192.29
556.61	2198.39
556.97	2203.32
557.32	2209.16
557.68	2215.56
558.03	2221.48
558.39	2226.96
558.74	2232.96
559.10	2238.48
559.45	2244.25
559.81	2249.83
560.16	2255.31
560.52	2261.35
560.87	2267.78
561.23	2273.79
561.58	2280.43
561.94	2285.77
562.29	2290.57
562.64	2296.60
563.00	2302.22
563.35	2307.77
563.71	2313.54
564.06	2319.27
564.42	2325.23
564.77	2330.38
565.12	2335.76
565.48	2340.77
565.83	2346.34
566.19	2351.77
566.54	2357.20
566.89	2361.72
567.25	2366.43
567.60	2372.25
567.96	2377.38
568.31	2382.01
568.66	2386.12
569.02	2390.22
569.37	2393.82
569.72	2398.35
570.08	2401.94
570.43	2405.08
570.78	2408.25
571.14	2410.81
571.49	2413.81
571.84	2417.27
572.20	2420.21
572.55	2423.09
572.90	2425.50
573.26	2428.25
573.61	2430.87
573.96	2433.09
574.31	2435.14
574.67	2437.00
575.02	2437.77
575.37	2439.18
575.72	2439.77
576.08	2441.20
576.43	2441.19
576.78	2441.77
577.13	2443.34
577.49	2444.45
577.84	2445.58
578.19	2446.90
578.54	2447.45
578.90	2448.36
579.25	2448.29
579.60	2448.13
579.95	2447.39
580.30	2447.44
580.66	2446.64
581.01	2444.86
581.36	2442.47
581.71	2440.98
582.06	2439.69
582.42	2438.66
582.77	2436.46
583.12	2434.87
583.47	2433.53
583.82	2433.02
584.17	2431.73
584.53	2429.46
584.88	2427.47
585.23	2425.46
585.58	2423.11
585.93	2421.01
586.28	2418.60
586.63	2415.99
586.98	2413.74
587.34	2411.83
587.69	2409.33
588.04	2407.38
588.39	2405.93
588.74	2403.41
589.09	2400.71
589.44	2397.56
589.79	2395.12
590.14	2393.13
590.49	2390.30
590.84	2386.51
591.19	2383.20
591.54	2379.89
591.89	2375.74
592.25	2372.37
592.60	2368.10
592.95	2363.92
593.30	2359.71
593.65	2355.23
594.00	2350.89
594.35	2347.82
594.70	2342.94
595.05	2338.26
595.40	2332.55
595.75	2326.72
596.10	2323.09
596.45	2318.08
596.80	2313.46
597.15	2308.21
597.50	2302.19
597.85	2297.23
598.19	2292.01
598.54	2286.22
598.89	2280.90
599.24	2276.33
599.59	2270.07
599.94	2264.13
600.29	2258.06
600.64	2252.09
600.99	2245.46
601.34	2239.84
601.69	2232.86
602.04	2226.59
602.39	2219.85
602.74	2213.76
603.08	2208.28
603.43	2201.60
603.78	2194.74
604.13	2187.76
604.48	2180.46
604.83	2174.30
605.18	2167.87
605.53	2160.86
605.87	2153.80
606.22	2147.03
606.57	2139.03
606.92	2130.96
607.27	2124.05
607.62	2117.50
607.96	2110.44
608.31	2103.86
608.66	2096.09
609.01	2088.50
609.36	2081.41
609.70	2073.86
610.05	2065.95
610.40	2057.48
610.75	2049.11
611.10	2041.37
611.44	2032.40
611.79	2023.60
612.14	2013.45
612.49	2002.77
612.83	1993.32
613.18	1984.04
613.53	1974.60
613.88	1964.95
614.22	1956.42
614.57	1946.55
614.92	1935.86
615.27	1925.58
615.61	1915.42
615.96	1905.68
616.31	1896.00
616.65	1886.34
617.00	1876.43
617.35	1866.89
617.70	1857.19
618.04	1847.09
618.39	1836.70
618.74	1826.92
619.08	1817.24
619.43	1808.53
619.78	1800.29
620.12	1791.66
620.47	1781.96
620.82	1771.68
621.16	1761.95
621.51	1751.95
621.85	1742.01
622.20	1731.49
622.55	1720.77
622.89	1710.82
623.24	1701.06
623.59	1691.09
623.93	1681.04
624.28	1671.22
624.62	1661.08
624.97	1650.63
625.32	1640.86
625.66	1632.05
626.01	1623.21
626.35	1613.89
626.70	1603.85
627.04	1593.64
627.39	1583.63
627.73	1574.35
628.08	1565.41
628.43	1555.76
628.77	1546.44
629.12	1537.43
629.46	1529.62
629.81	1521.38
630.15	1511.74
630.50	1501.84
630.84	1491.43
631.19	1481.34
631.53	1471.97
631.88	1461.63
632.22	1451.57
632.57	1442.11
632.91	1431.98
633.26	1422.03
633.60	1412.35
633.95	1402.94
634.29	1393.41
634.64	1383.88
634.98	1373.64
635.32	1364.08
635.67	1355.57
636.01	1346.24
636.36	1336.51
636.70	1326.88
637.05	1317.39
637.39	1308.57
637.73	1299.84
638.08	1292.15
638.42	1283.94
638.77	1275.05
639.11	1266.88
639.45	1259.03
639.80	1250.43
640.14	1241.59
640.49	1232.69
640.83	1223.74
641.17	1215.63
641.52	1207.51
641.86	1198.75
642.20	1190.95
642.55	1182.35
642.89	1173.35
643.23	1164.62
643.58	1156.37
643.92	1147.29
644.26	1138.57
644.61	1130.06
644.95	1121.30
645.29	1112.03
645.64	1102.76
645.98	1094.13
646.32	1086.15
646.66	1077.60
647.01	1069.20
647.35	1060.95
647.69	1052.63
648.04	1044.33
648.38	1035.31
648.72	1026.46
649.06	1018.04
649.41	1009.74
649.75	1001.80
650.09	993.90
650.43	985.86
650.78	977.54
651.12	969.82
651.46	962.30
651.80	954.85
652.14	947.51
652.49	939.92
652.83	932.64
653.17	924.89
653.51	917.16
653.85	909.81
654.20	902.47
654.54	894.99
654.88	887.54
655.22	880.30
655.56	873.21
655.90	866.35
656.25	859.61
656.59	852.69
656.93	845.49
657.27	838.28
657.61	831.17
657.95	825.01
658.29	818.94
658.64	812.77
658.98	806.27
659.32	799.56
659.66	793.25
660.00	786.84
660.34	780.82
660.68	774.61
661.02	768.22
661.36	762.24
661.70	756.31
662.05	750.68
662.39	745.07
662.73	739.63
663.07	734.18
663.41	728.54
663.75	722.78
664.09	717.07
664.43	711.57
664.77	706.23
665.11	700.33
665.45	694.43
665.79	688.55
666.13	682.81
666.47	677.31
666.81	671.81
667.15	666.34
667.49	661.00
667.83	655.70
668.17	650.39
668.51	645.22
668.85	640.26
669.19	635.30
669.53	630.22
669.87	625.06
670.21	620.25
670.55	615.39
670.89	610.86
671.23	606.46
671.57	602.06
671.91	597.68
672.25	593.51
672.58	589.33
672.92	585.17
673.26	581.16
673.60	577.24
673.94	573.34
674.28	569.68
674.62	565.97
674.96	562.22
675.30	558.64
675.64	554.95
675.97	551.29
676.31	547.65
676.65	544.01
676.99	540.57
677.33	536.67
677.67	533.09
678.01	529.18
678.34	525.54
678.68	521.94
679.02	518.34
679.36	514.56
679.70	510.83
680.04	507.27
680.37	503.79
680.71	500.39
681.05	497.14
681.39	493.84
681.73	490.60
682.06	487.47
682.40	484.40
682.74	481.11
683.08	477.89
683.42	474.64
683.75	471.59
684.09	468.44
684.43	465.51
684.77	462.49
685.10	459.58
685.44	456.61
685.78	453.65
686.12	450.82
686.45	448.01
686.79	445.35
687.13	442.74
687.46	440.05
687.80	437.30
688.14	434.46
688.48	431.80
688.81	429.06
689.15	426.47
689.49	423.76
689.82	421.19
690.16	418.58
690.50	416.09
690.83	413.55
691.17	411.04
691.51	408.56
691.84	406.25
692.18	404.00
692.52	401.79
692.85	399.62
693.19	397.49
693.52	395.39
693.86	393.10
694.20	390.93
694.53	388.79
694.87	386.59
695.21	384.43
695.54	382.24
695.88	380.06
696.21	377.84
696.55	375.69
696.88	373.63
697.22	371.65
697.56	369.72
697.89	367.80
698.23	366.01
698.56	364.13
698.90	362.34
699.23	360.44
699.57	358.50
699.90	356.54
700.24	354.68
700.58	352.84
700.91	351.17
701.25	349.54
701.58	347.89
701.92	346.29
702.25	344.70
702.59	343.02
702.92	341.49
703.26	339.85
703.59	338.38
703.93	337.08
704.26	335.61
704.60	334.10
704.93	332.60
705.26	331.04
705.60	329.64
705.93	328.07
706.27	326.70
706.60	325.44
706.94	324.26
707.27	322.82
707.61	321.42
707.94	320.07
708.27	318.53
708.61	317.05
708.94	315.63
709.28	314.31
709.61	313.03
709.94	311.77
710.28	310.54
710.61	309.34
710.95	307.88
711.28	306.73
711.61	305.54
711.95	304.41
712.28	303.23
712.61	301.99
712.95	300.94
713.28	299.89
713.61	298.71
713.95	297.52
714.28	296.48
714.61	295.44
714.95	294.39
715.28	293.36
715.61	292.35
715.95	291.38
716.28	290.38
716.61	289.42
716.95	288.44
717.28	287.56
717.61	286.57
717.94	285.69
718.28	284.70
718.61	283.77
718.94	282.84
719.27	281.97
719.61	281.15
719.94	280.34
720.27	279.38
720.60	278.51
720.94	277.70
721.27	276.94
721.60	276.25
721.93	275.52
722.27	274.83
722.60	274.14
722.93	273.41
723.26	272.75
723.59	272.05
723.93	271.38
724.26	270.67
724.59	270.04
724.92	269.42
725.25	268.87
725.59	268.32
725.92	267.77
726.25	267.15
726.58	266.57
726.91	265.87
727.24	265.30
727.57	264.72
727.91	264.09
728.24	263.55
728.57	262.95
728.90	262.36
729.23	261.76
729.56	261.33
729.89	260.75
730.22	260.17
730.55	259.66
730.89	259.10
731.22	258.59
731.55	258.03
731.88	257.50
732.21	256.91
732.54	256.35
732.87	255.84
733.20	255.38
733.53	254.88
733.86	254.46
734.19	253.97
734.52	253.56
734.85	253.28
735.18	252.81
735.51	252.41
735.84	252.02
736.17	251.65
736.50	251.07
736.83	250.92
737.16	250.53
737.49	250.11
737.82	249.69
738.15	249.33
738.48	248.98
738.81	248.61
739.14	248.21
739.47	247.85
739.80	247.45
740.13	247.10
740.46	246.69
740.79	246.27
741.12	245.88
741.45	245.51
741.78	245.07
742.11	244.78
742.44	244.37
742.77	244.03
743.10	243.66
743.43	243.33
743.75	242.76
744.08	242.66
744.41	242.28
744.74	241.95
745.07	241.54
745.40	241.21
745.73	240.95
746.06	240.63
746.39	240.28
746.71	239.92
747.04	239.56
747.37	239.26
747.70	238.98
748.03	238.68
748.36	238.37
748.68	238.06
749.01	237.69
749.34	237.40
749.67	237.12
750.00	236.84
750.33	236.75
750.65	236.51
750.98	235.97
751.31	235.70
751.64	235.50
751.97	235.38
752.29	235.10
752.62	234.73
752.95	234.49
753.28	234.21
753.60	233.97
753.93	233.81
754.26	233.58
754.59	233.30
754.91	233.08
755.24	232.88
755.57	232.62
755.90	232.41
756.22	232.16
756.55	231.92
756.88	231.66
757.20	231.27
757.53	231.00
757.86	230.83
758.19	230.66
758.51	230.42
758.84	230.10
759.17	229.88
759.49	229.74
759.82	229.65
760.15	229.51
760.47	229.35
760.80	229.07
761.13	228.90
761.45	228.72
761.78	228.51
762.11	228.32
762.43	228.15
762.76	227.95
763.08	227.84
763.41	227.69
763.74	227.60
764.06	227.46
764.39	227.31
764.71	227.14
765.04	226.96
765.37	226.83
765.69	226.71
766.02	226.56
766.34	226.36
766.67	226.13
767.00	226.02
767.32	225.99
767.65	225.96
767.97	225.85
768.30	225.75
768.62	225.63
768.95	225.47
769.27	225.35
769.60	225.27
769.92	225.08
770.25	224.90
770.57	224.68
770.90	224.55
771.22	224.41
771.55	224.29
771.87	224.19
772.20	224.03
772.52	224.08
772.85	224.25
773.17	224.14
773.50	224.03
773.82	223.91
774.15	223.68
774.47	223.49
774.80	223.33
775.12	223.21
775.45	223.11
775.77	223.01
776.09	222.91
776.42	222.79
776.74	222.77
777.07	222.67
777.39	222.60
777.72	222.51
778.04	222.45
778.36	222.38
778.69	222.27
779.01	222.23
779.33	221.97
779.66	221.64
779.98	221.57
780.31	221.48
780.63	221.48
780.95	221.46
781.28	221.37
781.60	221.35
781.92	221.31
782.25	221.25
782.57	221.21
782.89	221.13
783.22	221.04
783.54	220.91
783.86	220.87
784.19	220.81
784.51	220.80
784.83	220.71
785.16	220.63
785.48	220.59
785.80	220.51
786.12	220.47
786.45	220.38
786.77	220.31
787.09	220.27
787.42	220.12
787.74	220.05
788.06	220.00
788.38	219.91
788.71	219.83
789.03	219.79
789.35	219.74
789.67	219.65
789.99	219.63
790.32	219.57
790.64	219.55
790.96	219.67
791.28	219.53
791.61	219.46
791.93	219.41
792.25	219.38
792.57	219.49
792.89	219.39
793.21	219.33
793.54	219.27
793.86	219.20
794.18	219.17
794.50	219.05
794.82	219.00
795.14	218.97
795.47	218.98
795.79	218.93
796.11	218.85
796.43	218.81
796.75	218.73
797.07	218.67
797.39	218.61
797.71	218.44
798.04	218.44
798.36	218.42
798.68	218.36
799.00	218.30
799.32	218.13
799.64	218.14
799.96	218.17
800.28	218.19
800.60	218.12
800.92	218.10
801.24	218.09
801.56	218.08
801.89	218.02
802.21	217.95
802.53	217.88
802.85	217.89
803.17	217.96
803.49	217.89
803.81	217.85
804.13	217.82
804.45	217.78
804.77	217.75
805.09	217.73
805.41	217.69
805.73	217.67
806.05	217.62
806.37	217.61
806.69	217.54
807.01	217.49
807.33	217.52
807.65	217.43
807.97	217.50
808.28	217.45
808.60	217.42
808.92	217.39
809.24	217.52
809.56	217.49
809.88	217.39
810.20	217.40
810.52	217.41
810.84	217.32
811.16	217.25
811.48	217.22
811.80	217.25
812.12	217.25
812.43	217.24
812.75	217.19
813.07	217.11
813.39	217.12
813.71	217.03
814.03	217.01
814.35	216.99
814.67	216.87
814.98	216.86
815.30	216.85
815.62	216.81
815.94	216.65
816.26	216.65
816.58	216.60
816.89	216.60
817.21	216.56
817.53	216.56
817.85	216.56
818.17	216.53
818.48	216.47
818.80	216.48
819.12	216.42
819.44	216.40
819.76	216.39
820.07	216.36
820.39	216.35
820.71	216.31
821.03	216.28
821.34	216.24
821.66	216.25
821.98	216.20
822.30	216.16
822.61	216.25
822.93	216.17
823.25	216.14
823.57	216.08
823.88	216.11
824.20	216.08
824.52	216.08
824.83	216.07
825.15	215.99
825.47	215.96
825.79	215.98
826.10	215.95
826.42	215.93
826.74	215.92
827.05	215.91
827.37	215.90
827.69	215.88
828.00	215.88
828.32	215.87
828.64	215.87
828.95	215.99
829.27	215.87
829.58	215.89
829.90	215.90
830.22	215.92
830.53	215.85
830.85	215.83
831.17	215.74
831.48	215.72
831.80	215.71
832.11	215.68
832.43	215.67
832.75	215.65
833.06	215.75
833.38	215.67
833.69	215.69
834.01	215.67
834.32	215.66
834.64	215.64
834.96	215.58
835.27	215.53
835.59	215.44
835.90	215.45
836.22	215.44
836.53	215.41
836.85	215.38
837.16	215.58
837.48	215.58
837.79	215.67
838.11	215.69
838.42	215.68
838.74	215.73
839.05	215.68
839.37	215.66
839.68	215.49
840.00	215.51
840.31	215.49
840.63	215.47
840.94	215.43
841.26	215.41
841.57	215.43
841.88	215.47
842.20	215.40
842.51	215.35
842.83	215.35
843.14	215.54
843.46	215.51
843.77	215.40
844.08	215.38
844.40	215.31
844.71	215.27
845.03	215.25
845.34	215.21
845.65	215.18
845.97	215.21
846.28	215.25
846.60	215.26
846.91	215.24
847.22	215.22
847.54	215.31
847.85	215.30
848.16	215.25
848.48	215.21
848.79	215.31
849.10	215.33
849.42	215.32
849.73	215.11
850.04	215.11
850.36	214.98
850.67	215.01
850.98	215.01
851.30	215.01
851.61	214.97
851.92	214.97
852.23	215.05
852.55	215.02
852.86	215.03
853.17	215.02
853.49	215.05
853.80	215.10
854.11	215.09
854.42	215.13
854.74	215.14
855.05	215.15
855.36	215.04
855.67	215.03
855.99	215.00
856.30	215.26
856.61	215.24
856.92	215.28
857.23	215.28
857.55	215.24
857.86	215.23
858.17	215.31
858.48	215.24
858.79	215.17
859.11	215.23
859.42	215.20
859.73	215.18
860.04	215.20
860.35	215.12
860.66	215.02
860.98	215.00
861.29	215.05
861.60	214.98
861.91	215.03
862.22	214.99
862.53	215.00
862.84	214.74
863.16	214.82
863.47	214.78
863.78	214.73
864.09	214.75
864.40	214.74
864.71	214.72
865.02	214.78
865.33	214.76
865.64	214.68
865.95	214.70
866.27	214.85
866.58	214.81
866.89	214.82
867.20	214.83
867.51	214.76
867.82	214.73
868.13	214.82
868.44	214.77
868.75	214.81
869.06	214.79
869.37	214.84
869.68	214.79
869.99	214.84
870.30	214.89
870.61	214.94
870.92	214.90
871.23	214.86
871.54	214.91
871.85	214.98
872.16	215.01
872.47	214.99
872.78	214.86
873.09	214.88
873.40	214.86
873.71	214.90
874.02	214.94
874.33	214.93
874.64	214.91
874.95	214.99
875.26	214.95
875.56	214.98
875.87	214.92
876.18	214.90
876.49	215.10
876.80	215.09
877.11	215.03
877.42	215.08
877.73	215.11
878.04	215.02
878.35	214.99
878.66	215.00
878.96	215.03
879.27	215.00
879.58	214.98
879.89	214.98
880.20	215.01
880.51	215.00
880.82	215.00
881.12	215.01
881.43	214.94
881.74	214.95
882.05	214.92
882.36	214.97
882.67	214.97
882.97	214.75
883.28	214.72
883.59	214.71
883.90	214.74
884.21	214.75
884.51	214.78
884.82	214.76
885.13	214.75
885.44	214.69
885.74	214.69
886.05	214.66
886.36	214.70
886.67	214.66
886.98	214.77
887.28	214.80
887.59	214.79
887.90	214.78
888.20	214.74
888.51	214.81
888.82	214.75
889.13	214.77
889.43	214.93
889.74	214.92
890.05	214.90
890.35	214.90
890.66	214.83
890.97	214.78
891.28	214.77
891.58	214.75
891.89	214.80
892.20	214.78
892.50	214.79
892.81	214.77
893.12	214.76
893.42	214.65
893.73	214.65
894.04	214.61
894.34	214.65
894.65	214.65
894.95	214.59
895.26	214.60
895.57	214.68
895.87	214.49
896.18	214.51
896.48	214.54
896.79	214.52
897.10	214.57
897.40	214.60
897.71	214.65
898.01	214.64
898.32	214.64
898.63	214.65
898.93	214.66
899.24	214.64
899.54	214.62
899.85	214.60
900.15	214.58
900.46	214.61
900.76	214.60
901.07	214.62
901.38	214.62
901.68	214.65
901.99	214.53
902.29	214.52
902.60	214.50
902.90	214.51
903.21	214.50
903.51	214.50
903.82	214.54
904.12	214.52
904.43	214.53
904.73	214.54
905.03	214.56
905.34	214.75
905.64	214.73
905.95	214.74
906.25	214.72
906.56	214.70
906.86	214.68
907.17	214.65
907.47	214.66
907.77	214.68
908.08	214.62
908.38	214.64
908.69	214.66
908.99	214.71
909.30	214.70
909.60	214.71
909.90	214.71
910.21	214.65
910.51	214.61
910.81	214.59
911.12	214.59
911.42	214.55
911.73	214.36
912.03	214.39
912.33	214.42
912.64	214.45
912.94	214.45
913.24	214.42
913.55	214.41
913.85	214.41
914.15	214.42
914.46	214.45
914.76	214.42
915.06	214.45
915.37	214.37
915.67	214.37
915.97	214.36
916.27	214.33
916.58	214.35
916.88	214.36
917.18	214.35
917.49	214.48
917.79	214.53
918.09	214.55
918.39	214.59
918.70	214.59
919.00	214.58
919.30	214.70
919.60	214.71
919.91	214.68
920.21	214.70
920.51	214.66
920.81	214.63
921.12	214.71
921.42	214.69
921.72	214.73
922.02	214.73
922.32	214.76
922.63	214.78
922.93	214.89
923.23	214.91
923.53	214.90
923.83	214.77
924.13	214.78
924.44	214.77
924.74	214.82
925.04	214.87
925.34	214.87
925.64	214.74
925.94	214.74
926.24	214.86
926.55	214.81
926.85	214.84
927.15	214.83
927.45	214.79
927.75	214.77
928.05	214.77
928.35	214.75
928.65	214.76
928.95	214.78
929.26	214.67
929.56	214.68
929.86	214.70
930.16	214.66
930.46	214.61
930.76	214.60
931.06	214.49
931.36	214.42
931.66	214.49
931.96	214.54
932.26	214.57
932.56	214.50
932.86	214.51
933.16	214.47
933.46	214.50
933.76	214.48
934.06	214.55
934.36	214.61
934.66	214.58
934.96	214.58
935.26	214.56
935.56	214.60
935.86	214.58
936.16	214.54
936.46	214.53
936.76	214.56
937.06	214.51
937.36	214.52
937.66	214.52
937.96	214.47
938.26	214.43
938.56	214.37
938.86	214.37
939.16	214.42
939.46	214.47
939.76	214.48
940.06	214.50
940.35	214.45
940.65	214.37
940.95	214.39
941.25	214.35
941.55	214.33
941.85	214.29
942.15	214.32
942.45	214.39
942.75	214.39
943.04	214.38
943.34	214.44
943.64	214.41
943.94	214.40
944.24	214.39
944.54	214.40
944.84	214.40
945.13	214.37
945.43	214.35
945.73	214.33
946.03	214.27
946.33	214.22
946.62	214.21
946.92	214.20
947.22	214.22
947.52	214.22
947.82	214.27
948.11	214.25
948.41	214.21
948.71	214.12
949.01	214.16
949.31	214.12
949.60	214.10
949.90	214.12
950.20	214.12
950.50	214.12
950.79	214.11
951.09	214.14
951.39	214.15
951.69	214.12
951.98	214.13
952.28	214.18
952.58	214.18
952.87	214.15
953.17	214.18
953.47	214.14
953.76	214.13
954.06	214.10
954.36	214.07
954.66	214.06
954.95	214.13
955.25	214.14
955.55	214.17
955.84	214.13
956.14	214.17
956.44	214.18
956.73	214.13
957.03	214.17
957.32	214.16
957.62	214.14
957.92	214.18
958.21	214.17
958.51	214.43
958.81	214.48
959.10	214.52
959.40	214.54
959.69	214.57
959.99	214.60
960.29	214.61
960.58	214.58
960.88	214.64
961.17	214.63
961.47	214.61
961.76	214.57
962.06	214.63
962.36	214.58
962.65	214.58
962.95	214.61
963.24	214.59
963.54	214.60
963.83	214.63
964.13	214.58
964.42	214.53
964.72	214.34
965.01	214.32
965.31	214.31
965.60	214.26
965.90	214.40
966.19	214.36
966.49	214.32
966.78	214.34
967.08	214.33
967.37	214.29
967.67	214.27
967.96	214.32
968.26	214.32
968.55	214.37
968.85	214.39
969.14	214.38
969.43	214.42
969.73	214.38
970.02	214.35
970.32	214.39
970.61	214.36
970.91	214.32
971.20	214.30
971.49	214.26
971.79	214.32
972.08	214.15
972.38	214.17
972.67	214.18
972.96	214.21
973.26	214.16
973.55	214.26
973.85	214.25
974.14	214.21
974.43	214.20
974.73	214.16
975.02	214.11
975.31	214.11
975.61	214.08
975.90	214.05
976.19	214.03
976.49	214.01
976.78	214.04
977.07	214.00
977.37	214.02
977.66	214.04
977.95	214.02
978.24	214.06
978.54	214.10
978.83	214.08
979.12	214.08
979.42	214.10
979.71	214.02
980.00	214.00
980.29	214.02
980.59	213.95
980.88	214.02
981.17	214.01
981.46	213.99
981.76	213.98
982.05	214.06
982.34	214.11
982.63	214.13
982.93	214.15
983.22	214.20
983.51	214.21
983.80	214.25
984.09	214.24
984.39	214.18
984.68	214.11
984.97	214.13
985.26	214.13
985.55	214.14
985.85	214.14
986.14	214.19
986.43	214.22
986.72	214.24
987.01	214.17
987.30	214.20
987.59	214.23
987.89	214.21
988.18	214.19
988.47	214.17
988.76	214.10
989.05	214.09
989.34	214.09
989.63	214.12
989.92	214.11
990.22	214.09
990.51	214.09
990.80	214.12
991.09	214.14
991.38	214.16
991.67	214.15
991.96	214.13
992.25	214.13
992.54	214.10
992.83	214.09
993.12	214.08
993.41	214.10
993.70	214.17
993.99	214.23
994.28	214.25
994.58	214.28
994.87	214.28
995.16	214.27
995.45	214.25
995.74	214.18
996.03	214.22
996.32	214.25
996.61	214.30
996.90	214.28
997.19	214.28
997.48	214.27
997.77	214.25
998.06	214.24
998.34	214.20
998.63	214.24
998.92	214.26
999.21	214.30
999.50	214.29
999.79	214.22
1000.08	214.22
1000.37	214.23
1000.66	214.20
1000.95	214.28
1001.24	214.30
1001.53	214.34
1001.82	214.34
1002.11	214.25
1002.40	214.26
1002.68	214.30
1002.97	214.46
1003.26	214.42
1003.55	214.39
1003.84	214.39
1004.13	214.47
1004.42	214.49
1004.71	214.45
1004.99	214.42
1005.28	214.48
1005.57	214.45
1005.86	214.41
1006.15	214.38
1006.44	214.32
1006.72	214.35
1007.01	214.29
1007.30	214.27
1007.59	214.23
1007.88	214.22
1008.17	214.25
1008.45	214.22
1008.74	214.13
1009.03	214.05
1009.32	214.06
1009.60	214.09
1009.89	214.07
1010.18	214.02
1010.47	214.01
1010.76	214.03
1011.04	214.04
1011.33	214.01
1011.62	214.03
1011.91	214.03
1012.19	214.04
1012.48	214.04
1012.77	214.02
1013.05	214.15
1013.34	214.17
1013.63	214.16
1013.92	214.17
1014.20	214.16
1014.49	214.15
1014.78	214.23
1015.06	214.15
1015.35	214.16
1015.64	214.18
1015.92	214.23
1016.21	214.23
1016.50	214.24
1016.78	214.28
1017.07	214.29
1017.36	214.26
1017.64	214.24
1017.93	214.28
1018.22	214.24
1018.50	214.25
1018.79	214.25
1019.08	214.09
1019.36	214.09
1019.65	214.06
1019.93	214.11
1020.22	214.14
1020.51	214.24
1020.79	214.18
1021.08	213.20
1021.36	213.79
1021.65	214.05
1021.94	213.40
1022.22	214.10
1022.51	213.05
1022.79	214.95
1023.08	214.54
1023.36	216.52
1023.65	213.78
>>>>>End Processed Spectral Data<<<<<
