SpectraSuite Data File
++++++++++++++++++++++++++++++++++++
Date: Tue Jan 29 16:33:22 EST 2013
User: group
Dark Spectrum Present: No
Reference Spectrum Present: No
Number of Sampled Component Spectra: 1
Spectrometers: USB2E7196
Integration Time (usec): 65000 (USB2E7196)
Spectra Averaged: 100 (USB2E7196)
Boxcar Smoothing: 10 (USB2E7196)
Correct for Electrical Dark: No (USB2E7196)
Strobe/Lamp Enabled: No (USB2E7196)
Correct for Detector Non-linearity: No (USB2E7196)
Correct for Stray Light: No (USB2E7196)
Number of Pixels in Processed Spectrum: 2048
>>>>>Begin Processed Spectral Data<<<<<
339.09	0.00
339.48	201.59
339.86	203.42
340.24	205.15
340.63	205.78
341.01	210.91
341.39	209.02
341.78	211.15
342.16	211.84
342.54	212.56
342.93	201.26
343.31	211.42
343.69	212.00
344.07	212.46
344.46	212.90
344.84	213.34
345.22	213.54
345.60	213.81
345.99	213.98
346.37	214.11
346.75	214.17
347.13	214.26
347.52	214.35
347.90	214.46
348.28	214.49
348.66	214.58
349.05	214.54
349.43	214.64
349.81	214.70
350.19	214.79
350.57	214.88
350.96	215.01
351.34	215.11
351.72	215.21
352.10	215.31
352.48	215.38
352.87	215.43
353.25	215.49
353.63	215.52
354.01	215.61
354.39	215.69
354.77	215.82
355.15	215.90
355.54	215.95
355.92	215.92
356.30	215.99
356.68	216.17
357.06	216.23
357.44	216.23
357.82	216.31
358.20	216.37
358.58	216.42
358.97	216.45
359.35	216.56
359.73	216.66
360.11	216.74
360.49	216.78
360.87	216.82
361.25	216.86
361.63	217.01
362.01	217.03
362.39	217.08
362.77	217.10
363.15	217.13
363.53	217.14
363.91	217.20
364.29	217.21
364.67	217.07
365.05	217.11
365.43	217.17
365.81	217.17
366.19	217.24
366.57	217.33
366.95	217.32
367.33	217.26
367.71	217.23
368.09	217.24
368.47	217.25
368.85	217.23
369.23	217.26
369.61	217.16
369.99	217.21
370.37	217.20
370.75	217.25
371.13	217.21
371.51	217.16
371.89	217.16
372.27	217.19
372.65	217.15
373.03	217.12
373.41	217.03
373.78	216.99
374.16	216.88
374.54	216.75
374.92	216.71
375.30	216.69
375.68	216.60
376.06	216.58
376.44	216.51
376.82	216.48
377.19	216.42
377.57	216.40
377.95	216.27
378.33	216.21
378.71	216.05
379.09	216.05
379.47	216.04
379.84	215.97
380.22	215.88
380.60	215.80
380.98	215.78
381.36	215.76
381.73	215.70
382.11	215.68
382.49	215.70
382.87	215.64
383.25	215.62
383.62	215.81
384.00	215.73
384.38	215.71
384.76	215.73
385.13	215.76
385.51	215.71
385.89	215.65
386.27	215.62
386.64	215.64
387.02	215.58
387.40	215.57
387.78	215.57
388.15	215.54
388.53	215.52
388.91	215.47
389.29	215.42
389.66	215.42
390.04	215.37
390.42	215.36
390.79	215.35
391.17	215.30
391.55	215.07
391.92	215.06
392.30	215.09
392.68	215.03
393.05	215.02
393.43	215.01
393.81	215.03
394.18	215.00
394.56	214.98
394.94	215.00
395.31	214.93
395.69	215.01
396.06	215.06
396.44	215.09
396.82	215.10
397.19	215.24
397.57	215.24
397.95	215.34
398.32	215.34
398.70	215.39
399.07	215.50
399.45	215.57
399.82	215.62
400.20	215.62
400.58	215.69
400.95	215.66
401.33	215.77
401.70	215.99
402.08	216.11
402.45	216.20
402.83	216.39
403.20	216.54
403.58	216.60
403.95	216.78
404.33	216.93
404.71	217.07
405.08	217.34
405.46	217.52
405.83	217.69
406.21	217.88
406.58	218.11
406.96	218.31
407.33	218.59
407.70	218.88
408.08	219.38
408.45	219.73
408.83	220.12
409.20	220.46
409.58	220.73
409.95	221.19
410.33	221.69
410.70	222.10
411.08	222.69
411.45	223.26
411.82	223.82
412.20	224.50
412.57	225.34
412.95	225.92
413.32	226.76
413.69	227.57
414.07	228.47
414.44	229.46
414.82	230.47
415.19	231.65
415.56	232.87
415.94	233.99
416.31	235.41
416.68	236.81
417.06	238.38
417.43	239.94
417.81	241.66
418.18	243.44
418.55	245.38
418.93	247.39
419.30	249.51
419.67	251.72
420.04	254.01
420.42	256.38
420.79	259.16
421.16	261.98
421.54	264.90
421.91	267.89
422.28	270.99
422.66	274.30
423.03	277.51
423.40	280.85
423.77	284.49
424.15	288.15
424.52	292.04
424.89	296.25
425.26	300.36
425.64	304.24
426.01	308.53
426.38	312.99
426.75	317.50
427.13	322.23
427.50	327.27
427.87	332.52
428.24	337.72
428.61	342.73
428.99	348.23
429.36	354.25
429.73	360.14
430.10	366.06
430.47	372.11
430.85	378.48
431.22	385.22
431.59	392.32
431.96	399.09
432.33	406.55
432.70	413.75
433.08	422.23
433.45	430.32
433.82	438.34
434.19	447.20
434.56	455.97
434.93	464.28
435.30	472.59
435.68	481.70
436.05	490.71
436.42	499.63
436.79	507.78
437.16	516.52
437.53	525.83
437.90	534.96
438.27	543.93
438.64	553.14
439.01	561.61
439.38	569.22
439.75	576.57
440.13	585.02
440.50	593.00
440.87	599.47
441.24	606.17
441.61	613.51
441.98	618.88
442.35	625.20
442.72	631.52
443.09	637.53
443.46	641.28
443.83	643.80
444.20	645.99
444.57	649.13
444.94	650.58
445.31	652.03
445.68	653.41
446.05	654.07
446.42	653.31
446.79	652.41
447.16	651.34
447.53	650.61
447.90	647.24
448.27	643.96
448.64	639.31
449.01	635.93
449.37	629.98
449.74	624.39
450.11	617.48
450.48	610.12
450.85	602.73
451.22	596.20
451.59	590.04
451.96	584.18
452.33	576.31
452.70	569.26
453.07	560.72
453.43	552.10
453.80	543.75
454.17	535.72
454.54	528.10
454.91	519.93
455.28	511.89
455.65	504.52
456.02	497.04
456.38	490.68
456.75	482.81
457.12	476.28
457.49	469.72
457.86	463.47
458.23	458.06
458.59	452.07
458.96	446.09
459.33	440.79
459.70	435.45
460.07	431.20
460.43	426.29
460.80	421.75
461.17	417.73
461.54	413.56
461.91	409.51
462.27	405.41
462.64	401.97
463.01	398.17
463.38	394.39
463.74	390.73
464.11	387.49
464.48	384.64
464.85	381.52
465.21	379.07
465.58	376.46
465.95	373.33
466.32	370.71
466.68	368.12
467.05	365.54
467.42	362.96
467.78	360.25
468.15	357.70
468.52	355.77
468.88	353.32
469.25	351.06
469.62	349.26
469.98	347.34
470.35	345.53
470.72	343.86
471.08	342.11
471.45	340.60
471.82	339.07
472.18	337.37
472.55	336.19
472.92	334.83
473.28	333.57
473.65	332.42
474.02	331.32
474.38	330.39
474.75	329.61
475.11	328.78
475.48	328.21
475.85	327.72
476.21	327.25
476.58	326.89
476.94	326.69
477.31	326.42
477.67	326.15
478.04	325.94
478.41	325.93
478.77	326.06
479.14	326.01
479.50	326.13
479.87	326.45
480.23	326.77
480.60	326.99
480.96	327.31
481.33	327.93
481.69	328.45
482.06	329.01
482.42	329.46
482.79	330.08
483.15	330.86
483.52	331.80
483.88	332.66
484.25	333.61
484.61	334.62
484.98	335.66
485.34	336.97
485.71	338.37
486.07	339.78
486.44	341.11
486.80	342.67
487.17	344.35
487.53	346.23
487.90	348.07
488.26	350.12
488.62	352.30
488.99	354.37
489.35	356.51
489.72	358.89
490.08	361.44
490.44	364.02
490.81	366.77
491.17	369.47
491.54	372.42
491.90	375.44
492.26	378.70
492.63	382.10
492.99	385.55
493.36	389.26
493.72	393.12
494.08	397.17
494.45	401.45
494.81	405.79
495.17	410.20
495.54	414.95
495.90	419.76
496.26	424.67
496.63	429.88
496.99	435.38
497.35	441.00
497.72	446.80
498.08	452.75
498.44	458.82
498.80	465.23
499.17	471.81
499.53	478.56
499.89	485.54
500.26	492.58
500.62	499.71
500.98	507.10
501.34	514.66
501.71	522.49
502.07	530.34
502.43	538.43
502.79	546.62
503.16	555.01
503.52	563.64
503.88	572.43
504.24	581.41
504.60	590.48
504.97	599.70
505.33	609.06
505.69	619.00
506.05	628.96
506.41	638.81
506.78	648.91
507.14	659.18
507.50	669.64
507.86	680.32
508.22	691.18
508.59	701.85
508.95	712.94
509.31	724.24
509.67	735.70
510.03	747.20
510.39	759.02
510.75	770.94
511.12	782.94
511.48	795.07
511.84	807.45
512.20	819.89
512.56	832.69
512.92	845.63
513.28	858.34
513.64	871.24
514.00	884.31
514.37	897.40
514.73	910.62
515.09	923.70
515.45	936.73
515.81	949.92
516.17	963.46
516.53	976.79
516.89	989.94
517.25	1003.28
517.61	1016.87
517.97	1030.34
518.33	1043.70
518.69	1057.39
519.05	1071.21
519.41	1084.90
519.77	1098.86
520.13	1112.15
520.49	1125.41
520.85	1138.92
521.21	1152.26
521.57	1165.87
521.93	1179.03
522.29	1192.88
522.65	1206.63
523.01	1220.35
523.37	1233.68
523.73	1247.15
524.09	1260.46
524.45	1274.10
524.81	1287.64
525.17	1301.14
525.53	1314.41
525.89	1327.69
526.25	1340.89
526.61	1353.86
526.97	1367.11
527.33	1380.23
527.68	1393.84
528.04	1407.41
528.40	1420.51
528.76	1434.04
529.12	1447.22
529.48	1460.71
529.84	1473.06
530.20	1485.95
530.56	1498.62
530.91	1511.91
531.27	1524.92
531.63	1537.84
531.99	1550.73
532.35	1563.16
532.71	1575.60
533.07	1588.62
533.42	1601.05
533.78	1613.32
534.14	1625.59
534.50	1637.02
534.86	1648.64
535.21	1659.69
535.57	1671.21
535.93	1682.71
536.29	1693.83
536.65	1705.34
537.00	1716.40
537.36	1727.94
537.72	1739.03
538.08	1750.60
538.44	1761.64
538.79	1772.82
539.15	1783.80
539.51	1794.57
539.87	1805.89
540.22	1816.81
540.58	1827.88
540.94	1838.81
541.29	1849.12
541.65	1858.99
542.01	1869.52
542.37	1879.74
542.72	1889.95
543.08	1899.98
543.44	1910.48
543.79	1919.89
544.15	1929.49
544.51	1939.54
544.87	1949.46
545.22	1958.62
545.58	1967.58
545.94	1976.48
546.29	1985.04
546.65	1993.39
547.01	2001.69
547.36	2009.54
547.72	2017.44
548.07	2025.24
548.43	2033.07
548.79	2041.06
549.14	2049.24
549.50	2057.82
549.86	2065.83
550.21	2073.32
550.57	2081.11
550.92	2088.07
551.28	2095.76
551.64	2103.11
551.99	2110.71
552.35	2117.99
552.70	2125.14
553.06	2131.87
553.41	2138.30
553.77	2144.82
554.13	2151.31
554.48	2158.46
554.84	2165.61
555.19	2172.15
555.55	2178.56
555.90	2185.03
556.26	2191.80
556.61	2198.04
556.97	2202.81
557.32	2208.51
557.68	2215.04
558.03	2220.85
558.39	2226.22
558.74	2232.19
559.10	2237.81
559.45	2243.42
559.81	2248.88
560.16	2254.33
560.52	2260.20
560.87	2266.60
561.23	2272.51
561.58	2279.31
561.94	2284.47
562.29	2289.15
562.64	2295.26
563.00	2300.79
563.35	2306.24
563.71	2312.07
564.06	2317.54
564.42	2323.60
564.77	2328.72
565.12	2333.91
565.48	2339.04
565.83	2344.64
566.19	2350.03
566.54	2355.25
566.89	2359.83
567.25	2364.44
567.60	2370.12
567.96	2375.35
568.31	2379.89
568.66	2384.30
569.02	2388.23
569.37	2392.10
569.72	2396.48
570.08	2400.17
570.43	2403.39
570.78	2406.58
571.14	2409.09
571.49	2412.18
571.84	2415.65
572.20	2418.56
572.55	2421.51
572.90	2423.74
573.26	2426.37
573.61	2428.84
573.96	2431.02
574.31	2432.94
574.67	2434.83
575.02	2435.56
575.37	2436.90
575.72	2437.56
576.08	2439.02
576.43	2439.03
576.78	2439.41
577.13	2441.15
577.49	2441.92
577.84	2442.99
578.19	2444.15
578.54	2444.62
578.90	2445.41
579.25	2445.09
579.60	2445.10
579.95	2444.31
580.30	2444.25
580.66	2443.44
581.01	2441.69
581.36	2439.21
581.71	2437.86
582.06	2436.67
582.42	2435.83
582.77	2433.53
583.12	2432.06
583.47	2430.49
583.82	2429.71
584.17	2428.39
584.53	2426.09
584.88	2424.11
585.23	2422.06
585.58	2419.82
585.93	2417.78
586.28	2415.41
586.63	2412.92
586.98	2410.51
587.34	2408.55
587.69	2406.16
588.04	2404.12
588.39	2402.57
588.74	2400.07
589.09	2397.14
589.44	2393.94
589.79	2391.22
590.14	2389.26
590.49	2386.29
590.84	2382.52
591.19	2379.44
591.54	2376.16
591.89	2372.03
592.25	2368.73
592.60	2364.37
592.95	2360.03
593.30	2355.81
593.65	2351.50
594.00	2347.10
594.35	2343.95
594.70	2339.15
595.05	2334.44
595.40	2328.81
595.75	2323.02
596.10	2319.31
596.45	2314.39
596.80	2309.66
597.15	2304.50
597.50	2298.42
597.85	2293.43
598.19	2288.06
598.54	2282.28
598.89	2276.92
599.24	2272.28
599.59	2265.99
599.94	2260.22
600.29	2254.20
600.64	2248.18
600.99	2241.25
601.34	2235.80
601.69	2228.81
602.04	2222.44
602.39	2215.82
602.74	2209.85
603.08	2204.36
603.43	2197.87
603.78	2191.09
604.13	2184.04
604.48	2176.86
604.83	2170.71
605.18	2164.46
605.53	2157.46
605.87	2150.34
606.22	2143.38
606.57	2135.41
606.92	2127.51
607.27	2120.52
607.62	2113.94
607.96	2106.91
608.31	2100.55
608.66	2092.68
609.01	2085.12
609.36	2077.73
609.70	2069.95
610.05	2062.04
610.40	2053.57
610.75	2045.14
611.10	2037.39
611.44	2028.43
611.79	2019.59
612.14	2009.58
612.49	1998.81
612.83	1989.44
613.18	1980.07
613.53	1970.89
613.88	1961.27
614.22	1952.49
614.57	1942.60
614.92	1931.92
615.27	1921.59
615.61	1911.23
615.96	1901.54
616.31	1891.81
616.65	1882.46
617.00	1872.65
617.35	1863.04
617.70	1853.31
618.04	1843.26
618.39	1832.91
618.74	1823.28
619.08	1813.62
619.43	1804.83
619.78	1796.54
620.12	1787.92
620.47	1778.28
620.82	1767.89
621.16	1758.02
621.51	1748.17
621.85	1738.31
622.20	1728.00
622.55	1717.50
622.89	1707.63
623.24	1697.78
623.59	1687.96
623.93	1677.78
624.28	1668.03
624.62	1657.69
624.97	1647.41
625.32	1637.59
625.66	1628.72
626.01	1619.84
626.35	1610.50
626.70	1600.46
627.04	1590.28
627.39	1580.03
627.73	1570.69
628.08	1561.71
628.43	1552.16
628.77	1542.93
629.12	1533.89
629.46	1526.12
629.81	1517.74
630.15	1508.19
630.50	1498.45
630.84	1487.91
631.19	1478.07
631.53	1468.76
631.88	1458.75
632.22	1448.74
632.57	1439.31
632.91	1429.24
633.26	1419.41
633.60	1409.78
633.95	1400.49
634.29	1391.07
634.64	1381.71
634.98	1371.77
635.32	1362.44
635.67	1353.95
636.01	1344.53
636.36	1334.79
636.70	1325.15
637.05	1315.67
637.39	1306.72
637.73	1297.96
638.08	1290.40
638.42	1282.16
638.77	1273.32
639.11	1265.00
639.45	1257.13
639.80	1248.66
640.14	1239.90
640.49	1230.96
640.83	1222.06
641.17	1213.95
641.52	1205.73
641.86	1197.19
642.20	1189.25
642.55	1180.63
642.89	1171.64
643.23	1162.99
643.58	1154.85
643.92	1145.72
644.26	1137.10
644.61	1128.65
644.95	1119.91
645.29	1110.64
645.64	1101.38
645.98	1092.85
646.32	1084.85
646.66	1076.35
647.01	1067.95
647.35	1059.71
647.69	1051.35
648.04	1042.93
648.38	1033.92
648.72	1025.05
649.06	1016.55
649.41	1008.38
649.75	1000.27
650.09	992.39
650.43	984.38
650.78	976.09
651.12	968.33
651.46	960.86
651.80	953.59
652.14	946.15
652.49	938.55
652.83	931.23
653.17	923.37
653.51	915.66
653.85	908.31
654.20	901.00
654.54	893.51
654.88	886.33
655.22	879.13
655.56	872.10
655.90	865.28
656.25	858.53
656.59	851.55
656.93	844.55
657.27	837.42
657.61	830.28
657.95	824.12
658.29	818.18
658.64	811.90
658.98	805.36
659.32	798.79
659.66	792.54
660.00	786.10
660.34	780.02
660.68	773.95
661.02	767.57
661.36	761.54
661.70	755.68
662.05	749.95
662.39	744.41
662.73	738.94
663.07	733.53
663.41	727.84
663.75	722.09
664.09	716.39
664.43	710.82
664.77	705.55
665.11	699.67
665.45	693.67
665.79	687.88
666.13	682.12
666.47	676.65
666.81	671.20
667.15	665.77
667.49	660.54
667.83	655.23
668.17	649.90
668.51	644.68
668.85	639.71
669.19	634.62
669.53	629.52
669.87	624.36
670.21	619.56
670.55	614.81
670.89	610.32
671.23	605.94
671.57	601.56
671.91	597.20
672.25	592.97
672.58	588.84
672.92	584.77
673.26	580.79
673.60	576.85
673.94	573.00
674.28	569.39
674.62	565.61
674.96	561.76
675.30	558.22
675.64	554.62
675.97	551.02
676.31	547.46
676.65	543.89
676.99	540.43
677.33	536.52
677.67	532.87
678.01	528.96
678.34	525.27
678.68	521.73
679.02	518.06
679.36	514.31
679.70	510.63
680.04	507.00
680.37	503.53
680.71	500.16
681.05	496.91
681.39	493.60
681.73	490.40
682.06	487.35
682.40	484.24
682.74	480.98
683.08	477.72
683.42	474.47
683.75	471.42
684.09	468.33
684.43	465.52
684.77	462.57
685.10	459.70
685.44	456.71
685.78	453.73
686.12	450.95
686.45	448.29
686.79	445.58
687.13	443.01
687.46	440.36
687.80	437.61
688.14	434.71
688.48	432.01
688.81	429.28
689.15	426.66
689.49	423.99
689.82	421.42
690.16	418.78
690.50	416.32
690.83	413.78
691.17	411.19
691.51	408.67
691.84	406.40
692.18	404.14
692.52	401.94
692.85	399.75
693.19	397.52
693.52	395.24
693.86	392.95
694.20	390.73
694.53	388.48
694.87	386.30
695.21	384.12
695.54	381.97
695.88	379.79
696.21	377.53
696.55	375.35
696.88	373.24
697.22	371.26
697.56	369.33
697.89	367.42
698.23	365.66
698.56	363.80
698.90	361.98
699.23	360.00
699.57	358.11
699.90	356.18
700.24	354.39
700.58	352.61
700.91	351.00
701.25	349.40
701.58	347.80
701.92	346.15
702.25	344.51
702.59	342.84
702.92	341.28
703.26	339.74
703.59	338.33
703.93	337.07
704.26	335.59
704.60	334.06
704.93	332.54
705.26	331.04
705.60	329.58
705.93	328.05
706.27	326.74
706.60	325.43
706.94	324.23
707.27	322.84
707.61	321.45
707.94	320.05
708.27	318.50
708.61	317.05
708.94	315.67
709.28	314.37
709.61	313.13
709.94	311.89
710.28	310.64
710.61	309.39
710.95	307.93
711.28	306.84
711.61	305.58
711.95	304.42
712.28	303.20
712.61	301.99
712.95	300.93
713.28	299.85
713.61	298.66
713.95	297.49
714.28	296.44
714.61	295.38
714.95	294.34
715.28	293.30
715.61	292.27
715.95	291.32
716.28	290.38
716.61	289.42
716.95	288.44
717.28	287.51
717.61	286.52
717.94	285.61
718.28	284.58
718.61	283.71
718.94	282.78
719.27	281.91
719.61	281.07
719.94	280.19
720.27	279.24
720.60	278.36
720.94	277.53
721.27	276.74
721.60	276.08
721.93	275.31
722.27	274.63
722.60	273.94
722.93	273.17
723.26	272.49
723.59	271.75
723.93	271.12
724.26	270.48
724.59	269.80
724.92	269.17
725.25	268.62
725.59	268.06
725.92	267.53
726.25	266.95
726.58	266.34
726.91	265.72
727.24	265.16
727.57	264.61
727.91	263.98
728.24	263.42
728.57	262.77
728.90	262.23
729.23	261.62
729.56	261.18
729.89	260.62
730.22	260.03
730.55	259.49
730.89	258.91
731.22	258.32
731.55	257.81
731.88	257.28
732.21	256.69
732.54	256.11
732.87	255.58
733.20	255.05
733.53	254.59
733.86	254.12
734.19	253.62
734.52	253.20
734.85	252.91
735.18	252.42
735.51	252.07
735.84	251.63
736.17	251.25
736.50	250.70
736.83	250.53
737.16	250.16
737.49	249.78
737.82	249.39
738.15	249.03
738.48	248.62
738.81	248.22
739.14	247.82
739.47	247.44
739.80	247.06
740.13	246.73
740.46	246.33
740.79	245.90
741.12	245.55
741.45	245.13
741.78	244.70
742.11	244.43
742.44	243.99
742.77	243.67
743.10	243.33
743.43	242.99
743.75	242.43
744.08	242.32
744.41	241.96
744.74	241.61
745.07	241.25
745.40	240.97
745.73	240.73
746.06	240.42
746.39	240.11
746.71	239.76
747.04	239.37
747.37	239.04
747.70	238.78
748.03	238.49
748.36	238.25
748.68	237.93
749.01	237.55
749.34	237.27
749.67	237.02
750.00	236.70
750.33	236.56
750.65	236.29
750.98	235.81
751.31	235.56
751.64	235.31
751.97	235.17
752.29	234.91
752.62	234.52
752.95	234.25
753.28	234.00
753.60	233.77
753.93	233.64
754.26	233.43
754.59	233.16
754.91	232.89
755.24	232.63
755.57	232.36
755.90	232.12
756.22	231.89
756.55	231.62
756.88	231.38
757.20	231.05
757.53	230.80
757.86	230.55
758.19	230.36
758.51	230.17
758.84	229.88
759.17	229.67
759.49	229.52
759.82	229.44
760.15	229.28
760.47	229.10
760.80	228.80
761.13	228.65
761.45	228.47
761.78	228.27
762.11	228.11
762.43	227.96
762.76	227.80
763.08	227.63
763.41	227.46
763.74	227.32
764.06	227.14
764.39	227.00
764.71	226.85
765.04	226.67
765.37	226.47
765.69	226.31
766.02	226.15
766.34	226.00
766.67	225.77
767.00	225.66
767.32	225.63
767.65	225.63
767.97	225.49
768.30	225.37
768.62	225.29
768.95	225.10
769.27	225.01
769.60	224.92
769.92	224.77
770.25	224.65
770.57	224.50
770.90	224.39
771.22	224.22
771.55	224.11
771.87	224.03
772.20	223.91
772.52	223.96
772.85	224.08
773.17	223.98
773.50	223.85
773.82	223.69
774.15	223.48
774.47	223.27
774.80	223.14
775.12	223.02
775.45	222.91
775.77	222.87
776.09	222.75
776.42	222.69
776.74	222.65
777.07	222.54
777.39	222.47
777.72	222.38
778.04	222.33
778.36	222.28
778.69	222.18
779.01	222.12
779.33	221.87
779.66	221.56
779.98	221.44
780.31	221.39
780.63	221.40
780.95	221.37
781.28	221.30
781.60	221.21
781.92	221.14
782.25	221.09
782.57	221.00
782.89	220.90
783.22	220.76
783.54	220.67
783.86	220.61
784.19	220.53
784.51	220.53
784.83	220.44
785.16	220.36
785.48	220.30
785.80	220.24
786.12	220.18
786.45	220.14
786.77	220.12
787.09	220.03
787.42	219.90
787.74	219.80
788.06	219.77
788.38	219.68
788.71	219.64
789.03	219.58
789.35	219.54
789.67	219.50
789.99	219.47
790.32	219.42
790.64	219.38
790.96	219.49
791.28	219.33
791.61	219.26
791.93	219.19
792.25	219.09
792.57	219.20
792.89	219.12
793.21	219.06
793.54	219.00
793.86	218.93
794.18	218.91
794.50	218.86
794.82	218.77
795.14	218.77
795.47	218.73
795.79	218.69
796.11	218.64
796.43	218.59
796.75	218.55
797.07	218.48
797.39	218.46
797.71	218.26
798.04	218.22
798.36	218.21
798.68	218.15
799.00	218.18
799.32	218.00
799.64	218.04
799.96	218.00
800.28	217.99
800.60	217.98
800.92	217.95
801.24	217.89
801.56	217.92
801.89	217.86
802.21	217.84
802.53	217.75
802.85	217.74
803.17	217.80
803.49	217.73
803.81	217.71
804.13	217.66
804.45	217.59
804.77	217.60
805.09	217.56
805.41	217.53
805.73	217.46
806.05	217.41
806.37	217.34
806.69	217.29
807.01	217.26
807.33	217.24
807.65	217.11
807.97	217.19
808.28	217.13
808.60	217.12
808.92	217.05
809.24	217.15
809.56	217.08
809.88	216.99
810.20	217.00
810.52	217.00
810.84	216.94
811.16	216.94
811.48	216.88
811.80	216.94
812.12	216.93
812.43	216.90
812.75	216.87
813.07	216.81
813.39	216.82
813.71	216.74
814.03	216.69
814.35	216.69
814.67	216.58
814.98	216.51
815.30	216.48
815.62	216.42
815.94	216.25
816.26	216.24
816.58	216.17
816.89	216.13
817.21	216.06
817.53	216.08
817.85	216.09
818.17	216.07
818.48	215.98
818.80	215.97
819.12	215.94
819.44	215.90
819.76	215.86
820.07	215.82
820.39	215.81
820.71	215.80
821.03	215.79
821.34	215.78
821.66	215.78
821.98	215.80
822.30	215.81
822.61	215.93
822.93	215.89
823.25	215.87
823.57	215.87
823.88	215.91
824.20	215.91
824.52	215.90
824.83	215.87
825.15	215.87
825.47	215.85
825.79	215.90
826.10	215.86
826.42	215.86
826.74	215.91
827.05	215.87
827.37	215.87
827.69	215.86
828.00	215.83
828.32	215.83
828.64	215.78
828.95	215.87
829.27	215.82
829.58	215.82
829.90	215.87
830.22	215.84
830.53	215.77
830.85	215.69
831.17	215.62
831.48	215.64
831.80	215.62
832.11	215.60
832.43	215.55
832.75	215.54
833.06	215.67
833.38	215.56
833.69	215.58
834.01	215.59
834.32	215.58
834.64	215.58
834.96	215.59
835.27	215.58
835.59	215.51
835.90	215.47
836.22	215.47
836.53	215.36
836.85	215.34
837.16	215.56
837.48	215.57
837.79	215.65
838.11	215.67
838.42	215.62
838.74	215.66
839.05	215.62
839.37	215.60
839.68	215.44
840.00	215.45
840.31	215.43
840.63	215.38
840.94	215.35
841.26	215.35
841.57	215.32
841.88	215.33
842.20	215.30
842.51	215.23
842.83	215.21
843.14	215.41
843.46	215.40
843.77	215.27
844.08	215.25
844.40	215.17
844.71	215.12
845.03	215.12
845.34	215.07
845.65	215.04
845.97	215.07
846.28	215.07
846.60	215.07
846.91	215.05
847.22	215.07
847.54	215.07
847.85	215.05
848.16	215.03
848.48	214.99
848.79	215.07
849.10	215.09
849.42	215.12
849.73	214.94
850.04	214.93
850.36	214.88
850.67	214.94
850.98	214.95
851.30	214.96
851.61	214.93
851.92	214.93
852.23	215.00
852.55	215.00
852.86	215.01
853.17	215.03
853.49	215.08
853.80	215.11
854.11	215.13
854.42	215.14
854.74	215.14
855.05	215.16
855.36	215.03
855.67	215.05
855.99	215.01
856.30	215.23
856.61	215.26
856.92	215.21
857.23	215.19
857.55	215.16
857.86	215.14
858.17	215.16
858.48	215.14
858.79	215.13
859.11	215.15
859.42	215.15
859.73	215.11
860.04	215.05
860.35	214.96
860.66	214.91
860.98	214.93
861.29	214.93
861.60	214.89
861.91	214.95
862.22	214.90
862.53	214.85
862.84	214.62
863.16	214.61
863.47	214.56
863.78	214.53
864.09	214.56
864.40	214.58
864.71	214.62
865.02	214.65
865.33	214.57
865.64	214.54
865.95	214.54
866.27	214.67
866.58	214.67
866.89	214.72
867.20	214.73
867.51	214.69
867.82	214.67
868.13	214.77
868.44	214.72
868.75	214.75
869.06	214.78
869.37	214.80
869.68	214.74
869.99	214.80
870.30	214.81
870.61	214.80
870.92	214.75
871.23	214.73
871.54	214.75
871.85	214.82
872.16	214.82
872.47	214.78
872.78	214.67
873.09	214.72
873.40	214.69
873.71	214.70
874.02	214.71
874.33	214.72
874.64	214.60
874.95	214.63
875.26	214.59
875.56	214.60
875.87	214.59
876.18	214.61
876.49	214.82
876.80	214.80
877.11	214.79
877.42	214.81
877.73	214.79
878.04	214.70
878.35	214.67
878.66	214.68
878.96	214.66
879.27	214.64
879.58	214.61
879.89	214.58
880.20	214.63
880.51	214.62
880.82	214.61
881.12	214.65
881.43	214.61
881.74	214.58
882.05	214.52
882.36	214.51
882.67	214.51
882.97	214.28
883.28	214.27
883.59	214.25
883.90	214.28
884.21	214.32
884.51	214.37
884.82	214.35
885.13	214.34
885.44	214.33
885.74	214.35
886.05	214.31
886.36	214.34
886.67	214.29
886.98	214.39
887.28	214.40
887.59	214.38
887.90	214.43
888.20	214.44
888.51	214.52
888.82	214.52
889.13	214.57
889.43	214.73
889.74	214.72
890.05	214.72
890.35	214.71
890.66	214.68
890.97	214.65
891.28	214.64
891.58	214.66
891.89	214.69
892.20	214.66
892.50	214.65
892.81	214.66
893.12	214.67
893.42	214.56
893.73	214.58
894.04	214.58
894.34	214.56
894.65	214.57
894.95	214.54
895.26	214.55
895.57	214.61
895.87	214.41
896.18	214.45
896.48	214.47
896.79	214.44
897.10	214.44
897.40	214.43
897.71	214.45
898.01	214.44
898.32	214.44
898.63	214.47
898.93	214.50
899.24	214.49
899.54	214.45
899.85	214.45
900.15	214.43
900.46	214.43
900.76	214.45
901.07	214.43
901.38	214.41
901.68	214.41
901.99	214.31
902.29	214.31
902.60	214.29
902.90	214.26
903.21	214.26
903.51	214.26
903.82	214.33
904.12	214.34
904.43	214.35
904.73	214.31
905.03	214.28
905.34	214.46
905.64	214.44
905.95	214.44
906.25	214.43
906.56	214.42
906.86	214.43
907.17	214.43
907.47	214.47
907.77	214.46
908.08	214.46
908.38	214.47
908.69	214.50
908.99	214.56
909.30	214.59
909.60	214.60
909.90	214.62
910.21	214.55
910.51	214.52
910.81	214.53
911.12	214.58
911.42	214.59
911.73	214.38
912.03	214.40
912.33	214.43
912.64	214.42
912.94	214.40
913.24	214.36
913.55	214.30
913.85	214.27
914.15	214.32
914.46	214.33
914.76	214.30
915.06	214.27
915.37	214.20
915.67	214.19
915.97	214.18
916.27	214.12
916.58	214.10
916.88	214.06
917.18	214.05
917.49	214.17
917.79	214.17
918.09	214.21
918.39	214.25
918.70	214.25
919.00	214.25
919.30	214.37
919.60	214.37
919.91	214.38
920.21	214.39
920.51	214.32
920.81	214.31
921.12	214.31
921.42	214.32
921.72	214.33
922.02	214.33
922.32	214.37
922.63	214.40
922.93	214.52
923.23	214.54
923.53	214.52
923.83	214.38
924.13	214.37
924.44	214.35
924.74	214.36
925.04	214.39
925.34	214.40
925.64	214.33
925.94	214.32
926.24	214.45
926.55	214.42
926.85	214.49
927.15	214.48
927.45	214.51
927.75	214.51
928.05	214.51
928.35	214.49
928.65	214.49
928.95	214.50
929.26	214.44
929.56	214.48
929.86	214.52
930.16	214.53
930.46	214.54
930.76	214.54
931.06	214.45
931.36	214.41
931.66	214.43
931.96	214.42
932.26	214.43
932.56	214.34
932.86	214.35
933.16	214.29
933.46	214.25
933.76	214.19
934.06	214.25
934.36	214.35
934.66	214.32
934.96	214.30
935.26	214.30
935.56	214.33
935.86	214.26
936.16	214.24
936.46	214.24
936.76	214.25
937.06	214.23
937.36	214.26
937.66	214.28
937.96	214.29
938.26	214.28
938.56	214.27
938.86	214.28
939.16	214.36
939.46	214.40
939.76	214.42
940.06	214.47
940.35	214.41
940.65	214.30
940.95	214.33
941.25	214.28
941.55	214.23
941.85	214.21
942.15	214.28
942.45	214.31
942.75	214.28
943.04	214.23
943.34	214.29
943.64	214.26
943.94	214.20
944.24	214.15
944.54	214.17
944.84	214.19
945.13	214.16
945.43	214.11
945.73	214.08
946.03	214.07
946.33	214.03
946.62	214.01
946.92	214.03
947.22	214.06
947.52	214.09
947.82	214.14
948.11	214.11
948.41	214.04
948.71	213.98
949.01	214.02
949.31	214.05
949.60	214.02
949.90	214.08
950.20	214.08
950.50	214.09
950.79	214.04
951.09	214.04
951.39	214.04
951.69	214.03
951.98	214.09
952.28	214.10
952.58	214.09
952.87	214.10
953.17	214.11
953.47	214.10
953.76	214.10
954.06	214.05
954.36	214.05
954.66	214.09
954.95	214.13
955.25	214.13
955.55	214.13
955.84	214.11
956.14	214.10
956.44	214.13
956.73	214.13
957.03	214.17
957.32	214.14
957.62	214.15
957.92	214.20
958.21	214.15
958.51	214.43
958.81	214.44
959.10	214.44
959.40	214.48
959.69	214.47
959.99	214.48
960.29	214.50
960.58	214.47
960.88	214.54
961.17	214.52
961.47	214.51
961.76	214.52
962.06	214.55
962.36	214.52
962.65	214.53
962.95	214.53
963.24	214.51
963.54	214.54
963.83	214.52
964.13	214.49
964.42	214.43
964.72	214.24
965.01	214.25
965.31	214.25
965.60	214.20
965.90	214.30
966.19	214.25
966.49	214.28
966.78	214.29
967.08	214.27
967.37	214.29
967.67	214.27
967.96	214.29
968.26	214.28
968.55	214.29
968.85	214.32
969.14	214.29
969.43	214.29
969.73	214.27
970.02	214.24
970.32	214.23
970.61	214.23
970.91	214.17
971.20	214.11
971.49	214.09
971.79	214.10
972.08	213.95
972.38	213.97
972.67	213.94
972.96	213.96
973.26	213.87
973.55	213.91
973.85	213.89
974.14	213.85
974.43	213.87
974.73	213.87
975.02	213.81
975.31	213.82
975.61	213.79
975.90	213.77
976.19	213.78
976.49	213.79
976.78	213.82
977.07	213.82
977.37	213.87
977.66	213.89
977.95	213.84
978.24	213.88
978.54	213.89
978.83	213.85
979.12	213.79
979.42	213.82
979.71	213.79
980.00	213.80
980.29	213.84
980.59	213.78
980.88	213.84
981.17	213.83
981.46	213.82
981.76	213.82
982.05	213.92
982.34	213.96
982.63	213.95
982.93	213.92
983.22	213.98
983.51	213.95
983.80	213.99
984.09	214.05
984.39	214.04
984.68	214.02
984.97	214.10
985.26	214.11
985.55	214.14
985.85	214.09
986.14	214.10
986.43	214.13
986.72	214.15
987.01	214.05
987.30	214.09
987.59	214.10
987.89	214.11
988.18	214.04
988.47	214.01
988.76	213.97
989.05	213.99
989.34	213.97
989.63	214.03
989.92	213.98
990.22	213.93
990.51	213.97
990.80	213.99
991.09	213.97
991.38	214.01
991.67	213.97
991.96	213.97
992.25	213.98
992.54	213.92
992.83	213.91
993.12	213.88
993.41	213.88
993.70	213.95
993.99	214.00
994.28	214.04
994.58	214.10
994.87	214.08
995.16	214.07
995.45	214.06
995.74	214.00
996.03	214.03
996.32	214.07
996.61	214.09
996.90	214.08
997.19	214.07
997.48	214.10
997.77	214.10
998.06	214.13
998.34	214.11
998.63	214.15
998.92	214.19
999.21	214.26
999.50	214.28
999.79	214.19
1000.08	214.18
1000.37	214.19
1000.66	214.11
1000.95	214.21
1001.24	214.25
1001.53	214.26
1001.82	214.27
1002.11	214.21
1002.40	214.21
1002.68	214.24
1002.97	214.41
1003.26	214.42
1003.55	214.33
1003.84	214.36
1004.13	214.42
1004.42	214.43
1004.71	214.40
1004.99	214.37
1005.28	214.43
1005.57	214.40
1005.86	214.40
1006.15	214.37
1006.44	214.32
1006.72	214.35
1007.01	214.31
1007.30	214.29
1007.59	214.29
1007.88	214.27
1008.17	214.29
1008.45	214.26
1008.74	214.19
1009.03	214.08
1009.32	214.07
1009.60	214.08
1009.89	214.06
1010.18	214.00
1010.47	214.01
1010.76	214.02
1011.04	213.99
1011.33	213.99
1011.62	214.01
1011.91	214.06
1012.19	214.07
1012.48	214.09
1012.77	214.10
1013.05	214.19
1013.34	214.16
1013.63	214.13
1013.92	214.12
1014.20	214.12
1014.49	214.11
1014.78	214.14
1015.06	214.05
1015.35	214.03
1015.64	214.05
1015.92	214.09
1016.21	214.06
1016.50	214.00
1016.78	214.01
1017.07	214.03
1017.36	213.97
1017.64	213.92
1017.93	213.89
1018.22	213.86
1018.50	213.83
1018.79	213.81
1019.08	213.71
1019.36	213.75
1019.65	213.76
1019.93	213.85
1020.22	213.89
1020.51	214.02
1020.79	214.01
1021.08	213.47
1021.36	213.30
1021.65	213.84
1021.94	214.13
1022.22	214.05
1022.51	214.11
1022.79	215.39
1023.08	214.24
1023.36	216.77
1023.65	214.00
>>>>>End Processed Spectral Data<<<<<
