SpectraSuite Data File
++++++++++++++++++++++++++++++++++++
Date: Tue Jan 29 16:41:44 EST 2013
User: group
Dark Spectrum Present: No
Reference Spectrum Present: No
Number of Sampled Component Spectra: 1
Spectrometers: USB2E7196
Integration Time (usec): 65000 (USB2E7196)
Spectra Averaged: 100 (USB2E7196)
Boxcar Smoothing: 10 (USB2E7196)
Correct for Electrical Dark: No (USB2E7196)
Strobe/Lamp Enabled: No (USB2E7196)
Correct for Detector Non-linearity: No (USB2E7196)
Correct for Stray Light: No (USB2E7196)
Number of Pixels in Processed Spectrum: 2048
>>>>>Begin Processed Spectral Data<<<<<
339.09	0.00
339.48	200.82
339.86	202.99
340.24	204.61
340.63	205.94
341.01	210.42
341.39	208.37
341.78	210.43
342.16	211.64
342.54	211.97
342.93	201.01
343.31	211.15
343.69	211.76
344.07	212.26
344.46	212.71
344.84	213.13
345.22	213.34
345.60	213.62
345.99	213.81
346.37	213.95
346.75	214.08
347.13	214.18
347.52	214.26
347.90	214.38
348.28	214.42
348.66	214.48
349.05	214.44
349.43	214.49
349.81	214.52
350.19	214.59
350.57	214.65
350.96	214.72
351.34	214.81
351.72	214.88
352.10	214.99
352.48	215.05
352.87	215.13
353.25	215.15
353.63	215.22
354.01	215.24
354.39	215.33
354.77	215.38
355.15	215.49
355.54	215.56
355.92	215.51
356.30	215.60
356.68	215.77
357.06	215.86
357.44	215.88
357.82	215.94
358.20	215.96
358.58	215.99
358.97	216.06
359.35	216.20
359.73	216.31
360.11	216.35
360.49	216.41
360.87	216.41
361.25	216.49
361.63	216.59
362.01	216.66
362.39	216.69
362.77	216.74
363.15	216.74
363.53	216.76
363.91	216.83
364.29	216.85
364.67	216.68
365.05	216.71
365.43	216.77
365.81	216.83
366.19	216.96
366.57	217.06
366.95	217.07
367.33	216.99
367.71	216.96
368.09	216.99
368.47	216.98
368.85	217.00
369.23	217.02
369.61	216.95
369.99	217.02
370.37	217.02
370.75	217.10
371.13	217.05
371.51	217.01
371.89	217.03
372.27	217.02
372.65	217.05
373.03	217.02
373.41	216.96
373.78	216.90
374.16	216.76
374.54	216.65
374.92	216.61
375.30	216.61
375.68	216.57
376.06	216.53
376.44	216.48
376.82	216.43
377.19	216.39
377.57	216.34
377.95	216.23
378.33	216.16
378.71	215.99
379.09	216.00
379.47	216.00
379.84	215.91
380.22	215.80
380.60	215.72
380.98	215.66
381.36	215.63
381.73	215.57
382.11	215.61
382.49	215.60
382.87	215.53
383.25	215.47
383.62	215.66
384.00	215.58
384.38	215.55
384.76	215.55
385.13	215.58
385.51	215.53
385.89	215.47
386.27	215.44
386.64	215.44
387.02	215.39
387.40	215.35
387.78	215.32
388.15	215.33
388.53	215.29
388.91	215.29
389.29	215.25
389.66	215.27
390.04	215.16
390.42	215.15
390.79	215.17
391.17	215.18
391.55	214.94
391.92	214.94
392.30	214.96
392.68	214.88
393.05	214.84
393.43	214.84
393.81	214.88
394.18	214.85
394.56	214.85
394.94	214.92
395.31	214.91
395.69	214.98
396.06	215.03
396.44	215.06
396.82	215.05
397.19	215.18
397.57	215.18
397.95	215.27
398.32	215.26
398.70	215.28
399.07	215.36
399.45	215.38
399.82	215.41
400.20	215.44
400.58	215.53
400.95	215.51
401.33	215.66
401.70	215.86
402.08	215.99
402.45	216.09
402.83	216.20
403.20	216.34
403.58	216.43
403.95	216.57
404.33	216.73
404.71	216.87
405.08	217.08
405.46	217.26
405.83	217.44
406.21	217.63
406.58	217.87
406.96	218.10
407.33	218.37
407.70	218.69
408.08	219.17
408.45	219.52
408.83	219.95
409.20	220.25
409.58	220.54
409.95	221.03
410.33	221.54
410.70	221.98
411.08	222.53
411.45	223.08
411.82	223.65
412.20	224.36
412.57	225.23
412.95	225.83
413.32	226.63
413.69	227.50
414.07	228.41
414.44	229.43
414.82	230.41
415.19	231.62
415.56	232.80
415.94	233.97
416.31	235.43
416.68	236.82
417.06	238.48
417.43	240.05
417.81	241.78
418.18	243.55
418.55	245.52
418.93	247.55
419.30	249.70
419.67	251.95
420.04	254.19
420.42	256.55
420.79	259.40
421.16	262.20
421.54	265.11
421.91	268.10
422.28	271.19
422.66	274.55
423.03	277.79
423.40	281.15
423.77	284.79
424.15	288.41
424.52	292.32
424.89	296.46
425.26	300.55
425.64	304.43
426.01	308.73
426.38	313.20
426.75	317.78
427.13	322.54
427.50	327.51
427.87	332.76
428.24	337.99
428.61	343.02
428.99	348.55
429.36	354.53
429.73	360.47
430.10	366.37
430.47	372.46
430.85	378.79
431.22	385.52
431.59	392.66
431.96	399.49
432.33	406.93
432.70	414.18
433.08	422.66
433.45	430.70
433.82	438.72
434.19	447.60
434.56	456.32
434.93	464.66
435.30	472.96
435.68	482.11
436.05	491.14
436.42	500.08
436.79	508.25
437.16	517.06
437.53	526.36
437.90	535.58
438.27	544.55
438.64	553.79
439.01	562.40
439.38	569.96
439.75	577.27
440.13	585.73
440.50	593.77
440.87	600.27
441.24	607.02
441.61	614.40
441.98	619.81
442.35	626.19
442.72	632.54
443.09	638.66
443.46	642.44
443.83	644.93
444.20	647.13
444.57	650.39
444.94	651.91
445.31	653.38
445.68	654.73
446.05	655.34
446.42	654.61
446.79	653.64
447.16	652.58
447.53	651.87
447.90	648.58
448.27	645.27
448.64	640.66
449.01	637.27
449.37	631.39
449.74	625.76
450.11	618.84
450.48	611.45
450.85	603.97
451.22	597.47
451.59	591.33
451.96	585.44
452.33	577.49
452.70	570.33
453.07	561.79
453.43	553.19
453.80	544.79
454.17	536.76
454.54	529.14
454.91	520.89
455.28	512.93
455.65	505.45
456.02	497.92
456.38	491.54
456.75	483.68
457.12	477.06
457.49	470.50
457.86	464.27
458.23	458.76
458.59	452.84
458.96	446.80
459.33	441.47
459.70	436.11
460.07	431.84
460.43	426.95
460.80	422.38
461.17	418.34
461.54	414.22
461.91	410.16
462.27	406.04
462.64	402.65
463.01	398.81
463.38	395.11
463.74	391.36
464.11	388.08
464.48	385.24
464.85	382.11
465.21	379.65
465.58	376.98
465.95	373.85
466.32	371.19
466.68	368.59
467.05	366.01
467.42	363.44
467.78	360.74
468.15	358.15
468.52	356.22
468.88	353.69
469.25	351.47
469.62	349.64
469.98	347.71
470.35	345.86
470.72	344.17
471.08	342.35
471.45	340.89
471.82	339.35
472.18	337.63
472.55	336.45
472.92	335.04
473.28	333.83
473.65	332.69
474.02	331.54
474.38	330.61
474.75	329.83
475.11	328.98
475.48	328.38
475.85	327.91
476.21	327.41
476.58	327.07
476.94	326.80
477.31	326.53
477.67	326.27
478.04	326.08
478.41	326.05
478.77	326.18
479.14	326.07
479.50	326.21
479.87	326.51
480.23	326.79
480.60	327.02
480.96	327.26
481.33	327.84
481.69	328.40
482.06	328.92
482.42	329.39
482.79	330.01
483.15	330.78
483.52	331.73
483.88	332.60
484.25	333.54
484.61	334.54
484.98	335.58
485.34	336.88
485.71	338.30
486.07	339.75
486.44	341.10
486.80	342.77
487.17	344.47
487.53	346.28
487.90	348.15
488.26	350.21
488.62	352.38
488.99	354.43
489.35	356.60
489.72	358.98
490.08	361.54
490.44	364.08
490.81	366.84
491.17	369.52
491.54	372.53
491.90	375.57
492.26	378.82
492.63	382.23
492.99	385.74
493.36	389.36
493.72	393.21
494.08	397.21
494.45	401.37
494.81	405.74
495.17	410.17
495.54	414.89
495.90	419.70
496.26	424.62
496.63	429.86
496.99	435.33
497.35	440.86
497.72	446.70
498.08	452.70
498.44	458.80
498.80	465.26
499.17	471.72
499.53	478.43
499.89	485.35
500.26	492.35
500.62	499.40
500.98	506.87
501.34	514.35
501.71	522.07
502.07	529.88
502.43	537.84
502.79	546.02
503.16	554.38
503.52	563.09
503.88	571.88
504.24	580.84
504.60	589.83
504.97	599.08
505.33	608.32
505.69	618.15
506.05	627.95
506.41	637.79
506.78	647.84
507.14	658.11
507.50	668.56
507.86	679.27
508.22	690.07
508.59	700.69
508.95	711.82
509.31	723.13
509.67	734.64
510.03	746.09
510.39	757.81
510.75	769.73
511.12	781.53
511.48	793.56
511.84	805.86
512.20	818.26
512.56	831.03
512.92	843.90
513.28	856.59
513.64	869.43
514.00	882.39
514.37	895.39
514.73	908.52
515.09	921.57
515.45	934.54
515.81	947.69
516.17	961.18
516.53	974.38
516.89	987.64
517.25	1000.96
517.61	1014.54
517.97	1028.08
518.33	1041.28
518.69	1055.05
519.05	1068.86
519.41	1082.59
519.77	1096.53
520.13	1109.84
520.49	1123.16
520.85	1136.52
521.21	1149.99
521.57	1163.64
521.93	1176.79
522.29	1190.59
522.65	1204.34
523.01	1218.03
523.37	1231.37
523.73	1244.76
524.09	1258.06
524.45	1271.52
524.81	1285.02
525.17	1298.45
525.53	1311.64
525.89	1325.13
526.25	1338.22
526.61	1351.25
526.97	1364.45
527.33	1377.52
527.68	1391.09
528.04	1404.60
528.40	1417.90
528.76	1431.34
529.12	1444.35
529.48	1457.78
529.84	1470.27
530.20	1483.07
530.56	1495.66
530.91	1508.92
531.27	1521.85
531.63	1534.69
531.99	1547.44
532.35	1559.71
532.71	1572.16
533.07	1585.15
533.42	1597.41
533.78	1609.60
534.14	1621.69
534.50	1633.01
534.86	1644.65
535.21	1655.56
535.57	1667.16
535.93	1678.49
536.29	1689.65
536.65	1701.21
537.00	1712.29
537.36	1723.68
537.72	1734.66
538.08	1746.32
538.44	1757.45
538.79	1768.75
539.15	1779.77
539.51	1790.68
539.87	1802.09
540.22	1813.08
540.58	1824.12
540.94	1835.26
541.29	1845.77
541.65	1855.73
542.01	1866.36
542.37	1876.56
542.72	1886.89
543.08	1896.62
543.44	1907.27
543.79	1916.62
544.15	1926.15
544.51	1936.17
544.87	1946.13
545.22	1955.54
545.58	1964.34
545.94	1973.29
546.29	1981.77
546.65	1990.16
547.01	1998.55
547.36	2006.47
547.72	2014.37
548.07	2022.10
548.43	2029.75
548.79	2037.60
549.14	2045.83
549.50	2054.31
549.86	2062.23
550.21	2069.81
550.57	2077.70
550.92	2084.52
551.28	2092.03
551.64	2099.47
551.99	2107.08
552.35	2114.30
552.70	2121.26
553.06	2128.03
553.41	2134.22
553.77	2140.75
554.13	2147.25
554.48	2154.21
554.84	2161.23
555.19	2167.70
555.55	2174.13
555.90	2180.41
556.26	2187.31
556.61	2193.45
556.97	2198.34
557.32	2204.15
557.68	2210.51
558.03	2216.34
558.39	2221.70
558.74	2227.79
559.10	2233.31
559.45	2238.94
559.81	2244.47
560.16	2249.98
560.52	2255.85
560.87	2262.44
561.23	2268.44
561.58	2275.20
561.94	2280.52
562.29	2285.09
562.64	2291.14
563.00	2296.84
563.35	2302.42
563.71	2308.13
564.06	2313.70
564.42	2319.62
564.77	2324.72
565.12	2329.79
565.48	2334.81
565.83	2340.40
566.19	2345.59
566.54	2350.91
566.89	2355.35
567.25	2359.87
567.60	2365.54
567.96	2370.66
568.31	2375.12
568.66	2379.27
569.02	2382.86
569.37	2386.48
569.72	2390.98
570.08	2394.32
570.43	2397.33
570.78	2400.44
571.14	2402.86
571.49	2405.87
571.84	2409.40
572.20	2412.07
572.55	2415.06
572.90	2417.23
573.26	2419.82
573.61	2422.44
573.96	2424.53
574.31	2426.49
574.67	2428.23
575.02	2428.89
575.37	2430.30
575.72	2430.82
576.08	2432.36
576.43	2432.70
576.78	2433.11
577.13	2434.52
577.49	2435.76
577.84	2436.61
578.19	2437.75
578.54	2438.10
578.90	2438.62
579.25	2438.24
579.60	2438.16
579.95	2437.27
580.30	2437.12
580.66	2436.26
581.01	2434.46
581.36	2431.92
581.71	2430.34
582.06	2429.04
582.42	2428.02
582.77	2425.61
583.12	2423.88
583.47	2422.20
583.82	2421.25
584.17	2419.92
584.53	2417.56
584.88	2415.20
585.23	2413.26
585.58	2410.77
585.93	2408.76
586.28	2406.60
586.63	2403.98
586.98	2401.66
587.34	2399.63
587.69	2397.18
588.04	2395.03
588.39	2393.49
588.74	2391.01
589.09	2388.31
589.44	2385.25
589.79	2382.52
590.14	2380.37
590.49	2377.44
590.84	2373.44
591.19	2370.18
591.54	2366.72
591.89	2362.68
592.25	2359.37
592.60	2354.91
592.95	2350.77
593.30	2346.44
593.65	2341.88
594.00	2337.48
594.35	2334.30
594.70	2329.44
595.05	2324.90
595.40	2319.43
595.75	2313.50
596.10	2309.83
596.45	2304.86
596.80	2300.07
597.15	2294.95
597.50	2288.92
597.85	2283.79
598.19	2278.55
598.54	2272.74
598.89	2267.44
599.24	2262.87
599.59	2256.63
599.94	2250.79
600.29	2244.68
600.64	2238.70
600.99	2231.92
601.34	2226.37
601.69	2219.47
602.04	2213.21
602.39	2206.38
602.74	2200.10
603.08	2194.55
603.43	2187.90
603.78	2180.92
604.13	2173.84
604.48	2166.52
604.83	2160.53
605.18	2154.41
605.53	2147.50
605.87	2140.31
606.22	2133.56
606.57	2125.54
606.92	2117.56
607.27	2110.70
607.62	2104.01
607.96	2096.98
608.31	2090.34
608.66	2082.59
609.01	2074.85
609.36	2067.66
609.70	2059.93
610.05	2052.22
610.40	2043.91
610.75	2035.47
611.10	2027.77
611.44	2018.80
611.79	2010.00
612.14	1999.99
612.49	1989.15
612.83	1979.71
613.18	1970.54
613.53	1961.19
613.88	1951.64
614.22	1943.08
614.57	1933.24
614.92	1922.76
615.27	1912.62
615.61	1902.59
615.96	1892.83
616.31	1883.11
616.65	1873.73
617.00	1864.01
617.35	1854.33
617.70	1844.60
618.04	1834.68
618.39	1824.55
618.74	1814.90
619.08	1805.32
619.43	1796.55
619.78	1788.40
620.12	1779.78
620.47	1770.21
620.82	1759.81
621.16	1750.06
621.51	1740.10
621.85	1730.25
622.20	1719.93
622.55	1709.39
622.89	1699.47
623.24	1689.81
623.59	1680.09
623.93	1669.91
624.28	1660.29
624.62	1650.20
624.97	1639.93
625.32	1630.10
625.66	1621.21
626.01	1612.62
626.35	1603.37
626.70	1593.36
627.04	1583.41
627.39	1573.35
627.73	1564.11
628.08	1555.32
628.43	1545.87
628.77	1536.83
629.12	1527.92
629.46	1520.03
629.81	1511.76
630.15	1502.23
630.50	1492.51
630.84	1482.09
631.19	1472.19
631.53	1462.89
631.88	1452.79
632.22	1442.84
632.57	1433.58
632.91	1423.50
633.26	1413.66
633.60	1404.10
633.95	1394.85
634.29	1385.30
634.64	1375.94
634.98	1366.14
635.32	1356.86
635.67	1348.39
636.01	1339.09
636.36	1329.26
636.70	1319.80
637.05	1310.45
637.39	1301.59
637.73	1292.94
638.08	1285.43
638.42	1277.42
638.77	1268.67
639.11	1260.51
639.45	1252.69
639.80	1244.14
640.14	1235.46
640.49	1226.64
640.83	1217.83
641.17	1209.61
641.52	1201.50
641.86	1193.05
642.20	1185.12
642.55	1176.54
642.89	1167.63
643.23	1158.98
643.58	1151.07
643.92	1142.12
644.26	1133.51
644.61	1125.13
644.95	1116.35
645.29	1107.15
645.64	1097.94
645.98	1089.42
646.32	1081.56
646.66	1073.12
647.01	1064.71
647.35	1056.65
647.69	1048.30
648.04	1040.00
648.38	1031.19
648.72	1022.42
649.06	1014.07
649.41	1005.92
649.75	997.96
650.09	990.10
650.43	982.02
650.78	973.62
651.12	965.82
651.46	958.29
651.80	951.01
652.14	943.72
652.49	936.20
652.83	928.91
653.17	921.21
653.51	913.50
653.85	906.23
654.20	899.04
654.54	891.51
654.88	884.19
655.22	877.01
655.56	870.05
655.90	863.25
656.25	856.52
656.59	849.60
656.93	842.56
657.27	835.39
657.61	828.43
657.95	822.28
658.29	816.38
658.64	810.29
658.98	803.74
659.32	797.24
659.66	791.07
660.00	784.64
660.34	778.55
660.68	772.49
661.02	766.11
661.36	760.10
661.70	754.28
662.05	748.67
662.39	743.14
662.73	737.76
663.07	732.39
663.41	726.72
663.75	720.98
664.09	715.28
664.43	709.87
664.77	704.57
665.11	698.83
665.45	692.92
665.79	687.07
666.13	681.42
666.47	675.87
666.81	670.39
667.15	664.98
667.49	659.75
667.83	654.34
668.17	649.06
668.51	643.95
668.85	639.00
669.19	634.07
669.53	628.99
669.87	623.84
670.21	619.03
670.55	614.26
670.89	609.77
671.23	605.45
671.57	601.04
671.91	596.71
672.25	592.53
672.58	588.39
672.92	584.33
673.26	580.42
673.60	576.47
673.94	572.62
674.28	569.03
674.62	565.27
674.96	561.53
675.30	558.03
675.64	554.34
675.97	550.75
676.31	547.14
676.65	543.51
676.99	540.05
677.33	536.15
677.67	532.51
678.01	528.62
678.34	524.94
678.68	521.41
679.02	517.79
679.36	514.02
679.70	510.38
680.04	506.74
680.37	503.24
680.71	499.92
681.05	496.64
681.39	493.30
681.73	490.17
682.06	487.18
682.40	484.04
682.74	480.80
683.08	477.53
683.42	474.31
683.75	471.27
684.09	468.19
684.43	465.38
684.77	462.39
685.10	459.50
685.44	456.51
685.78	453.50
686.12	450.64
686.45	447.95
686.79	445.18
687.13	442.60
687.46	439.97
687.80	437.24
688.14	434.38
688.48	431.74
688.81	428.98
689.15	426.30
689.49	423.70
689.82	421.16
690.16	418.58
690.50	416.08
690.83	413.55
691.17	410.97
691.51	408.44
691.84	406.15
692.18	403.96
692.52	401.77
692.85	399.63
693.19	397.46
693.52	395.20
693.86	392.96
694.20	390.83
694.53	388.62
694.87	386.38
695.21	384.22
695.54	382.03
695.88	379.81
696.21	377.58
696.55	375.36
696.88	373.26
697.22	371.22
697.56	369.27
697.89	367.34
698.23	365.56
698.56	363.78
698.90	362.01
699.23	360.06
699.57	358.16
699.90	356.27
700.24	354.38
700.58	352.59
700.91	350.90
701.25	349.24
701.58	347.59
701.92	346.00
702.25	344.37
702.59	342.71
702.92	341.19
703.26	339.59
703.59	338.17
703.93	336.90
704.26	335.46
704.60	333.94
704.93	332.49
705.26	331.00
705.60	329.52
705.93	327.96
706.27	326.59
706.60	325.34
706.94	324.09
707.27	322.74
707.61	321.39
707.94	320.03
708.27	318.49
708.61	317.06
708.94	315.65
709.28	314.36
709.61	313.11
709.94	311.88
710.28	310.66
710.61	309.42
710.95	307.97
711.28	306.89
711.61	305.71
711.95	304.48
712.28	303.25
712.61	302.01
712.95	300.95
713.28	299.92
713.61	298.75
713.95	297.57
714.28	296.53
714.61	295.47
714.95	294.47
715.28	293.46
715.61	292.40
715.95	291.44
716.28	290.45
716.61	289.47
716.95	288.43
717.28	287.49
717.61	286.52
717.94	285.59
718.28	284.51
718.61	283.60
718.94	282.70
719.27	281.83
719.61	281.01
719.94	280.12
720.27	279.13
720.60	278.21
720.94	277.39
721.27	276.60
721.60	275.87
721.93	275.12
722.27	274.47
722.60	273.80
722.93	273.10
723.26	272.43
723.59	271.72
723.93	271.06
724.26	270.41
724.59	269.76
724.92	269.17
725.25	268.65
725.59	268.08
725.92	267.57
726.25	267.02
726.58	266.42
726.91	265.82
727.24	265.27
727.57	264.73
727.91	264.12
728.24	263.56
728.57	262.98
728.90	262.41
729.23	261.76
729.56	261.32
729.89	260.70
730.22	260.12
730.55	259.58
730.89	259.06
731.22	258.52
731.55	257.96
731.88	257.46
732.21	256.88
732.54	256.32
732.87	255.76
733.20	255.25
733.53	254.80
733.86	254.32
734.19	253.86
734.52	253.41
734.85	253.13
735.18	252.65
735.51	252.29
735.84	251.84
736.17	251.41
736.50	250.86
736.83	250.74
737.16	250.35
737.49	249.96
737.82	249.52
738.15	249.15
738.48	248.78
738.81	248.35
739.14	247.91
739.47	247.53
739.80	247.17
740.13	246.81
740.46	246.35
740.79	245.99
741.12	245.60
741.45	245.23
741.78	244.74
742.11	244.47
742.44	244.08
742.77	243.77
743.10	243.43
743.43	243.06
743.75	242.48
744.08	242.39
744.41	242.01
744.74	241.64
745.07	241.24
745.40	240.97
745.73	240.71
746.06	240.38
746.39	240.06
746.71	239.72
747.04	239.40
747.37	239.11
747.70	238.77
748.03	238.44
748.36	238.19
748.68	237.90
749.01	237.51
749.34	237.18
749.67	236.89
750.00	236.62
750.33	236.52
750.65	236.25
750.98	235.71
751.31	235.47
751.64	235.27
751.97	235.14
752.29	234.84
752.62	234.50
752.95	234.28
753.28	234.01
753.60	233.78
753.93	233.56
754.26	233.35
754.59	233.08
754.91	232.85
755.24	232.58
755.57	232.37
755.90	232.15
756.22	231.91
756.55	231.69
756.88	231.42
757.20	231.09
757.53	230.87
757.86	230.70
758.19	230.48
758.51	230.25
758.84	229.97
759.17	229.78
759.49	229.59
759.82	229.51
760.15	229.36
760.47	229.18
760.80	228.95
761.13	228.78
761.45	228.60
761.78	228.41
762.11	228.24
762.43	228.03
762.76	227.87
763.08	227.74
763.41	227.59
763.74	227.47
764.06	227.26
764.39	227.11
764.71	226.93
765.04	226.80
765.37	226.65
765.69	226.49
766.02	226.33
766.34	226.19
766.67	225.94
767.00	225.83
767.32	225.77
767.65	225.74
767.97	225.58
768.30	225.44
768.62	225.34
768.95	225.20
769.27	225.07
769.60	224.97
769.92	224.82
770.25	224.60
770.57	224.43
770.90	224.32
771.22	224.16
771.55	224.02
771.87	223.92
772.20	223.79
772.52	223.83
772.85	223.93
773.17	223.81
773.50	223.70
773.82	223.55
774.15	223.35
774.47	223.12
774.80	223.02
775.12	222.96
775.45	222.80
775.77	222.69
776.09	222.64
776.42	222.54
776.74	222.51
777.07	222.41
777.39	222.34
777.72	222.24
778.04	222.19
778.36	222.12
778.69	222.03
779.01	221.98
779.33	221.70
779.66	221.38
779.98	221.28
780.31	221.21
780.63	221.21
780.95	221.19
781.28	221.12
781.60	221.04
781.92	220.96
782.25	220.94
782.57	220.91
782.89	220.80
783.22	220.71
783.54	220.60
783.86	220.57
784.19	220.49
784.51	220.49
784.83	220.38
785.16	220.31
785.48	220.26
785.80	220.18
786.12	220.18
786.45	220.15
786.77	220.09
787.09	220.04
787.42	219.90
787.74	219.82
788.06	219.75
788.38	219.66
788.71	219.56
789.03	219.50
789.35	219.44
789.67	219.38
789.99	219.32
790.32	219.24
790.64	219.21
790.96	219.33
791.28	219.20
791.61	219.17
791.93	219.13
792.25	219.05
792.57	219.17
792.89	219.05
793.21	219.01
793.54	218.97
793.86	218.89
794.18	218.87
794.50	218.81
794.82	218.79
795.14	218.81
795.47	218.82
795.79	218.74
796.11	218.64
796.43	218.55
796.75	218.53
797.07	218.51
797.39	218.47
797.71	218.25
798.04	218.25
798.36	218.19
798.68	218.15
799.00	218.13
799.32	217.99
799.64	218.01
799.96	217.96
800.28	217.97
800.60	217.93
800.92	217.90
801.24	217.84
801.56	217.82
801.89	217.75
802.21	217.71
802.53	217.66
802.85	217.70
803.17	217.77
803.49	217.73
803.81	217.66
804.13	217.60
804.45	217.55
804.77	217.55
805.09	217.52
805.41	217.45
805.73	217.37
806.05	217.28
806.37	217.24
806.69	217.18
807.01	217.12
807.33	217.10
807.65	216.99
807.97	217.03
808.28	216.96
808.60	216.92
808.92	216.87
809.24	217.00
809.56	216.93
809.88	216.82
810.20	216.77
810.52	216.79
810.84	216.76
811.16	216.72
811.48	216.66
811.80	216.73
812.12	216.69
812.43	216.70
812.75	216.70
813.07	216.66
813.39	216.66
813.71	216.61
814.03	216.58
814.35	216.56
814.67	216.47
814.98	216.45
815.30	216.45
815.62	216.38
815.94	216.23
816.26	216.22
816.58	216.22
816.89	216.22
817.21	216.14
817.53	216.12
817.85	216.10
818.17	216.08
818.48	215.98
818.80	216.05
819.12	216.01
819.44	215.96
819.76	215.90
820.07	215.89
820.39	215.88
820.71	215.88
821.03	215.89
821.34	215.85
821.66	215.86
821.98	215.82
822.30	215.81
822.61	215.88
822.93	215.85
823.25	215.81
823.57	215.78
823.88	215.80
824.20	215.80
824.52	215.84
824.83	215.81
825.15	215.76
825.47	215.72
825.79	215.71
826.10	215.67
826.42	215.65
826.74	215.66
827.05	215.65
827.37	215.65
827.69	215.61
828.00	215.62
828.32	215.60
828.64	215.60
828.95	215.71
829.27	215.66
829.58	215.62
829.90	215.65
830.22	215.67
830.53	215.62
830.85	215.60
831.17	215.53
831.48	215.51
831.80	215.53
832.11	215.49
832.43	215.43
832.75	215.43
833.06	215.56
833.38	215.48
833.69	215.46
834.01	215.43
834.32	215.44
834.64	215.41
834.96	215.40
835.27	215.37
835.59	215.29
835.90	215.21
836.22	215.24
836.53	215.17
836.85	215.14
837.16	215.34
837.48	215.34
837.79	215.40
838.11	215.43
838.42	215.41
838.74	215.41
839.05	215.41
839.37	215.41
839.68	215.27
840.00	215.27
840.31	215.28
840.63	215.29
840.94	215.27
841.26	215.25
841.57	215.26
841.88	215.27
842.20	215.21
842.51	215.19
842.83	215.18
843.14	215.34
843.46	215.32
843.77	215.18
844.08	215.19
844.40	215.10
844.71	215.06
845.03	215.01
845.34	215.01
845.65	215.00
845.97	215.00
846.28	215.01
846.60	215.00
846.91	214.97
847.22	214.92
847.54	214.94
847.85	214.97
848.16	214.92
848.48	214.91
848.79	215.00
849.10	215.04
849.42	215.05
849.73	214.87
850.04	214.84
850.36	214.76
850.67	214.77
850.98	214.81
851.30	214.80
851.61	214.82
851.92	214.81
852.23	214.86
852.55	214.86
852.86	214.84
853.17	214.85
853.49	214.89
853.80	214.95
854.11	214.97
854.42	214.93
854.74	214.93
855.05	214.90
855.36	214.79
855.67	214.79
855.99	214.76
856.30	215.01
856.61	215.02
856.92	215.04
857.23	215.03
857.55	215.00
857.86	215.01
858.17	215.03
858.48	214.98
858.79	214.95
859.11	214.98
859.42	214.98
859.73	214.93
860.04	214.92
860.35	214.86
860.66	214.75
860.98	214.77
861.29	214.78
861.60	214.78
861.91	214.80
862.22	214.77
862.53	214.74
862.84	214.49
863.16	214.54
863.47	214.47
863.78	214.46
864.09	214.47
864.40	214.47
864.71	214.49
865.02	214.51
865.33	214.48
865.64	214.41
865.95	214.40
866.27	214.56
866.58	214.50
866.89	214.53
867.20	214.56
867.51	214.53
867.82	214.53
868.13	214.60
868.44	214.55
868.75	214.57
869.06	214.60
869.37	214.63
869.68	214.55
869.99	214.61
870.30	214.62
870.61	214.63
870.92	214.58
871.23	214.56
871.54	214.57
871.85	214.62
872.16	214.67
872.47	214.66
872.78	214.55
873.09	214.62
873.40	214.60
873.71	214.63
874.02	214.65
874.33	214.62
874.64	214.57
874.95	214.58
875.26	214.55
875.56	214.52
875.87	214.49
876.18	214.49
876.49	214.67
876.80	214.64
877.11	214.56
877.42	214.61
877.73	214.59
878.04	214.57
878.35	214.58
878.66	214.55
878.96	214.53
879.27	214.49
879.58	214.45
879.89	214.43
880.20	214.48
880.51	214.48
880.82	214.49
881.12	214.52
881.43	214.51
881.74	214.48
882.05	214.49
882.36	214.53
882.67	214.57
882.97	214.36
883.28	214.35
883.59	214.36
883.90	214.39
884.21	214.43
884.51	214.43
884.82	214.39
885.13	214.42
885.44	214.45
885.74	214.46
886.05	214.43
886.36	214.45
886.67	214.38
886.98	214.47
887.28	214.50
887.59	214.50
887.90	214.51
888.20	214.55
888.51	214.57
888.82	214.52
889.13	214.50
889.43	214.64
889.74	214.66
890.05	214.69
890.35	214.64
890.66	214.60
890.97	214.59
891.28	214.61
891.58	214.59
891.89	214.58
892.20	214.56
892.50	214.55
892.81	214.53
893.12	214.54
893.42	214.44
893.73	214.42
894.04	214.37
894.34	214.39
894.65	214.34
894.95	214.31
895.26	214.32
895.57	214.46
895.87	214.27
896.18	214.32
896.48	214.31
896.79	214.30
897.10	214.33
897.40	214.34
897.71	214.35
898.01	214.36
898.32	214.37
898.63	214.37
898.93	214.37
899.24	214.38
899.54	214.35
899.85	214.34
900.15	214.31
900.46	214.34
900.76	214.35
901.07	214.37
901.38	214.37
901.68	214.38
901.99	214.28
902.29	214.30
902.60	214.26
902.90	214.25
903.21	214.29
903.51	214.28
903.82	214.30
904.12	214.27
904.43	214.26
904.73	214.24
905.03	214.24
905.34	214.48
905.64	214.44
905.95	214.45
906.25	214.45
906.56	214.47
906.86	214.45
907.17	214.41
907.47	214.42
907.77	214.43
908.08	214.39
908.38	214.37
908.69	214.38
908.99	214.40
909.30	214.41
909.60	214.37
909.90	214.39
910.21	214.32
910.51	214.30
910.81	214.30
911.12	214.32
911.42	214.34
911.73	214.06
912.03	214.09
912.33	214.12
912.64	214.14
912.94	214.11
913.24	214.04
913.55	214.04
913.85	214.03
914.15	214.08
914.46	214.12
914.76	214.11
915.06	214.09
915.37	214.06
915.67	214.05
915.97	214.06
916.27	213.98
916.58	213.99
916.88	213.99
917.18	213.93
917.49	214.05
917.79	214.05
918.09	214.11
918.39	214.17
918.70	214.16
919.00	214.14
919.30	214.21
919.60	214.24
919.91	214.21
920.21	214.24
920.51	214.15
920.81	214.13
921.12	214.19
921.42	214.19
921.72	214.19
922.02	214.19
922.32	214.22
922.63	214.24
922.93	214.36
923.23	214.35
923.53	214.34
923.83	214.21
924.13	214.20
924.44	214.19
924.74	214.16
925.04	214.20
925.34	214.18
925.64	214.11
925.94	214.12
926.24	214.22
926.55	214.19
926.85	214.23
927.15	214.24
927.45	214.25
927.75	214.25
928.05	214.26
928.35	214.24
928.65	214.27
928.95	214.30
929.26	214.21
929.56	214.28
929.86	214.35
930.16	214.35
930.46	214.35
930.76	214.34
931.06	214.30
931.36	214.26
931.66	214.32
931.96	214.34
932.26	214.35
932.56	214.28
932.86	214.31
933.16	214.32
933.46	214.29
933.76	214.21
934.06	214.28
934.36	214.37
934.66	214.37
934.96	214.33
935.26	214.34
935.56	214.37
935.86	214.31
936.16	214.26
936.46	214.25
936.76	214.27
937.06	214.22
937.36	214.21
937.66	214.21
937.96	214.19
938.26	214.16
938.56	214.15
938.86	214.19
939.16	214.20
939.46	214.16
939.76	214.17
940.06	214.18
940.35	214.12
940.65	214.01
940.95	214.02
941.25	213.97
941.55	213.93
941.85	213.92
942.15	213.97
942.45	214.05
942.75	214.02
943.04	214.04
943.34	214.14
943.64	214.17
943.94	214.12
944.24	214.11
944.54	214.13
944.84	214.11
945.13	214.06
945.43	214.05
945.73	214.07
946.03	214.07
946.33	214.04
946.62	214.00
946.92	213.97
947.22	213.98
947.52	214.00
947.82	214.07
948.11	214.04
948.41	214.00
948.71	213.93
949.01	213.94
949.31	213.91
949.60	213.86
949.90	213.86
950.20	213.87
950.50	213.85
950.79	213.82
951.09	213.88
951.39	213.88
951.69	213.84
951.98	213.87
952.28	213.86
952.58	213.85
952.87	213.87
953.17	213.92
953.47	213.88
953.76	213.89
954.06	213.81
954.36	213.79
954.66	213.77
954.95	213.82
955.25	213.83
955.55	213.81
955.84	213.79
956.14	213.80
956.44	213.80
956.73	213.83
957.03	213.85
957.32	213.85
957.62	213.85
957.92	213.90
958.21	213.88
958.51	214.11
958.81	214.16
959.10	214.20
959.40	214.24
959.69	214.28
959.99	214.33
960.29	214.34
960.58	214.36
960.88	214.44
961.17	214.41
961.47	214.44
961.76	214.42
962.06	214.46
962.36	214.43
962.65	214.45
962.95	214.43
963.24	214.41
963.54	214.39
963.83	214.41
964.13	214.39
964.42	214.32
964.72	214.17
965.01	214.16
965.31	214.11
965.60	214.09
965.90	214.20
966.19	214.11
966.49	214.11
966.78	214.08
967.08	214.05
967.37	214.06
967.67	214.02
967.96	214.10
968.26	214.13
968.55	214.19
968.85	214.16
969.14	214.16
969.43	214.14
969.73	214.12
970.02	214.11
970.32	214.12
970.61	214.14
970.91	214.08
971.20	214.04
971.49	214.04
971.79	214.04
972.08	213.90
972.38	213.92
972.67	213.90
972.96	213.93
973.26	213.91
973.55	213.97
973.85	213.96
974.14	213.92
974.43	213.90
974.73	213.85
975.02	213.88
975.31	213.86
975.61	213.87
975.90	213.90
976.19	213.86
976.49	213.86
976.78	213.88
977.07	213.89
977.37	213.93
977.66	213.93
977.95	213.92
978.24	213.95
978.54	214.00
978.83	213.98
979.12	213.98
979.42	213.97
979.71	213.92
980.00	213.91
980.29	213.92
980.59	213.90
980.88	213.94
981.17	213.92
981.46	213.96
981.76	213.94
982.05	213.96
982.34	213.99
982.63	213.98
982.93	213.98
983.22	214.01
983.51	214.02
983.80	214.05
984.09	214.07
984.39	214.04
984.68	214.01
984.97	214.03
985.26	213.99
985.55	214.07
985.85	214.03
986.14	214.05
986.43	214.07
986.72	214.04
987.01	213.97
987.30	213.95
987.59	213.93
987.89	213.96
988.18	213.89
988.47	213.87
988.76	213.85
989.05	213.84
989.34	213.83
989.63	213.88
989.92	213.88
990.22	213.83
990.51	213.84
990.80	213.86
991.09	213.91
991.38	213.95
991.67	213.88
991.96	213.87
992.25	213.88
992.54	213.84
992.83	213.86
993.12	213.86
993.41	213.88
993.70	213.94
993.99	213.96
994.28	214.02
994.58	214.08
994.87	214.04
995.16	214.03
995.45	214.00
995.74	213.94
996.03	213.95
996.32	213.99
996.61	214.05
996.90	214.03
997.19	214.00
997.48	213.98
997.77	213.95
998.06	213.93
998.34	213.92
998.63	213.92
998.92	213.93
999.21	213.99
999.50	213.99
999.79	213.90
1000.08	213.91
1000.37	213.90
1000.66	213.86
1000.95	213.93
1001.24	213.92
1001.53	213.94
1001.82	213.93
1002.11	213.89
1002.40	213.90
1002.68	213.93
1002.97	214.10
1003.26	214.06
1003.55	214.03
1003.84	214.06
1004.13	214.17
1004.42	214.16
1004.71	214.17
1004.99	214.15
1005.28	214.15
1005.57	214.17
1005.86	214.19
1006.15	214.16
1006.44	214.13
1006.72	214.14
1007.01	214.10
1007.30	214.12
1007.59	214.09
1007.88	214.10
1008.17	214.11
1008.45	214.08
1008.74	213.96
1009.03	213.82
1009.32	213.82
1009.60	213.85
1009.89	213.83
1010.18	213.75
1010.47	213.74
1010.76	213.72
1011.04	213.72
1011.33	213.72
1011.62	213.71
1011.91	213.71
1012.19	213.73
1012.48	213.76
1012.77	213.76
1013.05	213.86
1013.34	213.83
1013.63	213.84
1013.92	213.84
1014.20	213.81
1014.49	213.80
1014.78	213.84
1015.06	213.79
1015.35	213.79
1015.64	213.83
1015.92	213.85
1016.21	213.86
1016.50	213.84
1016.78	213.89
1017.07	213.94
1017.36	213.89
1017.64	213.85
1017.93	213.86
1018.22	213.83
1018.50	213.79
1018.79	213.81
1019.08	213.72
1019.36	213.74
1019.65	213.72
1019.93	213.78
1020.22	213.82
1020.51	213.94
1020.79	213.90
1021.08	213.54
1021.36	213.31
1021.65	214.17
1021.94	213.65
1022.22	213.94
1022.51	213.34
1022.79	214.76
1023.08	214.21
1023.36	216.43
1023.65	213.07
>>>>>End Processed Spectral Data<<<<<
