SpectraSuite Data File
++++++++++++++++++++++++++++++++++++
Date: Tue Jan 29 16:19:05 EST 2013
User: group
Dark Spectrum Present: No
Reference Spectrum Present: No
Number of Sampled Component Spectra: 1
Spectrometers: USB2E7196
Integration Time (usec): 65000 (USB2E7196)
Spectra Averaged: 100 (USB2E7196)
Boxcar Smoothing: 10 (USB2E7196)
Correct for Electrical Dark: No (USB2E7196)
Strobe/Lamp Enabled: No (USB2E7196)
Correct for Detector Non-linearity: No (USB2E7196)
Correct for Stray Light: No (USB2E7196)
Number of Pixels in Processed Spectrum: 2048
>>>>>Begin Processed Spectral Data<<<<<
339.09	0.00
339.48	202.51
339.86	204.04
340.24	205.75
340.63	207.21
341.01	211.18
341.39	209.38
341.78	210.83
342.16	212.15
342.54	212.54
342.93	201.82
343.31	212.00
343.69	212.54
344.07	213.02
344.46	213.44
344.84	213.82
345.22	213.96
345.60	214.23
345.99	214.47
346.37	214.62
346.75	214.71
347.13	214.75
347.52	214.83
347.90	214.96
348.28	214.98
348.66	215.06
349.05	215.03
349.43	215.06
349.81	215.15
350.19	215.20
350.57	215.25
350.96	215.33
351.34	215.43
351.72	215.51
352.10	215.59
352.48	215.64
352.87	215.68
353.25	215.75
353.63	215.79
354.01	215.80
354.39	215.87
354.77	215.97
355.15	216.10
355.54	216.11
355.92	216.12
356.30	216.20
356.68	216.38
357.06	216.43
357.44	216.45
357.82	216.50
358.20	216.57
358.58	216.60
358.97	216.68
359.35	216.80
359.73	216.89
360.11	216.94
360.49	217.01
360.87	217.06
361.25	217.14
361.63	217.26
362.01	217.36
362.39	217.37
362.77	217.40
363.15	217.41
363.53	217.45
363.91	217.48
364.29	217.50
364.67	217.34
365.05	217.37
365.43	217.43
365.81	217.45
366.19	217.54
366.57	217.59
366.95	217.58
367.33	217.53
367.71	217.55
368.09	217.62
368.47	217.63
368.85	217.61
369.23	217.65
369.61	217.61
369.99	217.63
370.37	217.67
370.75	217.76
371.13	217.72
371.51	217.71
371.89	217.69
372.27	217.67
372.65	217.66
373.03	217.65
373.41	217.61
373.78	217.57
374.16	217.44
374.54	217.36
374.92	217.31
375.30	217.27
375.68	217.20
376.06	217.15
376.44	217.09
376.82	217.07
377.19	217.04
377.57	216.97
377.95	216.85
378.33	216.76
378.71	216.61
379.09	216.59
379.47	216.59
379.84	216.51
380.22	216.44
380.60	216.38
380.98	216.34
381.36	216.27
381.73	216.22
382.11	216.24
382.49	216.21
382.87	216.12
383.25	216.06
383.62	216.27
384.00	216.20
384.38	216.16
384.76	216.16
385.13	216.18
385.51	216.16
385.89	216.12
386.27	216.09
386.64	216.08
387.02	216.05
387.40	215.94
387.78	215.96
388.15	215.96
388.53	215.91
388.91	215.88
389.29	215.86
389.66	215.88
390.04	215.83
390.42	215.86
390.79	215.85
391.17	215.87
391.55	215.60
391.92	215.57
392.30	215.58
392.68	215.52
393.05	215.48
393.43	215.48
393.81	215.48
394.18	215.48
394.56	215.50
394.94	215.54
395.31	215.56
395.69	215.62
396.06	215.66
396.44	215.71
396.82	215.69
397.19	215.81
397.57	215.79
397.95	215.86
398.32	215.83
398.70	215.92
399.07	215.99
399.45	216.04
399.82	216.14
400.20	216.15
400.58	216.23
400.95	216.23
401.33	216.32
401.70	216.54
402.08	216.65
402.45	216.72
402.83	216.82
403.20	216.96
403.58	217.01
403.95	217.17
404.33	217.30
404.71	217.46
405.08	217.71
405.46	217.90
405.83	218.06
406.21	218.25
406.58	218.47
406.96	218.69
407.33	218.94
407.70	219.22
408.08	219.69
408.45	220.01
408.83	220.39
409.20	220.74
409.58	220.99
409.95	221.44
410.33	221.91
410.70	222.34
411.08	222.87
411.45	223.47
411.82	224.01
412.20	224.67
412.57	225.51
412.95	226.06
413.32	226.84
413.69	227.69
414.07	228.59
414.44	229.54
414.82	230.54
415.19	231.70
415.56	232.86
415.94	233.99
416.31	235.40
416.68	236.73
417.06	238.30
417.43	239.81
417.81	241.49
418.18	243.19
418.55	245.09
418.93	247.05
419.30	249.12
419.67	251.31
420.04	253.53
420.42	255.80
420.79	258.54
421.16	261.27
421.54	264.10
421.91	267.03
422.28	270.07
422.66	273.31
423.03	276.49
423.40	279.76
423.77	283.32
424.15	286.85
424.52	290.63
424.89	294.70
425.26	298.71
425.64	302.54
426.01	306.75
426.38	311.13
426.75	315.59
427.13	320.23
427.50	325.06
427.87	330.15
428.24	335.25
428.61	340.19
428.99	345.63
429.36	351.50
429.73	357.19
430.10	362.93
430.47	368.85
430.85	374.99
431.22	381.57
431.59	388.55
431.96	395.22
432.33	402.53
432.70	409.64
433.08	417.92
433.45	425.78
433.82	433.66
434.19	442.31
434.56	450.86
434.93	458.96
435.30	466.99
435.68	475.96
436.05	484.73
436.42	493.36
436.79	501.19
437.16	509.73
437.53	518.84
437.90	527.79
438.27	536.53
438.64	545.52
439.01	553.82
439.38	561.15
439.75	568.31
440.13	576.53
440.50	584.27
440.87	590.60
441.24	597.11
441.61	604.24
441.98	609.55
442.35	615.66
442.72	621.84
443.09	627.84
443.46	631.44
443.83	633.86
444.20	635.96
444.57	639.15
444.94	640.52
445.31	641.89
445.68	643.23
446.05	643.84
446.42	643.04
446.79	642.10
447.16	641.09
447.53	640.31
447.90	637.08
448.27	633.89
448.64	629.29
449.01	625.99
449.37	620.24
449.74	614.65
450.11	607.87
450.48	600.67
450.85	593.32
451.22	586.96
451.59	581.02
451.96	575.42
452.33	567.71
452.70	560.78
453.07	552.53
453.43	544.08
453.80	535.96
454.17	528.22
454.54	520.85
454.91	512.83
455.28	505.06
455.65	497.81
456.02	490.44
456.38	484.26
456.75	476.57
457.12	470.14
457.49	463.80
457.86	457.79
458.23	452.51
458.59	446.79
458.96	440.98
459.33	435.77
459.70	430.52
460.07	426.38
460.43	421.64
460.80	417.19
461.17	413.32
461.54	409.24
461.91	405.30
462.27	401.32
462.64	397.99
463.01	394.30
463.38	390.70
463.74	387.06
464.11	383.94
464.48	381.22
464.85	378.21
465.21	375.83
465.58	373.29
465.95	370.22
466.32	367.69
466.68	365.14
467.05	362.69
467.42	360.14
467.78	357.50
468.15	355.05
468.52	353.24
468.88	350.83
469.25	348.66
469.62	346.90
469.98	344.94
470.35	343.18
470.72	341.58
471.08	339.84
471.45	338.39
471.82	336.87
472.18	335.27
472.55	334.09
472.92	332.78
473.28	331.61
473.65	330.49
474.02	329.36
474.38	328.53
474.75	327.75
475.11	327.01
475.48	326.49
475.85	326.00
476.21	325.49
476.58	325.16
476.94	324.97
477.31	324.74
477.67	324.60
478.04	324.49
478.41	324.38
478.77	324.59
479.14	324.63
479.50	324.81
479.87	325.09
480.23	325.41
480.60	325.64
480.96	325.93
481.33	326.58
481.69	327.21
482.06	327.73
482.42	328.23
482.79	328.86
483.15	329.67
483.52	330.61
483.88	331.50
484.25	332.43
484.61	333.42
484.98	334.47
485.34	335.74
485.71	337.09
486.07	338.58
486.44	339.87
486.80	341.44
487.17	343.12
487.53	344.95
487.90	346.81
488.26	348.89
488.62	351.02
488.99	353.08
489.35	355.20
489.72	357.58
490.08	360.13
490.44	362.70
490.81	365.37
491.17	368.11
491.54	371.06
491.90	374.12
492.26	377.39
492.63	380.81
492.99	384.30
493.36	387.99
493.72	391.91
494.08	395.93
494.45	400.12
494.81	404.50
495.17	408.98
495.54	413.71
495.90	418.49
496.26	423.48
496.63	428.70
496.99	434.13
497.35	439.70
497.72	445.52
498.08	451.48
498.44	457.62
498.80	464.07
499.17	470.55
499.53	477.25
499.89	484.15
500.26	491.08
500.62	498.16
500.98	505.53
501.34	512.98
501.71	520.72
502.07	528.57
502.43	536.53
502.79	544.62
503.16	553.00
503.52	561.59
503.88	570.30
504.24	579.19
504.60	588.21
504.97	597.44
505.33	606.67
505.69	616.43
506.05	626.26
506.41	636.08
506.78	646.21
507.14	656.37
507.50	666.82
507.86	677.52
508.22	688.25
508.59	698.92
508.95	709.93
509.31	721.16
509.67	732.52
510.03	743.99
510.39	755.74
510.75	767.61
511.12	779.54
511.48	791.61
511.84	803.92
512.20	816.23
512.56	828.87
512.92	841.64
513.28	854.28
513.64	867.02
514.00	879.76
514.37	892.62
514.73	905.79
515.09	918.68
515.45	931.54
515.81	944.64
516.17	957.98
516.53	971.25
516.89	984.29
517.25	997.39
517.61	1010.86
517.97	1024.23
518.33	1037.24
518.69	1050.61
519.05	1064.14
519.41	1077.57
519.77	1091.50
520.13	1104.69
520.49	1117.76
520.85	1131.09
521.21	1144.41
521.57	1158.05
521.93	1171.04
522.29	1184.63
522.65	1198.28
523.01	1211.87
523.37	1224.88
523.73	1238.13
524.09	1251.23
524.45	1264.52
524.81	1278.00
525.17	1291.18
525.53	1304.19
525.89	1317.45
526.25	1330.59
526.61	1343.49
526.97	1356.57
527.33	1369.26
527.68	1382.60
528.04	1395.98
528.40	1408.90
528.76	1422.07
529.12	1434.79
529.48	1447.88
529.84	1459.93
530.20	1472.46
530.56	1484.78
530.91	1497.91
531.27	1510.49
531.63	1522.95
531.99	1535.61
532.35	1547.61
532.71	1559.89
533.07	1572.72
533.42	1584.74
533.78	1596.58
534.14	1608.35
534.50	1619.43
534.86	1630.79
535.21	1641.46
535.57	1652.82
535.93	1663.93
536.29	1674.71
536.65	1686.07
537.00	1696.97
537.36	1708.22
537.72	1719.15
538.08	1730.35
538.44	1741.08
538.79	1752.05
539.15	1762.90
539.51	1773.54
539.87	1784.70
540.22	1795.30
540.58	1805.90
540.94	1816.65
541.29	1826.83
541.65	1836.42
542.01	1846.73
542.37	1856.63
542.72	1866.63
543.08	1876.25
543.44	1886.60
543.79	1895.79
544.15	1904.98
544.51	1914.86
544.87	1924.62
545.22	1933.61
545.58	1942.48
545.94	1951.23
546.29	1959.60
546.65	1967.82
547.01	1975.77
547.36	1983.23
547.72	1990.82
548.07	1998.26
548.43	2005.66
548.79	2013.34
549.14	2021.36
549.50	2029.66
549.86	2037.42
550.21	2044.76
550.57	2052.25
550.92	2058.95
551.28	2066.24
551.64	2073.45
551.99	2080.68
552.35	2087.72
552.70	2094.44
553.06	2100.86
553.41	2107.09
553.77	2113.58
554.13	2119.88
554.48	2126.84
554.84	2133.94
555.19	2140.46
555.55	2146.82
555.90	2153.30
556.26	2160.07
556.61	2166.09
556.97	2170.84
557.32	2176.60
557.68	2182.92
558.03	2188.59
558.39	2193.82
558.74	2200.01
559.10	2205.40
559.45	2211.01
559.81	2216.57
560.16	2222.09
560.52	2227.93
560.87	2234.25
561.23	2239.94
561.58	2246.50
561.94	2251.77
562.29	2256.57
562.64	2262.56
563.00	2268.22
563.35	2273.83
563.71	2279.58
564.06	2285.26
564.42	2291.29
564.77	2296.44
565.12	2301.75
565.48	2307.11
565.83	2312.63
566.19	2318.02
566.54	2323.50
566.89	2328.21
567.25	2332.84
567.60	2338.50
567.96	2343.78
568.31	2348.47
568.66	2353.02
569.02	2357.06
569.37	2360.97
569.72	2365.48
570.08	2369.20
570.43	2372.50
570.78	2375.60
571.14	2378.10
571.49	2381.27
571.84	2384.87
572.20	2387.78
572.55	2390.92
572.90	2393.18
573.26	2396.21
573.61	2398.94
573.96	2401.30
574.31	2403.45
574.67	2405.54
575.02	2406.53
575.37	2408.19
575.72	2408.98
576.08	2410.46
576.43	2410.63
576.78	2411.18
577.13	2412.81
577.49	2414.02
577.84	2415.17
578.19	2416.62
578.54	2417.46
578.90	2418.48
579.25	2418.61
579.60	2418.88
579.95	2418.25
580.30	2418.55
580.66	2418.02
581.01	2416.31
581.36	2414.12
581.71	2412.94
582.06	2411.84
582.42	2411.20
582.77	2409.14
583.12	2407.78
583.47	2406.54
583.82	2406.13
584.17	2405.03
584.53	2403.06
584.88	2401.12
585.23	2399.56
585.58	2397.59
585.93	2395.81
586.28	2393.86
586.63	2391.51
586.98	2389.53
587.34	2387.75
587.69	2385.40
588.04	2383.37
588.39	2382.33
588.74	2380.14
589.09	2377.50
589.44	2374.46
589.79	2372.15
590.14	2370.28
590.49	2367.63
590.84	2364.03
591.19	2361.16
591.54	2358.09
591.89	2354.27
592.25	2351.10
592.60	2346.96
592.95	2342.90
593.30	2338.86
593.65	2334.49
594.00	2330.20
594.35	2327.34
594.70	2322.79
595.05	2318.43
595.40	2313.21
595.75	2307.40
596.10	2303.74
596.45	2299.08
596.80	2294.74
597.15	2289.54
597.50	2283.71
597.85	2278.75
598.19	2273.61
598.54	2267.95
598.89	2262.89
599.24	2258.38
599.59	2252.40
599.94	2246.51
600.29	2240.65
600.64	2234.66
600.99	2227.89
601.34	2222.50
601.69	2215.38
602.04	2209.10
602.39	2202.62
602.74	2196.54
603.08	2191.13
603.43	2184.65
603.78	2177.72
604.13	2170.62
604.48	2163.28
604.83	2157.23
605.18	2151.07
605.53	2144.38
605.87	2137.33
606.22	2130.50
606.57	2122.65
606.92	2114.74
607.27	2107.80
607.62	2101.24
607.96	2094.34
608.31	2087.98
608.66	2080.25
609.01	2072.77
609.36	2065.74
609.70	2057.95
610.05	2050.23
610.40	2041.99
610.75	2033.73
611.10	2026.11
611.44	2017.30
611.79	2008.88
612.14	1998.76
612.49	1988.10
612.83	1978.50
613.18	1969.25
613.53	1959.97
613.88	1950.34
614.22	1941.68
614.57	1931.91
614.92	1921.21
615.27	1911.02
615.61	1900.89
615.96	1891.21
616.31	1881.55
616.65	1872.07
617.00	1862.30
617.35	1852.52
617.70	1842.61
618.04	1832.61
618.39	1822.39
618.74	1812.69
619.08	1802.94
619.43	1794.42
619.78	1786.11
620.12	1777.51
620.47	1767.87
620.82	1757.51
621.16	1747.79
621.51	1737.87
621.85	1728.02
622.20	1717.60
622.55	1707.00
622.89	1697.08
623.24	1687.46
623.59	1677.64
623.93	1667.49
624.28	1657.58
624.62	1647.48
624.97	1637.22
625.32	1627.26
625.66	1618.31
626.01	1609.42
626.35	1599.90
626.70	1589.73
627.04	1579.65
627.39	1569.50
627.73	1560.15
628.08	1551.10
628.43	1541.43
628.77	1532.08
629.12	1523.04
629.46	1515.26
629.81	1506.79
630.15	1497.17
630.50	1487.09
630.84	1476.50
631.19	1466.47
631.53	1457.25
631.88	1447.11
632.22	1437.07
632.57	1427.70
632.91	1417.62
633.26	1407.68
633.60	1398.19
633.95	1388.87
634.29	1379.37
634.64	1370.01
634.98	1360.04
635.32	1350.70
635.67	1342.15
636.01	1332.80
636.36	1323.18
636.70	1313.47
637.05	1304.07
637.39	1295.15
637.73	1286.58
638.08	1278.93
638.42	1270.77
638.77	1261.87
639.11	1253.55
639.45	1245.72
639.80	1237.15
640.14	1228.33
640.49	1219.47
640.83	1210.57
641.17	1202.35
641.52	1194.07
641.86	1185.44
642.20	1177.57
642.55	1168.87
642.89	1159.92
643.23	1151.35
643.58	1143.15
643.92	1134.14
644.26	1125.47
644.61	1116.95
644.95	1108.04
645.29	1098.92
645.64	1089.65
645.98	1081.16
646.32	1073.19
646.66	1064.65
647.01	1056.24
647.35	1048.07
647.69	1039.77
648.04	1031.51
648.38	1022.60
648.72	1013.76
649.06	1005.26
649.41	997.00
649.75	989.12
650.09	981.26
650.43	973.18
650.78	964.79
651.12	957.08
651.46	949.61
651.80	942.38
652.14	935.04
652.49	927.43
652.83	920.10
653.17	912.37
653.51	904.68
653.85	897.46
654.20	890.21
654.54	882.71
654.88	875.43
655.22	868.14
655.56	861.18
655.90	854.43
656.25	847.80
656.59	840.85
656.93	833.76
657.27	826.65
657.61	819.66
657.95	813.59
658.29	807.56
658.64	801.51
658.98	795.01
659.32	788.55
659.66	782.25
660.00	775.91
660.34	769.84
660.68	763.74
661.02	757.39
661.36	751.42
661.70	745.63
662.05	740.01
662.39	734.51
662.73	729.14
663.07	723.76
663.41	718.16
663.75	712.46
664.09	706.89
664.43	701.44
664.77	696.06
665.11	690.24
665.45	684.46
665.79	678.58
666.13	672.92
666.47	667.42
666.81	662.06
667.15	656.66
667.49	651.51
667.83	646.35
668.17	641.05
668.51	635.90
668.85	631.02
669.19	626.12
669.53	621.12
669.87	615.92
670.21	611.17
670.55	606.45
670.89	601.99
671.23	597.62
671.57	593.24
671.91	589.00
672.25	584.83
672.58	580.65
672.92	576.59
673.26	572.66
673.60	568.79
673.94	565.00
674.28	561.43
674.62	557.70
674.96	553.95
675.30	550.45
675.64	546.82
675.97	543.17
676.31	539.60
676.65	536.01
676.99	532.64
677.33	528.82
677.67	525.19
678.01	521.37
678.34	517.75
678.68	514.25
679.02	510.71
679.36	507.04
679.70	503.49
680.04	499.95
680.37	496.51
680.71	493.20
681.05	489.96
681.39	486.69
681.73	483.50
682.06	480.48
682.40	477.44
682.74	474.30
683.08	471.19
683.42	468.00
683.75	465.03
684.09	462.01
684.43	459.24
684.77	456.34
685.10	453.51
685.44	450.59
685.78	447.71
686.12	444.92
686.45	442.22
686.79	439.51
687.13	437.03
687.46	434.42
687.80	431.79
688.14	428.98
688.48	426.33
688.81	423.65
689.15	421.09
689.49	418.49
689.82	415.97
690.16	413.34
690.50	410.91
690.83	408.40
691.17	405.87
691.51	403.44
691.84	401.18
692.18	398.96
692.52	396.79
692.85	394.68
693.19	392.55
693.52	390.41
693.86	388.17
694.20	385.97
694.53	383.87
694.87	381.70
695.21	379.62
695.54	377.54
695.88	375.47
696.21	373.26
696.55	371.14
696.88	369.10
697.22	367.17
697.56	365.26
697.89	363.41
698.23	361.69
698.56	359.90
698.90	358.13
699.23	356.28
699.57	354.46
699.90	352.59
700.24	350.80
700.58	349.10
700.91	347.50
701.25	345.93
701.58	344.35
701.92	342.73
702.25	341.11
702.59	339.51
702.92	337.95
703.26	336.41
703.59	335.00
703.93	333.71
704.26	332.28
704.60	330.82
704.93	329.39
705.26	327.93
705.60	326.47
705.93	324.97
706.27	323.67
706.60	322.43
706.94	321.20
707.27	319.84
707.61	318.50
707.94	317.19
708.27	315.72
708.61	314.26
708.94	312.92
709.28	311.70
709.61	310.45
709.94	309.25
710.28	308.04
710.61	306.84
710.95	305.39
711.28	304.37
711.61	303.15
711.95	302.00
712.28	300.83
712.61	299.63
712.95	298.63
713.28	297.59
713.61	296.41
713.95	295.28
714.28	294.26
714.61	293.23
714.95	292.20
715.28	291.14
715.61	290.17
715.95	289.22
716.28	288.26
716.61	287.36
716.95	286.38
717.28	285.47
717.61	284.49
717.94	283.65
718.28	282.60
718.61	281.80
718.94	280.90
719.27	280.04
719.61	279.25
719.94	278.38
720.27	277.41
720.60	276.58
720.94	275.79
721.27	275.05
721.60	274.36
721.93	273.65
722.27	273.04
722.60	272.39
722.93	271.69
723.26	271.02
723.59	270.29
723.93	269.69
724.26	269.07
724.59	268.46
724.92	267.89
725.25	267.37
725.59	266.79
725.92	266.27
726.25	265.71
726.58	265.13
726.91	264.52
727.24	264.00
727.57	263.46
727.91	262.87
728.24	262.33
728.57	261.75
728.90	261.22
729.23	260.63
729.56	260.18
729.89	259.66
730.22	259.11
730.55	258.58
730.89	258.04
731.22	257.53
731.55	257.05
731.88	256.52
732.21	255.99
732.54	255.47
732.87	254.96
733.20	254.51
733.53	254.06
733.86	253.66
734.19	253.17
734.52	252.75
734.85	252.48
735.18	252.01
735.51	251.66
735.84	251.24
736.17	250.87
736.50	250.34
736.83	250.19
737.16	249.82
737.49	249.46
737.82	249.09
738.15	248.70
738.48	248.33
738.81	247.94
739.14	247.53
739.47	247.14
739.80	246.77
740.13	246.43
740.46	246.02
740.79	245.63
741.12	245.32
741.45	244.94
741.78	244.51
742.11	244.26
742.44	243.87
742.77	243.57
743.10	243.22
743.43	242.88
743.75	242.33
744.08	242.26
744.41	241.87
744.74	241.49
745.07	241.13
745.40	240.81
745.73	240.56
746.06	240.24
746.39	239.96
746.71	239.63
747.04	239.28
747.37	238.96
747.70	238.70
748.03	238.40
748.36	238.14
748.68	237.83
749.01	237.45
749.34	237.14
749.67	236.84
750.00	236.54
750.33	236.43
750.65	236.15
750.98	235.64
751.31	235.41
751.64	235.20
751.97	235.08
752.29	234.81
752.62	234.44
752.95	234.18
753.28	233.93
753.60	233.68
753.93	233.47
754.26	233.28
754.59	232.98
754.91	232.71
755.24	232.47
755.57	232.24
755.90	232.03
756.22	231.83
756.55	231.58
756.88	231.35
757.20	230.99
757.53	230.75
757.86	230.52
758.19	230.35
758.51	230.14
758.84	229.84
759.17	229.63
759.49	229.50
759.82	229.47
760.15	229.29
760.47	229.13
760.80	228.89
761.13	228.72
761.45	228.54
761.78	228.36
762.11	228.17
762.43	228.01
762.76	227.85
763.08	227.67
763.41	227.52
763.74	227.41
764.06	227.25
764.39	227.13
764.71	227.01
765.04	226.83
765.37	226.69
765.69	226.54
766.02	226.44
766.34	226.33
766.67	226.06
767.00	225.96
767.32	225.95
767.65	225.95
767.97	225.82
768.30	225.72
768.62	225.63
768.95	225.50
769.27	225.35
769.60	225.24
769.92	225.08
770.25	224.91
770.57	224.75
770.90	224.62
771.22	224.50
771.55	224.36
771.87	224.25
772.20	224.14
772.52	224.18
772.85	224.28
773.17	224.15
773.50	224.04
773.82	223.89
774.15	223.69
774.47	223.49
774.80	223.38
775.12	223.26
775.45	223.16
775.77	223.10
776.09	223.05
776.42	222.95
776.74	222.96
777.07	222.91
777.39	222.84
777.72	222.77
778.04	222.69
778.36	222.61
778.69	222.56
779.01	222.49
779.33	222.26
779.66	221.95
779.98	221.83
780.31	221.74
780.63	221.76
780.95	221.72
781.28	221.64
781.60	221.55
781.92	221.53
782.25	221.43
782.57	221.35
782.89	221.25
783.22	221.19
783.54	221.05
783.86	221.02
784.19	220.94
784.51	220.95
784.83	220.85
785.16	220.81
785.48	220.72
785.80	220.69
786.12	220.63
786.45	220.59
786.77	220.55
787.09	220.50
787.42	220.39
787.74	220.34
788.06	220.29
788.38	220.21
788.71	220.10
789.03	220.06
789.35	220.00
789.67	219.92
789.99	219.88
790.32	219.80
790.64	219.76
790.96	219.87
791.28	219.76
791.61	219.70
791.93	219.62
792.25	219.57
792.57	219.64
792.89	219.55
793.21	219.51
793.54	219.47
793.86	219.39
794.18	219.34
794.50	219.23
794.82	219.18
795.14	219.18
795.47	219.20
795.79	219.17
796.11	219.10
796.43	219.04
796.75	218.99
797.07	218.97
797.39	218.90
797.71	218.70
798.04	218.65
798.36	218.62
798.68	218.59
799.00	218.54
799.32	218.40
799.64	218.45
799.96	218.43
800.28	218.40
800.60	218.39
800.92	218.36
801.24	218.33
801.56	218.30
801.89	218.25
802.21	218.19
802.53	218.15
802.85	218.13
803.17	218.23
803.49	218.16
803.81	218.13
804.13	218.07
804.45	218.04
804.77	218.00
805.09	217.98
805.41	217.93
805.73	217.87
806.05	217.77
806.37	217.69
806.69	217.63
807.01	217.63
807.33	217.61
807.65	217.50
807.97	217.56
808.28	217.56
808.60	217.51
808.92	217.46
809.24	217.52
809.56	217.46
809.88	217.34
810.20	217.34
810.52	217.34
810.84	217.31
811.16	217.27
811.48	217.24
811.80	217.28
812.12	217.28
812.43	217.31
812.75	217.29
813.07	217.25
813.39	217.23
813.71	217.14
814.03	217.07
814.35	217.08
814.67	217.00
814.98	216.92
815.30	216.91
815.62	216.89
815.94	216.76
816.26	216.76
816.58	216.70
816.89	216.68
817.21	216.65
817.53	216.65
817.85	216.66
818.17	216.66
818.48	216.56
818.80	216.57
819.12	216.54
819.44	216.52
819.76	216.47
820.07	216.45
820.39	216.48
820.71	216.50
821.03	216.49
821.34	216.46
821.66	216.48
821.98	216.48
822.30	216.45
822.61	216.55
822.93	216.53
823.25	216.55
823.57	216.53
823.88	216.56
824.20	216.55
824.52	216.58
824.83	216.55
825.15	216.54
825.47	216.50
825.79	216.53
826.10	216.49
826.42	216.49
826.74	216.52
827.05	216.51
827.37	216.49
827.69	216.44
828.00	216.45
828.32	216.43
828.64	216.41
828.95	216.52
829.27	216.42
829.58	216.39
829.90	216.43
830.22	216.43
830.53	216.35
830.85	216.33
831.17	216.23
831.48	216.21
831.80	216.19
832.11	216.21
832.43	216.13
832.75	216.14
833.06	216.27
833.38	216.20
833.69	216.18
834.01	216.18
834.32	216.18
834.64	216.14
834.96	216.14
835.27	216.10
835.59	216.04
835.90	216.02
836.22	216.05
836.53	215.99
836.85	215.97
837.16	216.17
837.48	216.16
837.79	216.23
838.11	216.25
838.42	216.22
838.74	216.21
839.05	216.18
839.37	216.17
839.68	216.00
840.00	216.01
840.31	216.02
840.63	215.99
840.94	215.98
841.26	215.96
841.57	215.95
841.88	215.97
842.20	215.89
842.51	215.88
842.83	215.84
843.14	216.01
843.46	216.00
843.77	215.87
844.08	215.85
844.40	215.78
844.71	215.76
845.03	215.77
845.34	215.73
845.65	215.76
845.97	215.74
846.28	215.78
846.60	215.78
846.91	215.72
847.22	215.73
847.54	215.73
847.85	215.76
848.16	215.72
848.48	215.67
848.79	215.77
849.10	215.76
849.42	215.77
849.73	215.61
850.04	215.59
850.36	215.50
850.67	215.55
850.98	215.54
851.30	215.54
851.61	215.53
851.92	215.53
852.23	215.56
852.55	215.56
852.86	215.52
853.17	215.52
853.49	215.56
853.80	215.57
854.11	215.61
854.42	215.63
854.74	215.60
855.05	215.64
855.36	215.51
855.67	215.52
855.99	215.51
856.30	215.70
856.61	215.69
856.92	215.70
857.23	215.68
857.55	215.67
857.86	215.65
858.17	215.70
858.48	215.65
858.79	215.59
859.11	215.61
859.42	215.59
859.73	215.57
860.04	215.56
860.35	215.51
860.66	215.42
860.98	215.39
861.29	215.42
861.60	215.40
861.91	215.46
862.22	215.43
862.53	215.40
862.84	215.18
863.16	215.25
863.47	215.24
863.78	215.20
864.09	215.23
864.40	215.26
864.71	215.25
865.02	215.32
865.33	215.31
865.64	215.27
865.95	215.28
866.27	215.42
866.58	215.41
866.89	215.45
867.20	215.47
867.51	215.43
867.82	215.41
868.13	215.49
868.44	215.45
868.75	215.49
869.06	215.51
869.37	215.52
869.68	215.44
869.99	215.43
870.30	215.44
870.61	215.45
870.92	215.39
871.23	215.38
871.54	215.40
871.85	215.42
872.16	215.48
872.47	215.49
872.78	215.38
873.09	215.39
873.40	215.40
873.71	215.40
874.02	215.41
874.33	215.42
874.64	215.31
874.95	215.34
875.26	215.27
875.56	215.26
875.87	215.24
876.18	215.23
876.49	215.44
876.80	215.42
877.11	215.38
877.42	215.42
877.73	215.42
878.04	215.37
878.35	215.39
878.66	215.38
878.96	215.34
879.27	215.28
879.58	215.24
879.89	215.18
880.20	215.24
880.51	215.23
880.82	215.21
881.12	215.28
881.43	215.22
881.74	215.21
882.05	215.18
882.36	215.22
882.67	215.21
882.97	214.98
883.28	214.95
883.59	214.95
883.90	214.93
884.21	214.89
884.51	214.90
884.82	214.86
885.13	214.86
885.44	214.85
885.74	214.89
886.05	214.93
886.36	214.95
886.67	214.87
886.98	214.97
887.28	215.02
887.59	214.97
887.90	214.99
888.20	214.98
888.51	215.01
888.82	214.99
889.13	215.04
889.43	215.24
889.74	215.24
890.05	215.24
890.35	215.22
890.66	215.22
890.97	215.20
891.28	215.18
891.58	215.15
891.89	215.16
892.20	215.13
892.50	215.10
892.81	215.10
893.12	215.11
893.42	215.01
893.73	214.99
894.04	215.01
894.34	215.02
894.65	215.05
894.95	215.02
895.26	215.03
895.57	215.12
895.87	214.90
896.18	214.94
896.48	214.93
896.79	214.94
897.10	214.98
897.40	215.01
897.71	215.02
898.01	214.99
898.32	215.02
898.63	215.02
898.93	215.03
899.24	215.05
899.54	215.03
899.85	215.02
900.15	214.98
900.46	214.94
900.76	214.94
901.07	214.92
901.38	214.94
901.68	214.96
901.99	214.85
902.29	214.87
902.60	214.87
902.90	214.84
903.21	214.85
903.51	214.81
903.82	214.83
904.12	214.84
904.43	214.90
904.73	214.90
905.03	214.91
905.34	215.12
905.64	215.05
905.95	215.04
906.25	215.05
906.56	215.06
906.86	215.11
907.17	215.11
907.47	215.13
907.77	215.11
908.08	215.07
908.38	215.08
908.69	215.10
908.99	215.12
909.30	215.17
909.60	215.18
909.90	215.18
910.21	215.11
910.51	215.07
910.81	215.06
911.12	215.04
911.42	215.06
911.73	214.81
912.03	214.88
912.33	214.93
912.64	214.92
912.94	214.91
913.24	214.88
913.55	214.90
913.85	214.89
914.15	214.89
914.46	214.94
914.76	214.90
915.06	214.85
915.37	214.83
915.67	214.79
915.97	214.75
916.27	214.69
916.58	214.68
916.88	214.70
917.18	214.69
917.49	214.85
917.79	214.80
918.09	214.84
918.39	214.88
918.70	214.86
919.00	214.88
919.30	214.97
919.60	214.94
919.91	214.87
920.21	214.87
920.51	214.85
920.81	214.80
921.12	214.87
921.42	214.89
921.72	214.86
922.02	214.88
922.32	214.93
922.63	214.97
922.93	215.08
923.23	215.08
923.53	215.04
923.83	214.88
924.13	214.89
924.44	214.89
924.74	214.90
925.04	214.97
925.34	214.97
925.64	214.87
925.94	214.90
926.24	215.05
926.55	215.05
926.85	215.09
927.15	215.07
927.45	215.07
927.75	215.07
928.05	215.09
928.35	215.11
928.65	215.12
928.95	215.13
929.26	215.05
929.56	215.09
929.86	215.14
930.16	215.14
930.46	215.16
930.76	215.15
931.06	215.06
931.36	214.98
931.66	214.96
931.96	215.01
932.26	215.03
932.56	214.93
932.86	214.92
933.16	214.90
933.46	214.89
933.76	214.86
934.06	214.90
934.36	214.95
934.66	214.92
934.96	214.89
935.26	214.88
935.56	214.93
935.86	214.88
936.16	214.85
936.46	214.83
936.76	214.82
937.06	214.80
937.36	214.81
937.66	214.82
937.96	214.82
938.26	214.76
938.56	214.73
938.86	214.74
939.16	214.81
939.46	214.85
939.76	214.89
940.06	214.87
940.35	214.80
940.65	214.69
940.95	214.72
941.25	214.68
941.55	214.66
941.85	214.63
942.15	214.68
942.45	214.74
942.75	214.75
943.04	214.75
943.34	214.81
943.64	214.82
943.94	214.83
944.24	214.83
944.54	214.85
944.84	214.84
945.13	214.83
945.43	214.77
945.73	214.77
946.03	214.73
946.33	214.74
946.62	214.72
946.92	214.74
947.22	214.72
947.52	214.70
947.82	214.79
948.11	214.78
948.41	214.75
948.71	214.67
949.01	214.66
949.31	214.67
949.60	214.61
949.90	214.59
950.20	214.57
950.50	214.57
950.79	214.55
951.09	214.58
951.39	214.56
951.69	214.55
951.98	214.56
952.28	214.58
952.58	214.55
952.87	214.57
953.17	214.60
953.47	214.59
953.76	214.61
954.06	214.51
954.36	214.47
954.66	214.47
954.95	214.52
955.25	214.52
955.55	214.52
955.84	214.50
956.14	214.56
956.44	214.54
956.73	214.51
957.03	214.53
957.32	214.56
957.62	214.56
957.92	214.58
958.21	214.55
958.51	214.78
958.81	214.84
959.10	214.85
959.40	214.89
959.69	214.93
959.99	214.97
960.29	215.00
960.58	215.02
960.88	215.08
961.17	215.06
961.47	215.09
961.76	215.06
962.06	215.09
962.36	215.09
962.65	215.09
962.95	215.11
963.24	215.09
963.54	215.06
963.83	215.09
964.13	215.08
964.42	215.02
964.72	214.83
965.01	214.84
965.31	214.85
965.60	214.80
965.90	214.92
966.19	214.90
966.49	214.92
966.78	214.93
967.08	214.90
967.37	214.90
967.67	214.88
967.96	214.89
968.26	214.87
968.55	214.88
968.85	214.90
969.14	214.91
969.43	214.93
969.73	214.92
970.02	214.91
970.32	214.90
970.61	214.93
970.91	214.89
971.20	214.82
971.49	214.81
971.79	214.82
972.08	214.66
972.38	214.64
972.67	214.63
972.96	214.64
973.26	214.62
973.55	214.69
973.85	214.69
974.14	214.71
974.43	214.72
974.73	214.66
975.02	214.64
975.31	214.60
975.61	214.57
975.90	214.58
976.19	214.53
976.49	214.56
976.78	214.60
977.07	214.60
977.37	214.64
977.66	214.64
977.95	214.61
978.24	214.62
978.54	214.67
978.83	214.65
979.12	214.64
979.42	214.61
979.71	214.54
980.00	214.50
980.29	214.49
980.59	214.50
980.88	214.58
981.17	214.56
981.46	214.59
981.76	214.61
982.05	214.63
982.34	214.64
982.63	214.64
982.93	214.58
983.22	214.64
983.51	214.62
983.80	214.62
984.09	214.63
984.39	214.64
984.68	214.62
984.97	214.64
985.26	214.61
985.55	214.64
985.85	214.62
986.14	214.68
986.43	214.70
986.72	214.67
987.01	214.57
987.30	214.60
987.59	214.57
987.89	214.60
988.18	214.54
988.47	214.51
988.76	214.49
989.05	214.47
989.34	214.41
989.63	214.47
989.92	214.45
990.22	214.44
990.51	214.42
990.80	214.39
991.09	214.39
991.38	214.45
991.67	214.44
991.96	214.46
992.25	214.47
992.54	214.42
992.83	214.42
993.12	214.44
993.41	214.48
993.70	214.58
993.99	214.61
994.28	214.64
994.58	214.70
994.87	214.68
995.16	214.72
995.45	214.71
995.74	214.66
996.03	214.68
996.32	214.73
996.61	214.78
996.90	214.76
997.19	214.76
997.48	214.74
997.77	214.71
998.06	214.72
998.34	214.69
998.63	214.73
998.92	214.73
999.21	214.75
999.50	214.69
999.79	214.62
1000.08	214.57
1000.37	214.57
1000.66	214.54
1000.95	214.59
1001.24	214.60
1001.53	214.62
1001.82	214.58
1002.11	214.55
1002.40	214.55
1002.68	214.59
1002.97	214.74
1003.26	214.68
1003.55	214.68
1003.84	214.73
1004.13	214.78
1004.42	214.77
1004.71	214.78
1004.99	214.75
1005.28	214.80
1005.57	214.82
1005.86	214.79
1006.15	214.78
1006.44	214.77
1006.72	214.80
1007.01	214.79
1007.30	214.78
1007.59	214.76
1007.88	214.79
1008.17	214.83
1008.45	214.78
1008.74	214.71
1009.03	214.61
1009.32	214.63
1009.60	214.59
1009.89	214.56
1010.18	214.48
1010.47	214.48
1010.76	214.46
1011.04	214.46
1011.33	214.49
1011.62	214.51
1011.91	214.52
1012.19	214.54
1012.48	214.52
1012.77	214.50
1013.05	214.62
1013.34	214.59
1013.63	214.60
1013.92	214.62
1014.20	214.58
1014.49	214.59
1014.78	214.59
1015.06	214.51
1015.35	214.50
1015.64	214.52
1015.92	214.51
1016.21	214.49
1016.50	214.46
1016.78	214.50
1017.07	214.52
1017.36	214.46
1017.64	214.42
1017.93	214.43
1018.22	214.40
1018.50	214.38
1018.79	214.36
1019.08	214.20
1019.36	214.23
1019.65	214.19
1019.93	214.24
1020.22	214.28
1020.51	214.36
1020.79	214.35
1021.08	213.74
1021.36	213.65
1021.65	214.05
1021.94	214.13
1022.22	214.40
1022.51	214.01
1022.79	215.86
1023.08	214.96
1023.36	216.40
1023.65	213.96
>>>>>End Processed Spectral Data<<<<<
