SpectraSuite Data File
++++++++++++++++++++++++++++++++++++
Date: Tue Jan 29 16:22:40 EST 2013
User: group
Dark Spectrum Present: No
Reference Spectrum Present: No
Number of Sampled Component Spectra: 1
Spectrometers: USB2E7196
Integration Time (usec): 65000 (USB2E7196)
Spectra Averaged: 100 (USB2E7196)
Boxcar Smoothing: 10 (USB2E7196)
Correct for Electrical Dark: No (USB2E7196)
Strobe/Lamp Enabled: No (USB2E7196)
Correct for Detector Non-linearity: No (USB2E7196)
Correct for Stray Light: No (USB2E7196)
Number of Pixels in Processed Spectrum: 2048
>>>>>Begin Processed Spectral Data<<<<<
339.09	0.00
339.48	201.65
339.86	203.58
340.24	205.01
340.63	206.42
341.01	210.87
341.39	208.75
341.78	210.53
342.16	211.97
342.54	212.04
342.93	201.32
343.31	211.51
343.69	212.07
344.07	212.54
344.46	212.99
344.84	213.38
345.22	213.55
345.60	213.85
345.99	214.07
346.37	214.21
346.75	214.35
347.13	214.37
347.52	214.43
347.90	214.57
348.28	214.60
348.66	214.67
349.05	214.63
349.43	214.71
349.81	214.79
350.19	214.85
350.57	214.93
350.96	215.06
351.34	215.16
351.72	215.24
352.10	215.35
352.48	215.43
352.87	215.49
353.25	215.56
353.63	215.60
354.01	215.62
354.39	215.74
354.77	215.84
355.15	216.01
355.54	216.05
355.92	216.07
356.30	216.16
356.68	216.35
357.06	216.47
357.44	216.48
357.82	216.55
358.20	216.62
358.58	216.69
358.97	216.74
359.35	216.82
359.73	216.94
360.11	217.00
360.49	217.07
360.87	217.13
361.25	217.21
361.63	217.34
362.01	217.45
362.39	217.43
362.77	217.44
363.15	217.43
363.53	217.49
363.91	217.51
364.29	217.55
364.67	217.43
365.05	217.43
365.43	217.52
365.81	217.57
366.19	217.68
366.57	217.77
366.95	217.74
367.33	217.76
367.71	217.73
368.09	217.75
368.47	217.73
368.85	217.73
369.23	217.77
369.61	217.69
369.99	217.71
370.37	217.74
370.75	217.85
371.13	217.79
371.51	217.73
371.89	217.75
372.27	217.73
372.65	217.70
373.03	217.70
373.41	217.62
373.78	217.57
374.16	217.42
374.54	217.31
374.92	217.30
375.30	217.23
375.68	217.18
376.06	217.16
376.44	217.11
376.82	217.06
377.19	217.02
377.57	216.96
377.95	216.87
378.33	216.78
378.71	216.63
379.09	216.63
379.47	216.61
379.84	216.50
380.22	216.38
380.60	216.29
380.98	216.22
381.36	216.14
381.73	216.07
382.11	216.06
382.49	216.01
382.87	215.92
383.25	215.88
383.62	216.08
384.00	215.97
384.38	215.93
384.76	215.96
385.13	215.98
385.51	215.97
385.89	215.91
386.27	215.88
386.64	215.86
387.02	215.81
387.40	215.75
387.78	215.75
388.15	215.78
388.53	215.73
388.91	215.68
389.29	215.68
389.66	215.68
390.04	215.62
390.42	215.63
390.79	215.61
391.17	215.59
391.55	215.38
391.92	215.40
392.30	215.43
392.68	215.38
393.05	215.33
393.43	215.30
393.81	215.31
394.18	215.30
394.56	215.31
394.94	215.36
395.31	215.34
395.69	215.42
396.06	215.46
396.44	215.51
396.82	215.50
397.19	215.60
397.57	215.62
397.95	215.71
398.32	215.70
398.70	215.76
399.07	215.87
399.45	215.88
399.82	215.91
400.20	215.91
400.58	215.94
400.95	215.94
401.33	216.02
401.70	216.26
402.08	216.34
402.45	216.42
402.83	216.55
403.20	216.67
403.58	216.78
403.95	216.90
404.33	217.04
404.71	217.24
405.08	217.51
405.46	217.66
405.83	217.85
406.21	218.05
406.58	218.33
406.96	218.52
407.33	218.78
407.70	219.06
408.08	219.55
408.45	219.93
408.83	220.33
409.20	220.72
409.58	220.99
409.95	221.43
410.33	221.92
410.70	222.32
411.08	222.91
411.45	223.41
411.82	224.01
412.20	224.71
412.57	225.53
412.95	226.08
413.32	226.92
413.69	227.75
414.07	228.63
414.44	229.54
414.82	230.55
415.19	231.72
415.56	232.96
415.94	234.12
416.31	235.54
416.68	236.86
417.06	238.48
417.43	240.00
417.81	241.75
418.18	243.51
418.55	245.47
418.93	247.45
419.30	249.59
419.67	251.76
420.04	253.97
420.42	256.31
420.79	259.09
421.16	261.86
421.54	264.73
421.91	267.76
422.28	270.89
422.66	274.17
423.03	277.39
423.40	280.65
423.77	284.20
424.15	287.77
424.52	291.63
424.89	295.79
425.26	299.78
425.64	303.63
426.01	307.90
426.38	312.32
426.75	316.86
427.13	321.58
427.50	326.49
427.87	331.64
428.24	336.78
428.61	341.72
428.99	347.17
429.36	353.12
429.73	358.91
430.10	364.70
430.47	370.73
430.85	377.07
431.22	383.75
431.59	390.80
431.96	397.56
432.33	405.03
432.70	412.15
433.08	420.68
433.45	428.70
433.82	436.65
434.19	445.44
434.56	454.09
434.93	462.35
435.30	470.57
435.68	479.67
436.05	488.65
436.42	497.53
436.79	505.67
437.16	514.39
437.53	523.63
437.90	532.71
438.27	541.59
438.64	550.61
439.01	559.04
439.38	566.54
439.75	573.91
440.13	582.22
440.50	590.16
440.87	596.49
441.24	603.08
441.61	610.37
441.98	615.75
442.35	622.03
442.72	628.29
443.09	634.34
443.46	637.97
443.83	640.39
444.20	642.56
444.57	645.65
444.94	647.10
445.31	648.49
445.68	649.89
446.05	650.50
446.42	649.77
446.79	648.84
447.16	647.78
447.53	646.94
447.90	643.65
448.27	640.34
448.64	635.74
449.01	632.40
449.37	626.48
449.74	620.87
450.11	613.97
450.48	606.58
450.85	599.15
451.22	592.76
451.59	586.71
451.96	580.88
452.33	573.05
452.70	565.94
453.07	557.51
453.43	548.88
453.80	540.60
454.17	532.66
454.54	525.14
454.91	517.01
455.28	509.11
455.65	501.73
456.02	494.32
456.38	488.03
456.75	480.24
457.12	473.75
457.49	467.24
457.86	461.12
458.23	455.82
458.59	449.98
458.96	444.07
459.33	438.79
459.70	433.45
460.07	429.28
460.43	424.46
460.80	419.94
461.17	416.04
461.54	411.89
461.91	407.88
462.27	403.84
462.64	400.46
463.01	396.66
463.38	393.02
463.74	389.37
464.11	386.15
464.48	383.37
464.85	380.32
465.21	377.89
465.58	375.28
465.95	372.15
466.32	369.56
466.68	366.96
467.05	364.38
467.42	361.85
467.78	359.18
468.15	356.67
468.52	354.84
468.88	352.37
469.25	350.15
469.62	348.45
469.98	346.54
470.35	344.74
470.72	343.12
471.08	341.36
471.45	339.87
471.82	338.35
472.18	336.67
472.55	335.47
472.92	334.11
473.28	332.97
473.65	331.86
474.02	330.78
474.38	329.90
474.75	329.23
475.11	328.45
475.48	327.87
475.85	327.41
476.21	326.91
476.58	326.57
476.94	326.39
477.31	326.00
477.67	325.78
478.04	325.66
478.41	325.61
478.77	325.77
479.14	325.73
479.50	325.85
479.87	326.12
480.23	326.46
480.60	326.72
480.96	326.96
481.33	327.54
481.69	328.11
482.06	328.67
482.42	329.11
482.79	329.77
483.15	330.58
483.52	331.51
483.88	332.39
484.25	333.38
484.61	334.41
484.98	335.50
485.34	336.77
485.71	338.16
486.07	339.61
486.44	340.91
486.80	342.55
487.17	344.23
487.53	346.09
487.90	347.95
488.26	349.99
488.62	352.15
488.99	354.21
489.35	356.40
489.72	358.78
490.08	361.29
490.44	363.81
490.81	366.51
491.17	369.26
491.54	372.27
491.90	375.32
492.26	378.54
492.63	381.92
492.99	385.42
493.36	389.12
493.72	393.07
494.08	397.07
494.45	401.27
494.81	405.67
495.17	410.13
495.54	414.87
495.90	419.68
496.26	424.66
496.63	429.92
496.99	435.32
497.35	440.86
497.72	446.71
498.08	452.75
498.44	458.93
498.80	465.43
499.17	471.96
499.53	478.67
499.89	485.64
500.26	492.69
500.62	499.81
500.98	507.24
501.34	514.69
501.71	522.56
502.07	530.41
502.43	538.41
502.79	546.64
503.16	555.06
503.52	563.71
503.88	572.49
504.24	581.44
504.60	590.58
504.97	599.94
505.33	609.33
505.69	619.26
506.05	629.16
506.41	638.98
506.78	649.06
507.14	659.42
507.50	669.90
507.86	680.67
508.22	691.59
508.59	702.29
508.95	713.44
509.31	724.81
509.67	736.38
510.03	747.92
510.39	759.72
510.75	771.71
511.12	783.67
511.48	795.87
511.84	808.29
512.20	820.71
512.56	833.39
512.92	846.29
513.28	858.94
513.64	871.78
514.00	884.68
514.37	897.77
514.73	911.02
515.09	924.19
515.45	937.14
515.81	950.23
516.17	963.76
516.53	977.15
516.89	990.29
517.25	1003.58
517.61	1017.19
517.97	1030.68
518.33	1044.00
518.69	1057.74
519.05	1071.55
519.41	1085.32
519.77	1099.38
520.13	1112.75
520.49	1126.04
520.85	1139.53
521.21	1152.95
521.57	1166.81
521.93	1180.02
522.29	1193.79
522.65	1207.49
523.01	1221.32
523.37	1234.68
523.73	1248.15
524.09	1261.33
524.45	1274.89
524.81	1288.43
525.17	1301.93
525.53	1315.29
525.89	1328.50
526.25	1341.68
526.61	1354.63
526.97	1367.74
527.33	1380.78
527.68	1394.39
528.04	1407.90
528.40	1421.20
528.76	1434.78
529.12	1447.75
529.48	1461.11
529.84	1473.39
530.20	1486.19
530.56	1498.83
530.91	1512.16
531.27	1525.08
531.63	1538.06
531.99	1550.92
532.35	1563.31
532.71	1575.86
533.07	1588.77
533.42	1601.21
533.78	1613.40
534.14	1625.52
534.50	1636.92
534.86	1648.54
535.21	1659.42
535.57	1670.96
535.93	1682.26
536.29	1693.43
536.65	1704.94
537.00	1715.99
537.36	1727.52
537.72	1738.54
538.08	1750.05
538.44	1760.95
538.79	1772.04
539.15	1782.87
539.51	1793.63
539.87	1804.95
540.22	1815.76
540.58	1826.78
540.94	1837.71
541.29	1848.04
541.65	1857.92
542.01	1868.48
542.37	1878.53
542.72	1888.77
543.08	1898.58
543.44	1909.13
543.79	1918.36
544.15	1927.91
544.51	1937.95
544.87	1947.96
545.22	1957.25
545.58	1966.12
545.94	1975.16
546.29	1983.72
546.65	1992.18
547.01	2000.52
547.36	2008.30
547.72	2016.03
548.07	2023.60
548.43	2031.44
548.79	2039.35
549.14	2047.46
549.50	2055.83
549.86	2063.78
550.21	2071.30
550.57	2079.12
550.92	2085.87
551.28	2093.34
551.64	2100.50
551.99	2108.01
552.35	2115.24
552.70	2122.13
553.06	2128.76
553.41	2135.11
553.77	2141.69
554.13	2148.08
554.48	2155.04
554.84	2162.00
555.19	2168.61
555.55	2175.03
555.90	2181.32
556.26	2188.13
556.61	2194.37
556.97	2199.32
557.32	2205.16
557.68	2211.61
558.03	2217.46
558.39	2222.89
558.74	2228.99
559.10	2234.66
559.45	2240.26
559.81	2245.75
560.16	2251.43
560.52	2257.40
560.87	2263.89
561.23	2269.90
561.58	2276.57
561.94	2281.87
562.29	2286.84
562.64	2293.03
563.00	2298.83
563.35	2304.36
563.71	2310.28
564.06	2315.86
564.42	2321.92
564.77	2327.07
565.12	2332.45
565.48	2337.68
565.83	2343.28
566.19	2348.71
566.54	2354.22
566.89	2358.99
567.25	2363.61
567.60	2369.41
567.96	2374.76
568.31	2379.31
568.66	2383.56
569.02	2387.55
569.37	2391.49
569.72	2395.93
570.08	2399.49
570.43	2402.75
570.78	2406.03
571.14	2408.63
571.49	2412.05
571.84	2415.66
572.20	2418.61
572.55	2421.66
572.90	2423.99
573.26	2426.98
573.61	2429.73
573.96	2431.92
574.31	2433.85
574.67	2435.89
575.02	2436.77
575.37	2438.25
575.72	2439.07
576.08	2440.68
576.43	2441.07
576.78	2441.65
577.13	2443.09
577.49	2444.30
577.84	2445.45
578.19	2446.80
578.54	2447.50
578.90	2448.28
579.25	2448.17
579.60	2448.31
579.95	2447.54
580.30	2447.67
580.66	2447.00
581.01	2445.38
581.36	2443.24
581.71	2442.05
582.06	2440.96
582.42	2440.21
582.77	2437.96
583.12	2436.40
583.47	2435.06
583.82	2434.38
584.17	2433.22
584.53	2431.39
584.88	2429.44
585.23	2427.53
585.58	2425.40
585.93	2423.36
586.28	2421.23
586.63	2418.86
586.98	2416.64
587.34	2414.71
587.69	2412.32
588.04	2410.32
588.39	2408.87
588.74	2406.38
589.09	2403.62
589.44	2400.56
589.79	2397.96
590.14	2396.07
590.49	2393.36
590.84	2389.49
591.19	2386.68
591.54	2383.44
591.89	2379.57
592.25	2376.17
592.60	2371.95
592.95	2367.88
593.30	2363.74
593.65	2359.27
594.00	2354.84
594.35	2351.85
594.70	2347.31
595.05	2342.76
595.40	2337.24
595.75	2331.54
596.10	2327.91
596.45	2323.16
596.80	2318.57
597.15	2313.32
597.50	2307.36
597.85	2302.43
598.19	2297.22
598.54	2291.28
598.89	2286.05
599.24	2281.42
599.59	2275.27
599.94	2269.53
600.29	2263.54
600.64	2257.54
600.99	2250.72
601.34	2245.21
601.69	2238.14
602.04	2231.83
602.39	2225.11
602.74	2219.11
603.08	2213.54
603.43	2206.93
603.78	2200.03
604.13	2192.95
604.48	2185.80
604.83	2179.76
605.18	2173.44
605.53	2166.55
605.87	2159.39
606.22	2152.59
606.57	2144.51
606.92	2136.65
607.27	2129.64
607.62	2122.90
607.96	2115.86
608.31	2109.48
608.66	2101.84
609.01	2094.22
609.36	2086.91
609.70	2079.21
610.05	2071.26
610.40	2062.87
610.75	2054.52
611.10	2046.82
611.44	2037.83
611.79	2029.02
612.14	2018.82
612.49	2008.07
612.83	1998.57
613.18	1989.22
613.53	1979.73
613.88	1970.15
614.22	1961.41
614.57	1951.36
614.92	1940.74
615.27	1930.58
615.61	1920.27
615.96	1910.42
616.31	1900.68
616.65	1891.18
617.00	1881.32
617.35	1871.59
617.70	1861.85
618.04	1851.69
618.39	1841.38
618.74	1831.62
619.08	1821.84
619.43	1813.20
619.78	1804.80
620.12	1796.10
620.47	1786.51
620.82	1776.13
621.16	1766.27
621.51	1756.21
621.85	1746.31
622.20	1735.86
622.55	1725.08
622.89	1715.07
623.24	1705.31
623.59	1695.42
623.93	1685.20
624.28	1675.35
624.62	1665.16
624.97	1654.74
625.32	1644.91
625.66	1635.94
626.01	1627.16
626.35	1617.68
626.70	1607.28
627.04	1597.18
627.39	1586.97
627.73	1577.61
628.08	1568.52
628.43	1558.72
628.77	1549.45
629.12	1540.46
629.46	1532.50
629.81	1524.01
630.15	1514.34
630.50	1504.33
630.84	1493.79
631.19	1483.72
631.53	1474.26
631.88	1463.96
632.22	1453.81
632.57	1444.32
632.91	1433.98
633.26	1423.83
633.60	1414.17
633.95	1404.95
634.29	1395.30
634.64	1385.87
634.98	1375.68
635.32	1366.27
635.67	1357.78
636.01	1348.35
636.36	1338.51
636.70	1328.82
637.05	1319.34
637.39	1310.34
637.73	1301.64
638.08	1293.99
638.42	1285.73
638.77	1276.89
639.11	1268.49
639.45	1260.61
639.80	1251.86
640.14	1243.10
640.49	1234.17
640.83	1225.19
641.17	1216.86
641.52	1208.69
641.86	1200.05
642.20	1192.13
642.55	1183.40
642.89	1174.37
643.23	1165.60
643.58	1157.39
643.92	1148.27
644.26	1139.48
644.61	1130.92
644.95	1121.96
645.29	1112.58
645.64	1103.30
645.98	1094.69
646.32	1086.74
646.66	1078.02
647.01	1069.63
647.35	1061.36
647.69	1052.92
648.04	1044.55
648.38	1035.59
648.72	1026.60
649.06	1018.01
649.41	1009.70
649.75	1001.50
650.09	993.61
650.43	985.46
650.78	977.01
651.12	969.22
651.46	961.77
651.80	954.41
652.14	946.99
652.49	939.39
652.83	931.93
653.17	924.12
653.51	916.40
653.85	909.03
654.20	901.68
654.54	894.06
654.88	886.73
655.22	879.41
655.56	872.27
655.90	865.40
656.25	858.62
656.59	851.53
656.93	844.57
657.27	837.33
657.61	830.27
657.95	824.10
658.29	817.99
658.64	811.70
658.98	805.12
659.32	798.52
659.66	792.11
660.00	785.71
660.34	779.58
660.68	773.31
661.02	767.03
661.36	761.03
661.70	755.21
662.05	749.54
662.39	743.97
662.73	738.57
663.07	733.05
663.41	727.31
663.75	721.65
664.09	715.75
664.43	710.15
664.77	704.79
665.11	698.90
665.45	692.99
665.79	687.13
666.13	681.42
666.47	675.86
666.81	670.38
667.15	664.93
667.49	659.63
667.83	654.31
668.17	648.91
668.51	643.66
668.85	638.64
669.19	633.63
669.53	628.59
669.87	623.42
670.21	618.66
670.55	613.96
670.89	609.41
671.23	605.14
671.57	600.71
671.91	596.32
672.25	592.16
672.58	587.98
672.92	583.85
673.26	579.81
673.60	575.84
673.94	572.00
674.28	568.37
674.62	564.58
674.96	560.83
675.30	557.34
675.64	553.70
675.97	550.13
676.31	546.45
676.65	542.86
676.99	539.41
677.33	535.48
677.67	531.74
678.01	527.83
678.34	524.13
678.68	520.58
679.02	516.92
679.36	513.14
679.70	509.43
680.04	505.84
680.37	502.35
680.71	499.05
681.05	495.88
681.39	492.58
681.73	489.37
682.06	486.25
682.40	483.04
682.74	479.82
683.08	476.53
683.42	473.29
683.75	470.18
684.09	467.07
684.43	464.23
684.77	461.23
685.10	458.34
685.44	455.38
685.78	452.40
686.12	449.66
686.45	446.86
686.79	444.17
687.13	441.62
687.46	439.01
687.80	436.19
688.14	433.28
688.48	430.61
688.81	427.89
689.15	425.29
689.49	422.65
689.82	420.02
690.16	417.35
690.50	414.88
690.83	412.38
691.17	409.77
691.51	407.26
691.84	405.02
692.18	402.77
692.52	400.54
692.85	398.41
693.19	396.22
693.52	394.06
693.86	391.83
694.20	389.61
694.53	387.42
694.87	385.28
695.21	383.10
695.54	380.90
695.88	378.71
696.21	376.52
696.55	374.38
696.88	372.32
697.22	370.37
697.56	368.50
697.89	366.60
698.23	364.88
698.56	363.07
698.90	361.31
699.23	359.38
699.57	357.47
699.90	355.56
700.24	353.70
700.58	351.89
700.91	350.19
701.25	348.59
701.58	346.97
701.92	345.35
702.25	343.76
702.59	342.14
702.92	340.61
703.26	339.02
703.59	337.53
703.93	336.28
704.26	334.85
704.60	333.33
704.93	331.79
705.26	330.28
705.60	328.80
705.93	327.26
706.27	325.91
706.60	324.68
706.94	323.46
707.27	322.06
707.61	320.72
707.94	319.38
708.27	317.90
708.61	316.43
708.94	315.07
709.28	313.77
709.61	312.50
709.94	311.27
710.28	310.06
710.61	308.90
710.95	307.41
711.28	306.33
711.61	305.05
711.95	303.92
712.28	302.75
712.61	301.61
712.95	300.53
713.28	299.52
713.61	298.33
713.95	297.15
714.28	296.17
714.61	295.12
714.95	294.11
715.28	293.03
715.61	292.00
715.95	291.02
716.28	290.03
716.61	289.04
716.95	288.04
717.28	287.11
717.61	286.07
717.94	285.17
718.28	284.13
718.61	283.32
718.94	282.39
719.27	281.50
719.61	280.64
719.94	279.75
720.27	278.78
720.60	277.95
720.94	277.15
721.27	276.38
721.60	275.69
721.93	274.95
722.27	274.32
722.60	273.67
722.93	272.93
723.26	272.25
723.59	271.57
723.93	270.89
724.26	270.24
724.59	269.58
724.92	268.99
725.25	268.46
725.59	267.82
725.92	267.32
726.25	266.75
726.58	266.18
726.91	265.56
727.24	265.01
727.57	264.42
727.91	263.79
728.24	263.23
728.57	262.60
728.90	262.03
729.23	261.42
729.56	260.96
729.89	260.42
730.22	259.86
730.55	259.31
730.89	258.81
731.22	258.27
731.55	257.76
731.88	257.21
732.21	256.65
732.54	256.12
732.87	255.56
733.20	255.08
733.53	254.62
733.86	254.19
734.19	253.71
734.52	253.28
734.85	253.02
735.18	252.52
735.51	252.13
735.84	251.71
736.17	251.31
736.50	250.80
736.83	250.66
737.16	250.25
737.49	249.82
737.82	249.42
738.15	249.05
738.48	248.66
738.81	248.27
739.14	247.83
739.47	247.44
739.80	247.06
740.13	246.73
740.46	246.29
740.79	245.89
741.12	245.50
741.45	245.11
741.78	244.63
742.11	244.36
742.44	244.03
742.77	243.73
743.10	243.35
743.43	243.00
743.75	242.42
744.08	242.37
744.41	242.04
744.74	241.67
745.07	241.29
745.40	241.04
745.73	240.79
746.06	240.46
746.39	240.16
746.71	239.82
747.04	239.45
747.37	239.14
747.70	238.87
748.03	238.60
748.36	238.36
748.68	238.07
749.01	237.70
749.34	237.38
749.67	237.09
750.00	236.82
750.33	236.66
750.65	236.43
750.98	235.93
751.31	235.70
751.64	235.48
751.97	235.34
752.29	235.04
752.62	234.68
752.95	234.41
753.28	234.17
753.60	233.92
753.93	233.74
754.26	233.55
754.59	233.27
754.91	233.01
755.24	232.74
755.57	232.50
755.90	232.29
756.22	232.05
756.55	231.77
756.88	231.54
757.20	231.20
757.53	230.91
757.86	230.68
758.19	230.47
758.51	230.25
758.84	229.92
759.17	229.71
759.49	229.58
759.82	229.53
760.15	229.34
760.47	229.17
760.80	228.90
761.13	228.71
761.45	228.54
761.78	228.36
762.11	228.18
762.43	227.98
762.76	227.81
763.08	227.69
763.41	227.55
763.74	227.40
764.06	227.23
764.39	227.09
764.71	226.93
765.04	226.75
765.37	226.62
765.69	226.49
766.02	226.36
766.34	226.19
766.67	225.96
767.00	225.84
767.32	225.85
767.65	225.84
767.97	225.71
768.30	225.60
768.62	225.49
768.95	225.32
769.27	225.24
769.60	225.14
769.92	224.96
770.25	224.80
770.57	224.67
770.90	224.56
771.22	224.41
771.55	224.29
771.87	224.22
772.20	224.07
772.52	224.12
772.85	224.24
773.17	224.16
773.50	224.06
773.82	223.94
774.15	223.71
774.47	223.50
774.80	223.37
775.12	223.25
775.45	223.15
775.77	223.07
776.09	222.97
776.42	222.87
776.74	222.86
777.07	222.76
777.39	222.67
777.72	222.61
778.04	222.55
778.36	222.47
778.69	222.35
779.01	222.31
779.33	222.09
779.66	221.81
779.98	221.71
780.31	221.64
780.63	221.62
780.95	221.58
781.28	221.50
781.60	221.42
781.92	221.32
782.25	221.27
782.57	221.20
782.89	221.13
783.22	221.04
783.54	220.94
783.86	220.88
784.19	220.81
784.51	220.84
784.83	220.77
785.16	220.67
785.48	220.63
785.80	220.57
786.12	220.52
786.45	220.45
786.77	220.35
787.09	220.28
787.42	220.18
787.74	220.13
788.06	220.11
788.38	220.04
788.71	219.99
789.03	219.94
789.35	219.92
789.67	219.84
789.99	219.80
790.32	219.71
790.64	219.67
790.96	219.78
791.28	219.60
791.61	219.52
791.93	219.50
792.25	219.46
792.57	219.51
792.89	219.40
793.21	219.34
793.54	219.30
793.86	219.23
794.18	219.22
794.50	219.13
794.82	219.08
795.14	219.06
795.47	219.05
795.79	219.02
796.11	218.94
796.43	218.93
796.75	218.89
797.07	218.87
797.39	218.81
797.71	218.62
798.04	218.60
798.36	218.59
798.68	218.55
799.00	218.54
799.32	218.43
799.64	218.44
799.96	218.43
800.28	218.45
800.60	218.42
800.92	218.38
801.24	218.33
801.56	218.30
801.89	218.27
802.21	218.24
802.53	218.20
802.85	218.19
803.17	218.22
803.49	218.15
803.81	218.09
804.13	218.09
804.45	218.03
804.77	218.05
805.09	218.03
805.41	218.01
805.73	217.93
806.05	217.84
806.37	217.79
806.69	217.72
807.01	217.65
807.33	217.61
807.65	217.51
807.97	217.55
808.28	217.50
808.60	217.46
808.92	217.39
809.24	217.46
809.56	217.41
809.88	217.34
810.20	217.30
810.52	217.31
810.84	217.25
811.16	217.19
811.48	217.12
811.80	217.17
812.12	217.14
812.43	217.16
812.75	217.18
813.07	217.14
813.39	217.12
813.71	217.05
814.03	217.01
814.35	216.98
814.67	216.90
814.98	216.88
815.30	216.84
815.62	216.78
815.94	216.61
816.26	216.62
816.58	216.53
816.89	216.52
817.21	216.45
817.53	216.46
817.85	216.47
818.17	216.45
818.48	216.33
818.80	216.33
819.12	216.27
819.44	216.20
819.76	216.16
820.07	216.14
820.39	216.15
820.71	216.19
821.03	216.21
821.34	216.18
821.66	216.19
821.98	216.19
822.30	216.19
822.61	216.30
822.93	216.23
823.25	216.25
823.57	216.26
823.88	216.30
824.20	216.30
824.52	216.30
824.83	216.27
825.15	216.25
825.47	216.22
825.79	216.24
826.10	216.23
826.42	216.20
826.74	216.22
827.05	216.20
827.37	216.17
827.69	216.14
828.00	216.14
828.32	216.09
828.64	216.08
828.95	216.22
829.27	216.13
829.58	216.17
829.90	216.18
830.22	216.15
830.53	216.07
830.85	216.01
831.17	215.94
831.48	215.91
831.80	215.94
832.11	215.91
832.43	215.84
832.75	215.83
833.06	215.96
833.38	215.89
833.69	215.89
834.01	215.89
834.32	215.84
834.64	215.81
834.96	215.85
835.27	215.80
835.59	215.74
835.90	215.71
836.22	215.68
836.53	215.63
836.85	215.65
837.16	215.87
837.48	215.85
837.79	215.90
838.11	215.94
838.42	215.90
838.74	215.93
839.05	215.92
839.37	215.89
839.68	215.73
840.00	215.72
840.31	215.72
840.63	215.68
840.94	215.67
841.26	215.63
841.57	215.56
841.88	215.59
842.20	215.52
842.51	215.48
842.83	215.48
843.14	215.63
843.46	215.58
843.77	215.43
844.08	215.42
844.40	215.40
844.71	215.37
845.03	215.34
845.34	215.29
845.65	215.27
845.97	215.29
846.28	215.32
846.60	215.30
846.91	215.30
847.22	215.30
847.54	215.34
847.85	215.38
848.16	215.37
848.48	215.31
848.79	215.38
849.10	215.41
849.42	215.41
849.73	215.23
850.04	215.23
850.36	215.15
850.67	215.18
850.98	215.17
851.30	215.16
851.61	215.18
851.92	215.20
852.23	215.30
852.55	215.29
852.86	215.28
853.17	215.30
853.49	215.33
853.80	215.36
854.11	215.36
854.42	215.38
854.74	215.36
855.05	215.37
855.36	215.28
855.67	215.26
855.99	215.26
856.30	215.49
856.61	215.46
856.92	215.47
857.23	215.48
857.55	215.44
857.86	215.41
858.17	215.43
858.48	215.38
858.79	215.31
859.11	215.33
859.42	215.33
859.73	215.32
860.04	215.30
860.35	215.26
860.66	215.23
860.98	215.22
861.29	215.26
861.60	215.24
861.91	215.26
862.22	215.25
862.53	215.22
862.84	214.99
863.16	215.05
863.47	215.01
863.78	214.97
864.09	214.98
864.40	215.04
864.71	215.02
865.02	215.04
865.33	215.05
865.64	215.01
865.95	215.01
866.27	215.13
866.58	215.11
866.89	215.12
867.20	215.11
867.51	215.07
867.82	215.06
868.13	215.15
868.44	215.15
868.75	215.17
869.06	215.15
869.37	215.17
869.68	215.12
869.99	215.13
870.30	215.15
870.61	215.17
870.92	215.12
871.23	215.13
871.54	215.15
871.85	215.16
872.16	215.17
872.47	215.15
872.78	215.02
873.09	215.03
873.40	215.04
873.71	215.02
874.02	215.01
874.33	214.97
874.64	214.90
874.95	214.94
875.26	214.90
875.56	214.90
875.87	214.89
876.18	214.87
876.49	215.07
876.80	215.06
877.11	215.02
877.42	214.99
877.73	214.97
878.04	214.92
878.35	214.94
878.66	214.94
878.96	214.94
879.27	214.91
879.58	214.87
879.89	214.85
880.20	214.91
880.51	214.88
880.82	214.89
881.12	214.91
881.43	214.83
881.74	214.80
882.05	214.81
882.36	214.81
882.67	214.83
882.97	214.61
883.28	214.63
883.59	214.67
883.90	214.73
884.21	214.77
884.51	214.77
884.82	214.72
885.13	214.71
885.44	214.71
885.74	214.75
886.05	214.76
886.36	214.74
886.67	214.67
886.98	214.79
887.28	214.82
887.59	214.79
887.90	214.81
888.20	214.80
888.51	214.82
888.82	214.79
889.13	214.79
889.43	214.97
889.74	214.93
890.05	214.88
890.35	214.86
890.66	214.82
890.97	214.79
891.28	214.80
891.58	214.81
891.89	214.85
892.20	214.80
892.50	214.78
892.81	214.77
893.12	214.78
893.42	214.67
893.73	214.65
894.04	214.66
894.34	214.65
894.65	214.65
894.95	214.63
895.26	214.66
895.57	214.74
895.87	214.52
896.18	214.55
896.48	214.55
896.79	214.53
897.10	214.57
897.40	214.59
897.71	214.58
898.01	214.53
898.32	214.51
898.63	214.49
898.93	214.51
899.24	214.56
899.54	214.54
899.85	214.53
900.15	214.54
900.46	214.54
900.76	214.57
901.07	214.59
901.38	214.58
901.68	214.61
901.99	214.51
902.29	214.56
902.60	214.57
902.90	214.58
903.21	214.60
903.51	214.53
903.82	214.59
904.12	214.60
904.43	214.63
904.73	214.61
905.03	214.66
905.34	214.86
905.64	214.81
905.95	214.84
906.25	214.88
906.56	214.89
906.86	214.90
907.17	214.88
907.47	214.84
907.77	214.85
908.08	214.79
908.38	214.81
908.69	214.82
908.99	214.85
909.30	214.87
909.60	214.85
909.90	214.90
910.21	214.84
910.51	214.81
910.81	214.82
911.12	214.83
911.42	214.82
911.73	214.64
912.03	214.66
912.33	214.69
912.64	214.67
912.94	214.64
913.24	214.59
913.55	214.59
913.85	214.62
914.15	214.68
914.46	214.72
914.76	214.72
915.06	214.69
915.37	214.66
915.67	214.61
915.97	214.65
916.27	214.61
916.58	214.64
916.88	214.67
917.18	214.65
917.49	214.80
917.79	214.80
918.09	214.81
918.39	214.83
918.70	214.83
919.00	214.81
919.30	214.92
919.60	214.92
919.91	214.88
920.21	214.89
920.51	214.83
920.81	214.80
921.12	214.80
921.42	214.81
921.72	214.82
922.02	214.86
922.32	214.86
922.63	214.86
922.93	214.91
923.23	214.91
923.53	214.91
923.83	214.79
924.13	214.83
924.44	214.84
924.74	214.92
925.04	214.96
925.34	214.97
925.64	214.87
925.94	214.88
926.24	214.98
926.55	214.94
926.85	214.96
927.15	214.98
927.45	214.96
927.75	214.93
928.05	214.89
928.35	214.87
928.65	214.90
928.95	214.92
929.26	214.85
929.56	214.90
929.86	214.91
930.16	214.84
930.46	214.81
930.76	214.77
931.06	214.64
931.36	214.60
931.66	214.64
931.96	214.68
932.26	214.68
932.56	214.60
932.86	214.65
933.16	214.67
933.46	214.65
933.76	214.66
934.06	214.74
934.36	214.83
934.66	214.80
934.96	214.76
935.26	214.77
935.56	214.80
935.86	214.73
936.16	214.72
936.46	214.69
936.76	214.68
937.06	214.66
937.36	214.65
937.66	214.63
937.96	214.62
938.26	214.58
938.56	214.58
938.86	214.59
939.16	214.59
939.46	214.59
939.76	214.58
940.06	214.55
940.35	214.47
940.65	214.35
940.95	214.40
941.25	214.36
941.55	214.30
941.85	214.28
942.15	214.30
942.45	214.34
942.75	214.37
943.04	214.37
943.34	214.43
943.64	214.41
943.94	214.41
944.24	214.38
944.54	214.36
944.84	214.35
945.13	214.33
945.43	214.31
945.73	214.30
946.03	214.29
946.33	214.27
946.62	214.29
946.92	214.29
947.22	214.30
947.52	214.32
947.82	214.34
948.11	214.35
948.41	214.32
948.71	214.27
949.01	214.29
949.31	214.28
949.60	214.25
949.90	214.29
950.20	214.28
950.50	214.33
950.79	214.30
951.09	214.36
951.39	214.35
951.69	214.30
951.98	214.36
952.28	214.39
952.58	214.41
952.87	214.41
953.17	214.45
953.47	214.45
953.76	214.45
954.06	214.43
954.36	214.39
954.66	214.39
954.95	214.43
955.25	214.46
955.55	214.46
955.84	214.42
956.14	214.45
956.44	214.46
956.73	214.39
957.03	214.43
957.32	214.38
957.62	214.40
957.92	214.48
958.21	214.43
958.51	214.68
958.81	214.69
959.10	214.72
959.40	214.77
959.69	214.75
959.99	214.78
960.29	214.81
960.58	214.83
960.88	214.93
961.17	214.90
961.47	214.91
961.76	214.91
962.06	214.94
962.36	214.90
962.65	214.91
962.95	214.93
963.24	214.90
963.54	214.93
963.83	214.94
964.13	214.90
964.42	214.87
964.72	214.69
965.01	214.71
965.31	214.69
965.60	214.64
965.90	214.74
966.19	214.70
966.49	214.68
966.78	214.66
967.08	214.61
967.37	214.63
967.67	214.57
967.96	214.62
968.26	214.60
968.55	214.65
968.85	214.62
969.14	214.61
969.43	214.63
969.73	214.63
970.02	214.63
970.32	214.62
970.61	214.60
970.91	214.54
971.20	214.51
971.49	214.46
971.79	214.49
972.08	214.37
972.38	214.39
972.67	214.36
972.96	214.37
973.26	214.32
973.55	214.37
973.85	214.37
974.14	214.32
974.43	214.36
974.73	214.31
975.02	214.33
975.31	214.32
975.61	214.34
975.90	214.30
976.19	214.26
976.49	214.30
976.78	214.29
977.07	214.30
977.37	214.33
977.66	214.36
977.95	214.30
978.24	214.32
978.54	214.35
978.83	214.35
979.12	214.35
979.42	214.37
979.71	214.31
980.00	214.34
980.29	214.35
980.59	214.30
980.88	214.36
981.17	214.31
981.46	214.35
981.76	214.32
982.05	214.41
982.34	214.44
982.63	214.44
982.93	214.46
983.22	214.53
983.51	214.53
983.80	214.58
984.09	214.62
984.39	214.59
984.68	214.58
984.97	214.61
985.26	214.60
985.55	214.61
985.85	214.59
986.14	214.62
986.43	214.64
986.72	214.61
987.01	214.55
987.30	214.55
987.59	214.52
987.89	214.52
988.18	214.47
988.47	214.43
988.76	214.38
989.05	214.36
989.34	214.28
989.63	214.29
989.92	214.28
990.22	214.25
990.51	214.25
990.80	214.22
991.09	214.25
991.38	214.29
991.67	214.26
991.96	214.26
992.25	214.27
992.54	214.21
992.83	214.27
993.12	214.25
993.41	214.33
993.70	214.42
993.99	214.47
994.28	214.48
994.58	214.52
994.87	214.50
995.16	214.53
995.45	214.53
995.74	214.48
996.03	214.47
996.32	214.50
996.61	214.55
996.90	214.55
997.19	214.53
997.48	214.53
997.77	214.53
998.06	214.53
998.34	214.51
998.63	214.55
998.92	214.53
999.21	214.58
999.50	214.54
999.79	214.48
1000.08	214.46
1000.37	214.47
1000.66	214.46
1000.95	214.52
1001.24	214.52
1001.53	214.55
1001.82	214.55
1002.11	214.50
1002.40	214.54
1002.68	214.59
1002.97	214.72
1003.26	214.70
1003.55	214.68
1003.84	214.67
1004.13	214.74
1004.42	214.70
1004.71	214.70
1004.99	214.72
1005.28	214.76
1005.57	214.72
1005.86	214.67
1006.15	214.68
1006.44	214.64
1006.72	214.67
1007.01	214.62
1007.30	214.62
1007.59	214.59
1007.88	214.58
1008.17	214.60
1008.45	214.54
1008.74	214.45
1009.03	214.36
1009.32	214.35
1009.60	214.34
1009.89	214.34
1010.18	214.27
1010.47	214.28
1010.76	214.27
1011.04	214.23
1011.33	214.29
1011.62	214.33
1011.91	214.36
1012.19	214.36
1012.48	214.34
1012.77	214.30
1013.05	214.41
1013.34	214.40
1013.63	214.38
1013.92	214.41
1014.20	214.41
1014.49	214.42
1014.78	214.46
1015.06	214.40
1015.35	214.39
1015.64	214.43
1015.92	214.46
1016.21	214.44
1016.50	214.44
1016.78	214.47
1017.07	214.50
1017.36	214.40
1017.64	214.37
1017.93	214.37
1018.22	214.36
1018.50	214.38
1018.79	214.43
1019.08	214.34
1019.36	214.37
1019.65	214.36
1019.93	214.40
1020.22	214.44
1020.51	214.55
1020.79	214.53
1021.08	214.25
1021.36	214.32
1021.65	215.12
1021.94	214.32
1022.22	214.69
1022.51	214.03
1022.79	215.16
1023.08	214.92
1023.36	216.89
1023.65	214.45
>>>>>End Processed Spectral Data<<<<<
