SpectraSuite Data File
++++++++++++++++++++++++++++++++++++
Date: Tue Jan 29 16:13:51 EST 2013
User: group
Dark Spectrum Present: No
Reference Spectrum Present: No
Number of Sampled Component Spectra: 1
Spectrometers: USB2E7196
Integration Time (usec): 65000 (USB2E7196)
Spectra Averaged: 100 (USB2E7196)
Boxcar Smoothing: 10 (USB2E7196)
Correct for Electrical Dark: No (USB2E7196)
Strobe/Lamp Enabled: No (USB2E7196)
Correct for Detector Non-linearity: No (USB2E7196)
Correct for Stray Light: No (USB2E7196)
Number of Pixels in Processed Spectrum: 2048
>>>>>Begin Processed Spectral Data<<<<<
339.09	0.00
339.48	202.42
339.86	203.36
340.24	205.33
340.63	206.47
341.01	210.91
341.39	209.34
341.78	210.95
342.16	212.34
342.54	211.94
342.93	201.42
343.31	211.59
343.69	212.15
344.07	212.65
344.46	213.07
344.84	213.50
345.22	213.72
345.60	214.00
345.99	214.19
346.37	214.35
346.75	214.48
347.13	214.60
347.52	214.68
347.90	214.81
348.28	214.92
348.66	215.03
349.05	214.97
349.43	215.03
349.81	215.14
350.19	215.20
350.57	215.31
350.96	215.39
351.34	215.51
351.72	215.58
352.10	215.67
352.48	215.77
352.87	215.79
353.25	215.83
353.63	215.90
354.01	215.98
354.39	216.01
354.77	216.10
355.15	216.17
355.54	216.23
355.92	216.25
356.30	216.31
356.68	216.49
357.06	216.61
357.44	216.69
357.82	216.70
358.20	216.80
358.58	216.83
358.97	216.92
359.35	217.00
359.73	217.13
360.11	217.19
360.49	217.23
360.87	217.30
361.25	217.34
361.63	217.40
362.01	217.43
362.39	217.46
362.77	217.52
363.15	217.56
363.53	217.57
363.91	217.57
364.29	217.59
364.67	217.41
365.05	217.40
365.43	217.43
365.81	217.51
366.19	217.57
366.57	217.67
366.95	217.64
367.33	217.63
367.71	217.64
368.09	217.67
368.47	217.71
368.85	217.70
369.23	217.77
369.61	217.72
369.99	217.78
370.37	217.79
370.75	217.89
371.13	217.84
371.51	217.79
371.89	217.80
372.27	217.78
372.65	217.78
373.03	217.76
373.41	217.71
373.78	217.62
374.16	217.51
374.54	217.43
374.92	217.39
375.30	217.33
375.68	217.24
376.06	217.20
376.44	217.11
376.82	217.06
377.19	216.98
377.57	216.90
377.95	216.81
378.33	216.75
378.71	216.55
379.09	216.53
379.47	216.54
379.84	216.46
380.22	216.42
380.60	216.31
380.98	216.28
381.36	216.24
381.73	216.22
382.11	216.19
382.49	216.13
382.87	216.08
383.25	216.05
383.62	216.27
384.00	216.14
384.38	216.10
384.76	216.15
385.13	216.19
385.51	216.19
385.89	216.10
386.27	216.09
386.64	216.12
387.02	216.06
387.40	216.02
387.78	215.99
388.15	215.95
388.53	215.93
388.91	215.91
389.29	215.87
389.66	215.86
390.04	215.85
390.42	215.89
390.79	215.86
391.17	215.84
391.55	215.57
391.92	215.60
392.30	215.65
392.68	215.56
393.05	215.58
393.43	215.57
393.81	215.61
394.18	215.58
394.56	215.56
394.94	215.61
395.31	215.60
395.69	215.68
396.06	215.72
396.44	215.76
396.82	215.76
397.19	215.91
397.57	215.92
397.95	215.95
398.32	215.90
398.70	215.97
399.07	216.05
399.45	216.09
399.82	216.16
400.20	216.17
400.58	216.23
400.95	216.18
401.33	216.28
401.70	216.51
402.08	216.60
402.45	216.69
402.83	216.81
403.20	216.95
403.58	217.03
403.95	217.20
404.33	217.35
404.71	217.49
405.08	217.70
405.46	217.86
405.83	218.06
406.21	218.28
406.58	218.52
406.96	218.72
407.33	218.98
407.70	219.25
408.08	219.69
408.45	220.03
408.83	220.40
409.20	220.74
409.58	220.99
409.95	221.48
410.33	221.95
410.70	222.40
411.08	222.92
411.45	223.45
411.82	223.99
412.20	224.69
412.57	225.50
412.95	226.03
413.32	226.83
413.69	227.65
414.07	228.53
414.44	229.46
414.82	230.49
415.19	231.61
415.56	232.78
415.94	233.92
416.31	235.30
416.68	236.67
417.06	238.21
417.43	239.68
417.81	241.33
418.18	243.06
418.55	244.93
418.93	246.89
419.30	248.95
419.67	251.16
420.04	253.37
420.42	255.64
420.79	258.43
421.16	261.15
421.54	263.94
421.91	266.81
422.28	269.82
422.66	272.98
423.03	276.15
423.40	279.37
423.77	282.88
424.15	286.40
424.52	290.10
424.89	294.15
425.26	298.09
425.64	301.80
426.01	305.92
426.38	310.22
426.75	314.59
427.13	319.13
427.50	323.92
427.87	328.93
428.24	333.94
428.61	338.74
428.99	344.07
429.36	349.87
429.73	355.57
430.10	361.25
430.47	367.11
430.85	373.18
431.22	379.71
431.59	386.62
431.96	393.22
432.33	400.51
432.70	407.52
433.08	415.77
433.45	423.58
433.82	431.33
434.19	439.94
434.56	448.39
434.93	456.43
435.30	464.39
435.68	473.15
436.05	481.82
436.42	490.38
436.79	498.20
437.16	506.68
437.53	515.67
437.90	524.43
438.27	533.09
438.64	541.96
439.01	550.14
439.38	557.39
439.75	564.46
440.13	572.55
440.50	580.21
440.87	586.45
441.24	592.86
441.61	599.94
441.98	605.17
442.35	611.29
442.72	617.34
443.09	623.17
443.46	626.79
443.83	629.21
444.20	631.38
444.57	634.43
444.94	635.79
445.31	637.09
445.68	638.46
446.05	638.98
446.42	638.24
446.79	637.30
447.16	636.22
447.53	635.44
447.90	632.19
448.27	628.98
448.64	624.40
449.01	621.15
449.37	615.44
449.74	609.94
450.11	603.21
450.48	596.11
450.85	588.89
451.22	582.65
451.59	576.76
451.96	571.07
452.33	563.47
452.70	556.65
453.07	548.50
453.43	540.19
453.80	532.28
454.17	524.61
454.54	517.38
454.91	509.50
455.28	501.86
455.65	494.68
456.02	487.47
456.38	481.43
456.75	473.95
457.12	467.67
457.49	461.33
457.86	455.41
458.23	450.28
458.59	444.66
458.96	438.90
459.33	433.83
459.70	428.70
460.07	424.60
460.43	419.88
460.80	415.47
461.17	411.63
461.54	407.56
461.91	403.67
462.27	399.68
462.64	396.43
463.01	392.77
463.38	389.27
463.74	385.72
464.11	382.60
464.48	379.82
464.85	376.81
465.21	374.52
465.58	371.96
465.95	368.92
466.32	366.36
466.68	363.80
467.05	361.29
467.42	358.83
467.78	356.25
468.15	353.84
468.52	352.03
468.88	349.68
469.25	347.57
469.62	345.86
469.98	344.02
470.35	342.26
470.72	340.65
471.08	338.92
471.45	337.49
471.82	336.00
472.18	334.39
472.55	333.25
472.92	331.89
473.28	330.76
473.65	329.62
474.02	328.57
474.38	327.76
474.75	327.05
475.11	326.30
475.48	325.75
475.85	325.29
476.21	324.82
476.58	324.45
476.94	324.22
477.31	323.93
477.67	323.71
478.04	323.55
478.41	323.54
478.77	323.72
479.14	323.66
479.50	323.82
479.87	324.07
480.23	324.39
480.60	324.67
480.96	324.95
481.33	325.58
481.69	326.19
482.06	326.70
482.42	327.21
482.79	327.78
483.15	328.58
483.52	329.54
483.88	330.47
484.25	331.45
484.61	332.46
484.98	333.49
485.34	334.79
485.71	336.20
486.07	337.59
486.44	338.94
486.80	340.57
487.17	342.27
487.53	344.12
487.90	345.99
488.26	347.98
488.62	350.16
488.99	352.22
489.35	354.38
489.72	356.75
490.08	359.25
490.44	361.81
490.81	364.52
491.17	367.25
491.54	370.18
491.90	373.20
492.26	376.44
492.63	379.87
492.99	383.34
493.36	387.00
493.72	390.90
494.08	394.89
494.45	399.07
494.81	403.35
495.17	407.79
495.54	412.53
495.90	417.42
496.26	422.29
496.63	427.44
496.99	432.79
497.35	438.31
497.72	444.12
498.08	450.04
498.44	456.05
498.80	462.40
499.17	468.83
499.53	475.50
499.89	482.36
500.26	489.30
500.62	496.41
500.98	503.73
501.34	511.14
501.71	518.80
502.07	526.52
502.43	534.49
502.79	542.62
503.16	550.94
503.52	559.42
503.88	568.02
504.24	576.92
504.60	585.98
504.97	595.21
505.33	604.40
505.69	614.19
506.05	624.13
506.41	633.91
506.78	643.96
507.14	654.13
507.50	664.51
507.86	675.07
508.22	685.72
508.59	696.35
508.95	707.26
509.31	718.47
509.67	729.90
510.03	741.29
510.39	752.97
510.75	764.71
511.12	776.48
511.48	788.53
511.84	800.72
512.20	812.90
512.56	825.31
512.92	837.95
513.28	850.43
513.64	862.96
514.00	875.68
514.37	888.45
514.73	901.35
515.09	914.24
515.45	927.11
515.81	939.93
516.17	953.18
516.53	966.25
516.89	979.13
517.25	992.26
517.61	1005.54
517.97	1018.66
518.33	1031.69
518.69	1045.08
519.05	1058.58
519.41	1071.97
519.77	1085.70
520.13	1098.89
520.49	1111.85
520.85	1125.08
521.21	1138.27
521.57	1151.69
521.93	1164.61
522.29	1178.17
522.65	1191.57
523.01	1204.75
523.37	1217.82
523.73	1230.77
524.09	1243.67
524.45	1256.85
524.81	1269.89
525.17	1282.95
525.53	1295.85
525.89	1308.90
526.25	1321.65
526.61	1334.23
526.97	1347.04
527.33	1359.54
527.68	1372.73
528.04	1385.94
528.40	1398.66
528.76	1411.67
529.12	1424.23
529.48	1437.22
529.84	1449.23
530.20	1461.61
530.56	1474.01
530.91	1486.94
531.27	1499.47
531.63	1512.02
531.99	1524.56
532.35	1536.56
532.71	1548.66
533.07	1561.18
533.42	1573.01
533.78	1584.99
534.14	1596.63
534.50	1607.57
534.86	1618.94
535.21	1629.39
535.57	1640.62
535.93	1651.71
536.29	1662.61
536.65	1673.70
537.00	1684.26
537.36	1695.21
537.72	1705.92
538.08	1717.02
538.44	1727.60
538.79	1738.41
539.15	1748.91
539.51	1759.17
539.87	1770.13
540.22	1780.59
540.58	1791.13
540.94	1801.65
541.29	1811.36
541.65	1820.92
542.01	1831.15
542.37	1840.85
542.72	1850.92
543.08	1860.30
543.44	1870.40
543.79	1879.20
544.15	1888.45
544.51	1898.22
544.87	1907.79
545.22	1916.64
545.58	1925.15
545.94	1933.68
546.29	1941.89
546.65	1950.08
547.01	1958.08
547.36	1965.61
547.72	1973.13
548.07	1980.53
548.43	1988.02
548.79	1995.83
549.14	2003.68
549.50	2011.72
549.86	2019.25
550.21	2026.25
550.57	2033.67
550.92	2040.14
551.28	2047.44
551.64	2054.50
551.99	2061.84
552.35	2068.84
552.70	2075.57
553.06	2082.08
553.41	2088.18
553.77	2094.64
554.13	2100.68
554.48	2107.71
554.84	2114.55
555.19	2120.90
555.55	2127.32
555.90	2133.46
556.26	2140.05
556.61	2145.90
556.97	2150.87
557.32	2156.65
557.68	2162.98
558.03	2168.62
558.39	2173.92
558.74	2179.80
559.10	2185.40
559.45	2190.79
559.81	2196.26
560.16	2201.77
560.52	2207.58
560.87	2213.99
561.23	2219.89
561.58	2226.63
561.94	2231.54
562.29	2236.25
562.64	2242.28
563.00	2247.80
563.35	2253.34
563.71	2259.16
564.06	2264.88
564.42	2270.68
564.77	2275.62
565.12	2280.94
565.48	2286.27
565.83	2291.78
566.19	2297.21
566.54	2302.47
566.89	2307.13
567.25	2311.58
567.60	2317.22
567.96	2322.39
568.31	2326.98
568.66	2331.13
569.02	2335.05
569.37	2339.02
569.72	2343.47
570.08	2347.22
570.43	2350.34
570.78	2353.65
571.14	2356.27
571.49	2359.44
571.84	2363.01
572.20	2366.13
572.55	2369.13
572.90	2371.40
573.26	2374.48
573.61	2376.93
573.96	2379.15
574.31	2381.27
574.67	2383.43
575.02	2384.49
575.37	2385.97
575.72	2386.77
576.08	2388.45
576.43	2388.81
576.78	2389.52
577.13	2391.37
577.49	2392.55
577.84	2393.96
578.19	2395.34
578.54	2396.20
578.90	2397.30
579.25	2397.46
579.60	2397.68
579.95	2397.04
580.30	2397.20
580.66	2396.43
581.01	2395.03
581.36	2392.96
581.71	2391.68
582.06	2390.85
582.42	2390.14
582.77	2388.17
583.12	2386.90
583.47	2385.69
583.82	2385.22
584.17	2384.16
584.53	2381.96
584.88	2379.98
585.23	2378.10
585.58	2375.94
585.93	2373.89
586.28	2371.85
586.63	2369.62
586.98	2367.58
587.34	2365.89
587.69	2363.86
588.04	2362.07
588.39	2360.71
588.74	2358.42
589.09	2355.98
589.44	2352.94
589.79	2350.64
590.14	2348.98
590.49	2346.23
590.84	2342.65
591.19	2339.67
591.54	2336.50
591.89	2332.66
592.25	2329.58
592.60	2325.55
592.95	2321.59
593.30	2317.52
593.65	2313.23
594.00	2308.86
594.35	2305.84
594.70	2301.30
595.05	2296.72
595.40	2291.38
595.75	2286.04
596.10	2282.48
596.45	2277.77
596.80	2273.28
597.15	2268.04
597.50	2262.12
597.85	2257.26
598.19	2252.17
598.54	2246.57
598.89	2241.55
599.24	2237.33
599.59	2231.42
599.94	2225.95
600.29	2220.22
600.64	2214.56
600.99	2208.04
601.34	2202.78
601.69	2196.04
602.04	2189.81
602.39	2183.39
602.74	2177.51
603.08	2171.93
603.43	2165.47
603.78	2158.69
604.13	2151.79
604.48	2144.65
604.83	2138.71
605.18	2132.46
605.53	2125.65
605.87	2118.64
606.22	2111.92
606.57	2104.03
606.92	2096.17
607.27	2089.22
607.62	2082.64
607.96	2075.66
608.31	2068.99
608.66	2061.26
609.01	2053.73
609.36	2046.59
609.70	2038.90
610.05	2031.14
610.40	2023.06
610.75	2015.02
611.10	2007.51
611.44	1998.88
611.79	1990.35
612.14	1980.47
612.49	1969.99
612.83	1960.76
613.18	1951.72
613.53	1942.44
613.88	1932.90
614.22	1924.33
614.57	1914.47
614.92	1903.99
615.27	1893.92
615.61	1884.10
615.96	1874.41
616.31	1864.80
616.65	1855.48
617.00	1845.81
617.35	1836.31
617.70	1826.61
618.04	1816.49
618.39	1806.13
618.74	1796.42
619.08	1786.80
619.43	1778.00
619.78	1769.83
620.12	1761.15
620.47	1751.44
620.82	1741.20
621.16	1731.44
621.51	1721.43
621.85	1711.61
622.20	1701.28
622.55	1690.66
622.89	1680.78
623.24	1671.14
623.59	1661.45
623.93	1651.47
624.28	1641.79
624.62	1631.63
624.97	1621.25
625.32	1611.59
625.66	1602.85
626.01	1594.02
626.35	1584.64
626.70	1574.64
627.04	1564.54
627.39	1554.43
627.73	1545.08
628.08	1536.10
628.43	1526.56
628.77	1517.41
629.12	1508.49
629.46	1500.59
629.81	1492.21
630.15	1482.70
630.50	1472.96
630.84	1462.54
631.19	1452.70
631.53	1443.31
631.88	1433.13
632.22	1423.27
632.57	1413.77
632.91	1403.65
633.26	1393.82
633.60	1384.25
633.95	1374.97
634.29	1365.65
634.64	1356.40
634.98	1346.68
635.32	1337.43
635.67	1328.84
636.01	1319.63
636.36	1309.90
636.70	1300.44
637.05	1291.16
637.39	1282.19
637.73	1273.54
638.08	1265.91
638.42	1257.63
638.77	1248.86
639.11	1240.78
639.45	1232.92
639.80	1224.43
640.14	1215.77
640.49	1206.82
640.83	1198.11
641.17	1190.08
641.52	1181.88
641.86	1173.26
642.20	1165.44
642.55	1156.77
642.89	1147.96
643.23	1139.39
643.58	1131.39
643.92	1122.28
644.26	1113.64
644.61	1105.27
644.95	1096.58
645.29	1087.44
645.64	1078.27
645.98	1069.94
646.32	1062.08
646.66	1053.59
647.01	1045.26
647.35	1037.20
647.69	1028.89
648.04	1020.52
648.38	1011.58
648.72	1002.83
649.06	994.43
649.41	986.22
649.75	978.25
650.09	970.54
650.43	962.50
650.78	954.27
651.12	946.71
651.46	939.41
651.80	932.11
652.14	924.85
652.49	917.44
652.83	910.13
653.17	902.46
653.51	894.87
653.85	887.76
654.20	880.57
654.54	873.16
654.88	866.16
655.22	859.06
655.56	852.21
655.90	845.49
656.25	838.92
656.59	832.01
656.93	825.17
657.27	818.07
657.61	811.25
657.95	805.20
658.29	799.46
658.64	793.28
658.98	786.94
659.32	780.44
659.66	774.22
660.00	767.97
660.34	761.98
660.68	755.88
661.02	749.62
661.36	743.83
661.70	737.98
662.05	732.39
662.39	727.03
662.73	721.72
663.07	716.42
663.41	710.89
663.75	705.29
664.09	699.76
664.43	694.41
664.77	689.09
665.11	683.39
665.45	677.50
665.79	671.80
666.13	666.20
666.47	660.76
666.81	655.39
667.15	650.16
667.49	645.06
667.83	639.94
668.17	634.67
668.51	629.57
668.85	624.82
669.19	619.94
669.53	614.95
669.87	609.91
670.21	605.22
670.55	600.56
670.89	596.20
671.23	591.95
671.57	587.70
671.91	583.45
672.25	579.40
672.58	575.27
672.92	571.30
673.26	567.48
673.60	563.70
673.94	559.93
674.28	556.38
674.62	552.71
674.96	549.07
675.30	545.66
675.64	542.11
675.97	538.57
676.31	535.03
676.65	531.49
676.99	528.13
677.33	524.35
677.67	520.78
678.01	517.02
678.34	513.40
678.68	509.91
679.02	506.32
679.36	502.67
679.70	499.18
680.04	495.67
680.37	492.26
680.71	489.03
681.05	485.93
681.39	482.71
681.73	479.65
682.06	476.60
682.40	473.62
682.74	470.47
683.08	467.33
683.42	464.22
683.75	461.28
684.09	458.34
684.43	455.62
684.77	452.73
685.10	450.00
685.44	447.14
685.78	444.26
686.12	441.66
686.45	438.95
686.79	436.33
687.13	433.88
687.46	431.30
687.80	428.67
688.14	425.85
688.48	423.25
688.81	420.53
689.15	417.97
689.49	415.42
689.82	412.95
690.16	410.42
690.50	408.02
690.83	405.62
691.17	403.14
691.51	400.69
691.84	398.52
692.18	396.33
692.52	394.17
692.85	392.10
693.19	389.95
693.52	387.83
693.86	385.71
694.20	383.57
694.53	381.46
694.87	379.31
695.21	377.23
695.54	375.16
695.88	373.10
696.21	370.99
696.55	368.88
696.88	366.86
697.22	364.95
697.56	363.10
697.89	361.24
698.23	359.52
698.56	357.78
698.90	356.03
699.23	354.15
699.57	352.33
699.90	350.52
700.24	348.80
700.58	347.11
700.91	345.42
701.25	343.92
701.58	342.41
701.92	340.89
702.25	339.38
702.59	337.78
702.92	336.27
703.26	334.77
703.59	333.36
703.93	332.13
704.26	330.74
704.60	329.27
704.93	327.80
705.26	326.36
705.60	324.93
705.93	323.46
706.27	322.16
706.60	320.91
706.94	319.72
707.27	318.37
707.61	317.11
707.94	315.81
708.27	314.32
708.61	312.84
708.94	311.50
709.28	310.22
709.61	309.02
709.94	307.85
710.28	306.68
710.61	305.48
710.95	304.11
711.28	303.04
711.61	301.85
711.95	300.79
712.28	299.61
712.61	298.47
712.95	297.46
713.28	296.48
713.61	295.37
713.95	294.23
714.28	293.21
714.61	292.14
714.95	291.17
715.28	290.17
715.61	289.24
715.95	288.27
716.28	287.31
716.61	286.38
716.95	285.41
717.28	284.49
717.61	283.58
717.94	282.68
718.28	281.69
718.61	280.88
718.94	280.01
719.27	279.19
719.61	278.41
719.94	277.55
720.27	276.57
720.60	275.76
720.94	275.00
721.27	274.25
721.60	273.58
721.93	272.85
722.27	272.21
722.60	271.55
722.93	270.86
723.26	270.27
723.59	269.62
723.93	268.99
724.26	268.38
724.59	267.76
724.92	267.18
725.25	266.68
725.59	266.10
725.92	265.57
726.25	264.98
726.58	264.39
726.91	263.79
727.24	263.28
727.57	262.74
727.91	262.15
728.24	261.64
728.57	261.07
728.90	260.55
729.23	259.97
729.56	259.53
729.89	259.00
730.22	258.43
730.55	257.86
730.89	257.34
731.22	256.80
731.55	256.33
731.88	255.82
732.21	255.28
732.54	254.75
732.87	254.24
733.20	253.79
733.53	253.30
733.86	252.84
734.19	252.37
734.52	251.97
734.85	251.69
735.18	251.21
735.51	250.82
735.84	250.41
736.17	250.04
736.50	249.55
736.83	249.44
737.16	249.06
737.49	248.73
737.82	248.34
738.15	247.98
738.48	247.60
738.81	247.23
739.14	246.84
739.47	246.51
739.80	246.15
740.13	245.83
740.46	245.48
740.79	245.16
741.12	244.82
741.45	244.40
741.78	243.94
742.11	243.68
742.44	243.35
742.77	243.05
743.10	242.72
743.43	242.40
743.75	241.84
744.08	241.76
744.41	241.43
744.74	241.13
745.07	240.78
745.40	240.48
745.73	240.23
746.06	239.92
746.39	239.61
746.71	239.26
747.04	238.90
747.37	238.58
747.70	238.30
748.03	237.98
748.36	237.75
748.68	237.47
749.01	237.10
749.34	236.81
749.67	236.53
750.00	236.30
750.33	236.16
750.65	235.92
750.98	235.42
751.31	235.15
751.64	234.91
751.97	234.79
752.29	234.53
752.62	234.21
752.95	233.98
753.28	233.69
753.60	233.47
753.93	233.36
754.26	233.16
754.59	232.89
754.91	232.67
755.24	232.46
755.57	232.21
755.90	232.03
756.22	231.76
756.55	231.53
756.88	231.25
757.20	230.91
757.53	230.63
757.86	230.42
758.19	230.26
758.51	230.06
758.84	229.76
759.17	229.56
759.49	229.41
759.82	229.32
760.15	229.21
760.47	229.06
760.80	228.77
761.13	228.66
761.45	228.48
761.78	228.31
762.11	228.11
762.43	227.93
762.76	227.75
763.08	227.62
763.41	227.47
763.74	227.34
764.06	227.20
764.39	227.06
764.71	226.93
765.04	226.72
765.37	226.56
765.69	226.42
766.02	226.31
766.34	226.15
766.67	225.90
767.00	225.77
767.32	225.74
767.65	225.73
767.97	225.54
768.30	225.41
768.62	225.29
768.95	225.16
769.27	225.05
769.60	224.96
769.92	224.82
770.25	224.67
770.57	224.53
770.90	224.37
771.22	224.26
771.55	224.14
771.87	224.07
772.20	223.95
772.52	224.00
772.85	224.08
773.17	223.93
773.50	223.85
773.82	223.74
774.15	223.55
774.47	223.34
774.80	223.27
775.12	223.20
775.45	223.12
775.77	223.04
776.09	222.97
776.42	222.90
776.74	222.87
777.07	222.79
777.39	222.73
777.72	222.66
778.04	222.60
778.36	222.49
778.69	222.39
779.01	222.37
779.33	222.12
779.66	221.86
779.98	221.77
780.31	221.73
780.63	221.71
780.95	221.64
781.28	221.58
781.60	221.46
781.92	221.41
782.25	221.35
782.57	221.29
782.89	221.20
783.22	221.10
783.54	220.99
783.86	220.96
784.19	220.87
784.51	220.85
784.83	220.76
785.16	220.69
785.48	220.65
785.80	220.58
786.12	220.53
786.45	220.45
786.77	220.46
787.09	220.36
787.42	220.26
787.74	220.22
788.06	220.17
788.38	220.10
788.71	220.00
789.03	219.96
789.35	219.94
789.67	219.89
789.99	219.87
790.32	219.79
790.64	219.71
790.96	219.85
791.28	219.74
791.61	219.71
791.93	219.72
792.25	219.67
792.57	219.76
792.89	219.71
793.21	219.68
793.54	219.60
793.86	219.54
794.18	219.49
794.50	219.42
794.82	219.40
795.14	219.40
795.47	219.39
795.79	219.32
796.11	219.22
796.43	219.14
796.75	219.07
797.07	219.03
797.39	219.02
797.71	218.83
798.04	218.81
798.36	218.77
798.68	218.72
799.00	218.69
799.32	218.53
799.64	218.52
799.96	218.46
800.28	218.45
800.60	218.41
800.92	218.38
801.24	218.33
801.56	218.30
801.89	218.22
802.21	218.22
802.53	218.16
802.85	218.17
803.17	218.25
803.49	218.19
803.81	218.17
804.13	218.12
804.45	218.05
804.77	218.03
805.09	218.02
805.41	217.94
805.73	217.87
806.05	217.83
806.37	217.79
806.69	217.75
807.01	217.71
807.33	217.66
807.65	217.57
807.97	217.66
808.28	217.60
808.60	217.58
808.92	217.53
809.24	217.64
809.56	217.58
809.88	217.50
810.20	217.51
810.52	217.53
810.84	217.49
811.16	217.46
811.48	217.42
811.80	217.47
812.12	217.47
812.43	217.49
812.75	217.48
813.07	217.43
813.39	217.43
813.71	217.39
814.03	217.38
814.35	217.37
814.67	217.27
814.98	217.24
815.30	217.23
815.62	217.16
815.94	217.01
816.26	217.02
816.58	216.97
816.89	216.93
817.21	216.85
817.53	216.82
817.85	216.81
818.17	216.78
818.48	216.67
818.80	216.67
819.12	216.62
819.44	216.56
819.76	216.55
820.07	216.53
820.39	216.52
820.71	216.51
821.03	216.52
821.34	216.49
821.66	216.49
821.98	216.49
822.30	216.49
822.61	216.59
822.93	216.54
823.25	216.49
823.57	216.47
823.88	216.52
824.20	216.54
824.52	216.55
824.83	216.54
825.15	216.51
825.47	216.50
825.79	216.50
826.10	216.46
826.42	216.42
826.74	216.44
827.05	216.40
827.37	216.44
827.69	216.38
828.00	216.36
828.32	216.35
828.64	216.31
828.95	216.39
829.27	216.30
829.58	216.29
829.90	216.30
830.22	216.32
830.53	216.25
830.85	216.20
831.17	216.14
831.48	216.15
831.80	216.15
832.11	216.09
832.43	216.05
832.75	216.05
833.06	216.16
833.38	216.07
833.69	216.06
834.01	216.01
834.32	216.00
834.64	215.96
834.96	215.99
835.27	215.99
835.59	215.87
835.90	215.84
836.22	215.84
836.53	215.80
836.85	215.75
837.16	215.93
837.48	215.92
837.79	215.98
838.11	215.97
838.42	215.96
838.74	215.99
839.05	215.96
839.37	215.96
839.68	215.82
840.00	215.83
840.31	215.83
840.63	215.83
840.94	215.82
841.26	215.81
841.57	215.79
841.88	215.81
842.20	215.81
842.51	215.80
842.83	215.77
843.14	215.97
843.46	215.98
843.77	215.86
844.08	215.86
844.40	215.78
844.71	215.75
845.03	215.75
845.34	215.73
845.65	215.75
845.97	215.76
846.28	215.76
846.60	215.75
846.91	215.74
847.22	215.75
847.54	215.79
847.85	215.80
848.16	215.77
848.48	215.69
848.79	215.76
849.10	215.79
849.42	215.80
849.73	215.58
850.04	215.55
850.36	215.46
850.67	215.52
850.98	215.53
851.30	215.56
851.61	215.53
851.92	215.53
852.23	215.57
852.55	215.56
852.86	215.57
853.17	215.58
853.49	215.61
853.80	215.61
854.11	215.61
854.42	215.64
854.74	215.58
855.05	215.61
855.36	215.52
855.67	215.50
855.99	215.48
856.30	215.73
856.61	215.73
856.92	215.75
857.23	215.74
857.55	215.72
857.86	215.68
858.17	215.70
858.48	215.65
858.79	215.59
859.11	215.62
859.42	215.60
859.73	215.59
860.04	215.57
860.35	215.53
860.66	215.43
860.98	215.39
861.29	215.46
861.60	215.42
861.91	215.47
862.22	215.43
862.53	215.41
862.84	215.19
863.16	215.25
863.47	215.20
863.78	215.16
864.09	215.16
864.40	215.18
864.71	215.20
865.02	215.20
865.33	215.19
865.64	215.13
865.95	215.13
866.27	215.25
866.58	215.23
866.89	215.23
867.20	215.26
867.51	215.22
867.82	215.20
868.13	215.30
868.44	215.23
868.75	215.27
869.06	215.30
869.37	215.31
869.68	215.21
869.99	215.25
870.30	215.26
870.61	215.28
870.92	215.26
871.23	215.24
871.54	215.29
871.85	215.31
872.16	215.36
872.47	215.34
872.78	215.22
873.09	215.22
873.40	215.23
873.71	215.25
874.02	215.27
874.33	215.27
874.64	215.22
874.95	215.25
875.26	215.21
875.56	215.19
875.87	215.18
876.18	215.19
876.49	215.40
876.80	215.38
877.11	215.34
877.42	215.33
877.73	215.33
878.04	215.27
878.35	215.28
878.66	215.26
878.96	215.27
879.27	215.26
879.58	215.24
879.89	215.23
880.20	215.27
880.51	215.24
880.82	215.22
881.12	215.22
881.43	215.18
881.74	215.14
882.05	215.12
882.36	215.16
882.67	215.21
882.97	214.97
883.28	214.94
883.59	214.94
883.90	214.96
884.21	214.97
884.51	215.00
884.82	214.97
885.13	214.97
885.44	214.95
885.74	214.94
886.05	214.95
886.36	214.95
886.67	214.90
886.98	215.01
887.28	215.04
887.59	215.01
887.90	215.03
888.20	215.05
888.51	215.10
888.82	215.04
889.13	215.03
889.43	215.21
889.74	215.20
890.05	215.19
890.35	215.20
890.66	215.19
890.97	215.16
891.28	215.14
891.58	215.16
891.89	215.18
892.20	215.15
892.50	215.13
892.81	215.09
893.12	215.09
893.42	215.00
893.73	214.98
894.04	214.99
894.34	215.03
894.65	215.02
894.95	215.00
895.26	215.03
895.57	215.10
895.87	214.89
896.18	214.95
896.48	214.96
896.79	214.94
897.10	214.95
897.40	214.95
897.71	214.97
898.01	214.92
898.32	214.92
898.63	214.90
898.93	214.90
899.24	214.92
899.54	214.90
899.85	214.89
900.15	214.91
900.46	214.90
900.76	214.88
901.07	214.89
901.38	214.85
901.68	214.84
901.99	214.73
902.29	214.74
902.60	214.71
902.90	214.70
903.21	214.67
903.51	214.67
903.82	214.72
904.12	214.74
904.43	214.75
904.73	214.73
905.03	214.74
905.34	214.94
905.64	214.93
905.95	214.94
906.25	214.93
906.56	214.93
906.86	214.93
907.17	214.92
907.47	214.93
907.77	214.94
908.08	214.93
908.38	214.93
908.69	214.98
908.99	215.04
909.30	215.06
909.60	215.09
909.90	215.10
910.21	215.03
910.51	214.98
910.81	214.99
911.12	215.04
911.42	215.07
911.73	214.88
912.03	214.89
912.33	214.94
912.64	214.94
912.94	214.92
913.24	214.87
913.55	214.85
913.85	214.83
914.15	214.89
914.46	214.88
914.76	214.85
915.06	214.84
915.37	214.78
915.67	214.78
915.97	214.77
916.27	214.70
916.58	214.70
916.88	214.71
917.18	214.68
917.49	214.76
917.79	214.77
918.09	214.81
918.39	214.86
918.70	214.83
919.00	214.81
919.30	214.92
919.60	214.93
919.91	214.92
920.21	214.95
920.51	214.87
920.81	214.86
921.12	214.94
921.42	214.92
921.72	214.94
922.02	214.92
922.32	214.94
922.63	214.96
922.93	215.09
923.23	215.07
923.53	215.07
923.83	214.97
924.13	215.00
924.44	214.99
924.74	215.05
925.04	215.10
925.34	215.09
925.64	215.00
925.94	215.04
926.24	215.16
926.55	215.12
926.85	215.13
927.15	215.16
927.45	215.10
927.75	215.10
928.05	215.08
928.35	215.07
928.65	215.11
928.95	215.13
929.26	215.00
929.56	215.09
929.86	215.14
930.16	215.14
930.46	215.09
930.76	215.08
931.06	214.98
931.36	214.89
931.66	214.93
931.96	214.94
932.26	214.93
932.56	214.84
932.86	214.85
933.16	214.88
933.46	214.86
933.76	214.88
934.06	214.91
934.36	214.99
934.66	214.99
934.96	214.92
935.26	214.94
935.56	215.02
935.86	214.94
936.16	214.87
936.46	214.82
936.76	214.82
937.06	214.81
937.36	214.81
937.66	214.86
937.96	214.84
938.26	214.82
938.56	214.77
938.86	214.75
939.16	214.81
939.46	214.83
939.76	214.83
940.06	214.81
940.35	214.77
940.65	214.66
940.95	214.69
941.25	214.67
941.55	214.64
941.85	214.59
942.15	214.63
942.45	214.72
942.75	214.73
943.04	214.72
943.34	214.74
943.64	214.73
943.94	214.70
944.24	214.72
944.54	214.72
944.84	214.73
945.13	214.73
945.43	214.69
945.73	214.65
946.03	214.61
946.33	214.61
946.62	214.57
946.92	214.59
947.22	214.59
947.52	214.62
947.82	214.64
948.11	214.62
948.41	214.58
948.71	214.53
949.01	214.54
949.31	214.52
949.60	214.49
949.90	214.52
950.20	214.48
950.50	214.47
950.79	214.46
951.09	214.47
951.39	214.44
951.69	214.42
951.98	214.49
952.28	214.53
952.58	214.52
952.87	214.54
953.17	214.54
953.47	214.54
953.76	214.53
954.06	214.50
954.36	214.47
954.66	214.47
954.95	214.51
955.25	214.50
955.55	214.53
955.84	214.51
956.14	214.49
956.44	214.57
956.73	214.53
957.03	214.52
957.32	214.55
957.62	214.56
957.92	214.60
958.21	214.55
958.51	214.78
958.81	214.81
959.10	214.82
959.40	214.88
959.69	214.91
959.99	214.94
960.29	214.94
960.58	214.92
960.88	214.97
961.17	214.96
961.47	215.02
961.76	214.98
962.06	215.03
962.36	215.04
962.65	214.99
962.95	215.02
963.24	215.01
963.54	215.01
963.83	215.03
964.13	215.00
964.42	214.97
964.72	214.80
965.01	214.78
965.31	214.76
965.60	214.70
965.90	214.79
966.19	214.76
966.49	214.78
966.78	214.80
967.08	214.78
967.37	214.74
967.67	214.68
967.96	214.74
968.26	214.70
968.55	214.72
968.85	214.71
969.14	214.69
969.43	214.70
969.73	214.68
970.02	214.66
970.32	214.68
970.61	214.66
970.91	214.62
971.20	214.61
971.49	214.63
971.79	214.66
972.08	214.52
972.38	214.53
972.67	214.53
972.96	214.59
973.26	214.58
973.55	214.62
973.85	214.64
974.14	214.59
974.43	214.61
974.73	214.56
975.02	214.58
975.31	214.59
975.61	214.57
975.90	214.56
976.19	214.54
976.49	214.53
976.78	214.55
977.07	214.54
977.37	214.52
977.66	214.53
977.95	214.49
978.24	214.50
978.54	214.54
978.83	214.52
979.12	214.48
979.42	214.47
979.71	214.46
980.00	214.45
980.29	214.45
980.59	214.42
980.88	214.46
981.17	214.44
981.46	214.45
981.76	214.44
982.05	214.46
982.34	214.46
982.63	214.47
982.93	214.47
983.22	214.49
983.51	214.52
983.80	214.55
984.09	214.61
984.39	214.58
984.68	214.57
984.97	214.56
985.26	214.55
985.55	214.59
985.85	214.52
986.14	214.57
986.43	214.61
986.72	214.59
987.01	214.53
987.30	214.54
987.59	214.51
987.89	214.57
988.18	214.54
988.47	214.53
988.76	214.50
989.05	214.48
989.34	214.47
989.63	214.53
989.92	214.47
990.22	214.42
990.51	214.45
990.80	214.42
991.09	214.45
991.38	214.51
991.67	214.46
991.96	214.48
992.25	214.45
992.54	214.43
992.83	214.43
993.12	214.43
993.41	214.44
993.70	214.52
993.99	214.54
994.28	214.56
994.58	214.61
994.87	214.59
995.16	214.59
995.45	214.57
995.74	214.49
996.03	214.54
996.32	214.55
996.61	214.60
996.90	214.59
997.19	214.59
997.48	214.59
997.77	214.58
998.06	214.60
998.34	214.58
998.63	214.57
998.92	214.59
999.21	214.63
999.50	214.63
999.79	214.56
1000.08	214.54
1000.37	214.53
1000.66	214.53
1000.95	214.58
1001.24	214.58
1001.53	214.61
1001.82	214.61
1002.11	214.55
1002.40	214.60
1002.68	214.63
1002.97	214.80
1003.26	214.74
1003.55	214.71
1003.84	214.72
1004.13	214.76
1004.42	214.78
1004.71	214.78
1004.99	214.77
1005.28	214.83
1005.57	214.80
1005.86	214.77
1006.15	214.77
1006.44	214.77
1006.72	214.77
1007.01	214.78
1007.30	214.79
1007.59	214.79
1007.88	214.77
1008.17	214.79
1008.45	214.75
1008.74	214.68
1009.03	214.58
1009.32	214.59
1009.60	214.60
1009.89	214.58
1010.18	214.50
1010.47	214.47
1010.76	214.46
1011.04	214.44
1011.33	214.43
1011.62	214.49
1011.91	214.53
1012.19	214.49
1012.48	214.49
1012.77	214.49
1013.05	214.56
1013.34	214.59
1013.63	214.57
1013.92	214.59
1014.20	214.58
1014.49	214.62
1014.78	214.63
1015.06	214.55
1015.35	214.56
1015.64	214.56
1015.92	214.62
1016.21	214.64
1016.50	214.65
1016.78	214.69
1017.07	214.72
1017.36	214.70
1017.64	214.63
1017.93	214.66
1018.22	214.68
1018.50	214.68
1018.79	214.66
1019.08	214.55
1019.36	214.54
1019.65	214.52
1019.93	214.57
1020.22	214.60
1020.51	214.68
1020.79	214.65
1021.08	214.32
1021.36	214.36
1021.65	214.31
1021.94	214.11
1022.22	214.65
1022.51	213.98
1022.79	215.60
1023.08	214.75
1023.36	217.27
1023.65	214.18
>>>>>End Processed Spectral Data<<<<<
