SpectraSuite Data File
++++++++++++++++++++++++++++++++++++
Date: Tue Jan 29 15:59:38 EST 2013
User: group
Dark Spectrum Present: No
Reference Spectrum Present: No
Number of Sampled Component Spectra: 1
Spectrometers: USB2E7196
Integration Time (usec): 65000 (USB2E7196)
Spectra Averaged: 100 (USB2E7196)
Boxcar Smoothing: 10 (USB2E7196)
Correct for Electrical Dark: No (USB2E7196)
Strobe/Lamp Enabled: No (USB2E7196)
Correct for Detector Non-linearity: No (USB2E7196)
Correct for Stray Light: No (USB2E7196)
Number of Pixels in Processed Spectrum: 2048
>>>>>Begin Processed Spectral Data<<<<<
339.09	0.00
339.48	202.97
339.86	204.78
340.24	206.00
340.63	207.72
341.01	211.61
341.39	210.15
341.78	211.20
342.16	212.41
342.54	213.17
342.93	202.20
343.31	212.42
343.69	212.97
344.07	213.43
344.46	213.86
344.84	214.22
345.22	214.40
345.60	214.63
345.99	214.83
346.37	214.98
346.75	215.07
347.13	215.17
347.52	215.21
347.90	215.35
348.28	215.38
348.66	215.40
349.05	215.34
349.43	215.41
349.81	215.46
350.19	215.49
350.57	215.59
350.96	215.70
351.34	215.79
351.72	215.87
352.10	215.96
352.48	216.04
352.87	216.10
353.25	216.16
353.63	216.24
354.01	216.32
354.39	216.38
354.77	216.46
355.15	216.57
355.54	216.61
355.92	216.56
356.30	216.65
356.68	216.86
357.06	216.96
357.44	216.94
357.82	217.00
358.20	217.11
358.58	217.15
358.97	217.20
359.35	217.30
359.73	217.37
360.11	217.41
360.49	217.46
360.87	217.49
361.25	217.56
361.63	217.64
362.01	217.69
362.39	217.71
362.77	217.75
363.15	217.77
363.53	217.81
363.91	217.87
364.29	217.87
364.67	217.70
365.05	217.69
365.43	217.73
365.81	217.76
366.19	217.87
366.57	217.95
366.95	217.95
367.33	217.92
367.71	217.93
368.09	217.96
368.47	217.97
368.85	217.99
369.23	218.04
369.61	217.98
369.99	218.02
370.37	218.04
370.75	218.14
371.13	218.09
371.51	218.07
371.89	218.04
372.27	218.02
372.65	218.03
373.03	218.01
373.41	217.98
373.78	217.96
374.16	217.82
374.54	217.71
374.92	217.63
375.30	217.58
375.68	217.48
376.06	217.49
376.44	217.42
376.82	217.38
377.19	217.27
377.57	217.23
377.95	217.13
378.33	217.08
378.71	216.90
379.09	216.90
379.47	216.89
379.84	216.85
380.22	216.77
380.60	216.67
380.98	216.58
381.36	216.56
381.73	216.47
382.11	216.46
382.49	216.45
382.87	216.38
383.25	216.36
383.62	216.59
384.00	216.50
384.38	216.47
384.76	216.50
385.13	216.58
385.51	216.52
385.89	216.48
386.27	216.43
386.64	216.47
387.02	216.40
387.40	216.33
387.78	216.32
388.15	216.33
388.53	216.31
388.91	216.33
389.29	216.27
389.66	216.28
390.04	216.23
390.42	216.25
390.79	216.29
391.17	216.28
391.55	216.01
391.92	216.00
392.30	216.06
392.68	215.96
393.05	215.94
393.43	215.97
393.81	215.97
394.18	215.96
394.56	215.94
394.94	215.96
395.31	215.96
395.69	216.03
396.06	216.10
396.44	216.15
396.82	216.11
397.19	216.27
397.57	216.30
397.95	216.36
398.32	216.33
398.70	216.34
399.07	216.40
399.45	216.45
399.82	216.48
400.20	216.48
400.58	216.56
400.95	216.55
401.33	216.67
401.70	216.89
402.08	216.97
402.45	217.06
402.83	217.21
403.20	217.31
403.58	217.40
403.95	217.51
404.33	217.64
404.71	217.82
405.08	218.04
405.46	218.22
405.83	218.43
406.21	218.63
406.58	218.86
406.96	219.06
407.33	219.32
407.70	219.62
408.08	220.07
408.45	220.38
408.83	220.76
409.20	221.07
409.58	221.31
409.95	221.77
410.33	222.23
410.70	222.65
411.08	223.19
411.45	223.73
411.82	224.30
412.20	224.99
412.57	225.77
412.95	226.29
413.32	227.05
413.69	227.85
414.07	228.75
414.44	229.70
414.82	230.70
415.19	231.84
415.56	232.97
415.94	234.11
416.31	235.46
416.68	236.79
417.06	238.33
417.43	239.82
417.81	241.49
418.18	243.20
418.55	245.05
418.93	247.02
419.30	249.06
419.67	251.21
420.04	253.39
420.42	255.69
420.79	258.43
421.16	261.12
421.54	263.90
421.91	266.77
422.28	269.76
422.66	272.88
423.03	276.01
423.40	279.25
423.77	282.67
424.15	286.19
424.52	289.89
424.89	293.92
425.26	297.86
425.64	301.63
426.01	305.71
426.38	310.01
426.75	314.36
427.13	318.85
427.50	323.63
427.87	328.66
428.24	333.68
428.61	338.51
428.99	343.82
429.36	349.64
429.73	355.31
430.10	360.99
430.47	366.86
430.85	372.97
431.22	379.40
431.59	386.25
431.96	392.88
432.33	400.08
432.70	407.01
433.08	415.22
433.45	422.97
433.82	430.77
434.19	439.34
434.56	447.80
434.93	455.91
435.30	463.85
435.68	472.64
436.05	481.22
436.42	489.76
436.79	497.57
437.16	505.97
437.53	514.86
437.90	523.61
438.27	532.15
438.64	540.97
439.01	549.23
439.38	556.57
439.75	563.64
440.13	571.77
440.50	579.54
440.87	585.66
441.24	592.08
441.61	599.13
441.98	604.35
442.35	610.37
442.72	616.37
443.09	622.20
443.46	625.73
443.83	628.23
444.20	630.34
444.57	633.41
444.94	634.75
445.31	636.12
445.68	637.40
446.05	638.10
446.42	637.31
446.79	636.32
447.16	635.23
447.53	634.39
447.90	631.15
448.27	627.88
448.64	623.42
449.01	620.19
449.37	614.43
449.74	608.91
450.11	602.22
450.48	595.15
450.85	587.94
451.22	581.70
451.59	575.78
451.96	570.12
452.33	562.52
452.70	555.71
453.07	547.56
453.43	539.35
453.80	531.35
454.17	523.71
454.54	516.52
454.91	508.70
455.28	501.13
455.65	494.07
456.02	486.94
456.38	480.91
456.75	473.39
457.12	467.16
457.49	460.96
457.86	455.07
458.23	449.93
458.59	444.31
458.96	438.60
459.33	433.47
459.70	428.39
460.07	424.35
460.43	419.72
460.80	415.33
461.17	411.52
461.54	407.49
461.91	403.64
462.27	399.66
462.64	396.35
463.01	392.64
463.38	389.06
463.74	385.45
464.11	382.30
464.48	379.58
464.85	376.53
465.21	374.11
465.58	371.59
465.95	368.54
466.32	366.02
466.68	363.49
467.05	361.04
467.42	358.58
467.78	356.03
468.15	353.56
468.52	351.77
468.88	349.42
469.25	347.33
469.62	345.59
469.98	343.73
470.35	342.01
470.72	340.41
471.08	338.71
471.45	337.30
471.82	335.88
472.18	334.28
472.55	333.17
472.92	331.90
473.28	330.78
473.65	329.70
474.02	328.65
474.38	327.87
474.75	327.12
475.11	326.40
475.48	325.80
475.85	325.37
476.21	324.91
476.58	324.53
476.94	324.32
477.31	324.06
477.67	323.88
478.04	323.78
478.41	323.79
478.77	323.98
479.14	323.95
479.50	324.10
479.87	324.42
480.23	324.78
480.60	325.02
480.96	325.31
481.33	325.92
481.69	326.51
482.06	327.07
482.42	327.57
482.79	328.16
483.15	329.01
483.52	330.00
483.88	330.91
484.25	331.85
484.61	332.87
484.98	333.91
485.34	335.24
485.71	336.59
486.07	338.00
486.44	339.31
486.80	340.92
487.17	342.57
487.53	344.41
487.90	346.22
488.26	348.24
488.62	350.35
488.99	352.39
489.35	354.55
489.72	356.89
490.08	359.45
490.44	362.04
490.81	364.73
491.17	367.40
491.54	370.37
491.90	373.44
492.26	376.71
492.63	380.12
492.99	383.55
493.36	387.20
493.72	391.07
494.08	395.09
494.45	399.31
494.81	403.67
495.17	408.03
495.54	412.80
495.90	417.63
496.26	422.62
496.63	427.82
496.99	433.16
497.35	438.74
497.72	444.47
498.08	450.40
498.44	456.50
498.80	462.92
499.17	469.43
499.53	476.07
499.89	482.93
500.26	489.89
500.62	496.93
500.98	504.32
501.34	511.78
501.71	519.52
502.07	527.31
502.43	535.28
502.79	543.46
503.16	551.70
503.52	560.24
503.88	568.82
504.24	577.78
504.60	586.83
504.97	596.02
505.33	605.36
505.69	615.15
506.05	625.02
506.41	634.87
506.78	644.81
507.14	655.11
507.50	665.51
507.86	676.13
508.22	687.00
508.59	697.61
508.95	708.62
509.31	719.78
509.67	731.12
510.03	742.55
510.39	754.22
510.75	766.13
511.12	777.98
511.48	790.09
511.84	802.21
512.20	814.57
512.56	827.12
512.92	839.77
513.28	852.32
513.64	864.92
514.00	877.65
514.37	890.51
514.73	903.48
515.09	916.33
515.45	929.08
515.81	941.97
516.17	955.25
516.53	968.31
516.89	981.28
517.25	994.38
517.61	1007.65
517.97	1020.85
518.33	1033.87
518.69	1047.24
519.05	1060.76
519.41	1074.30
519.77	1087.87
520.13	1100.89
520.49	1113.90
520.85	1127.07
521.21	1140.17
521.57	1153.55
521.93	1166.62
522.29	1180.13
522.65	1193.60
523.01	1207.06
523.37	1219.94
523.73	1232.96
524.09	1245.83
524.45	1259.03
524.81	1272.23
525.17	1285.33
525.53	1298.21
525.89	1311.20
526.25	1324.11
526.61	1336.58
526.97	1349.35
527.33	1361.94
527.68	1375.14
528.04	1388.43
528.40	1401.30
528.76	1414.34
529.12	1426.93
529.48	1439.83
529.84	1451.86
530.20	1464.29
530.56	1476.54
530.91	1489.58
531.27	1502.10
531.63	1514.75
531.99	1527.21
532.35	1539.11
532.71	1551.23
533.07	1563.87
533.42	1575.77
533.78	1587.47
534.14	1599.21
534.50	1610.18
534.86	1621.57
535.21	1632.21
535.57	1643.21
535.93	1654.21
536.29	1665.05
536.65	1676.21
537.00	1686.81
537.36	1697.73
537.72	1708.40
538.08	1719.39
538.44	1729.86
538.79	1740.53
539.15	1750.99
539.51	1761.39
539.87	1772.46
540.22	1782.98
540.58	1793.40
540.94	1803.87
541.29	1813.90
541.65	1823.54
542.01	1833.81
542.37	1843.58
542.72	1853.47
543.08	1863.00
543.44	1873.04
543.79	1882.08
544.15	1891.21
544.51	1901.06
544.87	1910.73
545.22	1919.59
545.58	1928.25
545.94	1936.91
546.29	1945.35
546.65	1953.38
547.01	1961.40
547.36	1968.80
547.72	1976.29
548.07	1983.72
548.43	1991.23
548.79	1998.84
549.14	2006.68
549.50	2014.69
549.86	2022.19
550.21	2029.24
550.57	2036.58
550.92	2043.13
551.28	2050.43
551.64	2057.47
551.99	2064.63
552.35	2071.61
552.70	2078.27
553.06	2084.78
553.41	2090.86
553.77	2097.12
554.13	2103.37
554.48	2110.09
554.84	2116.93
555.19	2123.23
555.55	2129.76
555.90	2135.91
556.26	2142.54
556.61	2148.26
556.97	2152.99
557.32	2158.77
557.68	2165.07
558.03	2170.86
558.39	2175.97
558.74	2181.69
559.10	2187.28
559.45	2192.83
559.81	2198.29
560.16	2203.81
560.52	2209.75
560.87	2216.13
561.23	2222.04
561.58	2228.78
561.94	2234.02
562.29	2238.94
562.64	2245.04
563.00	2250.46
563.35	2256.01
563.71	2261.93
564.06	2267.80
564.42	2273.82
564.77	2278.91
565.12	2284.17
565.48	2289.34
565.83	2295.08
566.19	2300.54
566.54	2305.83
566.89	2310.41
567.25	2315.01
567.60	2320.85
567.96	2325.98
568.31	2330.53
568.66	2334.74
569.02	2338.48
569.37	2342.30
569.72	2346.65
570.08	2350.25
570.43	2353.49
570.78	2356.82
571.14	2359.51
571.49	2362.69
571.84	2366.33
572.20	2369.34
572.55	2372.60
572.90	2375.05
573.26	2378.12
573.61	2380.79
573.96	2383.16
574.31	2385.37
574.67	2387.44
575.02	2388.52
575.37	2390.02
575.72	2391.15
576.08	2392.91
576.43	2393.49
576.78	2394.45
577.13	2396.42
577.49	2397.71
577.84	2399.32
578.19	2400.99
578.54	2401.89
578.90	2403.05
579.25	2403.27
579.60	2403.54
579.95	2403.08
580.30	2403.57
580.66	2402.98
581.01	2401.60
581.36	2399.78
581.71	2398.69
582.06	2397.95
582.42	2397.01
582.77	2395.19
583.12	2393.80
583.47	2392.73
583.82	2392.35
584.17	2391.20
584.53	2389.22
584.88	2387.48
585.23	2385.46
585.58	2383.30
585.93	2381.13
586.28	2379.10
586.63	2376.87
586.98	2374.86
587.34	2373.20
587.69	2371.02
588.04	2369.29
588.39	2368.03
588.74	2365.66
589.09	2363.14
589.44	2360.27
589.79	2358.31
590.14	2356.75
590.49	2354.15
590.84	2350.71
591.19	2347.98
591.54	2344.87
591.89	2340.96
592.25	2337.84
592.60	2333.99
592.95	2330.04
593.30	2326.19
593.65	2321.74
594.00	2317.39
594.35	2314.48
594.70	2309.87
595.05	2305.34
595.40	2299.95
595.75	2294.67
596.10	2291.15
596.45	2286.50
596.80	2281.95
597.15	2276.70
597.50	2270.82
597.85	2265.79
598.19	2260.48
598.54	2254.71
598.89	2249.79
599.24	2245.36
599.59	2239.44
599.94	2233.88
600.29	2228.15
600.64	2222.34
600.99	2216.00
601.34	2210.84
601.69	2203.98
602.04	2197.69
602.39	2191.30
602.74	2185.53
603.08	2179.99
603.43	2173.47
603.78	2166.74
604.13	2159.60
604.48	2152.55
604.83	2146.66
605.18	2140.55
605.53	2133.79
605.87	2126.74
606.22	2120.01
606.57	2112.18
606.92	2104.42
607.27	2097.43
607.62	2090.86
607.96	2084.00
608.31	2077.49
608.66	2069.74
609.01	2062.27
609.36	2055.17
609.70	2047.46
610.05	2039.68
610.40	2031.35
610.75	2023.39
611.10	2015.76
611.44	2007.33
611.79	1998.59
612.14	1988.41
612.49	1977.88
612.83	1968.71
613.18	1959.67
613.53	1950.29
613.88	1940.85
614.22	1932.25
614.57	1922.31
614.92	1911.86
615.27	1901.75
615.61	1891.85
615.96	1882.20
616.31	1872.54
616.65	1863.22
617.00	1853.37
617.35	1843.76
617.70	1833.99
618.04	1823.71
618.39	1813.35
618.74	1803.50
619.08	1793.99
619.43	1785.30
619.78	1777.17
620.12	1768.34
620.47	1758.48
620.82	1748.25
621.16	1738.40
621.51	1728.39
621.85	1718.50
622.20	1707.93
622.55	1697.26
622.89	1687.45
623.24	1677.81
623.59	1668.13
623.93	1658.01
624.28	1648.29
624.62	1638.06
624.97	1627.79
625.32	1618.17
625.66	1609.39
626.01	1600.53
626.35	1591.04
626.70	1580.94
627.04	1570.78
627.39	1560.82
627.73	1551.49
628.08	1542.37
628.43	1532.79
628.77	1523.68
629.12	1514.92
629.46	1507.04
629.81	1498.55
630.15	1488.74
630.50	1478.70
630.84	1468.18
631.19	1458.25
631.53	1448.74
631.88	1438.51
632.22	1428.58
632.57	1419.18
632.91	1408.93
633.26	1399.01
633.60	1389.36
633.95	1380.09
634.29	1370.66
634.64	1361.15
634.98	1351.35
635.32	1342.00
635.67	1333.39
636.01	1323.96
636.36	1314.11
636.70	1304.47
637.05	1295.15
637.39	1286.22
637.73	1277.73
638.08	1270.15
638.42	1261.75
638.77	1253.01
639.11	1244.77
639.45	1236.79
639.80	1228.02
640.14	1219.50
640.49	1210.62
640.83	1201.86
641.17	1193.70
641.52	1185.41
641.86	1176.89
642.20	1169.00
642.55	1160.44
642.89	1151.58
643.23	1142.89
643.58	1134.77
643.92	1125.75
644.26	1117.07
644.61	1108.62
644.95	1099.77
645.29	1090.38
645.64	1081.37
645.98	1073.05
646.32	1065.14
646.66	1056.61
647.01	1048.24
647.35	1039.97
647.69	1031.62
648.04	1023.19
648.38	1014.25
648.72	1005.49
649.06	997.02
649.41	988.79
649.75	980.79
650.09	972.95
650.43	964.92
650.78	956.66
651.12	949.05
651.46	941.71
651.80	934.47
652.14	927.09
652.49	919.64
652.83	912.33
653.17	904.53
653.51	896.90
653.85	889.68
654.20	882.47
654.54	874.89
654.88	867.81
655.22	860.70
655.56	853.76
655.90	846.99
656.25	840.32
656.59	833.31
656.93	826.32
657.27	819.27
657.61	812.38
657.95	806.41
658.29	800.55
658.64	794.40
658.98	787.98
659.32	781.53
659.66	775.29
660.00	769.00
660.34	762.98
660.68	757.00
661.02	750.80
661.36	744.93
661.70	739.22
662.05	733.49
662.39	728.10
662.73	722.78
663.07	717.44
663.41	711.94
663.75	706.40
664.09	700.81
664.43	695.42
664.77	690.14
665.11	684.27
665.45	678.38
665.79	672.58
666.13	666.93
666.47	661.44
666.81	656.14
667.15	650.83
667.49	645.70
667.83	640.39
668.17	635.20
668.51	630.13
668.85	625.27
669.19	620.45
669.53	615.44
669.87	610.38
670.21	605.64
670.55	600.94
670.89	596.57
671.23	592.37
671.57	588.04
671.91	583.74
672.25	579.69
672.58	575.63
672.92	571.64
673.26	567.75
673.60	563.96
673.94	560.15
674.28	556.51
674.62	552.77
674.96	549.14
675.30	545.67
675.64	542.06
675.97	538.57
676.31	535.07
676.65	531.54
676.99	528.17
677.33	524.48
677.67	520.89
678.01	517.10
678.34	513.43
678.68	509.92
679.02	506.35
679.36	502.65
679.70	499.06
680.04	495.67
680.37	492.35
680.71	489.11
681.05	486.01
681.39	482.88
681.73	479.81
682.06	476.80
682.40	473.71
682.74	470.57
683.08	467.35
683.42	464.18
683.75	461.24
684.09	458.26
684.43	455.43
684.77	452.54
685.10	449.72
685.44	446.93
685.78	444.06
686.12	441.37
686.45	438.72
686.79	436.10
687.13	433.53
687.46	430.91
687.80	428.27
688.14	425.49
688.48	422.84
688.81	420.23
689.15	417.76
689.49	415.21
689.82	412.74
690.16	410.24
690.50	407.83
690.83	405.37
691.17	402.89
691.51	400.53
691.84	398.40
692.18	396.26
692.52	394.06
692.85	392.00
693.19	389.95
693.52	387.79
693.86	385.65
694.20	383.55
694.53	381.47
694.87	379.30
695.21	377.22
695.54	375.15
695.88	373.01
696.21	370.80
696.55	368.77
696.88	366.80
697.22	364.92
697.56	363.06
697.89	361.26
698.23	359.57
698.56	357.85
698.90	356.06
699.23	354.15
699.57	352.34
699.90	350.50
700.24	348.74
700.58	347.08
700.91	345.44
701.25	343.89
701.58	342.36
701.92	340.84
702.25	339.26
702.59	337.70
702.92	336.25
703.26	334.75
703.59	333.33
703.93	332.08
704.26	330.63
704.60	329.16
704.93	327.71
705.26	326.20
705.60	324.78
705.93	323.33
706.27	322.07
706.60	320.87
706.94	319.69
707.27	318.31
707.61	316.96
707.94	315.67
708.27	314.18
708.61	312.73
708.94	311.40
709.28	310.22
709.61	309.03
709.94	307.83
710.28	306.62
710.61	305.44
710.95	304.05
711.28	302.99
711.61	301.87
711.95	300.77
712.28	299.64
712.61	298.43
712.95	297.40
713.28	296.38
713.61	295.24
713.95	294.13
714.28	293.17
714.61	292.15
714.95	291.21
715.28	290.23
715.61	289.29
715.95	288.31
716.28	287.33
716.61	286.37
716.95	285.40
717.28	284.51
717.61	283.55
717.94	282.69
718.28	281.70
718.61	280.84
718.94	279.91
719.27	279.13
719.61	278.33
719.94	277.44
720.27	276.53
720.60	275.69
720.94	274.94
721.27	274.16
721.60	273.52
721.93	272.80
722.27	272.21
722.60	271.52
722.93	270.89
723.26	270.23
723.59	269.57
723.93	268.95
724.26	268.33
724.59	267.75
724.92	267.18
725.25	266.69
725.59	266.18
725.92	265.69
726.25	265.11
726.58	264.56
726.91	264.03
727.24	263.49
727.57	262.92
727.91	262.32
728.24	261.82
728.57	261.20
728.90	260.66
729.23	260.08
729.56	259.69
729.89	259.16
730.22	258.60
730.55	258.07
730.89	257.55
731.22	257.04
731.55	256.52
731.88	256.02
732.21	255.46
732.54	254.94
732.87	254.45
733.20	253.92
733.53	253.44
733.86	253.03
734.19	252.56
734.52	252.18
734.85	251.90
735.18	251.43
735.51	251.07
735.84	250.62
736.17	250.26
736.50	249.72
736.83	249.56
737.16	249.19
737.49	248.83
737.82	248.43
738.15	248.13
738.48	247.77
738.81	247.37
739.14	246.99
739.47	246.62
739.80	246.25
740.13	245.95
740.46	245.61
740.79	245.22
741.12	244.87
741.45	244.53
741.78	244.06
742.11	243.80
742.44	243.45
742.77	243.19
743.10	242.85
743.43	242.52
743.75	241.98
744.08	241.94
744.41	241.59
744.74	241.28
745.07	240.89
745.40	240.62
745.73	240.40
746.06	240.10
746.39	239.78
746.71	239.44
747.04	239.11
747.37	238.80
747.70	238.50
748.03	238.23
748.36	237.97
748.68	237.72
749.01	237.34
749.34	237.04
749.67	236.75
750.00	236.45
750.33	236.33
750.65	236.08
750.98	235.59
751.31	235.36
751.64	235.13
751.97	235.01
752.29	234.74
752.62	234.38
752.95	234.12
753.28	233.86
753.60	233.64
753.93	233.52
754.26	233.31
754.59	233.06
754.91	232.81
755.24	232.55
755.57	232.34
755.90	232.15
756.22	231.93
756.55	231.71
756.88	231.47
757.20	231.13
757.53	230.91
757.86	230.73
758.19	230.55
758.51	230.36
758.84	230.06
759.17	229.87
759.49	229.73
759.82	229.68
760.15	229.54
760.47	229.35
760.80	229.05
761.13	228.91
761.45	228.74
761.78	228.58
762.11	228.43
762.43	228.26
762.76	228.09
763.08	227.94
763.41	227.80
763.74	227.68
764.06	227.55
764.39	227.38
764.71	227.18
765.04	227.00
765.37	226.85
765.69	226.73
766.02	226.59
766.34	226.45
766.67	226.24
767.00	226.15
767.32	226.13
767.65	226.12
767.97	225.96
768.30	225.84
768.62	225.72
768.95	225.59
769.27	225.45
769.60	225.36
769.92	225.24
770.25	225.06
770.57	224.90
770.90	224.78
771.22	224.63
771.55	224.56
771.87	224.46
772.20	224.33
772.52	224.38
772.85	224.55
773.17	224.46
773.50	224.34
773.82	224.17
774.15	223.99
774.47	223.79
774.80	223.68
775.12	223.57
775.45	223.49
775.77	223.40
776.09	223.32
776.42	223.21
776.74	223.17
777.07	223.08
777.39	223.04
777.72	222.90
778.04	222.89
778.36	222.78
778.69	222.69
779.01	222.62
779.33	222.39
779.66	222.03
779.98	221.91
780.31	221.83
780.63	221.87
780.95	221.79
781.28	221.72
781.60	221.62
781.92	221.56
782.25	221.48
782.57	221.41
782.89	221.31
783.22	221.22
783.54	221.10
783.86	221.06
784.19	220.96
784.51	221.00
784.83	220.87
785.16	220.76
785.48	220.71
785.80	220.67
786.12	220.58
786.45	220.57
786.77	220.55
787.09	220.47
787.42	220.33
787.74	220.30
788.06	220.29
788.38	220.24
788.71	220.17
789.03	220.10
789.35	220.09
789.67	220.06
789.99	220.05
790.32	220.00
790.64	219.99
790.96	220.09
791.28	219.96
791.61	219.91
791.93	219.93
792.25	219.86
792.57	219.95
792.89	219.88
793.21	219.84
793.54	219.78
793.86	219.72
794.18	219.68
794.50	219.61
794.82	219.51
795.14	219.51
795.47	219.53
795.79	219.52
796.11	219.45
796.43	219.36
796.75	219.30
797.07	219.26
797.39	219.22
797.71	219.04
798.04	219.04
798.36	219.02
798.68	218.95
799.00	218.94
799.32	218.79
799.64	218.78
799.96	218.71
800.28	218.71
800.60	218.65
800.92	218.60
801.24	218.56
801.56	218.54
801.89	218.50
802.21	218.48
802.53	218.40
802.85	218.38
803.17	218.47
803.49	218.40
803.81	218.37
804.13	218.33
804.45	218.26
804.77	218.21
805.09	218.23
805.41	218.20
805.73	218.15
806.05	218.09
806.37	218.05
806.69	218.04
807.01	217.99
807.33	218.00
807.65	217.95
807.97	218.01
808.28	217.99
808.60	217.96
808.92	217.92
809.24	218.06
809.56	218.01
809.88	217.88
810.20	217.87
810.52	217.86
810.84	217.82
811.16	217.81
811.48	217.80
811.80	217.82
812.12	217.78
812.43	217.79
812.75	217.77
813.07	217.73
813.39	217.73
813.71	217.70
814.03	217.63
814.35	217.62
814.67	217.49
814.98	217.44
815.30	217.41
815.62	217.34
815.94	217.16
816.26	217.17
816.58	217.14
816.89	217.14
817.21	217.07
817.53	217.07
817.85	217.05
818.17	217.01
818.48	216.90
818.80	216.94
819.12	216.90
819.44	216.87
819.76	216.84
820.07	216.83
820.39	216.82
820.71	216.86
821.03	216.82
821.34	216.82
821.66	216.83
821.98	216.83
822.30	216.82
822.61	216.92
822.93	216.88
823.25	216.87
823.57	216.83
823.88	216.85
824.20	216.81
824.52	216.85
824.83	216.84
825.15	216.83
825.47	216.79
825.79	216.80
826.10	216.77
826.42	216.74
826.74	216.73
827.05	216.70
827.37	216.72
827.69	216.72
828.00	216.70
828.32	216.71
828.64	216.67
828.95	216.75
829.27	216.68
829.58	216.66
829.90	216.71
830.22	216.71
830.53	216.67
830.85	216.68
831.17	216.57
831.48	216.57
831.80	216.57
832.11	216.57
832.43	216.54
832.75	216.52
833.06	216.64
833.38	216.59
833.69	216.54
834.01	216.49
834.32	216.49
834.64	216.46
834.96	216.42
835.27	216.40
835.59	216.32
835.90	216.26
836.22	216.26
836.53	216.19
836.85	216.19
837.16	216.36
837.48	216.33
837.79	216.43
838.11	216.44
838.42	216.44
838.74	216.46
839.05	216.40
839.37	216.43
839.68	216.30
840.00	216.30
840.31	216.35
840.63	216.36
840.94	216.35
841.26	216.32
841.57	216.34
841.88	216.34
842.20	216.35
842.51	216.33
842.83	216.32
843.14	216.54
843.46	216.49
843.77	216.40
844.08	216.39
844.40	216.30
844.71	216.27
845.03	216.24
845.34	216.19
845.65	216.20
845.97	216.18
846.28	216.19
846.60	216.19
846.91	216.13
847.22	216.10
847.54	216.12
847.85	216.12
848.16	216.09
848.48	216.07
848.79	216.13
849.10	216.15
849.42	216.13
849.73	215.89
850.04	215.90
850.36	215.80
850.67	215.84
850.98	215.86
851.30	215.86
851.61	215.83
851.92	215.84
852.23	215.91
852.55	215.91
852.86	215.89
853.17	215.89
853.49	215.96
853.80	215.97
854.11	215.97
854.42	216.01
854.74	215.97
855.05	215.98
855.36	215.86
855.67	215.87
855.99	215.86
856.30	216.11
856.61	216.11
856.92	216.12
857.23	216.09
857.55	216.07
857.86	216.06
858.17	216.09
858.48	216.05
858.79	215.99
859.11	216.00
859.42	216.02
859.73	216.00
860.04	215.96
860.35	215.92
860.66	215.85
860.98	215.83
861.29	215.85
861.60	215.84
861.91	215.92
862.22	215.90
862.53	215.86
862.84	215.62
863.16	215.70
863.47	215.65
863.78	215.64
864.09	215.64
864.40	215.65
864.71	215.64
865.02	215.65
865.33	215.59
865.64	215.55
865.95	215.54
866.27	215.67
866.58	215.67
866.89	215.67
867.20	215.68
867.51	215.64
867.82	215.60
868.13	215.66
868.44	215.59
868.75	215.62
869.06	215.64
869.37	215.66
869.68	215.56
869.99	215.63
870.30	215.61
870.61	215.62
870.92	215.58
871.23	215.61
871.54	215.63
871.85	215.69
872.16	215.71
872.47	215.68
872.78	215.52
873.09	215.47
873.40	215.47
873.71	215.48
874.02	215.51
874.33	215.51
874.64	215.46
874.95	215.48
875.26	215.41
875.56	215.41
875.87	215.39
876.18	215.36
876.49	215.54
876.80	215.53
877.11	215.51
877.42	215.49
877.73	215.44
878.04	215.42
878.35	215.41
878.66	215.41
878.96	215.39
879.27	215.40
879.58	215.45
879.89	215.44
880.20	215.48
880.51	215.45
880.82	215.47
881.12	215.47
881.43	215.45
881.74	215.45
882.05	215.44
882.36	215.45
882.67	215.50
882.97	215.30
883.28	215.27
883.59	215.28
883.90	215.31
884.21	215.35
884.51	215.32
884.82	215.29
885.13	215.30
885.44	215.30
885.74	215.30
886.05	215.27
886.36	215.29
886.67	215.20
886.98	215.27
887.28	215.28
887.59	215.27
887.90	215.26
888.20	215.26
888.51	215.29
888.82	215.25
889.13	215.26
889.43	215.43
889.74	215.44
890.05	215.42
890.35	215.42
890.66	215.39
890.97	215.41
891.28	215.38
891.58	215.39
891.89	215.42
892.20	215.43
892.50	215.42
892.81	215.39
893.12	215.40
893.42	215.35
893.73	215.36
894.04	215.36
894.34	215.37
894.65	215.36
894.95	215.33
895.26	215.33
895.57	215.41
895.87	215.19
896.18	215.22
896.48	215.20
896.79	215.19
897.10	215.24
897.40	215.23
897.71	215.27
898.01	215.24
898.32	215.25
898.63	215.24
898.93	215.26
899.24	215.29
899.54	215.29
899.85	215.28
900.15	215.29
900.46	215.30
900.76	215.34
901.07	215.33
901.38	215.31
901.68	215.34
901.99	215.24
902.29	215.30
902.60	215.26
902.90	215.25
903.21	215.23
903.51	215.18
903.82	215.24
904.12	215.24
904.43	215.27
904.73	215.25
905.03	215.26
905.34	215.43
905.64	215.40
905.95	215.41
906.25	215.40
906.56	215.39
906.86	215.38
907.17	215.35
907.47	215.38
907.77	215.37
908.08	215.34
908.38	215.36
908.69	215.35
908.99	215.39
909.30	215.43
909.60	215.43
909.90	215.44
910.21	215.34
910.51	215.29
910.81	215.28
911.12	215.27
911.42	215.26
911.73	215.07
912.03	215.09
912.33	215.13
912.64	215.13
912.94	215.10
913.24	215.07
913.55	215.08
913.85	215.05
914.15	215.12
914.46	215.14
914.76	215.11
915.06	215.11
915.37	215.08
915.67	215.08
915.97	215.10
916.27	215.07
916.58	215.11
916.88	215.14
917.18	215.11
917.49	215.24
917.79	215.24
918.09	215.28
918.39	215.33
918.70	215.32
919.00	215.29
919.30	215.37
919.60	215.35
919.91	215.31
920.21	215.35
920.51	215.25
920.81	215.26
921.12	215.29
921.42	215.28
921.72	215.30
922.02	215.30
922.32	215.34
922.63	215.36
922.93	215.44
923.23	215.40
923.53	215.39
923.83	215.28
924.13	215.30
924.44	215.29
924.74	215.34
925.04	215.38
925.34	215.39
925.64	215.30
925.94	215.29
926.24	215.40
926.55	215.36
926.85	215.41
927.15	215.41
927.45	215.41
927.75	215.43
928.05	215.43
928.35	215.43
928.65	215.44
928.95	215.46
929.26	215.40
929.56	215.47
929.86	215.51
930.16	215.48
930.46	215.46
930.76	215.46
931.06	215.38
931.36	215.33
931.66	215.40
931.96	215.42
932.26	215.44
932.56	215.37
932.86	215.42
933.16	215.43
933.46	215.38
933.76	215.36
934.06	215.39
934.36	215.44
934.66	215.47
934.96	215.43
935.26	215.41
935.56	215.45
935.86	215.37
936.16	215.34
936.46	215.34
936.76	215.34
937.06	215.32
937.36	215.28
937.66	215.28
937.96	215.26
938.26	215.22
938.56	215.21
938.86	215.21
939.16	215.23
939.46	215.24
939.76	215.27
940.06	215.27
940.35	215.24
940.65	215.13
940.95	215.10
941.25	215.08
941.55	215.06
941.85	215.06
942.15	215.13
942.45	215.17
942.75	215.15
943.04	215.16
943.34	215.19
943.64	215.17
943.94	215.14
944.24	215.11
944.54	215.15
944.84	215.13
945.13	215.12
945.43	215.05
945.73	215.05
946.03	215.02
946.33	215.00
946.62	214.97
946.92	214.99
947.22	215.04
947.52	215.06
947.82	215.11
948.11	215.05
948.41	214.99
948.71	214.93
949.01	214.94
949.31	214.93
949.60	214.89
949.90	214.92
950.20	214.94
950.50	214.94
950.79	214.91
951.09	214.92
951.39	214.91
951.69	214.91
951.98	214.94
952.28	214.94
952.58	214.91
952.87	214.93
953.17	214.96
953.47	214.91
953.76	214.89
954.06	214.83
954.36	214.80
954.66	214.83
954.95	214.89
955.25	214.94
955.55	214.95
955.84	214.94
956.14	214.95
956.44	214.94
956.73	214.94
957.03	214.96
957.32	214.97
957.62	214.97
957.92	215.03
958.21	215.00
958.51	215.26
958.81	215.29
959.10	215.30
959.40	215.34
959.69	215.37
959.99	215.42
960.29	215.41
960.58	215.44
960.88	215.51
961.17	215.49
961.47	215.45
961.76	215.42
962.06	215.48
962.36	215.46
962.65	215.46
962.95	215.46
963.24	215.42
963.54	215.44
963.83	215.45
964.13	215.41
964.42	215.37
964.72	215.21
965.01	215.21
965.31	215.18
965.60	215.09
965.90	215.20
966.19	215.15
966.49	215.18
966.78	215.16
967.08	215.12
967.37	215.10
967.67	215.09
967.96	215.13
968.26	215.11
968.55	215.15
968.85	215.16
969.14	215.15
969.43	215.17
969.73	215.15
970.02	215.15
970.32	215.15
970.61	215.16
970.91	215.06
971.20	215.01
971.49	215.04
971.79	215.07
972.08	214.92
972.38	214.91
972.67	214.89
972.96	214.92
973.26	214.90
973.55	214.96
973.85	214.95
974.14	214.91
974.43	214.90
974.73	214.86
975.02	214.84
975.31	214.86
975.61	214.84
975.90	214.81
976.19	214.79
976.49	214.81
976.78	214.81
977.07	214.82
977.37	214.87
977.66	214.85
977.95	214.80
978.24	214.86
978.54	214.90
978.83	214.90
979.12	214.88
979.42	214.86
979.71	214.85
980.00	214.86
980.29	214.88
980.59	214.84
980.88	214.87
981.17	214.85
981.46	214.85
981.76	214.86
982.05	214.92
982.34	214.92
982.63	214.91
982.93	214.92
983.22	214.97
983.51	214.96
983.80	214.98
984.09	215.03
984.39	214.98
984.68	214.97
984.97	214.97
985.26	214.98
985.55	215.01
985.85	214.95
986.14	215.00
986.43	215.05
986.72	215.06
987.01	215.01
987.30	215.00
987.59	214.97
987.89	214.99
988.18	214.92
988.47	214.91
988.76	214.85
989.05	214.84
989.34	214.82
989.63	214.87
989.92	214.87
990.22	214.85
990.51	214.85
990.80	214.79
991.09	214.78
991.38	214.79
991.67	214.76
991.96	214.74
992.25	214.67
992.54	214.61
992.83	214.59
993.12	214.60
993.41	214.66
993.70	214.77
993.99	214.79
994.28	214.86
994.58	214.86
994.87	214.84
995.16	214.84
995.45	214.83
995.74	214.76
996.03	214.76
996.32	214.79
996.61	214.84
996.90	214.88
997.19	214.89
997.48	214.87
997.77	214.85
998.06	214.87
998.34	214.90
998.63	214.90
998.92	214.92
999.21	214.94
999.50	214.97
999.79	214.89
1000.08	214.85
1000.37	214.80
1000.66	214.79
1000.95	214.88
1001.24	214.86
1001.53	214.88
1001.82	214.88
1002.11	214.82
1002.40	214.82
1002.68	214.85
1002.97	214.95
1003.26	214.92
1003.55	214.90
1003.84	214.94
1004.13	215.04
1004.42	215.01
1004.71	215.02
1004.99	215.03
1005.28	215.07
1005.57	215.00
1005.86	214.99
1006.15	214.99
1006.44	214.96
1006.72	215.01
1007.01	214.96
1007.30	214.97
1007.59	214.94
1007.88	214.94
1008.17	214.95
1008.45	214.90
1008.74	214.83
1009.03	214.76
1009.32	214.78
1009.60	214.78
1009.89	214.76
1010.18	214.66
1010.47	214.64
1010.76	214.65
1011.04	214.62
1011.33	214.63
1011.62	214.66
1011.91	214.64
1012.19	214.66
1012.48	214.70
1012.77	214.68
1013.05	214.82
1013.34	214.83
1013.63	214.84
1013.92	214.88
1014.20	214.88
1014.49	214.92
1014.78	214.96
1015.06	214.90
1015.35	214.88
1015.64	214.93
1015.92	214.93
1016.21	214.96
1016.50	215.00
1016.78	214.98
1017.07	215.00
1017.36	214.95
1017.64	214.93
1017.93	214.96
1018.22	214.97
1018.50	214.97
1018.79	214.97
1019.08	214.87
1019.36	214.85
1019.65	214.84
1019.93	214.89
1020.22	214.92
1020.51	215.01
1020.79	214.97
1021.08	214.86
1021.36	214.94
1021.65	214.78
1021.94	215.07
1022.22	214.66
1022.51	214.57
1022.79	216.30
1023.08	214.74
1023.36	217.44
1023.65	214.61
>>>>>End Processed Spectral Data<<<<<
