SpectraSuite Data File
++++++++++++++++++++++++++++++++++++
Date: Tue Jan 29 16:13:31 EST 2013
User: group
Dark Spectrum Present: No
Reference Spectrum Present: No
Number of Sampled Component Spectra: 1
Spectrometers: USB2E7196
Integration Time (usec): 65000 (USB2E7196)
Spectra Averaged: 100 (USB2E7196)
Boxcar Smoothing: 10 (USB2E7196)
Correct for Electrical Dark: No (USB2E7196)
Strobe/Lamp Enabled: No (USB2E7196)
Correct for Detector Non-linearity: No (USB2E7196)
Correct for Stray Light: No (USB2E7196)
Number of Pixels in Processed Spectrum: 2048
>>>>>Begin Processed Spectral Data<<<<<
339.09	0.00
339.48	202.09
339.86	204.29
340.24	205.33
340.63	206.29
341.01	211.18
341.39	209.33
341.78	210.99
342.16	212.10
342.54	212.49
342.93	201.60
343.31	211.77
343.69	212.31
344.07	212.76
344.46	213.19
344.84	213.61
345.22	213.76
345.60	214.01
345.99	214.20
346.37	214.30
346.75	214.40
347.13	214.48
347.52	214.50
347.90	214.59
348.28	214.62
348.66	214.71
349.05	214.67
349.43	214.74
349.81	214.83
350.19	214.88
350.57	214.96
350.96	215.03
351.34	215.15
351.72	215.22
352.10	215.34
352.48	215.43
352.87	215.48
353.25	215.55
353.63	215.64
354.01	215.72
354.39	215.86
354.77	215.95
355.15	216.07
355.54	216.13
355.92	216.17
356.30	216.24
356.68	216.44
357.06	216.53
357.44	216.57
357.82	216.61
358.20	216.67
358.58	216.73
358.97	216.84
359.35	216.94
359.73	217.08
360.11	217.11
360.49	217.16
360.87	217.22
361.25	217.29
361.63	217.40
362.01	217.45
362.39	217.46
362.77	217.54
363.15	217.58
363.53	217.66
363.91	217.70
364.29	217.74
364.67	217.58
365.05	217.62
365.43	217.65
365.81	217.73
366.19	217.80
366.57	217.88
366.95	217.87
367.33	217.84
367.71	217.86
368.09	217.91
368.47	217.92
368.85	217.90
369.23	217.97
369.61	217.90
369.99	217.95
370.37	217.98
370.75	218.03
371.13	217.97
371.51	217.89
371.89	217.89
372.27	217.88
372.65	217.85
373.03	217.85
373.41	217.84
373.78	217.80
374.16	217.69
374.54	217.63
374.92	217.58
375.30	217.55
375.68	217.45
376.06	217.43
376.44	217.39
376.82	217.39
377.19	217.32
377.57	217.27
377.95	217.18
378.33	217.09
378.71	216.93
379.09	216.91
379.47	216.90
379.84	216.81
380.22	216.77
380.60	216.71
380.98	216.63
381.36	216.60
381.73	216.54
382.11	216.55
382.49	216.47
382.87	216.44
383.25	216.42
383.62	216.62
384.00	216.51
384.38	216.46
384.76	216.45
385.13	216.46
385.51	216.40
385.89	216.34
386.27	216.32
386.64	216.34
387.02	216.29
387.40	216.22
387.78	216.21
388.15	216.15
388.53	216.07
388.91	216.03
389.29	215.93
389.66	215.92
390.04	215.84
390.42	215.87
390.79	215.83
391.17	215.79
391.55	215.57
391.92	215.58
392.30	215.62
392.68	215.56
393.05	215.54
393.43	215.54
393.81	215.55
394.18	215.52
394.56	215.50
394.94	215.55
395.31	215.57
395.69	215.64
396.06	215.68
396.44	215.75
396.82	215.79
397.19	215.94
397.57	215.91
397.95	216.01
398.32	215.98
398.70	216.03
399.07	216.12
399.45	216.12
399.82	216.16
400.20	216.16
400.58	216.23
400.95	216.21
401.33	216.33
401.70	216.54
402.08	216.62
402.45	216.72
402.83	216.85
403.20	216.98
403.58	217.04
403.95	217.21
404.33	217.36
404.71	217.48
405.08	217.74
405.46	217.92
405.83	218.08
406.21	218.26
406.58	218.48
406.96	218.65
407.33	218.91
407.70	219.18
408.08	219.64
408.45	220.00
408.83	220.41
409.20	220.74
409.58	221.00
409.95	221.44
410.33	221.92
410.70	222.32
411.08	222.82
411.45	223.38
411.82	223.94
412.20	224.62
412.57	225.43
412.95	225.95
413.32	226.77
413.69	227.60
414.07	228.49
414.44	229.46
414.82	230.48
415.19	231.67
415.56	232.81
415.94	233.95
416.31	235.28
416.68	236.58
417.06	238.13
417.43	239.65
417.81	241.36
418.18	243.05
418.55	244.93
418.93	246.92
419.30	248.97
419.67	251.10
420.04	253.28
420.42	255.59
420.79	258.34
421.16	261.05
421.54	263.87
421.91	266.74
422.28	269.75
422.66	272.96
423.03	276.02
423.40	279.27
423.77	282.73
424.15	286.25
424.52	289.99
424.89	294.01
425.26	297.92
425.64	301.64
426.01	305.80
426.38	310.08
426.75	314.46
427.13	319.01
427.50	323.80
427.87	328.81
428.24	333.81
428.61	338.66
428.99	344.01
429.36	349.81
429.73	355.51
430.10	361.19
430.47	367.07
430.85	373.21
431.22	379.67
431.59	386.58
431.96	393.15
432.33	400.40
432.70	407.36
433.08	415.60
433.45	423.39
433.82	431.12
434.19	439.74
434.56	448.14
434.93	456.18
435.30	464.20
435.68	473.10
436.05	481.74
436.42	490.25
436.79	498.03
437.16	506.48
437.53	515.40
437.90	524.19
438.27	532.76
438.64	541.64
439.01	549.88
439.38	557.13
439.75	564.25
440.13	572.34
440.50	580.14
440.87	586.30
441.24	592.74
441.61	599.82
441.98	605.03
442.35	611.16
442.72	617.28
443.09	623.08
443.46	626.61
443.83	629.08
444.20	631.26
444.57	634.33
444.94	635.74
445.31	637.07
445.68	638.40
446.05	638.99
446.42	638.26
446.79	637.33
447.16	636.32
447.53	635.55
447.90	632.37
448.27	629.11
448.64	624.65
449.01	621.37
449.37	615.68
449.74	610.22
450.11	603.55
450.48	596.39
450.85	589.23
451.22	583.01
451.59	577.07
451.96	571.44
452.33	563.85
452.70	556.98
453.07	548.82
453.43	540.54
453.80	532.55
454.17	524.81
454.54	517.53
454.91	509.63
455.28	501.95
455.65	494.77
456.02	487.51
456.38	481.44
456.75	473.92
457.12	467.60
457.49	461.25
457.86	455.28
458.23	450.13
458.59	444.44
458.96	438.71
459.33	433.63
459.70	428.46
460.07	424.38
460.43	419.70
460.80	415.27
461.17	411.44
461.54	407.38
461.91	403.54
462.27	399.60
462.64	396.29
463.01	392.65
463.38	389.11
463.74	385.56
464.11	382.39
464.48	379.64
464.85	376.67
465.21	374.35
465.58	371.79
465.95	368.73
466.32	366.16
466.68	363.66
467.05	361.18
467.42	358.70
467.78	356.05
468.15	353.57
468.52	351.80
468.88	349.46
469.25	347.37
469.62	345.61
469.98	343.77
470.35	342.07
470.72	340.42
471.08	338.71
471.45	337.26
471.82	335.80
472.18	334.20
472.55	333.03
472.92	331.74
473.28	330.63
473.65	329.56
474.02	328.52
474.38	327.60
474.75	326.83
475.11	326.06
475.48	325.57
475.85	325.15
476.21	324.69
476.58	324.32
476.94	324.12
477.31	323.85
477.67	323.59
478.04	323.44
478.41	323.45
478.77	323.64
479.14	323.67
479.50	323.86
479.87	324.21
480.23	324.54
480.60	324.76
480.96	325.05
481.33	325.67
481.69	326.23
482.06	326.78
482.42	327.36
482.79	327.95
483.15	328.74
483.52	329.70
483.88	330.61
484.25	331.58
484.61	332.60
484.98	333.68
485.34	335.04
485.71	336.42
486.07	337.86
486.44	339.19
486.80	340.75
487.17	342.39
487.53	344.24
487.90	346.06
488.26	348.08
488.62	350.22
488.99	352.20
489.35	354.36
489.72	356.71
490.08	359.14
490.44	361.71
490.81	364.39
491.17	367.07
491.54	370.01
491.90	373.01
492.26	376.20
492.63	379.56
492.99	383.02
493.36	386.69
493.72	390.56
494.08	394.52
494.45	398.75
494.81	403.12
495.17	407.55
495.54	412.26
495.90	417.08
496.26	421.98
496.63	427.19
496.99	432.59
497.35	438.11
497.72	443.90
498.08	449.79
498.44	455.90
498.80	462.32
499.17	468.78
499.53	475.45
499.89	482.34
500.26	489.29
500.62	496.30
500.98	503.67
501.34	511.11
501.71	518.84
502.07	526.61
502.43	534.56
502.79	542.61
503.16	550.93
503.52	559.51
503.88	568.24
504.24	577.16
504.60	586.13
504.97	595.33
505.33	604.61
505.69	614.47
506.05	624.32
506.41	634.06
506.78	644.08
507.14	654.26
507.50	664.57
507.86	675.22
508.22	685.93
508.59	696.49
508.95	707.44
509.31	718.69
509.67	729.97
510.03	741.28
510.39	752.95
510.75	764.70
511.12	776.47
511.48	788.49
511.84	800.59
512.20	812.91
512.56	825.49
512.92	838.20
513.28	850.68
513.64	863.18
514.00	875.92
514.37	888.70
514.73	901.71
515.09	914.57
515.45	927.29
515.81	940.16
516.17	953.39
516.53	966.41
516.89	979.25
517.25	992.31
517.61	1005.64
517.97	1018.86
518.33	1031.82
518.69	1045.21
519.05	1058.61
519.41	1072.07
519.77	1085.66
520.13	1098.75
520.49	1111.69
520.85	1124.88
521.21	1138.03
521.57	1151.50
521.93	1164.43
522.29	1177.88
522.65	1191.30
523.01	1204.57
523.37	1217.48
523.73	1230.48
524.09	1243.46
524.45	1256.62
524.81	1269.87
525.17	1282.92
525.53	1295.85
525.89	1308.91
526.25	1321.68
526.61	1334.34
526.97	1347.20
527.33	1359.80
527.68	1372.90
528.04	1386.04
528.40	1398.81
528.76	1411.80
529.12	1424.26
529.48	1437.21
529.84	1449.20
530.20	1461.63
530.56	1474.05
530.91	1486.95
531.27	1499.55
531.63	1512.06
531.99	1524.54
532.35	1536.48
532.71	1548.62
533.07	1561.09
533.42	1572.93
533.78	1584.69
534.14	1596.38
534.50	1607.27
534.86	1618.53
535.21	1629.11
535.57	1640.16
535.93	1651.17
536.29	1662.04
536.65	1673.24
537.00	1683.90
537.36	1694.89
537.72	1705.64
538.08	1716.61
538.44	1727.24
538.79	1737.93
539.15	1748.39
539.51	1758.80
539.87	1769.81
540.22	1780.40
540.58	1790.96
540.94	1801.58
541.29	1811.63
541.65	1821.16
542.01	1831.43
542.37	1841.25
542.72	1851.15
543.08	1860.77
543.44	1870.93
543.79	1880.02
544.15	1889.19
544.51	1898.96
544.87	1908.56
545.22	1917.39
545.58	1925.96
545.94	1934.57
546.29	1942.81
546.65	1950.86
547.01	1958.73
547.36	1966.18
547.72	1973.67
548.07	1981.15
548.43	1988.67
548.79	1996.29
549.14	2004.05
549.50	2012.14
549.86	2019.57
550.21	2026.66
550.57	2034.11
550.92	2040.66
551.28	2047.86
551.64	2054.82
551.99	2062.17
552.35	2069.09
552.70	2075.87
553.06	2082.30
553.41	2088.50
553.77	2094.83
554.13	2101.12
554.48	2108.00
554.84	2114.81
555.19	2121.08
555.55	2127.41
555.90	2133.48
556.26	2140.05
556.61	2145.92
556.97	2150.69
557.32	2156.60
557.68	2162.97
558.03	2168.58
558.39	2173.76
558.74	2179.62
559.10	2185.09
559.45	2190.46
559.81	2195.98
560.16	2201.52
560.52	2207.43
560.87	2213.68
561.23	2219.76
561.58	2226.34
561.94	2231.48
562.29	2236.24
562.64	2242.38
563.00	2247.88
563.35	2253.52
563.71	2259.38
564.06	2265.14
564.42	2271.17
564.77	2276.18
565.12	2281.39
565.48	2286.62
565.83	2292.16
566.19	2297.60
566.54	2303.11
566.89	2307.67
567.25	2312.20
567.60	2317.82
567.96	2323.11
568.31	2327.75
568.66	2331.75
569.02	2335.71
569.37	2339.48
569.72	2343.98
570.08	2347.58
570.43	2350.79
570.78	2353.76
571.14	2356.53
571.49	2359.67
571.84	2363.24
572.20	2366.31
572.55	2369.24
572.90	2371.53
573.26	2374.54
573.61	2377.11
573.96	2379.31
574.31	2381.53
574.67	2383.66
575.02	2384.49
575.37	2385.82
575.72	2386.75
576.08	2388.40
576.43	2388.78
576.78	2389.66
577.13	2391.49
577.49	2392.66
577.84	2393.96
578.19	2395.51
578.54	2396.27
578.90	2397.31
579.25	2397.37
579.60	2397.55
579.95	2397.13
580.30	2397.46
580.66	2396.81
581.01	2395.30
581.36	2393.24
581.71	2391.95
582.06	2391.08
582.42	2390.51
582.77	2388.54
583.12	2387.10
583.47	2385.99
583.82	2385.53
584.17	2384.45
584.53	2382.30
584.88	2380.48
585.23	2378.62
585.58	2376.57
585.93	2374.33
586.28	2372.30
586.63	2370.00
586.98	2367.89
587.34	2366.23
587.69	2364.10
588.04	2362.31
588.39	2361.11
588.74	2358.81
589.09	2356.35
589.44	2353.32
589.79	2351.04
590.14	2349.40
590.49	2346.75
590.84	2343.25
591.19	2340.28
591.54	2337.10
591.89	2333.27
592.25	2330.01
592.60	2326.01
592.95	2322.09
593.30	2318.17
593.65	2313.93
594.00	2309.61
594.35	2306.56
594.70	2301.88
595.05	2297.38
595.40	2292.00
595.75	2286.51
596.10	2282.93
596.45	2278.21
596.80	2273.65
597.15	2268.48
597.50	2262.52
597.85	2257.81
598.19	2252.58
598.54	2246.89
598.89	2242.05
599.24	2237.70
599.59	2231.76
599.94	2226.27
600.29	2220.49
600.64	2214.72
600.99	2208.08
601.34	2202.73
601.69	2195.89
602.04	2189.70
602.39	2183.18
602.74	2177.26
603.08	2171.76
603.43	2165.40
603.78	2158.73
604.13	2151.76
604.48	2144.74
604.83	2138.75
605.18	2132.49
605.53	2125.63
605.87	2118.72
606.22	2111.75
606.57	2103.80
606.92	2096.02
607.27	2089.06
607.62	2082.39
607.96	2075.44
608.31	2068.96
608.66	2061.30
609.01	2053.87
609.36	2046.76
609.70	2039.04
610.05	2031.54
610.40	2023.31
610.75	2015.13
611.10	2007.58
611.44	1999.01
611.79	1990.26
612.14	1980.50
612.49	1970.04
612.83	1960.93
613.18	1951.85
613.53	1942.60
613.88	1933.18
614.22	1924.56
614.57	1914.63
614.92	1904.28
615.27	1894.19
615.61	1884.45
615.96	1874.83
616.31	1865.28
616.65	1856.06
617.00	1846.37
617.35	1836.62
617.70	1826.95
618.04	1816.85
618.39	1806.39
618.74	1796.60
619.08	1787.06
619.43	1778.35
619.78	1770.11
620.12	1761.47
620.47	1751.75
620.82	1741.52
621.16	1731.78
621.51	1721.78
621.85	1711.97
622.20	1701.57
622.55	1691.02
622.89	1681.05
623.24	1671.39
623.59	1661.59
623.93	1651.50
624.28	1641.86
624.62	1631.74
624.97	1621.42
625.32	1611.71
625.66	1603.06
626.01	1594.20
626.35	1584.79
626.70	1574.66
627.04	1564.52
627.39	1554.44
627.73	1545.17
628.08	1536.10
628.43	1526.41
628.77	1517.27
629.12	1508.59
629.46	1500.69
629.81	1492.34
630.15	1482.69
630.50	1472.94
630.84	1462.59
631.19	1452.67
631.53	1443.25
631.88	1433.11
632.22	1423.28
632.57	1413.93
632.91	1403.73
633.26	1394.00
633.60	1384.58
633.95	1375.35
634.29	1365.92
634.64	1356.56
634.98	1346.69
635.32	1337.54
635.67	1329.06
636.01	1319.91
636.36	1310.01
636.70	1300.53
637.05	1291.19
637.39	1282.36
637.73	1273.73
638.08	1266.27
638.42	1257.95
638.77	1249.14
639.11	1240.93
639.45	1232.99
639.80	1224.44
640.14	1215.82
640.49	1207.03
640.83	1198.14
641.17	1190.14
641.52	1182.04
641.86	1173.52
642.20	1165.68
642.55	1157.11
642.89	1148.33
643.23	1139.68
643.58	1131.70
643.92	1122.66
644.26	1114.09
644.61	1105.70
644.95	1096.92
645.29	1087.58
645.64	1078.56
645.98	1070.33
646.32	1062.45
646.66	1054.01
647.01	1045.61
647.35	1037.55
647.69	1029.19
648.04	1020.94
648.38	1012.05
648.72	1003.30
649.06	994.90
649.41	986.81
649.75	978.85
650.09	970.97
650.43	963.00
650.78	954.72
651.12	947.16
651.46	939.74
651.80	932.48
652.14	925.25
652.49	917.85
652.83	910.62
653.17	902.86
653.51	895.32
653.85	888.11
654.20	881.01
654.54	873.57
654.88	866.51
655.22	859.39
655.56	852.39
655.90	845.64
656.25	838.97
656.59	832.01
656.93	825.07
657.27	818.12
657.61	811.18
657.95	805.19
658.29	799.38
658.64	793.34
658.98	786.94
659.32	780.49
659.66	774.24
660.00	767.91
660.34	762.00
660.68	755.91
661.02	749.70
661.36	743.84
661.70	738.07
662.05	732.41
662.39	727.04
662.73	721.79
663.07	716.53
663.41	711.04
663.75	705.51
664.09	699.96
664.43	694.57
664.77	689.39
665.11	683.59
665.45	677.73
665.79	672.01
666.13	666.38
666.47	660.91
666.81	655.68
667.15	650.38
667.49	645.22
667.83	640.09
668.17	634.97
668.51	629.90
668.85	625.13
669.19	620.29
669.53	615.30
669.87	610.29
670.21	605.50
670.55	600.83
670.89	596.45
671.23	592.21
671.57	587.96
671.91	583.71
672.25	579.74
672.58	575.62
672.92	571.58
673.26	567.74
673.60	563.92
673.94	560.15
674.28	556.63
674.62	552.92
674.96	549.21
675.30	545.71
675.64	542.18
675.97	538.58
676.31	535.08
676.65	531.51
676.99	528.06
677.33	524.36
677.67	520.83
678.01	517.04
678.34	513.47
678.68	509.98
679.02	506.44
679.36	502.73
679.70	499.15
680.04	495.70
680.37	492.32
680.71	489.10
681.05	485.94
681.39	482.76
681.73	479.68
682.06	476.76
682.40	473.63
682.74	470.43
683.08	467.35
683.42	464.22
683.75	461.35
684.09	458.40
684.43	455.62
684.77	452.70
685.10	449.93
685.44	447.02
685.78	444.18
686.12	441.46
686.45	438.79
686.79	436.21
687.13	433.69
687.46	431.13
687.80	428.48
688.14	425.70
688.48	423.08
688.81	420.48
689.15	417.88
689.49	415.44
689.82	413.00
690.16	410.37
690.50	407.93
690.83	405.45
691.17	403.01
691.51	400.62
691.84	398.43
692.18	396.29
692.52	394.15
692.85	392.05
693.19	389.97
693.52	387.90
693.86	385.76
694.20	383.65
694.53	381.58
694.87	379.44
695.21	377.34
695.54	375.24
695.88	373.08
696.21	370.95
696.55	368.84
696.88	366.80
697.22	364.92
697.56	363.09
697.89	361.23
698.23	359.53
698.56	357.79
698.90	356.07
699.23	354.19
699.57	352.35
699.90	350.49
700.24	348.72
700.58	346.99
700.91	345.41
701.25	343.90
701.58	342.33
701.92	340.81
702.25	339.29
702.59	337.77
702.92	336.30
703.26	334.79
703.59	333.38
703.93	332.15
704.26	330.74
704.60	329.27
704.93	327.82
705.26	326.34
705.60	324.91
705.93	323.40
706.27	322.10
706.60	320.87
706.94	319.70
707.27	318.31
707.61	316.97
707.94	315.65
708.27	314.15
708.61	312.73
708.94	311.38
709.28	310.09
709.61	308.86
709.94	307.69
710.28	306.54
710.61	305.37
710.95	304.01
711.28	302.97
711.61	301.84
711.95	300.72
712.28	299.53
712.61	298.36
712.95	297.37
713.28	296.37
713.61	295.26
713.95	294.13
714.28	293.16
714.61	292.18
714.95	291.18
715.28	290.17
715.61	289.15
715.95	288.24
716.28	287.29
716.61	286.36
716.95	285.41
717.28	284.51
717.61	283.57
717.94	282.67
718.28	281.68
718.61	280.83
718.94	279.97
719.27	279.15
719.61	278.39
719.94	277.52
720.27	276.56
720.60	275.73
720.94	274.96
721.27	274.23
721.60	273.57
721.93	272.87
722.27	272.25
722.60	271.67
722.93	270.98
723.26	270.35
723.59	269.65
723.93	268.99
724.26	268.35
724.59	267.73
724.92	267.17
725.25	266.67
725.59	266.11
725.92	265.61
726.25	265.05
726.58	264.48
726.91	263.89
727.24	263.40
727.57	262.87
727.91	262.25
728.24	261.70
728.57	261.15
728.90	260.60
729.23	260.01
729.56	259.57
729.89	259.00
730.22	258.46
730.55	257.97
730.89	257.45
731.22	256.94
731.55	256.42
731.88	255.92
732.21	255.35
732.54	254.79
732.87	254.29
733.20	253.85
733.53	253.34
733.86	252.91
734.19	252.43
734.52	252.05
734.85	251.80
735.18	251.38
735.51	250.97
735.84	250.59
736.17	250.17
736.50	249.67
736.83	249.56
737.16	249.16
737.49	248.76
737.82	248.36
738.15	248.01
738.48	247.64
738.81	247.24
739.14	246.83
739.47	246.50
739.80	246.12
740.13	245.78
740.46	245.44
740.79	245.08
741.12	244.74
741.45	244.35
741.78	243.94
742.11	243.65
742.44	243.29
742.77	242.95
743.10	242.66
743.43	242.33
743.75	241.78
744.08	241.74
744.41	241.37
744.74	241.05
745.07	240.67
745.40	240.39
745.73	240.16
746.06	239.87
746.39	239.56
746.71	239.25
747.04	238.91
747.37	238.61
747.70	238.31
748.03	238.02
748.36	237.79
748.68	237.46
749.01	237.11
749.34	236.83
749.67	236.52
750.00	236.28
750.33	236.16
750.65	235.90
750.98	235.41
751.31	235.21
751.64	234.96
751.97	234.89
752.29	234.62
752.62	234.30
752.95	234.08
753.28	233.82
753.60	233.59
753.93	233.40
754.26	233.21
754.59	232.97
754.91	232.75
755.24	232.50
755.57	232.27
755.90	232.07
756.22	231.83
756.55	231.63
756.88	231.36
757.20	231.03
757.53	230.77
757.86	230.57
758.19	230.36
758.51	230.16
758.84	229.85
759.17	229.65
759.49	229.48
759.82	229.38
760.15	229.24
760.47	229.03
760.80	228.77
761.13	228.59
761.45	228.37
761.78	228.17
762.11	227.97
762.43	227.80
762.76	227.62
763.08	227.49
763.41	227.35
763.74	227.21
764.06	227.05
764.39	226.91
764.71	226.77
765.04	226.62
765.37	226.49
765.69	226.36
766.02	226.20
766.34	226.05
766.67	225.86
767.00	225.75
767.32	225.73
767.65	225.72
767.97	225.59
768.30	225.50
768.62	225.41
768.95	225.27
769.27	225.15
769.60	225.08
769.92	224.92
770.25	224.77
770.57	224.62
770.90	224.49
771.22	224.36
771.55	224.22
771.87	224.11
772.20	223.97
772.52	224.03
772.85	224.16
773.17	224.06
773.50	223.97
773.82	223.83
774.15	223.63
774.47	223.44
774.80	223.32
775.12	223.28
775.45	223.17
775.77	223.11
776.09	223.03
776.42	222.93
776.74	222.90
777.07	222.81
777.39	222.75
777.72	222.68
778.04	222.61
778.36	222.55
778.69	222.47
779.01	222.44
779.33	222.17
779.66	221.85
779.98	221.79
780.31	221.74
780.63	221.77
780.95	221.73
781.28	221.63
781.60	221.55
781.92	221.43
782.25	221.36
782.57	221.27
782.89	221.21
783.22	221.09
783.54	220.98
783.86	220.93
784.19	220.86
784.51	220.84
784.83	220.76
785.16	220.67
785.48	220.61
785.80	220.53
786.12	220.51
786.45	220.49
786.77	220.44
787.09	220.35
787.42	220.22
787.74	220.13
788.06	220.11
788.38	220.04
788.71	219.96
789.03	219.95
789.35	219.93
789.67	219.88
789.99	219.86
790.32	219.81
790.64	219.78
790.96	219.88
791.28	219.78
791.61	219.70
791.93	219.69
792.25	219.66
792.57	219.77
792.89	219.64
793.21	219.60
793.54	219.53
793.86	219.46
794.18	219.42
794.50	219.39
794.82	219.33
795.14	219.33
795.47	219.34
795.79	219.26
796.11	219.20
796.43	219.14
796.75	219.10
797.07	219.04
797.39	219.00
797.71	218.82
798.04	218.78
798.36	218.77
798.68	218.75
799.00	218.71
799.32	218.56
799.64	218.60
799.96	218.54
800.28	218.52
800.60	218.47
800.92	218.42
801.24	218.38
801.56	218.38
801.89	218.31
802.21	218.29
802.53	218.23
802.85	218.22
803.17	218.28
803.49	218.22
803.81	218.17
804.13	218.10
804.45	218.04
804.77	218.04
805.09	217.99
805.41	217.91
805.73	217.83
806.05	217.77
806.37	217.75
806.69	217.74
807.01	217.71
807.33	217.71
807.65	217.64
807.97	217.70
808.28	217.64
808.60	217.61
808.92	217.57
809.24	217.69
809.56	217.60
809.88	217.50
810.20	217.50
810.52	217.54
810.84	217.50
811.16	217.46
811.48	217.41
811.80	217.47
812.12	217.42
812.43	217.44
812.75	217.40
813.07	217.34
813.39	217.31
813.71	217.25
814.03	217.22
814.35	217.25
814.67	217.12
814.98	217.09
815.30	217.05
815.62	217.00
815.94	216.83
816.26	216.84
816.58	216.80
816.89	216.78
817.21	216.67
817.53	216.67
817.85	216.65
818.17	216.65
818.48	216.56
818.80	216.60
819.12	216.54
819.44	216.49
819.76	216.46
820.07	216.44
820.39	216.44
820.71	216.44
821.03	216.42
821.34	216.40
821.66	216.43
821.98	216.47
822.30	216.42
822.61	216.52
822.93	216.49
823.25	216.46
823.57	216.39
823.88	216.44
824.20	216.43
824.52	216.45
824.83	216.42
825.15	216.40
825.47	216.36
825.79	216.38
826.10	216.36
826.42	216.36
826.74	216.39
827.05	216.38
827.37	216.37
827.69	216.31
828.00	216.30
828.32	216.27
828.64	216.25
828.95	216.38
829.27	216.33
829.58	216.31
829.90	216.38
830.22	216.40
830.53	216.31
830.85	216.27
831.17	216.23
831.48	216.24
831.80	216.24
832.11	216.24
832.43	216.20
832.75	216.20
833.06	216.29
833.38	216.20
833.69	216.18
834.01	216.16
834.32	216.15
834.64	216.15
834.96	216.15
835.27	216.13
835.59	216.05
835.90	215.99
836.22	215.99
836.53	215.92
836.85	215.91
837.16	216.14
837.48	216.14
837.79	216.21
838.11	216.18
838.42	216.16
838.74	216.17
839.05	216.15
839.37	216.11
839.68	216.02
840.00	216.01
840.31	216.02
840.63	215.98
840.94	215.97
841.26	215.95
841.57	215.90
841.88	215.89
842.20	215.86
842.51	215.84
842.83	215.82
843.14	215.99
843.46	215.96
843.77	215.82
844.08	215.79
844.40	215.69
844.71	215.65
845.03	215.59
845.34	215.56
845.65	215.57
845.97	215.58
846.28	215.56
846.60	215.55
846.91	215.49
847.22	215.50
847.54	215.54
847.85	215.55
848.16	215.56
848.48	215.54
848.79	215.60
849.10	215.64
849.42	215.66
849.73	215.48
850.04	215.50
850.36	215.43
850.67	215.49
850.98	215.49
851.30	215.54
851.61	215.59
851.92	215.58
852.23	215.63
852.55	215.64
852.86	215.64
853.17	215.66
853.49	215.71
853.80	215.75
854.11	215.76
854.42	215.78
854.74	215.74
855.05	215.72
855.36	215.60
855.67	215.58
855.99	215.55
856.30	215.77
856.61	215.72
856.92	215.73
857.23	215.71
857.55	215.72
857.86	215.69
858.17	215.71
858.48	215.67
858.79	215.64
859.11	215.62
859.42	215.61
859.73	215.59
860.04	215.58
860.35	215.50
860.66	215.44
860.98	215.41
861.29	215.42
861.60	215.43
861.91	215.51
862.22	215.48
862.53	215.44
862.84	215.18
863.16	215.24
863.47	215.20
863.78	215.19
864.09	215.19
864.40	215.20
864.71	215.19
865.02	215.21
865.33	215.17
865.64	215.15
865.95	215.11
866.27	215.25
866.58	215.20
866.89	215.25
867.20	215.24
867.51	215.24
867.82	215.23
868.13	215.30
868.44	215.23
868.75	215.24
869.06	215.28
869.37	215.31
869.68	215.23
869.99	215.27
870.30	215.27
870.61	215.30
870.92	215.25
871.23	215.20
871.54	215.22
871.85	215.25
872.16	215.28
872.47	215.27
872.78	215.09
873.09	215.12
873.40	215.11
873.71	215.14
874.02	215.13
874.33	215.07
874.64	215.03
874.95	215.07
875.26	215.04
875.56	215.06
875.87	215.03
876.18	215.03
876.49	215.23
876.80	215.20
877.11	215.18
877.42	215.24
877.73	215.25
878.04	215.24
878.35	215.24
878.66	215.26
878.96	215.27
879.27	215.31
879.58	215.33
879.89	215.31
880.20	215.34
880.51	215.33
880.82	215.37
881.12	215.35
881.43	215.28
881.74	215.26
882.05	215.22
882.36	215.25
882.67	215.25
882.97	215.05
883.28	215.01
883.59	214.96
883.90	214.93
884.21	214.92
884.51	214.89
884.82	214.84
885.13	214.82
885.44	214.83
885.74	214.80
886.05	214.76
886.36	214.75
886.67	214.69
886.98	214.78
887.28	214.79
887.59	214.79
887.90	214.81
888.20	214.81
888.51	214.84
888.82	214.81
889.13	214.86
889.43	215.02
889.74	215.03
890.05	215.04
890.35	215.03
890.66	215.05
890.97	215.03
891.28	215.03
891.58	215.05
891.89	215.07
892.20	215.06
892.50	215.05
892.81	215.03
893.12	215.03
893.42	214.92
893.73	214.94
894.04	214.97
894.34	214.96
894.65	214.97
894.95	214.97
895.26	214.97
895.57	215.06
895.87	214.84
896.18	214.87
896.48	214.89
896.79	214.90
897.10	214.92
897.40	214.94
897.71	214.96
898.01	214.93
898.32	214.95
898.63	214.97
898.93	215.03
899.24	215.09
899.54	215.06
899.85	215.09
900.15	215.06
900.46	215.06
900.76	215.11
901.07	215.07
901.38	215.06
901.68	215.10
901.99	215.00
902.29	215.02
902.60	215.03
902.90	214.99
903.21	215.01
903.51	214.97
903.82	215.02
904.12	215.03
904.43	215.05
904.73	215.02
905.03	215.01
905.34	215.16
905.64	215.12
905.95	215.09
906.25	215.11
906.56	215.09
906.86	215.08
907.17	215.04
907.47	215.11
907.77	215.08
908.08	215.01
908.38	215.00
908.69	215.02
908.99	215.04
909.30	215.06
909.60	215.05
909.90	215.06
910.21	214.99
910.51	214.94
910.81	214.95
911.12	214.97
911.42	214.97
911.73	214.74
912.03	214.74
912.33	214.80
912.64	214.76
912.94	214.75
913.24	214.73
913.55	214.72
913.85	214.69
914.15	214.75
914.46	214.78
914.76	214.75
915.06	214.75
915.37	214.72
915.67	214.69
915.97	214.70
916.27	214.67
916.58	214.70
916.88	214.72
917.18	214.71
917.49	214.85
917.79	214.84
918.09	214.88
918.39	214.93
918.70	214.92
919.00	214.94
919.30	215.03
919.60	215.04
919.91	215.02
920.21	215.01
920.51	214.94
920.81	214.94
921.12	215.00
921.42	214.97
921.72	215.01
922.02	215.03
922.32	215.03
922.63	215.02
922.93	215.11
923.23	215.09
923.53	215.06
923.83	214.94
924.13	214.94
924.44	214.94
924.74	214.98
925.04	215.04
925.34	215.04
925.64	214.91
925.94	214.88
926.24	214.99
926.55	214.99
926.85	215.02
927.15	214.99
927.45	214.97
927.75	214.98
928.05	214.96
928.35	214.98
928.65	215.02
928.95	215.05
929.26	214.96
929.56	214.99
929.86	215.02
930.16	214.97
930.46	214.96
930.76	214.95
931.06	214.86
931.36	214.79
931.66	214.80
931.96	214.85
932.26	214.85
932.56	214.77
932.86	214.80
933.16	214.79
933.46	214.76
933.76	214.76
934.06	214.83
934.36	214.89
934.66	214.85
934.96	214.80
935.26	214.82
935.56	214.84
935.86	214.79
936.16	214.75
936.46	214.73
936.76	214.74
937.06	214.74
937.36	214.74
937.66	214.76
937.96	214.74
938.26	214.74
938.56	214.74
938.86	214.75
939.16	214.76
939.46	214.80
939.76	214.85
940.06	214.84
940.35	214.76
940.65	214.63
940.95	214.65
941.25	214.61
941.55	214.59
941.85	214.57
942.15	214.63
942.45	214.68
942.75	214.69
943.04	214.68
943.34	214.71
943.64	214.69
943.94	214.68
944.24	214.67
944.54	214.65
944.84	214.64
945.13	214.61
945.43	214.58
945.73	214.56
946.03	214.50
946.33	214.47
946.62	214.45
946.92	214.47
947.22	214.49
947.52	214.49
947.82	214.51
948.11	214.49
948.41	214.45
948.71	214.40
949.01	214.42
949.31	214.41
949.60	214.39
949.90	214.43
950.20	214.42
950.50	214.43
950.79	214.40
951.09	214.45
951.39	214.43
951.69	214.40
951.98	214.43
952.28	214.48
952.58	214.47
952.87	214.49
953.17	214.50
953.47	214.47
953.76	214.45
954.06	214.39
954.36	214.38
954.66	214.35
954.95	214.39
955.25	214.41
955.55	214.42
955.84	214.39
956.14	214.42
956.44	214.45
956.73	214.42
957.03	214.47
957.32	214.43
957.62	214.43
957.92	214.49
958.21	214.47
958.51	214.70
958.81	214.76
959.10	214.78
959.40	214.82
959.69	214.82
959.99	214.89
960.29	214.91
960.58	214.90
960.88	214.98
961.17	214.96
961.47	214.99
961.76	214.96
962.06	214.99
962.36	214.95
962.65	214.92
962.95	214.95
963.24	214.94
963.54	214.96
963.83	214.98
964.13	214.96
964.42	214.91
964.72	214.74
965.01	214.73
965.31	214.71
965.60	214.68
965.90	214.82
966.19	214.77
966.49	214.77
966.78	214.78
967.08	214.75
967.37	214.74
967.67	214.71
967.96	214.76
968.26	214.76
968.55	214.75
968.85	214.76
969.14	214.74
969.43	214.71
969.73	214.69
970.02	214.70
970.32	214.72
970.61	214.74
970.91	214.70
971.20	214.63
971.49	214.64
971.79	214.65
972.08	214.52
972.38	214.52
972.67	214.52
972.96	214.55
973.26	214.53
973.55	214.58
973.85	214.55
974.14	214.55
974.43	214.59
974.73	214.57
975.02	214.57
975.31	214.58
975.61	214.58
975.90	214.58
976.19	214.55
976.49	214.53
976.78	214.52
977.07	214.49
977.37	214.53
977.66	214.51
977.95	214.51
978.24	214.49
978.54	214.55
978.83	214.54
979.12	214.51
979.42	214.50
979.71	214.47
980.00	214.47
980.29	214.47
980.59	214.37
980.88	214.41
981.17	214.39
981.46	214.38
981.76	214.38
982.05	214.43
982.34	214.44
982.63	214.46
982.93	214.44
983.22	214.52
983.51	214.55
983.80	214.64
984.09	214.66
984.39	214.69
984.68	214.65
984.97	214.63
985.26	214.61
985.55	214.65
985.85	214.63
986.14	214.64
986.43	214.65
986.72	214.68
987.01	214.63
987.30	214.63
987.59	214.62
987.89	214.64
988.18	214.56
988.47	214.55
988.76	214.53
989.05	214.55
989.34	214.51
989.63	214.54
989.92	214.46
990.22	214.44
990.51	214.40
990.80	214.40
991.09	214.42
991.38	214.47
991.67	214.45
991.96	214.44
992.25	214.43
992.54	214.38
992.83	214.39
993.12	214.42
993.41	214.47
993.70	214.54
993.99	214.59
994.28	214.62
994.58	214.67
994.87	214.64
995.16	214.64
995.45	214.60
995.74	214.52
996.03	214.56
996.32	214.58
996.61	214.63
996.90	214.64
997.19	214.62
997.48	214.60
997.77	214.59
998.06	214.59
998.34	214.61
998.63	214.65
998.92	214.67
999.21	214.66
999.50	214.67
999.79	214.61
1000.08	214.58
1000.37	214.57
1000.66	214.53
1000.95	214.59
1001.24	214.58
1001.53	214.62
1001.82	214.61
1002.11	214.57
1002.40	214.59
1002.68	214.62
1002.97	214.76
1003.26	214.76
1003.55	214.73
1003.84	214.73
1004.13	214.83
1004.42	214.81
1004.71	214.80
1004.99	214.78
1005.28	214.83
1005.57	214.81
1005.86	214.77
1006.15	214.75
1006.44	214.73
1006.72	214.76
1007.01	214.70
1007.30	214.72
1007.59	214.68
1007.88	214.69
1008.17	214.70
1008.45	214.67
1008.74	214.62
1009.03	214.51
1009.32	214.54
1009.60	214.56
1009.89	214.54
1010.18	214.45
1010.47	214.44
1010.76	214.43
1011.04	214.45
1011.33	214.46
1011.62	214.45
1011.91	214.48
1012.19	214.50
1012.48	214.50
1012.77	214.48
1013.05	214.61
1013.34	214.62
1013.63	214.62
1013.92	214.66
1014.20	214.66
1014.49	214.67
1014.78	214.70
1015.06	214.63
1015.35	214.61
1015.64	214.65
1015.92	214.70
1016.21	214.68
1016.50	214.67
1016.78	214.69
1017.07	214.71
1017.36	214.65
1017.64	214.63
1017.93	214.68
1018.22	214.64
1018.50	214.65
1018.79	214.65
1019.08	214.54
1019.36	214.55
1019.65	214.51
1019.93	214.54
1020.22	214.52
1020.51	214.63
1020.79	214.59
1021.08	213.77
1021.36	214.37
1021.65	214.41
1021.94	214.72
1022.22	214.50
1022.51	213.55
1022.79	215.48
1023.08	214.22
1023.36	217.53
1023.65	214.14
>>>>>End Processed Spectral Data<<<<<
