SpectraSuite Data File
++++++++++++++++++++++++++++++++++++
Date: Tue Jan 29 16:54:27 EST 2013
User: group
Dark Spectrum Present: No
Reference Spectrum Present: No
Number of Sampled Component Spectra: 1
Spectrometers: USB2E7196
Integration Time (usec): 65000 (USB2E7196)
Spectra Averaged: 100 (USB2E7196)
Boxcar Smoothing: 10 (USB2E7196)
Correct for Electrical Dark: No (USB2E7196)
Strobe/Lamp Enabled: No (USB2E7196)
Correct for Detector Non-linearity: No (USB2E7196)
Correct for Stray Light: No (USB2E7196)
Number of Pixels in Processed Spectrum: 2048
>>>>>Begin Processed Spectral Data<<<<<
339.09	0.00
339.48	201.36
339.86	202.86
340.24	204.16
340.63	205.87
341.01	210.34
341.39	208.54
341.78	210.26
342.16	211.29
342.54	211.81
342.93	200.79
343.31	210.93
343.69	211.48
344.07	211.94
344.46	212.39
344.84	212.77
345.22	212.93
345.60	213.20
345.99	213.38
346.37	213.50
346.75	213.58
347.13	213.66
347.52	213.74
347.90	213.84
348.28	213.88
348.66	213.94
349.05	213.91
349.43	213.97
349.81	214.04
350.19	214.08
350.57	214.17
350.96	214.28
351.34	214.41
351.72	214.52
352.10	214.67
352.48	214.71
352.87	214.78
353.25	214.83
353.63	214.89
354.01	214.91
354.39	215.02
354.77	215.10
355.15	215.20
355.54	215.21
355.92	215.24
356.30	215.32
356.68	215.53
357.06	215.64
357.44	215.70
357.82	215.76
358.20	215.84
358.58	215.89
358.97	215.95
359.35	216.01
359.73	216.09
360.11	216.12
360.49	216.24
360.87	216.31
361.25	216.40
361.63	216.51
362.01	216.64
362.39	216.65
362.77	216.71
363.15	216.76
363.53	216.81
363.91	216.87
364.29	216.88
364.67	216.74
365.05	216.76
365.43	216.82
365.81	216.87
366.19	216.99
366.57	217.07
366.95	217.09
367.33	217.03
367.71	217.01
368.09	217.06
368.47	217.04
368.85	217.01
369.23	217.07
369.61	217.01
369.99	217.03
370.37	217.06
370.75	217.17
371.13	217.09
371.51	217.05
371.89	217.02
372.27	217.00
372.65	216.95
373.03	216.89
373.41	216.82
373.78	216.76
374.16	216.62
374.54	216.54
374.92	216.47
375.30	216.48
375.68	216.44
376.06	216.39
376.44	216.30
376.82	216.30
377.19	216.22
377.57	216.18
377.95	216.08
378.33	216.00
378.71	215.82
379.09	215.80
379.47	215.75
379.84	215.68
380.22	215.64
380.60	215.54
380.98	215.51
381.36	215.45
381.73	215.40
382.11	215.42
382.49	215.38
382.87	215.30
383.25	215.25
383.62	215.42
384.00	215.35
384.38	215.35
384.76	215.33
385.13	215.36
385.51	215.31
385.89	215.24
386.27	215.22
386.64	215.22
387.02	215.16
387.40	215.13
387.78	215.12
388.15	215.11
388.53	215.11
388.91	215.10
389.29	215.09
389.66	215.08
390.04	215.02
390.42	215.03
390.79	215.06
391.17	215.07
391.55	214.84
391.92	214.87
392.30	214.87
392.68	214.79
393.05	214.78
393.43	214.77
393.81	214.80
394.18	214.76
394.56	214.75
394.94	214.81
395.31	214.79
395.69	214.84
396.06	214.85
396.44	214.84
396.82	214.83
397.19	214.92
397.57	214.92
397.95	214.99
398.32	214.96
398.70	215.03
399.07	215.08
399.45	215.09
399.82	215.11
400.20	215.15
400.58	215.25
400.95	215.21
401.33	215.36
401.70	215.57
402.08	215.67
402.45	215.76
402.83	215.90
403.20	216.04
403.58	216.13
403.95	216.28
404.33	216.46
404.71	216.63
405.08	216.93
405.46	217.10
405.83	217.30
406.21	217.51
406.58	217.70
406.96	217.92
407.33	218.21
407.70	218.53
408.08	219.01
408.45	219.33
408.83	219.73
409.20	220.04
409.58	220.34
409.95	220.85
410.33	221.33
410.70	221.75
411.08	222.31
411.45	222.90
411.82	223.48
412.20	224.22
412.57	225.06
412.95	225.62
413.32	226.46
413.69	227.31
414.07	228.22
414.44	229.23
414.82	230.26
415.19	231.44
415.56	232.63
415.94	233.79
416.31	235.20
416.68	236.61
417.06	238.22
417.43	239.75
417.81	241.48
418.18	243.29
418.55	245.24
418.93	247.32
419.30	249.42
419.67	251.64
420.04	253.94
420.42	256.29
420.79	259.12
421.16	261.93
421.54	264.85
421.91	267.87
422.28	271.00
422.66	274.30
423.03	277.57
423.40	280.94
423.77	284.59
424.15	288.29
424.52	292.19
424.89	296.38
425.26	300.48
425.64	304.38
426.01	308.69
426.38	313.21
426.75	317.69
427.13	322.46
427.50	327.44
427.87	332.61
428.24	337.84
428.61	342.85
428.99	348.37
429.36	354.42
429.73	360.27
430.10	366.14
430.47	372.28
430.85	378.58
431.22	385.31
431.59	392.46
431.96	399.34
432.33	406.83
432.70	414.09
433.08	422.67
433.45	430.79
433.82	438.84
434.19	447.73
434.56	456.55
434.93	464.93
435.30	473.28
435.68	482.43
436.05	491.55
436.42	500.54
436.79	508.75
437.16	517.57
437.53	526.95
437.90	536.15
438.27	545.14
438.64	554.49
439.01	563.08
439.38	570.72
439.75	578.06
440.13	586.62
440.50	594.67
440.87	601.09
441.24	607.73
441.61	615.12
441.98	620.53
442.35	626.88
442.72	633.26
443.09	639.40
443.46	643.23
443.83	645.72
444.20	647.93
444.57	651.09
444.94	652.52
445.31	654.03
445.68	655.49
446.05	656.15
446.42	655.36
446.79	654.42
447.16	653.32
447.53	652.60
447.90	649.20
448.27	645.88
448.64	641.27
449.01	638.00
449.37	632.10
449.74	626.48
450.11	619.55
450.48	612.15
450.85	604.61
451.22	598.11
451.59	591.94
451.96	586.04
452.33	578.22
452.70	571.10
453.07	562.54
453.43	553.92
453.80	545.51
454.17	537.43
454.54	529.82
454.91	521.61
455.28	513.51
455.65	506.10
456.02	498.56
456.38	492.16
456.75	484.21
457.12	477.54
457.49	470.93
457.86	464.68
458.23	459.22
458.59	453.29
458.96	447.20
459.33	441.88
459.70	436.45
460.07	432.10
460.43	427.15
460.80	422.55
461.17	418.46
461.54	414.25
461.91	410.25
462.27	406.09
462.64	402.64
463.01	398.87
463.38	395.07
463.74	391.34
464.11	388.06
464.48	385.23
464.85	382.15
465.21	379.72
465.58	377.07
465.95	373.92
466.32	371.25
466.68	368.68
467.05	366.05
467.42	363.48
467.78	360.82
468.15	358.32
468.52	356.35
468.88	353.85
469.25	351.63
469.62	349.77
469.98	347.79
470.35	345.89
470.72	344.20
471.08	342.38
471.45	340.89
471.82	339.33
472.18	337.61
472.55	336.37
472.92	334.96
473.28	333.71
473.65	332.53
474.02	331.39
474.38	330.40
474.75	329.65
475.11	328.83
475.48	328.17
475.85	327.66
476.21	327.15
476.58	326.76
476.94	326.53
477.31	326.21
477.67	325.94
478.04	325.81
478.41	325.74
478.77	325.95
479.14	325.86
479.50	326.01
479.87	326.29
480.23	326.62
480.60	326.86
480.96	327.17
481.33	327.74
481.69	328.35
482.06	328.93
482.42	329.41
482.79	329.99
483.15	330.77
483.52	331.67
483.88	332.58
484.25	333.53
484.61	334.50
484.98	335.51
485.34	336.85
485.71	338.25
486.07	339.72
486.44	340.99
486.80	342.62
487.17	344.31
487.53	346.12
487.90	347.94
488.26	350.00
488.62	352.13
488.99	354.13
489.35	356.26
489.72	358.64
490.08	361.14
490.44	363.70
490.81	366.43
491.17	369.16
491.54	372.08
491.90	375.13
492.26	378.41
492.63	381.88
492.99	385.39
493.36	389.03
493.72	392.86
494.08	396.88
494.45	401.05
494.81	405.40
495.17	409.83
495.54	414.59
495.90	419.37
496.26	424.30
496.63	429.57
496.99	434.95
497.35	440.51
497.72	446.29
498.08	452.23
498.44	458.31
498.80	464.73
499.17	471.25
499.53	477.85
499.89	484.72
500.26	491.68
500.62	498.69
500.98	506.08
501.34	513.53
501.71	521.23
502.07	529.05
502.43	537.02
502.79	545.13
503.16	553.42
503.52	561.99
503.88	570.67
504.24	579.59
504.60	588.65
504.97	597.78
505.33	607.09
505.69	616.93
506.05	626.86
506.41	636.75
506.78	646.79
507.14	656.99
507.50	667.35
507.86	677.98
508.22	688.69
508.59	699.29
508.95	710.31
509.31	721.47
509.67	732.92
510.03	744.28
510.39	755.99
510.75	767.80
511.12	779.65
511.48	791.79
511.84	803.90
512.20	816.13
512.56	828.77
512.92	841.40
513.28	854.10
513.64	866.70
514.00	879.47
514.37	892.39
514.73	905.52
515.09	918.49
515.45	931.43
515.81	944.51
516.17	957.90
516.53	971.19
516.89	984.34
517.25	997.47
517.61	1010.98
517.97	1024.35
518.33	1037.48
518.69	1051.03
519.05	1064.73
519.41	1078.49
519.77	1092.32
520.13	1105.66
520.49	1118.88
520.85	1132.12
521.21	1145.47
521.57	1159.06
521.93	1172.12
522.29	1185.85
522.65	1199.44
523.01	1213.01
523.37	1226.26
523.73	1239.63
524.09	1252.75
524.45	1266.20
524.81	1279.67
525.17	1293.04
525.53	1306.25
525.89	1319.67
526.25	1332.82
526.61	1345.71
526.97	1358.85
527.33	1371.98
527.68	1385.52
528.04	1399.17
528.40	1412.39
528.76	1425.66
529.12	1438.68
529.48	1452.01
529.84	1464.31
530.20	1477.08
530.56	1489.80
530.91	1503.08
531.27	1516.04
531.63	1528.81
531.99	1541.62
532.35	1554.00
532.71	1566.44
533.07	1579.43
533.42	1591.59
533.78	1603.70
534.14	1615.69
534.50	1626.91
534.86	1638.53
535.21	1649.36
535.57	1661.00
535.93	1672.27
536.29	1683.54
536.65	1695.09
537.00	1706.13
537.36	1717.67
537.72	1728.82
538.08	1740.17
538.44	1751.22
538.79	1762.28
539.15	1773.30
539.51	1784.31
539.87	1795.63
540.22	1806.59
540.58	1817.52
540.94	1828.51
541.29	1838.86
541.65	1848.73
542.01	1859.30
542.37	1869.43
542.72	1879.77
543.08	1889.45
543.44	1900.03
543.79	1909.36
544.15	1918.83
544.51	1928.92
544.87	1938.96
545.22	1948.32
545.58	1957.38
545.94	1966.21
546.29	1974.84
546.65	1983.29
547.01	1991.41
547.36	1999.19
547.72	2006.96
548.07	2014.73
548.43	2022.50
548.79	2030.53
549.14	2038.72
549.50	2047.35
549.86	2055.17
550.21	2062.55
550.57	2070.23
550.92	2076.99
551.28	2084.66
551.64	2091.95
551.99	2099.38
552.35	2106.46
552.70	2113.37
553.06	2119.96
553.41	2126.31
553.77	2132.77
554.13	2139.18
554.48	2146.25
554.84	2153.45
555.19	2159.99
555.55	2166.43
555.90	2172.71
556.26	2179.43
556.61	2185.54
556.97	2190.26
557.32	2196.13
557.68	2202.57
558.03	2208.40
558.39	2213.70
558.74	2219.45
559.10	2224.92
559.45	2230.55
559.81	2235.98
560.16	2241.37
560.52	2247.24
560.87	2253.56
561.23	2259.31
561.58	2265.92
561.94	2270.99
562.29	2275.42
562.64	2281.36
563.00	2286.75
563.35	2292.13
563.71	2297.68
564.06	2303.31
564.42	2309.28
564.77	2314.24
565.12	2319.34
565.48	2324.20
565.83	2329.68
566.19	2334.98
566.54	2340.19
566.89	2344.64
567.25	2349.33
567.60	2354.93
567.96	2359.83
568.31	2364.25
568.66	2368.47
569.02	2372.23
569.37	2375.92
569.72	2380.16
570.08	2383.58
570.43	2386.71
570.78	2389.94
571.14	2392.34
571.49	2395.26
571.84	2398.44
572.20	2401.43
572.55	2404.29
572.90	2406.56
573.26	2409.34
573.61	2411.75
573.96	2413.93
574.31	2415.79
574.67	2417.33
575.02	2418.03
575.37	2419.38
575.72	2419.96
576.08	2421.32
576.43	2421.23
576.78	2421.46
577.13	2422.91
577.49	2423.88
577.84	2424.61
578.19	2425.63
578.54	2426.05
578.90	2426.55
579.25	2426.36
579.60	2425.87
579.95	2424.82
580.30	2424.56
580.66	2423.70
581.01	2421.84
581.36	2419.13
581.71	2417.54
582.06	2416.31
582.42	2415.15
582.77	2412.71
583.12	2410.78
583.47	2409.06
583.82	2408.22
584.17	2406.65
584.53	2404.37
584.88	2402.06
585.23	2400.19
585.58	2397.76
585.93	2395.68
586.28	2393.21
586.63	2390.51
586.98	2388.08
587.34	2385.94
587.69	2383.31
588.04	2380.92
588.39	2379.37
588.74	2376.80
589.09	2373.86
589.44	2370.46
589.79	2367.73
590.14	2365.59
590.49	2362.66
590.84	2358.65
591.19	2355.36
591.54	2352.15
591.89	2348.02
592.25	2344.67
592.60	2340.27
592.95	2335.97
593.30	2331.64
593.65	2327.31
594.00	2322.82
594.35	2319.75
594.70	2315.06
595.05	2310.55
595.40	2305.07
595.75	2299.08
596.10	2295.31
596.45	2290.52
596.80	2285.80
597.15	2280.56
597.50	2274.61
597.85	2269.67
598.19	2264.57
598.54	2258.86
598.89	2253.46
599.24	2248.82
599.59	2242.46
599.94	2236.55
600.29	2230.60
600.64	2224.60
600.99	2217.79
601.34	2212.24
601.69	2205.12
602.04	2198.83
602.39	2192.15
602.74	2185.87
603.08	2180.51
603.43	2173.90
603.78	2166.93
604.13	2159.85
604.48	2152.59
604.83	2146.49
605.18	2140.35
605.53	2133.42
605.87	2126.41
606.22	2119.72
606.57	2111.93
606.92	2104.07
607.27	2097.11
607.62	2090.45
607.96	2083.56
608.31	2077.03
608.66	2069.32
609.01	2061.81
609.36	2054.63
609.70	2047.01
610.05	2039.30
610.40	2030.85
610.75	2022.45
611.10	2014.79
611.44	2005.85
611.79	1997.28
612.14	1987.39
612.49	1976.55
612.83	1967.09
613.18	1957.76
613.53	1948.48
613.88	1938.83
614.22	1930.23
614.57	1920.33
614.92	1909.78
615.27	1899.45
615.61	1889.42
615.96	1879.86
616.31	1870.28
616.65	1860.91
617.00	1851.21
617.35	1841.63
617.70	1832.00
618.04	1822.27
618.39	1812.18
618.74	1802.68
619.08	1792.95
619.43	1784.34
619.78	1776.32
620.12	1767.84
620.47	1758.43
620.82	1748.09
621.16	1738.26
621.51	1728.50
621.85	1718.92
622.20	1708.84
622.55	1698.51
622.89	1688.58
623.24	1678.92
623.59	1669.32
623.93	1659.24
624.28	1649.50
624.62	1639.57
624.97	1629.42
625.32	1619.62
625.66	1610.88
626.01	1602.32
626.35	1593.10
626.70	1583.09
627.04	1573.13
627.39	1563.01
627.73	1553.90
628.08	1545.22
628.43	1535.95
628.77	1526.75
629.12	1517.94
629.46	1510.14
629.81	1502.00
630.15	1492.68
630.50	1483.09
630.84	1472.65
631.19	1462.90
631.53	1453.75
631.88	1443.78
632.22	1433.85
632.57	1424.61
632.91	1414.49
633.26	1404.64
633.60	1395.19
633.95	1386.17
634.29	1376.74
634.64	1367.70
634.98	1357.68
635.32	1348.46
635.67	1340.02
636.01	1330.95
636.36	1321.29
636.70	1311.87
637.05	1302.45
637.39	1293.64
637.73	1285.03
638.08	1277.57
638.42	1269.48
638.77	1260.83
639.11	1252.67
639.45	1245.03
639.80	1236.72
640.14	1228.20
640.49	1219.50
640.83	1210.81
641.17	1202.69
641.52	1194.67
641.86	1186.20
642.20	1178.46
642.55	1169.97
642.89	1161.22
643.23	1152.71
643.58	1144.71
643.92	1135.85
644.26	1127.33
644.61	1118.98
644.95	1110.25
645.29	1101.23
645.64	1092.23
645.98	1083.81
646.32	1075.92
646.66	1067.50
647.01	1059.27
647.35	1051.27
647.69	1043.04
648.04	1034.80
648.38	1025.98
648.72	1017.28
649.06	1008.97
649.41	1000.92
649.75	993.07
650.09	985.36
650.43	977.42
650.78	969.22
651.12	961.43
651.46	954.07
651.80	946.94
652.14	939.77
652.49	932.28
652.83	924.98
653.17	917.32
653.51	909.72
653.85	902.59
654.20	895.38
654.54	888.02
654.88	880.93
655.22	873.86
655.56	866.85
655.90	860.15
656.25	853.47
656.59	846.63
656.93	839.67
657.27	832.61
657.61	825.63
657.95	819.48
658.29	813.57
658.64	807.51
658.98	801.04
659.32	794.53
659.66	788.34
660.00	782.10
660.34	776.13
660.68	770.15
661.02	763.86
661.36	757.90
661.70	752.01
662.05	746.37
662.39	740.90
662.73	735.58
663.07	730.18
663.41	724.58
663.75	718.87
664.09	713.13
664.43	707.62
664.77	702.29
665.11	696.55
665.45	690.75
665.79	684.88
666.13	679.31
666.47	673.88
666.81	668.40
667.15	663.03
667.49	657.77
667.83	652.47
668.17	647.22
668.51	642.13
668.85	637.26
669.19	632.35
669.53	627.25
669.87	622.08
670.21	617.36
670.55	612.68
670.89	608.28
671.23	604.03
671.57	599.66
671.91	595.38
672.25	591.18
672.58	587.09
672.92	583.10
673.26	579.10
673.60	575.19
673.94	571.42
674.28	567.83
674.62	564.20
674.96	560.44
675.30	556.94
675.64	553.29
675.97	549.71
676.31	546.09
676.65	542.57
676.99	539.20
677.33	535.32
677.67	531.66
678.01	527.80
678.34	524.10
678.68	520.60
679.02	516.99
679.36	513.40
679.70	509.76
680.04	506.17
680.37	502.69
680.71	499.32
681.05	496.05
681.39	492.67
681.73	489.42
682.06	486.46
682.40	483.31
682.74	480.08
683.08	476.80
683.42	473.56
683.75	470.49
684.09	467.40
684.43	464.61
684.77	461.69
685.10	458.78
685.44	455.85
685.78	452.85
686.12	450.08
686.45	447.27
686.79	444.57
687.13	442.00
687.46	439.38
687.80	436.75
688.14	433.91
688.48	431.32
688.81	428.57
689.15	425.88
689.49	423.26
689.82	420.69
690.16	418.15
690.50	415.70
690.83	413.21
691.17	410.67
691.51	408.07
691.84	405.75
692.18	403.53
692.52	401.30
692.85	399.14
693.19	397.00
693.52	394.77
693.86	392.49
694.20	390.28
694.53	388.11
694.87	385.88
695.21	383.70
695.54	381.49
695.88	379.34
696.21	377.14
696.55	374.99
696.88	372.91
697.22	370.85
697.56	368.90
697.89	367.00
698.23	365.22
698.56	363.45
698.90	361.69
699.23	359.77
699.57	357.91
699.90	356.07
700.24	354.15
700.58	352.38
700.91	350.68
701.25	349.10
701.58	347.45
701.92	345.83
702.25	344.22
702.59	342.57
702.92	341.04
703.26	339.48
703.59	337.95
703.93	336.69
704.26	335.25
704.60	333.70
704.93	332.16
705.26	330.62
705.60	329.18
705.93	327.58
706.27	326.23
706.60	324.95
706.94	323.73
707.27	322.38
707.61	321.05
707.94	319.72
708.27	318.19
708.61	316.70
708.94	315.37
709.28	314.06
709.61	312.82
709.94	311.57
710.28	310.33
710.61	309.15
710.95	307.68
711.28	306.58
711.61	305.41
711.95	304.26
712.28	303.08
712.61	301.84
712.95	300.78
713.28	299.71
713.61	298.52
713.95	297.29
714.28	296.25
714.61	295.15
714.95	294.11
715.28	293.06
715.61	292.02
715.95	290.99
716.28	290.02
716.61	289.02
716.95	287.99
717.28	287.04
717.61	286.08
717.94	285.17
718.28	284.16
718.61	283.24
718.94	282.32
719.27	281.44
719.61	280.62
719.94	279.73
720.27	278.72
720.60	277.87
720.94	277.08
721.27	276.28
721.60	275.58
721.93	274.85
722.27	274.21
722.60	273.59
722.93	272.87
723.26	272.17
723.59	271.48
723.93	270.87
724.26	270.23
724.59	269.57
724.92	268.94
725.25	268.36
725.59	267.78
725.92	267.24
726.25	266.69
726.58	266.13
726.91	265.53
727.24	265.04
727.57	264.45
727.91	263.81
728.24	263.27
728.57	262.68
728.90	262.13
729.23	261.49
729.56	261.00
729.89	260.45
730.22	259.86
730.55	259.32
730.89	258.77
731.22	258.20
731.55	257.64
731.88	257.14
732.21	256.60
732.54	256.06
732.87	255.53
733.20	255.00
733.53	254.49
733.86	254.04
734.19	253.47
734.52	253.06
734.85	252.75
735.18	252.23
735.51	251.82
735.84	251.34
736.17	250.96
736.50	250.43
736.83	250.27
737.16	249.89
737.49	249.51
737.82	249.08
738.15	248.67
738.48	248.32
738.81	247.92
739.14	247.49
739.47	247.12
739.80	246.74
740.13	246.38
740.46	245.93
740.79	245.49
741.12	245.16
741.45	244.77
741.78	244.34
742.11	244.09
742.44	243.72
742.77	243.46
743.10	243.10
743.43	242.76
743.75	242.17
744.08	242.10
744.41	241.73
744.74	241.40
745.07	241.01
745.40	240.69
745.73	240.44
746.06	240.11
746.39	239.76
746.71	239.42
747.04	239.05
747.37	238.79
747.70	238.54
748.03	238.24
748.36	237.98
748.68	237.64
749.01	237.28
749.34	237.01
749.67	236.65
750.00	236.39
750.33	236.25
750.65	235.99
750.98	235.44
751.31	235.23
751.64	234.97
751.97	234.89
752.29	234.62
752.62	234.24
752.95	233.98
753.28	233.74
753.60	233.48
753.93	233.33
754.26	233.09
754.59	232.81
754.91	232.58
755.24	232.30
755.57	232.06
755.90	231.82
756.22	231.54
756.55	231.37
756.88	231.09
757.20	230.70
757.53	230.42
757.86	230.24
758.19	229.98
758.51	229.78
758.84	229.45
759.17	229.25
759.49	229.12
759.82	229.06
760.15	228.88
760.47	228.70
760.80	228.44
761.13	228.27
761.45	228.10
761.78	227.88
762.11	227.69
762.43	227.50
762.76	227.31
763.08	227.18
763.41	226.99
763.74	226.87
764.06	226.75
764.39	226.60
764.71	226.43
765.04	226.27
765.37	226.11
765.69	225.96
766.02	225.80
766.34	225.62
766.67	225.36
767.00	225.26
767.32	225.26
767.65	225.28
767.97	225.14
768.30	225.02
768.62	224.91
768.95	224.77
769.27	224.66
769.60	224.57
769.92	224.42
770.25	224.24
770.57	224.08
770.90	223.95
771.22	223.82
771.55	223.70
771.87	223.62
772.20	223.48
772.52	223.52
772.85	223.68
773.17	223.56
773.50	223.43
773.82	223.30
774.15	223.07
774.47	222.81
774.80	222.68
775.12	222.57
775.45	222.49
775.77	222.43
776.09	222.36
776.42	222.26
776.74	222.21
777.07	222.11
777.39	222.02
777.72	221.88
778.04	221.84
778.36	221.74
778.69	221.64
779.01	221.55
779.33	221.31
779.66	220.97
779.98	220.89
780.31	220.86
780.63	220.88
780.95	220.86
781.28	220.79
781.60	220.73
781.92	220.64
782.25	220.57
782.57	220.48
782.89	220.41
783.22	220.36
783.54	220.26
783.86	220.25
784.19	220.19
784.51	220.22
784.83	220.12
785.16	220.05
785.48	220.02
785.80	219.97
786.12	219.91
786.45	219.83
786.77	219.78
787.09	219.67
787.42	219.52
787.74	219.41
788.06	219.35
788.38	219.30
788.71	219.26
789.03	219.20
789.35	219.18
789.67	219.12
789.99	219.03
790.32	218.95
790.64	218.92
790.96	219.04
791.28	218.93
791.61	218.89
791.93	218.82
792.25	218.74
792.57	218.85
792.89	218.78
793.21	218.78
793.54	218.71
793.86	218.65
794.18	218.63
794.50	218.56
794.82	218.53
795.14	218.51
795.47	218.48
795.79	218.43
796.11	218.34
796.43	218.26
796.75	218.23
797.07	218.21
797.39	218.12
797.71	217.90
798.04	217.88
798.36	217.87
798.68	217.84
799.00	217.82
799.32	217.69
799.64	217.69
799.96	217.63
800.28	217.64
800.60	217.59
800.92	217.54
801.24	217.50
801.56	217.49
801.89	217.46
802.21	217.45
802.53	217.41
802.85	217.42
803.17	217.50
803.49	217.43
803.81	217.36
804.13	217.34
804.45	217.30
804.77	217.25
805.09	217.18
805.41	217.12
805.73	217.04
806.05	216.94
806.37	216.88
806.69	216.86
807.01	216.82
807.33	216.84
807.65	216.77
807.97	216.86
808.28	216.76
808.60	216.68
808.92	216.62
809.24	216.72
809.56	216.66
809.88	216.55
810.20	216.53
810.52	216.54
810.84	216.45
811.16	216.44
811.48	216.40
811.80	216.43
812.12	216.42
812.43	216.46
812.75	216.44
813.07	216.41
813.39	216.40
813.71	216.35
814.03	216.27
814.35	216.27
814.67	216.15
814.98	216.15
815.30	216.17
815.62	216.09
815.94	215.92
816.26	215.91
816.58	215.86
816.89	215.88
817.21	215.82
817.53	215.84
817.85	215.80
818.17	215.79
818.48	215.70
818.80	215.75
819.12	215.67
819.44	215.61
819.76	215.57
820.07	215.54
820.39	215.53
820.71	215.57
821.03	215.52
821.34	215.50
821.66	215.52
821.98	215.51
822.30	215.51
822.61	215.61
822.93	215.56
823.25	215.56
823.57	215.51
823.88	215.56
824.20	215.56
824.52	215.60
824.83	215.57
825.15	215.54
825.47	215.53
825.79	215.57
826.10	215.56
826.42	215.52
826.74	215.53
827.05	215.47
827.37	215.47
827.69	215.43
828.00	215.42
828.32	215.38
828.64	215.33
828.95	215.44
829.27	215.38
829.58	215.37
829.90	215.39
830.22	215.40
830.53	215.34
830.85	215.28
831.17	215.23
831.48	215.23
831.80	215.23
832.11	215.18
832.43	215.10
832.75	215.08
833.06	215.23
833.38	215.16
833.69	215.17
834.01	215.16
834.32	215.17
834.64	215.13
834.96	215.13
835.27	215.13
835.59	215.03
835.90	214.96
836.22	214.93
836.53	214.91
836.85	214.90
837.16	215.09
837.48	215.10
837.79	215.15
838.11	215.14
838.42	215.11
838.74	215.14
839.05	215.16
839.37	215.16
839.68	215.03
840.00	215.04
840.31	215.06
840.63	215.03
840.94	215.00
841.26	215.02
841.57	215.01
841.88	215.03
842.20	215.03
842.51	215.01
842.83	215.03
843.14	215.19
843.46	215.16
843.77	215.02
844.08	214.99
844.40	214.91
844.71	214.91
845.03	214.91
845.34	214.88
845.65	214.84
845.97	214.86
846.28	214.84
846.60	214.84
846.91	214.79
847.22	214.79
847.54	214.84
847.85	214.81
848.16	214.78
848.48	214.74
848.79	214.79
849.10	214.83
849.42	214.85
849.73	214.64
850.04	214.66
850.36	214.58
850.67	214.59
850.98	214.59
851.30	214.57
851.61	214.57
851.92	214.53
852.23	214.62
852.55	214.60
852.86	214.62
853.17	214.62
853.49	214.66
853.80	214.69
854.11	214.69
854.42	214.74
854.74	214.71
855.05	214.71
855.36	214.61
855.67	214.64
855.99	214.61
856.30	214.85
856.61	214.84
856.92	214.82
857.23	214.82
857.55	214.80
857.86	214.78
858.17	214.84
858.48	214.84
858.79	214.79
859.11	214.83
859.42	214.81
859.73	214.78
860.04	214.77
860.35	214.69
860.66	214.62
860.98	214.59
861.29	214.63
861.60	214.62
861.91	214.64
862.22	214.58
862.53	214.55
862.84	214.27
863.16	214.31
863.47	214.28
863.78	214.28
864.09	214.29
864.40	214.32
864.71	214.30
865.02	214.33
865.33	214.28
865.64	214.22
865.95	214.20
866.27	214.34
866.58	214.28
866.89	214.30
867.20	214.28
867.51	214.29
867.82	214.27
868.13	214.31
868.44	214.28
868.75	214.32
869.06	214.33
869.37	214.37
869.68	214.31
869.99	214.35
870.30	214.35
870.61	214.37
870.92	214.32
871.23	214.28
871.54	214.28
871.85	214.35
872.16	214.38
872.47	214.36
872.78	214.20
873.09	214.25
873.40	214.24
873.71	214.25
874.02	214.24
874.33	214.22
874.64	214.15
874.95	214.19
875.26	214.14
875.56	214.14
875.87	214.10
876.18	214.10
876.49	214.30
876.80	214.29
877.11	214.23
877.42	214.28
877.73	214.28
878.04	214.24
878.35	214.23
878.66	214.22
878.96	214.25
879.27	214.25
879.58	214.22
879.89	214.21
880.20	214.28
880.51	214.26
880.82	214.26
881.12	214.28
881.43	214.20
881.74	214.19
882.05	214.17
882.36	214.19
882.67	214.21
882.97	213.96
883.28	213.92
883.59	213.94
883.90	213.95
884.21	213.97
884.51	213.99
884.82	213.97
885.13	213.97
885.44	213.95
885.74	213.98
886.05	213.97
886.36	213.99
886.67	213.89
886.98	214.00
887.28	214.01
887.59	214.03
887.90	214.06
888.20	214.04
888.51	214.09
888.82	214.07
889.13	214.06
889.43	214.23
889.74	214.23
890.05	214.25
890.35	214.21
890.66	214.17
890.97	214.11
891.28	214.08
891.58	214.07
891.89	214.08
892.20	214.05
892.50	214.04
892.81	214.04
893.12	214.05
893.42	213.96
893.73	213.96
894.04	213.95
894.34	213.98
894.65	213.97
894.95	213.93
895.26	213.96
895.57	214.07
895.87	213.88
896.18	213.92
896.48	213.91
896.79	213.94
897.10	213.99
897.40	214.04
897.71	214.05
898.01	214.04
898.32	214.06
898.63	214.05
898.93	214.04
899.24	214.04
899.54	214.01
899.85	214.01
900.15	214.01
900.46	214.02
900.76	214.03
901.07	214.03
901.38	214.01
901.68	214.01
901.99	213.91
902.29	213.97
902.60	213.95
902.90	213.95
903.21	213.92
903.51	213.90
903.82	213.93
904.12	213.95
904.43	213.98
904.73	214.00
905.03	214.04
905.34	214.26
905.64	214.24
905.95	214.28
906.25	214.26
906.56	214.24
906.86	214.23
907.17	214.20
907.47	214.23
907.77	214.25
908.08	214.21
908.38	214.22
908.69	214.21
908.99	214.27
909.30	214.27
909.60	214.26
909.90	214.22
910.21	214.15
910.51	214.08
910.81	214.06
911.12	214.03
911.42	214.01
911.73	213.75
912.03	213.79
912.33	213.81
912.64	213.81
912.94	213.82
913.24	213.79
913.55	213.78
913.85	213.75
914.15	213.77
914.46	213.81
914.76	213.79
915.06	213.79
915.37	213.72
915.67	213.69
915.97	213.71
916.27	213.71
916.58	213.72
916.88	213.73
917.18	213.68
917.49	213.85
917.79	213.84
918.09	213.94
918.39	213.99
918.70	213.96
919.00	213.95
919.30	214.03
919.60	214.03
919.91	214.03
920.21	214.05
920.51	214.00
920.81	213.97
921.12	214.00
921.42	213.96
921.72	214.00
922.02	214.03
922.32	214.01
922.63	214.02
922.93	214.13
923.23	214.13
923.53	214.13
923.83	213.98
924.13	214.00
924.44	213.95
924.74	213.93
925.04	213.98
925.34	213.96
925.64	213.86
925.94	213.86
926.24	213.96
926.55	213.94
926.85	213.99
927.15	213.99
927.45	213.98
927.75	213.98
928.05	213.97
928.35	213.97
928.65	214.05
928.95	214.08
929.26	213.97
929.56	214.04
929.86	214.08
930.16	214.04
930.46	214.03
930.76	214.05
931.06	213.95
931.36	213.92
931.66	213.94
931.96	213.99
932.26	213.99
932.56	213.91
932.86	213.91
933.16	213.89
933.46	213.84
933.76	213.80
934.06	213.87
934.36	213.96
934.66	213.93
934.96	213.89
935.26	213.87
935.56	213.91
935.86	213.87
936.16	213.83
936.46	213.82
936.76	213.78
937.06	213.75
937.36	213.79
937.66	213.74
937.96	213.74
938.26	213.66
938.56	213.66
938.86	213.67
939.16	213.70
939.46	213.70
939.76	213.72
940.06	213.74
940.35	213.67
940.65	213.52
940.95	213.54
941.25	213.49
941.55	213.47
941.85	213.44
942.15	213.48
942.45	213.56
942.75	213.54
943.04	213.55
943.34	213.61
943.64	213.57
943.94	213.60
944.24	213.59
944.54	213.62
944.84	213.59
945.13	213.59
945.43	213.53
945.73	213.57
946.03	213.56
946.33	213.51
946.62	213.51
946.92	213.53
947.22	213.53
947.52	213.55
947.82	213.58
948.11	213.56
948.41	213.48
948.71	213.41
949.01	213.44
949.31	213.44
949.60	213.43
949.90	213.48
950.20	213.42
950.50	213.46
950.79	213.46
951.09	213.47
951.39	213.43
951.69	213.42
951.98	213.42
952.28	213.44
952.58	213.48
952.87	213.52
953.17	213.54
953.47	213.54
953.76	213.54
954.06	213.51
954.36	213.50
954.66	213.54
954.95	213.57
955.25	213.59
955.55	213.61
955.84	213.55
956.14	213.56
956.44	213.62
956.73	213.56
957.03	213.59
957.32	213.61
957.62	213.64
957.92	213.73
958.21	213.74
958.51	213.99
958.81	214.01
959.10	214.01
959.40	214.06
959.69	214.04
959.99	214.08
960.29	214.07
960.58	214.08
960.88	214.13
961.17	214.16
961.47	214.17
961.76	214.13
962.06	214.21
962.36	214.18
962.65	214.17
962.95	214.20
963.24	214.17
963.54	214.19
963.83	214.19
964.13	214.15
964.42	214.09
964.72	213.91
965.01	213.90
965.31	213.90
965.60	213.86
965.90	213.99
966.19	213.94
966.49	213.94
966.78	213.91
967.08	213.90
967.37	213.89
967.67	213.86
967.96	213.91
968.26	213.88
968.55	213.91
968.85	213.90
969.14	213.87
969.43	213.87
969.73	213.84
970.02	213.83
970.32	213.82
970.61	213.82
970.91	213.76
971.20	213.70
971.49	213.69
971.79	213.68
972.08	213.53
972.38	213.56
972.67	213.59
972.96	213.65
973.26	213.62
973.55	213.69
973.85	213.68
974.14	213.67
974.43	213.68
974.73	213.63
975.02	213.63
975.31	213.65
975.61	213.67
975.90	213.67
976.19	213.65
976.49	213.65
976.78	213.64
977.07	213.64
977.37	213.70
977.66	213.71
977.95	213.72
978.24	213.75
978.54	213.78
978.83	213.74
979.12	213.70
979.42	213.69
979.71	213.65
980.00	213.65
980.29	213.63
980.59	213.60
980.88	213.66
981.17	213.64
981.46	213.62
981.76	213.60
982.05	213.68
982.34	213.69
982.63	213.71
982.93	213.68
983.22	213.76
983.51	213.72
983.80	213.72
984.09	213.74
984.39	213.71
984.68	213.69
984.97	213.73
985.26	213.70
985.55	213.71
985.85	213.64
986.14	213.66
986.43	213.71
986.72	213.68
987.01	213.61
987.30	213.61
987.59	213.63
987.89	213.65
988.18	213.58
988.47	213.56
988.76	213.54
989.05	213.56
989.34	213.52
989.63	213.60
989.92	213.62
990.22	213.57
990.51	213.59
990.80	213.57
991.09	213.53
991.38	213.54
991.67	213.52
991.96	213.52
992.25	213.52
992.54	213.44
992.83	213.45
993.12	213.44
993.41	213.49
993.70	213.57
993.99	213.61
994.28	213.60
994.58	213.66
994.87	213.65
995.16	213.63
995.45	213.59
995.74	213.52
996.03	213.50
996.32	213.53
996.61	213.58
996.90	213.58
997.19	213.60
997.48	213.62
997.77	213.64
998.06	213.66
998.34	213.66
998.63	213.69
998.92	213.68
999.21	213.72
999.50	213.73
999.79	213.65
1000.08	213.67
1000.37	213.66
1000.66	213.63
1000.95	213.69
1001.24	213.74
1001.53	213.78
1001.82	213.81
1002.11	213.78
1002.40	213.79
1002.68	213.82
1002.97	213.97
1003.26	213.93
1003.55	213.91
1003.84	213.92
1004.13	213.97
1004.42	213.94
1004.71	213.93
1004.99	213.94
1005.28	214.01
1005.57	213.99
1005.86	213.98
1006.15	213.90
1006.44	213.87
1006.72	213.88
1007.01	213.83
1007.30	213.80
1007.59	213.74
1007.88	213.72
1008.17	213.73
1008.45	213.70
1008.74	213.61
1009.03	213.49
1009.32	213.51
1009.60	213.48
1009.89	213.45
1010.18	213.34
1010.47	213.37
1010.76	213.37
1011.04	213.38
1011.33	213.38
1011.62	213.38
1011.91	213.41
1012.19	213.43
1012.48	213.45
1012.77	213.46
1013.05	213.55
1013.34	213.59
1013.63	213.60
1013.92	213.61
1014.20	213.59
1014.49	213.59
1014.78	213.62
1015.06	213.56
1015.35	213.57
1015.64	213.61
1015.92	213.66
1016.21	213.73
1016.50	213.70
1016.78	213.72
1017.07	213.71
1017.36	213.66
1017.64	213.63
1017.93	213.62
1018.22	213.59
1018.50	213.60
1018.79	213.60
1019.08	213.49
1019.36	213.46
1019.65	213.44
1019.93	213.48
1020.22	213.51
1020.51	213.64
1020.79	213.60
1021.08	212.82
1021.36	213.41
1021.65	213.89
1021.94	213.29
1022.22	213.34
1022.51	213.07
1022.79	214.42
1023.08	213.46
1023.36	216.26
1023.65	212.78
>>>>>End Processed Spectral Data<<<<<
