SpectraSuite Data File
++++++++++++++++++++++++++++++++++++
Date: Tue Jan 29 16:17:38 EST 2013
User: group
Dark Spectrum Present: No
Reference Spectrum Present: No
Number of Sampled Component Spectra: 1
Spectrometers: USB2E7196
Integration Time (usec): 65000 (USB2E7196)
Spectra Averaged: 100 (USB2E7196)
Boxcar Smoothing: 10 (USB2E7196)
Correct for Electrical Dark: No (USB2E7196)
Strobe/Lamp Enabled: No (USB2E7196)
Correct for Detector Non-linearity: No (USB2E7196)
Correct for Stray Light: No (USB2E7196)
Number of Pixels in Processed Spectrum: 2048
>>>>>Begin Processed Spectral Data<<<<<
339.09	0.00
339.48	202.92
339.86	204.17
340.24	205.74
340.63	207.05
341.01	211.10
341.39	209.95
341.78	210.85
342.16	212.87
342.54	213.21
342.93	202.04
343.31	212.28
343.69	212.82
344.07	213.26
344.46	213.70
344.84	214.11
345.22	214.31
345.60	214.57
345.99	214.79
346.37	214.91
346.75	215.02
347.13	215.09
347.52	215.13
347.90	215.20
348.28	215.20
348.66	215.30
349.05	215.25
349.43	215.30
349.81	215.35
350.19	215.41
350.57	215.50
350.96	215.57
351.34	215.64
351.72	215.74
352.10	215.88
352.48	215.93
352.87	215.96
353.25	216.00
353.63	216.05
354.01	216.12
354.39	216.17
354.77	216.24
355.15	216.35
355.54	216.41
355.92	216.41
356.30	216.48
356.68	216.66
357.06	216.77
357.44	216.79
357.82	216.84
358.20	216.92
358.58	216.93
358.97	217.00
359.35	217.10
359.73	217.16
360.11	217.19
360.49	217.26
360.87	217.30
361.25	217.36
361.63	217.48
362.01	217.52
362.39	217.55
362.77	217.56
363.15	217.58
363.53	217.57
363.91	217.63
364.29	217.63
364.67	217.43
365.05	217.39
365.43	217.45
365.81	217.46
366.19	217.55
366.57	217.66
366.95	217.63
367.33	217.55
367.71	217.53
368.09	217.55
368.47	217.54
368.85	217.51
369.23	217.53
369.61	217.44
369.99	217.51
370.37	217.54
370.75	217.64
371.13	217.58
371.51	217.57
371.89	217.55
372.27	217.56
372.65	217.55
373.03	217.53
373.41	217.46
373.78	217.39
374.16	217.26
374.54	217.16
374.92	217.11
375.30	217.06
375.68	216.99
376.06	216.98
376.44	216.95
376.82	216.94
377.19	216.89
377.57	216.82
377.95	216.67
378.33	216.59
378.71	216.43
379.09	216.41
379.47	216.38
379.84	216.32
380.22	216.27
380.60	216.18
380.98	216.15
381.36	216.09
381.73	216.04
382.11	216.06
382.49	216.03
382.87	215.97
383.25	215.93
383.62	216.13
384.00	216.07
384.38	216.00
384.76	216.00
385.13	216.04
385.51	216.03
385.89	215.97
386.27	215.94
386.64	215.98
387.02	215.93
387.40	215.90
387.78	215.89
388.15	215.87
388.53	215.88
388.91	215.87
389.29	215.88
389.66	215.93
390.04	215.87
390.42	215.86
390.79	215.89
391.17	215.89
391.55	215.64
391.92	215.61
392.30	215.63
392.68	215.60
393.05	215.58
393.43	215.57
393.81	215.58
394.18	215.58
394.56	215.53
394.94	215.59
395.31	215.58
395.69	215.65
396.06	215.71
396.44	215.73
396.82	215.71
397.19	215.85
397.57	215.84
397.95	215.89
398.32	215.88
398.70	215.92
399.07	216.02
399.45	216.09
399.82	216.13
400.20	216.17
400.58	216.20
400.95	216.16
401.33	216.28
401.70	216.54
402.08	216.61
402.45	216.71
402.83	216.84
403.20	216.95
403.58	217.01
403.95	217.17
404.33	217.32
404.71	217.43
405.08	217.69
405.46	217.87
405.83	218.05
406.21	218.27
406.58	218.45
406.96	218.65
407.33	218.88
407.70	219.22
408.08	219.68
408.45	220.04
408.83	220.40
409.20	220.72
409.58	220.95
409.95	221.40
410.33	221.88
410.70	222.29
411.08	222.81
411.45	223.37
411.82	223.90
412.20	224.55
412.57	225.39
412.95	225.91
413.32	226.68
413.69	227.49
414.07	228.38
414.44	229.37
414.82	230.38
415.19	231.54
415.56	232.67
415.94	233.81
416.31	235.18
416.68	236.58
417.06	238.13
417.43	239.65
417.81	241.36
418.18	243.05
418.55	244.95
418.93	246.95
419.30	249.01
419.67	251.15
420.04	253.37
420.42	255.67
420.79	258.38
421.16	261.09
421.54	263.91
421.91	266.78
422.28	269.77
422.66	272.95
423.03	276.08
423.40	279.28
423.77	282.74
424.15	286.25
424.52	289.95
424.89	293.99
425.26	297.92
425.64	301.65
426.01	305.79
426.38	310.10
426.75	314.48
427.13	319.05
427.50	323.82
427.87	328.87
428.24	333.87
428.61	338.73
428.99	344.11
429.36	349.92
429.73	355.59
430.10	361.25
430.47	367.12
430.85	373.22
431.22	379.73
431.59	386.65
431.96	393.27
432.33	400.55
432.70	407.56
433.08	415.76
433.45	423.55
433.82	431.28
434.19	439.87
434.56	448.29
434.93	456.32
435.30	464.40
435.68	473.21
436.05	481.87
436.42	490.44
436.79	498.34
437.16	506.79
437.53	515.75
437.90	524.57
438.27	533.16
438.64	542.10
439.01	550.38
439.38	557.62
439.75	564.67
440.13	572.85
440.50	580.45
440.87	586.65
441.24	593.08
441.61	600.20
441.98	605.34
442.35	611.44
442.72	617.55
443.09	623.23
443.46	626.75
443.83	629.19
444.20	631.27
444.57	634.26
444.94	635.61
445.31	636.99
445.68	638.37
446.05	639.01
446.42	638.18
446.79	637.21
447.16	636.22
447.53	635.45
447.90	632.22
448.27	629.08
448.64	624.67
449.01	621.41
449.37	615.69
449.74	610.24
450.11	603.55
450.48	596.38
450.85	589.26
451.22	583.10
451.59	577.24
451.96	571.66
452.33	564.06
452.70	557.24
453.07	549.09
453.43	540.75
453.80	532.73
454.17	525.03
454.54	517.77
454.91	509.86
455.28	502.23
455.65	495.05
456.02	487.85
456.38	481.71
456.75	474.20
457.12	467.90
457.49	461.67
457.86	455.72
458.23	450.58
458.59	444.94
458.96	439.14
459.33	433.99
459.70	428.78
460.07	424.66
460.43	419.98
460.80	415.54
461.17	411.71
461.54	407.72
461.91	403.85
462.27	399.87
462.64	396.59
463.01	392.90
463.38	389.28
463.74	385.72
464.11	382.60
464.48	379.83
464.85	376.82
465.21	374.44
465.58	371.91
465.95	368.85
466.32	366.29
466.68	363.78
467.05	361.27
467.42	358.84
467.78	356.28
468.15	353.81
468.52	351.98
468.88	349.55
469.25	347.38
469.62	345.67
469.98	343.82
470.35	342.08
470.72	340.46
471.08	338.76
471.45	337.29
471.82	335.84
472.18	334.26
472.55	333.11
472.92	331.77
473.28	330.61
473.65	329.54
474.02	328.50
474.38	327.67
474.75	327.00
475.11	326.19
475.48	325.66
475.85	325.21
476.21	324.75
476.58	324.47
476.94	324.26
477.31	323.97
477.67	323.71
478.04	323.61
478.41	323.61
478.77	323.78
479.14	323.78
479.50	323.91
479.87	324.20
480.23	324.51
480.60	324.83
480.96	325.16
481.33	325.79
481.69	326.38
482.06	326.93
482.42	327.43
482.79	328.14
483.15	328.98
483.52	329.94
483.88	330.89
484.25	331.86
484.61	332.87
484.98	333.93
485.34	335.23
485.71	336.60
486.07	338.00
486.44	339.34
486.80	340.94
487.17	342.57
487.53	344.41
487.90	346.29
488.26	348.24
488.62	350.35
488.99	352.37
489.35	354.55
489.72	356.89
490.08	359.39
490.44	361.89
490.81	364.59
491.17	367.27
491.54	370.22
491.90	373.23
492.26	376.45
492.63	379.85
492.99	383.29
493.36	386.92
493.72	390.79
494.08	394.86
494.45	399.05
494.81	403.43
495.17	407.91
495.54	412.59
495.90	417.37
496.26	422.33
496.63	427.48
496.99	432.80
497.35	438.33
497.72	444.12
498.08	450.04
498.44	456.05
498.80	462.46
499.17	468.94
499.53	475.59
499.89	482.49
500.26	489.39
500.62	496.48
500.98	503.90
501.34	511.32
501.71	518.98
502.07	526.75
502.43	534.64
502.79	542.66
503.16	551.03
503.52	559.59
503.88	568.20
504.24	577.05
504.60	586.08
504.97	595.22
505.33	604.43
505.69	614.29
506.05	624.10
506.41	633.86
506.78	643.73
507.14	653.92
507.50	664.32
507.86	674.97
508.22	685.71
508.59	696.21
508.95	707.22
509.31	718.32
509.67	729.68
510.03	741.09
510.39	752.67
510.75	764.37
511.12	776.17
511.48	788.20
511.84	800.38
512.20	812.50
512.56	825.07
512.92	837.70
513.28	850.10
513.64	862.64
514.00	875.27
514.37	888.15
514.73	901.10
515.09	913.71
515.45	926.36
515.81	939.21
516.17	952.44
516.53	965.46
516.89	978.43
517.25	991.35
517.61	1004.64
517.97	1017.83
518.33	1030.79
518.69	1044.05
519.05	1057.50
519.41	1070.88
519.77	1084.57
520.13	1097.57
520.49	1110.48
520.85	1123.61
521.21	1136.72
521.57	1150.26
521.93	1163.02
522.29	1176.52
522.65	1190.02
523.01	1203.41
523.37	1216.28
523.73	1229.34
524.09	1242.14
524.45	1255.30
524.81	1268.51
525.17	1281.62
525.53	1294.47
525.89	1307.36
526.25	1320.19
526.61	1332.75
526.97	1345.56
527.33	1358.23
527.68	1371.37
528.04	1384.53
528.40	1397.35
528.76	1410.42
529.12	1422.87
529.48	1435.97
529.84	1447.78
530.20	1460.18
530.56	1472.55
530.91	1485.50
531.27	1497.87
531.63	1510.37
531.99	1522.84
532.35	1534.83
532.71	1546.90
533.07	1559.32
533.42	1571.41
533.78	1583.29
534.14	1595.07
534.50	1605.86
534.86	1617.07
535.21	1627.68
535.57	1638.84
535.93	1649.81
536.29	1660.59
536.65	1671.67
537.00	1682.19
537.36	1693.32
537.72	1704.05
538.08	1715.10
538.44	1725.67
538.79	1736.48
539.15	1746.96
539.51	1757.26
539.87	1768.20
540.22	1778.71
540.58	1789.42
540.94	1799.80
541.29	1809.72
541.65	1819.07
542.01	1829.40
542.37	1839.27
542.72	1849.18
543.08	1858.75
543.44	1868.88
543.79	1877.80
544.15	1887.03
544.51	1896.76
544.87	1906.36
545.22	1915.16
545.58	1923.63
545.94	1932.34
546.29	1940.63
546.65	1948.78
547.01	1956.84
547.36	1964.25
547.72	1971.62
548.07	1979.10
548.43	1986.65
548.79	1994.21
549.14	2002.15
549.50	2010.18
549.86	2017.67
550.21	2024.64
550.57	2031.90
550.92	2038.37
551.28	2045.71
551.64	2052.72
551.99	2059.94
552.35	2066.86
552.70	2073.65
553.06	2080.17
553.41	2086.19
553.77	2092.46
554.13	2098.64
554.48	2105.41
554.84	2112.20
555.19	2118.59
555.55	2124.84
555.90	2130.93
556.26	2137.51
556.61	2143.32
556.97	2148.11
557.32	2153.75
557.68	2160.19
558.03	2165.86
558.39	2171.15
558.74	2177.00
559.10	2182.47
559.45	2187.91
559.81	2193.35
560.16	2198.85
560.52	2204.74
560.87	2211.00
561.23	2217.01
561.58	2223.53
561.94	2228.59
562.29	2233.50
562.64	2239.51
563.00	2245.06
563.35	2250.81
563.71	2256.79
564.06	2262.44
564.42	2268.36
564.77	2273.43
565.12	2278.55
565.48	2283.69
565.83	2289.14
566.19	2294.59
566.54	2300.08
566.89	2304.81
567.25	2309.52
567.60	2315.09
567.96	2320.14
568.31	2324.76
568.66	2328.97
569.02	2332.96
569.37	2336.94
569.72	2341.25
570.08	2344.91
570.43	2348.05
570.78	2350.95
571.14	2353.36
571.49	2356.65
571.84	2360.26
572.20	2363.32
572.55	2366.58
572.90	2368.97
573.26	2371.75
573.61	2374.26
573.96	2376.38
574.31	2378.36
574.67	2380.27
575.02	2381.19
575.37	2382.80
575.72	2383.72
576.08	2385.23
576.43	2385.60
576.78	2386.37
577.13	2388.20
577.49	2389.32
577.84	2390.67
578.19	2392.30
578.54	2393.10
578.90	2394.10
579.25	2394.17
579.60	2394.31
579.95	2393.62
580.30	2393.94
580.66	2393.52
581.01	2392.07
581.36	2389.98
581.71	2388.72
582.06	2387.79
582.42	2387.11
582.77	2385.04
583.12	2383.53
583.47	2382.39
583.82	2381.91
584.17	2380.61
584.53	2378.49
584.88	2376.64
585.23	2374.68
585.58	2372.56
585.93	2370.59
586.28	2368.49
586.63	2366.30
586.98	2364.23
587.34	2362.48
587.69	2360.35
588.04	2358.58
588.39	2357.23
588.74	2354.88
589.09	2352.43
589.44	2349.49
589.79	2347.27
590.14	2345.53
590.49	2342.86
590.84	2339.29
591.19	2336.36
591.54	2333.26
591.89	2329.42
592.25	2326.34
592.60	2322.39
592.95	2318.38
593.30	2314.41
593.65	2310.17
594.00	2305.95
594.35	2302.97
594.70	2298.43
595.05	2293.83
595.40	2288.49
595.75	2283.07
596.10	2279.59
596.45	2274.92
596.80	2270.35
597.15	2265.10
597.50	2259.25
597.85	2254.53
598.19	2249.36
598.54	2243.70
598.89	2238.73
599.24	2234.34
599.59	2228.23
599.94	2222.70
600.29	2216.94
600.64	2211.20
600.99	2204.65
601.34	2199.31
601.69	2192.34
602.04	2185.97
602.39	2179.52
602.74	2173.54
603.08	2168.01
603.43	2161.58
603.78	2154.86
604.13	2147.94
604.48	2140.83
604.83	2134.83
605.18	2128.58
605.53	2121.65
605.87	2114.68
606.22	2107.89
606.57	2100.03
606.92	2092.32
607.27	2085.42
607.62	2078.90
607.96	2071.92
608.31	2065.47
608.66	2057.78
609.01	2050.42
609.36	2043.56
609.70	2035.90
610.05	2028.20
610.40	2019.91
610.75	2011.61
611.10	2004.10
611.44	1995.36
611.79	1986.75
612.14	1976.80
612.49	1966.28
612.83	1957.22
613.18	1948.20
613.53	1939.01
613.88	1929.57
614.22	1921.00
614.57	1911.09
614.92	1900.49
615.27	1890.42
615.61	1880.47
615.96	1870.73
616.31	1861.23
616.65	1851.84
617.00	1842.18
617.35	1832.66
617.70	1823.19
618.04	1813.30
618.39	1803.07
618.74	1793.52
619.08	1783.97
619.43	1775.42
619.78	1767.32
620.12	1758.66
620.47	1748.90
620.82	1738.61
621.16	1728.86
621.51	1719.14
621.85	1709.35
622.20	1698.94
622.55	1688.44
622.89	1678.45
623.24	1668.79
623.59	1659.01
623.93	1648.84
624.28	1638.93
624.62	1628.71
624.97	1618.34
625.32	1608.66
625.66	1599.77
626.01	1591.02
626.35	1581.76
626.70	1571.67
627.04	1561.65
627.39	1551.71
627.73	1542.49
628.08	1533.52
628.43	1523.92
628.77	1514.70
629.12	1505.92
629.46	1498.16
629.81	1489.75
630.15	1480.33
630.50	1470.58
630.84	1460.16
631.19	1450.40
631.53	1441.19
631.88	1431.23
632.22	1421.27
632.57	1411.97
632.91	1401.84
633.26	1391.95
633.60	1382.32
633.95	1373.03
634.29	1363.64
634.64	1354.34
634.98	1344.55
635.32	1335.31
635.67	1326.95
636.01	1317.68
636.36	1307.96
636.70	1298.54
637.05	1289.33
637.39	1280.41
637.73	1271.88
638.08	1264.39
638.42	1256.19
638.77	1247.53
639.11	1239.40
639.45	1231.58
639.80	1223.01
640.14	1214.41
640.49	1205.52
640.83	1196.84
641.17	1188.91
641.52	1180.69
641.86	1172.04
642.20	1164.24
642.55	1155.67
642.89	1146.78
643.23	1138.11
643.58	1130.10
643.92	1121.09
644.26	1112.47
644.61	1104.04
644.95	1095.34
645.29	1086.11
645.64	1077.03
645.98	1068.67
646.32	1060.82
646.66	1052.46
647.01	1044.12
647.35	1036.10
647.69	1027.99
648.04	1019.70
648.38	1010.79
648.72	1002.08
649.06	993.66
649.41	985.56
649.75	977.62
650.09	969.82
650.43	961.90
650.78	953.63
651.12	946.06
651.46	938.74
651.80	931.57
652.14	924.31
652.49	916.90
652.83	909.67
653.17	902.00
653.51	894.41
653.85	887.26
654.20	880.15
654.54	872.67
654.88	865.46
655.22	858.38
655.56	851.51
655.90	844.80
656.25	838.31
656.59	831.39
656.93	824.52
657.27	817.55
657.61	810.68
657.95	804.72
658.29	798.88
658.64	792.79
658.98	786.38
659.32	779.91
659.66	773.81
660.00	767.52
660.34	761.53
660.68	755.45
661.02	749.19
661.36	743.34
661.70	737.62
662.05	732.03
662.39	726.64
662.73	721.25
663.07	715.95
663.41	710.42
663.75	704.81
664.09	699.31
664.43	693.90
664.77	688.68
665.11	682.91
665.45	677.06
665.79	671.37
666.13	665.88
666.47	660.50
666.81	655.09
667.15	649.82
667.49	644.76
667.83	639.60
668.17	634.44
668.51	629.38
668.85	624.61
669.19	619.82
669.53	614.85
669.87	609.83
670.21	605.13
670.55	600.49
670.89	596.17
671.23	591.93
671.57	587.72
671.91	583.47
672.25	579.40
672.58	575.39
672.92	571.32
673.26	567.41
673.60	563.59
673.94	559.82
674.28	556.25
674.62	552.60
674.96	548.89
675.30	545.39
675.64	541.89
675.97	538.30
676.31	534.81
676.65	531.30
676.99	527.95
677.33	524.19
677.67	520.58
678.01	516.74
678.34	513.17
678.68	509.65
679.02	506.13
679.36	502.46
679.70	498.84
680.04	495.41
680.37	491.99
680.71	488.76
681.05	485.66
681.39	482.52
681.73	479.41
682.06	476.47
682.40	473.46
682.74	470.21
683.08	467.08
683.42	463.92
683.75	461.00
684.09	458.03
684.43	455.29
684.77	452.41
685.10	449.61
685.44	446.67
685.78	443.85
686.12	441.14
686.45	438.52
686.79	435.88
687.13	433.43
687.46	430.87
687.80	428.19
688.14	425.38
688.48	422.76
688.81	420.11
689.15	417.62
689.49	415.07
689.82	412.67
690.16	410.19
690.50	407.79
690.83	405.31
691.17	402.84
691.51	400.46
691.84	398.29
692.18	396.16
692.52	394.05
692.85	391.95
693.19	389.84
693.52	387.69
693.86	385.59
694.20	383.43
694.53	381.35
694.87	379.21
695.21	377.16
695.54	375.08
695.88	372.99
696.21	370.83
696.55	368.83
696.88	366.81
697.22	364.87
697.56	363.01
697.89	361.23
698.23	359.54
698.56	357.82
698.90	356.09
699.23	354.21
699.57	352.35
699.90	350.54
700.24	348.75
700.58	347.05
700.91	345.43
701.25	343.93
701.58	342.36
701.92	340.84
702.25	339.34
702.59	337.77
702.92	336.28
703.26	334.74
703.59	333.30
703.93	332.06
704.26	330.64
704.60	329.19
704.93	327.74
705.26	326.30
705.60	324.81
705.93	323.34
706.27	322.05
706.60	320.85
706.94	319.67
707.27	318.33
707.61	317.04
707.94	315.73
708.27	314.26
708.61	312.81
708.94	311.48
709.28	310.21
709.61	309.01
709.94	307.82
710.28	306.68
710.61	305.51
710.95	304.11
711.28	303.09
711.61	301.93
711.95	300.83
712.28	299.63
712.61	298.53
712.95	297.51
713.28	296.51
713.61	295.35
713.95	294.22
714.28	293.25
714.61	292.23
714.95	291.23
715.28	290.19
715.61	289.22
715.95	288.29
716.28	287.35
716.61	286.41
716.95	285.44
717.28	284.51
717.61	283.57
717.94	282.70
718.28	281.66
718.61	280.79
718.94	279.90
719.27	279.07
719.61	278.22
719.94	277.35
720.27	276.42
720.60	275.64
720.94	274.86
721.27	274.12
721.60	273.42
721.93	272.72
722.27	272.10
722.60	271.45
722.93	270.76
723.26	270.11
723.59	269.44
723.93	268.88
724.26	268.24
724.59	267.61
724.92	267.07
725.25	266.57
725.59	265.99
725.92	265.50
726.25	265.00
726.58	264.44
726.91	263.87
727.24	263.34
727.57	262.80
727.91	262.19
728.24	261.64
728.57	261.14
728.90	260.61
729.23	260.03
729.56	259.68
729.89	259.14
730.22	258.59
730.55	258.06
730.89	257.52
731.22	257.01
731.55	256.51
731.88	256.01
732.21	255.46
732.54	254.98
732.87	254.44
733.20	253.94
733.53	253.49
733.86	253.05
734.19	252.59
734.52	252.18
734.85	251.95
735.18	251.48
735.51	251.09
735.84	250.68
736.17	250.31
736.50	249.76
736.83	249.65
737.16	249.27
737.49	248.91
737.82	248.54
738.15	248.16
738.48	247.82
738.81	247.41
739.14	247.02
739.47	246.64
739.80	246.29
740.13	245.93
740.46	245.51
740.79	245.13
741.12	244.79
741.45	244.44
741.78	244.01
742.11	243.74
742.44	243.37
742.77	243.08
743.10	242.74
743.43	242.42
743.75	241.82
744.08	241.77
744.41	241.40
744.74	241.03
745.07	240.67
745.40	240.38
745.73	240.15
746.06	239.85
746.39	239.59
746.71	239.26
747.04	238.93
747.37	238.64
747.70	238.37
748.03	238.09
748.36	237.81
748.68	237.49
749.01	237.16
749.34	236.87
749.67	236.57
750.00	236.32
750.33	236.21
750.65	236.00
750.98	235.48
751.31	235.28
751.64	235.11
751.97	235.04
752.29	234.79
752.62	234.45
752.95	234.23
753.28	233.97
753.60	233.71
753.93	233.56
754.26	233.38
754.59	233.15
754.91	232.91
755.24	232.69
755.57	232.46
755.90	232.22
756.22	231.98
756.55	231.74
756.88	231.49
757.20	231.12
757.53	230.82
757.86	230.62
758.19	230.43
758.51	230.18
758.84	229.86
759.17	229.67
759.49	229.52
759.82	229.42
760.15	229.27
760.47	229.10
760.80	228.87
761.13	228.73
761.45	228.52
761.78	228.34
762.11	228.17
762.43	227.99
762.76	227.83
763.08	227.70
763.41	227.54
763.74	227.40
764.06	227.24
764.39	227.10
764.71	226.93
765.04	226.75
765.37	226.62
765.69	226.46
766.02	226.33
766.34	226.15
766.67	225.93
767.00	225.81
767.32	225.77
767.65	225.73
767.97	225.56
768.30	225.49
768.62	225.37
768.95	225.22
769.27	225.12
769.60	225.04
769.92	224.91
770.25	224.76
770.57	224.62
770.90	224.54
771.22	224.40
771.55	224.31
771.87	224.20
772.20	224.05
772.52	224.13
772.85	224.26
773.17	224.18
773.50	224.05
773.82	223.91
774.15	223.74
774.47	223.56
774.80	223.45
775.12	223.31
775.45	223.20
775.77	223.13
776.09	223.05
776.42	222.97
776.74	222.91
777.07	222.83
777.39	222.76
777.72	222.66
778.04	222.64
778.36	222.55
778.69	222.45
779.01	222.38
779.33	222.12
779.66	221.81
779.98	221.72
780.31	221.68
780.63	221.70
780.95	221.65
781.28	221.55
781.60	221.46
781.92	221.41
782.25	221.38
782.57	221.30
782.89	221.22
783.22	221.15
783.54	221.04
783.86	220.98
784.19	220.91
784.51	220.92
784.83	220.83
785.16	220.77
785.48	220.75
785.80	220.69
786.12	220.67
786.45	220.59
786.77	220.59
787.09	220.50
787.42	220.40
787.74	220.34
788.06	220.31
788.38	220.27
788.71	220.16
789.03	220.08
789.35	220.08
789.67	219.99
789.99	219.96
790.32	219.90
790.64	219.87
790.96	219.99
791.28	219.84
791.61	219.75
791.93	219.73
792.25	219.70
792.57	219.80
792.89	219.69
793.21	219.67
793.54	219.57
793.86	219.51
794.18	219.44
794.50	219.38
794.82	219.33
795.14	219.27
795.47	219.27
795.79	219.22
796.11	219.09
796.43	219.04
796.75	218.98
797.07	218.97
797.39	218.90
797.71	218.75
798.04	218.71
798.36	218.72
798.68	218.66
799.00	218.61
799.32	218.51
799.64	218.51
799.96	218.48
800.28	218.48
800.60	218.44
800.92	218.44
801.24	218.39
801.56	218.37
801.89	218.37
802.21	218.38
802.53	218.31
802.85	218.33
803.17	218.41
803.49	218.34
803.81	218.29
804.13	218.28
804.45	218.19
804.77	218.21
805.09	218.16
805.41	218.11
805.73	218.04
806.05	217.93
806.37	217.93
806.69	217.87
807.01	217.81
807.33	217.81
807.65	217.70
807.97	217.77
808.28	217.70
808.60	217.67
808.92	217.59
809.24	217.72
809.56	217.69
809.88	217.59
810.20	217.57
810.52	217.60
810.84	217.55
811.16	217.50
811.48	217.46
811.80	217.49
812.12	217.48
812.43	217.49
812.75	217.48
813.07	217.42
813.39	217.43
813.71	217.38
814.03	217.33
814.35	217.33
814.67	217.22
814.98	217.19
815.30	217.17
815.62	217.12
815.94	216.94
816.26	216.93
816.58	216.84
816.89	216.88
817.21	216.80
817.53	216.80
817.85	216.81
818.17	216.76
818.48	216.68
818.80	216.72
819.12	216.67
819.44	216.64
819.76	216.57
820.07	216.53
820.39	216.49
820.71	216.51
821.03	216.51
821.34	216.47
821.66	216.48
821.98	216.50
822.30	216.50
822.61	216.63
822.93	216.57
823.25	216.55
823.57	216.49
823.88	216.52
824.20	216.50
824.52	216.51
824.83	216.52
825.15	216.47
825.47	216.40
825.79	216.38
826.10	216.40
826.42	216.39
826.74	216.39
827.05	216.38
827.37	216.37
827.69	216.35
828.00	216.35
828.32	216.34
828.64	216.28
828.95	216.35
829.27	216.26
829.58	216.24
829.90	216.27
830.22	216.28
830.53	216.21
830.85	216.16
831.17	216.12
831.48	216.09
831.80	216.11
832.11	216.11
832.43	216.07
832.75	216.04
833.06	216.15
833.38	216.10
833.69	216.07
834.01	216.07
834.32	216.03
834.64	216.00
834.96	215.99
835.27	216.01
835.59	215.94
835.90	215.90
836.22	215.90
836.53	215.88
836.85	215.84
837.16	216.03
837.48	216.02
837.79	216.04
838.11	216.03
838.42	216.00
838.74	216.02
839.05	216.00
839.37	215.97
839.68	215.84
840.00	215.81
840.31	215.86
840.63	215.83
840.94	215.81
841.26	215.80
841.57	215.81
841.88	215.81
842.20	215.76
842.51	215.73
842.83	215.72
843.14	215.92
843.46	215.92
843.77	215.80
844.08	215.80
844.40	215.75
844.71	215.72
845.03	215.71
845.34	215.67
845.65	215.69
845.97	215.70
846.28	215.74
846.60	215.75
846.91	215.70
847.22	215.66
847.54	215.68
847.85	215.66
848.16	215.62
848.48	215.56
848.79	215.65
849.10	215.67
849.42	215.68
849.73	215.43
850.04	215.40
850.36	215.34
850.67	215.41
850.98	215.40
851.30	215.44
851.61	215.44
851.92	215.47
852.23	215.50
852.55	215.48
852.86	215.45
853.17	215.50
853.49	215.53
853.80	215.58
854.11	215.60
854.42	215.66
854.74	215.63
855.05	215.65
855.36	215.55
855.67	215.54
855.99	215.55
856.30	215.78
856.61	215.80
856.92	215.80
857.23	215.76
857.55	215.74
857.86	215.69
858.17	215.74
858.48	215.71
858.79	215.67
859.11	215.73
859.42	215.73
859.73	215.67
860.04	215.65
860.35	215.59
860.66	215.53
860.98	215.49
861.29	215.53
861.60	215.49
861.91	215.54
862.22	215.53
862.53	215.48
862.84	215.28
863.16	215.34
863.47	215.29
863.78	215.27
864.09	215.27
864.40	215.29
864.71	215.27
865.02	215.28
865.33	215.25
865.64	215.19
865.95	215.18
866.27	215.34
866.58	215.34
866.89	215.37
867.20	215.36
867.51	215.32
867.82	215.30
868.13	215.38
868.44	215.31
868.75	215.34
869.06	215.35
869.37	215.37
869.68	215.24
869.99	215.30
870.30	215.30
870.61	215.33
870.92	215.29
871.23	215.28
871.54	215.32
871.85	215.33
872.16	215.35
872.47	215.33
872.78	215.17
873.09	215.23
873.40	215.22
873.71	215.22
874.02	215.24
874.33	215.23
874.64	215.18
874.95	215.24
875.26	215.18
875.56	215.17
875.87	215.14
876.18	215.17
876.49	215.36
876.80	215.36
877.11	215.29
877.42	215.33
877.73	215.30
878.04	215.24
878.35	215.26
878.66	215.24
878.96	215.23
879.27	215.22
879.58	215.14
879.89	215.13
880.20	215.17
880.51	215.19
880.82	215.21
881.12	215.21
881.43	215.17
881.74	215.17
882.05	215.17
882.36	215.20
882.67	215.19
882.97	214.97
883.28	214.95
883.59	214.95
883.90	214.96
884.21	215.02
884.51	215.03
884.82	214.97
885.13	215.00
885.44	215.01
885.74	215.05
886.05	215.05
886.36	215.04
886.67	214.96
886.98	215.04
887.28	215.02
887.59	215.03
887.90	215.02
888.20	215.01
888.51	215.06
888.82	214.99
889.13	215.03
889.43	215.18
889.74	215.18
890.05	215.18
890.35	215.12
890.66	215.08
890.97	215.04
891.28	215.05
891.58	215.04
891.89	215.04
892.20	215.00
892.50	214.98
892.81	214.98
893.12	215.03
893.42	214.93
893.73	214.93
894.04	214.90
894.34	214.91
894.65	214.89
894.95	214.85
895.26	214.90
895.57	214.96
895.87	214.79
896.18	214.82
896.48	214.86
896.79	214.86
897.10	214.89
897.40	214.93
897.71	214.95
898.01	214.92
898.32	214.94
898.63	214.95
898.93	214.94
899.24	214.97
899.54	214.96
899.85	214.96
900.15	214.97
900.46	214.97
900.76	214.99
901.07	215.03
901.38	215.01
901.68	215.01
901.99	214.90
902.29	214.91
902.60	214.90
902.90	214.86
903.21	214.87
903.51	214.84
903.82	214.87
904.12	214.88
904.43	214.93
904.73	214.90
905.03	214.89
905.34	215.13
905.64	215.10
905.95	215.11
906.25	215.12
906.56	215.12
906.86	215.15
907.17	215.11
907.47	215.08
907.77	215.07
908.08	215.03
908.38	215.03
908.69	215.03
908.99	215.08
909.30	215.11
909.60	215.12
909.90	215.12
910.21	215.06
910.51	215.03
910.81	214.99
911.12	215.01
911.42	215.01
911.73	214.78
912.03	214.76
912.33	214.80
912.64	214.79
912.94	214.77
913.24	214.73
913.55	214.75
913.85	214.76
914.15	214.80
914.46	214.87
914.76	214.88
915.06	214.88
915.37	214.85
915.67	214.84
915.97	214.83
916.27	214.81
916.58	214.81
916.88	214.79
917.18	214.79
917.49	214.95
917.79	214.96
918.09	215.00
918.39	215.10
918.70	215.08
919.00	215.08
919.30	215.15
919.60	215.13
919.91	215.09
920.21	215.10
920.51	215.06
920.81	215.02
921.12	215.09
921.42	215.09
921.72	215.10
922.02	215.14
922.32	215.15
922.63	215.16
922.93	215.28
923.23	215.27
923.53	215.23
923.83	215.06
924.13	215.06
924.44	215.04
924.74	215.02
925.04	215.05
925.34	215.03
925.64	214.95
925.94	214.93
926.24	215.06
926.55	215.02
926.85	215.05
927.15	215.04
927.45	215.02
927.75	215.02
928.05	215.02
928.35	214.97
928.65	215.02
928.95	215.02
929.26	214.93
929.56	215.02
929.86	215.06
930.16	215.09
930.46	215.11
930.76	215.14
931.06	215.06
931.36	215.00
931.66	215.04
931.96	215.07
932.26	215.14
932.56	215.05
932.86	215.05
933.16	215.05
933.46	215.05
933.76	214.99
934.06	215.04
934.36	215.13
934.66	215.13
934.96	215.06
935.26	215.12
935.56	215.16
935.86	215.08
936.16	215.04
936.46	215.00
936.76	214.96
937.06	214.91
937.36	214.94
937.66	214.97
937.96	214.94
938.26	214.89
938.56	214.85
938.86	214.84
939.16	214.86
939.46	214.86
939.76	214.87
940.06	214.90
940.35	214.83
940.65	214.68
940.95	214.70
941.25	214.67
941.55	214.62
941.85	214.62
942.15	214.66
942.45	214.71
942.75	214.72
943.04	214.75
943.34	214.80
943.64	214.75
943.94	214.71
944.24	214.73
944.54	214.75
944.84	214.71
945.13	214.69
945.43	214.69
945.73	214.70
946.03	214.67
946.33	214.64
946.62	214.63
946.92	214.65
947.22	214.65
947.52	214.65
947.82	214.67
948.11	214.61
948.41	214.58
948.71	214.55
949.01	214.57
949.31	214.53
949.60	214.53
949.90	214.57
950.20	214.55
950.50	214.56
950.79	214.54
951.09	214.61
951.39	214.62
951.69	214.57
951.98	214.62
952.28	214.64
952.58	214.62
952.87	214.61
953.17	214.63
953.47	214.61
953.76	214.62
954.06	214.56
954.36	214.54
954.66	214.50
954.95	214.54
955.25	214.56
955.55	214.62
955.84	214.57
956.14	214.61
956.44	214.64
956.73	214.60
957.03	214.65
957.32	214.61
957.62	214.63
957.92	214.71
958.21	214.65
958.51	214.89
958.81	214.93
959.10	214.98
959.40	215.02
959.69	215.05
959.99	215.08
960.29	215.09
960.58	215.10
960.88	215.20
961.17	215.16
961.47	215.16
961.76	215.11
962.06	215.15
962.36	215.11
962.65	215.10
962.95	215.11
963.24	215.04
963.54	215.06
963.83	215.09
964.13	215.07
964.42	215.06
964.72	214.89
965.01	214.88
965.31	214.87
965.60	214.86
965.90	214.95
966.19	214.91
966.49	214.94
966.78	214.93
967.08	214.89
967.37	214.91
967.67	214.85
967.96	214.86
968.26	214.83
968.55	214.85
968.85	214.87
969.14	214.90
969.43	214.91
969.73	214.90
970.02	214.85
970.32	214.83
970.61	214.82
970.91	214.75
971.20	214.73
971.49	214.68
971.79	214.66
972.08	214.54
972.38	214.55
972.67	214.54
972.96	214.59
973.26	214.54
973.55	214.59
973.85	214.60
974.14	214.57
974.43	214.61
974.73	214.56
975.02	214.53
975.31	214.52
975.61	214.50
975.90	214.48
976.19	214.45
976.49	214.44
976.78	214.46
977.07	214.45
977.37	214.47
977.66	214.48
977.95	214.46
978.24	214.49
978.54	214.54
978.83	214.50
979.12	214.50
979.42	214.51
979.71	214.46
980.00	214.46
980.29	214.49
980.59	214.47
980.88	214.54
981.17	214.53
981.46	214.55
981.76	214.56
982.05	214.62
982.34	214.65
982.63	214.65
982.93	214.66
983.22	214.71
983.51	214.74
983.80	214.76
984.09	214.80
984.39	214.78
984.68	214.75
984.97	214.80
985.26	214.75
985.55	214.77
985.85	214.75
986.14	214.78
986.43	214.81
986.72	214.77
987.01	214.70
987.30	214.70
987.59	214.67
987.89	214.69
988.18	214.67
988.47	214.66
988.76	214.65
989.05	214.60
989.34	214.59
989.63	214.64
989.92	214.64
990.22	214.58
990.51	214.57
990.80	214.56
991.09	214.56
991.38	214.62
991.67	214.61
991.96	214.59
992.25	214.61
992.54	214.55
992.83	214.60
993.12	214.59
993.41	214.63
993.70	214.71
993.99	214.71
994.28	214.72
994.58	214.75
994.87	214.72
995.16	214.73
995.45	214.70
995.74	214.64
996.03	214.68
996.32	214.71
996.61	214.76
996.90	214.73
997.19	214.71
997.48	214.71
997.77	214.68
998.06	214.68
998.34	214.64
998.63	214.64
998.92	214.65
999.21	214.70
999.50	214.70
999.79	214.68
1000.08	214.68
1000.37	214.65
1000.66	214.61
1000.95	214.65
1001.24	214.65
1001.53	214.70
1001.82	214.67
1002.11	214.60
1002.40	214.61
1002.68	214.69
1002.97	214.85
1003.26	214.84
1003.55	214.84
1003.84	214.87
1004.13	214.95
1004.42	214.96
1004.71	215.00
1004.99	214.95
1005.28	214.99
1005.57	214.97
1005.86	214.93
1006.15	214.91
1006.44	214.85
1006.72	214.89
1007.01	214.87
1007.30	214.87
1007.59	214.81
1007.88	214.82
1008.17	214.83
1008.45	214.80
1008.74	214.70
1009.03	214.60
1009.32	214.58
1009.60	214.53
1009.89	214.50
1010.18	214.39
1010.47	214.38
1010.76	214.36
1011.04	214.36
1011.33	214.36
1011.62	214.35
1011.91	214.36
1012.19	214.37
1012.48	214.39
1012.77	214.39
1013.05	214.49
1013.34	214.52
1013.63	214.52
1013.92	214.54
1014.20	214.53
1014.49	214.53
1014.78	214.52
1015.06	214.44
1015.35	214.46
1015.64	214.48
1015.92	214.49
1016.21	214.57
1016.50	214.56
1016.78	214.56
1017.07	214.56
1017.36	214.50
1017.64	214.49
1017.93	214.52
1018.22	214.50
1018.50	214.51
1018.79	214.50
1019.08	214.42
1019.36	214.38
1019.65	214.38
1019.93	214.39
1020.22	214.43
1020.51	214.54
1020.79	214.51
1021.08	214.22
1021.36	214.03
1021.65	214.58
1021.94	214.60
1022.22	214.06
1022.51	214.41
1022.79	214.70
1023.08	214.77
1023.36	216.83
1023.65	213.52
>>>>>End Processed Spectral Data<<<<<
