SpectraSuite Data File
++++++++++++++++++++++++++++++++++++
Date: Tue Jan 29 16:39:03 EST 2013
User: group
Dark Spectrum Present: No
Reference Spectrum Present: No
Number of Sampled Component Spectra: 1
Spectrometers: USB2E7196
Integration Time (usec): 65000 (USB2E7196)
Spectra Averaged: 100 (USB2E7196)
Boxcar Smoothing: 10 (USB2E7196)
Correct for Electrical Dark: No (USB2E7196)
Strobe/Lamp Enabled: No (USB2E7196)
Correct for Detector Non-linearity: No (USB2E7196)
Correct for Stray Light: No (USB2E7196)
Number of Pixels in Processed Spectrum: 2048
>>>>>Begin Processed Spectral Data<<<<<
339.09	0.00
339.48	201.14
339.86	202.93
340.24	203.82
340.63	205.23
341.01	210.79
341.39	208.22
341.78	209.55
342.16	210.87
342.54	211.33
342.93	200.73
343.31	210.91
343.69	211.48
344.07	211.99
344.46	212.49
344.84	212.94
345.22	213.09
345.60	213.41
345.99	213.66
346.37	213.86
346.75	214.01
347.13	214.09
347.52	214.13
347.90	214.28
348.28	214.34
348.66	214.41
349.05	214.42
349.43	214.53
349.81	214.64
350.19	214.72
350.57	214.81
350.96	214.97
351.34	215.05
351.72	215.15
352.10	215.24
352.48	215.31
352.87	215.35
353.25	215.44
353.63	215.49
354.01	215.56
354.39	215.66
354.77	215.72
355.15	215.84
355.54	215.95
355.92	215.97
356.30	216.04
356.68	216.27
357.06	216.33
357.44	216.36
357.82	216.38
358.20	216.45
358.58	216.54
358.97	216.54
359.35	216.67
359.73	216.79
360.11	216.86
360.49	216.93
360.87	217.00
361.25	217.09
361.63	217.19
362.01	217.25
362.39	217.24
362.77	217.29
363.15	217.35
363.53	217.36
363.91	217.38
364.29	217.40
364.67	217.22
365.05	217.24
365.43	217.31
365.81	217.39
366.19	217.51
366.57	217.57
366.95	217.62
367.33	217.55
367.71	217.54
368.09	217.58
368.47	217.54
368.85	217.52
369.23	217.54
369.61	217.42
369.99	217.46
370.37	217.47
370.75	217.57
371.13	217.45
371.51	217.39
371.89	217.39
372.27	217.37
372.65	217.38
373.03	217.34
373.41	217.29
373.78	217.21
374.16	217.04
374.54	216.94
374.92	216.85
375.30	216.82
375.68	216.75
376.06	216.70
376.44	216.63
376.82	216.59
377.19	216.51
377.57	216.48
377.95	216.33
378.33	216.26
378.71	216.08
379.09	216.08
379.47	216.04
379.84	215.97
380.22	215.89
380.60	215.80
380.98	215.76
381.36	215.69
381.73	215.59
382.11	215.60
382.49	215.53
382.87	215.50
383.25	215.44
383.62	215.64
384.00	215.54
384.38	215.52
384.76	215.55
385.13	215.58
385.51	215.53
385.89	215.53
386.27	215.51
386.64	215.52
387.02	215.49
387.40	215.47
387.78	215.48
388.15	215.46
388.53	215.41
388.91	215.38
389.29	215.33
389.66	215.36
390.04	215.29
390.42	215.33
390.79	215.33
391.17	215.31
391.55	215.05
391.92	215.05
392.30	215.08
392.68	214.98
393.05	214.94
393.43	214.98
393.81	214.98
394.18	214.93
394.56	214.91
394.94	214.91
395.31	214.89
395.69	214.96
396.06	215.03
396.44	215.05
396.82	215.07
397.19	215.21
397.57	215.22
397.95	215.28
398.32	215.24
398.70	215.28
399.07	215.38
399.45	215.42
399.82	215.45
400.20	215.47
400.58	215.57
400.95	215.58
401.33	215.68
401.70	215.86
402.08	215.95
402.45	216.01
402.83	216.17
403.20	216.31
403.58	216.36
403.95	216.53
404.33	216.71
404.71	216.85
405.08	217.11
405.46	217.29
405.83	217.49
406.21	217.72
406.58	217.93
406.96	218.11
407.33	218.38
407.70	218.70
408.08	219.15
408.45	219.50
408.83	219.91
409.20	220.27
409.58	220.55
409.95	221.06
410.33	221.56
410.70	222.01
411.08	222.54
411.45	223.12
411.82	223.67
412.20	224.37
412.57	225.19
412.95	225.74
413.32	226.55
413.69	227.34
414.07	228.23
414.44	229.22
414.82	230.26
415.19	231.42
415.56	232.62
415.94	233.84
416.31	235.25
416.68	236.64
417.06	238.28
417.43	239.85
417.81	241.56
418.18	243.36
418.55	245.30
418.93	247.31
419.30	249.39
419.67	251.61
420.04	253.88
420.42	256.26
420.79	259.09
421.16	261.88
421.54	264.81
421.91	267.83
422.28	270.95
422.66	274.26
423.03	277.54
423.40	280.93
423.77	284.56
424.15	288.20
424.52	292.07
424.89	296.20
425.26	300.32
425.64	304.20
426.01	308.48
426.38	312.96
426.75	317.54
427.13	322.32
427.50	327.32
427.87	332.53
428.24	337.76
428.61	342.79
428.99	348.30
429.36	354.38
429.73	360.29
430.10	366.14
430.47	372.23
430.85	378.61
431.22	385.26
431.59	392.33
431.96	399.16
432.33	406.65
432.70	413.97
433.08	422.50
433.45	430.67
433.82	438.75
434.19	447.64
434.56	456.38
434.93	464.72
435.30	473.11
435.68	482.27
436.05	491.33
436.42	500.23
436.79	508.43
437.16	517.21
437.53	526.52
437.90	535.72
438.27	544.67
438.64	553.85
439.01	562.45
439.38	570.06
439.75	577.53
440.13	585.96
440.50	593.91
440.87	600.39
441.24	607.00
441.61	614.32
441.98	619.70
442.35	626.06
442.72	632.42
443.09	638.46
443.46	642.18
443.83	644.70
444.20	646.88
444.57	650.05
444.94	651.48
445.31	652.94
445.68	654.31
446.05	655.00
446.42	654.21
446.79	653.19
447.16	652.21
447.53	651.38
447.90	648.04
448.27	644.72
448.64	639.98
449.01	636.65
449.37	630.81
449.74	625.16
450.11	618.27
450.48	610.91
450.85	603.44
451.22	597.00
451.59	590.82
451.96	585.01
452.33	577.13
452.70	570.04
453.07	561.49
453.43	552.91
453.80	544.61
454.17	536.62
454.54	529.16
454.91	520.88
455.28	512.87
455.65	505.44
456.02	497.95
456.38	491.64
456.75	483.72
457.12	477.09
457.49	470.56
457.86	464.27
458.23	458.78
458.59	452.75
458.96	446.71
459.33	441.39
459.70	436.03
460.07	431.76
460.43	426.81
460.80	422.26
461.17	418.23
461.54	414.00
461.91	409.98
462.27	405.85
462.64	402.40
463.01	398.58
463.38	394.91
463.74	391.19
464.11	387.90
464.48	385.08
464.85	382.01
465.21	379.54
465.58	376.93
465.95	373.84
466.32	371.24
466.68	368.60
467.05	365.99
467.42	363.41
467.78	360.73
468.15	358.21
468.52	356.26
468.88	353.72
469.25	351.46
469.62	349.62
469.98	347.63
470.35	345.83
470.72	344.12
471.08	342.32
471.45	340.78
471.82	339.25
472.18	337.58
472.55	336.31
472.92	334.93
473.28	333.69
473.65	332.50
474.02	331.38
474.38	330.46
474.75	329.67
475.11	328.82
475.48	328.21
475.85	327.70
476.21	327.21
476.58	326.84
476.94	326.61
477.31	326.31
477.67	326.03
478.04	325.86
478.41	325.80
478.77	325.93
479.14	325.88
479.50	325.99
479.87	326.26
480.23	326.56
480.60	326.88
480.96	327.17
481.33	327.79
481.69	328.37
482.06	328.92
482.42	329.46
482.79	330.07
483.15	330.87
483.52	331.85
483.88	332.73
484.25	333.72
484.61	334.69
484.98	335.72
485.34	337.03
485.71	338.43
486.07	339.91
486.44	341.25
486.80	342.89
487.17	344.56
487.53	346.36
487.90	348.23
488.26	350.20
488.62	352.33
488.99	354.38
489.35	356.54
489.72	358.92
490.08	361.41
490.44	363.97
490.81	366.68
491.17	369.38
491.54	372.34
491.90	375.38
492.26	378.67
492.63	382.11
492.99	385.63
493.36	389.28
493.72	393.09
494.08	397.13
494.45	401.32
494.81	405.72
495.17	410.22
495.54	414.92
495.90	419.75
496.26	424.73
496.63	429.90
496.99	435.32
497.35	440.92
497.72	446.74
498.08	452.68
498.44	458.79
498.80	465.28
499.17	471.82
499.53	478.51
499.89	485.44
500.26	492.41
500.62	499.49
500.98	506.87
501.34	514.34
501.71	522.07
502.07	529.87
502.43	537.86
502.79	546.09
503.16	554.54
503.52	563.19
503.88	571.87
504.24	580.87
504.60	589.99
504.97	599.24
505.33	608.53
505.69	618.46
506.05	628.38
506.41	638.20
506.78	648.26
507.14	658.58
507.50	669.02
507.86	679.75
508.22	690.55
508.59	701.25
508.95	712.46
509.31	723.76
509.67	735.29
510.03	746.72
510.39	758.43
510.75	770.29
511.12	782.19
511.48	794.40
511.84	806.72
512.20	818.98
512.56	831.69
512.92	844.51
513.28	857.15
513.64	869.96
514.00	882.87
514.37	895.90
514.73	909.03
515.09	922.08
515.45	934.98
515.81	948.06
516.17	961.56
516.53	974.85
516.89	988.03
517.25	1001.32
517.61	1015.02
517.97	1028.45
518.33	1041.59
518.69	1055.09
519.05	1068.91
519.41	1082.70
519.77	1096.79
520.13	1110.13
520.49	1123.39
520.85	1136.85
521.21	1150.11
521.57	1163.82
521.93	1176.99
522.29	1190.80
522.65	1204.50
523.01	1218.32
523.37	1231.62
523.73	1245.03
524.09	1258.27
524.45	1271.81
524.81	1285.36
525.17	1298.78
525.53	1312.06
525.89	1325.47
526.25	1338.87
526.61	1351.77
526.97	1364.85
527.33	1377.84
527.68	1391.34
528.04	1404.94
528.40	1418.20
528.76	1431.72
529.12	1444.73
529.48	1458.16
529.84	1470.54
530.20	1483.44
530.56	1496.12
530.91	1509.47
531.27	1522.28
531.63	1535.16
531.99	1547.98
532.35	1560.25
532.71	1572.82
533.07	1585.77
533.42	1598.27
533.78	1610.45
534.14	1622.66
534.50	1634.06
534.86	1645.72
535.21	1656.83
535.57	1668.39
535.93	1679.85
536.29	1691.17
536.65	1702.78
537.00	1713.85
537.36	1725.35
537.72	1736.45
538.08	1747.96
538.44	1759.04
538.79	1770.33
539.15	1781.29
539.51	1792.22
539.87	1803.73
540.22	1814.68
540.58	1825.75
540.94	1836.69
541.29	1846.99
541.65	1856.82
542.01	1867.36
542.37	1877.49
542.72	1887.67
543.08	1897.60
543.44	1908.20
543.79	1917.54
544.15	1927.14
544.51	1937.11
544.87	1947.02
545.22	1956.37
545.58	1965.32
545.94	1974.20
546.29	1982.91
546.65	1991.39
547.01	1999.67
547.36	2007.35
547.72	2015.07
548.07	2022.79
548.43	2030.67
548.79	2038.60
549.14	2046.76
549.50	2055.32
549.86	2063.45
550.21	2071.07
550.57	2078.92
550.92	2085.63
551.28	2093.30
551.64	2100.60
551.99	2108.21
552.35	2115.53
552.70	2122.56
553.06	2129.18
553.41	2135.67
553.77	2141.92
554.13	2148.33
554.48	2155.34
554.84	2162.56
555.19	2169.24
555.55	2175.68
555.90	2181.92
556.26	2188.79
556.61	2195.08
556.97	2200.01
557.32	2205.67
557.68	2212.03
558.03	2217.78
558.39	2223.20
558.74	2228.94
559.10	2234.46
559.45	2240.10
559.81	2245.67
560.16	2251.10
560.52	2257.04
560.87	2263.31
561.23	2269.58
561.58	2276.25
561.94	2281.51
562.29	2286.27
562.64	2292.16
563.00	2298.00
563.35	2303.55
563.71	2309.29
564.06	2314.88
564.42	2320.88
564.77	2325.97
565.12	2331.29
565.48	2336.34
565.83	2341.76
566.19	2347.26
566.54	2352.51
566.89	2357.09
567.25	2361.66
567.60	2367.33
567.96	2372.42
568.31	2377.00
568.66	2381.10
569.02	2384.97
569.37	2388.61
569.72	2392.96
570.08	2396.56
570.43	2399.43
570.78	2402.42
571.14	2404.81
571.49	2407.88
571.84	2411.27
572.20	2414.00
572.55	2416.87
572.90	2419.18
573.26	2421.92
573.61	2424.41
573.96	2426.60
574.31	2428.60
574.67	2430.29
575.02	2430.92
575.37	2432.34
575.72	2433.04
576.08	2434.43
576.43	2434.52
576.78	2434.88
577.13	2436.40
577.49	2437.42
577.84	2438.46
578.19	2439.68
578.54	2440.31
578.90	2440.93
579.25	2440.64
579.60	2440.52
579.95	2439.57
580.30	2439.40
580.66	2438.72
581.01	2436.87
581.36	2434.32
581.71	2432.65
582.06	2431.49
582.42	2430.51
582.77	2428.04
583.12	2426.20
583.47	2424.46
583.82	2423.77
584.17	2422.46
584.53	2419.97
584.88	2417.74
585.23	2415.66
585.58	2413.28
585.93	2411.23
586.28	2408.91
586.63	2406.50
586.98	2404.18
587.34	2402.14
587.69	2399.67
588.04	2397.42
588.39	2395.97
588.74	2393.38
589.09	2390.69
589.44	2387.39
589.79	2384.90
590.14	2383.03
590.49	2380.22
590.84	2376.43
591.19	2373.02
591.54	2369.69
591.89	2365.74
592.25	2362.46
592.60	2358.17
592.95	2353.97
593.30	2349.67
593.65	2345.20
594.00	2340.56
594.35	2337.51
594.70	2332.81
595.05	2328.18
595.40	2322.57
595.75	2316.65
596.10	2313.01
596.45	2308.09
596.80	2303.42
597.15	2298.05
597.50	2291.96
597.85	2286.78
598.19	2281.54
598.54	2275.83
598.89	2270.62
599.24	2265.98
599.59	2259.68
599.94	2253.79
600.29	2247.72
600.64	2241.68
600.99	2234.81
601.34	2229.35
601.69	2222.22
602.04	2215.73
602.39	2209.04
602.74	2202.98
603.08	2197.43
603.43	2190.85
603.78	2183.97
604.13	2176.70
604.48	2169.32
604.83	2163.20
605.18	2156.99
605.53	2149.95
605.87	2142.83
606.22	2135.99
606.57	2128.01
606.92	2120.03
607.27	2113.04
607.62	2106.37
607.96	2099.39
608.31	2092.93
608.66	2085.08
609.01	2077.49
609.36	2070.33
609.70	2062.64
610.05	2054.85
610.40	2046.56
610.75	2038.27
611.10	2030.51
611.44	2021.77
611.79	2013.19
612.14	2003.22
612.49	1992.59
612.83	1983.28
613.18	1973.96
613.53	1964.51
613.88	1954.97
614.22	1946.32
614.57	1936.46
614.92	1925.90
615.27	1915.59
615.61	1905.36
615.96	1895.59
616.31	1885.98
616.65	1876.48
617.00	1866.76
617.35	1857.00
617.70	1847.20
618.04	1837.22
618.39	1826.92
618.74	1817.28
619.08	1807.53
619.43	1798.75
619.78	1790.56
620.12	1782.01
620.47	1772.50
620.82	1762.21
621.16	1752.37
621.51	1742.56
621.85	1732.68
622.20	1722.47
622.55	1711.88
622.89	1702.01
623.24	1692.33
623.59	1682.46
623.93	1672.44
624.28	1662.53
624.62	1652.52
624.97	1642.30
625.32	1632.37
625.66	1623.52
626.01	1614.70
626.35	1605.56
626.70	1595.63
627.04	1585.52
627.39	1575.38
627.73	1566.12
628.08	1557.34
628.43	1547.76
628.77	1538.47
629.12	1529.68
629.46	1521.90
629.81	1513.70
630.15	1504.25
630.50	1494.37
630.84	1484.02
631.19	1474.18
631.53	1464.91
631.88	1454.75
632.22	1444.78
632.57	1435.56
632.91	1425.55
633.26	1415.75
633.60	1406.09
633.95	1396.81
634.29	1387.34
634.64	1378.08
634.98	1368.04
635.32	1358.63
635.67	1350.23
636.01	1340.94
636.36	1331.15
636.70	1321.46
637.05	1312.18
637.39	1303.19
637.73	1294.76
638.08	1287.22
638.42	1278.99
638.77	1270.24
639.11	1262.03
639.45	1254.28
639.80	1245.71
640.14	1237.00
640.49	1228.14
640.83	1219.32
641.17	1211.14
641.52	1202.96
641.86	1194.40
642.20	1186.63
642.55	1178.07
642.89	1169.24
643.23	1160.69
643.58	1152.54
643.92	1143.54
644.26	1134.71
644.61	1126.31
644.95	1117.51
645.29	1108.28
645.64	1099.20
645.98	1090.70
646.32	1082.76
646.66	1074.22
647.01	1065.89
647.35	1057.79
647.69	1049.49
648.04	1041.16
648.38	1032.30
648.72	1023.58
649.06	1015.11
649.41	1006.84
649.75	998.81
650.09	990.93
650.43	982.85
650.78	974.55
651.12	966.91
651.46	959.46
651.80	952.26
652.14	944.94
652.49	937.40
652.83	930.04
653.17	922.43
653.51	914.81
653.85	907.52
654.20	900.29
654.54	892.73
654.88	885.49
655.22	878.23
655.56	871.12
655.90	864.29
656.25	857.59
656.59	850.77
656.93	843.79
657.27	836.61
657.61	829.52
657.95	823.44
658.29	817.46
658.64	811.29
658.98	804.76
659.32	798.20
659.66	791.92
660.00	785.52
660.34	779.38
660.68	773.10
661.02	766.71
661.36	760.69
661.70	754.82
662.05	749.12
662.39	743.65
662.73	738.23
663.07	732.82
663.41	727.17
663.75	721.40
664.09	715.64
664.43	710.16
664.77	704.84
665.11	698.95
665.45	692.99
665.79	687.17
666.13	681.48
666.47	675.95
666.81	670.52
667.15	665.08
667.49	659.87
667.83	654.67
668.17	649.41
668.51	644.23
668.85	639.26
669.19	634.33
669.53	629.21
669.87	624.05
670.21	619.24
670.55	614.46
670.89	609.96
671.23	605.61
671.57	601.22
671.91	596.92
672.25	592.76
672.58	588.64
672.92	584.57
673.26	580.55
673.60	576.66
673.94	572.75
674.28	569.15
674.62	565.33
674.96	561.53
675.30	557.97
675.64	554.31
675.97	550.72
676.31	547.09
676.65	543.53
676.99	540.09
677.33	536.23
677.67	532.59
678.01	528.72
678.34	525.07
678.68	521.48
679.02	517.88
679.36	514.18
679.70	510.43
680.04	506.86
680.37	503.40
680.71	500.05
681.05	496.83
681.39	493.57
681.73	490.43
682.06	487.38
682.40	484.24
682.74	481.00
683.08	477.73
683.42	474.45
683.75	471.39
684.09	468.31
684.43	465.47
684.77	462.46
685.10	459.61
685.44	456.68
685.78	453.77
686.12	450.95
686.45	448.20
686.79	445.60
687.13	443.02
687.46	440.39
687.80	437.63
688.14	434.79
688.48	432.00
688.81	429.23
689.15	426.61
689.49	423.99
689.82	421.40
690.16	418.75
690.50	416.33
690.83	413.83
691.17	411.27
691.51	408.76
691.84	406.49
692.18	404.22
692.52	401.97
692.85	399.74
693.19	397.56
693.52	395.31
693.86	393.04
694.20	390.80
694.53	388.59
694.87	386.40
695.21	384.26
695.54	382.16
695.88	380.02
696.21	377.82
696.55	375.65
696.88	373.57
697.22	371.65
697.56	369.70
697.89	367.76
698.23	365.99
698.56	364.16
698.90	362.39
699.23	360.42
699.57	358.50
699.90	356.59
700.24	354.73
700.58	352.96
700.91	351.21
701.25	349.65
701.58	348.05
701.92	346.40
702.25	344.76
702.59	343.09
702.92	341.49
703.26	339.87
703.59	338.36
703.93	337.09
704.26	335.57
704.60	334.06
704.93	332.59
705.26	331.05
705.60	329.55
705.93	327.95
706.27	326.64
706.60	325.38
706.94	324.17
707.27	322.78
707.61	321.45
707.94	320.09
708.27	318.54
708.61	317.01
708.94	315.60
709.28	314.26
709.61	313.00
709.94	311.76
710.28	310.52
710.61	309.34
710.95	307.90
711.28	306.82
711.61	305.59
711.95	304.40
712.28	303.19
712.61	301.99
712.95	300.97
713.28	299.91
713.61	298.71
713.95	297.51
714.28	296.47
714.61	295.38
714.95	294.37
715.28	293.30
715.61	292.26
715.95	291.29
716.28	290.33
716.61	289.34
716.95	288.33
717.28	287.40
717.61	286.41
717.94	285.48
718.28	284.42
718.61	283.53
718.94	282.57
719.27	281.76
719.61	280.90
719.94	279.99
720.27	278.97
720.60	278.12
720.94	277.28
721.27	276.52
721.60	275.83
721.93	275.06
722.27	274.44
722.60	273.79
722.93	273.05
723.26	272.35
723.59	271.64
723.93	271.00
724.26	270.32
724.59	269.66
724.92	269.08
725.25	268.57
725.59	268.02
725.92	267.50
726.25	266.87
726.58	266.30
726.91	265.73
727.24	265.23
727.57	264.66
727.91	264.08
728.24	263.51
728.57	262.93
728.90	262.34
729.23	261.68
729.56	261.23
729.89	260.71
730.22	260.14
730.55	259.58
730.89	259.02
731.22	258.53
731.55	258.00
731.88	257.49
732.21	256.88
732.54	256.31
732.87	255.78
733.20	255.31
733.53	254.83
733.86	254.36
734.19	253.86
734.52	253.43
734.85	253.13
735.18	252.63
735.51	252.20
735.84	251.76
736.17	251.36
736.50	250.86
736.83	250.69
737.16	250.33
737.49	249.97
737.82	249.56
738.15	249.16
738.48	248.76
738.81	248.34
739.14	247.92
739.47	247.54
739.80	247.17
740.13	246.79
740.46	246.37
740.79	245.99
741.12	245.60
741.45	245.21
741.78	244.75
742.11	244.48
742.44	244.13
742.77	243.88
743.10	243.57
743.43	243.20
743.75	242.63
744.08	242.53
744.41	242.15
744.74	241.79
745.07	241.41
745.40	241.10
745.73	240.82
746.06	240.52
746.39	240.19
746.71	239.85
747.04	239.50
747.37	239.19
747.70	238.88
748.03	238.55
748.36	238.32
748.68	237.98
749.01	237.63
749.34	237.34
749.67	237.02
750.00	236.75
750.33	236.59
750.65	236.32
750.98	235.79
751.31	235.54
751.64	235.32
751.97	235.22
752.29	234.96
752.62	234.60
752.95	234.35
753.28	234.09
753.60	233.87
753.93	233.68
754.26	233.46
754.59	233.19
754.91	232.98
755.24	232.70
755.57	232.49
755.90	232.27
756.22	232.02
756.55	231.78
756.88	231.47
757.20	231.14
757.53	230.87
757.86	230.68
758.19	230.50
758.51	230.27
758.84	229.94
759.17	229.73
759.49	229.56
759.82	229.47
760.15	229.28
760.47	229.10
760.80	228.84
761.13	228.69
761.45	228.47
761.78	228.27
762.11	228.10
762.43	227.90
762.76	227.69
763.08	227.52
763.41	227.35
763.74	227.25
764.06	227.09
764.39	226.95
764.71	226.75
765.04	226.59
765.37	226.42
765.69	226.29
766.02	226.17
766.34	226.04
766.67	225.82
767.00	225.72
767.32	225.70
767.65	225.69
767.97	225.54
768.30	225.44
768.62	225.32
768.95	225.20
769.27	225.08
769.60	225.02
769.92	224.87
770.25	224.71
770.57	224.54
770.90	224.44
771.22	224.31
771.55	224.21
771.87	224.09
772.20	223.99
772.52	224.03
772.85	224.13
773.17	224.01
773.50	223.89
773.82	223.74
774.15	223.53
774.47	223.30
774.80	223.21
775.12	223.06
775.45	222.97
775.77	222.87
776.09	222.78
776.42	222.68
776.74	222.67
777.07	222.60
777.39	222.51
777.72	222.42
778.04	222.39
778.36	222.29
778.69	222.23
779.01	222.15
779.33	221.93
779.66	221.63
779.98	221.54
780.31	221.48
780.63	221.53
780.95	221.51
781.28	221.46
781.60	221.33
781.92	221.31
782.25	221.23
782.57	221.16
782.89	221.08
783.22	220.98
783.54	220.83
783.86	220.76
784.19	220.66
784.51	220.63
784.83	220.51
785.16	220.45
785.48	220.36
785.80	220.32
786.12	220.26
786.45	220.16
786.77	220.08
787.09	219.98
787.42	219.83
787.74	219.76
788.06	219.69
788.38	219.64
788.71	219.55
789.03	219.50
789.35	219.48
789.67	219.43
789.99	219.40
790.32	219.35
790.64	219.33
790.96	219.46
791.28	219.35
791.61	219.28
791.93	219.26
792.25	219.22
792.57	219.30
792.89	219.17
793.21	219.16
793.54	219.09
793.86	219.04
794.18	219.00
794.50	218.91
794.82	218.87
795.14	218.88
795.47	218.85
795.79	218.81
796.11	218.70
796.43	218.62
796.75	218.56
797.07	218.51
797.39	218.47
797.71	218.27
798.04	218.23
798.36	218.21
798.68	218.16
799.00	218.11
799.32	217.97
799.64	217.98
799.96	217.97
800.28	218.01
800.60	217.95
800.92	217.94
801.24	217.89
801.56	217.84
801.89	217.77
802.21	217.75
802.53	217.67
802.85	217.69
803.17	217.78
803.49	217.70
803.81	217.64
804.13	217.59
804.45	217.52
804.77	217.51
805.09	217.46
805.41	217.41
805.73	217.35
806.05	217.24
806.37	217.21
806.69	217.17
807.01	217.09
807.33	217.09
807.65	216.99
807.97	217.07
808.28	217.03
808.60	216.96
808.92	216.93
809.24	217.02
809.56	216.96
809.88	216.84
810.20	216.81
810.52	216.85
810.84	216.79
811.16	216.76
811.48	216.69
811.80	216.76
812.12	216.74
812.43	216.77
812.75	216.78
813.07	216.74
813.39	216.67
813.71	216.62
814.03	216.58
814.35	216.55
814.67	216.46
814.98	216.40
815.30	216.40
815.62	216.34
815.94	216.20
816.26	216.20
816.58	216.12
816.89	216.13
817.21	216.08
817.53	216.10
817.85	216.10
818.17	216.09
818.48	215.99
818.80	216.00
819.12	215.92
819.44	215.88
819.76	215.82
820.07	215.86
820.39	215.84
820.71	215.83
821.03	215.82
821.34	215.74
821.66	215.78
821.98	215.78
822.30	215.77
822.61	215.87
822.93	215.82
823.25	215.82
823.57	215.78
823.88	215.81
824.20	215.77
824.52	215.77
824.83	215.79
825.15	215.72
825.47	215.69
825.79	215.73
826.10	215.69
826.42	215.70
826.74	215.70
827.05	215.69
827.37	215.67
827.69	215.64
828.00	215.66
828.32	215.64
828.64	215.57
828.95	215.68
829.27	215.63
829.58	215.63
829.90	215.65
830.22	215.63
830.53	215.58
830.85	215.57
831.17	215.53
831.48	215.49
831.80	215.52
832.11	215.48
832.43	215.42
832.75	215.43
833.06	215.56
833.38	215.48
833.69	215.48
834.01	215.48
834.32	215.47
834.64	215.47
834.96	215.47
835.27	215.51
835.59	215.41
835.90	215.35
836.22	215.37
836.53	215.33
836.85	215.32
837.16	215.49
837.48	215.46
837.79	215.52
838.11	215.51
838.42	215.48
838.74	215.53
839.05	215.52
839.37	215.49
839.68	215.31
840.00	215.28
840.31	215.33
840.63	215.31
840.94	215.30
841.26	215.27
841.57	215.23
841.88	215.24
842.20	215.22
842.51	215.20
842.83	215.18
843.14	215.34
843.46	215.38
843.77	215.27
844.08	215.25
844.40	215.20
844.71	215.18
845.03	215.16
845.34	215.13
845.65	215.10
845.97	215.12
846.28	215.13
846.60	215.17
846.91	215.09
847.22	215.10
847.54	215.13
847.85	215.12
848.16	215.11
848.48	215.03
848.79	215.11
849.10	215.12
849.42	215.14
849.73	214.95
850.04	214.90
850.36	214.81
850.67	214.84
850.98	214.83
851.30	214.87
851.61	214.87
851.92	214.85
852.23	214.91
852.55	214.92
852.86	214.98
853.17	214.99
853.49	215.03
853.80	215.08
854.11	215.13
854.42	215.16
854.74	215.15
855.05	215.19
855.36	215.10
855.67	215.10
855.99	215.05
856.30	215.30
856.61	215.29
856.92	215.29
857.23	215.27
857.55	215.23
857.86	215.21
858.17	215.23
858.48	215.21
858.79	215.17
859.11	215.15
859.42	215.10
859.73	215.02
860.04	215.02
860.35	214.95
860.66	214.85
860.98	214.80
861.29	214.84
861.60	214.84
861.91	214.88
862.22	214.82
862.53	214.80
862.84	214.55
863.16	214.61
863.47	214.60
863.78	214.60
864.09	214.60
864.40	214.58
864.71	214.61
865.02	214.66
865.33	214.64
865.64	214.59
865.95	214.61
866.27	214.78
866.58	214.76
866.89	214.79
867.20	214.82
867.51	214.80
867.82	214.78
868.13	214.83
868.44	214.78
868.75	214.84
869.06	214.87
869.37	214.89
869.68	214.81
869.99	214.83
870.30	214.86
870.61	214.89
870.92	214.86
871.23	214.80
871.54	214.77
871.85	214.81
872.16	214.87
872.47	214.87
872.78	214.73
873.09	214.76
873.40	214.74
873.71	214.73
874.02	214.74
874.33	214.69
874.64	214.64
874.95	214.65
875.26	214.59
875.56	214.53
875.87	214.52
876.18	214.53
876.49	214.72
876.80	214.70
877.11	214.62
877.42	214.66
877.73	214.67
878.04	214.63
878.35	214.60
878.66	214.58
878.96	214.53
879.27	214.52
879.58	214.49
879.89	214.45
880.20	214.50
880.51	214.51
880.82	214.52
881.12	214.54
881.43	214.48
881.74	214.50
882.05	214.51
882.36	214.51
882.67	214.49
882.97	214.27
883.28	214.22
883.59	214.24
883.90	214.24
884.21	214.27
884.51	214.26
884.82	214.25
885.13	214.23
885.44	214.27
885.74	214.26
886.05	214.25
886.36	214.27
886.67	214.20
886.98	214.29
887.28	214.30
887.59	214.29
887.90	214.34
888.20	214.28
888.51	214.31
888.82	214.28
889.13	214.29
889.43	214.48
889.74	214.49
890.05	214.52
890.35	214.50
890.66	214.47
890.97	214.46
891.28	214.43
891.58	214.45
891.89	214.42
892.20	214.41
892.50	214.38
892.81	214.35
893.12	214.34
893.42	214.23
893.73	214.23
894.04	214.20
894.34	214.22
894.65	214.26
894.95	214.23
895.26	214.26
895.57	214.37
895.87	214.11
896.18	214.16
896.48	214.19
896.79	214.16
897.10	214.21
897.40	214.22
897.71	214.24
898.01	214.22
898.32	214.28
898.63	214.27
898.93	214.29
899.24	214.29
899.54	214.26
899.85	214.25
900.15	214.27
900.46	214.29
900.76	214.31
901.07	214.30
901.38	214.32
901.68	214.34
901.99	214.22
902.29	214.29
902.60	214.25
902.90	214.21
903.21	214.25
903.51	214.22
903.82	214.28
904.12	214.28
904.43	214.29
904.73	214.24
905.03	214.26
905.34	214.47
905.64	214.48
905.95	214.48
906.25	214.47
906.56	214.46
906.86	214.48
907.17	214.45
907.47	214.47
907.77	214.42
908.08	214.36
908.38	214.41
908.69	214.43
908.99	214.50
909.30	214.50
909.60	214.49
909.90	214.46
910.21	214.40
910.51	214.38
910.81	214.39
911.12	214.43
911.42	214.42
911.73	214.20
912.03	214.22
912.33	214.29
912.64	214.28
912.94	214.24
913.24	214.19
913.55	214.17
913.85	214.14
914.15	214.22
914.46	214.24
914.76	214.19
915.06	214.15
915.37	214.08
915.67	214.08
915.97	214.10
916.27	214.08
916.58	214.07
916.88	214.08
917.18	214.06
917.49	214.20
917.79	214.21
918.09	214.22
918.39	214.25
918.70	214.26
919.00	214.28
919.30	214.38
919.60	214.36
919.91	214.36
920.21	214.37
920.51	214.28
920.81	214.27
921.12	214.32
921.42	214.35
921.72	214.39
922.02	214.42
922.32	214.43
922.63	214.43
922.93	214.57
923.23	214.59
923.53	214.55
923.83	214.38
924.13	214.42
924.44	214.43
924.74	214.44
925.04	214.49
925.34	214.47
925.64	214.37
925.94	214.36
926.24	214.46
926.55	214.47
926.85	214.54
927.15	214.54
927.45	214.50
927.75	214.50
928.05	214.45
928.35	214.43
928.65	214.44
928.95	214.44
929.26	214.35
929.56	214.36
929.86	214.40
930.16	214.37
930.46	214.31
930.76	214.31
931.06	214.25
931.36	214.19
931.66	214.23
931.96	214.27
932.26	214.30
932.56	214.23
932.86	214.24
933.16	214.22
933.46	214.21
933.76	214.22
934.06	214.26
934.36	214.35
934.66	214.31
934.96	214.29
935.26	214.31
935.56	214.33
935.86	214.29
936.16	214.26
936.46	214.26
936.76	214.27
937.06	214.25
937.36	214.27
937.66	214.27
937.96	214.24
938.26	214.19
938.56	214.15
938.86	214.15
939.16	214.18
939.46	214.20
939.76	214.20
940.06	214.17
940.35	214.13
940.65	214.03
940.95	214.06
941.25	214.03
941.55	214.00
941.85	213.94
942.15	213.98
942.45	214.03
942.75	214.05
943.04	214.05
943.34	214.05
943.64	214.02
943.94	213.97
944.24	213.99
944.54	214.02
944.84	214.03
945.13	214.00
945.43	213.95
945.73	213.92
946.03	213.94
946.33	213.91
946.62	213.86
946.92	213.86
947.22	213.86
947.52	213.85
947.82	213.88
948.11	213.89
948.41	213.84
948.71	213.83
949.01	213.83
949.31	213.80
949.60	213.80
949.90	213.81
950.20	213.81
950.50	213.83
950.79	213.79
951.09	213.81
951.39	213.81
951.69	213.80
951.98	213.83
952.28	213.82
952.58	213.85
952.87	213.87
953.17	213.90
953.47	213.89
953.76	213.90
954.06	213.87
954.36	213.83
954.66	213.81
954.95	213.86
955.25	213.85
955.55	213.87
955.84	213.84
956.14	213.90
956.44	213.92
956.73	213.87
957.03	213.87
957.32	213.85
957.62	213.88
957.92	213.92
958.21	213.90
958.51	214.16
958.81	214.17
959.10	214.18
959.40	214.21
959.69	214.22
959.99	214.26
960.29	214.24
960.58	214.25
960.88	214.33
961.17	214.30
961.47	214.34
961.76	214.35
962.06	214.38
962.36	214.33
962.65	214.33
962.95	214.33
963.24	214.34
963.54	214.38
963.83	214.36
964.13	214.33
964.42	214.29
964.72	214.09
965.01	214.11
965.31	214.11
965.60	214.07
965.90	214.21
966.19	214.13
966.49	214.17
966.78	214.18
967.08	214.18
967.37	214.16
967.67	214.12
967.96	214.13
968.26	214.13
968.55	214.16
968.85	214.15
969.14	214.16
969.43	214.15
969.73	214.12
970.02	214.12
970.32	214.11
970.61	214.13
970.91	214.13
971.20	214.09
971.49	214.08
971.79	214.08
972.08	213.93
972.38	213.98
972.67	213.95
972.96	213.96
973.26	213.89
973.55	213.99
973.85	213.99
974.14	214.01
974.43	214.01
974.73	213.97
975.02	213.98
975.31	213.96
975.61	213.98
975.90	213.97
976.19	213.95
976.49	213.95
976.78	213.96
977.07	213.92
977.37	213.94
977.66	213.94
977.95	213.95
978.24	213.98
978.54	214.00
978.83	213.99
979.12	214.03
979.42	214.08
979.71	214.01
980.00	213.98
980.29	213.96
980.59	213.95
980.88	213.99
981.17	213.98
981.46	213.99
981.76	213.98
982.05	214.05
982.34	214.05
982.63	214.05
982.93	214.05
983.22	214.11
983.51	214.12
983.80	214.15
984.09	214.15
984.39	214.11
984.68	214.10
984.97	214.13
985.26	214.10
985.55	214.09
985.85	214.04
986.14	214.10
986.43	214.13
986.72	214.09
987.01	214.03
987.30	214.03
987.59	214.02
987.89	214.01
988.18	213.95
988.47	213.95
988.76	213.96
989.05	213.91
989.34	213.86
989.63	213.92
989.92	213.89
990.22	213.88
990.51	213.90
990.80	213.87
991.09	213.86
991.38	213.90
991.67	213.89
991.96	213.87
992.25	213.87
992.54	213.84
992.83	213.87
993.12	213.87
993.41	213.94
993.70	214.04
993.99	214.04
994.28	214.08
994.58	214.09
994.87	214.06
995.16	214.07
995.45	214.08
995.74	213.99
996.03	214.03
996.32	214.06
996.61	214.08
996.90	214.10
997.19	214.07
997.48	214.05
997.77	214.02
998.06	214.03
998.34	214.01
998.63	214.00
998.92	213.98
999.21	214.00
999.50	214.00
999.79	213.88
1000.08	213.91
1000.37	213.87
1000.66	213.86
1000.95	213.92
1001.24	213.95
1001.53	213.97
1001.82	213.98
1002.11	213.95
1002.40	213.98
1002.68	214.03
1002.97	214.15
1003.26	214.18
1003.55	214.13
1003.84	214.15
1004.13	214.27
1004.42	214.26
1004.71	214.28
1004.99	214.28
1005.28	214.29
1005.57	214.26
1005.86	214.26
1006.15	214.21
1006.44	214.20
1006.72	214.20
1007.01	214.13
1007.30	214.14
1007.59	214.12
1007.88	214.08
1008.17	214.08
1008.45	214.02
1008.74	213.93
1009.03	213.82
1009.32	213.80
1009.60	213.81
1009.89	213.81
1010.18	213.68
1010.47	213.67
1010.76	213.66
1011.04	213.67
1011.33	213.70
1011.62	213.72
1011.91	213.74
1012.19	213.78
1012.48	213.79
1012.77	213.80
1013.05	213.93
1013.34	213.93
1013.63	213.90
1013.92	213.95
1014.20	213.90
1014.49	213.92
1014.78	213.96
1015.06	213.92
1015.35	213.91
1015.64	213.95
1015.92	213.98
1016.21	214.02
1016.50	213.99
1016.78	214.01
1017.07	214.06
1017.36	213.98
1017.64	213.94
1017.93	213.99
1018.22	213.95
1018.50	213.98
1018.79	213.95
1019.08	213.84
1019.36	213.82
1019.65	213.80
1019.93	213.83
1020.22	213.88
1020.51	214.00
1020.79	213.98
1021.08	212.86
1021.36	214.09
1021.65	213.35
1021.94	213.61
1022.22	213.64
1022.51	213.34
1022.79	214.67
1023.08	214.10
1023.36	216.76
1023.65	213.71
>>>>>End Processed Spectral Data<<<<<
