SpectraSuite Data File
++++++++++++++++++++++++++++++++++++
Date: Tue Jan 29 16:43:24 EST 2013
User: group
Dark Spectrum Present: No
Reference Spectrum Present: No
Number of Sampled Component Spectra: 1
Spectrometers: USB2E7196
Integration Time (usec): 65000 (USB2E7196)
Spectra Averaged: 100 (USB2E7196)
Boxcar Smoothing: 10 (USB2E7196)
Correct for Electrical Dark: No (USB2E7196)
Strobe/Lamp Enabled: No (USB2E7196)
Correct for Detector Non-linearity: No (USB2E7196)
Correct for Stray Light: No (USB2E7196)
Number of Pixels in Processed Spectrum: 2048
>>>>>Begin Processed Spectral Data<<<<<
339.09	0.00
339.48	202.13
339.86	203.46
340.24	204.45
340.63	206.46
341.01	210.50
341.39	208.77
341.78	210.60
342.16	212.05
342.54	212.11
342.93	201.26
343.31	211.45
343.69	211.97
344.07	212.44
344.46	212.89
344.84	213.30
345.22	213.48
345.60	213.79
345.99	214.00
346.37	214.14
346.75	214.25
347.13	214.33
347.52	214.35
347.90	214.48
348.28	214.52
348.66	214.61
349.05	214.60
349.43	214.66
349.81	214.73
350.19	214.80
350.57	214.85
350.96	214.92
351.34	215.00
351.72	215.12
352.10	215.22
352.48	215.30
352.87	215.35
353.25	215.42
353.63	215.45
354.01	215.48
354.39	215.53
354.77	215.60
355.15	215.71
355.54	215.76
355.92	215.76
356.30	215.84
356.68	216.00
357.06	216.05
357.44	216.06
357.82	216.11
358.20	216.19
358.58	216.25
358.97	216.34
359.35	216.43
359.73	216.52
360.11	216.57
360.49	216.63
360.87	216.70
361.25	216.79
361.63	216.90
362.01	216.97
362.39	216.98
362.77	217.01
363.15	217.06
363.53	217.12
363.91	217.16
364.29	217.17
364.67	217.00
365.05	217.03
365.43	217.10
365.81	217.16
366.19	217.22
366.57	217.29
366.95	217.27
367.33	217.22
367.71	217.21
368.09	217.23
368.47	217.21
368.85	217.15
369.23	217.14
369.61	217.04
369.99	217.11
370.37	217.10
370.75	217.18
371.13	217.08
371.51	216.99
371.89	217.00
372.27	216.99
372.65	216.99
373.03	216.99
373.41	216.95
373.78	216.88
374.16	216.72
374.54	216.67
374.92	216.57
375.30	216.55
375.68	216.47
376.06	216.43
376.44	216.38
376.82	216.35
377.19	216.31
377.57	216.28
377.95	216.15
378.33	216.12
378.71	215.98
379.09	215.99
379.47	215.99
379.84	215.89
380.22	215.80
380.60	215.70
380.98	215.62
381.36	215.54
381.73	215.48
382.11	215.49
382.49	215.41
382.87	215.39
383.25	215.34
383.62	215.57
384.00	215.47
384.38	215.46
384.76	215.46
385.13	215.49
385.51	215.43
385.89	215.37
386.27	215.36
386.64	215.33
387.02	215.27
387.40	215.23
387.78	215.24
388.15	215.28
388.53	215.28
388.91	215.28
389.29	215.24
389.66	215.22
390.04	215.19
390.42	215.21
390.79	215.20
391.17	215.19
391.55	214.93
391.92	214.96
392.30	214.95
392.68	214.91
393.05	214.87
393.43	214.88
393.81	214.91
394.18	214.88
394.56	214.88
394.94	214.96
395.31	214.94
395.69	215.00
396.06	215.01
396.44	215.03
396.82	215.02
397.19	215.16
397.57	215.21
397.95	215.27
398.32	215.28
398.70	215.36
399.07	215.47
399.45	215.49
399.82	215.54
400.20	215.57
400.58	215.63
400.95	215.64
401.33	215.77
401.70	215.99
402.08	216.07
402.45	216.20
402.83	216.29
403.20	216.42
403.58	216.49
403.95	216.66
404.33	216.85
404.71	217.01
405.08	217.25
405.46	217.41
405.83	217.62
406.21	217.79
406.58	218.02
406.96	218.21
407.33	218.50
407.70	218.77
408.08	219.25
408.45	219.62
408.83	220.01
409.20	220.31
409.58	220.57
409.95	221.02
410.33	221.51
410.70	221.95
411.08	222.51
411.45	223.12
411.82	223.68
412.20	224.34
412.57	225.20
412.95	225.75
413.32	226.57
413.69	227.38
414.07	228.32
414.44	229.28
414.82	230.29
415.19	231.50
415.56	232.69
415.94	233.89
416.31	235.33
416.68	236.76
417.06	238.37
417.43	239.95
417.81	241.75
418.18	243.53
418.55	245.49
418.93	247.55
419.30	249.66
419.67	251.89
420.04	254.21
420.42	256.57
420.79	259.44
421.16	262.28
421.54	265.23
421.91	268.22
422.28	271.37
422.66	274.71
423.03	277.93
423.40	281.34
423.77	284.92
424.15	288.55
424.52	292.36
424.89	296.62
425.26	300.70
425.64	304.57
426.01	308.83
426.38	313.32
426.75	317.88
427.13	322.59
427.50	327.60
427.87	332.79
428.24	338.01
428.61	343.01
428.99	348.51
429.36	354.54
429.73	360.42
430.10	366.31
430.47	372.38
430.85	378.74
431.22	385.42
431.59	392.51
431.96	399.38
432.33	406.92
432.70	414.13
433.08	422.70
433.45	430.82
433.82	438.95
434.19	447.92
434.56	456.64
434.93	465.00
435.30	473.31
435.68	482.48
436.05	491.54
436.42	500.48
436.79	508.68
437.16	517.42
437.53	526.83
437.90	536.01
438.27	544.99
438.64	554.23
439.01	562.79
439.38	570.40
439.75	577.78
440.13	586.28
440.50	594.27
440.87	600.67
441.24	607.26
441.61	614.58
441.98	619.90
442.35	626.29
442.72	632.74
443.09	638.77
443.46	642.54
443.83	645.10
444.20	647.26
444.57	650.51
444.94	652.03
445.31	653.48
445.68	654.94
446.05	655.58
446.42	654.89
446.79	654.04
447.16	653.02
447.53	652.25
447.90	648.91
448.27	645.66
448.64	641.08
449.01	637.81
449.37	631.90
449.74	626.27
450.11	619.29
450.48	611.80
450.85	604.36
451.22	597.87
451.59	591.67
451.96	585.85
452.33	577.92
452.70	570.80
453.07	562.23
453.43	553.50
453.80	545.18
454.17	537.10
454.54	529.47
454.91	521.24
455.28	513.19
455.65	505.71
456.02	498.16
456.38	491.78
456.75	483.92
457.12	477.33
457.49	470.72
457.86	464.54
458.23	459.14
458.59	453.12
458.96	447.02
459.33	441.73
459.70	436.37
460.07	431.98
460.43	427.01
460.80	422.40
461.17	418.39
461.54	414.16
461.91	410.05
462.27	405.90
462.64	402.47
463.01	398.67
463.38	394.99
463.74	391.27
464.11	388.00
464.48	385.14
464.85	381.98
465.21	379.56
465.58	376.93
465.95	373.79
466.32	371.22
466.68	368.64
467.05	365.99
467.42	363.32
467.78	360.69
468.15	358.14
468.52	356.25
468.88	353.73
469.25	351.52
469.62	349.80
469.98	347.86
470.35	346.02
470.72	344.31
471.08	342.45
471.45	340.89
471.82	339.34
472.18	337.60
472.55	336.42
472.92	335.00
473.28	333.77
473.65	332.59
474.02	331.41
474.38	330.44
474.75	329.70
475.11	328.93
475.48	328.29
475.85	327.79
476.21	327.25
476.58	326.87
476.94	326.60
477.31	326.24
477.67	325.97
478.04	325.80
478.41	325.78
478.77	325.91
479.14	325.87
479.50	326.01
479.87	326.29
480.23	326.57
480.60	326.84
480.96	327.13
481.33	327.71
481.69	328.32
482.06	328.90
482.42	329.35
482.79	329.94
483.15	330.81
483.52	331.79
483.88	332.73
484.25	333.68
484.61	334.70
484.98	335.75
485.34	337.06
485.71	338.43
486.07	339.86
486.44	341.23
486.80	342.88
487.17	344.57
487.53	346.41
487.90	348.32
488.26	350.36
488.62	352.50
488.99	354.57
489.35	356.74
489.72	359.15
490.08	361.69
490.44	364.27
490.81	366.96
491.17	369.63
491.54	372.59
491.90	375.67
492.26	378.94
492.63	382.32
492.99	385.76
493.36	389.41
493.72	393.31
494.08	397.30
494.45	401.46
494.81	405.77
495.17	410.23
495.54	414.92
495.90	419.77
496.26	424.69
496.63	429.90
496.99	435.35
497.35	440.91
497.72	446.72
498.08	452.65
498.44	458.80
498.80	465.26
499.17	471.75
499.53	478.47
499.89	485.37
500.26	492.42
500.62	499.56
500.98	507.03
501.34	514.44
501.71	522.27
502.07	530.13
502.43	538.12
502.79	546.27
503.16	554.69
503.52	563.27
503.88	572.06
504.24	581.04
504.60	590.07
504.97	599.32
505.33	608.63
505.69	618.49
506.05	628.29
506.41	638.18
506.78	648.23
507.14	658.41
507.50	668.83
507.86	679.49
508.22	690.28
508.59	700.94
508.95	712.06
509.31	723.26
509.67	734.78
510.03	746.19
510.39	757.89
510.75	769.67
511.12	781.54
511.48	793.59
511.84	805.88
512.20	818.15
512.56	830.84
512.92	843.65
513.28	856.31
513.64	869.20
514.00	882.06
514.37	895.05
514.73	908.29
515.09	921.42
515.45	934.35
515.81	947.42
516.17	960.88
516.53	974.15
516.89	987.31
517.25	1000.40
517.61	1013.99
517.97	1027.55
518.33	1040.80
518.69	1054.35
519.05	1068.22
519.41	1081.85
519.77	1095.86
520.13	1109.17
520.49	1122.36
520.85	1135.90
521.21	1149.18
521.57	1163.00
521.93	1176.12
522.29	1189.86
522.65	1203.46
523.01	1217.20
523.37	1230.34
523.73	1243.65
524.09	1257.03
524.45	1270.49
524.81	1284.20
525.17	1297.73
525.53	1310.95
525.89	1324.25
526.25	1337.43
526.61	1350.24
526.97	1363.49
527.33	1376.44
527.68	1390.02
528.04	1403.67
528.40	1416.69
528.76	1430.23
529.12	1443.07
529.48	1456.46
529.84	1468.68
530.20	1481.55
530.56	1494.18
530.91	1507.63
531.27	1520.45
531.63	1533.11
531.99	1545.96
532.35	1558.15
532.71	1570.60
533.07	1583.43
533.42	1595.89
533.78	1608.18
534.14	1620.32
534.50	1631.63
534.86	1643.38
535.21	1654.27
535.57	1665.85
535.93	1677.30
536.29	1688.40
536.65	1700.11
537.00	1711.24
537.36	1722.95
537.72	1734.07
538.08	1745.61
538.44	1756.67
538.79	1767.95
539.15	1779.02
539.51	1789.89
539.87	1801.41
540.22	1812.32
540.58	1823.48
540.94	1834.55
541.29	1844.87
541.65	1854.81
542.01	1865.48
542.37	1875.64
542.72	1885.88
543.08	1895.60
543.44	1906.22
543.79	1915.49
544.15	1924.92
544.51	1934.88
544.87	1944.84
545.22	1954.13
545.58	1963.16
545.94	1972.06
546.29	1980.68
546.65	1989.04
547.01	1997.41
547.36	2005.11
547.72	2012.96
548.07	2020.63
548.43	2028.41
548.79	2036.38
549.14	2044.50
549.50	2052.89
549.86	2060.85
550.21	2068.45
550.57	2076.33
550.92	2083.04
551.28	2090.65
551.64	2097.94
551.99	2105.54
552.35	2112.65
552.70	2119.64
553.06	2126.32
553.41	2132.71
553.77	2139.37
554.13	2145.79
554.48	2152.85
554.84	2160.03
555.19	2166.65
555.55	2173.00
555.90	2179.19
556.26	2186.13
556.61	2192.34
556.97	2197.08
557.32	2202.85
557.68	2209.15
558.03	2214.97
558.39	2220.50
558.74	2226.59
559.10	2232.10
559.45	2237.58
559.81	2243.05
560.16	2248.43
560.52	2254.22
560.87	2260.61
561.23	2266.40
561.58	2273.24
561.94	2278.42
562.29	2283.06
562.64	2289.03
563.00	2294.78
563.35	2300.32
563.71	2305.95
564.06	2311.56
564.42	2317.63
564.77	2322.58
565.12	2328.01
565.48	2333.01
565.83	2338.38
566.19	2343.57
566.54	2348.91
566.89	2353.53
567.25	2358.09
567.60	2363.84
567.96	2368.86
568.31	2373.35
568.66	2377.57
569.02	2381.28
569.37	2385.02
569.72	2389.31
570.08	2392.62
570.43	2395.59
570.78	2398.72
571.14	2401.10
571.49	2404.24
571.84	2407.55
572.20	2410.44
572.55	2413.04
572.90	2415.26
573.26	2417.91
573.61	2420.47
573.96	2422.64
574.31	2424.64
574.67	2426.48
575.02	2427.15
575.37	2428.63
575.72	2429.17
576.08	2430.53
576.43	2430.65
576.78	2430.90
577.13	2432.40
577.49	2433.55
577.84	2434.35
578.19	2435.52
578.54	2435.97
578.90	2436.35
579.25	2436.16
579.60	2435.85
579.95	2435.18
580.30	2435.09
580.66	2434.28
581.01	2432.56
581.36	2429.92
581.71	2428.39
582.06	2427.03
582.42	2425.93
582.77	2423.33
583.12	2421.59
583.47	2419.97
583.82	2419.24
584.17	2417.89
584.53	2415.59
584.88	2413.33
585.23	2411.45
585.58	2408.90
585.93	2406.85
586.28	2404.56
586.63	2401.96
586.98	2399.68
587.34	2397.51
587.69	2395.03
588.04	2392.80
588.39	2391.08
588.74	2388.50
589.09	2385.53
589.44	2382.17
589.79	2379.46
590.14	2377.53
590.49	2374.48
590.84	2370.47
591.19	2367.09
591.54	2363.82
591.89	2359.63
592.25	2356.25
592.60	2351.83
592.95	2347.63
593.30	2343.36
593.65	2338.94
594.00	2334.54
594.35	2331.46
594.70	2326.69
595.05	2321.93
595.40	2316.60
595.75	2310.63
596.10	2306.86
596.45	2302.06
596.80	2297.39
597.15	2292.26
597.50	2286.21
597.85	2281.24
598.19	2276.16
598.54	2270.29
598.89	2264.91
599.24	2260.25
599.59	2254.10
599.94	2248.08
600.29	2242.04
600.64	2235.93
600.99	2229.04
601.34	2223.55
601.69	2216.53
602.04	2210.06
602.39	2203.33
602.74	2196.97
603.08	2191.57
603.43	2185.03
603.78	2178.15
604.13	2171.13
604.48	2163.87
604.83	2157.83
605.18	2151.67
605.53	2144.63
605.87	2137.59
606.22	2130.81
606.57	2122.94
606.92	2114.92
607.27	2108.20
607.62	2101.52
607.96	2094.58
608.31	2088.12
608.66	2080.22
609.01	2072.59
609.36	2065.42
609.70	2057.84
610.05	2050.01
610.40	2041.70
610.75	2033.39
611.10	2025.60
611.44	2016.71
611.79	2007.96
612.14	1997.96
612.49	1987.19
612.83	1977.79
613.18	1968.49
613.53	1959.05
613.88	1949.39
614.22	1940.85
614.57	1930.97
614.92	1920.41
615.27	1910.21
615.61	1900.12
615.96	1890.41
616.31	1880.90
616.65	1871.50
617.00	1861.81
617.35	1852.26
617.70	1842.47
618.04	1832.47
618.39	1822.30
618.74	1812.65
619.08	1803.05
619.43	1794.24
619.78	1786.17
620.12	1777.61
620.47	1768.16
620.82	1757.90
621.16	1748.28
621.51	1738.26
621.85	1728.57
622.20	1718.30
622.55	1707.69
622.89	1697.75
623.24	1688.16
623.59	1678.27
623.93	1668.25
624.28	1658.50
624.62	1648.42
624.97	1638.23
625.32	1628.49
625.66	1619.55
626.01	1610.92
626.35	1601.60
626.70	1591.59
627.04	1581.38
627.39	1571.32
627.73	1562.00
628.08	1553.10
628.43	1543.64
628.77	1534.53
629.12	1525.50
629.46	1517.73
629.81	1509.57
630.15	1500.20
630.50	1490.49
630.84	1480.14
631.19	1470.37
631.53	1461.08
631.88	1450.92
632.22	1440.98
632.57	1431.60
632.91	1421.74
633.26	1411.93
633.60	1402.36
633.95	1393.19
634.29	1383.82
634.64	1374.63
634.98	1364.81
635.32	1355.63
635.67	1347.08
636.01	1337.87
636.36	1328.30
636.70	1318.82
637.05	1309.46
637.39	1300.52
637.73	1291.98
638.08	1284.49
638.42	1276.34
638.77	1267.62
639.11	1259.46
639.45	1251.67
639.80	1243.35
640.14	1234.53
640.49	1225.71
640.83	1216.91
641.17	1208.78
641.52	1200.79
641.86	1192.29
642.20	1184.38
642.55	1175.73
642.89	1166.92
643.23	1158.29
643.58	1150.12
643.92	1141.14
644.26	1132.45
644.61	1124.06
644.95	1115.23
645.29	1106.03
645.64	1096.97
645.98	1088.46
646.32	1080.59
646.66	1072.05
647.01	1063.76
647.35	1055.75
647.69	1047.48
648.04	1039.22
648.38	1030.36
648.72	1021.57
649.06	1013.04
649.41	1004.84
649.75	997.00
650.09	989.20
650.43	981.31
650.78	973.08
651.12	965.34
651.46	957.93
651.80	950.76
652.14	943.43
652.49	935.88
652.83	928.51
653.17	920.78
653.51	913.12
653.85	906.00
654.20	898.76
654.54	891.36
654.88	884.07
655.22	876.86
655.56	869.96
655.90	863.09
656.25	856.44
656.59	849.61
656.93	842.54
657.27	835.40
657.61	828.32
657.95	822.20
658.29	816.26
658.64	810.14
658.98	803.56
659.32	797.04
659.66	790.82
660.00	784.38
660.34	778.39
660.68	772.37
661.02	765.95
661.36	759.84
661.70	753.96
662.05	748.31
662.39	742.83
662.73	737.38
663.07	732.01
663.41	726.41
663.75	720.68
664.09	714.97
664.43	709.50
664.77	704.10
665.11	698.18
665.45	692.34
665.79	686.52
666.13	680.85
666.47	675.38
666.81	669.86
667.15	664.52
667.49	659.29
667.83	654.04
668.17	648.79
668.51	643.71
668.85	638.66
669.19	633.76
669.53	628.74
669.87	623.54
670.21	618.78
670.55	614.03
670.89	609.57
671.23	605.28
671.57	600.86
671.91	596.63
672.25	592.55
672.58	588.37
672.92	584.28
673.26	580.36
673.60	576.42
673.94	572.60
674.28	568.96
674.62	565.24
674.96	561.44
675.30	557.95
675.64	554.21
675.97	550.60
676.31	546.94
676.65	543.29
676.99	539.91
677.33	536.05
677.67	532.39
678.01	528.49
678.34	524.77
678.68	521.23
679.02	517.54
679.36	513.81
679.70	510.15
680.04	506.55
680.37	503.07
680.71	499.71
681.05	496.48
681.39	493.14
681.73	489.88
682.06	486.84
682.40	483.73
682.74	480.58
683.08	477.39
683.42	474.15
683.75	471.13
684.09	468.07
684.43	465.21
684.77	462.24
685.10	459.34
685.44	456.40
685.78	453.45
686.12	450.65
686.45	447.88
686.79	445.18
687.13	442.66
687.46	440.06
687.80	437.32
688.14	434.45
688.48	431.76
688.81	429.06
689.15	426.43
689.49	423.76
689.82	421.17
690.16	418.53
690.50	416.07
690.83	413.57
691.17	410.95
691.51	408.47
691.84	406.14
692.18	403.94
692.52	401.72
692.85	399.60
693.19	397.45
693.52	395.31
693.86	393.05
694.20	390.82
694.53	388.59
694.87	386.39
695.21	384.26
695.54	382.14
695.88	379.97
696.21	377.66
696.55	375.49
696.88	373.46
697.22	371.48
697.56	369.59
697.89	367.63
698.23	365.87
698.56	364.02
698.90	362.21
699.23	360.26
699.57	358.32
699.90	356.40
700.24	354.52
700.58	352.69
700.91	350.97
701.25	349.33
701.58	347.67
701.92	346.08
702.25	344.46
702.59	342.74
702.92	341.19
703.26	339.68
703.59	338.19
703.93	336.87
704.26	335.40
704.60	333.87
704.93	332.42
705.26	330.88
705.60	329.38
705.93	327.88
706.27	326.56
706.60	325.26
706.94	324.01
707.27	322.63
707.61	321.28
707.94	319.93
708.27	318.44
708.61	317.04
708.94	315.63
709.28	314.29
709.61	313.09
709.94	311.83
710.28	310.55
710.61	309.37
710.95	307.91
711.28	306.82
711.61	305.61
711.95	304.44
712.28	303.28
712.61	302.12
712.95	301.03
713.28	299.97
713.61	298.82
713.95	297.64
714.28	296.61
714.61	295.52
714.95	294.46
715.28	293.42
715.61	292.33
715.95	291.38
716.28	290.39
716.61	289.38
716.95	288.38
717.28	287.47
717.61	286.45
717.94	285.53
718.28	284.49
718.61	283.60
718.94	282.65
719.27	281.77
719.61	280.90
719.94	280.04
720.27	279.04
720.60	278.22
720.94	277.41
721.27	276.62
721.60	275.90
721.93	275.23
722.27	274.58
722.60	273.92
722.93	273.18
723.26	272.52
723.59	271.83
723.93	271.17
724.26	270.55
724.59	269.91
724.92	269.33
725.25	268.76
725.59	268.16
725.92	267.64
726.25	267.06
726.58	266.48
726.91	265.84
727.24	265.34
727.57	264.75
727.91	264.11
728.24	263.55
728.57	262.99
728.90	262.42
729.23	261.79
729.56	261.32
729.89	260.76
730.22	260.16
730.55	259.59
730.89	259.05
731.22	258.48
731.55	257.95
731.88	257.41
732.21	256.85
732.54	256.30
732.87	255.75
733.20	255.24
733.53	254.75
733.86	254.31
734.19	253.77
734.52	253.34
734.85	253.05
735.18	252.56
735.51	252.16
735.84	251.68
736.17	251.29
736.50	250.78
736.83	250.60
737.16	250.24
737.49	249.90
737.82	249.46
738.15	249.11
738.48	248.72
738.81	248.30
739.14	247.88
739.47	247.51
739.80	247.11
740.13	246.77
740.46	246.39
740.79	246.03
741.12	245.68
741.45	245.29
741.78	244.85
742.11	244.59
742.44	244.18
742.77	243.90
743.10	243.54
743.43	243.16
743.75	242.62
744.08	242.58
744.41	242.19
744.74	241.84
745.07	241.41
745.40	241.14
745.73	240.90
746.06	240.59
746.39	240.28
746.71	239.94
747.04	239.55
747.37	239.22
747.70	238.91
748.03	238.56
748.36	238.29
748.68	237.96
749.01	237.57
749.34	237.28
749.67	236.97
750.00	236.71
750.33	236.60
750.65	236.33
750.98	235.72
751.31	235.47
751.64	235.27
751.97	235.13
752.29	234.85
752.62	234.49
752.95	234.22
753.28	233.95
753.60	233.70
753.93	233.57
754.26	233.35
754.59	233.05
754.91	232.82
755.24	232.59
755.57	232.34
755.90	232.14
756.22	231.89
756.55	231.63
756.88	231.39
757.20	231.05
757.53	230.80
757.86	230.60
758.19	230.42
758.51	230.19
758.84	229.92
759.17	229.71
759.49	229.55
759.82	229.47
760.15	229.29
760.47	229.13
760.80	228.88
761.13	228.69
761.45	228.52
761.78	228.34
762.11	228.13
762.43	227.91
762.76	227.75
763.08	227.58
763.41	227.43
763.74	227.24
764.06	227.06
764.39	226.90
764.71	226.78
765.04	226.57
765.37	226.41
765.69	226.23
766.02	226.06
766.34	225.90
766.67	225.68
767.00	225.56
767.32	225.53
767.65	225.53
767.97	225.36
768.30	225.27
768.62	225.16
768.95	225.02
769.27	224.92
769.60	224.80
769.92	224.67
770.25	224.54
770.57	224.37
770.90	224.26
771.22	224.12
771.55	224.00
771.87	223.89
772.20	223.76
772.52	223.84
772.85	224.01
773.17	223.89
773.50	223.78
773.82	223.65
774.15	223.45
774.47	223.22
774.80	223.14
775.12	223.01
775.45	222.91
775.77	222.85
776.09	222.80
776.42	222.71
776.74	222.70
777.07	222.55
777.39	222.50
777.72	222.39
778.04	222.33
778.36	222.20
778.69	222.11
779.01	222.08
779.33	221.80
779.66	221.42
779.98	221.34
780.31	221.24
780.63	221.25
780.95	221.18
781.28	221.07
781.60	220.95
781.92	220.88
782.25	220.79
782.57	220.70
782.89	220.61
783.22	220.50
783.54	220.39
783.86	220.33
784.19	220.25
784.51	220.26
784.83	220.15
785.16	220.08
785.48	220.05
785.80	219.96
786.12	219.92
786.45	219.85
786.77	219.80
787.09	219.74
787.42	219.62
787.74	219.57
788.06	219.52
788.38	219.47
788.71	219.40
789.03	219.37
789.35	219.33
789.67	219.26
789.99	219.23
790.32	219.16
790.64	219.17
790.96	219.32
791.28	219.19
791.61	219.16
791.93	219.13
792.25	219.07
792.57	219.15
792.89	219.06
793.21	219.05
793.54	218.99
793.86	218.93
794.18	218.87
794.50	218.78
794.82	218.74
795.14	218.69
795.47	218.66
795.79	218.60
796.11	218.55
796.43	218.48
796.75	218.44
797.07	218.40
797.39	218.34
797.71	218.11
798.04	218.08
798.36	218.01
798.68	217.99
799.00	217.96
799.32	217.80
799.64	217.78
799.96	217.76
800.28	217.77
800.60	217.72
800.92	217.69
801.24	217.66
801.56	217.64
801.89	217.59
802.21	217.59
802.53	217.52
802.85	217.53
803.17	217.59
803.49	217.53
803.81	217.48
804.13	217.42
804.45	217.37
804.77	217.34
805.09	217.32
805.41	217.23
805.73	217.16
806.05	217.08
806.37	217.04
806.69	216.97
807.01	216.93
807.33	216.93
807.65	216.83
807.97	216.88
808.28	216.82
808.60	216.81
808.92	216.74
809.24	216.84
809.56	216.78
809.88	216.66
810.20	216.64
810.52	216.65
810.84	216.60
811.16	216.54
811.48	216.52
811.80	216.59
812.12	216.55
812.43	216.58
812.75	216.59
813.07	216.56
813.39	216.53
813.71	216.46
814.03	216.44
814.35	216.47
814.67	216.36
814.98	216.34
815.30	216.29
815.62	216.22
815.94	216.10
816.26	216.08
816.58	216.06
816.89	216.04
817.21	215.97
817.53	215.95
817.85	215.98
818.17	215.92
818.48	215.82
818.80	215.85
819.12	215.79
819.44	215.72
819.76	215.68
820.07	215.70
820.39	215.69
820.71	215.67
821.03	215.61
821.34	215.60
821.66	215.60
821.98	215.64
822.30	215.62
822.61	215.71
822.93	215.67
823.25	215.65
823.57	215.64
823.88	215.68
824.20	215.68
824.52	215.69
824.83	215.70
825.15	215.66
825.47	215.66
825.79	215.67
826.10	215.65
826.42	215.62
826.74	215.62
827.05	215.61
827.37	215.59
827.69	215.61
828.00	215.62
828.32	215.61
828.64	215.55
828.95	215.68
829.27	215.61
829.58	215.62
829.90	215.65
830.22	215.66
830.53	215.58
830.85	215.55
831.17	215.47
831.48	215.45
831.80	215.45
832.11	215.39
832.43	215.36
832.75	215.36
833.06	215.51
833.38	215.43
833.69	215.39
834.01	215.40
834.32	215.33
834.64	215.29
834.96	215.29
835.27	215.28
835.59	215.19
835.90	215.12
836.22	215.11
836.53	215.07
836.85	215.03
837.16	215.22
837.48	215.24
837.79	215.31
838.11	215.32
838.42	215.31
838.74	215.35
839.05	215.34
839.37	215.35
839.68	215.18
840.00	215.15
840.31	215.18
840.63	215.14
840.94	215.16
841.26	215.13
841.57	215.14
841.88	215.18
842.20	215.13
842.51	215.11
842.83	215.10
843.14	215.28
843.46	215.27
843.77	215.16
844.08	215.15
844.40	215.07
844.71	215.02
845.03	214.99
845.34	214.96
845.65	214.96
845.97	214.94
846.28	214.96
846.60	214.97
846.91	214.97
847.22	214.97
847.54	215.01
847.85	215.02
848.16	214.98
848.48	214.92
848.79	215.03
849.10	215.06
849.42	215.08
849.73	214.87
850.04	214.84
850.36	214.77
850.67	214.77
850.98	214.78
851.30	214.80
851.61	214.80
851.92	214.79
852.23	214.81
852.55	214.82
852.86	214.82
853.17	214.82
853.49	214.83
853.80	214.86
854.11	214.86
854.42	214.88
854.74	214.89
855.05	214.89
855.36	214.76
855.67	214.78
855.99	214.76
856.30	214.99
856.61	215.00
856.92	215.04
857.23	215.01
857.55	215.00
857.86	214.98
858.17	215.02
858.48	215.03
858.79	214.99
859.11	215.01
859.42	215.01
859.73	215.02
860.04	215.01
860.35	214.93
860.66	214.88
860.98	214.85
861.29	214.85
861.60	214.87
861.91	214.90
862.22	214.86
862.53	214.83
862.84	214.58
863.16	214.64
863.47	214.57
863.78	214.55
864.09	214.57
864.40	214.59
864.71	214.59
865.02	214.57
865.33	214.55
865.64	214.48
865.95	214.47
866.27	214.58
866.58	214.57
866.89	214.58
867.20	214.56
867.51	214.55
867.82	214.52
868.13	214.55
868.44	214.51
868.75	214.52
869.06	214.49
869.37	214.52
869.68	214.44
869.99	214.50
870.30	214.51
870.61	214.52
870.92	214.49
871.23	214.44
871.54	214.49
871.85	214.56
872.16	214.63
872.47	214.62
872.78	214.50
873.09	214.48
873.40	214.49
873.71	214.52
874.02	214.50
874.33	214.45
874.64	214.41
874.95	214.48
875.26	214.42
875.56	214.43
875.87	214.40
876.18	214.38
876.49	214.56
876.80	214.53
877.11	214.47
877.42	214.47
877.73	214.51
878.04	214.47
878.35	214.48
878.66	214.44
878.96	214.43
879.27	214.44
879.58	214.43
879.89	214.42
880.20	214.47
880.51	214.48
880.82	214.54
881.12	214.54
881.43	214.47
881.74	214.46
882.05	214.47
882.36	214.48
882.67	214.50
882.97	214.25
883.28	214.24
883.59	214.27
883.90	214.29
884.21	214.31
884.51	214.29
884.82	214.23
885.13	214.23
885.44	214.23
885.74	214.23
886.05	214.23
886.36	214.25
886.67	214.18
886.98	214.31
887.28	214.31
887.59	214.34
887.90	214.35
888.20	214.37
888.51	214.41
888.82	214.37
889.13	214.41
889.43	214.62
889.74	214.63
890.05	214.61
890.35	214.58
890.66	214.54
890.97	214.53
891.28	214.51
891.58	214.51
891.89	214.51
892.20	214.46
892.50	214.46
892.81	214.41
893.12	214.41
893.42	214.29
893.73	214.28
894.04	214.26
894.34	214.25
894.65	214.25
894.95	214.22
895.26	214.25
895.57	214.29
895.87	214.11
896.18	214.15
896.48	214.17
896.79	214.21
897.10	214.26
897.40	214.28
897.71	214.29
898.01	214.26
898.32	214.30
898.63	214.33
898.93	214.34
899.24	214.35
899.54	214.34
899.85	214.36
900.15	214.35
900.46	214.33
900.76	214.34
901.07	214.31
901.38	214.31
901.68	214.33
901.99	214.25
902.29	214.25
902.60	214.22
902.90	214.25
903.21	214.21
903.51	214.16
903.82	214.20
904.12	214.20
904.43	214.22
904.73	214.21
905.03	214.21
905.34	214.40
905.64	214.39
905.95	214.40
906.25	214.35
906.56	214.35
906.86	214.36
907.17	214.39
907.47	214.42
907.77	214.38
908.08	214.36
908.38	214.35
908.69	214.35
908.99	214.39
909.30	214.36
909.60	214.36
909.90	214.37
910.21	214.31
910.51	214.30
910.81	214.31
911.12	214.28
911.42	214.27
911.73	214.08
912.03	214.07
912.33	214.07
912.64	214.11
912.94	214.08
913.24	214.03
913.55	214.02
913.85	214.01
914.15	214.05
914.46	214.08
914.76	214.06
915.06	214.05
915.37	214.01
915.67	213.99
915.97	214.00
916.27	213.96
916.58	213.97
916.88	213.97
917.18	213.94
917.49	214.09
917.79	214.10
918.09	214.09
918.39	214.15
918.70	214.16
919.00	214.17
919.30	214.28
919.60	214.27
919.91	214.24
920.21	214.23
920.51	214.17
920.81	214.16
921.12	214.20
921.42	214.16
921.72	214.17
922.02	214.18
922.32	214.18
922.63	214.20
922.93	214.26
923.23	214.27
923.53	214.26
923.83	214.17
924.13	214.17
924.44	214.18
924.74	214.22
925.04	214.27
925.34	214.25
925.64	214.15
925.94	214.18
926.24	214.27
926.55	214.29
926.85	214.34
927.15	214.29
927.45	214.33
927.75	214.37
928.05	214.34
928.35	214.33
928.65	214.39
928.95	214.41
929.26	214.35
929.56	214.36
929.86	214.38
930.16	214.31
930.46	214.29
930.76	214.31
931.06	214.22
931.36	214.17
931.66	214.20
931.96	214.24
932.26	214.25
932.56	214.17
932.86	214.16
933.16	214.13
933.46	214.13
933.76	214.06
934.06	214.08
934.36	214.20
934.66	214.19
934.96	214.16
935.26	214.14
935.56	214.18
935.86	214.15
936.16	214.12
936.46	214.13
936.76	214.11
937.06	214.06
937.36	214.06
937.66	214.05
937.96	214.05
938.26	213.99
938.56	213.97
938.86	213.97
939.16	214.00
939.46	214.03
939.76	214.05
940.06	214.07
940.35	214.01
940.65	213.87
940.95	213.88
941.25	213.82
941.55	213.81
941.85	213.79
942.15	213.82
942.45	213.88
942.75	213.89
943.04	213.90
943.34	213.94
943.64	213.94
943.94	213.91
944.24	213.91
944.54	213.94
944.84	213.93
945.13	213.92
945.43	213.93
945.73	213.90
946.03	213.91
946.33	213.89
946.62	213.90
946.92	213.91
947.22	213.92
947.52	213.91
947.82	213.93
948.11	213.90
948.41	213.84
948.71	213.75
949.01	213.76
949.31	213.74
949.60	213.73
949.90	213.77
950.20	213.80
950.50	213.80
950.79	213.79
951.09	213.81
951.39	213.81
951.69	213.77
951.98	213.83
952.28	213.82
952.58	213.78
952.87	213.77
953.17	213.80
953.47	213.78
953.76	213.80
954.06	213.77
954.36	213.72
954.66	213.75
954.95	213.83
955.25	213.84
955.55	213.84
955.84	213.83
956.14	213.83
956.44	213.83
956.73	213.76
957.03	213.77
957.32	213.76
957.62	213.75
957.92	213.77
958.21	213.73
958.51	213.96
958.81	214.00
959.10	214.01
959.40	214.04
959.69	214.04
959.99	214.07
960.29	214.07
960.58	214.07
960.88	214.15
961.17	214.13
961.47	214.17
961.76	214.13
962.06	214.17
962.36	214.13
962.65	214.13
962.95	214.18
963.24	214.15
963.54	214.17
963.83	214.18
964.13	214.17
964.42	214.16
964.72	214.01
965.01	214.03
965.31	214.06
965.60	214.01
965.90	214.14
966.19	214.10
966.49	214.11
966.78	214.11
967.08	214.08
967.37	214.08
967.67	214.04
967.96	214.10
968.26	214.09
968.55	214.08
968.85	214.08
969.14	214.06
969.43	214.06
969.73	214.04
970.02	214.04
970.32	214.05
970.61	214.01
970.91	213.94
971.20	213.92
971.49	213.90
971.79	213.91
972.08	213.81
972.38	213.84
972.67	213.85
972.96	213.91
973.26	213.88
973.55	213.94
973.85	213.92
974.14	213.91
974.43	213.91
974.73	213.91
975.02	213.88
975.31	213.86
975.61	213.86
975.90	213.85
976.19	213.85
976.49	213.82
976.78	213.83
977.07	213.84
977.37	213.84
977.66	213.85
977.95	213.85
978.24	213.84
978.54	213.87
978.83	213.82
979.12	213.80
979.42	213.83
979.71	213.78
980.00	213.81
980.29	213.80
980.59	213.78
980.88	213.80
981.17	213.81
981.46	213.86
981.76	213.88
982.05	213.97
982.34	213.98
982.63	214.00
982.93	214.00
983.22	214.04
983.51	214.05
983.80	214.05
984.09	214.07
984.39	214.05
984.68	214.03
984.97	214.07
985.26	214.05
985.55	214.04
985.85	214.00
986.14	214.02
986.43	214.05
986.72	214.05
987.01	214.01
987.30	214.02
987.59	213.99
987.89	214.00
988.18	213.91
988.47	213.87
988.76	213.86
989.05	213.88
989.34	213.85
989.63	213.93
989.92	213.93
990.22	213.92
990.51	213.94
990.80	213.92
991.09	213.95
991.38	213.99
991.67	213.94
991.96	213.95
992.25	213.94
992.54	213.90
992.83	213.89
993.12	213.91
993.41	213.94
993.70	214.00
993.99	214.02
994.28	214.08
994.58	214.12
994.87	214.07
995.16	214.07
995.45	214.03
995.74	213.96
996.03	213.95
996.32	213.95
996.61	213.98
996.90	213.99
997.19	213.98
997.48	213.97
997.77	213.97
998.06	213.96
998.34	213.95
998.63	213.96
998.92	213.96
999.21	213.98
999.50	213.97
999.79	213.93
1000.08	213.94
1000.37	213.89
1000.66	213.89
1000.95	213.96
1001.24	213.96
1001.53	213.98
1001.82	213.96
1002.11	213.93
1002.40	213.98
1002.68	214.01
1002.97	214.15
1003.26	214.10
1003.55	214.04
1003.84	214.04
1004.13	214.14
1004.42	214.13
1004.71	214.14
1004.99	214.14
1005.28	214.18
1005.57	214.17
1005.86	214.12
1006.15	214.08
1006.44	214.07
1006.72	214.10
1007.01	214.08
1007.30	214.08
1007.59	214.09
1007.88	214.13
1008.17	214.14
1008.45	214.07
1008.74	213.99
1009.03	213.91
1009.32	213.96
1009.60	213.98
1009.89	213.99
1010.18	213.88
1010.47	213.87
1010.76	213.86
1011.04	213.84
1011.33	213.86
1011.62	213.88
1011.91	213.92
1012.19	213.95
1012.48	213.96
1012.77	213.93
1013.05	214.02
1013.34	214.02
1013.63	213.98
1013.92	213.96
1014.20	213.96
1014.49	213.98
1014.78	213.99
1015.06	213.90
1015.35	213.88
1015.64	213.92
1015.92	213.90
1016.21	213.91
1016.50	213.92
1016.78	213.93
1017.07	213.95
1017.36	213.89
1017.64	213.84
1017.93	213.83
1018.22	213.81
1018.50	213.81
1018.79	213.80
1019.08	213.71
1019.36	213.70
1019.65	213.68
1019.93	213.75
1020.22	213.76
1020.51	213.88
1020.79	213.87
1021.08	213.71
1021.36	213.77
1021.65	213.82
1021.94	213.96
1022.22	213.79
1022.51	212.84
1022.79	215.14
1023.08	213.72
1023.36	216.54
1023.65	213.74
>>>>>End Processed Spectral Data<<<<<
