SpectraSuite Data File
++++++++++++++++++++++++++++++++++++
Date: Tue Jan 29 16:51:33 EST 2013
User: group
Dark Spectrum Present: No
Reference Spectrum Present: No
Number of Sampled Component Spectra: 1
Spectrometers: USB2E7196
Integration Time (usec): 65000 (USB2E7196)
Spectra Averaged: 100 (USB2E7196)
Boxcar Smoothing: 10 (USB2E7196)
Correct for Electrical Dark: No (USB2E7196)
Strobe/Lamp Enabled: No (USB2E7196)
Correct for Detector Non-linearity: No (USB2E7196)
Correct for Stray Light: No (USB2E7196)
Number of Pixels in Processed Spectrum: 2048
>>>>>Begin Processed Spectral Data<<<<<
339.09	0.00
339.48	201.81
339.86	203.13
340.24	204.92
340.63	206.03
341.01	210.77
341.39	208.14
341.78	210.50
342.16	211.24
342.54	212.01
342.93	200.87
343.31	211.00
343.69	211.54
344.07	211.99
344.46	212.42
344.84	212.80
345.22	212.93
345.60	213.24
345.99	213.41
346.37	213.52
346.75	213.62
347.13	213.70
347.52	213.75
347.90	213.90
348.28	213.90
348.66	213.98
349.05	213.95
349.43	214.02
349.81	214.08
350.19	214.10
350.57	214.16
350.96	214.24
351.34	214.32
351.72	214.40
352.10	214.51
352.48	214.53
352.87	214.58
353.25	214.65
353.63	214.69
354.01	214.73
354.39	214.84
354.77	214.88
355.15	215.01
355.54	215.09
355.92	215.05
356.30	215.13
356.68	215.32
357.06	215.41
357.44	215.44
357.82	215.48
358.20	215.58
358.58	215.65
358.97	215.72
359.35	215.84
359.73	215.96
360.11	216.02
360.49	216.10
360.87	216.14
361.25	216.22
361.63	216.30
362.01	216.39
362.39	216.40
362.77	216.50
363.15	216.47
363.53	216.47
363.91	216.54
364.29	216.54
364.67	216.39
365.05	216.40
365.43	216.44
365.81	216.50
366.19	216.60
366.57	216.65
366.95	216.65
367.33	216.62
367.71	216.60
368.09	216.64
368.47	216.64
368.85	216.64
369.23	216.68
369.61	216.62
369.99	216.66
370.37	216.70
370.75	216.76
371.13	216.74
371.51	216.71
371.89	216.71
372.27	216.70
372.65	216.66
373.03	216.67
373.41	216.64
373.78	216.59
374.16	216.47
374.54	216.39
374.92	216.33
375.30	216.29
375.68	216.19
376.06	216.14
376.44	216.11
376.82	216.09
377.19	216.02
377.57	215.96
377.95	215.86
378.33	215.80
378.71	215.57
379.09	215.55
379.47	215.53
379.84	215.46
380.22	215.41
380.60	215.35
380.98	215.28
381.36	215.22
381.73	215.15
382.11	215.14
382.49	215.11
382.87	215.08
383.25	215.05
383.62	215.28
384.00	215.19
384.38	215.15
384.76	215.15
385.13	215.20
385.51	215.18
385.89	215.11
386.27	215.09
386.64	215.15
387.02	215.11
387.40	215.06
387.78	215.04
388.15	215.02
388.53	215.02
388.91	214.99
389.29	214.95
389.66	215.00
390.04	214.93
390.42	214.96
390.79	214.96
391.17	214.93
391.55	214.70
391.92	214.71
392.30	214.75
392.68	214.70
393.05	214.67
393.43	214.68
393.81	214.68
394.18	214.67
394.56	214.63
394.94	214.69
395.31	214.69
395.69	214.77
396.06	214.80
396.44	214.80
396.82	214.81
397.19	214.96
397.57	214.93
397.95	215.01
398.32	215.00
398.70	215.03
399.07	215.13
399.45	215.14
399.82	215.16
400.20	215.20
400.58	215.26
400.95	215.24
401.33	215.33
401.70	215.55
402.08	215.63
402.45	215.76
402.83	215.90
403.20	216.05
403.58	216.16
403.95	216.30
404.33	216.50
404.71	216.66
405.08	216.90
405.46	217.11
405.83	217.30
406.21	217.47
406.58	217.73
406.96	217.93
407.33	218.25
407.70	218.57
408.08	218.99
408.45	219.36
408.83	219.74
409.20	220.11
409.58	220.40
409.95	220.88
410.33	221.35
410.70	221.77
411.08	222.32
411.45	222.86
411.82	223.43
412.20	224.13
412.57	224.96
412.95	225.56
413.32	226.39
413.69	227.24
414.07	228.17
414.44	229.15
414.82	230.17
415.19	231.34
415.56	232.53
415.94	233.73
416.31	235.12
416.68	236.56
417.06	238.17
417.43	239.71
417.81	241.45
418.18	243.27
418.55	245.24
418.93	247.26
419.30	249.36
419.67	251.61
420.04	253.87
420.42	256.25
420.79	259.06
421.16	261.87
421.54	264.77
421.91	267.81
422.28	270.92
422.66	274.21
423.03	277.48
423.40	280.90
423.77	284.52
424.15	288.21
424.52	292.10
424.89	296.29
425.26	300.40
425.64	304.33
426.01	308.65
426.38	313.15
426.75	317.71
427.13	322.52
427.50	327.55
427.87	332.77
428.24	338.00
428.61	343.04
428.99	348.59
429.36	354.65
429.73	360.53
430.10	366.43
430.47	372.56
430.85	378.89
431.22	385.56
431.59	392.75
431.96	399.60
432.33	407.13
432.70	414.38
433.08	422.95
433.45	431.06
433.82	439.08
434.19	448.00
434.56	456.75
434.93	465.10
435.30	473.36
435.68	482.53
436.05	491.62
436.42	500.53
436.79	508.71
437.16	517.49
437.53	526.87
437.90	536.06
438.27	545.08
438.64	554.38
439.01	563.00
439.38	570.59
439.75	578.00
440.13	586.46
440.50	594.48
440.87	600.92
441.24	607.56
441.61	614.91
441.98	620.24
442.35	626.57
442.72	633.00
443.09	639.11
443.46	642.89
443.83	645.46
444.20	647.69
444.57	650.81
444.94	652.29
445.31	653.72
445.68	655.19
446.05	655.79
446.42	655.02
446.79	654.04
447.16	652.91
447.53	652.16
447.90	648.87
448.27	645.60
448.64	640.92
449.01	637.69
449.37	631.81
449.74	626.22
450.11	619.30
450.48	611.82
450.85	604.39
451.22	597.94
451.59	591.71
451.96	585.90
452.33	578.03
452.70	570.88
453.07	562.37
453.43	553.70
453.80	545.39
454.17	537.31
454.54	529.74
454.91	521.53
455.28	513.48
455.65	505.95
456.02	498.39
456.38	492.03
456.75	484.04
457.12	477.40
457.49	470.83
457.86	464.57
458.23	459.18
458.59	453.14
458.96	447.02
459.33	441.66
459.70	436.20
460.07	431.94
460.43	427.04
460.80	422.42
461.17	418.34
461.54	414.11
461.91	410.09
462.27	405.91
462.64	402.49
463.01	398.67
463.38	394.92
463.74	391.15
464.11	387.90
464.48	385.08
464.85	381.95
465.21	379.51
465.58	376.92
465.95	373.75
466.32	371.17
466.68	368.55
467.05	365.95
467.42	363.40
467.78	360.70
468.15	358.16
468.52	356.22
468.88	353.72
469.25	351.49
469.62	349.64
469.98	347.70
470.35	345.86
470.72	344.17
471.08	342.39
471.45	340.92
471.82	339.35
472.18	337.61
472.55	336.42
472.92	334.96
473.28	333.73
473.65	332.52
474.02	331.37
474.38	330.47
474.75	329.68
475.11	328.79
475.48	328.15
475.85	327.65
476.21	327.14
476.58	326.81
476.94	326.53
477.31	326.21
477.67	325.94
478.04	325.78
478.41	325.71
478.77	325.86
479.14	325.76
479.50	325.92
479.87	326.22
480.23	326.50
480.60	326.80
480.96	327.08
481.33	327.64
481.69	328.17
482.06	328.66
482.42	329.14
482.79	329.74
483.15	330.53
483.52	331.44
483.88	332.31
484.25	333.18
484.61	334.21
484.98	335.26
485.34	336.57
485.71	337.95
486.07	339.36
486.44	340.70
486.80	342.31
487.17	343.95
487.53	345.77
487.90	347.67
488.26	349.68
488.62	351.84
488.99	353.94
489.35	356.15
489.72	358.56
490.08	361.09
490.44	363.69
490.81	366.39
491.17	369.13
491.54	372.12
491.90	375.19
492.26	378.43
492.63	381.87
492.99	385.31
493.36	388.94
493.72	392.80
494.08	396.80
494.45	401.00
494.81	405.34
495.17	409.78
495.54	414.45
495.90	419.27
496.26	424.12
496.63	429.28
496.99	434.67
497.35	440.24
497.72	446.04
498.08	451.90
498.44	457.95
498.80	464.33
499.17	470.80
499.53	477.49
499.89	484.40
500.26	491.35
500.62	498.43
500.98	505.80
501.34	513.24
501.71	520.99
502.07	528.77
502.43	536.75
502.79	544.86
503.16	553.27
503.52	561.87
503.88	570.57
504.24	579.62
504.60	588.68
504.97	597.87
505.33	607.16
505.69	617.04
506.05	626.99
506.41	636.96
506.78	647.02
507.14	657.30
507.50	667.73
507.86	678.47
508.22	689.24
508.59	699.90
508.95	710.95
509.31	722.15
509.67	733.65
510.03	744.96
510.39	756.64
510.75	768.41
511.12	780.22
511.48	792.29
511.84	804.44
512.20	816.76
512.56	829.41
512.92	842.18
513.28	854.81
513.64	867.49
514.00	880.21
514.37	893.15
514.73	906.14
515.09	919.13
515.45	932.01
515.81	945.12
516.17	958.53
516.53	971.82
516.89	984.88
517.25	998.00
517.61	1011.64
517.97	1025.11
518.33	1038.32
518.69	1051.94
519.05	1065.75
519.41	1079.42
519.77	1093.27
520.13	1106.59
520.49	1119.74
520.85	1133.01
521.21	1146.41
521.57	1160.06
521.93	1173.11
522.29	1186.99
522.65	1200.52
523.01	1214.03
523.37	1227.14
523.73	1240.51
524.09	1253.61
524.45	1267.17
524.81	1280.70
525.17	1294.05
525.53	1307.31
525.89	1320.61
526.25	1333.80
526.61	1346.66
526.97	1359.81
527.33	1372.80
527.68	1386.24
528.04	1399.80
528.40	1413.15
528.76	1426.45
529.12	1439.32
529.48	1452.73
529.84	1464.91
530.20	1477.77
530.56	1490.44
530.91	1503.79
531.27	1516.67
531.63	1529.53
531.99	1542.26
532.35	1554.54
532.71	1566.95
533.07	1579.92
533.42	1592.30
533.78	1604.47
534.14	1616.64
534.50	1628.05
534.86	1639.73
535.21	1650.64
535.57	1662.24
535.93	1673.47
536.29	1684.56
536.65	1696.24
537.00	1707.23
537.36	1718.75
537.72	1729.74
538.08	1741.29
538.44	1752.35
538.79	1763.50
539.15	1774.47
539.51	1785.41
539.87	1796.85
540.22	1807.86
540.58	1818.84
540.94	1829.84
541.29	1840.16
541.65	1850.09
542.01	1860.57
542.37	1870.64
542.72	1880.96
543.08	1890.86
543.44	1901.51
543.79	1910.98
544.15	1920.34
544.51	1930.36
544.87	1940.46
545.22	1949.78
545.58	1958.78
545.94	1967.72
546.29	1976.26
546.65	1984.68
547.01	1993.03
547.36	2000.70
547.72	2008.49
548.07	2016.03
548.43	2023.73
548.79	2031.60
549.14	2039.76
549.50	2048.31
549.86	2056.27
550.21	2063.70
550.57	2071.39
550.92	2078.24
551.28	2085.84
551.64	2093.29
551.99	2100.84
552.35	2107.97
552.70	2114.98
553.06	2121.64
553.41	2127.92
553.77	2134.49
554.13	2140.98
554.48	2147.93
554.84	2155.13
555.19	2161.69
555.55	2168.05
555.90	2174.21
556.26	2181.09
556.61	2187.03
556.97	2191.69
557.32	2197.51
557.68	2203.88
558.03	2209.56
558.39	2214.82
558.74	2220.69
559.10	2226.07
559.45	2231.55
559.81	2237.02
560.16	2242.41
560.52	2248.12
560.87	2254.51
561.23	2260.29
561.58	2266.83
561.94	2271.94
562.29	2276.51
562.64	2282.35
563.00	2288.04
563.35	2293.55
563.71	2299.02
564.06	2304.74
564.42	2310.71
564.77	2315.54
565.12	2320.82
565.48	2325.85
565.83	2331.29
566.19	2336.51
566.54	2341.77
566.89	2346.37
567.25	2350.73
567.60	2356.45
567.96	2361.47
568.31	2365.88
568.66	2370.19
569.02	2373.91
569.37	2377.51
569.72	2381.99
570.08	2385.38
570.43	2388.38
570.78	2391.51
571.14	2394.07
571.49	2397.03
571.84	2400.42
572.20	2403.39
572.55	2406.10
572.90	2408.28
573.26	2410.98
573.61	2413.43
573.96	2415.48
574.31	2417.46
574.67	2419.35
575.02	2419.94
575.37	2421.34
575.72	2421.83
576.08	2422.96
576.43	2423.06
576.78	2423.43
577.13	2424.74
577.49	2425.92
577.84	2426.74
578.19	2427.82
578.54	2428.22
578.90	2428.72
579.25	2428.33
579.60	2428.05
579.95	2427.10
580.30	2426.99
580.66	2426.09
581.01	2424.29
581.36	2421.75
581.71	2420.09
582.06	2418.56
582.42	2417.54
582.77	2415.01
583.12	2413.28
583.47	2411.71
583.82	2410.83
584.17	2409.48
584.53	2407.08
584.88	2404.75
585.23	2402.83
585.58	2400.35
585.93	2398.23
586.28	2395.89
586.63	2393.29
586.98	2390.97
587.34	2388.86
587.69	2386.12
588.04	2383.74
588.39	2382.12
588.74	2379.53
589.09	2376.61
589.44	2373.35
589.79	2370.65
590.14	2368.59
590.49	2365.75
590.84	2361.78
591.19	2358.59
591.54	2355.25
591.89	2351.06
592.25	2347.65
592.60	2343.28
592.95	2338.98
593.30	2334.52
593.65	2330.04
594.00	2325.55
594.35	2322.32
594.70	2317.63
595.05	2313.09
595.40	2307.58
595.75	2301.65
596.10	2297.86
596.45	2292.93
596.80	2288.25
597.15	2283.00
597.50	2277.14
597.85	2271.97
598.19	2266.94
598.54	2261.09
598.89	2255.78
599.24	2251.25
599.59	2245.06
599.94	2239.21
600.29	2233.31
600.64	2227.52
600.99	2220.59
601.34	2215.08
601.69	2208.14
602.04	2201.77
602.39	2195.09
602.74	2188.97
603.08	2183.51
603.43	2177.02
603.78	2170.19
604.13	2163.18
604.48	2155.84
604.83	2149.54
605.18	2143.40
605.53	2136.50
605.87	2129.46
606.22	2122.57
606.57	2114.61
606.92	2106.60
607.27	2099.69
607.62	2093.00
607.96	2086.01
608.31	2079.64
608.66	2071.95
609.01	2064.13
609.36	2057.07
609.70	2049.46
610.05	2041.69
610.40	2033.23
610.75	2024.93
611.10	2017.14
611.44	2008.21
611.79	1999.53
612.14	1989.68
612.49	1978.94
612.83	1969.46
613.18	1960.14
613.53	1950.83
613.88	1941.18
614.22	1932.61
614.57	1922.58
614.92	1912.08
615.27	1901.74
615.61	1891.68
615.96	1881.98
616.31	1872.60
616.65	1863.13
617.00	1853.47
617.35	1843.98
617.70	1834.46
618.04	1824.62
618.39	1814.55
618.74	1805.03
619.08	1795.41
619.43	1786.75
619.78	1778.57
620.12	1770.00
620.47	1760.66
620.82	1750.33
621.16	1740.78
621.51	1731.03
621.85	1721.47
622.20	1711.24
622.55	1700.96
622.89	1691.04
623.24	1681.31
623.59	1671.56
623.93	1661.45
624.28	1651.71
624.62	1641.59
624.97	1631.31
625.32	1621.44
625.66	1612.63
626.01	1603.94
626.35	1594.78
626.70	1584.91
627.04	1575.05
627.39	1565.00
627.73	1555.72
628.08	1546.96
628.43	1537.40
628.77	1528.36
629.12	1519.46
629.46	1511.74
629.81	1503.39
630.15	1494.03
630.50	1484.45
630.84	1474.02
631.19	1464.29
631.53	1455.09
631.88	1445.07
632.22	1435.20
632.57	1425.91
632.91	1415.96
633.26	1406.15
633.60	1396.63
633.95	1387.48
634.29	1377.92
634.64	1368.71
634.98	1358.84
635.32	1349.74
635.67	1341.45
636.01	1332.15
636.36	1322.58
636.70	1313.07
637.05	1303.76
637.39	1294.98
637.73	1286.55
638.08	1279.08
638.42	1270.99
638.77	1262.34
639.11	1254.23
639.45	1246.52
639.80	1238.22
640.14	1229.46
640.49	1220.76
640.83	1211.94
641.17	1203.80
641.52	1195.86
641.86	1187.33
642.20	1179.56
642.55	1170.91
642.89	1162.00
643.23	1153.37
643.58	1145.37
643.92	1136.43
644.26	1127.85
644.61	1119.51
644.95	1110.71
645.29	1101.63
645.64	1092.60
645.98	1084.11
646.32	1076.30
646.66	1067.86
647.01	1059.65
647.35	1051.68
647.69	1043.51
648.04	1035.47
648.38	1026.67
648.72	1018.02
649.06	1009.75
649.41	1001.64
649.75	993.86
650.09	986.13
650.43	978.29
650.78	969.98
651.12	962.35
651.46	954.97
651.80	947.75
652.14	940.50
652.49	933.08
652.83	925.73
653.17	918.10
653.51	910.46
653.85	903.34
654.20	896.10
654.54	888.83
654.88	881.59
655.22	874.40
655.56	867.43
655.90	860.63
656.25	853.96
656.59	847.12
656.93	840.13
657.27	833.04
657.61	826.08
657.95	820.04
658.29	814.16
658.64	808.17
658.98	801.74
659.32	795.25
659.66	789.00
660.00	782.72
660.34	776.77
660.68	770.71
661.02	764.40
661.36	758.46
661.70	752.56
662.05	746.95
662.39	741.40
662.73	736.02
663.07	730.65
663.41	725.05
663.75	719.34
664.09	713.63
664.43	708.16
664.77	702.79
665.11	696.99
665.45	691.06
665.79	685.18
666.13	679.48
666.47	673.98
666.81	668.53
667.15	663.12
667.49	657.90
667.83	652.68
668.17	647.40
668.51	642.27
668.85	637.35
669.19	632.43
669.53	627.45
669.87	622.33
670.21	617.58
670.55	612.84
670.89	608.35
671.23	603.97
671.57	599.62
671.91	595.38
672.25	591.22
672.58	587.14
672.92	583.09
673.26	579.14
673.60	575.25
673.94	571.47
674.28	567.92
674.62	564.18
674.96	560.38
675.30	556.83
675.64	553.12
675.97	549.52
676.31	545.90
676.65	542.28
676.99	538.86
677.33	534.93
677.67	531.36
678.01	527.54
678.34	523.94
678.68	520.44
679.02	516.82
679.36	513.09
679.70	509.37
680.04	505.82
680.37	502.37
680.71	499.16
681.05	495.91
681.39	492.55
681.73	489.32
682.06	486.37
682.40	483.36
682.74	480.18
683.08	476.94
683.42	473.71
683.75	470.63
684.09	467.52
684.43	464.74
684.77	461.75
685.10	458.97
685.44	456.06
685.78	453.03
686.12	450.19
686.45	447.52
686.79	444.90
687.13	442.28
687.46	439.63
687.80	436.81
688.14	433.99
688.48	431.34
688.81	428.68
689.15	426.00
689.49	423.32
689.82	420.74
690.16	418.13
690.50	415.69
690.83	413.20
691.17	410.65
691.51	408.09
691.84	405.76
692.18	403.43
692.52	401.20
692.85	399.10
693.19	396.93
693.52	394.67
693.86	392.35
694.20	390.17
694.53	388.00
694.87	385.76
695.21	383.59
695.54	381.45
695.88	379.24
696.21	377.05
696.55	374.93
696.88	372.86
697.22	370.87
697.56	368.95
697.89	367.08
698.23	365.32
698.56	363.55
698.90	361.78
699.23	359.89
699.57	358.00
699.90	356.11
700.24	354.27
700.58	352.51
700.91	350.85
701.25	349.21
701.58	347.59
701.92	346.00
702.25	344.43
702.59	342.81
702.92	341.26
703.26	339.67
703.59	338.16
703.93	336.86
704.26	335.39
704.60	333.90
704.93	332.43
705.26	330.93
705.60	329.46
705.93	327.95
706.27	326.57
706.60	325.27
706.94	323.98
707.27	322.58
707.61	321.21
707.94	319.88
708.27	318.39
708.61	316.97
708.94	315.55
709.28	314.23
709.61	312.90
709.94	311.66
710.28	310.38
710.61	309.17
710.95	307.76
711.28	306.70
711.61	305.46
711.95	304.24
712.28	303.03
712.61	301.80
712.95	300.65
713.28	299.62
713.61	298.44
713.95	297.25
714.28	296.25
714.61	295.20
714.95	294.15
715.28	293.09
715.61	292.04
715.95	291.10
716.28	290.12
716.61	289.19
716.95	288.16
717.28	287.23
717.61	286.23
717.94	285.27
718.28	284.21
718.61	283.32
718.94	282.42
719.27	281.55
719.61	280.75
719.94	279.92
720.27	278.98
720.60	278.13
720.94	277.36
721.27	276.55
721.60	275.85
721.93	275.16
722.27	274.52
722.60	273.86
722.93	273.12
723.26	272.45
723.59	271.70
723.93	271.08
724.26	270.44
724.59	269.78
724.92	269.17
725.25	268.61
725.59	267.99
725.92	267.42
726.25	266.80
726.58	266.19
726.91	265.57
727.24	265.00
727.57	264.41
727.91	263.78
728.24	263.23
728.57	262.63
728.90	262.01
729.23	261.38
729.56	260.92
729.89	260.36
730.22	259.79
730.55	259.23
730.89	258.67
731.22	258.14
731.55	257.64
731.88	257.10
732.21	256.54
732.54	256.04
732.87	255.55
733.20	255.09
733.53	254.57
733.86	254.12
734.19	253.60
734.52	253.19
734.85	252.89
735.18	252.38
735.51	252.00
735.84	251.59
736.17	251.21
736.50	250.64
736.83	250.48
737.16	250.06
737.49	249.72
737.82	249.31
738.15	248.92
738.48	248.53
738.81	248.14
739.14	247.73
739.47	247.30
739.80	246.88
740.13	246.53
740.46	246.15
740.79	245.75
741.12	245.38
741.45	244.97
741.78	244.53
742.11	244.26
742.44	243.86
742.77	243.53
743.10	243.16
743.43	242.82
743.75	242.23
744.08	242.15
744.41	241.77
744.74	241.39
745.07	240.99
745.40	240.69
745.73	240.39
746.06	240.05
746.39	239.77
746.71	239.45
747.04	239.10
747.37	238.78
747.70	238.50
748.03	238.18
748.36	237.95
748.68	237.61
749.01	237.27
749.34	236.98
749.67	236.68
750.00	236.41
750.33	236.29
750.65	236.05
750.98	235.54
751.31	235.30
751.64	235.08
751.97	234.97
752.29	234.69
752.62	234.36
752.95	234.12
753.28	233.82
753.60	233.57
753.93	233.39
754.26	233.17
754.59	232.92
754.91	232.69
755.24	232.40
755.57	232.16
755.90	231.92
756.22	231.66
756.55	231.40
756.88	231.15
757.20	230.79
757.53	230.49
757.86	230.29
758.19	230.05
758.51	229.84
758.84	229.52
759.17	229.32
759.49	229.17
759.82	229.12
760.15	228.96
760.47	228.77
760.80	228.50
761.13	228.37
761.45	228.12
761.78	227.93
762.11	227.77
762.43	227.60
762.76	227.44
763.08	227.32
763.41	227.17
763.74	227.01
764.06	226.81
764.39	226.66
764.71	226.48
765.04	226.34
765.37	226.18
765.69	226.03
766.02	225.89
766.34	225.70
766.67	225.41
767.00	225.32
767.32	225.26
767.65	225.24
767.97	225.06
768.30	224.98
768.62	224.86
768.95	224.71
769.27	224.59
769.60	224.50
769.92	224.30
770.25	224.14
770.57	223.97
770.90	223.89
771.22	223.77
771.55	223.66
771.87	223.57
772.20	223.45
772.52	223.53
772.85	223.67
773.17	223.58
773.50	223.50
773.82	223.36
774.15	223.17
774.47	222.95
774.80	222.84
775.12	222.72
775.45	222.65
775.77	222.59
776.09	222.50
776.42	222.39
776.74	222.38
777.07	222.30
777.39	222.25
777.72	222.15
778.04	222.10
778.36	222.00
778.69	221.90
779.01	221.83
779.33	221.54
779.66	221.22
779.98	221.14
780.31	221.07
780.63	221.06
780.95	221.02
781.28	220.97
781.60	220.85
781.92	220.79
782.25	220.68
782.57	220.60
782.89	220.51
783.22	220.39
783.54	220.30
783.86	220.25
784.19	220.16
784.51	220.19
784.83	220.06
785.16	220.00
785.48	219.95
785.80	219.86
786.12	219.84
786.45	219.80
786.77	219.76
787.09	219.69
787.42	219.60
787.74	219.53
788.06	219.47
788.38	219.43
788.71	219.33
789.03	219.26
789.35	219.21
789.67	219.10
789.99	219.05
790.32	218.95
790.64	218.92
790.96	219.08
791.28	218.92
791.61	218.89
791.93	218.87
792.25	218.80
792.57	218.93
792.89	218.85
793.21	218.79
793.54	218.72
793.86	218.66
794.18	218.61
794.50	218.54
794.82	218.51
795.14	218.52
795.47	218.54
795.79	218.51
796.11	218.45
796.43	218.42
796.75	218.38
797.07	218.38
797.39	218.31
797.71	218.09
798.04	218.08
798.36	218.04
798.68	217.97
799.00	217.96
799.32	217.79
799.64	217.79
799.96	217.74
800.28	217.77
800.60	217.73
800.92	217.69
801.24	217.64
801.56	217.58
801.89	217.53
802.21	217.50
802.53	217.44
802.85	217.41
803.17	217.52
803.49	217.48
803.81	217.42
804.13	217.40
804.45	217.34
804.77	217.29
805.09	217.26
805.41	217.22
805.73	217.15
806.05	217.09
806.37	217.05
806.69	217.01
807.01	216.92
807.33	216.90
807.65	216.82
807.97	216.89
808.28	216.88
808.60	216.81
808.92	216.72
809.24	216.81
809.56	216.75
809.88	216.64
810.20	216.60
810.52	216.61
810.84	216.55
811.16	216.51
811.48	216.50
811.80	216.55
812.12	216.52
812.43	216.52
812.75	216.50
813.07	216.46
813.39	216.45
813.71	216.40
814.03	216.36
814.35	216.33
814.67	216.22
814.98	216.16
815.30	216.18
815.62	216.14
815.94	216.02
816.26	216.01
816.58	215.95
816.89	215.97
817.21	215.87
817.53	215.87
817.85	215.88
818.17	215.85
818.48	215.74
818.80	215.76
819.12	215.73
819.44	215.69
819.76	215.66
820.07	215.62
820.39	215.63
820.71	215.62
821.03	215.61
821.34	215.59
821.66	215.62
821.98	215.64
822.30	215.59
822.61	215.69
822.93	215.65
823.25	215.64
823.57	215.57
823.88	215.61
824.20	215.59
824.52	215.61
824.83	215.60
825.15	215.56
825.47	215.55
825.79	215.56
826.10	215.55
826.42	215.52
826.74	215.51
827.05	215.49
827.37	215.50
827.69	215.48
828.00	215.48
828.32	215.43
828.64	215.35
828.95	215.46
829.27	215.40
829.58	215.40
829.90	215.44
830.22	215.48
830.53	215.42
830.85	215.39
831.17	215.31
831.48	215.30
831.80	215.29
832.11	215.25
832.43	215.20
832.75	215.15
833.06	215.28
833.38	215.21
833.69	215.19
834.01	215.18
834.32	215.19
834.64	215.17
834.96	215.14
835.27	215.11
835.59	215.06
835.90	214.97
836.22	214.97
836.53	214.88
836.85	214.83
837.16	215.03
837.48	215.04
837.79	215.09
838.11	215.08
838.42	215.08
838.74	215.11
839.05	215.09
839.37	215.08
839.68	214.93
840.00	214.96
840.31	214.95
840.63	214.92
840.94	214.88
841.26	214.86
841.57	214.87
841.88	214.90
842.20	214.85
842.51	214.85
842.83	214.83
843.14	215.01
843.46	215.01
843.77	214.87
844.08	214.85
844.40	214.82
844.71	214.78
845.03	214.77
845.34	214.76
845.65	214.75
845.97	214.75
846.28	214.76
846.60	214.75
846.91	214.72
847.22	214.74
847.54	214.79
847.85	214.78
848.16	214.75
848.48	214.71
848.79	214.81
849.10	214.81
849.42	214.83
849.73	214.65
850.04	214.65
850.36	214.59
850.67	214.61
850.98	214.58
851.30	214.62
851.61	214.63
851.92	214.58
852.23	214.64
852.55	214.65
852.86	214.66
853.17	214.64
853.49	214.69
853.80	214.72
854.11	214.70
854.42	214.73
854.74	214.69
855.05	214.70
855.36	214.55
855.67	214.57
855.99	214.56
856.30	214.80
856.61	214.78
856.92	214.78
857.23	214.80
857.55	214.79
857.86	214.74
858.17	214.76
858.48	214.73
858.79	214.69
859.11	214.70
859.42	214.68
859.73	214.67
860.04	214.62
860.35	214.55
860.66	214.49
860.98	214.50
861.29	214.52
861.60	214.53
861.91	214.62
862.22	214.59
862.53	214.53
862.84	214.30
863.16	214.33
863.47	214.27
863.78	214.22
864.09	214.28
864.40	214.29
864.71	214.29
865.02	214.36
865.33	214.33
865.64	214.27
865.95	214.23
866.27	214.41
866.58	214.44
866.89	214.46
867.20	214.43
867.51	214.39
867.82	214.38
868.13	214.41
868.44	214.34
868.75	214.36
869.06	214.39
869.37	214.40
869.68	214.35
869.99	214.40
870.30	214.43
870.61	214.40
870.92	214.35
871.23	214.32
871.54	214.28
871.85	214.31
872.16	214.33
872.47	214.32
872.78	214.15
873.09	214.16
873.40	214.14
873.71	214.18
874.02	214.15
874.33	214.14
874.64	214.09
874.95	214.11
875.26	214.05
875.56	214.05
875.87	214.05
876.18	214.04
876.49	214.25
876.80	214.18
877.11	214.13
877.42	214.14
877.73	214.16
878.04	214.13
878.35	214.12
878.66	214.14
878.96	214.13
879.27	214.10
879.58	214.04
879.89	214.02
880.20	214.07
880.51	214.10
880.82	214.11
881.12	214.11
881.43	214.04
881.74	214.04
882.05	214.02
882.36	214.01
882.67	214.04
882.97	213.77
883.28	213.81
883.59	213.78
883.90	213.82
884.21	213.81
884.51	213.79
884.82	213.74
885.13	213.71
885.44	213.74
885.74	213.79
886.05	213.82
886.36	213.83
886.67	213.80
886.98	213.90
887.28	213.94
887.59	213.95
887.90	213.99
888.20	214.00
888.51	214.04
888.82	214.03
889.13	214.06
889.43	214.24
889.74	214.25
890.05	214.31
890.35	214.29
890.66	214.25
890.97	214.26
891.28	214.26
891.58	214.32
891.89	214.29
892.20	214.27
892.50	214.26
892.81	214.28
893.12	214.23
893.42	214.14
893.73	214.10
894.04	214.12
894.34	214.15
894.65	214.13
894.95	214.12
895.26	214.15
895.57	214.22
895.87	214.03
896.18	214.04
896.48	214.03
896.79	214.05
897.10	214.10
897.40	214.12
897.71	214.15
898.01	214.11
898.32	214.17
898.63	214.14
898.93	214.15
899.24	214.13
899.54	214.12
899.85	214.07
900.15	214.09
900.46	214.06
900.76	214.06
901.07	214.09
901.38	214.08
901.68	214.07
901.99	213.96
902.29	213.94
902.60	213.93
902.90	213.90
903.21	213.85
903.51	213.83
903.82	213.86
904.12	213.86
904.43	213.86
904.73	213.81
905.03	213.88
905.34	214.07
905.64	214.07
905.95	214.09
906.25	214.11
906.56	214.10
906.86	214.07
907.17	214.07
907.47	214.06
907.77	214.05
908.08	214.02
908.38	214.03
908.69	214.05
908.99	214.07
909.30	214.13
909.60	214.12
909.90	214.14
910.21	214.08
910.51	214.03
910.81	214.01
911.12	214.04
911.42	214.00
911.73	213.79
912.03	213.78
912.33	213.84
912.64	213.87
912.94	213.80
913.24	213.77
913.55	213.74
913.85	213.70
914.15	213.75
914.46	213.80
914.76	213.80
915.06	213.79
915.37	213.73
915.67	213.68
915.97	213.75
916.27	213.71
916.58	213.74
916.88	213.74
917.18	213.76
917.49	213.89
917.79	213.87
918.09	213.89
918.39	213.94
918.70	213.89
919.00	213.86
919.30	213.99
919.60	214.01
919.91	214.00
920.21	214.04
920.51	213.97
920.81	213.92
921.12	213.92
921.42	213.92
921.72	213.94
922.02	213.96
922.32	213.94
922.63	213.94
922.93	214.03
923.23	214.07
923.53	214.03
923.83	213.90
924.13	213.93
924.44	213.92
924.74	213.93
925.04	214.00
925.34	214.00
925.64	213.91
925.94	213.89
926.24	214.01
926.55	213.98
926.85	214.03
927.15	214.02
927.45	214.02
927.75	214.03
928.05	214.04
928.35	214.03
928.65	214.08
928.95	214.09
929.26	213.99
929.56	214.02
929.86	214.06
930.16	214.05
930.46	214.01
930.76	214.03
931.06	213.94
931.36	213.85
931.66	213.86
931.96	213.88
932.26	213.91
932.56	213.80
932.86	213.83
933.16	213.81
933.46	213.81
933.76	213.83
934.06	213.86
934.36	213.92
934.66	213.89
934.96	213.82
935.26	213.80
935.56	213.83
935.86	213.75
936.16	213.70
936.46	213.69
936.76	213.70
937.06	213.66
937.36	213.67
937.66	213.69
937.96	213.69
938.26	213.69
938.56	213.69
938.86	213.70
939.16	213.74
939.46	213.77
939.76	213.79
940.06	213.75
940.35	213.72
940.65	213.65
940.95	213.70
941.25	213.70
941.55	213.68
941.85	213.71
942.15	213.77
942.45	213.86
942.75	213.88
943.04	213.87
943.34	213.95
943.64	213.93
943.94	213.92
944.24	213.93
944.54	213.96
944.84	213.93
945.13	213.91
945.43	213.93
945.73	213.88
946.03	213.87
946.33	213.88
946.62	213.85
946.92	213.84
947.22	213.83
947.52	213.85
947.82	213.87
948.11	213.82
948.41	213.79
948.71	213.72
949.01	213.73
949.31	213.70
949.60	213.65
949.90	213.72
950.20	213.69
950.50	213.71
950.79	213.68
951.09	213.72
951.39	213.72
951.69	213.67
951.98	213.70
952.28	213.69
952.58	213.66
952.87	213.69
953.17	213.70
953.47	213.69
953.76	213.67
954.06	213.68
954.36	213.66
954.66	213.63
954.95	213.67
955.25	213.67
955.55	213.72
955.84	213.69
956.14	213.70
956.44	213.72
956.73	213.68
957.03	213.67
957.32	213.66
957.62	213.62
957.92	213.63
958.21	213.60
958.51	213.86
958.81	213.89
959.10	213.87
959.40	213.92
959.69	213.95
959.99	214.00
960.29	213.98
960.58	213.98
960.88	214.08
961.17	214.04
961.47	214.05
961.76	213.99
962.06	214.04
962.36	214.01
962.65	214.00
962.95	213.99
963.24	213.99
963.54	214.00
963.83	214.03
964.13	214.03
964.42	214.02
964.72	213.80
965.01	213.82
965.31	213.81
965.60	213.74
965.90	213.85
966.19	213.83
966.49	213.84
966.78	213.83
967.08	213.81
967.37	213.84
967.67	213.78
967.96	213.85
968.26	213.83
968.55	213.86
968.85	213.85
969.14	213.83
969.43	213.82
969.73	213.78
970.02	213.77
970.32	213.77
970.61	213.76
970.91	213.72
971.20	213.65
971.49	213.66
971.79	213.66
972.08	213.50
972.38	213.47
972.67	213.45
972.96	213.46
973.26	213.40
973.55	213.44
973.85	213.42
974.14	213.40
974.43	213.43
974.73	213.38
975.02	213.38
975.31	213.40
975.61	213.42
975.90	213.39
976.19	213.38
976.49	213.38
976.78	213.38
977.07	213.41
977.37	213.46
977.66	213.48
977.95	213.44
978.24	213.43
978.54	213.48
978.83	213.48
979.12	213.50
979.42	213.50
979.71	213.45
980.00	213.48
980.29	213.47
980.59	213.42
980.88	213.46
981.17	213.45
981.46	213.45
981.76	213.46
982.05	213.54
982.34	213.54
982.63	213.53
982.93	213.51
983.22	213.54
983.51	213.54
983.80	213.58
984.09	213.64
984.39	213.65
984.68	213.60
984.97	213.61
985.26	213.59
985.55	213.64
985.85	213.62
986.14	213.69
986.43	213.74
986.72	213.77
987.01	213.69
987.30	213.71
987.59	213.70
987.89	213.71
988.18	213.65
988.47	213.65
988.76	213.62
989.05	213.62
989.34	213.61
989.63	213.66
989.92	213.61
990.22	213.63
990.51	213.66
990.80	213.67
991.09	213.70
991.38	213.74
991.67	213.70
991.96	213.68
992.25	213.65
992.54	213.62
992.83	213.58
993.12	213.60
993.41	213.63
993.70	213.73
993.99	213.72
994.28	213.79
994.58	213.86
994.87	213.85
995.16	213.87
995.45	213.83
995.74	213.75
996.03	213.76
996.32	213.75
996.61	213.76
996.90	213.78
997.19	213.78
997.48	213.75
997.77	213.75
998.06	213.73
998.34	213.71
998.63	213.69
998.92	213.71
999.21	213.77
999.50	213.76
999.79	213.68
1000.08	213.70
1000.37	213.67
1000.66	213.59
1000.95	213.67
1001.24	213.67
1001.53	213.71
1001.82	213.71
1002.11	213.68
1002.40	213.70
1002.68	213.75
1002.97	213.89
1003.26	213.83
1003.55	213.80
1003.84	213.81
1004.13	213.92
1004.42	213.93
1004.71	213.98
1004.99	213.97
1005.28	213.98
1005.57	213.98
1005.86	213.98
1006.15	213.98
1006.44	213.91
1006.72	213.96
1007.01	213.91
1007.30	213.89
1007.59	213.86
1007.88	213.84
1008.17	213.87
1008.45	213.83
1008.74	213.75
1009.03	213.62
1009.32	213.65
1009.60	213.65
1009.89	213.59
1010.18	213.48
1010.47	213.46
1010.76	213.42
1011.04	213.42
1011.33	213.44
1011.62	213.44
1011.91	213.44
1012.19	213.41
1012.48	213.46
1012.77	213.45
1013.05	213.57
1013.34	213.59
1013.63	213.61
1013.92	213.64
1014.20	213.62
1014.49	213.64
1014.78	213.67
1015.06	213.60
1015.35	213.62
1015.64	213.65
1015.92	213.68
1016.21	213.67
1016.50	213.69
1016.78	213.69
1017.07	213.70
1017.36	213.62
1017.64	213.59
1017.93	213.60
1018.22	213.59
1018.50	213.56
1018.79	213.56
1019.08	213.48
1019.36	213.50
1019.65	213.48
1019.93	213.55
1020.22	213.60
1020.51	213.68
1020.79	213.64
1021.08	213.28
1021.36	212.75
1021.65	214.14
1021.94	213.97
1022.22	213.89
1022.51	213.29
1022.79	214.98
1023.08	214.34
1023.36	215.70
1023.65	213.13
>>>>>End Processed Spectral Data<<<<<
