SpectraSuite Data File
++++++++++++++++++++++++++++++++++++
Date: Tue Jan 29 16:12:30 EST 2013
User: group
Dark Spectrum Present: No
Reference Spectrum Present: No
Number of Sampled Component Spectra: 1
Spectrometers: USB2E7196
Integration Time (usec): 65000 (USB2E7196)
Spectra Averaged: 100 (USB2E7196)
Boxcar Smoothing: 10 (USB2E7196)
Correct for Electrical Dark: No (USB2E7196)
Strobe/Lamp Enabled: No (USB2E7196)
Correct for Detector Non-linearity: No (USB2E7196)
Correct for Stray Light: No (USB2E7196)
Number of Pixels in Processed Spectrum: 2048
>>>>>Begin Processed Spectral Data<<<<<
339.09	0.00
339.48	202.02
339.86	204.45
340.24	204.96
340.63	205.88
341.01	211.31
341.39	209.62
341.78	210.75
342.16	212.59
342.54	212.45
342.93	201.63
343.31	211.83
343.69	212.41
344.07	212.84
344.46	213.31
344.84	213.77
345.22	213.92
345.60	214.19
345.99	214.38
346.37	214.52
346.75	214.62
347.13	214.72
347.52	214.82
347.90	214.97
348.28	215.01
348.66	215.10
349.05	215.06
349.43	215.15
349.81	215.23
350.19	215.29
350.57	215.37
350.96	215.45
351.34	215.55
351.72	215.62
352.10	215.75
352.48	215.81
352.87	215.83
353.25	215.95
353.63	216.01
354.01	216.08
354.39	216.15
354.77	216.24
355.15	216.35
355.54	216.39
355.92	216.39
356.30	216.48
356.68	216.69
357.06	216.81
357.44	216.83
357.82	216.88
358.20	216.95
358.58	217.01
358.97	217.08
359.35	217.19
359.73	217.31
360.11	217.37
360.49	217.45
360.87	217.52
361.25	217.58
361.63	217.66
362.01	217.73
362.39	217.76
362.77	217.81
363.15	217.84
363.53	217.87
363.91	217.87
364.29	217.85
364.67	217.68
365.05	217.68
365.43	217.72
365.81	217.76
366.19	217.85
366.57	217.96
366.95	217.98
367.33	217.90
367.71	217.87
368.09	217.90
368.47	217.88
368.85	217.89
369.23	217.90
369.61	217.84
369.99	217.90
370.37	217.91
370.75	217.96
371.13	217.90
371.51	217.82
371.89	217.83
372.27	217.83
372.65	217.79
373.03	217.76
373.41	217.69
373.78	217.62
374.16	217.46
374.54	217.34
374.92	217.28
375.30	217.27
375.68	217.20
376.06	217.18
376.44	217.10
376.82	217.07
377.19	217.01
377.57	216.96
377.95	216.82
378.33	216.75
378.71	216.60
379.09	216.59
379.47	216.61
379.84	216.53
380.22	216.47
380.60	216.38
380.98	216.33
381.36	216.28
381.73	216.22
382.11	216.22
382.49	216.19
382.87	216.11
383.25	216.05
383.62	216.25
384.00	216.17
384.38	216.15
384.76	216.13
385.13	216.18
385.51	216.16
385.89	216.11
386.27	216.10
386.64	216.10
387.02	216.06
387.40	216.00
387.78	216.00
388.15	216.00
388.53	215.98
388.91	215.99
389.29	215.98
389.66	215.99
390.04	215.97
390.42	215.99
390.79	215.99
391.17	216.00
391.55	215.78
391.92	215.75
392.30	215.78
392.68	215.72
393.05	215.71
393.43	215.71
393.81	215.76
394.18	215.70
394.56	215.72
394.94	215.76
395.31	215.74
395.69	215.77
396.06	215.81
396.44	215.89
396.82	215.88
397.19	216.01
397.57	216.00
397.95	216.02
398.32	215.96
398.70	216.01
399.07	216.05
399.45	216.09
399.82	216.12
400.20	216.12
400.58	216.18
400.95	216.13
401.33	216.22
401.70	216.42
402.08	216.53
402.45	216.59
402.83	216.74
403.20	216.87
403.58	216.96
403.95	217.09
404.33	217.24
404.71	217.39
405.08	217.63
405.46	217.81
405.83	218.05
406.21	218.28
406.58	218.50
406.96	218.73
407.33	218.97
407.70	219.26
408.08	219.72
408.45	220.08
408.83	220.49
409.20	220.83
409.58	221.09
409.95	221.53
410.33	222.01
410.70	222.40
411.08	222.92
411.45	223.49
411.82	224.04
412.20	224.71
412.57	225.50
412.95	226.05
413.32	226.87
413.69	227.65
414.07	228.50
414.44	229.41
414.82	230.41
415.19	231.58
415.56	232.72
415.94	233.85
416.31	235.20
416.68	236.54
417.06	238.11
417.43	239.61
417.81	241.32
418.18	243.02
418.55	244.91
418.93	246.92
419.30	248.98
419.67	251.13
420.04	253.33
420.42	255.64
420.79	258.36
421.16	261.04
421.54	263.83
421.91	266.73
422.28	269.76
422.66	272.94
423.03	276.05
423.40	279.34
423.77	282.80
424.15	286.35
424.52	290.07
424.89	294.08
425.26	297.99
425.64	301.76
426.01	305.91
426.38	310.23
426.75	314.59
427.13	319.12
427.50	323.97
427.87	328.97
428.24	333.96
428.61	338.76
428.99	344.11
429.36	349.94
429.73	355.64
430.10	361.29
430.47	367.17
430.85	373.29
431.22	379.73
431.59	386.67
431.96	393.27
432.33	400.49
432.70	407.51
433.08	415.75
433.45	423.53
433.82	431.25
434.19	439.80
434.56	448.24
434.93	456.29
435.30	464.21
435.68	473.03
436.05	481.67
436.42	490.31
436.79	498.13
437.16	506.64
437.53	515.58
437.90	524.43
438.27	533.04
438.64	541.92
439.01	550.21
439.38	557.47
439.75	564.55
440.13	572.66
440.50	580.28
440.87	586.43
441.24	592.82
441.61	599.94
441.98	605.17
442.35	611.26
442.72	617.39
443.09	623.30
443.46	626.88
443.83	629.37
444.20	631.43
444.57	634.41
444.94	635.69
445.31	637.05
445.68	638.38
446.05	638.98
446.42	638.22
446.79	637.24
447.16	636.18
447.53	635.41
447.90	632.19
448.27	629.08
448.64	624.62
449.01	621.40
449.37	615.66
449.74	610.08
450.11	603.39
450.48	596.27
450.85	589.04
451.22	582.82
451.59	576.88
451.96	571.26
452.33	563.75
452.70	556.92
453.07	548.74
453.43	540.38
453.80	532.37
454.17	524.68
454.54	517.42
454.91	509.54
455.28	501.90
455.65	494.77
456.02	487.52
456.38	481.44
456.75	473.87
457.12	467.56
457.49	461.38
457.86	455.47
458.23	450.26
458.59	444.56
458.96	438.74
459.33	433.65
459.70	428.52
460.07	424.43
460.43	419.75
460.80	415.40
461.17	411.61
461.54	407.60
461.91	403.74
462.27	399.71
462.64	396.40
463.01	392.71
463.38	389.16
463.74	385.56
464.11	382.44
464.48	379.74
464.85	376.73
465.21	374.33
465.58	371.77
465.95	368.73
466.32	366.22
466.68	363.70
467.05	361.19
467.42	358.69
467.78	356.15
468.15	353.66
468.52	351.79
468.88	349.38
469.25	347.22
469.62	345.51
469.98	343.70
470.35	342.00
470.72	340.39
471.08	338.66
471.45	337.26
471.82	335.79
472.18	334.20
472.55	333.10
472.92	331.82
473.28	330.67
473.65	329.60
474.02	328.54
474.38	327.76
474.75	327.07
475.11	326.34
475.48	325.74
475.85	325.33
476.21	324.88
476.58	324.60
476.94	324.39
477.31	324.08
477.67	323.86
478.04	323.73
478.41	323.70
478.77	323.90
479.14	323.85
479.50	323.96
479.87	324.23
480.23	324.59
480.60	324.85
480.96	325.18
481.33	325.80
481.69	326.37
482.06	326.93
482.42	327.43
482.79	328.01
483.15	328.82
483.52	329.79
483.88	330.74
484.25	331.66
484.61	332.71
484.98	333.76
485.34	335.09
485.71	336.48
486.07	337.90
486.44	339.23
486.80	340.86
487.17	342.55
487.53	344.41
487.90	346.23
488.26	348.27
488.62	350.39
488.99	352.38
489.35	354.54
489.72	356.85
490.08	359.36
490.44	361.95
490.81	364.68
491.17	367.38
491.54	370.34
491.90	373.39
492.26	376.61
492.63	380.02
492.99	383.52
493.36	387.15
493.72	390.99
494.08	394.98
494.45	399.21
494.81	403.53
495.17	407.98
495.54	412.68
495.90	417.46
496.26	422.35
496.63	427.60
496.99	432.97
497.35	438.57
497.72	444.38
498.08	450.28
498.44	456.30
498.80	462.73
499.17	469.16
499.53	475.80
499.89	482.63
500.26	489.54
500.62	496.59
500.98	503.94
501.34	511.36
501.71	519.05
502.07	526.79
502.43	534.78
502.79	542.74
503.16	551.05
503.52	559.58
503.88	568.20
504.24	577.12
504.60	586.15
504.97	595.30
505.33	604.56
505.69	614.39
506.05	624.19
506.41	633.85
506.78	643.84
507.14	654.09
507.50	664.53
507.86	675.18
508.22	685.83
508.59	696.42
508.95	707.38
509.31	718.60
509.67	730.04
510.03	741.39
510.39	753.14
510.75	764.90
511.12	776.76
511.48	788.75
511.84	800.90
512.20	813.06
512.56	825.58
512.92	838.12
513.28	850.60
513.64	863.21
514.00	875.99
514.37	888.82
514.73	901.72
515.09	914.48
515.45	927.14
515.81	940.13
516.17	953.34
516.53	966.46
516.89	979.38
517.25	992.29
517.61	1005.59
517.97	1018.81
518.33	1031.81
518.69	1045.12
519.05	1058.75
519.41	1072.14
519.77	1085.84
520.13	1098.86
520.49	1111.86
520.85	1125.01
521.21	1138.09
521.57	1151.51
521.93	1164.28
522.29	1177.80
522.65	1191.16
523.01	1204.64
523.37	1217.51
523.73	1230.49
524.09	1243.37
524.45	1256.64
524.81	1269.93
525.17	1283.05
525.53	1295.92
525.89	1308.99
526.25	1321.77
526.61	1334.26
526.97	1347.14
527.33	1359.76
527.68	1372.94
528.04	1386.16
528.40	1399.03
528.76	1412.10
529.12	1424.76
529.48	1437.88
529.84	1449.79
530.20	1462.29
530.56	1474.65
530.91	1487.57
531.27	1500.23
531.63	1512.75
531.99	1525.05
532.35	1536.79
532.71	1548.88
533.07	1561.50
533.42	1573.30
533.78	1585.15
534.14	1596.88
534.50	1607.74
534.86	1619.05
535.21	1629.66
535.57	1640.78
535.93	1651.77
536.29	1662.67
536.65	1673.81
537.00	1684.51
537.36	1695.52
537.72	1706.29
538.08	1717.22
538.44	1727.85
538.79	1738.58
539.15	1749.10
539.51	1759.50
539.87	1770.63
540.22	1781.11
540.58	1791.56
540.94	1802.16
541.29	1812.08
541.65	1821.64
542.01	1831.89
542.37	1841.63
542.72	1851.54
543.08	1861.07
543.44	1871.12
543.79	1880.21
544.15	1889.35
544.51	1899.06
544.87	1908.94
545.22	1917.82
545.58	1926.34
545.94	1934.95
546.29	1943.29
546.65	1951.43
547.01	1959.49
547.36	1966.95
547.72	1974.43
548.07	1981.88
548.43	1989.32
548.79	1996.87
549.14	2004.87
549.50	2012.96
549.86	2020.62
550.21	2027.81
550.57	2035.26
550.92	2041.83
551.28	2049.00
551.64	2056.13
551.99	2063.26
552.35	2070.03
552.70	2076.72
553.06	2083.25
553.41	2089.23
553.77	2095.42
554.13	2101.69
554.48	2108.49
554.84	2115.27
555.19	2121.62
555.55	2127.91
555.90	2134.17
556.26	2141.01
556.61	2146.64
556.97	2151.51
557.32	2157.13
557.68	2163.34
558.03	2168.88
558.39	2174.09
558.74	2179.92
559.10	2185.25
559.45	2190.78
559.81	2196.23
560.16	2201.68
560.52	2207.65
560.87	2214.07
561.23	2220.16
561.58	2226.76
561.94	2232.04
562.29	2236.89
562.64	2242.91
563.00	2248.47
563.35	2254.06
563.71	2259.79
564.06	2265.68
564.42	2271.66
564.77	2276.84
565.12	2282.05
565.48	2287.38
565.83	2292.91
566.19	2298.45
566.54	2303.96
566.89	2308.67
567.25	2313.27
567.60	2318.85
567.96	2324.05
568.31	2328.55
568.66	2332.67
569.02	2336.45
569.37	2340.14
569.72	2344.45
570.08	2348.09
570.43	2351.30
570.78	2354.37
571.14	2356.89
571.49	2359.95
571.84	2363.43
572.20	2366.34
572.55	2369.52
572.90	2371.73
573.26	2374.83
573.61	2377.34
573.96	2379.45
574.31	2381.48
574.67	2383.53
575.02	2384.65
575.37	2386.09
575.72	2387.10
576.08	2388.71
576.43	2389.15
576.78	2389.94
577.13	2391.96
577.49	2393.22
577.84	2394.58
578.19	2396.16
578.54	2397.10
578.90	2398.26
579.25	2398.41
579.60	2398.60
579.95	2398.06
580.30	2398.47
580.66	2397.81
581.01	2396.31
581.36	2394.31
581.71	2393.17
582.06	2392.36
582.42	2391.55
582.77	2389.54
583.12	2388.07
583.47	2386.99
583.82	2386.49
584.17	2385.42
584.53	2383.37
584.88	2381.42
585.23	2379.70
585.58	2377.52
585.93	2375.46
586.28	2373.29
586.63	2371.07
586.98	2369.08
587.34	2367.20
587.69	2364.91
588.04	2363.03
588.39	2361.79
588.74	2359.51
589.09	2357.09
589.44	2354.16
589.79	2352.04
590.14	2350.34
590.49	2347.82
590.84	2344.16
591.19	2341.41
591.54	2338.39
591.89	2334.41
592.25	2331.58
592.60	2327.47
592.95	2323.69
593.30	2319.78
593.65	2315.62
594.00	2311.27
594.35	2308.30
594.70	2303.89
595.05	2299.57
595.40	2294.32
595.75	2288.80
596.10	2285.32
596.45	2280.42
596.80	2275.87
597.15	2270.66
597.50	2264.82
597.85	2259.89
598.19	2254.87
598.54	2249.14
598.89	2244.06
599.24	2239.70
599.59	2233.46
599.94	2227.87
600.29	2221.93
600.64	2216.09
600.99	2209.42
601.34	2204.17
601.69	2197.24
602.04	2190.88
602.39	2184.40
602.74	2178.38
603.08	2172.83
603.43	2166.40
603.78	2159.76
604.13	2152.79
604.48	2145.64
604.83	2139.60
605.18	2133.38
605.53	2126.40
605.87	2119.39
606.22	2112.70
606.57	2104.98
606.92	2097.26
607.27	2090.23
607.62	2083.77
607.96	2076.79
608.31	2070.24
608.66	2062.46
609.01	2054.94
609.36	2047.96
609.70	2040.39
610.05	2032.84
610.40	2024.68
610.75	2016.51
611.10	2008.84
611.44	2000.06
611.79	1991.46
612.14	1981.52
612.49	1971.14
612.83	1962.06
613.18	1952.94
613.53	1943.53
613.88	1933.93
614.22	1925.31
614.57	1915.53
614.92	1905.00
615.27	1894.93
615.61	1885.08
615.96	1875.36
616.31	1865.86
616.65	1856.70
617.00	1846.81
617.35	1837.12
617.70	1827.39
618.04	1817.28
618.39	1807.03
618.74	1797.48
619.08	1787.96
619.43	1779.40
619.78	1771.17
620.12	1762.39
620.47	1752.70
620.82	1742.44
621.16	1732.62
621.51	1722.78
621.85	1712.93
622.20	1702.49
622.55	1691.93
622.89	1682.08
623.24	1672.54
623.59	1662.92
623.93	1652.71
624.28	1643.10
624.62	1632.97
624.97	1622.78
625.32	1613.14
625.66	1604.47
626.01	1595.57
626.35	1586.10
626.70	1575.94
627.04	1565.66
627.39	1555.53
627.73	1546.25
628.08	1537.25
628.43	1527.78
628.77	1518.47
629.12	1509.65
629.46	1501.76
629.81	1493.43
630.15	1483.86
630.50	1473.95
630.84	1463.39
631.19	1453.44
631.53	1443.92
631.88	1433.81
632.22	1423.79
632.57	1414.43
632.91	1404.12
633.26	1394.28
633.60	1384.74
633.95	1375.54
634.29	1366.38
634.64	1357.17
634.98	1347.38
635.32	1338.15
635.67	1329.60
636.01	1320.49
636.36	1310.64
636.70	1301.18
637.05	1291.79
637.39	1282.81
637.73	1274.24
638.08	1266.74
638.42	1258.45
638.77	1249.69
639.11	1241.43
639.45	1233.66
639.80	1225.01
640.14	1216.47
640.49	1207.62
640.83	1198.92
641.17	1190.77
641.52	1182.49
641.86	1173.82
642.20	1166.01
642.55	1157.40
642.89	1148.57
643.23	1139.88
643.58	1131.96
643.92	1122.88
644.26	1114.29
644.61	1105.97
644.95	1097.23
645.29	1087.98
645.64	1078.94
645.98	1070.65
646.32	1062.70
646.66	1054.28
647.01	1046.01
647.35	1037.88
647.69	1029.50
648.04	1021.24
648.38	1012.40
648.72	1003.69
649.06	995.39
649.41	987.19
649.75	979.26
650.09	971.45
650.43	963.46
650.78	955.30
651.12	947.70
651.46	940.42
651.80	933.12
652.14	925.90
652.49	918.37
652.83	911.18
653.17	903.52
653.51	896.01
653.85	888.77
654.20	881.53
654.54	874.03
654.88	866.98
655.22	859.78
655.56	852.80
655.90	846.15
656.25	839.56
656.59	832.65
656.93	825.75
657.27	818.67
657.61	811.76
657.95	805.64
658.29	799.90
658.64	793.74
658.98	787.33
659.32	780.75
659.66	774.64
660.00	768.28
660.34	762.28
660.68	756.31
661.02	750.02
661.36	744.25
661.70	738.53
662.05	732.94
662.39	727.50
662.73	722.25
663.07	716.86
663.41	711.32
663.75	705.72
664.09	700.13
664.43	694.76
664.77	689.47
665.11	683.68
665.45	677.83
665.79	672.12
666.13	666.54
666.47	661.13
666.81	655.81
667.15	650.54
667.49	645.44
667.83	640.16
668.17	635.01
668.51	629.90
668.85	625.09
669.19	620.25
669.53	615.34
669.87	610.34
670.21	605.68
670.55	600.99
670.89	596.64
671.23	592.44
671.57	588.20
671.91	583.98
672.25	579.96
672.58	575.86
672.92	571.80
673.26	567.93
673.60	564.13
673.94	560.38
674.28	556.77
674.62	553.01
674.96	549.35
675.30	545.86
675.64	542.25
675.97	538.71
676.31	535.17
676.65	531.61
676.99	528.19
677.33	524.39
677.67	520.79
678.01	516.97
678.34	513.36
678.68	509.86
679.02	506.28
679.36	502.64
679.70	499.07
680.04	495.65
680.37	492.28
680.71	489.07
681.05	485.95
681.39	482.85
681.73	479.80
682.06	476.79
682.40	473.82
682.74	470.68
683.08	467.55
683.42	464.44
683.75	461.57
684.09	458.56
684.43	455.77
684.77	452.90
685.10	450.13
685.44	447.24
685.78	444.39
686.12	441.76
686.45	439.05
686.79	436.45
687.13	433.94
687.46	431.35
687.80	428.68
688.14	425.87
688.48	423.29
688.81	420.63
689.15	418.11
689.49	415.54
689.82	413.09
690.16	410.58
690.50	408.15
690.83	405.64
691.17	403.18
691.51	400.81
691.84	398.61
692.18	396.44
692.52	394.30
692.85	392.23
693.19	390.11
693.52	388.01
693.86	385.88
694.20	383.74
694.53	381.70
694.87	379.58
695.21	377.51
695.54	375.38
695.88	373.30
696.21	371.14
696.55	369.05
696.88	367.03
697.22	365.07
697.56	363.24
697.89	361.40
698.23	359.67
698.56	357.92
698.90	356.19
699.23	354.32
699.57	352.51
699.90	350.68
700.24	348.91
700.58	347.17
700.91	345.53
701.25	344.00
701.58	342.40
701.92	340.85
702.25	339.27
702.59	337.72
702.92	336.21
703.26	334.74
703.59	333.35
703.93	332.13
704.26	330.74
704.60	329.29
704.93	327.86
705.26	326.40
705.60	324.97
705.93	323.49
706.27	322.22
706.60	320.98
706.94	319.76
707.27	318.42
707.61	317.13
707.94	315.80
708.27	314.35
708.61	312.98
708.94	311.60
709.28	310.33
709.61	309.02
709.94	307.80
710.28	306.63
710.61	305.46
710.95	304.06
711.28	303.05
711.61	301.84
711.95	300.77
712.28	299.60
712.61	298.47
712.95	297.44
713.28	296.36
713.61	295.24
713.95	294.13
714.28	293.12
714.61	292.10
714.95	291.12
715.28	290.11
715.61	289.11
715.95	288.22
716.28	287.31
716.61	286.45
716.95	285.55
717.28	284.60
717.61	283.66
717.94	282.77
718.28	281.70
718.61	280.87
718.94	279.94
719.27	279.14
719.61	278.33
719.94	277.48
720.27	276.60
720.60	275.77
720.94	274.98
721.27	274.23
721.60	273.58
721.93	272.86
722.27	272.26
722.60	271.59
722.93	270.89
723.26	270.26
723.59	269.57
723.93	268.93
724.26	268.34
724.59	267.69
724.92	267.13
725.25	266.64
725.59	266.09
725.92	265.58
726.25	265.05
726.58	264.47
726.91	263.87
727.24	263.36
727.57	262.81
727.91	262.22
728.24	261.72
728.57	261.12
728.90	260.59
729.23	260.00
729.56	259.59
729.89	259.11
730.22	258.56
730.55	258.02
730.89	257.49
731.22	256.98
731.55	256.49
731.88	255.98
732.21	255.48
732.54	254.95
732.87	254.45
733.20	253.95
733.53	253.50
733.86	253.13
734.19	252.65
734.52	252.23
734.85	251.97
735.18	251.45
735.51	251.08
735.84	250.66
736.17	250.27
736.50	249.72
736.83	249.54
737.16	249.17
737.49	248.79
737.82	248.43
738.15	248.09
738.48	247.70
738.81	247.30
739.14	246.87
739.47	246.50
739.80	246.14
740.13	245.84
740.46	245.47
740.79	245.05
741.12	244.71
741.45	244.34
741.78	243.90
742.11	243.68
742.44	243.31
742.77	243.00
743.10	242.69
743.43	242.35
743.75	241.78
744.08	241.71
744.41	241.35
744.74	240.99
745.07	240.62
745.40	240.34
745.73	240.10
746.06	239.81
746.39	239.55
746.71	239.22
747.04	238.84
747.37	238.52
747.70	238.22
748.03	237.94
748.36	237.67
748.68	237.34
749.01	237.00
749.34	236.72
749.67	236.43
750.00	236.14
750.33	236.05
750.65	235.84
750.98	235.29
751.31	235.12
751.64	234.89
751.97	234.75
752.29	234.48
752.62	234.14
752.95	233.89
753.28	233.61
753.60	233.37
753.93	233.21
754.26	232.97
754.59	232.72
754.91	232.47
755.24	232.24
755.57	232.01
755.90	231.79
756.22	231.57
756.55	231.32
756.88	231.10
757.20	230.77
757.53	230.54
757.86	230.36
758.19	230.15
758.51	229.98
758.84	229.72
759.17	229.54
759.49	229.36
759.82	229.30
760.15	229.14
760.47	228.96
760.80	228.71
761.13	228.60
761.45	228.43
761.78	228.25
762.11	228.09
762.43	227.93
762.76	227.75
763.08	227.62
763.41	227.47
763.74	227.34
764.06	227.16
764.39	226.98
764.71	226.84
765.04	226.69
765.37	226.51
765.69	226.35
766.02	226.19
766.34	226.08
766.67	225.84
767.00	225.77
767.32	225.74
767.65	225.75
767.97	225.57
768.30	225.47
768.62	225.33
768.95	225.18
769.27	225.07
769.60	224.99
769.92	224.84
770.25	224.71
770.57	224.53
770.90	224.41
771.22	224.28
771.55	224.15
771.87	224.05
772.20	223.92
772.52	223.98
772.85	224.11
773.17	224.01
773.50	223.91
773.82	223.76
774.15	223.58
774.47	223.35
774.80	223.26
775.12	223.16
775.45	223.08
775.77	223.02
776.09	222.93
776.42	222.84
776.74	222.78
777.07	222.69
777.39	222.63
777.72	222.54
778.04	222.51
778.36	222.41
778.69	222.31
779.01	222.26
779.33	222.03
779.66	221.73
779.98	221.62
780.31	221.55
780.63	221.56
780.95	221.50
781.28	221.45
781.60	221.37
781.92	221.29
782.25	221.22
782.57	221.16
782.89	221.08
783.22	221.00
783.54	220.90
783.86	220.86
784.19	220.80
784.51	220.80
784.83	220.66
785.16	220.60
785.48	220.56
785.80	220.51
786.12	220.44
786.45	220.41
786.77	220.39
787.09	220.30
787.42	220.19
787.74	220.12
788.06	220.07
788.38	220.01
788.71	219.95
789.03	219.97
789.35	219.92
789.67	219.86
789.99	219.80
790.32	219.73
790.64	219.71
790.96	219.83
791.28	219.72
791.61	219.69
791.93	219.66
792.25	219.63
792.57	219.70
792.89	219.64
793.21	219.58
793.54	219.52
793.86	219.45
794.18	219.39
794.50	219.37
794.82	219.31
795.14	219.30
795.47	219.34
795.79	219.24
796.11	219.15
796.43	219.08
796.75	219.07
797.07	219.05
797.39	219.00
797.71	218.78
798.04	218.76
798.36	218.76
798.68	218.72
799.00	218.68
799.32	218.58
799.64	218.60
799.96	218.57
800.28	218.55
800.60	218.54
800.92	218.51
801.24	218.42
801.56	218.41
801.89	218.33
802.21	218.26
802.53	218.18
802.85	218.20
803.17	218.29
803.49	218.23
803.81	218.20
804.13	218.15
804.45	218.12
804.77	218.10
805.09	218.04
805.41	217.99
805.73	217.91
806.05	217.85
806.37	217.79
806.69	217.75
807.01	217.72
807.33	217.70
807.65	217.65
807.97	217.72
808.28	217.71
808.60	217.68
808.92	217.64
809.24	217.78
809.56	217.74
809.88	217.63
810.20	217.60
810.52	217.59
810.84	217.55
811.16	217.49
811.48	217.46
811.80	217.51
812.12	217.51
812.43	217.53
812.75	217.49
813.07	217.43
813.39	217.43
813.71	217.36
814.03	217.29
814.35	217.27
814.67	217.16
814.98	217.12
815.30	217.11
815.62	217.07
815.94	216.90
816.26	216.92
816.58	216.89
816.89	216.87
817.21	216.79
817.53	216.77
817.85	216.79
818.17	216.74
818.48	216.64
818.80	216.64
819.12	216.62
819.44	216.58
819.76	216.55
820.07	216.51
820.39	216.48
820.71	216.51
821.03	216.50
821.34	216.45
821.66	216.45
821.98	216.45
822.30	216.44
822.61	216.57
822.93	216.51
823.25	216.48
823.57	216.45
823.88	216.53
824.20	216.53
824.52	216.55
824.83	216.54
825.15	216.51
825.47	216.49
825.79	216.44
826.10	216.41
826.42	216.39
826.74	216.40
827.05	216.40
827.37	216.39
827.69	216.34
828.00	216.35
828.32	216.35
828.64	216.28
828.95	216.34
829.27	216.27
829.58	216.26
829.90	216.29
830.22	216.27
830.53	216.16
830.85	216.13
831.17	216.06
831.48	216.09
831.80	216.13
832.11	216.11
832.43	216.05
832.75	216.06
833.06	216.17
833.38	216.07
833.69	216.03
834.01	216.05
834.32	216.06
834.64	216.06
834.96	216.03
835.27	216.05
835.59	215.98
835.90	215.92
836.22	215.89
836.53	215.85
836.85	215.86
837.16	216.08
837.48	216.09
837.79	216.15
838.11	216.15
838.42	216.13
838.74	216.14
839.05	216.18
839.37	216.15
839.68	216.02
840.00	216.04
840.31	216.10
840.63	216.08
840.94	216.03
841.26	215.98
841.57	215.98
841.88	216.01
842.20	215.96
842.51	215.92
842.83	215.88
843.14	216.03
843.46	216.03
843.77	215.85
844.08	215.81
844.40	215.72
844.71	215.65
845.03	215.60
845.34	215.59
845.65	215.56
845.97	215.57
846.28	215.57
846.60	215.61
846.91	215.58
847.22	215.54
847.54	215.58
847.85	215.57
848.16	215.54
848.48	215.49
848.79	215.57
849.10	215.61
849.42	215.65
849.73	215.49
850.04	215.46
850.36	215.42
850.67	215.45
850.98	215.47
851.30	215.52
851.61	215.54
851.92	215.52
852.23	215.58
852.55	215.57
852.86	215.61
853.17	215.58
853.49	215.63
853.80	215.70
854.11	215.73
854.42	215.79
854.74	215.76
855.05	215.78
855.36	215.70
855.67	215.72
855.99	215.74
856.30	215.99
856.61	215.98
856.92	215.97
857.23	215.97
857.55	215.96
857.86	215.91
858.17	215.93
858.48	215.88
858.79	215.82
859.11	215.88
859.42	215.85
859.73	215.85
860.04	215.80
860.35	215.70
860.66	215.63
860.98	215.62
861.29	215.63
861.60	215.61
861.91	215.62
862.22	215.56
862.53	215.51
862.84	215.25
863.16	215.31
863.47	215.27
863.78	215.23
864.09	215.24
864.40	215.25
864.71	215.22
865.02	215.27
865.33	215.24
865.64	215.18
865.95	215.16
866.27	215.28
866.58	215.26
866.89	215.29
867.20	215.29
867.51	215.24
867.82	215.23
868.13	215.27
868.44	215.25
868.75	215.32
869.06	215.32
869.37	215.31
869.68	215.25
869.99	215.33
870.30	215.36
870.61	215.36
870.92	215.35
871.23	215.36
871.54	215.38
871.85	215.43
872.16	215.48
872.47	215.45
872.78	215.33
873.09	215.36
873.40	215.35
873.71	215.35
874.02	215.37
874.33	215.36
874.64	215.33
874.95	215.34
875.26	215.28
875.56	215.29
875.87	215.28
876.18	215.27
876.49	215.44
876.80	215.39
877.11	215.39
877.42	215.42
877.73	215.41
878.04	215.40
878.35	215.38
878.66	215.35
878.96	215.37
879.27	215.37
879.58	215.33
879.89	215.33
880.20	215.38
880.51	215.39
880.82	215.38
881.12	215.39
881.43	215.33
881.74	215.32
882.05	215.30
882.36	215.30
882.67	215.33
882.97	215.12
883.28	215.14
883.59	215.12
883.90	215.11
884.21	215.15
884.51	215.11
884.82	215.07
885.13	215.06
885.44	215.04
885.74	215.04
886.05	215.03
886.36	215.03
886.67	214.97
886.98	215.06
887.28	215.07
887.59	215.06
887.90	215.11
888.20	215.10
888.51	215.12
888.82	215.10
889.13	215.09
889.43	215.25
889.74	215.23
890.05	215.19
890.35	215.17
890.66	215.13
890.97	215.13
891.28	215.13
891.58	215.09
891.89	215.11
892.20	215.08
892.50	215.07
892.81	215.03
893.12	215.02
893.42	214.93
893.73	214.94
894.04	214.95
894.34	214.95
894.65	214.93
894.95	214.91
895.26	214.94
895.57	215.03
895.87	214.86
896.18	214.91
896.48	214.91
896.79	214.92
897.10	214.93
897.40	214.94
897.71	214.94
898.01	214.96
898.32	214.99
898.63	214.98
898.93	215.03
899.24	215.07
899.54	215.07
899.85	215.05
900.15	215.04
900.46	215.01
900.76	215.03
901.07	215.05
901.38	215.07
901.68	215.05
901.99	214.95
902.29	214.94
902.60	214.88
902.90	214.91
903.21	214.90
903.51	214.88
903.82	214.90
904.12	214.92
904.43	214.92
904.73	214.90
905.03	214.92
905.34	215.06
905.64	215.04
905.95	215.05
906.25	215.04
906.56	215.04
906.86	215.04
907.17	215.00
907.47	215.01
907.77	214.98
908.08	214.95
908.38	214.97
908.69	215.01
908.99	215.05
909.30	215.04
909.60	215.02
909.90	215.04
910.21	215.01
910.51	214.98
910.81	214.97
911.12	214.96
911.42	214.99
911.73	214.80
912.03	214.81
912.33	214.81
912.64	214.81
912.94	214.78
913.24	214.75
913.55	214.74
913.85	214.70
914.15	214.74
914.46	214.80
914.76	214.78
915.06	214.77
915.37	214.73
915.67	214.71
915.97	214.72
916.27	214.68
916.58	214.71
916.88	214.69
917.18	214.71
917.49	214.84
917.79	214.83
918.09	214.84
918.39	214.89
918.70	214.89
919.00	214.91
919.30	215.01
919.60	214.99
919.91	214.96
920.21	215.00
920.51	214.95
920.81	214.94
921.12	214.99
921.42	214.95
921.72	215.02
922.02	215.04
922.32	215.05
922.63	215.05
922.93	215.12
923.23	215.19
923.53	215.13
923.83	215.01
924.13	215.01
924.44	215.00
924.74	215.05
925.04	215.08
925.34	215.07
925.64	215.00
925.94	215.05
926.24	215.18
926.55	215.14
926.85	215.18
927.15	215.16
927.45	215.14
927.75	215.14
928.05	215.12
928.35	215.09
928.65	215.16
928.95	215.18
929.26	215.11
929.56	215.15
929.86	215.21
930.16	215.17
930.46	215.18
930.76	215.21
931.06	215.10
931.36	215.05
931.66	215.10
931.96	215.10
932.26	215.06
932.56	214.93
932.86	214.96
933.16	214.95
933.46	214.95
933.76	214.92
934.06	214.99
934.36	215.05
934.66	215.04
934.96	214.98
935.26	214.99
935.56	215.00
935.86	214.92
936.16	214.88
936.46	214.87
936.76	214.83
937.06	214.78
937.36	214.76
937.66	214.78
937.96	214.78
938.26	214.74
938.56	214.75
938.86	214.79
939.16	214.85
939.46	214.86
939.76	214.87
940.06	214.85
940.35	214.80
940.65	214.69
940.95	214.71
941.25	214.66
941.55	214.62
941.85	214.61
942.15	214.67
942.45	214.72
942.75	214.76
943.04	214.76
943.34	214.83
943.64	214.86
943.94	214.83
944.24	214.82
944.54	214.83
944.84	214.80
945.13	214.77
945.43	214.70
945.73	214.71
946.03	214.69
946.33	214.68
946.62	214.69
946.92	214.72
947.22	214.73
947.52	214.78
947.82	214.81
948.11	214.78
948.41	214.76
948.71	214.68
949.01	214.67
949.31	214.67
949.60	214.65
949.90	214.68
950.20	214.67
950.50	214.66
950.79	214.67
951.09	214.72
951.39	214.72
951.69	214.74
951.98	214.77
952.28	214.78
952.58	214.81
952.87	214.81
953.17	214.81
953.47	214.77
953.76	214.76
954.06	214.75
954.36	214.72
954.66	214.70
954.95	214.80
955.25	214.84
955.55	214.86
955.84	214.82
956.14	214.85
956.44	214.88
956.73	214.86
957.03	214.85
957.32	214.85
957.62	214.87
957.92	214.91
958.21	214.88
958.51	215.10
958.81	215.12
959.10	215.11
959.40	215.18
959.69	215.22
959.99	215.23
960.29	215.23
960.58	215.22
960.88	215.28
961.17	215.26
961.47	215.27
961.76	215.22
962.06	215.27
962.36	215.20
962.65	215.19
962.95	215.21
963.24	215.25
963.54	215.26
963.83	215.25
964.13	215.24
964.42	215.20
964.72	215.04
965.01	215.03
965.31	215.04
965.60	214.95
965.90	215.06
966.19	215.02
966.49	215.01
966.78	215.01
967.08	215.00
967.37	214.97
967.67	214.89
967.96	214.92
968.26	214.90
968.55	214.91
968.85	214.91
969.14	214.88
969.43	214.82
969.73	214.76
970.02	214.75
970.32	214.71
970.61	214.67
970.91	214.59
971.20	214.55
971.49	214.53
971.79	214.57
972.08	214.45
972.38	214.44
972.67	214.44
972.96	214.47
973.26	214.44
973.55	214.50
973.85	214.51
974.14	214.51
974.43	214.53
974.73	214.51
975.02	214.49
975.31	214.49
975.61	214.50
975.90	214.52
976.19	214.51
976.49	214.54
976.78	214.55
977.07	214.56
977.37	214.57
977.66	214.60
977.95	214.55
978.24	214.52
978.54	214.58
978.83	214.58
979.12	214.56
979.42	214.55
979.71	214.48
980.00	214.47
980.29	214.48
980.59	214.42
980.88	214.47
981.17	214.43
981.46	214.43
981.76	214.44
982.05	214.52
982.34	214.53
982.63	214.49
982.93	214.49
983.22	214.52
983.51	214.52
983.80	214.53
984.09	214.59
984.39	214.59
984.68	214.57
984.97	214.56
985.26	214.54
985.55	214.55
985.85	214.52
986.14	214.58
986.43	214.59
986.72	214.59
987.01	214.53
987.30	214.54
987.59	214.53
987.89	214.54
988.18	214.49
988.47	214.48
988.76	214.49
989.05	214.47
989.34	214.45
989.63	214.52
989.92	214.47
990.22	214.41
990.51	214.42
990.80	214.41
991.09	214.43
991.38	214.45
991.67	214.44
991.96	214.48
992.25	214.46
992.54	214.45
992.83	214.44
993.12	214.45
993.41	214.50
993.70	214.59
993.99	214.59
994.28	214.61
994.58	214.67
994.87	214.65
995.16	214.64
995.45	214.63
995.74	214.58
996.03	214.63
996.32	214.70
996.61	214.72
996.90	214.69
997.19	214.70
997.48	214.69
997.77	214.69
998.06	214.68
998.34	214.66
998.63	214.67
998.92	214.72
999.21	214.73
999.50	214.73
999.79	214.66
1000.08	214.68
1000.37	214.64
1000.66	214.63
1000.95	214.69
1001.24	214.69
1001.53	214.74
1001.82	214.71
1002.11	214.64
1002.40	214.64
1002.68	214.67
1002.97	214.85
1003.26	214.81
1003.55	214.79
1003.84	214.82
1004.13	214.88
1004.42	214.89
1004.71	214.87
1004.99	214.84
1005.28	214.88
1005.57	214.88
1005.86	214.87
1006.15	214.84
1006.44	214.81
1006.72	214.80
1007.01	214.79
1007.30	214.82
1007.59	214.79
1007.88	214.82
1008.17	214.86
1008.45	214.79
1008.74	214.73
1009.03	214.63
1009.32	214.64
1009.60	214.62
1009.89	214.55
1010.18	214.47
1010.47	214.45
1010.76	214.46
1011.04	214.45
1011.33	214.48
1011.62	214.47
1011.91	214.48
1012.19	214.54
1012.48	214.54
1012.77	214.55
1013.05	214.61
1013.34	214.62
1013.63	214.57
1013.92	214.58
1014.20	214.57
1014.49	214.58
1014.78	214.59
1015.06	214.51
1015.35	214.47
1015.64	214.53
1015.92	214.62
1016.21	214.64
1016.50	214.65
1016.78	214.69
1017.07	214.70
1017.36	214.67
1017.64	214.66
1017.93	214.66
1018.22	214.63
1018.50	214.63
1018.79	214.60
1019.08	214.52
1019.36	214.50
1019.65	214.53
1019.93	214.57
1020.22	214.61
1020.51	214.73
1020.79	214.72
1021.08	214.48
1021.36	214.20
1021.65	214.44
1021.94	214.67
1022.22	214.17
1022.51	214.53
1022.79	215.45
1023.08	215.44
1023.36	217.09
1023.65	214.11
>>>>>End Processed Spectral Data<<<<<
