SpectraSuite Data File
++++++++++++++++++++++++++++++++++++
Date: Tue Jan 29 16:39:50 EST 2013
User: group
Dark Spectrum Present: No
Reference Spectrum Present: No
Number of Sampled Component Spectra: 1
Spectrometers: USB2E7196
Integration Time (usec): 65000 (USB2E7196)
Spectra Averaged: 100 (USB2E7196)
Boxcar Smoothing: 10 (USB2E7196)
Correct for Electrical Dark: No (USB2E7196)
Strobe/Lamp Enabled: No (USB2E7196)
Correct for Detector Non-linearity: No (USB2E7196)
Correct for Stray Light: No (USB2E7196)
Number of Pixels in Processed Spectrum: 2048
>>>>>Begin Processed Spectral Data<<<<<
339.09	0.00
339.48	201.46
339.86	202.66
340.24	205.06
340.63	206.26
341.01	210.15
341.39	208.79
341.78	209.96
342.16	211.33
342.54	211.45
342.93	200.89
343.31	211.04
343.69	211.57
344.07	212.04
344.46	212.49
344.84	212.88
345.22	213.09
345.60	213.35
345.99	213.56
346.37	213.72
346.75	213.88
347.13	214.03
347.52	214.12
347.90	214.24
348.28	214.28
348.66	214.34
349.05	214.30
349.43	214.36
349.81	214.44
350.19	214.48
350.57	214.55
350.96	214.66
351.34	214.78
351.72	214.91
352.10	215.06
352.48	215.13
352.87	215.16
353.25	215.20
353.63	215.26
354.01	215.30
354.39	215.39
354.77	215.42
355.15	215.54
355.54	215.56
355.92	215.56
356.30	215.64
356.68	215.85
357.06	215.97
357.44	216.03
357.82	216.10
358.20	216.19
358.58	216.26
358.97	216.30
359.35	216.42
359.73	216.54
360.11	216.57
360.49	216.65
360.87	216.71
361.25	216.81
361.63	216.95
362.01	217.03
362.39	217.05
362.77	217.12
363.15	217.12
363.53	217.19
363.91	217.25
364.29	217.27
364.67	217.11
365.05	217.14
365.43	217.17
365.81	217.24
366.19	217.36
366.57	217.43
366.95	217.48
367.33	217.41
367.71	217.38
368.09	217.44
368.47	217.41
368.85	217.42
369.23	217.46
369.61	217.40
369.99	217.45
370.37	217.46
370.75	217.55
371.13	217.51
371.51	217.46
371.89	217.47
372.27	217.45
372.65	217.46
373.03	217.39
373.41	217.34
373.78	217.26
374.16	217.09
374.54	216.99
374.92	216.92
375.30	216.91
375.68	216.85
376.06	216.81
376.44	216.76
376.82	216.72
377.19	216.64
377.57	216.57
377.95	216.49
378.33	216.41
378.71	216.22
379.09	216.20
379.47	216.21
379.84	216.14
380.22	216.08
380.60	215.99
380.98	215.97
381.36	215.94
381.73	215.87
382.11	215.87
382.49	215.85
382.87	215.78
383.25	215.74
383.62	215.95
384.00	215.85
384.38	215.80
384.76	215.81
385.13	215.89
385.51	215.83
385.89	215.76
386.27	215.75
386.64	215.77
387.02	215.70
387.40	215.63
387.78	215.61
388.15	215.59
388.53	215.56
388.91	215.52
389.29	215.50
389.66	215.49
390.04	215.45
390.42	215.49
390.79	215.47
391.17	215.42
391.55	215.18
391.92	215.18
392.30	215.21
392.68	215.15
393.05	215.07
393.43	215.08
393.81	215.09
394.18	215.05
394.56	215.07
394.94	215.11
395.31	215.08
395.69	215.12
396.06	215.13
396.44	215.19
396.82	215.21
397.19	215.33
397.57	215.33
397.95	215.40
398.32	215.31
398.70	215.35
399.07	215.44
399.45	215.47
399.82	215.52
400.20	215.53
400.58	215.61
400.95	215.61
401.33	215.69
401.70	215.94
402.08	216.02
402.45	216.07
402.83	216.20
403.20	216.35
403.58	216.40
403.95	216.56
404.33	216.70
404.71	216.84
405.08	217.09
405.46	217.27
405.83	217.48
406.21	217.71
406.58	217.99
406.96	218.22
407.33	218.50
407.70	218.81
408.08	219.30
408.45	219.65
408.83	220.04
409.20	220.41
409.58	220.65
409.95	221.14
410.33	221.64
410.70	222.07
411.08	222.62
411.45	223.23
411.82	223.80
412.20	224.50
412.57	225.33
412.95	225.88
413.32	226.74
413.69	227.53
414.07	228.44
414.44	229.42
414.82	230.40
415.19	231.59
415.56	232.81
415.94	233.97
416.31	235.35
416.68	236.79
417.06	238.42
417.43	239.99
417.81	241.74
418.18	243.56
418.55	245.56
418.93	247.56
419.30	249.67
419.67	251.93
420.04	254.18
420.42	256.59
420.79	259.43
421.16	262.20
421.54	265.14
421.91	268.15
422.28	271.24
422.66	274.56
423.03	277.80
423.40	281.19
423.77	284.82
424.15	288.50
424.52	292.32
424.89	296.50
425.26	300.57
425.64	304.44
426.01	308.72
426.38	313.18
426.75	317.79
427.13	322.58
427.50	327.57
427.87	332.79
428.24	338.01
428.61	343.02
428.99	348.57
429.36	354.57
429.73	360.50
430.10	366.38
430.47	372.48
430.85	378.82
431.22	385.47
431.59	392.59
431.96	399.41
432.33	406.91
432.70	414.19
433.08	422.75
433.45	430.86
433.82	438.82
434.19	447.69
434.56	456.41
434.93	464.69
435.30	472.96
435.68	482.13
436.05	491.12
436.42	500.03
436.79	508.21
437.16	517.05
437.53	526.35
437.90	535.52
438.27	544.50
438.64	553.68
439.01	562.32
439.38	569.89
439.75	577.29
440.13	585.78
440.50	593.75
440.87	600.20
441.24	606.89
441.61	614.32
441.98	619.78
442.35	626.09
442.72	632.50
443.09	638.57
443.46	642.33
443.83	644.86
444.20	647.09
444.57	650.25
444.94	651.71
445.31	653.15
445.68	654.60
446.05	655.25
446.42	654.53
446.79	653.56
447.16	652.50
447.53	651.75
447.90	648.42
448.27	645.14
448.64	640.53
449.01	637.17
449.37	631.30
449.74	625.66
450.11	618.77
450.48	611.31
450.85	603.85
451.22	597.37
451.59	591.25
451.96	585.39
452.33	577.53
452.70	570.39
453.07	561.89
453.43	553.25
453.80	544.91
454.17	536.89
454.54	529.25
454.91	521.10
455.28	513.06
455.65	505.64
456.02	498.06
456.38	491.62
456.75	483.71
457.12	477.08
457.49	470.49
457.86	464.32
458.23	458.94
458.59	452.97
458.96	446.94
459.33	441.56
459.70	436.15
460.07	431.85
460.43	426.94
460.80	422.36
461.17	418.32
461.54	414.14
461.91	410.08
462.27	405.99
462.64	402.50
463.01	398.66
463.38	394.96
463.74	391.33
464.11	388.10
464.48	385.28
464.85	382.18
465.21	379.70
465.58	377.02
465.95	373.88
466.32	371.30
466.68	368.70
467.05	366.12
467.42	363.57
467.78	360.86
468.15	358.29
468.52	356.32
468.88	353.82
469.25	351.56
469.62	349.78
469.98	347.76
470.35	345.99
470.72	344.27
471.08	342.43
471.45	340.86
471.82	339.30
472.18	337.56
472.55	336.34
472.92	334.93
473.28	333.70
473.65	332.54
474.02	331.40
474.38	330.50
474.75	329.75
475.11	328.96
475.48	328.39
475.85	327.91
476.21	327.47
476.58	327.10
476.94	326.86
477.31	326.50
477.67	326.29
478.04	326.13
478.41	326.09
478.77	326.28
479.14	326.22
479.50	326.34
479.87	326.68
480.23	326.97
480.60	327.25
480.96	327.55
481.33	328.15
481.69	328.72
482.06	329.24
482.42	329.68
482.79	330.24
483.15	331.04
483.52	332.02
483.88	332.90
484.25	333.88
484.61	334.88
484.98	335.91
485.34	337.19
485.71	338.56
486.07	340.02
486.44	341.32
486.80	342.94
487.17	344.66
487.53	346.46
487.90	348.31
488.26	350.31
488.62	352.46
488.99	354.50
489.35	356.67
489.72	359.02
490.08	361.57
490.44	364.13
490.81	366.83
491.17	369.51
491.54	372.45
491.90	375.45
492.26	378.72
492.63	382.23
492.99	385.75
493.36	389.41
493.72	393.28
494.08	397.34
494.45	401.59
494.81	405.93
495.17	410.44
495.54	415.17
495.90	420.01
496.26	424.94
496.63	430.15
496.99	435.55
497.35	441.12
497.72	446.95
498.08	452.90
498.44	459.01
498.80	465.47
499.17	471.97
499.53	478.69
499.89	485.61
500.26	492.51
500.62	499.57
500.98	506.92
501.34	514.45
501.71	522.17
502.07	529.98
502.43	538.00
502.79	546.14
503.16	554.53
503.52	563.13
503.88	571.90
504.24	580.82
504.60	589.89
504.97	599.20
505.33	608.55
505.69	618.44
506.05	628.34
506.41	638.22
506.78	648.36
507.14	658.61
507.50	669.06
507.86	679.80
508.22	690.63
508.59	701.38
508.95	712.42
509.31	723.65
509.67	735.15
510.03	746.65
510.39	758.32
510.75	770.22
511.12	782.20
511.48	794.31
511.84	806.65
512.20	819.04
512.56	831.66
512.92	844.49
513.28	857.21
513.64	869.99
514.00	882.82
514.37	895.76
514.73	908.86
515.09	921.90
515.45	934.76
515.81	947.93
516.17	961.45
516.53	974.80
516.89	987.98
517.25	1001.25
517.61	1014.78
517.97	1028.30
518.33	1041.52
518.69	1055.13
519.05	1068.84
519.41	1082.56
519.77	1096.40
520.13	1109.81
520.49	1123.06
520.85	1136.57
521.21	1149.89
521.57	1163.62
521.93	1176.78
522.29	1190.62
522.65	1204.35
523.01	1218.17
523.37	1231.42
523.73	1244.75
524.09	1257.94
524.45	1271.53
524.81	1285.14
525.17	1298.58
525.53	1311.80
525.89	1325.21
526.25	1338.55
526.61	1351.61
526.97	1364.82
527.33	1377.94
527.68	1391.45
528.04	1404.96
528.40	1418.19
528.76	1431.72
529.12	1444.82
529.48	1458.29
529.84	1470.72
530.20	1483.53
530.56	1496.17
530.91	1509.42
531.27	1522.39
531.63	1535.26
531.99	1548.04
532.35	1560.22
532.71	1572.73
533.07	1585.74
533.42	1598.17
533.78	1610.24
534.14	1622.36
534.50	1633.74
534.86	1645.46
535.21	1656.52
535.57	1668.19
535.93	1679.46
536.29	1690.63
536.65	1702.16
537.00	1713.30
537.36	1724.89
537.72	1735.98
538.08	1747.58
538.44	1758.63
538.79	1769.76
539.15	1780.89
539.51	1791.89
539.87	1803.44
540.22	1814.38
540.58	1825.52
540.94	1836.43
541.29	1846.90
541.65	1856.86
542.01	1867.43
542.37	1877.56
542.72	1887.77
543.08	1897.48
543.44	1908.02
543.79	1917.45
544.15	1926.89
544.51	1936.94
544.87	1946.86
545.22	1956.29
545.58	1965.22
545.94	1974.30
546.29	1982.95
546.65	1991.43
547.01	1999.75
547.36	2007.54
547.72	2015.37
548.07	2023.04
548.43	2030.84
548.79	2038.76
549.14	2046.88
549.50	2055.44
549.86	2063.52
550.21	2071.04
550.57	2078.87
550.92	2085.83
551.28	2093.49
551.64	2100.93
551.99	2108.44
552.35	2115.67
552.70	2122.68
553.06	2129.32
553.41	2135.65
553.77	2142.26
554.13	2148.51
554.48	2155.48
554.84	2162.52
555.19	2169.11
555.55	2175.60
555.90	2181.82
556.26	2188.62
556.61	2194.78
556.97	2199.69
557.32	2205.39
557.68	2211.82
558.03	2217.65
558.39	2223.01
558.74	2228.84
559.10	2234.37
559.45	2239.99
559.81	2245.57
560.16	2251.12
560.52	2257.13
560.87	2263.52
561.23	2269.49
561.58	2276.12
561.94	2281.37
562.29	2286.08
562.64	2292.12
563.00	2297.65
563.35	2303.43
563.71	2309.16
564.06	2314.72
564.42	2320.54
564.77	2325.58
565.12	2330.82
565.48	2335.86
565.83	2341.38
566.19	2346.79
566.54	2352.14
566.89	2356.56
567.25	2361.05
567.60	2366.47
567.96	2371.47
568.31	2376.09
568.66	2380.15
569.02	2384.13
569.37	2387.82
569.72	2392.27
570.08	2395.71
570.43	2398.81
570.78	2401.81
571.14	2404.32
571.49	2407.43
571.84	2410.87
572.20	2413.71
572.55	2416.65
572.90	2419.05
573.26	2421.67
573.61	2424.16
573.96	2426.25
574.31	2428.32
574.67	2430.07
575.02	2430.89
575.37	2432.19
575.72	2432.75
576.08	2434.08
576.43	2434.11
576.78	2434.49
577.13	2435.88
577.49	2437.01
577.84	2438.03
578.19	2439.07
578.54	2439.52
578.90	2440.15
579.25	2440.00
579.60	2439.74
579.95	2438.85
580.30	2438.86
580.66	2437.96
581.01	2436.13
581.36	2433.65
581.71	2432.10
582.06	2430.83
582.42	2429.74
582.77	2427.45
583.12	2425.75
583.47	2424.34
583.82	2423.69
584.17	2422.29
584.53	2420.13
584.88	2417.88
585.23	2415.81
585.58	2413.50
585.93	2411.35
586.28	2409.10
586.63	2406.43
586.98	2404.31
587.34	2402.36
587.69	2399.62
588.04	2397.55
588.39	2396.06
588.74	2393.51
589.09	2390.69
589.44	2387.48
589.79	2384.90
590.14	2382.85
590.49	2379.81
590.84	2375.87
591.19	2372.48
591.54	2369.31
591.89	2365.04
592.25	2361.71
592.60	2357.47
592.95	2353.35
593.30	2349.03
593.65	2344.56
594.00	2340.20
594.35	2336.89
594.70	2331.94
595.05	2327.40
595.40	2321.78
595.75	2315.85
596.10	2312.09
596.45	2307.06
596.80	2302.31
597.15	2297.05
597.50	2291.05
597.85	2286.14
598.19	2280.82
598.54	2274.97
598.89	2269.57
599.24	2265.06
599.59	2258.70
599.94	2252.73
600.29	2246.65
600.64	2240.74
600.99	2233.75
601.34	2228.16
601.69	2221.26
602.04	2214.84
602.39	2208.13
602.74	2202.04
603.08	2196.61
603.43	2190.10
603.78	2183.19
604.13	2176.29
604.48	2169.00
604.83	2162.84
605.18	2156.53
605.53	2149.59
605.87	2142.54
606.22	2135.60
606.57	2127.54
606.92	2119.56
607.27	2112.46
607.62	2105.80
607.96	2098.79
608.31	2092.41
608.66	2084.63
609.01	2077.02
609.36	2069.89
609.70	2062.14
610.05	2054.36
610.40	2045.89
610.75	2037.49
611.10	2029.79
611.44	2020.69
611.79	2012.00
612.14	2002.02
612.49	1991.36
612.83	1981.99
613.18	1972.77
613.53	1963.56
613.88	1953.93
614.22	1945.37
614.57	1935.62
614.92	1924.95
615.27	1914.56
615.61	1904.40
615.96	1894.65
616.31	1884.96
616.65	1875.47
617.00	1865.70
617.35	1856.02
617.70	1846.33
618.04	1836.27
618.39	1826.26
618.74	1816.64
619.08	1806.89
619.43	1798.28
619.78	1789.98
620.12	1781.47
620.47	1771.86
620.82	1761.46
621.16	1751.75
621.51	1741.93
621.85	1732.05
622.20	1721.70
622.55	1711.18
622.89	1701.28
623.24	1691.70
623.59	1681.96
623.93	1671.94
624.28	1662.24
624.62	1652.30
624.97	1642.04
625.32	1632.22
625.66	1623.28
626.01	1614.54
626.35	1605.33
626.70	1595.15
627.04	1585.04
627.39	1574.83
627.73	1565.67
628.08	1556.76
628.43	1547.20
628.77	1538.06
629.12	1529.26
629.46	1521.53
629.81	1513.27
630.15	1503.70
630.50	1493.88
630.84	1483.34
631.19	1473.37
631.53	1464.12
631.88	1453.92
632.22	1444.00
632.57	1434.69
632.91	1424.57
633.26	1414.76
633.60	1405.19
633.95	1396.04
634.29	1386.59
634.64	1377.27
634.98	1367.17
635.32	1357.89
635.67	1349.47
636.01	1340.13
636.36	1330.38
636.70	1320.90
637.05	1311.51
637.39	1302.65
637.73	1293.99
638.08	1286.49
638.42	1278.49
638.77	1269.65
639.11	1261.37
639.45	1253.53
639.80	1245.08
640.14	1236.34
640.49	1227.49
640.83	1218.65
641.17	1210.57
641.52	1202.53
641.86	1194.04
642.20	1186.20
642.55	1177.61
642.89	1168.74
643.23	1160.04
643.58	1151.95
643.92	1142.88
644.26	1134.26
644.61	1125.77
644.95	1117.02
645.29	1107.82
645.64	1098.56
645.98	1090.07
646.32	1082.12
646.66	1073.59
647.01	1065.25
647.35	1057.20
647.69	1048.91
648.04	1040.59
648.38	1031.58
648.72	1022.77
649.06	1014.38
649.41	1006.25
649.75	998.29
650.09	990.41
650.43	982.41
650.78	974.11
651.12	966.41
651.46	959.03
651.80	951.92
652.14	944.58
652.49	937.10
652.83	929.86
653.17	922.16
653.51	914.61
653.85	907.37
654.20	900.12
654.54	892.60
654.88	885.35
655.22	878.17
655.56	871.13
655.90	864.26
656.25	857.45
656.59	850.53
656.93	843.53
657.27	836.38
657.61	829.40
657.95	823.32
658.29	817.36
658.64	811.13
658.98	804.58
659.32	798.08
659.66	791.71
660.00	785.22
660.34	779.15
660.68	773.05
661.02	766.58
661.36	760.56
661.70	754.72
662.05	748.99
662.39	743.44
662.73	738.06
663.07	732.65
663.41	727.11
663.75	721.34
664.09	715.63
664.43	710.17
664.77	704.80
665.11	698.88
665.45	692.96
665.79	687.19
666.13	681.51
666.47	675.96
666.81	670.57
667.15	665.19
667.49	659.87
667.83	654.57
668.17	649.39
668.51	644.29
668.85	639.29
669.19	634.39
669.53	629.31
669.87	624.17
670.21	619.41
670.55	614.59
670.89	610.14
671.23	605.77
671.57	601.34
671.91	597.07
672.25	592.94
672.58	588.80
672.92	584.70
673.26	580.68
673.60	576.81
673.94	572.96
674.28	569.30
674.62	565.60
674.96	561.80
675.30	558.24
675.64	554.50
675.97	550.91
676.31	547.28
676.65	543.70
676.99	540.22
677.33	536.33
677.67	532.67
678.01	528.75
678.34	525.08
678.68	521.53
679.02	517.87
679.36	514.14
679.70	510.42
680.04	506.82
680.37	503.33
680.71	499.93
681.05	496.74
681.39	493.52
681.73	490.36
682.06	487.24
682.40	484.18
682.74	480.95
683.08	477.70
683.42	474.43
683.75	471.41
684.09	468.38
684.43	465.59
684.77	462.65
685.10	459.83
685.44	456.88
685.78	453.91
686.12	451.03
686.45	448.29
686.79	445.60
687.13	443.05
687.46	440.41
687.80	437.70
688.14	434.79
688.48	432.03
688.81	429.24
689.15	426.66
689.49	423.91
689.82	421.38
690.16	418.80
690.50	416.38
690.83	413.83
691.17	411.26
691.51	408.72
691.84	406.43
692.18	404.18
692.52	401.89
692.85	399.74
693.19	397.61
693.52	395.41
693.86	393.14
694.20	390.91
694.53	388.73
694.87	386.50
695.21	384.31
695.54	382.17
695.88	379.98
696.21	377.72
696.55	375.58
696.88	373.48
697.22	371.47
697.56	369.53
697.89	367.59
698.23	365.77
698.56	363.95
698.90	362.12
699.23	360.20
699.57	358.33
699.90	356.43
700.24	354.53
700.58	352.70
700.91	351.05
701.25	349.43
701.58	347.78
701.92	346.20
702.25	344.61
702.59	342.96
702.92	341.43
703.26	339.89
703.59	338.39
703.93	337.13
704.26	335.68
704.60	334.15
704.93	332.65
705.26	331.17
705.60	329.70
705.93	328.17
706.27	326.78
706.60	325.50
706.94	324.31
707.27	322.99
707.61	321.67
707.94	320.30
708.27	318.78
708.61	317.32
708.94	315.88
709.28	314.59
709.61	313.35
709.94	312.13
710.28	310.89
710.61	309.72
710.95	308.28
711.28	307.17
711.61	305.97
711.95	304.83
712.28	303.58
712.61	302.39
712.95	301.35
713.28	300.30
713.61	299.10
713.95	297.86
714.28	296.79
714.61	295.68
714.95	294.67
715.28	293.62
715.61	292.59
715.95	291.65
716.28	290.67
716.61	289.67
716.95	288.68
717.28	287.75
717.61	286.77
717.94	285.85
718.28	284.83
718.61	283.92
718.94	283.02
719.27	282.16
719.61	281.32
719.94	280.41
720.27	279.44
720.60	278.59
720.94	277.80
721.27	277.01
721.60	276.31
721.93	275.55
722.27	274.94
722.60	274.28
722.93	273.53
723.26	272.83
723.59	272.12
723.93	271.40
724.26	270.73
724.59	270.06
724.92	269.46
725.25	268.86
725.59	268.28
725.92	267.74
726.25	267.17
726.58	266.55
726.91	265.97
727.24	265.39
727.57	264.82
727.91	264.22
728.24	263.65
728.57	263.07
728.90	262.54
729.23	261.84
729.56	261.39
729.89	260.84
730.22	260.25
730.55	259.69
730.89	259.18
731.22	258.60
731.55	258.09
731.88	257.48
732.21	256.94
732.54	256.37
732.87	255.80
733.20	255.33
733.53	254.84
733.86	254.35
734.19	253.82
734.52	253.42
734.85	253.12
735.18	252.68
735.51	252.24
735.84	251.75
736.17	251.40
736.50	250.82
736.83	250.66
737.16	250.27
737.49	249.89
737.82	249.46
738.15	249.10
738.48	248.69
738.81	248.33
739.14	247.94
739.47	247.54
739.80	247.10
740.13	246.71
740.46	246.29
740.79	245.86
741.12	245.52
741.45	245.13
741.78	244.67
742.11	244.36
742.44	243.99
742.77	243.70
743.10	243.34
743.43	243.01
743.75	242.42
744.08	242.32
744.41	241.94
744.74	241.59
745.07	241.23
745.40	240.95
745.73	240.68
746.06	240.31
746.39	240.00
746.71	239.70
747.04	239.35
747.37	239.06
747.70	238.82
748.03	238.51
748.36	238.23
748.68	237.91
749.01	237.57
749.34	237.26
749.67	236.94
750.00	236.61
750.33	236.49
750.65	236.21
750.98	235.68
751.31	235.45
751.64	235.26
751.97	235.07
752.29	234.77
752.62	234.43
752.95	234.22
753.28	233.98
753.60	233.79
753.93	233.58
754.26	233.38
754.59	233.08
754.91	232.85
755.24	232.60
755.57	232.35
755.90	232.08
756.22	231.85
756.55	231.64
756.88	231.42
757.20	231.07
757.53	230.80
757.86	230.63
758.19	230.41
758.51	230.13
758.84	229.83
759.17	229.65
759.49	229.53
759.82	229.42
760.15	229.23
760.47	229.01
760.80	228.77
761.13	228.55
761.45	228.36
761.78	228.16
762.11	227.97
762.43	227.77
762.76	227.60
763.08	227.45
763.41	227.31
763.74	227.13
764.06	226.98
764.39	226.87
764.71	226.70
765.04	226.52
765.37	226.38
765.69	226.26
766.02	226.08
766.34	225.89
766.67	225.66
767.00	225.57
767.32	225.55
767.65	225.56
767.97	225.45
768.30	225.38
768.62	225.29
768.95	225.13
769.27	225.02
769.60	224.94
769.92	224.76
770.25	224.58
770.57	224.43
770.90	224.30
771.22	224.14
771.55	224.05
771.87	223.95
772.20	223.82
772.52	223.87
772.85	224.02
773.17	223.92
773.50	223.82
773.82	223.68
774.15	223.46
774.47	223.23
774.80	223.12
775.12	222.98
775.45	222.85
775.77	222.79
776.09	222.73
776.42	222.67
776.74	222.69
777.07	222.63
777.39	222.57
777.72	222.45
778.04	222.37
778.36	222.25
778.69	222.23
779.01	222.17
779.33	221.92
779.66	221.60
779.98	221.51
780.31	221.42
780.63	221.45
780.95	221.43
781.28	221.39
781.60	221.25
781.92	221.20
782.25	221.11
782.57	221.04
782.89	220.93
783.22	220.82
783.54	220.70
783.86	220.62
784.19	220.52
784.51	220.55
784.83	220.48
785.16	220.42
785.48	220.36
785.80	220.30
786.12	220.27
786.45	220.21
786.77	220.16
787.09	220.10
787.42	219.94
787.74	219.87
788.06	219.80
788.38	219.78
788.71	219.71
789.03	219.70
789.35	219.68
789.67	219.62
789.99	219.56
790.32	219.48
790.64	219.46
790.96	219.61
791.28	219.48
791.61	219.40
791.93	219.37
792.25	219.27
792.57	219.38
792.89	219.23
793.21	219.20
793.54	219.15
793.86	219.09
794.18	219.04
794.50	218.93
794.82	218.88
795.14	218.85
795.47	218.83
795.79	218.80
796.11	218.67
796.43	218.61
796.75	218.60
797.07	218.54
797.39	218.49
797.71	218.28
798.04	218.25
798.36	218.24
798.68	218.20
799.00	218.17
799.32	217.99
799.64	218.05
799.96	218.00
800.28	217.98
800.60	217.98
800.92	217.96
801.24	217.94
801.56	217.90
801.89	217.85
802.21	217.83
802.53	217.74
802.85	217.80
803.17	217.88
803.49	217.80
803.81	217.75
804.13	217.73
804.45	217.70
804.77	217.64
805.09	217.63
805.41	217.58
805.73	217.50
806.05	217.44
806.37	217.38
806.69	217.36
807.01	217.32
807.33	217.27
807.65	217.20
807.97	217.25
808.28	217.22
808.60	217.20
808.92	217.14
809.24	217.26
809.56	217.20
809.88	217.11
810.20	217.09
810.52	217.12
810.84	217.05
811.16	217.02
811.48	217.01
811.80	217.05
812.12	217.00
812.43	217.03
812.75	217.03
813.07	216.99
813.39	216.94
813.71	216.88
814.03	216.83
814.35	216.82
814.67	216.75
814.98	216.72
815.30	216.70
815.62	216.63
815.94	216.46
816.26	216.45
816.58	216.39
816.89	216.37
817.21	216.31
817.53	216.29
817.85	216.29
818.17	216.26
818.48	216.15
818.80	216.19
819.12	216.12
819.44	216.07
819.76	216.05
820.07	216.07
820.39	216.06
820.71	216.07
821.03	216.04
821.34	215.98
821.66	215.98
821.98	215.98
822.30	216.00
822.61	216.13
822.93	216.07
823.25	216.04
823.57	215.99
823.88	216.03
824.20	215.99
824.52	215.98
824.83	215.96
825.15	215.91
825.47	215.88
825.79	215.92
826.10	215.91
826.42	215.87
826.74	215.87
827.05	215.85
827.37	215.82
827.69	215.81
828.00	215.81
828.32	215.79
828.64	215.72
828.95	215.80
829.27	215.68
829.58	215.66
829.90	215.69
830.22	215.73
830.53	215.66
830.85	215.65
831.17	215.59
831.48	215.61
831.80	215.64
832.11	215.59
832.43	215.55
832.75	215.57
833.06	215.67
833.38	215.61
833.69	215.60
834.01	215.60
834.32	215.60
834.64	215.55
834.96	215.54
835.27	215.56
835.59	215.47
835.90	215.42
836.22	215.44
836.53	215.38
836.85	215.34
837.16	215.55
837.48	215.54
837.79	215.59
838.11	215.57
838.42	215.56
838.74	215.57
839.05	215.54
839.37	215.50
839.68	215.35
840.00	215.31
840.31	215.33
840.63	215.30
840.94	215.28
841.26	215.31
841.57	215.30
841.88	215.30
842.20	215.27
842.51	215.28
842.83	215.26
843.14	215.45
843.46	215.46
843.77	215.32
844.08	215.29
844.40	215.22
844.71	215.19
845.03	215.14
845.34	215.17
845.65	215.16
845.97	215.16
846.28	215.17
846.60	215.15
846.91	215.09
847.22	215.07
847.54	215.09
847.85	215.09
848.16	215.06
848.48	215.03
848.79	215.12
849.10	215.12
849.42	215.13
849.73	214.93
850.04	214.90
850.36	214.83
850.67	214.88
850.98	214.88
851.30	214.91
851.61	214.92
851.92	214.86
852.23	214.92
852.55	214.90
852.86	214.89
853.17	214.96
853.49	215.02
853.80	215.05
854.11	215.07
854.42	215.06
854.74	215.05
855.05	215.05
855.36	214.93
855.67	214.93
855.99	214.91
856.30	215.14
856.61	215.13
856.92	215.12
857.23	215.09
857.55	215.10
857.86	215.08
858.17	215.09
858.48	215.09
858.79	215.04
859.11	215.08
859.42	215.08
859.73	215.03
860.04	215.00
860.35	214.96
860.66	214.90
860.98	214.88
861.29	214.90
861.60	214.91
861.91	214.93
862.22	214.88
862.53	214.83
862.84	214.63
863.16	214.68
863.47	214.64
863.78	214.66
864.09	214.64
864.40	214.64
864.71	214.66
865.02	214.65
865.33	214.64
865.64	214.57
865.95	214.59
866.27	214.71
866.58	214.70
866.89	214.72
867.20	214.69
867.51	214.66
867.82	214.62
868.13	214.68
868.44	214.64
868.75	214.68
869.06	214.74
869.37	214.72
869.68	214.66
869.99	214.68
870.30	214.66
870.61	214.69
870.92	214.65
871.23	214.63
871.54	214.67
871.85	214.69
872.16	214.69
872.47	214.67
872.78	214.59
873.09	214.62
873.40	214.56
873.71	214.61
874.02	214.65
874.33	214.64
874.64	214.56
874.95	214.61
875.26	214.58
875.56	214.54
875.87	214.59
876.18	214.57
876.49	214.78
876.80	214.76
877.11	214.72
877.42	214.71
877.73	214.72
878.04	214.66
878.35	214.66
878.66	214.69
878.96	214.68
879.27	214.62
879.58	214.58
879.89	214.59
880.20	214.62
880.51	214.60
880.82	214.60
881.12	214.62
881.43	214.60
881.74	214.59
882.05	214.60
882.36	214.61
882.67	214.66
882.97	214.43
883.28	214.44
883.59	214.44
883.90	214.49
884.21	214.50
884.51	214.51
884.82	214.47
885.13	214.46
885.44	214.48
885.74	214.51
886.05	214.50
886.36	214.48
886.67	214.41
886.98	214.49
887.28	214.50
887.59	214.48
887.90	214.47
888.20	214.46
888.51	214.45
888.82	214.39
889.13	214.39
889.43	214.54
889.74	214.54
890.05	214.56
890.35	214.54
890.66	214.50
890.97	214.49
891.28	214.49
891.58	214.53
891.89	214.49
892.20	214.48
892.50	214.50
892.81	214.53
893.12	214.55
893.42	214.46
893.73	214.47
894.04	214.53
894.34	214.53
894.65	214.52
894.95	214.50
895.26	214.51
895.57	214.57
895.87	214.40
896.18	214.45
896.48	214.47
896.79	214.46
897.10	214.52
897.40	214.55
897.71	214.60
898.01	214.56
898.32	214.60
898.63	214.56
898.93	214.56
899.24	214.55
899.54	214.55
899.85	214.56
900.15	214.56
900.46	214.51
900.76	214.55
901.07	214.57
901.38	214.59
901.68	214.64
901.99	214.54
902.29	214.54
902.60	214.49
902.90	214.43
903.21	214.41
903.51	214.37
903.82	214.38
904.12	214.39
904.43	214.40
904.73	214.39
905.03	214.41
905.34	214.63
905.64	214.61
905.95	214.61
906.25	214.61
906.56	214.61
906.86	214.61
907.17	214.58
907.47	214.58
907.77	214.57
908.08	214.52
908.38	214.54
908.69	214.56
908.99	214.60
909.30	214.61
909.60	214.64
909.90	214.64
910.21	214.58
910.51	214.53
910.81	214.52
911.12	214.50
911.42	214.48
911.73	214.26
912.03	214.29
912.33	214.31
912.64	214.28
912.94	214.26
913.24	214.24
913.55	214.23
913.85	214.21
914.15	214.21
914.46	214.24
914.76	214.20
915.06	214.20
915.37	214.16
915.67	214.14
915.97	214.12
916.27	214.07
916.58	214.09
916.88	214.07
917.18	214.09
917.49	214.25
917.79	214.26
918.09	214.29
918.39	214.30
918.70	214.27
919.00	214.26
919.30	214.36
919.60	214.34
919.91	214.31
920.21	214.35
920.51	214.33
920.81	214.32
921.12	214.34
921.42	214.28
921.72	214.28
922.02	214.32
922.32	214.37
922.63	214.38
922.93	214.49
923.23	214.49
923.53	214.46
923.83	214.30
924.13	214.33
924.44	214.30
924.74	214.35
925.04	214.37
925.34	214.38
925.64	214.29
925.94	214.30
926.24	214.43
926.55	214.37
926.85	214.39
927.15	214.36
927.45	214.40
927.75	214.43
928.05	214.46
928.35	214.44
928.65	214.47
928.95	214.51
929.26	214.42
929.56	214.46
929.86	214.48
930.16	214.48
930.46	214.46
930.76	214.46
931.06	214.38
931.36	214.33
931.66	214.40
931.96	214.41
932.26	214.42
932.56	214.32
932.86	214.37
933.16	214.38
933.46	214.33
933.76	214.29
934.06	214.34
934.36	214.39
934.66	214.38
934.96	214.35
935.26	214.36
935.56	214.38
935.86	214.32
936.16	214.29
936.46	214.27
936.76	214.26
937.06	214.23
937.36	214.25
937.66	214.28
937.96	214.25
938.26	214.19
938.56	214.18
938.86	214.17
939.16	214.19
939.46	214.19
939.76	214.23
940.06	214.24
940.35	214.18
940.65	214.06
940.95	214.06
941.25	214.00
941.55	213.97
941.85	213.97
942.15	214.05
942.45	214.12
942.75	214.12
943.04	214.13
943.34	214.17
943.64	214.16
943.94	214.16
944.24	214.13
944.54	214.14
944.84	214.14
945.13	214.12
945.43	214.08
945.73	214.08
946.03	214.07
946.33	214.03
946.62	214.04
946.92	214.05
947.22	214.06
947.52	214.10
947.82	214.11
948.11	214.09
948.41	214.03
948.71	213.99
949.01	213.99
949.31	213.96
949.60	213.94
949.90	213.96
950.20	213.90
950.50	213.91
950.79	213.94
951.09	213.97
951.39	213.97
951.69	213.96
951.98	214.00
952.28	214.01
952.58	214.01
952.87	214.02
953.17	214.06
953.47	214.06
953.76	214.06
954.06	214.06
954.36	214.01
954.66	213.99
954.95	214.03
955.25	214.05
955.55	214.07
955.84	214.05
956.14	214.09
956.44	214.12
956.73	214.07
957.03	214.06
957.32	214.05
957.62	214.04
957.92	214.10
958.21	214.09
958.51	214.32
958.81	214.35
959.10	214.35
959.40	214.39
959.69	214.41
959.99	214.42
960.29	214.39
960.58	214.43
960.88	214.51
961.17	214.46
961.47	214.47
961.76	214.44
962.06	214.50
962.36	214.48
962.65	214.48
962.95	214.49
963.24	214.46
963.54	214.46
963.83	214.48
964.13	214.44
964.42	214.37
964.72	214.16
965.01	214.16
965.31	214.17
965.60	214.11
965.90	214.23
966.19	214.20
966.49	214.22
966.78	214.18
967.08	214.14
967.37	214.16
967.67	214.12
967.96	214.16
968.26	214.11
968.55	214.12
968.85	214.10
969.14	214.10
969.43	214.14
969.73	214.12
970.02	214.10
970.32	214.10
970.61	214.12
970.91	214.09
971.20	214.06
971.49	214.02
971.79	214.05
972.08	213.87
972.38	213.86
972.67	213.84
972.96	213.88
973.26	213.88
973.55	213.94
973.85	213.96
974.14	213.93
974.43	213.95
974.73	213.94
975.02	213.93
975.31	213.95
975.61	213.95
975.90	213.94
976.19	213.94
976.49	213.94
976.78	213.93
977.07	213.96
977.37	213.99
977.66	214.04
977.95	214.00
978.24	214.04
978.54	214.11
978.83	214.12
979.12	214.10
979.42	214.07
979.71	214.04
980.00	214.01
980.29	214.01
980.59	213.98
980.88	214.00
981.17	214.00
981.46	214.00
981.76	213.96
982.05	214.06
982.34	214.07
982.63	214.08
982.93	214.10
983.22	214.12
983.51	214.14
983.80	214.17
984.09	214.24
984.39	214.20
984.68	214.17
984.97	214.17
985.26	214.19
985.55	214.23
985.85	214.17
986.14	214.24
986.43	214.26
986.72	214.27
987.01	214.19
987.30	214.18
987.59	214.19
987.89	214.19
988.18	214.09
988.47	214.09
988.76	214.06
989.05	214.05
989.34	214.01
989.63	214.08
989.92	214.01
990.22	213.94
990.51	213.95
990.80	213.91
991.09	213.90
991.38	213.88
991.67	213.88
991.96	213.85
992.25	213.83
992.54	213.79
992.83	213.79
993.12	213.81
993.41	213.87
993.70	213.96
993.99	214.02
994.28	214.06
994.58	214.09
994.87	214.06
995.16	214.05
995.45	214.04
995.74	213.95
996.03	214.02
996.32	214.11
996.61	214.14
996.90	214.17
997.19	214.17
997.48	214.20
997.77	214.15
998.06	214.17
998.34	214.17
998.63	214.19
998.92	214.18
999.21	214.20
999.50	214.22
999.79	214.12
1000.08	214.10
1000.37	214.08
1000.66	214.09
1000.95	214.13
1001.24	214.12
1001.53	214.14
1001.82	214.13
1002.11	214.08
1002.40	214.05
1002.68	214.09
1002.97	214.24
1003.26	214.21
1003.55	214.18
1003.84	214.19
1004.13	214.30
1004.42	214.29
1004.71	214.28
1004.99	214.27
1005.28	214.32
1005.57	214.28
1005.86	214.27
1006.15	214.25
1006.44	214.25
1006.72	214.25
1007.01	214.22
1007.30	214.23
1007.59	214.20
1007.88	214.19
1008.17	214.20
1008.45	214.16
1008.74	214.07
1009.03	213.98
1009.32	213.98
1009.60	213.95
1009.89	213.93
1010.18	213.83
1010.47	213.80
1010.76	213.81
1011.04	213.86
1011.33	213.86
1011.62	213.91
1011.91	213.93
1012.19	213.97
1012.48	213.97
1012.77	213.96
1013.05	214.08
1013.34	214.06
1013.63	214.09
1013.92	214.10
1014.20	214.09
1014.49	214.09
1014.78	214.14
1015.06	214.06
1015.35	214.07
1015.64	214.10
1015.92	214.14
1016.21	214.15
1016.50	214.14
1016.78	214.15
1017.07	214.12
1017.36	214.04
1017.64	213.98
1017.93	213.99
1018.22	213.93
1018.50	213.92
1018.79	213.90
1019.08	213.79
1019.36	213.82
1019.65	213.80
1019.93	213.87
1020.22	213.90
1020.51	214.00
1020.79	213.95
1021.08	213.28
1021.36	213.39
1021.65	213.86
1021.94	213.79
1022.22	214.14
1022.51	214.00
1022.79	215.33
1023.08	214.39
1023.36	216.02
1023.65	213.43
>>>>>End Processed Spectral Data<<<<<
