SpectraSuite Data File
++++++++++++++++++++++++++++++++++++
Date: Tue Jan 29 16:15:44 EST 2013
User: group
Dark Spectrum Present: No
Reference Spectrum Present: No
Number of Sampled Component Spectra: 1
Spectrometers: USB2E7196
Integration Time (usec): 65000 (USB2E7196)
Spectra Averaged: 100 (USB2E7196)
Boxcar Smoothing: 10 (USB2E7196)
Correct for Electrical Dark: No (USB2E7196)
Strobe/Lamp Enabled: No (USB2E7196)
Correct for Detector Non-linearity: No (USB2E7196)
Correct for Stray Light: No (USB2E7196)
Number of Pixels in Processed Spectrum: 2048
>>>>>Begin Processed Spectral Data<<<<<
339.09	0.00
339.48	202.19
339.86	203.40
340.24	205.04
340.63	205.81
341.01	210.73
341.39	209.14
341.78	210.00
342.16	211.97
342.54	212.43
342.93	201.42
343.31	211.60
343.69	212.15
344.07	212.66
344.46	213.09
344.84	213.53
345.22	213.73
345.60	214.02
345.99	214.26
346.37	214.41
346.75	214.52
347.13	214.56
347.52	214.61
347.90	214.73
348.28	214.75
348.66	214.86
349.05	214.84
349.43	214.87
349.81	214.94
350.19	215.02
350.57	215.10
350.96	215.23
351.34	215.32
351.72	215.41
352.10	215.49
352.48	215.58
352.87	215.63
353.25	215.68
353.63	215.72
354.01	215.74
354.39	215.86
354.77	215.94
355.15	216.08
355.54	216.17
355.92	216.18
356.30	216.28
356.68	216.45
357.06	216.54
357.44	216.61
357.82	216.68
358.20	216.77
358.58	216.80
358.97	216.90
359.35	217.02
359.73	217.13
360.11	217.21
360.49	217.26
360.87	217.32
361.25	217.42
361.63	217.55
362.01	217.66
362.39	217.67
362.77	217.73
363.15	217.77
363.53	217.77
363.91	217.80
364.29	217.82
364.67	217.65
365.05	217.68
365.43	217.71
365.81	217.78
366.19	217.85
366.57	217.95
366.95	217.91
367.33	217.83
367.71	217.84
368.09	217.87
368.47	217.89
368.85	217.86
369.23	217.86
369.61	217.80
369.99	217.82
370.37	217.81
370.75	217.90
371.13	217.87
371.51	217.84
371.89	217.85
372.27	217.83
372.65	217.85
373.03	217.84
373.41	217.83
373.78	217.78
374.16	217.63
374.54	217.53
374.92	217.47
375.30	217.45
375.68	217.35
376.06	217.28
376.44	217.22
376.82	217.18
377.19	217.13
377.57	217.08
377.95	216.98
378.33	216.94
378.71	216.74
379.09	216.66
379.47	216.66
379.84	216.58
380.22	216.54
380.60	216.46
380.98	216.40
381.36	216.33
381.73	216.25
382.11	216.24
382.49	216.21
382.87	216.14
383.25	216.10
383.62	216.30
384.00	216.25
384.38	216.22
384.76	216.22
385.13	216.26
385.51	216.21
385.89	216.13
386.27	216.06
386.64	216.07
387.02	216.05
387.40	216.01
387.78	216.01
388.15	215.98
388.53	215.95
388.91	215.88
389.29	215.84
389.66	215.87
390.04	215.81
390.42	215.81
390.79	215.78
391.17	215.75
391.55	215.50
391.92	215.50
392.30	215.50
392.68	215.46
393.05	215.45
393.43	215.46
393.81	215.49
394.18	215.48
394.56	215.48
394.94	215.52
395.31	215.50
395.69	215.53
396.06	215.57
396.44	215.62
396.82	215.65
397.19	215.74
397.57	215.73
397.95	215.79
398.32	215.79
398.70	215.87
399.07	215.98
399.45	216.05
399.82	216.11
400.20	216.16
400.58	216.23
400.95	216.19
401.33	216.30
401.70	216.54
402.08	216.68
402.45	216.80
402.83	216.93
403.20	217.05
403.58	217.16
403.95	217.30
404.33	217.44
404.71	217.58
405.08	217.87
405.46	218.04
405.83	218.23
406.21	218.41
406.58	218.64
406.96	218.83
407.33	219.06
407.70	219.35
408.08	219.81
408.45	220.16
408.83	220.57
409.20	220.93
409.58	221.18
409.95	221.59
410.33	222.02
410.70	222.42
411.08	222.97
411.45	223.51
411.82	224.08
412.20	224.72
412.57	225.52
412.95	226.06
413.32	226.85
413.69	227.65
414.07	228.54
414.44	229.50
414.82	230.47
415.19	231.60
415.56	232.73
415.94	233.88
416.31	235.23
416.68	236.58
417.06	238.11
417.43	239.60
417.81	241.28
418.18	243.02
418.55	244.92
418.93	246.84
419.30	248.86
419.67	251.03
420.04	253.28
420.42	255.58
420.79	258.32
421.16	261.03
421.54	263.85
421.91	266.73
422.28	269.73
422.66	272.89
423.03	276.07
423.40	279.33
423.77	282.75
424.15	286.29
424.52	289.98
424.89	293.97
425.26	297.93
425.64	301.68
426.01	305.77
426.38	310.06
426.75	314.50
427.13	319.08
427.50	323.84
427.87	328.83
428.24	333.88
428.61	338.68
428.99	344.01
429.36	349.82
429.73	355.52
430.10	361.15
430.47	367.06
430.85	373.16
431.22	379.64
431.59	386.57
431.96	393.14
432.33	400.37
432.70	407.39
433.08	415.61
433.45	423.42
433.82	431.23
434.19	439.84
434.56	448.20
434.93	456.29
435.30	464.28
435.68	473.14
436.05	481.83
436.42	490.44
436.79	498.30
437.16	506.74
437.53	515.65
437.90	524.50
438.27	533.08
438.64	541.99
439.01	550.21
439.38	557.48
439.75	564.58
440.13	572.78
440.50	580.48
440.87	586.64
441.24	593.04
441.61	600.08
441.98	605.22
442.35	611.25
442.72	617.31
443.09	623.15
443.46	626.70
443.83	629.07
444.20	631.19
444.57	634.22
444.94	635.64
445.31	637.05
445.68	638.37
446.05	639.02
446.42	638.22
446.79	637.28
447.16	636.26
447.53	635.52
447.90	632.25
448.27	629.00
448.64	624.57
449.01	621.34
449.37	615.67
449.74	610.19
450.11	603.60
450.48	596.45
450.85	589.25
451.22	583.02
451.59	577.15
451.96	571.46
452.33	563.85
452.70	556.94
453.07	548.81
453.43	540.54
453.80	532.50
454.17	524.74
454.54	517.51
454.91	509.59
455.28	501.89
455.65	494.82
456.02	487.66
456.38	481.55
456.75	474.00
457.12	467.68
457.49	461.45
457.86	455.51
458.23	450.41
458.59	444.76
458.96	438.97
459.33	433.83
459.70	428.70
460.07	424.62
460.43	419.96
460.80	415.56
461.17	411.70
461.54	407.71
461.91	403.89
462.27	399.92
462.64	396.64
463.01	392.93
463.38	389.29
463.74	385.74
464.11	382.64
464.48	379.91
464.85	376.88
465.21	374.50
465.58	371.95
465.95	368.86
466.32	366.33
466.68	363.82
467.05	361.34
467.42	358.88
467.78	356.30
468.15	353.86
468.52	351.99
468.88	349.57
469.25	347.43
469.62	345.71
469.98	343.81
470.35	342.08
470.72	340.52
471.08	338.79
471.45	337.31
471.82	335.81
472.18	334.23
472.55	333.12
472.92	331.80
473.28	330.65
473.65	329.62
474.02	328.50
474.38	327.69
474.75	326.98
475.11	326.21
475.48	325.72
475.85	325.29
476.21	324.83
476.58	324.51
476.94	324.30
477.31	324.03
477.67	323.85
478.04	323.71
478.41	323.69
478.77	323.90
479.14	323.91
479.50	324.04
479.87	324.29
480.23	324.61
480.60	324.88
480.96	325.16
481.33	325.73
481.69	326.31
482.06	326.83
482.42	327.30
482.79	327.91
483.15	328.65
483.52	329.60
483.88	330.53
484.25	331.51
484.61	332.57
484.98	333.61
485.34	334.92
485.71	336.27
486.07	337.72
486.44	338.97
486.80	340.55
487.17	342.23
487.53	344.09
487.90	345.99
488.26	348.00
488.62	350.15
488.99	352.21
489.35	354.38
489.72	356.74
490.08	359.28
490.44	361.84
490.81	364.59
491.17	367.29
491.54	370.20
491.90	373.24
492.26	376.44
492.63	379.88
492.99	383.33
493.36	387.03
493.72	390.87
494.08	394.91
494.45	399.12
494.81	403.45
495.17	407.88
495.54	412.54
495.90	417.32
496.26	422.31
496.63	427.44
496.99	432.85
497.35	438.44
497.72	444.20
498.08	450.11
498.44	456.12
498.80	462.47
499.17	468.99
499.53	475.59
499.89	482.41
500.26	489.31
500.62	496.31
500.98	503.63
501.34	511.05
501.71	518.80
502.07	526.55
502.43	534.48
502.79	542.54
503.16	550.83
503.52	559.40
503.88	568.03
504.24	576.91
504.60	585.88
504.97	595.04
505.33	604.27
505.69	614.09
506.05	623.93
506.41	633.76
506.78	643.74
507.14	653.98
507.50	664.34
507.86	674.91
508.22	685.61
508.59	696.18
508.95	707.17
509.31	718.34
509.67	729.71
510.03	741.05
510.39	752.69
510.75	764.45
511.12	776.29
511.48	788.19
511.84	800.30
512.20	812.51
512.56	825.08
512.92	837.71
513.28	850.18
513.64	862.71
514.00	875.38
514.37	888.17
514.73	901.09
515.09	914.00
515.45	926.71
515.81	939.57
516.17	952.68
516.53	965.66
516.89	978.57
517.25	991.60
517.61	1004.90
517.97	1018.07
518.33	1031.03
518.69	1044.38
519.05	1057.87
519.41	1071.33
519.77	1085.09
520.13	1098.10
520.49	1111.13
520.85	1124.23
521.21	1137.43
521.57	1150.84
521.93	1163.69
522.29	1177.19
522.65	1190.56
523.01	1203.93
523.37	1216.98
523.73	1230.12
524.09	1243.01
524.45	1256.09
524.81	1269.30
525.17	1282.35
525.53	1295.21
525.89	1308.15
526.25	1320.93
526.61	1333.56
526.97	1346.29
527.33	1358.83
527.68	1371.97
528.04	1384.97
528.40	1397.83
528.76	1410.85
529.12	1423.45
529.48	1436.45
529.84	1448.31
530.20	1460.65
530.56	1473.01
530.91	1485.80
531.27	1498.31
531.63	1510.82
531.99	1523.35
532.35	1535.13
532.71	1547.21
533.07	1559.77
533.42	1571.75
533.78	1583.55
534.14	1595.29
534.50	1606.31
534.86	1617.67
535.21	1628.34
535.57	1639.62
535.93	1650.64
536.29	1661.47
536.65	1672.60
537.00	1683.21
537.36	1694.31
537.72	1705.09
538.08	1716.16
538.44	1726.83
538.79	1737.50
539.15	1748.02
539.51	1758.44
539.87	1769.54
540.22	1780.10
540.58	1790.73
540.94	1801.29
541.29	1811.27
541.65	1820.67
542.01	1830.87
542.37	1840.48
542.72	1850.31
543.08	1859.83
543.44	1869.87
543.79	1878.75
544.15	1887.86
544.51	1897.68
544.87	1907.29
545.22	1916.04
545.58	1924.58
545.94	1933.18
546.29	1941.45
546.65	1949.56
547.01	1957.48
547.36	1964.88
547.72	1972.24
548.07	1979.64
548.43	1987.22
548.79	1994.80
549.14	2002.74
549.50	2010.88
549.86	2018.49
550.21	2025.53
550.57	2032.90
550.92	2039.48
551.28	2046.81
551.64	2053.96
551.99	2061.19
552.35	2068.21
552.70	2074.82
553.06	2081.24
553.41	2087.27
553.77	2093.68
554.13	2099.93
554.48	2106.73
554.84	2113.70
555.19	2120.16
555.55	2126.41
555.90	2132.47
556.26	2139.14
556.61	2144.87
556.97	2149.59
557.32	2155.34
557.68	2161.71
558.03	2167.27
558.39	2172.43
558.74	2178.17
559.10	2183.56
559.45	2188.85
559.81	2194.23
560.16	2199.90
560.52	2205.94
560.87	2212.27
561.23	2218.27
561.58	2224.72
561.94	2229.83
562.29	2234.60
562.64	2240.67
563.00	2246.23
563.35	2251.84
563.71	2257.49
564.06	2263.28
564.42	2269.34
564.77	2274.43
565.12	2279.60
565.48	2284.87
565.83	2290.43
566.19	2296.00
566.54	2301.43
566.89	2306.18
567.25	2310.70
567.60	2316.37
567.96	2321.35
568.31	2325.86
568.66	2330.01
569.02	2333.93
569.37	2337.81
569.72	2342.17
570.08	2345.68
570.43	2348.73
570.78	2351.84
571.14	2354.61
571.49	2357.76
571.84	2361.23
572.20	2364.19
572.55	2367.37
572.90	2369.64
573.26	2372.76
573.61	2375.29
573.96	2377.53
574.31	2379.50
574.67	2381.51
575.02	2382.37
575.37	2383.94
575.72	2385.05
576.08	2386.65
576.43	2387.15
576.78	2387.93
577.13	2389.67
577.49	2390.88
577.84	2392.36
578.19	2393.81
578.54	2394.45
578.90	2395.59
579.25	2395.57
579.60	2395.81
579.95	2395.13
580.30	2395.50
580.66	2394.84
581.01	2393.23
581.36	2391.03
581.71	2389.85
582.06	2389.04
582.42	2388.58
582.77	2386.57
583.12	2385.04
583.47	2383.82
583.82	2383.37
584.17	2382.19
584.53	2380.08
584.88	2378.33
585.23	2376.38
585.58	2374.36
585.93	2372.37
586.28	2370.25
586.63	2368.14
586.98	2365.94
587.34	2364.23
587.69	2361.97
588.04	2359.95
588.39	2358.79
588.74	2356.41
589.09	2354.04
589.44	2351.08
589.79	2348.62
590.14	2346.88
590.49	2344.18
590.84	2340.59
591.19	2337.72
591.54	2334.51
591.89	2330.78
592.25	2327.69
592.60	2323.77
592.95	2319.78
593.30	2315.79
593.65	2311.40
594.00	2307.08
594.35	2304.10
594.70	2299.47
595.05	2295.06
595.40	2289.88
595.75	2284.34
596.10	2280.98
596.45	2276.17
596.80	2271.69
597.15	2266.59
597.50	2260.72
597.85	2255.88
598.19	2250.69
598.54	2244.83
598.89	2239.98
599.24	2235.49
599.59	2229.42
599.94	2223.91
600.29	2217.95
600.64	2212.21
600.99	2205.68
601.34	2200.43
601.69	2193.62
602.04	2187.43
602.39	2180.96
602.74	2174.98
603.08	2169.42
603.43	2162.95
603.78	2156.36
604.13	2149.32
604.48	2142.20
604.83	2136.26
605.18	2130.06
605.53	2123.18
605.87	2116.28
606.22	2109.46
606.57	2101.65
606.92	2093.93
607.27	2086.88
607.62	2080.46
607.96	2073.44
608.31	2066.97
608.66	2059.19
609.01	2051.75
609.36	2044.66
609.70	2037.09
610.05	2029.60
610.40	2021.52
610.75	2013.33
611.10	2005.66
611.44	1996.92
611.79	1988.30
612.14	1978.44
612.49	1968.03
612.83	1958.89
613.18	1949.90
613.53	1940.57
613.88	1931.09
614.22	1922.48
614.57	1912.67
614.92	1902.20
615.27	1892.15
615.61	1882.23
615.96	1872.63
616.31	1863.06
616.65	1853.86
617.00	1844.02
617.35	1834.24
617.70	1824.54
618.04	1814.35
618.39	1804.11
618.74	1794.52
619.08	1784.96
619.43	1776.21
619.78	1768.01
620.12	1759.45
620.47	1749.74
620.82	1739.63
621.16	1729.84
621.51	1719.93
621.85	1710.05
622.20	1699.66
622.55	1689.21
622.89	1679.37
623.24	1669.74
623.59	1659.99
623.93	1649.82
624.28	1640.07
624.62	1629.94
624.97	1619.61
625.32	1610.16
625.66	1601.44
626.01	1592.71
626.35	1583.33
626.70	1573.13
627.04	1563.02
627.39	1552.94
627.73	1543.77
628.08	1534.69
628.43	1525.32
628.77	1516.15
629.12	1507.46
629.46	1499.59
629.81	1491.25
630.15	1481.76
630.50	1471.92
630.84	1461.53
631.19	1451.73
631.53	1442.40
631.88	1432.42
632.22	1422.57
632.57	1413.25
632.91	1403.12
633.26	1393.29
633.60	1383.67
633.95	1374.50
634.29	1365.08
634.64	1355.75
634.98	1345.87
635.32	1336.62
635.67	1327.99
636.01	1318.71
636.36	1308.93
636.70	1299.41
637.05	1290.06
637.39	1281.10
637.73	1272.55
638.08	1264.97
638.42	1256.67
638.77	1247.97
639.11	1239.78
639.45	1231.91
639.80	1223.30
640.14	1214.61
640.49	1205.69
640.83	1196.99
641.17	1189.07
641.52	1180.89
641.86	1172.46
642.20	1164.53
642.55	1156.04
642.89	1147.23
643.23	1138.62
643.58	1130.56
643.92	1121.66
644.26	1113.05
644.61	1104.61
644.95	1095.92
645.29	1086.72
645.64	1077.76
645.98	1069.45
646.32	1061.57
646.66	1053.19
647.01	1044.84
647.35	1036.73
647.69	1028.44
648.04	1020.28
648.38	1011.24
648.72	1002.57
649.06	994.09
649.41	986.02
649.75	978.12
650.09	970.31
650.43	962.32
650.78	954.16
651.12	946.53
651.46	939.26
651.80	932.01
652.14	924.76
652.49	917.38
652.83	910.01
653.17	902.26
653.51	894.59
653.85	887.42
654.20	880.23
654.54	872.78
654.88	865.73
655.22	858.57
655.56	851.75
655.90	845.04
656.25	838.48
656.59	831.57
656.93	824.57
657.27	817.54
657.61	810.74
657.95	804.70
658.29	798.78
658.64	792.67
658.98	786.36
659.32	779.78
659.66	773.59
660.00	767.36
660.34	761.46
660.68	755.41
661.02	749.16
661.36	743.33
661.70	737.66
662.05	732.08
662.39	726.59
662.73	721.32
663.07	716.01
663.41	710.51
663.75	704.97
664.09	699.39
664.43	694.12
664.77	688.85
665.11	683.08
665.45	677.32
665.79	671.57
666.13	665.98
666.47	660.58
666.81	655.29
667.15	650.03
667.49	644.88
667.83	639.75
668.17	634.65
668.51	629.62
668.85	624.77
669.19	619.96
669.53	615.05
669.87	610.00
670.21	605.36
670.55	600.65
670.89	596.33
671.23	592.18
671.57	587.86
671.91	583.62
672.25	579.59
672.58	575.51
672.92	571.50
673.26	567.66
673.60	563.90
673.94	560.12
674.28	556.51
674.62	552.81
674.96	549.14
675.30	545.59
675.64	542.03
675.97	538.47
676.31	534.91
676.65	531.39
676.99	527.97
677.33	524.21
677.67	520.64
678.01	516.79
678.34	513.12
678.68	509.64
679.02	506.10
679.36	502.44
679.70	498.87
680.04	495.41
680.37	492.01
680.71	488.79
681.05	485.69
681.39	482.52
681.73	479.39
682.06	476.47
682.40	473.41
682.74	470.27
683.08	467.15
683.42	464.08
683.75	461.18
684.09	458.30
684.43	455.51
684.77	452.65
685.10	449.89
685.44	447.03
685.78	444.16
686.12	441.46
686.45	438.82
686.79	436.23
687.13	433.79
687.46	431.20
687.80	428.50
688.14	425.71
688.48	423.15
688.81	420.55
689.15	417.96
689.49	415.49
689.82	412.98
690.16	410.45
690.50	407.98
690.83	405.47
691.17	402.90
691.51	400.54
691.84	398.38
692.18	396.25
692.52	394.09
692.85	391.98
693.19	389.89
693.52	387.75
693.86	385.59
694.20	383.44
694.53	381.39
694.87	379.30
695.21	377.23
695.54	375.11
695.88	373.02
696.21	370.86
696.55	368.72
696.88	366.72
697.22	364.78
697.56	362.96
697.89	361.16
698.23	359.48
698.56	357.72
698.90	355.94
699.23	354.02
699.57	352.21
699.90	350.43
700.24	348.70
700.58	346.94
700.91	345.35
701.25	343.82
701.58	342.25
701.92	340.70
702.25	339.11
702.59	337.56
702.92	336.09
703.26	334.60
703.59	333.23
703.93	331.99
704.26	330.59
704.60	329.08
704.93	327.62
705.26	326.19
705.60	324.74
705.93	323.31
706.27	322.04
706.60	320.81
706.94	319.58
707.27	318.19
707.61	316.98
707.94	315.63
708.27	314.15
708.61	312.78
708.94	311.46
709.28	310.23
709.61	309.02
709.94	307.82
710.28	306.63
710.61	305.47
710.95	304.09
711.28	303.07
711.61	301.94
711.95	300.87
712.28	299.72
712.61	298.55
712.95	297.50
713.28	296.47
713.61	295.38
713.95	294.24
714.28	293.24
714.61	292.18
714.95	291.18
715.28	290.16
715.61	289.12
715.95	288.17
716.28	287.24
716.61	286.31
716.95	285.35
717.28	284.46
717.61	283.48
717.94	282.58
718.28	281.57
718.61	280.74
718.94	279.86
719.27	279.00
719.61	278.25
719.94	277.41
720.27	276.50
720.60	275.69
720.94	274.90
721.27	274.19
721.60	273.51
721.93	272.83
722.27	272.23
722.60	271.62
722.93	270.93
723.26	270.25
723.59	269.55
723.93	268.90
724.26	268.28
724.59	267.72
724.92	267.16
725.25	266.66
725.59	266.07
725.92	265.54
726.25	264.98
726.58	264.41
726.91	263.82
727.24	263.31
727.57	262.76
727.91	262.24
728.24	261.68
728.57	261.08
728.90	260.55
729.23	259.94
729.56	259.53
729.89	258.99
730.22	258.48
730.55	257.95
730.89	257.45
731.22	256.91
731.55	256.35
731.88	255.85
732.21	255.31
732.54	254.78
732.87	254.29
733.20	253.78
733.53	253.31
733.86	252.86
734.19	252.38
734.52	252.00
734.85	251.68
735.18	251.20
735.51	250.89
735.84	250.48
736.17	250.12
736.50	249.59
736.83	249.47
737.16	249.08
737.49	248.73
737.82	248.33
738.15	248.03
738.48	247.71
738.81	247.32
739.14	246.91
739.47	246.57
739.80	246.21
740.13	245.93
740.46	245.56
740.79	245.17
741.12	244.81
741.45	244.42
741.78	243.98
742.11	243.76
742.44	243.33
742.77	243.01
743.10	242.67
743.43	242.32
743.75	241.75
744.08	241.69
744.41	241.35
744.74	241.03
745.07	240.62
745.40	240.34
745.73	240.11
746.06	239.81
746.39	239.51
746.71	239.20
747.04	238.81
747.37	238.47
747.70	238.22
748.03	237.91
748.36	237.64
748.68	237.35
749.01	237.00
749.34	236.75
749.67	236.46
750.00	236.20
750.33	236.10
750.65	235.86
750.98	235.36
751.31	235.15
751.64	234.94
751.97	234.83
752.29	234.55
752.62	234.25
752.95	234.00
753.28	233.74
753.60	233.50
753.93	233.38
754.26	233.19
754.59	232.96
754.91	232.74
755.24	232.48
755.57	232.26
755.90	232.02
756.22	231.76
756.55	231.52
756.88	231.30
757.20	230.98
757.53	230.70
757.86	230.49
758.19	230.27
758.51	230.05
758.84	229.75
759.17	229.57
759.49	229.39
759.82	229.33
760.15	229.16
760.47	228.97
760.80	228.71
761.13	228.54
761.45	228.33
761.78	228.17
762.11	228.03
762.43	227.86
762.76	227.67
763.08	227.54
763.41	227.43
763.74	227.27
764.06	227.08
764.39	226.95
764.71	226.80
765.04	226.66
765.37	226.52
765.69	226.39
766.02	226.26
766.34	226.09
766.67	225.86
767.00	225.81
767.32	225.78
767.65	225.78
767.97	225.65
768.30	225.52
768.62	225.40
768.95	225.27
769.27	225.14
769.60	225.09
769.92	224.96
770.25	224.78
770.57	224.61
770.90	224.49
771.22	224.34
771.55	224.23
771.87	224.11
772.20	223.99
772.52	224.06
772.85	224.20
773.17	224.10
773.50	224.00
773.82	223.82
774.15	223.63
774.47	223.41
774.80	223.31
775.12	223.26
775.45	223.17
775.77	223.09
776.09	223.03
776.42	222.96
776.74	222.95
777.07	222.86
777.39	222.82
777.72	222.77
778.04	222.76
778.36	222.66
778.69	222.61
779.01	222.56
779.33	222.28
779.66	221.98
779.98	221.89
780.31	221.84
780.63	221.85
780.95	221.81
781.28	221.74
781.60	221.66
781.92	221.56
782.25	221.50
782.57	221.43
782.89	221.32
783.22	221.20
783.54	221.08
783.86	221.08
784.19	221.00
784.51	220.95
784.83	220.87
785.16	220.77
785.48	220.70
785.80	220.62
786.12	220.59
786.45	220.49
786.77	220.47
787.09	220.39
787.42	220.27
787.74	220.21
788.06	220.16
788.38	220.11
788.71	220.04
789.03	220.00
789.35	219.98
789.67	219.90
789.99	219.88
790.32	219.80
790.64	219.75
790.96	219.89
791.28	219.79
791.61	219.69
791.93	219.69
792.25	219.63
792.57	219.74
792.89	219.66
793.21	219.65
793.54	219.57
793.86	219.49
794.18	219.43
794.50	219.35
794.82	219.31
795.14	219.30
795.47	219.32
795.79	219.26
796.11	219.16
796.43	219.15
796.75	219.08
797.07	219.08
797.39	219.01
797.71	218.78
798.04	218.75
798.36	218.74
798.68	218.70
799.00	218.69
799.32	218.52
799.64	218.54
799.96	218.47
800.28	218.48
800.60	218.44
800.92	218.45
801.24	218.41
801.56	218.40
801.89	218.34
802.21	218.30
802.53	218.23
802.85	218.22
803.17	218.24
803.49	218.20
803.81	218.14
804.13	218.08
804.45	218.06
804.77	218.05
805.09	218.01
805.41	217.94
805.73	217.86
806.05	217.80
806.37	217.76
806.69	217.70
807.01	217.66
807.33	217.68
807.65	217.53
807.97	217.62
808.28	217.55
808.60	217.52
808.92	217.46
809.24	217.57
809.56	217.55
809.88	217.48
810.20	217.46
810.52	217.49
810.84	217.46
811.16	217.39
811.48	217.36
811.80	217.42
812.12	217.39
812.43	217.41
812.75	217.41
813.07	217.35
813.39	217.36
813.71	217.32
814.03	217.26
814.35	217.27
814.67	217.13
814.98	217.15
815.30	217.14
815.62	217.08
815.94	216.94
816.26	216.93
816.58	216.87
816.89	216.89
817.21	216.79
817.53	216.79
817.85	216.77
818.17	216.76
818.48	216.67
818.80	216.67
819.12	216.63
819.44	216.58
819.76	216.54
820.07	216.52
820.39	216.50
820.71	216.48
821.03	216.48
821.34	216.45
821.66	216.45
821.98	216.39
822.30	216.36
822.61	216.44
822.93	216.41
823.25	216.38
823.57	216.31
823.88	216.35
824.20	216.35
824.52	216.40
824.83	216.37
825.15	216.36
825.47	216.37
825.79	216.37
826.10	216.33
826.42	216.34
826.74	216.36
827.05	216.32
827.37	216.32
827.69	216.31
828.00	216.31
828.32	216.27
828.64	216.28
828.95	216.42
829.27	216.37
829.58	216.34
829.90	216.39
830.22	216.39
830.53	216.33
830.85	216.28
831.17	216.19
831.48	216.17
831.80	216.16
832.11	216.16
832.43	216.11
832.75	216.11
833.06	216.22
833.38	216.14
833.69	216.14
834.01	216.15
834.32	216.13
834.64	216.12
834.96	216.09
835.27	216.07
835.59	215.97
835.90	215.90
836.22	215.88
836.53	215.83
836.85	215.83
837.16	215.99
837.48	216.00
837.79	216.08
838.11	216.10
838.42	216.06
838.74	216.07
839.05	216.07
839.37	216.06
839.68	215.91
840.00	215.89
840.31	215.90
840.63	215.86
840.94	215.83
841.26	215.82
841.57	215.82
841.88	215.84
842.20	215.79
842.51	215.76
842.83	215.76
843.14	215.96
843.46	215.97
843.77	215.85
844.08	215.81
844.40	215.73
844.71	215.70
845.03	215.69
845.34	215.67
845.65	215.64
845.97	215.63
846.28	215.67
846.60	215.64
846.91	215.61
847.22	215.62
847.54	215.64
847.85	215.62
848.16	215.58
848.48	215.53
848.79	215.63
849.10	215.66
849.42	215.66
849.73	215.46
850.04	215.43
850.36	215.37
850.67	215.42
850.98	215.42
851.30	215.43
851.61	215.41
851.92	215.39
852.23	215.44
852.55	215.48
852.86	215.45
853.17	215.49
853.49	215.53
853.80	215.55
854.11	215.58
854.42	215.60
854.74	215.61
855.05	215.63
855.36	215.54
855.67	215.54
855.99	215.57
856.30	215.75
856.61	215.74
856.92	215.74
857.23	215.72
857.55	215.67
857.86	215.68
858.17	215.71
858.48	215.65
858.79	215.63
859.11	215.63
859.42	215.63
859.73	215.58
860.04	215.56
860.35	215.50
860.66	215.45
860.98	215.46
861.29	215.48
861.60	215.45
861.91	215.48
862.22	215.46
862.53	215.42
862.84	215.21
863.16	215.27
863.47	215.23
863.78	215.23
864.09	215.25
864.40	215.24
864.71	215.26
865.02	215.31
865.33	215.23
865.64	215.17
865.95	215.15
866.27	215.31
866.58	215.30
866.89	215.36
867.20	215.34
867.51	215.34
867.82	215.32
868.13	215.37
868.44	215.30
868.75	215.32
869.06	215.30
869.37	215.32
869.68	215.26
869.99	215.31
870.30	215.32
870.61	215.32
870.92	215.30
871.23	215.24
871.54	215.28
871.85	215.35
872.16	215.41
872.47	215.40
872.78	215.25
873.09	215.29
873.40	215.25
873.71	215.25
874.02	215.24
874.33	215.24
874.64	215.19
874.95	215.24
875.26	215.21
875.56	215.24
875.87	215.23
876.18	215.21
876.49	215.42
876.80	215.38
877.11	215.38
877.42	215.37
877.73	215.39
878.04	215.36
878.35	215.33
878.66	215.33
878.96	215.30
879.27	215.28
879.58	215.24
879.89	215.22
880.20	215.26
880.51	215.27
880.82	215.24
881.12	215.25
881.43	215.20
881.74	215.19
882.05	215.18
882.36	215.18
882.67	215.21
882.97	214.98
883.28	214.96
883.59	214.94
883.90	214.97
884.21	214.97
884.51	214.96
884.82	214.96
885.13	214.96
885.44	214.99
885.74	214.99
886.05	214.97
886.36	214.97
886.67	214.95
886.98	215.03
887.28	215.05
887.59	215.06
887.90	215.08
888.20	215.06
888.51	215.10
888.82	215.07
889.13	215.06
889.43	215.23
889.74	215.21
890.05	215.20
890.35	215.14
890.66	215.12
890.97	215.13
891.28	215.08
891.58	215.11
891.89	215.09
892.20	215.12
892.50	215.12
892.81	215.13
893.12	215.09
893.42	214.98
893.73	214.98
894.04	214.98
894.34	214.99
894.65	214.96
894.95	214.89
895.26	214.88
895.57	214.98
895.87	214.79
896.18	214.87
896.48	214.88
896.79	214.91
897.10	214.92
897.40	214.91
897.71	214.96
898.01	214.93
898.32	214.96
898.63	214.91
898.93	214.92
899.24	214.90
899.54	214.89
899.85	214.85
900.15	214.84
900.46	214.82
900.76	214.83
901.07	214.84
901.38	214.87
901.68	214.93
901.99	214.81
902.29	214.81
902.60	214.77
902.90	214.78
903.21	214.77
903.51	214.77
903.82	214.82
904.12	214.78
904.43	214.79
904.73	214.75
905.03	214.75
905.34	214.94
905.64	214.95
905.95	214.98
906.25	215.00
906.56	215.03
906.86	215.05
907.17	215.03
907.47	215.03
907.77	215.03
908.08	214.98
908.38	215.00
908.69	215.03
908.99	215.05
909.30	215.05
909.60	215.03
909.90	215.05
910.21	214.96
910.51	214.95
910.81	214.95
911.12	215.01
911.42	215.02
911.73	214.79
912.03	214.82
912.33	214.83
912.64	214.83
912.94	214.79
913.24	214.74
913.55	214.72
913.85	214.76
914.15	214.78
914.46	214.79
914.76	214.79
915.06	214.76
915.37	214.72
915.67	214.68
915.97	214.67
916.27	214.66
916.58	214.68
916.88	214.69
917.18	214.64
917.49	214.77
917.79	214.77
918.09	214.83
918.39	214.84
918.70	214.83
919.00	214.85
919.30	214.96
919.60	214.95
919.91	214.93
920.21	214.91
920.51	214.87
920.81	214.84
921.12	214.86
921.42	214.88
921.72	214.93
922.02	214.98
922.32	215.02
922.63	214.99
922.93	215.09
923.23	215.06
923.53	215.06
923.83	214.90
924.13	214.90
924.44	214.90
924.74	214.97
925.04	214.98
925.34	214.98
925.64	214.88
925.94	214.87
926.24	214.99
926.55	214.98
926.85	215.00
927.15	215.00
927.45	214.98
927.75	214.99
928.05	214.95
928.35	214.93
928.65	214.96
928.95	214.97
929.26	214.92
929.56	215.01
929.86	215.03
930.16	215.03
930.46	215.05
930.76	215.04
931.06	214.91
931.36	214.89
931.66	214.90
931.96	214.94
932.26	214.95
932.56	214.89
932.86	214.86
933.16	214.87
933.46	214.87
933.76	214.84
934.06	214.90
934.36	214.98
934.66	214.96
934.96	214.92
935.26	214.93
935.56	214.93
935.86	214.86
936.16	214.84
936.46	214.82
936.76	214.78
937.06	214.75
937.36	214.77
937.66	214.76
937.96	214.75
938.26	214.70
938.56	214.71
938.86	214.70
939.16	214.76
939.46	214.76
939.76	214.77
940.06	214.78
940.35	214.73
940.65	214.61
940.95	214.65
941.25	214.60
941.55	214.58
941.85	214.55
942.15	214.62
942.45	214.67
942.75	214.66
943.04	214.68
943.34	214.74
943.64	214.71
943.94	214.66
944.24	214.65
944.54	214.67
944.84	214.69
945.13	214.68
945.43	214.64
945.73	214.63
946.03	214.58
946.33	214.59
946.62	214.56
946.92	214.56
947.22	214.57
947.52	214.61
947.82	214.66
948.11	214.68
948.41	214.62
948.71	214.54
949.01	214.57
949.31	214.55
949.60	214.52
949.90	214.58
950.20	214.61
950.50	214.63
950.79	214.61
951.09	214.63
951.39	214.61
951.69	214.58
951.98	214.65
952.28	214.70
952.58	214.67
952.87	214.65
953.17	214.70
953.47	214.65
953.76	214.64
954.06	214.60
954.36	214.54
954.66	214.57
954.95	214.66
955.25	214.70
955.55	214.70
955.84	214.65
956.14	214.65
956.44	214.67
956.73	214.61
957.03	214.63
957.32	214.61
957.62	214.63
957.92	214.71
958.21	214.69
958.51	214.89
958.81	214.91
959.10	214.96
959.40	214.99
959.69	215.01
959.99	215.04
960.29	215.03
960.58	215.02
960.88	215.11
961.17	215.09
961.47	215.08
961.76	215.03
962.06	215.12
962.36	215.10
962.65	215.09
962.95	215.13
963.24	215.10
963.54	215.11
963.83	215.10
964.13	215.07
964.42	214.98
964.72	214.82
965.01	214.84
965.31	214.85
965.60	214.79
965.90	214.93
966.19	214.87
966.49	214.89
966.78	214.87
967.08	214.84
967.37	214.82
967.67	214.81
967.96	214.88
968.26	214.83
968.55	214.86
968.85	214.86
969.14	214.86
969.43	214.89
969.73	214.85
970.02	214.84
970.32	214.80
970.61	214.82
970.91	214.75
971.20	214.72
971.49	214.66
971.79	214.69
972.08	214.53
972.38	214.55
972.67	214.54
972.96	214.58
973.26	214.51
973.55	214.57
973.85	214.55
974.14	214.53
974.43	214.54
974.73	214.50
975.02	214.46
975.31	214.47
975.61	214.45
975.90	214.46
976.19	214.46
976.49	214.46
976.78	214.47
977.07	214.45
977.37	214.47
977.66	214.53
977.95	214.49
978.24	214.53
978.54	214.60
978.83	214.56
979.12	214.57
979.42	214.59
979.71	214.53
980.00	214.51
980.29	214.52
980.59	214.50
980.88	214.56
981.17	214.58
981.46	214.55
981.76	214.57
982.05	214.63
982.34	214.65
982.63	214.68
982.93	214.69
983.22	214.78
983.51	214.78
983.80	214.78
984.09	214.79
984.39	214.77
984.68	214.71
984.97	214.75
985.26	214.70
985.55	214.67
985.85	214.63
986.14	214.67
986.43	214.69
986.72	214.68
987.01	214.59
987.30	214.60
987.59	214.57
987.89	214.59
988.18	214.52
988.47	214.48
988.76	214.46
989.05	214.46
989.34	214.43
989.63	214.47
989.92	214.46
990.22	214.44
990.51	214.43
990.80	214.43
991.09	214.44
991.38	214.48
991.67	214.52
991.96	214.50
992.25	214.48
992.54	214.42
992.83	214.41
993.12	214.43
993.41	214.47
993.70	214.59
993.99	214.60
994.28	214.63
994.58	214.67
994.87	214.63
995.16	214.62
995.45	214.57
995.74	214.47
996.03	214.51
996.32	214.55
996.61	214.57
996.90	214.57
997.19	214.57
997.48	214.56
997.77	214.53
998.06	214.58
998.34	214.57
998.63	214.54
998.92	214.58
999.21	214.59
999.50	214.58
999.79	214.49
1000.08	214.50
1000.37	214.48
1000.66	214.45
1000.95	214.53
1001.24	214.56
1001.53	214.60
1001.82	214.59
1002.11	214.53
1002.40	214.53
1002.68	214.57
1002.97	214.72
1003.26	214.67
1003.55	214.63
1003.84	214.66
1004.13	214.69
1004.42	214.67
1004.71	214.71
1004.99	214.69
1005.28	214.74
1005.57	214.71
1005.86	214.69
1006.15	214.68
1006.44	214.65
1006.72	214.67
1007.01	214.64
1007.30	214.62
1007.59	214.61
1007.88	214.67
1008.17	214.68
1008.45	214.65
1008.74	214.58
1009.03	214.47
1009.32	214.49
1009.60	214.50
1009.89	214.47
1010.18	214.41
1010.47	214.43
1010.76	214.43
1011.04	214.44
1011.33	214.45
1011.62	214.46
1011.91	214.48
1012.19	214.47
1012.48	214.49
1012.77	214.53
1013.05	214.62
1013.34	214.63
1013.63	214.61
1013.92	214.58
1014.20	214.59
1014.49	214.61
1014.78	214.63
1015.06	214.58
1015.35	214.57
1015.64	214.58
1015.92	214.62
1016.21	214.63
1016.50	214.63
1016.78	214.67
1017.07	214.70
1017.36	214.61
1017.64	214.62
1017.93	214.66
1018.22	214.63
1018.50	214.64
1018.79	214.61
1019.08	214.49
1019.36	214.51
1019.65	214.49
1019.93	214.53
1020.22	214.55
1020.51	214.65
1020.79	214.62
1021.08	213.86
1021.36	214.63
1021.65	214.50
1021.94	214.19
1022.22	214.75
1022.51	214.29
1022.79	215.11
1023.08	214.83
1023.36	216.76
1023.65	213.91
>>>>>End Processed Spectral Data<<<<<
