SpectraSuite Data File
++++++++++++++++++++++++++++++++++++
Date: Tue Jan 29 16:36:29 EST 2013
User: group
Dark Spectrum Present: No
Reference Spectrum Present: No
Number of Sampled Component Spectra: 1
Spectrometers: USB2E7196
Integration Time (usec): 65000 (USB2E7196)
Spectra Averaged: 100 (USB2E7196)
Boxcar Smoothing: 10 (USB2E7196)
Correct for Electrical Dark: No (USB2E7196)
Strobe/Lamp Enabled: No (USB2E7196)
Correct for Detector Non-linearity: No (USB2E7196)
Correct for Stray Light: No (USB2E7196)
Number of Pixels in Processed Spectrum: 2048
>>>>>Begin Processed Spectral Data<<<<<
339.09	0.00
339.48	201.50
339.86	203.38
340.24	204.82
340.63	206.04
341.01	210.78
341.39	209.21
341.78	210.81
342.16	212.13
342.54	211.88
342.93	201.13
343.31	211.27
343.69	211.84
344.07	212.27
344.46	212.72
344.84	213.13
345.22	213.27
345.60	213.53
345.99	213.71
346.37	213.80
346.75	213.93
347.13	214.00
347.52	214.04
347.90	214.16
348.28	214.21
348.66	214.30
349.05	214.26
349.43	214.35
349.81	214.40
350.19	214.47
350.57	214.55
350.96	214.66
351.34	214.79
351.72	214.91
352.10	215.08
352.48	215.14
352.87	215.17
353.25	215.25
353.63	215.32
354.01	215.38
354.39	215.51
354.77	215.57
355.15	215.69
355.54	215.76
355.92	215.75
356.30	215.84
356.68	216.06
357.06	216.15
357.44	216.18
357.82	216.24
358.20	216.33
358.58	216.38
358.97	216.43
359.35	216.49
359.73	216.57
360.11	216.64
360.49	216.70
360.87	216.75
361.25	216.86
361.63	216.97
362.01	217.05
362.39	217.09
362.77	217.16
363.15	217.22
363.53	217.26
363.91	217.33
364.29	217.37
364.67	217.20
365.05	217.24
365.43	217.29
365.81	217.32
366.19	217.41
366.57	217.53
366.95	217.53
367.33	217.52
367.71	217.52
368.09	217.50
368.47	217.49
368.85	217.51
369.23	217.52
369.61	217.41
369.99	217.45
370.37	217.41
370.75	217.48
371.13	217.43
371.51	217.34
371.89	217.34
372.27	217.32
372.65	217.30
373.03	217.29
373.41	217.22
373.78	217.21
374.16	217.07
374.54	216.95
374.92	216.92
375.30	216.88
375.68	216.78
376.06	216.77
376.44	216.74
376.82	216.69
377.19	216.62
377.57	216.58
377.95	216.47
378.33	216.43
378.71	216.24
379.09	216.19
379.47	216.18
379.84	216.08
380.22	216.01
380.60	215.92
380.98	215.84
381.36	215.79
381.73	215.70
382.11	215.71
382.49	215.67
382.87	215.57
383.25	215.52
383.62	215.73
384.00	215.64
384.38	215.60
384.76	215.62
385.13	215.66
385.51	215.64
385.89	215.56
386.27	215.52
386.64	215.55
387.02	215.52
387.40	215.45
387.78	215.43
388.15	215.44
388.53	215.42
388.91	215.40
389.29	215.38
389.66	215.37
390.04	215.29
390.42	215.33
390.79	215.34
391.17	215.30
391.55	215.06
391.92	215.08
392.30	215.08
392.68	215.01
393.05	215.02
393.43	215.00
393.81	215.01
394.18	215.00
394.56	214.98
394.94	215.03
395.31	215.03
395.69	215.10
396.06	215.11
396.44	215.16
396.82	215.15
397.19	215.28
397.57	215.28
397.95	215.32
398.32	215.27
398.70	215.33
399.07	215.42
399.45	215.47
399.82	215.52
400.20	215.55
400.58	215.61
400.95	215.58
401.33	215.69
401.70	215.91
402.08	216.01
402.45	216.10
402.83	216.23
403.20	216.35
403.58	216.47
403.95	216.63
404.33	216.74
404.71	216.89
405.08	217.15
405.46	217.35
405.83	217.55
406.21	217.75
406.58	217.96
406.96	218.17
407.33	218.45
407.70	218.73
408.08	219.18
408.45	219.51
408.83	219.88
409.20	220.23
409.58	220.51
409.95	220.98
410.33	221.47
410.70	221.91
411.08	222.48
411.45	223.06
411.82	223.65
412.20	224.40
412.57	225.23
412.95	225.80
413.32	226.64
413.69	227.48
414.07	228.41
414.44	229.42
414.82	230.46
415.19	231.64
415.56	232.82
415.94	234.02
416.31	235.46
416.68	236.86
417.06	238.49
417.43	240.03
417.81	241.78
418.18	243.55
418.55	245.47
418.93	247.48
419.30	249.56
419.67	251.81
420.04	254.03
420.42	256.42
420.79	259.23
421.16	262.02
421.54	264.95
421.91	267.94
422.28	271.03
422.66	274.36
423.03	277.59
423.40	280.95
423.77	284.57
424.15	288.24
424.52	292.07
424.89	296.26
425.26	300.36
425.64	304.24
426.01	308.54
426.38	313.04
426.75	317.59
427.13	322.30
427.50	327.29
427.87	332.51
428.24	337.72
428.61	342.75
428.99	348.30
429.36	354.31
429.73	360.21
430.10	366.12
430.47	372.19
430.85	378.54
431.22	385.27
431.59	392.38
431.96	399.22
432.33	406.76
432.70	414.00
433.08	422.53
433.45	430.61
433.82	438.60
434.19	447.48
434.56	456.23
434.93	464.64
435.30	472.88
435.68	482.05
436.05	491.03
436.42	499.96
436.79	508.08
437.16	516.85
437.53	526.15
437.90	535.31
438.27	544.30
438.64	553.49
439.01	562.06
439.38	569.63
439.75	577.05
440.13	585.51
440.50	593.42
440.87	599.84
441.24	606.63
441.61	614.01
441.98	619.41
442.35	625.80
442.72	632.09
443.09	638.22
443.46	641.91
443.83	644.49
444.20	646.60
444.57	649.79
444.94	651.29
445.31	652.74
445.68	654.13
446.05	654.75
446.42	653.94
446.79	653.07
447.16	652.04
447.53	651.16
447.90	647.79
448.27	644.58
448.64	639.99
449.01	636.56
449.37	630.72
449.74	625.05
450.11	618.11
450.48	610.75
450.85	603.23
451.22	596.73
451.59	590.58
451.96	584.85
452.33	576.96
452.70	569.84
453.07	561.40
453.43	552.76
453.80	544.46
454.17	536.51
454.54	528.87
454.91	520.65
455.28	512.70
455.65	505.25
456.02	497.69
456.38	491.35
456.75	483.42
457.12	476.75
457.49	470.21
457.86	463.97
458.23	458.54
458.59	452.61
458.96	446.63
459.33	441.27
459.70	435.82
460.07	431.59
460.43	426.63
460.80	421.97
461.17	417.93
461.54	413.68
461.91	409.63
462.27	405.51
462.64	402.08
463.01	398.24
463.38	394.56
463.74	390.86
464.11	387.57
464.48	384.72
464.85	381.62
465.21	379.17
465.58	376.53
465.95	373.41
466.32	370.78
466.68	368.21
467.05	365.60
467.42	363.04
467.78	360.28
468.15	357.77
468.52	355.83
468.88	353.37
469.25	351.19
469.62	349.36
469.98	347.39
470.35	345.55
470.72	343.88
471.08	342.07
471.45	340.53
471.82	338.99
472.18	337.32
472.55	336.08
472.92	334.70
473.28	333.52
473.65	332.33
474.02	331.23
474.38	330.30
474.75	329.54
475.11	328.71
475.48	328.16
475.85	327.65
476.21	327.18
476.58	326.82
476.94	326.57
477.31	326.30
477.67	326.06
478.04	325.91
478.41	325.83
478.77	326.03
479.14	326.00
479.50	326.09
479.87	326.41
480.23	326.70
480.60	326.93
480.96	327.18
481.33	327.81
481.69	328.32
482.06	328.84
482.42	329.33
482.79	329.98
483.15	330.74
483.52	331.69
483.88	332.60
484.25	333.58
484.61	334.59
484.98	335.61
485.34	336.89
485.71	338.24
486.07	339.66
486.44	340.98
486.80	342.59
487.17	344.30
487.53	346.08
487.90	347.99
488.26	350.06
488.62	352.24
488.99	354.27
489.35	356.49
489.72	358.88
490.08	361.43
490.44	363.98
490.81	366.67
491.17	369.39
491.54	372.35
491.90	375.35
492.26	378.60
492.63	382.02
492.99	385.48
493.36	389.17
493.72	393.12
494.08	397.11
494.45	401.32
494.81	405.74
495.17	410.24
495.54	414.97
495.90	419.75
496.26	424.70
496.63	429.90
496.99	435.31
497.35	440.94
497.72	446.74
498.08	452.70
498.44	458.82
498.80	465.31
499.17	471.86
499.53	478.56
499.89	485.52
500.26	492.56
500.62	499.68
500.98	507.11
501.34	514.56
501.71	522.34
502.07	530.19
502.43	538.20
502.79	546.42
503.16	554.87
503.52	563.56
503.88	572.27
504.24	581.26
504.60	590.39
504.97	599.59
505.33	608.92
505.69	618.81
506.05	628.77
506.41	638.64
506.78	648.68
507.14	659.00
507.50	669.46
507.86	680.18
508.22	691.00
508.59	701.73
508.95	712.82
509.31	724.16
509.67	735.69
510.03	747.19
510.39	758.92
510.75	770.73
511.12	782.63
511.48	794.76
511.84	807.08
512.20	819.41
512.56	832.13
512.92	844.98
513.28	857.59
513.64	870.31
514.00	883.28
514.37	896.41
514.73	909.48
515.09	922.52
515.45	935.53
515.81	948.66
516.17	962.10
516.53	975.47
516.89	988.64
517.25	1001.88
517.61	1015.35
517.97	1028.83
518.33	1042.13
518.69	1055.78
519.05	1069.52
519.41	1083.26
519.77	1097.24
520.13	1110.67
520.49	1123.96
520.85	1137.60
521.21	1151.09
521.57	1164.76
521.93	1177.87
522.29	1191.83
522.65	1205.63
523.01	1219.35
523.37	1232.60
523.73	1246.05
524.09	1259.31
524.45	1272.87
524.81	1286.43
525.17	1299.92
525.53	1313.12
525.89	1326.41
526.25	1339.71
526.61	1352.67
526.97	1365.96
527.33	1379.03
527.68	1392.62
528.04	1406.14
528.40	1419.31
528.76	1432.66
529.12	1445.58
529.48	1458.99
529.84	1471.36
530.20	1484.12
530.56	1496.82
530.91	1510.22
531.27	1523.10
531.63	1535.92
531.99	1548.77
532.35	1561.13
532.71	1573.77
533.07	1586.89
533.42	1599.34
533.78	1611.47
534.14	1623.70
534.50	1634.95
534.86	1646.58
535.21	1657.47
535.57	1669.19
535.93	1680.61
536.29	1691.94
536.65	1703.63
537.00	1714.71
537.36	1726.25
537.72	1737.35
538.08	1748.92
538.44	1760.04
538.79	1771.26
539.15	1782.37
539.51	1793.28
539.87	1804.71
540.22	1815.55
540.58	1826.45
540.94	1837.55
541.29	1847.87
541.65	1857.81
542.01	1868.38
542.37	1878.56
542.72	1888.87
543.08	1898.58
543.44	1909.11
543.79	1918.43
544.15	1927.90
544.51	1937.95
544.87	1947.78
545.22	1957.11
545.58	1965.93
545.94	1974.77
546.29	1983.37
546.65	1991.71
547.01	2000.01
547.36	2007.71
547.72	2015.59
548.07	2023.34
548.43	2031.22
548.79	2039.28
549.14	2047.57
549.50	2056.21
549.86	2064.32
550.21	2071.80
550.57	2079.68
550.92	2086.71
551.28	2094.43
551.64	2101.78
551.99	2109.42
552.35	2116.74
552.70	2123.75
553.06	2130.53
553.41	2136.96
553.77	2143.57
554.13	2149.96
554.48	2156.93
554.84	2164.13
555.19	2170.74
555.55	2177.22
555.90	2183.56
556.26	2190.40
556.61	2196.52
556.97	2201.28
557.32	2207.04
557.68	2213.68
558.03	2219.46
558.39	2224.70
558.74	2230.48
559.10	2236.01
559.45	2241.54
559.81	2247.19
560.16	2252.74
560.52	2258.65
560.87	2265.08
561.23	2271.01
561.58	2277.71
561.94	2282.92
562.29	2287.60
562.64	2293.72
563.00	2299.52
563.35	2304.96
563.71	2310.72
564.06	2316.27
564.42	2322.38
564.77	2327.30
565.12	2332.36
565.48	2337.45
565.83	2342.75
566.19	2348.22
566.54	2353.69
566.89	2358.28
567.25	2362.64
567.60	2368.30
567.96	2373.34
568.31	2377.81
568.66	2382.11
569.02	2386.08
569.37	2389.98
569.72	2394.38
570.08	2397.76
570.43	2400.76
570.78	2403.76
571.14	2406.26
571.49	2409.42
571.84	2412.84
572.20	2415.90
572.55	2418.91
572.90	2421.19
573.26	2424.06
573.61	2426.64
573.96	2428.66
574.31	2430.77
574.67	2432.66
575.02	2433.38
575.37	2434.73
575.72	2435.42
576.08	2436.69
576.43	2436.87
576.78	2437.18
577.13	2438.70
577.49	2439.86
577.84	2440.75
578.19	2442.00
578.54	2442.45
578.90	2442.93
579.25	2442.66
579.60	2442.38
579.95	2441.46
580.30	2441.45
580.66	2440.64
581.01	2438.80
581.36	2436.24
581.71	2434.67
582.06	2433.36
582.42	2432.34
582.77	2430.04
583.12	2428.24
583.47	2426.83
583.82	2426.06
584.17	2424.61
584.53	2422.35
584.88	2420.12
585.23	2418.14
585.58	2415.78
585.93	2413.65
586.28	2411.46
586.63	2408.92
586.98	2406.64
587.34	2404.55
587.69	2402.09
588.04	2399.95
588.39	2398.57
588.74	2396.14
589.09	2393.26
589.44	2390.12
589.79	2387.63
590.14	2385.62
590.49	2382.77
590.84	2378.73
591.19	2375.36
591.54	2372.01
591.89	2367.82
592.25	2364.49
592.60	2360.08
592.95	2355.87
593.30	2351.63
593.65	2347.16
594.00	2342.67
594.35	2339.56
594.70	2334.86
595.05	2330.18
595.40	2324.66
595.75	2318.75
596.10	2315.03
596.45	2310.17
596.80	2305.49
597.15	2300.28
597.50	2294.37
597.85	2289.38
598.19	2284.27
598.54	2278.44
598.89	2273.23
599.24	2268.71
599.59	2262.40
599.94	2256.68
600.29	2250.70
600.64	2244.80
600.99	2237.96
601.34	2232.44
601.69	2225.50
602.04	2219.16
602.39	2212.39
602.74	2206.16
603.08	2200.51
603.43	2194.05
603.78	2186.97
604.13	2179.78
604.48	2172.27
604.83	2166.06
605.18	2159.85
605.53	2152.72
605.87	2145.69
606.22	2138.94
606.57	2130.96
606.92	2122.97
607.27	2115.80
607.62	2109.17
607.96	2102.01
608.31	2095.47
608.66	2087.67
609.01	2079.93
609.36	2072.65
609.70	2064.99
610.05	2057.35
610.40	2049.01
610.75	2040.51
611.10	2032.85
611.44	2024.00
611.79	2015.33
612.14	2005.29
612.49	1994.45
612.83	1985.13
613.18	1975.77
613.53	1966.41
613.88	1956.81
614.22	1948.12
614.57	1938.37
614.92	1927.75
615.27	1917.48
615.61	1907.34
615.96	1897.74
616.31	1888.11
616.65	1878.68
617.00	1868.91
617.35	1859.16
617.70	1849.44
618.04	1839.49
618.39	1829.31
618.74	1819.71
619.08	1810.07
619.43	1801.35
619.78	1793.18
620.12	1784.61
620.47	1775.11
620.82	1764.72
621.16	1754.85
621.51	1745.06
621.85	1735.23
622.20	1724.77
622.55	1714.29
622.89	1704.42
623.24	1694.62
623.59	1684.88
623.93	1674.72
624.28	1664.89
624.62	1654.79
624.97	1644.40
625.32	1634.44
625.66	1625.63
626.01	1616.80
626.35	1607.38
626.70	1597.35
627.04	1587.25
627.39	1577.10
627.73	1567.90
628.08	1559.04
628.43	1549.49
628.77	1540.24
629.12	1531.38
629.46	1523.61
629.81	1515.37
630.15	1505.83
630.50	1496.06
630.84	1485.49
631.19	1475.64
631.53	1466.28
631.88	1456.15
632.22	1446.20
632.57	1437.04
632.91	1427.07
633.26	1417.15
633.60	1407.61
633.95	1398.26
634.29	1388.82
634.64	1379.50
634.98	1369.45
635.32	1359.96
635.67	1351.59
636.01	1342.28
636.36	1332.48
636.70	1322.82
637.05	1313.43
637.39	1304.52
637.73	1295.84
638.08	1288.31
638.42	1280.17
638.77	1271.47
639.11	1263.25
639.45	1255.42
639.80	1246.78
640.14	1237.92
640.49	1229.17
640.83	1220.39
641.17	1212.26
641.52	1204.13
641.86	1195.53
642.20	1187.72
642.55	1179.21
642.89	1170.19
643.23	1161.56
643.58	1153.42
643.92	1144.54
644.26	1135.71
644.61	1127.24
644.95	1118.44
645.29	1109.23
645.64	1099.97
645.98	1091.42
646.32	1083.47
646.66	1074.98
647.01	1066.69
647.35	1058.52
647.69	1050.09
648.04	1041.79
648.38	1032.93
648.72	1024.01
649.06	1015.55
649.41	1007.29
649.75	999.30
650.09	991.60
650.43	983.46
650.78	975.15
651.12	967.38
651.46	959.96
651.80	952.67
652.14	945.41
652.49	937.77
652.83	930.42
653.17	922.77
653.51	915.10
653.85	907.87
654.20	900.58
654.54	893.08
654.88	885.81
655.22	878.55
655.56	871.47
655.90	864.68
656.25	857.97
656.59	851.11
656.93	844.08
657.27	836.86
657.61	829.94
657.95	823.73
658.29	817.75
658.64	811.60
658.98	805.17
659.32	798.54
659.66	792.29
660.00	786.01
660.34	779.88
660.68	773.67
661.02	767.25
661.36	761.20
661.70	755.37
662.05	749.76
662.39	744.18
662.73	738.82
663.07	733.40
663.41	727.68
663.75	721.91
664.09	716.16
664.43	710.61
664.77	705.22
665.11	699.42
665.45	693.45
665.79	687.63
666.13	681.84
666.47	676.30
666.81	670.85
667.15	665.31
667.49	660.08
667.83	654.86
668.17	649.60
668.51	644.42
668.85	639.42
669.19	634.44
669.53	629.45
669.87	624.25
670.21	619.45
670.55	614.82
670.89	610.32
671.23	605.98
671.57	601.58
671.91	597.26
672.25	593.14
672.58	588.96
672.92	584.88
673.26	580.91
673.60	577.03
673.94	573.17
674.28	569.59
674.62	565.80
674.96	561.98
675.30	558.43
675.64	554.81
675.97	551.15
676.31	547.54
676.65	543.88
676.99	540.39
677.33	536.51
677.67	532.74
678.01	528.86
678.34	525.18
678.68	521.63
679.02	518.00
679.36	514.22
679.70	510.56
680.04	506.94
680.37	503.46
680.71	500.02
681.05	496.80
681.39	493.45
681.73	490.25
682.06	487.15
682.40	484.01
682.74	480.78
683.08	477.59
683.42	474.34
683.75	471.26
684.09	468.22
684.43	465.42
684.77	462.47
685.10	459.61
685.44	456.65
685.78	453.69
686.12	450.89
686.45	448.15
686.79	445.45
687.13	442.88
687.46	440.18
687.80	437.46
688.14	434.56
688.48	431.92
688.81	429.24
689.15	426.63
689.49	423.96
689.82	421.36
690.16	418.65
690.50	416.16
690.83	413.64
691.17	411.07
691.51	408.51
691.84	406.19
692.18	403.91
692.52	401.67
692.85	399.53
693.19	397.35
693.52	395.13
693.86	392.89
694.20	390.66
694.53	388.54
694.87	386.38
695.21	384.23
695.54	382.01
695.88	379.80
696.21	377.58
696.55	375.44
696.88	373.34
697.22	371.37
697.56	369.49
697.89	367.60
698.23	365.81
698.56	364.05
698.90	362.27
699.23	360.35
699.57	358.47
699.90	356.54
700.24	354.68
700.58	352.94
700.91	351.26
701.25	349.63
701.58	347.95
701.92	346.34
702.25	344.71
702.59	343.12
702.92	341.55
703.26	339.97
703.59	338.48
703.93	337.21
704.26	335.74
704.60	334.13
704.93	332.62
705.26	331.10
705.60	329.61
705.93	328.07
706.27	326.72
706.60	325.39
706.94	324.15
707.27	322.75
707.61	321.40
707.94	320.01
708.27	318.49
708.61	317.02
708.94	315.57
709.28	314.29
709.61	312.97
709.94	311.71
710.28	310.50
710.61	309.31
710.95	307.90
711.28	306.79
711.61	305.60
711.95	304.44
712.28	303.21
712.61	302.00
712.95	300.91
713.28	299.83
713.61	298.66
713.95	297.50
714.28	296.47
714.61	295.39
714.95	294.36
715.28	293.32
715.61	292.29
715.95	291.36
716.28	290.31
716.61	289.32
716.95	288.33
717.28	287.33
717.61	286.35
717.94	285.41
718.28	284.40
718.61	283.50
718.94	282.60
719.27	281.74
719.61	280.88
719.94	280.03
720.27	279.06
720.60	278.22
720.94	277.38
721.27	276.57
721.60	275.80
721.93	275.10
722.27	274.47
722.60	273.82
722.93	273.08
723.26	272.44
723.59	271.74
723.93	271.09
724.26	270.47
724.59	269.80
724.92	269.21
725.25	268.64
725.59	268.07
725.92	267.50
726.25	266.91
726.58	266.34
726.91	265.73
727.24	265.19
727.57	264.64
727.91	263.99
728.24	263.44
728.57	262.87
728.90	262.28
729.23	261.62
729.56	261.15
729.89	260.64
730.22	260.07
730.55	259.52
730.89	258.98
731.22	258.40
731.55	257.90
731.88	257.36
732.21	256.78
732.54	256.23
732.87	255.71
733.20	255.22
733.53	254.72
733.86	254.24
734.19	253.77
734.52	253.33
734.85	253.07
735.18	252.61
735.51	252.23
735.84	251.79
736.17	251.44
736.50	250.93
736.83	250.72
737.16	250.34
737.49	249.97
737.82	249.51
738.15	249.12
738.48	248.75
738.81	248.34
739.14	247.96
739.47	247.55
739.80	247.16
740.13	246.82
740.46	246.41
740.79	246.02
741.12	245.63
741.45	245.26
741.78	244.82
742.11	244.55
742.44	244.16
742.77	243.89
743.10	243.53
743.43	243.16
743.75	242.60
744.08	242.52
744.41	242.17
744.74	241.87
745.07	241.52
745.40	241.19
745.73	240.94
746.06	240.63
746.39	240.32
746.71	240.02
747.04	239.65
747.37	239.34
747.70	239.06
748.03	238.77
748.36	238.47
748.68	238.12
749.01	237.71
749.34	237.39
749.67	237.07
750.00	236.78
750.33	236.63
750.65	236.37
750.98	235.82
751.31	235.55
751.64	235.30
751.97	235.19
752.29	234.91
752.62	234.55
752.95	234.28
753.28	234.02
753.60	233.76
753.93	233.59
754.26	233.36
754.59	233.05
754.91	232.77
755.24	232.53
755.57	232.32
755.90	232.10
756.22	231.87
756.55	231.63
756.88	231.38
757.20	231.05
757.53	230.77
757.86	230.57
758.19	230.39
758.51	230.16
758.84	229.84
759.17	229.63
759.49	229.49
759.82	229.42
760.15	229.23
760.47	229.02
760.80	228.77
761.13	228.65
761.45	228.47
761.78	228.35
762.11	228.18
762.43	227.99
762.76	227.83
763.08	227.68
763.41	227.50
763.74	227.37
764.06	227.20
764.39	227.08
764.71	226.91
765.04	226.72
765.37	226.59
765.69	226.44
766.02	226.29
766.34	226.12
766.67	225.87
767.00	225.78
767.32	225.77
767.65	225.76
767.97	225.55
768.30	225.47
768.62	225.30
768.95	225.12
769.27	224.99
769.60	224.88
769.92	224.70
770.25	224.53
770.57	224.38
770.90	224.28
771.22	224.12
771.55	224.00
771.87	223.92
772.20	223.77
772.52	223.82
772.85	223.95
773.17	223.82
773.50	223.73
773.82	223.63
774.15	223.42
774.47	223.19
774.80	223.07
775.12	222.98
775.45	222.87
775.77	222.79
776.09	222.70
776.42	222.59
776.74	222.56
777.07	222.50
777.39	222.42
777.72	222.30
778.04	222.25
778.36	222.15
778.69	222.05
779.01	221.96
779.33	221.70
779.66	221.35
779.98	221.26
780.31	221.17
780.63	221.17
780.95	221.12
781.28	221.08
781.60	221.01
781.92	220.93
782.25	220.87
782.57	220.78
782.89	220.69
783.22	220.62
783.54	220.53
783.86	220.49
784.19	220.41
784.51	220.42
784.83	220.34
785.16	220.28
785.48	220.20
785.80	220.19
786.12	220.16
786.45	220.12
786.77	220.10
787.09	220.02
787.42	219.85
787.74	219.80
788.06	219.72
788.38	219.63
788.71	219.54
789.03	219.50
789.35	219.48
789.67	219.42
789.99	219.37
790.32	219.28
790.64	219.24
790.96	219.35
791.28	219.20
791.61	219.12
791.93	219.09
792.25	219.05
792.57	219.13
792.89	219.05
793.21	219.01
793.54	218.93
793.86	218.88
794.18	218.83
794.50	218.74
794.82	218.70
795.14	218.70
795.47	218.71
795.79	218.64
796.11	218.57
796.43	218.51
796.75	218.44
797.07	218.41
797.39	218.37
797.71	218.18
798.04	218.15
798.36	218.11
798.68	218.06
799.00	218.02
799.32	217.89
799.64	217.89
799.96	217.85
800.28	217.83
800.60	217.78
800.92	217.76
801.24	217.73
801.56	217.72
801.89	217.66
802.21	217.64
802.53	217.59
802.85	217.59
803.17	217.66
803.49	217.62
803.81	217.58
804.13	217.50
804.45	217.46
804.77	217.46
805.09	217.46
805.41	217.44
805.73	217.37
806.05	217.28
806.37	217.24
806.69	217.22
807.01	217.21
807.33	217.21
807.65	217.16
807.97	217.23
808.28	217.17
808.60	217.15
808.92	217.09
809.24	217.20
809.56	217.15
809.88	217.06
810.20	217.05
810.52	217.07
810.84	217.06
811.16	217.01
811.48	216.98
811.80	217.02
812.12	216.98
812.43	217.00
812.75	216.98
813.07	216.92
813.39	216.87
813.71	216.82
814.03	216.78
814.35	216.74
814.67	216.65
814.98	216.61
815.30	216.57
815.62	216.54
815.94	216.39
816.26	216.38
816.58	216.34
816.89	216.34
817.21	216.29
817.53	216.29
817.85	216.29
818.17	216.27
818.48	216.16
818.80	216.17
819.12	216.11
819.44	216.05
819.76	216.02
820.07	216.01
820.39	215.99
820.71	216.00
821.03	215.98
821.34	215.93
821.66	215.95
821.98	215.98
822.30	215.94
822.61	216.04
822.93	216.00
823.25	215.95
823.57	215.89
823.88	215.90
824.20	215.86
824.52	215.85
824.83	215.84
825.15	215.80
825.47	215.78
825.79	215.81
826.10	215.80
826.42	215.79
826.74	215.79
827.05	215.76
827.37	215.77
827.69	215.75
828.00	215.74
828.32	215.74
828.64	215.69
828.95	215.78
829.27	215.68
829.58	215.68
829.90	215.73
830.22	215.75
830.53	215.70
830.85	215.69
831.17	215.63
831.48	215.58
831.80	215.58
832.11	215.55
832.43	215.50
832.75	215.51
833.06	215.61
833.38	215.53
833.69	215.50
834.01	215.48
834.32	215.44
834.64	215.40
834.96	215.37
835.27	215.33
835.59	215.26
835.90	215.23
836.22	215.17
836.53	215.11
836.85	215.06
837.16	215.25
837.48	215.23
837.79	215.29
838.11	215.28
838.42	215.30
838.74	215.29
839.05	215.27
839.37	215.25
839.68	215.13
840.00	215.11
840.31	215.13
840.63	215.11
840.94	215.10
841.26	215.08
841.57	215.05
841.88	215.08
842.20	215.05
842.51	215.02
842.83	215.05
843.14	215.23
843.46	215.24
843.77	215.10
844.08	215.08
844.40	215.00
844.71	215.00
845.03	214.95
845.34	214.95
845.65	214.93
845.97	214.94
846.28	214.95
846.60	214.99
846.91	214.96
847.22	214.95
847.54	214.97
847.85	215.00
848.16	214.98
848.48	214.92
848.79	214.99
849.10	215.02
849.42	215.04
849.73	214.83
850.04	214.82
850.36	214.74
850.67	214.76
850.98	214.78
851.30	214.77
851.61	214.78
851.92	214.76
852.23	214.83
852.55	214.84
852.86	214.82
853.17	214.82
853.49	214.84
853.80	214.88
854.11	214.90
854.42	214.91
854.74	214.90
855.05	214.91
855.36	214.80
855.67	214.78
855.99	214.75
856.30	215.01
856.61	215.01
856.92	215.00
857.23	215.02
857.55	215.01
857.86	214.98
858.17	215.03
858.48	215.00
858.79	214.95
859.11	214.93
859.42	214.94
859.73	214.92
860.04	214.92
860.35	214.88
860.66	214.84
860.98	214.80
861.29	214.83
861.60	214.81
861.91	214.86
862.22	214.83
862.53	214.80
862.84	214.52
863.16	214.54
863.47	214.53
863.78	214.50
864.09	214.51
864.40	214.51
864.71	214.46
865.02	214.50
865.33	214.48
865.64	214.45
865.95	214.41
866.27	214.54
866.58	214.50
866.89	214.50
867.20	214.48
867.51	214.47
867.82	214.47
868.13	214.53
868.44	214.50
868.75	214.53
869.06	214.53
869.37	214.59
869.68	214.51
869.99	214.54
870.30	214.56
870.61	214.56
870.92	214.57
871.23	214.56
871.54	214.56
871.85	214.61
872.16	214.61
872.47	214.60
872.78	214.48
873.09	214.53
873.40	214.53
873.71	214.58
874.02	214.58
874.33	214.55
874.64	214.50
874.95	214.53
875.26	214.46
875.56	214.46
875.87	214.46
876.18	214.49
876.49	214.71
876.80	214.70
877.11	214.67
877.42	214.68
877.73	214.70
878.04	214.65
878.35	214.66
878.66	214.67
878.96	214.68
879.27	214.63
879.58	214.59
879.89	214.56
880.20	214.58
880.51	214.57
880.82	214.58
881.12	214.60
881.43	214.57
881.74	214.60
882.05	214.59
882.36	214.62
882.67	214.64
882.97	214.40
883.28	214.35
883.59	214.32
883.90	214.34
884.21	214.35
884.51	214.36
884.82	214.33
885.13	214.35
885.44	214.37
885.74	214.39
886.05	214.42
886.36	214.41
886.67	214.35
886.98	214.48
887.28	214.52
887.59	214.49
887.90	214.47
888.20	214.44
888.51	214.50
888.82	214.44
889.13	214.43
889.43	214.60
889.74	214.62
890.05	214.62
890.35	214.60
890.66	214.59
890.97	214.57
891.28	214.56
891.58	214.56
891.89	214.59
892.20	214.62
892.50	214.54
892.81	214.55
893.12	214.53
893.42	214.42
893.73	214.41
894.04	214.43
894.34	214.44
894.65	214.46
894.95	214.40
895.26	214.41
895.57	214.49
895.87	214.29
896.18	214.33
896.48	214.35
896.79	214.36
897.10	214.35
897.40	214.37
897.71	214.37
898.01	214.32
898.32	214.29
898.63	214.25
898.93	214.28
899.24	214.30
899.54	214.29
899.85	214.31
900.15	214.31
900.46	214.33
900.76	214.35
901.07	214.34
901.38	214.31
901.68	214.33
901.99	214.23
902.29	214.24
902.60	214.21
902.90	214.20
903.21	214.16
903.51	214.18
903.82	214.21
904.12	214.21
904.43	214.24
904.73	214.22
905.03	214.20
905.34	214.39
905.64	214.37
905.95	214.36
906.25	214.32
906.56	214.30
906.86	214.30
907.17	214.29
907.47	214.28
907.77	214.28
908.08	214.25
908.38	214.29
908.69	214.32
908.99	214.37
909.30	214.40
909.60	214.39
909.90	214.39
910.21	214.33
910.51	214.32
910.81	214.33
911.12	214.36
911.42	214.38
911.73	214.15
912.03	214.16
912.33	214.25
912.64	214.25
912.94	214.26
913.24	214.21
913.55	214.22
913.85	214.23
914.15	214.28
914.46	214.31
914.76	214.25
915.06	214.26
915.37	214.20
915.67	214.17
915.97	214.22
916.27	214.18
916.58	214.20
916.88	214.16
917.18	214.10
917.49	214.19
917.79	214.18
918.09	214.24
918.39	214.29
918.70	214.24
919.00	214.22
919.30	214.34
919.60	214.29
919.91	214.24
920.21	214.28
920.51	214.21
920.81	214.19
921.12	214.24
921.42	214.21
921.72	214.25
922.02	214.26
922.32	214.26
922.63	214.27
922.93	214.34
923.23	214.37
923.53	214.38
923.83	214.27
924.13	214.34
924.44	214.32
924.74	214.34
925.04	214.40
925.34	214.37
925.64	214.22
925.94	214.24
926.24	214.36
926.55	214.29
926.85	214.35
927.15	214.35
927.45	214.33
927.75	214.30
928.05	214.30
928.35	214.28
928.65	214.31
928.95	214.31
929.26	214.27
929.56	214.32
929.86	214.37
930.16	214.36
930.46	214.34
930.76	214.33
931.06	214.25
931.36	214.18
931.66	214.22
931.96	214.23
932.26	214.26
932.56	214.18
932.86	214.21
933.16	214.18
933.46	214.17
933.76	214.16
934.06	214.24
934.36	214.30
934.66	214.30
934.96	214.27
935.26	214.28
935.56	214.30
935.86	214.26
936.16	214.23
936.46	214.23
936.76	214.24
937.06	214.20
937.36	214.22
937.66	214.24
937.96	214.24
938.26	214.23
938.56	214.21
938.86	214.23
939.16	214.26
939.46	214.28
939.76	214.27
940.06	214.28
940.35	214.22
940.65	214.09
940.95	214.10
941.25	214.05
941.55	213.96
941.85	213.97
942.15	213.99
942.45	214.05
942.75	214.03
943.04	214.02
943.34	214.07
943.64	214.04
943.94	214.01
944.24	213.99
944.54	214.02
944.84	214.00
945.13	213.98
945.43	213.96
945.73	213.95
946.03	213.94
946.33	213.90
946.62	213.88
946.92	213.90
947.22	213.90
947.52	213.91
947.82	214.00
948.11	213.96
948.41	213.93
948.71	213.87
949.01	213.88
949.31	213.85
949.60	213.83
949.90	213.85
950.20	213.84
950.50	213.86
950.79	213.83
951.09	213.89
951.39	213.83
951.69	213.78
951.98	213.83
952.28	213.87
952.58	213.88
952.87	213.86
953.17	213.89
953.47	213.88
953.76	213.85
954.06	213.81
954.36	213.77
954.66	213.77
954.95	213.82
955.25	213.84
955.55	213.85
955.84	213.82
956.14	213.83
956.44	213.85
956.73	213.82
957.03	213.83
957.32	213.81
957.62	213.85
957.92	213.95
958.21	213.91
958.51	214.14
958.81	214.15
959.10	214.18
959.40	214.23
959.69	214.25
959.99	214.30
960.29	214.32
960.58	214.30
960.88	214.38
961.17	214.36
961.47	214.35
961.76	214.35
962.06	214.42
962.36	214.39
962.65	214.40
962.95	214.41
963.24	214.38
963.54	214.42
963.83	214.40
964.13	214.38
964.42	214.32
964.72	214.11
965.01	214.11
965.31	214.13
965.60	214.07
965.90	214.21
966.19	214.19
966.49	214.18
966.78	214.18
967.08	214.16
967.37	214.15
967.67	214.11
967.96	214.13
968.26	214.13
968.55	214.19
968.85	214.18
969.14	214.20
969.43	214.22
969.73	214.19
970.02	214.20
970.32	214.15
970.61	214.20
970.91	214.17
971.20	214.13
971.49	214.09
971.79	214.11
972.08	213.95
972.38	213.96
972.67	213.97
972.96	214.00
973.26	213.95
973.55	214.04
973.85	214.04
974.14	214.06
974.43	214.07
974.73	214.01
975.02	213.98
975.31	213.97
975.61	213.98
975.90	213.98
976.19	213.96
976.49	214.00
976.78	214.01
977.07	214.05
977.37	214.09
977.66	214.13
977.95	214.10
978.24	214.12
978.54	214.18
978.83	214.17
979.12	214.17
979.42	214.19
979.71	214.13
980.00	214.13
980.29	214.13
980.59	214.07
980.88	214.13
981.17	214.16
981.46	214.16
981.76	214.15
982.05	214.21
982.34	214.21
982.63	214.19
982.93	214.16
983.22	214.20
983.51	214.22
983.80	214.25
984.09	214.28
984.39	214.25
984.68	214.23
984.97	214.25
985.26	214.20
985.55	214.18
985.85	214.16
986.14	214.18
986.43	214.17
986.72	214.15
987.01	214.06
987.30	214.02
987.59	214.02
987.89	214.01
988.18	213.96
988.47	213.96
988.76	213.94
989.05	213.93
989.34	213.87
989.63	213.91
989.92	213.86
990.22	213.85
990.51	213.86
990.80	213.84
991.09	213.84
991.38	213.86
991.67	213.85
991.96	213.81
992.25	213.83
992.54	213.80
992.83	213.84
993.12	213.85
993.41	213.90
993.70	213.98
993.99	214.03
994.28	214.03
994.58	214.07
994.87	214.07
995.16	214.08
995.45	214.04
995.74	213.94
996.03	213.96
996.32	213.96
996.61	213.98
996.90	213.99
997.19	213.95
997.48	213.97
997.77	213.97
998.06	214.01
998.34	213.98
998.63	213.93
998.92	213.94
999.21	213.97
999.50	213.94
999.79	213.83
1000.08	213.79
1000.37	213.85
1000.66	213.80
1000.95	213.84
1001.24	213.86
1001.53	213.90
1001.82	213.91
1002.11	213.86
1002.40	213.87
1002.68	213.93
1002.97	214.04
1003.26	214.03
1003.55	214.02
1003.84	214.03
1004.13	214.10
1004.42	214.10
1004.71	214.17
1004.99	214.14
1005.28	214.17
1005.57	214.20
1005.86	214.18
1006.15	214.18
1006.44	214.07
1006.72	214.11
1007.01	214.05
1007.30	214.02
1007.59	214.00
1007.88	213.99
1008.17	214.04
1008.45	214.00
1008.74	213.89
1009.03	213.82
1009.32	213.84
1009.60	213.83
1009.89	213.82
1010.18	213.73
1010.47	213.72
1010.76	213.71
1011.04	213.71
1011.33	213.76
1011.62	213.75
1011.91	213.79
1012.19	213.81
1012.48	213.87
1012.77	213.82
1013.05	213.95
1013.34	213.96
1013.63	213.95
1013.92	213.97
1014.20	213.95
1014.49	213.98
1014.78	214.03
1015.06	213.94
1015.35	213.95
1015.64	213.97
1015.92	214.00
1016.21	214.01
1016.50	214.01
1016.78	214.05
1017.07	214.08
1017.36	214.00
1017.64	213.97
1017.93	213.99
1018.22	213.97
1018.50	213.97
1018.79	213.97
1019.08	213.86
1019.36	213.89
1019.65	213.89
1019.93	213.96
1020.22	213.99
1020.51	214.11
1020.79	214.06
1021.08	213.74
1021.36	213.87
1021.65	213.61
1021.94	213.78
1022.22	214.14
1022.51	213.55
1022.79	215.34
1023.08	214.13
1023.36	216.65
1023.65	213.26
>>>>>End Processed Spectral Data<<<<<
