SpectraSuite Data File
++++++++++++++++++++++++++++++++++++
Date: Tue Jan 29 16:35:22 EST 2013
User: group
Dark Spectrum Present: No
Reference Spectrum Present: No
Number of Sampled Component Spectra: 1
Spectrometers: USB2E7196
Integration Time (usec): 65000 (USB2E7196)
Spectra Averaged: 100 (USB2E7196)
Boxcar Smoothing: 10 (USB2E7196)
Correct for Electrical Dark: No (USB2E7196)
Strobe/Lamp Enabled: No (USB2E7196)
Correct for Detector Non-linearity: No (USB2E7196)
Correct for Stray Light: No (USB2E7196)
Number of Pixels in Processed Spectrum: 2048
>>>>>Begin Processed Spectral Data<<<<<
339.09	0.00
339.48	201.42
339.86	203.35
340.24	204.50
340.63	206.01
341.01	210.50
341.39	208.42
341.78	210.33
342.16	211.37
342.54	211.84
342.93	200.81
343.31	210.92
343.69	211.47
344.07	211.91
344.46	212.36
344.84	212.78
345.22	212.97
345.60	213.25
345.99	213.44
346.37	213.57
346.75	213.69
347.13	213.75
347.52	213.82
347.90	213.99
348.28	213.99
348.66	214.08
349.05	214.06
349.43	214.09
349.81	214.17
350.19	214.25
350.57	214.35
350.96	214.42
351.34	214.55
351.72	214.66
352.10	214.78
352.48	214.87
352.87	214.91
353.25	214.93
353.63	215.00
354.01	215.09
354.39	215.20
354.77	215.29
355.15	215.46
355.54	215.55
355.92	215.58
356.30	215.72
356.68	215.96
357.06	216.06
357.44	216.13
357.82	216.18
358.20	216.26
358.58	216.34
358.97	216.46
359.35	216.58
359.73	216.72
360.11	216.79
360.49	216.87
360.87	216.95
361.25	217.08
361.63	217.20
362.01	217.28
362.39	217.31
362.77	217.39
363.15	217.41
363.53	217.45
363.91	217.48
364.29	217.52
364.67	217.33
365.05	217.38
365.43	217.43
365.81	217.52
366.19	217.63
366.57	217.74
366.95	217.71
367.33	217.67
367.71	217.65
368.09	217.69
368.47	217.69
368.85	217.68
369.23	217.69
369.61	217.60
369.99	217.64
370.37	217.65
370.75	217.73
371.13	217.68
371.51	217.64
371.89	217.64
372.27	217.65
372.65	217.63
373.03	217.60
373.41	217.59
373.78	217.50
374.16	217.37
374.54	217.28
374.92	217.24
375.30	217.22
375.68	217.15
376.06	217.11
376.44	217.05
376.82	217.00
377.19	216.95
377.57	216.92
377.95	216.81
378.33	216.75
378.71	216.55
379.09	216.54
379.47	216.49
379.84	216.41
380.22	216.31
380.60	216.24
380.98	216.14
381.36	216.08
381.73	215.99
382.11	215.99
382.49	215.93
382.87	215.87
383.25	215.81
383.62	215.99
384.00	215.91
384.38	215.89
384.76	215.88
385.13	215.90
385.51	215.82
385.89	215.75
386.27	215.70
386.64	215.73
387.02	215.64
387.40	215.55
387.78	215.52
388.15	215.51
388.53	215.47
388.91	215.44
389.29	215.40
389.66	215.42
390.04	215.36
390.42	215.36
390.79	215.35
391.17	215.32
391.55	215.06
391.92	215.06
392.30	215.06
392.68	215.02
393.05	215.03
393.43	215.06
393.81	215.06
394.18	215.04
394.56	215.00
394.94	215.09
395.31	215.10
395.69	215.17
396.06	215.21
396.44	215.25
396.82	215.28
397.19	215.35
397.57	215.37
397.95	215.44
398.32	215.40
398.70	215.41
399.07	215.47
399.45	215.52
399.82	215.55
400.20	215.58
400.58	215.64
400.95	215.63
401.33	215.74
401.70	215.94
402.08	216.01
402.45	216.15
402.83	216.25
403.20	216.38
403.58	216.45
403.95	216.60
404.33	216.76
404.71	216.91
405.08	217.20
405.46	217.36
405.83	217.54
406.21	217.75
406.58	218.01
406.96	218.24
407.33	218.53
407.70	218.80
408.08	219.23
408.45	219.56
408.83	219.95
409.20	220.29
409.58	220.59
409.95	221.10
410.33	221.54
410.70	222.01
411.08	222.56
411.45	223.12
411.82	223.71
412.20	224.40
412.57	225.25
412.95	225.84
413.32	226.70
413.69	227.54
414.07	228.47
414.44	229.48
414.82	230.57
415.19	231.76
415.56	233.02
415.94	234.24
416.31	235.69
416.68	237.07
417.06	238.68
417.43	240.23
417.81	241.97
418.18	243.75
418.55	245.66
418.93	247.72
419.30	249.86
419.67	252.09
420.04	254.39
420.42	256.76
420.79	259.59
421.16	262.38
421.54	265.31
421.91	268.28
422.28	271.36
422.66	274.62
423.03	277.84
423.40	281.18
423.77	284.81
424.15	288.48
424.52	292.34
424.89	296.49
425.26	300.60
425.64	304.48
426.01	308.77
426.38	313.21
426.75	317.74
427.13	322.47
427.50	327.43
427.87	332.63
428.24	337.85
428.61	342.83
428.99	348.35
429.36	354.36
429.73	360.22
430.10	366.11
430.47	372.21
430.85	378.57
431.22	385.20
431.59	392.34
431.96	399.13
432.33	406.62
432.70	413.87
433.08	422.35
433.45	430.45
433.82	438.46
434.19	447.30
434.56	456.06
434.93	464.41
435.30	472.69
435.68	481.82
436.05	490.79
436.42	499.71
436.79	507.87
437.16	516.62
437.53	526.01
437.90	535.19
438.27	544.09
438.64	553.26
439.01	561.88
439.38	569.40
439.75	576.73
440.13	585.11
440.50	593.13
440.87	599.61
441.24	606.23
441.61	613.60
441.98	619.06
442.35	625.31
442.72	631.66
443.09	637.67
443.46	641.39
443.83	643.95
444.20	646.22
444.57	649.35
444.94	650.87
445.31	652.30
445.68	653.65
446.05	654.31
446.42	653.59
446.79	652.67
447.16	651.59
447.53	650.89
447.90	647.63
448.27	644.27
448.64	639.58
449.01	636.29
449.37	630.38
449.74	624.74
450.11	617.90
450.48	610.51
450.85	603.05
451.22	596.61
451.59	590.46
451.96	584.58
452.33	576.71
452.70	569.55
453.07	561.00
453.43	552.41
453.80	544.07
454.17	536.00
454.54	528.37
454.91	520.20
455.28	512.13
455.65	504.76
456.02	497.27
456.38	490.91
456.75	482.98
457.12	476.43
457.49	469.86
457.86	463.60
458.23	458.16
458.59	452.33
458.96	446.30
459.33	440.95
459.70	435.55
460.07	431.23
460.43	426.32
460.80	421.71
461.17	417.69
461.54	413.51
461.91	409.51
462.27	405.39
462.64	401.95
463.01	398.13
463.38	394.39
463.74	390.67
464.11	387.42
464.48	384.59
464.85	381.49
465.21	379.04
465.58	376.41
465.95	373.29
466.32	370.60
466.68	367.97
467.05	365.39
467.42	362.81
467.78	360.19
468.15	357.64
468.52	355.78
468.88	353.28
469.25	351.08
469.62	349.29
469.98	347.38
470.35	345.51
470.72	343.83
471.08	342.00
471.45	340.52
471.82	338.98
472.18	337.30
472.55	336.04
472.92	334.59
473.28	333.40
473.65	332.24
474.02	331.12
474.38	330.21
474.75	329.43
475.11	328.61
475.48	328.00
475.85	327.48
476.21	327.00
476.58	326.67
476.94	326.45
477.31	326.09
477.67	325.80
478.04	325.67
478.41	325.67
478.77	325.79
479.14	325.74
479.50	325.88
479.87	326.17
480.23	326.53
480.60	326.85
480.96	327.10
481.33	327.73
481.69	328.29
482.06	328.79
482.42	329.27
482.79	329.87
483.15	330.71
483.52	331.64
483.88	332.49
484.25	333.39
484.61	334.41
484.98	335.51
485.34	336.86
485.71	338.26
486.07	339.64
486.44	341.02
486.80	342.66
487.17	344.36
487.53	346.20
487.90	348.07
488.26	350.14
488.62	352.30
488.99	354.33
489.35	356.53
489.72	359.00
490.08	361.53
490.44	364.09
490.81	366.75
491.17	369.54
491.54	372.58
491.90	375.58
492.26	378.78
492.63	382.18
492.99	385.64
493.36	389.32
493.72	393.25
494.08	397.21
494.45	401.42
494.81	405.75
495.17	410.21
495.54	414.94
495.90	419.72
496.26	424.67
496.63	429.89
496.99	435.26
497.35	440.84
497.72	446.66
498.08	452.63
498.44	458.78
498.80	465.17
499.17	471.60
499.53	478.40
499.89	485.33
500.26	492.30
500.62	499.43
500.98	506.82
501.34	514.32
501.71	522.22
502.07	530.03
502.43	538.10
502.79	546.25
503.16	554.64
503.52	563.30
503.88	572.03
504.24	581.04
504.60	590.26
504.97	599.54
505.33	608.91
505.69	618.81
506.05	628.67
506.41	638.64
506.78	648.79
507.14	659.05
507.50	669.49
507.86	680.29
508.22	691.05
508.59	701.72
508.95	712.78
509.31	724.04
509.67	735.56
510.03	746.93
510.39	758.78
510.75	770.64
511.12	782.56
511.48	794.75
511.84	807.06
512.20	819.35
512.56	832.04
512.92	844.82
513.28	857.56
513.64	870.47
514.00	883.38
514.37	896.49
514.73	909.77
515.09	922.95
515.45	935.87
515.81	949.06
516.17	962.55
516.53	975.91
516.89	989.08
517.25	1002.33
517.61	1015.92
517.97	1029.44
518.33	1042.64
518.69	1056.32
519.05	1070.10
519.41	1083.81
519.77	1097.76
520.13	1111.10
520.49	1124.49
520.85	1137.93
521.21	1151.27
521.57	1164.99
521.93	1178.12
522.29	1191.90
522.65	1205.52
523.01	1219.22
523.37	1232.40
523.73	1245.81
524.09	1259.03
524.45	1272.54
524.81	1286.23
525.17	1299.89
525.53	1313.08
525.89	1326.47
526.25	1339.71
526.61	1352.72
526.97	1365.94
527.33	1379.01
527.68	1392.57
528.04	1406.15
528.40	1419.42
528.76	1432.88
529.12	1445.87
529.48	1459.31
529.84	1471.64
530.20	1484.52
530.56	1497.24
530.91	1510.65
531.27	1523.65
531.63	1536.51
531.99	1549.30
532.35	1561.67
532.71	1574.13
533.07	1587.22
533.42	1599.67
533.78	1611.82
534.14	1623.93
534.50	1635.20
534.86	1646.90
535.21	1657.95
535.57	1669.50
535.93	1680.93
536.29	1692.26
536.65	1703.93
537.00	1714.90
537.36	1726.49
537.72	1737.66
538.08	1749.18
538.44	1760.38
538.79	1771.62
539.15	1782.83
539.51	1793.86
539.87	1805.26
540.22	1816.15
540.58	1827.08
540.94	1838.16
541.29	1848.63
541.65	1858.59
542.01	1869.28
542.37	1879.54
542.72	1889.83
543.08	1899.75
543.44	1910.19
543.79	1919.45
544.15	1928.94
544.51	1939.01
544.87	1948.94
545.22	1958.32
545.58	1967.42
545.94	1976.31
546.29	1984.97
546.65	1993.23
547.01	2001.44
547.36	2009.14
547.72	2017.02
548.07	2024.80
548.43	2032.55
548.79	2040.54
549.14	2048.73
549.50	2057.24
549.86	2065.14
550.21	2072.62
550.57	2080.41
550.92	2087.38
551.28	2095.06
551.64	2102.39
551.99	2110.06
552.35	2117.29
552.70	2124.28
553.06	2130.76
553.41	2137.02
553.77	2143.53
554.13	2150.09
554.48	2157.18
554.84	2164.38
555.19	2170.98
555.55	2177.47
555.90	2183.84
556.26	2190.66
556.61	2196.76
556.97	2201.56
557.32	2207.28
557.68	2213.75
558.03	2219.48
558.39	2224.87
558.74	2230.81
559.10	2236.33
559.45	2241.98
559.81	2247.65
560.16	2253.04
560.52	2259.22
560.87	2265.78
561.23	2271.72
561.58	2278.27
561.94	2283.59
562.29	2288.34
562.64	2294.44
563.00	2300.19
563.35	2305.66
563.71	2311.38
564.06	2317.20
564.42	2323.28
564.77	2328.39
565.12	2333.63
565.48	2338.84
565.83	2344.21
566.19	2349.45
566.54	2354.67
566.89	2359.06
567.25	2363.62
567.60	2369.48
567.96	2374.50
568.31	2379.05
568.66	2383.40
569.02	2387.32
569.37	2390.98
569.72	2395.33
570.08	2398.83
570.43	2401.83
570.78	2404.97
571.14	2407.45
571.49	2410.42
571.84	2413.89
572.20	2416.81
572.55	2419.74
572.90	2421.88
573.26	2424.74
573.61	2427.36
573.96	2429.52
574.31	2431.76
574.67	2433.45
575.02	2434.10
575.37	2435.52
575.72	2436.06
576.08	2437.39
576.43	2437.44
576.78	2437.93
577.13	2439.33
577.49	2440.18
577.84	2441.14
578.19	2442.38
578.54	2442.76
578.90	2443.43
579.25	2443.27
579.60	2443.05
579.95	2442.13
580.30	2442.17
580.66	2441.42
581.01	2439.73
581.36	2437.40
581.71	2435.82
582.06	2434.64
582.42	2433.68
582.77	2431.30
583.12	2429.56
583.47	2428.01
583.82	2427.36
584.17	2425.95
584.53	2423.85
584.88	2421.78
585.23	2419.74
585.58	2417.37
585.93	2415.38
586.28	2413.09
586.63	2410.58
586.98	2408.45
587.34	2406.43
587.69	2403.89
588.04	2401.71
588.39	2400.22
588.74	2397.66
589.09	2394.75
589.44	2391.60
589.79	2388.98
590.14	2386.95
590.49	2384.20
590.84	2380.46
591.19	2377.26
591.54	2373.95
591.89	2369.73
592.25	2366.55
592.60	2362.34
592.95	2358.17
593.30	2353.99
593.65	2349.43
594.00	2344.79
594.35	2341.70
594.70	2336.96
595.05	2332.36
595.40	2326.90
595.75	2320.93
596.10	2317.24
596.45	2312.49
596.80	2307.73
597.15	2302.43
597.50	2296.47
597.85	2291.36
598.19	2286.00
598.54	2280.28
598.89	2275.05
599.24	2270.50
599.59	2264.10
599.94	2258.09
600.29	2252.03
600.64	2245.97
600.99	2239.21
601.34	2233.80
601.69	2226.73
602.04	2220.31
602.39	2213.66
602.74	2207.46
603.08	2201.95
603.43	2195.45
603.78	2188.43
604.13	2181.33
604.48	2174.03
604.83	2167.68
605.18	2161.44
605.53	2154.35
605.87	2147.20
606.22	2140.35
606.57	2132.38
606.92	2124.47
607.27	2117.47
607.62	2110.84
607.96	2103.90
608.31	2097.38
608.66	2089.57
609.01	2081.92
609.36	2074.74
609.70	2066.87
610.05	2059.08
610.40	2050.70
610.75	2042.34
611.10	2034.65
611.44	2025.72
611.79	2017.03
612.14	2007.15
612.49	1996.38
612.83	1987.00
613.18	1977.71
613.53	1968.30
613.88	1958.64
614.22	1950.04
614.57	1940.22
614.92	1929.53
615.27	1919.18
615.61	1909.06
615.96	1899.26
616.31	1889.59
616.65	1880.22
617.00	1870.44
617.35	1860.61
617.70	1850.81
618.04	1840.67
618.39	1830.31
618.74	1820.69
619.08	1811.09
619.43	1802.41
619.78	1794.21
620.12	1785.70
620.47	1776.04
620.82	1765.75
621.16	1756.00
621.51	1745.99
621.85	1736.00
622.20	1725.81
622.55	1715.25
622.89	1705.29
623.24	1695.65
623.59	1685.85
623.93	1675.56
624.28	1665.90
624.62	1655.82
624.97	1645.56
625.32	1635.74
625.66	1626.95
626.01	1618.03
626.35	1608.55
626.70	1598.46
627.04	1588.37
627.39	1578.02
627.73	1568.75
628.08	1559.75
628.43	1550.18
628.77	1540.99
629.12	1532.20
629.46	1524.20
629.81	1515.90
630.15	1506.43
630.50	1496.58
630.84	1486.02
631.19	1476.26
631.53	1466.97
631.88	1456.82
632.22	1446.80
632.57	1437.56
632.91	1427.43
633.26	1417.58
633.60	1408.01
633.95	1398.70
634.29	1389.18
634.64	1379.99
634.98	1369.97
635.32	1360.70
635.67	1352.22
636.01	1342.91
636.36	1333.17
636.70	1323.67
637.05	1314.25
637.39	1305.40
637.73	1296.70
638.08	1289.18
638.42	1280.96
638.77	1272.13
639.11	1263.86
639.45	1256.16
639.80	1247.56
640.14	1238.82
640.49	1229.95
640.83	1221.11
641.17	1212.92
641.52	1204.82
641.86	1196.23
642.20	1188.44
642.55	1179.80
642.89	1170.86
643.23	1162.23
643.58	1154.16
643.92	1145.01
644.26	1136.25
644.61	1127.67
644.95	1118.91
645.29	1109.68
645.64	1100.45
645.98	1091.86
646.32	1083.93
646.66	1075.32
647.01	1066.95
647.35	1058.79
647.69	1050.43
648.04	1042.10
648.38	1033.18
648.72	1024.36
649.06	1015.88
649.41	1007.59
649.75	999.56
650.09	991.69
650.43	983.55
650.78	975.10
651.12	967.45
651.46	960.10
651.80	952.81
652.14	945.51
652.49	937.92
652.83	930.63
653.17	922.95
653.51	915.27
653.85	908.00
654.20	900.71
654.54	893.27
654.88	886.04
655.22	878.72
655.56	871.76
655.90	864.92
656.25	858.15
656.59	851.26
656.93	844.23
657.27	837.01
657.61	830.05
657.95	823.95
658.29	818.04
658.64	811.83
658.98	805.36
659.32	798.69
659.66	792.44
660.00	786.01
660.34	779.89
660.68	773.83
661.02	767.36
661.36	761.35
661.70	755.40
662.05	749.71
662.39	744.28
662.73	738.77
663.07	733.32
663.41	727.69
663.75	721.91
664.09	716.17
664.43	710.73
664.77	705.31
665.11	699.43
665.45	693.45
665.79	687.54
666.13	681.80
666.47	676.33
666.81	670.86
667.15	665.43
667.49	660.19
667.83	654.82
668.17	649.60
668.51	644.43
668.85	639.49
669.19	634.52
669.53	629.45
669.87	624.34
670.21	619.59
670.55	614.87
670.89	610.37
671.23	606.04
671.57	601.64
671.91	597.30
672.25	593.11
672.58	588.93
672.92	584.85
673.26	580.87
673.60	576.97
673.94	573.13
674.28	569.46
674.62	565.73
674.96	562.00
675.30	558.43
675.64	554.72
675.97	551.15
676.31	547.49
676.65	543.89
676.99	540.40
677.33	536.45
677.67	532.76
678.01	528.87
678.34	525.26
678.68	521.68
679.02	518.08
679.36	514.37
679.70	510.69
680.04	507.12
680.37	503.58
680.71	500.13
681.05	496.89
681.39	493.58
681.73	490.30
682.06	487.22
682.40	484.12
682.74	480.91
683.08	477.64
683.42	474.42
683.75	471.35
684.09	468.31
684.43	465.50
684.77	462.47
685.10	459.59
685.44	456.55
685.78	453.62
686.12	450.79
686.45	448.03
686.79	445.34
687.13	442.78
687.46	440.14
687.80	437.43
688.14	434.50
688.48	431.83
688.81	429.13
689.15	426.53
689.49	423.85
689.82	421.28
690.16	418.58
690.50	416.09
690.83	413.55
691.17	410.91
691.51	408.41
691.84	406.19
692.18	403.92
692.52	401.68
692.85	399.50
693.19	397.33
693.52	395.13
693.86	392.85
694.20	390.55
694.53	388.40
694.87	386.20
695.21	384.10
695.54	381.92
695.88	379.74
696.21	377.49
696.55	375.37
696.88	373.28
697.22	371.31
697.56	369.35
697.89	367.45
698.23	365.71
698.56	363.90
698.90	362.06
699.23	360.14
699.57	358.21
699.90	356.27
700.24	354.41
700.58	352.64
700.91	350.95
701.25	349.40
701.58	347.75
701.92	346.16
702.25	344.55
702.59	342.88
702.92	341.31
703.26	339.79
703.59	338.28
703.93	336.98
704.26	335.56
704.60	334.10
704.93	332.60
705.26	331.04
705.60	329.50
705.93	327.92
706.27	326.57
706.60	325.32
706.94	324.10
707.27	322.72
707.61	321.32
707.94	319.97
708.27	318.45
708.61	316.99
708.94	315.59
709.28	314.23
709.61	313.04
709.94	311.80
710.28	310.53
710.61	309.30
710.95	307.87
711.28	306.77
711.61	305.52
711.95	304.32
712.28	303.12
712.61	301.95
712.95	300.92
713.28	299.87
713.61	298.74
713.95	297.56
714.28	296.51
714.61	295.45
714.95	294.42
715.28	293.36
715.61	292.30
715.95	291.31
716.28	290.35
716.61	289.34
716.95	288.36
717.28	287.40
717.61	286.40
717.94	285.49
718.28	284.43
718.61	283.54
718.94	282.63
719.27	281.74
719.61	280.90
719.94	280.04
720.27	279.07
720.60	278.11
720.94	277.29
721.27	276.49
721.60	275.82
721.93	275.08
722.27	274.45
722.60	273.79
722.93	273.08
723.26	272.39
723.59	271.69
723.93	271.05
724.26	270.40
724.59	269.72
724.92	269.11
725.25	268.54
725.59	268.00
725.92	267.47
726.25	266.90
726.58	266.30
726.91	265.70
727.24	265.15
727.57	264.64
727.91	264.07
728.24	263.51
728.57	262.91
728.90	262.33
729.23	261.77
729.56	261.30
729.89	260.73
730.22	260.17
730.55	259.63
730.89	259.04
731.22	258.47
731.55	257.99
731.88	257.45
732.21	256.89
732.54	256.32
732.87	255.78
733.20	255.29
733.53	254.80
733.86	254.33
734.19	253.83
734.52	253.37
734.85	253.04
735.18	252.57
735.51	252.17
735.84	251.70
736.17	251.31
736.50	250.81
736.83	250.65
737.16	250.27
737.49	249.89
737.82	249.50
738.15	249.14
738.48	248.74
738.81	248.32
739.14	247.90
739.47	247.50
739.80	247.18
740.13	246.81
740.46	246.41
740.79	246.00
741.12	245.63
741.45	245.30
741.78	244.86
742.11	244.59
742.44	244.21
742.77	243.93
743.10	243.55
743.43	243.22
743.75	242.62
744.08	242.52
744.41	242.13
744.74	241.74
745.07	241.35
745.40	241.06
745.73	240.82
746.06	240.50
746.39	240.22
746.71	239.81
747.04	239.46
747.37	239.13
747.70	238.84
748.03	238.53
748.36	238.22
748.68	237.91
749.01	237.54
749.34	237.23
749.67	236.91
750.00	236.62
750.33	236.45
750.65	236.23
750.98	235.72
751.31	235.50
751.64	235.30
751.97	235.19
752.29	234.92
752.62	234.60
752.95	234.35
753.28	234.06
753.60	233.85
753.93	233.69
754.26	233.48
754.59	233.21
754.91	232.96
755.24	232.73
755.57	232.49
755.90	232.22
756.22	231.98
756.55	231.71
756.88	231.45
757.20	231.11
757.53	230.84
757.86	230.62
758.19	230.42
758.51	230.19
758.84	229.84
759.17	229.63
759.49	229.43
759.82	229.33
760.15	229.16
760.47	228.95
760.80	228.72
761.13	228.54
761.45	228.35
761.78	228.16
762.11	227.97
762.43	227.79
762.76	227.65
763.08	227.52
763.41	227.39
763.74	227.27
764.06	227.08
764.39	226.96
764.71	226.80
765.04	226.62
765.37	226.48
765.69	226.36
766.02	226.21
766.34	226.08
766.67	225.84
767.00	225.76
767.32	225.73
767.65	225.71
767.97	225.55
768.30	225.44
768.62	225.34
768.95	225.19
769.27	225.07
769.60	224.95
769.92	224.78
770.25	224.64
770.57	224.48
770.90	224.36
771.22	224.17
771.55	224.04
771.87	223.97
772.20	223.87
772.52	223.92
772.85	224.06
773.17	223.91
773.50	223.82
773.82	223.69
774.15	223.49
774.47	223.25
774.80	223.14
775.12	223.06
775.45	222.94
775.77	222.87
776.09	222.75
776.42	222.67
776.74	222.66
777.07	222.54
777.39	222.50
777.72	222.39
778.04	222.35
778.36	222.26
778.69	222.15
779.01	222.08
779.33	221.83
779.66	221.54
779.98	221.50
780.31	221.42
780.63	221.41
780.95	221.38
781.28	221.33
781.60	221.25
781.92	221.17
782.25	221.12
782.57	221.07
782.89	221.01
783.22	220.92
783.54	220.81
783.86	220.75
784.19	220.65
784.51	220.65
784.83	220.57
785.16	220.51
785.48	220.44
785.80	220.35
786.12	220.29
786.45	220.20
786.77	220.13
787.09	220.08
787.42	219.91
787.74	219.83
788.06	219.76
788.38	219.71
788.71	219.61
789.03	219.55
789.35	219.52
789.67	219.45
789.99	219.40
790.32	219.32
790.64	219.31
790.96	219.39
791.28	219.28
791.61	219.26
791.93	219.21
792.25	219.16
792.57	219.27
792.89	219.18
793.21	219.14
793.54	219.06
793.86	218.96
794.18	218.94
794.50	218.87
794.82	218.86
795.14	218.84
795.47	218.86
795.79	218.81
796.11	218.69
796.43	218.65
796.75	218.60
797.07	218.58
797.39	218.53
797.71	218.36
798.04	218.33
798.36	218.25
798.68	218.20
799.00	218.16
799.32	218.03
799.64	218.04
799.96	218.02
800.28	218.02
800.60	218.00
800.92	218.00
801.24	217.94
801.56	217.90
801.89	217.85
802.21	217.80
802.53	217.73
802.85	217.76
803.17	217.82
803.49	217.76
803.81	217.69
804.13	217.66
804.45	217.59
804.77	217.60
805.09	217.56
805.41	217.52
805.73	217.47
806.05	217.39
806.37	217.33
806.69	217.25
807.01	217.21
807.33	217.18
807.65	217.06
807.97	217.14
808.28	217.08
808.60	217.05
808.92	217.01
809.24	217.08
809.56	217.01
809.88	216.89
810.20	216.91
810.52	216.92
810.84	216.83
811.16	216.79
811.48	216.74
811.80	216.83
812.12	216.80
812.43	216.83
812.75	216.82
813.07	216.82
813.39	216.80
813.71	216.77
814.03	216.74
814.35	216.79
814.67	216.64
814.98	216.61
815.30	216.56
815.62	216.50
815.94	216.36
816.26	216.35
816.58	216.30
816.89	216.28
817.21	216.20
817.53	216.23
817.85	216.22
818.17	216.17
818.48	216.06
818.80	216.07
819.12	216.01
819.44	215.95
819.76	215.89
820.07	215.87
820.39	215.84
820.71	215.86
821.03	215.80
821.34	215.80
821.66	215.79
821.98	215.80
822.30	215.76
822.61	215.86
822.93	215.85
823.25	215.83
823.57	215.77
823.88	215.80
824.20	215.75
824.52	215.77
824.83	215.76
825.15	215.70
825.47	215.68
825.79	215.68
826.10	215.66
826.42	215.64
826.74	215.68
827.05	215.66
827.37	215.65
827.69	215.63
828.00	215.61
828.32	215.61
828.64	215.59
828.95	215.73
829.27	215.66
829.58	215.66
829.90	215.71
830.22	215.73
830.53	215.68
830.85	215.68
831.17	215.62
831.48	215.60
831.80	215.58
832.11	215.55
832.43	215.51
832.75	215.49
833.06	215.63
833.38	215.53
833.69	215.51
834.01	215.49
834.32	215.48
834.64	215.51
834.96	215.52
835.27	215.48
835.59	215.39
835.90	215.35
836.22	215.34
836.53	215.28
836.85	215.21
837.16	215.42
837.48	215.41
837.79	215.49
838.11	215.49
838.42	215.53
838.74	215.57
839.05	215.55
839.37	215.54
839.68	215.40
840.00	215.41
840.31	215.42
840.63	215.41
840.94	215.35
841.26	215.28
841.57	215.26
841.88	215.29
842.20	215.27
842.51	215.25
842.83	215.20
843.14	215.38
843.46	215.42
843.77	215.30
844.08	215.30
844.40	215.23
844.71	215.19
845.03	215.15
845.34	215.08
845.65	215.06
845.97	215.07
846.28	215.08
846.60	215.08
846.91	215.04
847.22	215.06
847.54	215.12
847.85	215.12
848.16	215.08
848.48	215.02
848.79	215.10
849.10	215.11
849.42	215.14
849.73	214.94
850.04	214.88
850.36	214.79
850.67	214.80
850.98	214.81
851.30	214.85
851.61	214.85
851.92	214.87
852.23	214.96
852.55	214.94
852.86	214.94
853.17	214.95
853.49	215.02
853.80	215.04
854.11	215.04
854.42	215.07
854.74	215.04
855.05	215.06
855.36	214.94
855.67	214.95
855.99	214.94
856.30	215.20
856.61	215.20
856.92	215.20
857.23	215.18
857.55	215.11
857.86	215.08
858.17	215.11
858.48	215.09
858.79	215.04
859.11	215.07
859.42	215.02
859.73	214.99
860.04	214.95
860.35	214.89
860.66	214.84
860.98	214.82
861.29	214.86
861.60	214.85
861.91	214.89
862.22	214.83
862.53	214.80
862.84	214.54
863.16	214.60
863.47	214.57
863.78	214.56
864.09	214.58
864.40	214.58
864.71	214.59
865.02	214.62
865.33	214.58
865.64	214.53
865.95	214.55
866.27	214.68
866.58	214.66
866.89	214.67
867.20	214.61
867.51	214.61
867.82	214.59
868.13	214.65
868.44	214.61
868.75	214.63
869.06	214.64
869.37	214.67
869.68	214.62
869.99	214.63
870.30	214.65
870.61	214.67
870.92	214.63
871.23	214.59
871.54	214.59
871.85	214.65
872.16	214.65
872.47	214.64
872.78	214.51
873.09	214.53
873.40	214.51
873.71	214.56
874.02	214.55
874.33	214.50
874.64	214.43
874.95	214.49
875.26	214.46
875.56	214.46
875.87	214.43
876.18	214.43
876.49	214.62
876.80	214.61
877.11	214.62
877.42	214.67
877.73	214.71
878.04	214.67
878.35	214.64
878.66	214.66
878.96	214.63
879.27	214.64
879.58	214.63
879.89	214.63
880.20	214.66
880.51	214.65
880.82	214.66
881.12	214.70
881.43	214.65
881.74	214.63
882.05	214.62
882.36	214.64
882.67	214.65
882.97	214.44
883.28	214.42
883.59	214.38
883.90	214.38
884.21	214.37
884.51	214.38
884.82	214.38
885.13	214.38
885.44	214.39
885.74	214.39
886.05	214.38
886.36	214.38
886.67	214.36
886.98	214.49
887.28	214.53
887.59	214.51
887.90	214.50
888.20	214.53
888.51	214.59
888.82	214.58
889.13	214.60
889.43	214.79
889.74	214.77
890.05	214.80
890.35	214.75
890.66	214.74
890.97	214.72
891.28	214.69
891.58	214.66
891.89	214.67
892.20	214.66
892.50	214.61
892.81	214.60
893.12	214.57
893.42	214.44
893.73	214.45
894.04	214.43
894.34	214.46
894.65	214.45
894.95	214.39
895.26	214.35
895.57	214.46
895.87	214.27
896.18	214.31
896.48	214.30
896.79	214.33
897.10	214.34
897.40	214.33
897.71	214.39
898.01	214.38
898.32	214.43
898.63	214.44
898.93	214.49
899.24	214.50
899.54	214.50
899.85	214.51
900.15	214.49
900.46	214.50
900.76	214.51
901.07	214.52
901.38	214.50
901.68	214.58
901.99	214.42
902.29	214.39
902.60	214.38
902.90	214.34
903.21	214.33
903.51	214.31
903.82	214.35
904.12	214.33
904.43	214.32
904.73	214.28
905.03	214.26
905.34	214.42
905.64	214.42
905.95	214.40
906.25	214.39
906.56	214.40
906.86	214.42
907.17	214.39
907.47	214.38
907.77	214.39
908.08	214.34
908.38	214.37
908.69	214.39
908.99	214.44
909.30	214.44
909.60	214.42
909.90	214.43
910.21	214.38
910.51	214.33
910.81	214.37
911.12	214.39
911.42	214.41
911.73	214.22
912.03	214.23
912.33	214.29
912.64	214.28
912.94	214.27
913.24	214.22
913.55	214.24
913.85	214.25
914.15	214.28
914.46	214.30
914.76	214.27
915.06	214.28
915.37	214.23
915.67	214.23
915.97	214.26
916.27	214.26
916.58	214.28
916.88	214.27
917.18	214.22
917.49	214.35
917.79	214.31
918.09	214.35
918.39	214.39
918.70	214.39
919.00	214.41
919.30	214.49
919.60	214.50
919.91	214.44
920.21	214.43
920.51	214.39
920.81	214.38
921.12	214.45
921.42	214.43
921.72	214.43
922.02	214.48
922.32	214.49
922.63	214.48
922.93	214.56
923.23	214.60
923.53	214.59
923.83	214.45
924.13	214.50
924.44	214.46
924.74	214.49
925.04	214.52
925.34	214.50
925.64	214.43
925.94	214.44
926.24	214.59
926.55	214.58
926.85	214.58
927.15	214.62
927.45	214.60
927.75	214.62
928.05	214.64
928.35	214.60
928.65	214.62
928.95	214.63
929.26	214.61
929.56	214.62
929.86	214.67
930.16	214.67
930.46	214.67
930.76	214.70
931.06	214.61
931.36	214.56
931.66	214.61
931.96	214.61
932.26	214.61
932.56	214.49
932.86	214.51
933.16	214.52
933.46	214.49
933.76	214.45
934.06	214.48
934.36	214.55
934.66	214.54
934.96	214.53
935.26	214.54
935.56	214.53
935.86	214.48
936.16	214.46
936.46	214.42
936.76	214.39
937.06	214.34
937.36	214.36
937.66	214.35
937.96	214.33
938.26	214.29
938.56	214.26
938.86	214.29
939.16	214.32
939.46	214.34
939.76	214.35
940.06	214.38
940.35	214.36
940.65	214.23
940.95	214.25
941.25	214.21
941.55	214.19
941.85	214.17
942.15	214.24
942.45	214.27
942.75	214.26
943.04	214.30
943.34	214.35
943.64	214.34
943.94	214.34
944.24	214.33
944.54	214.34
944.84	214.36
945.13	214.30
945.43	214.28
945.73	214.25
946.03	214.20
946.33	214.16
946.62	214.11
946.92	214.11
947.22	214.11
947.52	214.10
947.82	214.13
948.11	214.12
948.41	214.04
948.71	213.99
949.01	214.02
949.31	213.99
949.60	213.96
949.90	213.98
950.20	213.95
950.50	213.91
950.79	213.90
951.09	213.90
951.39	213.92
951.69	213.89
951.98	213.95
952.28	213.98
952.58	213.99
952.87	214.01
953.17	214.03
953.47	214.01
953.76	214.01
954.06	213.96
954.36	213.90
954.66	213.90
954.95	213.94
955.25	213.94
955.55	213.95
955.84	213.90
956.14	213.87
956.44	213.90
956.73	213.85
957.03	213.87
957.32	213.86
957.62	213.83
957.92	213.84
958.21	213.82
958.51	214.05
958.81	214.07
959.10	214.10
959.40	214.17
959.69	214.16
959.99	214.22
960.29	214.20
960.58	214.21
960.88	214.29
961.17	214.25
961.47	214.26
961.76	214.26
962.06	214.31
962.36	214.34
962.65	214.32
962.95	214.38
963.24	214.36
963.54	214.39
963.83	214.41
964.13	214.42
964.42	214.35
964.72	214.16
965.01	214.13
965.31	214.09
965.60	214.02
965.90	214.15
966.19	214.07
966.49	214.11
966.78	214.10
967.08	214.06
967.37	214.11
967.67	214.06
967.96	214.10
968.26	214.09
968.55	214.09
968.85	214.09
969.14	214.10
969.43	214.12
969.73	214.09
970.02	214.07
970.32	214.04
970.61	214.05
970.91	213.97
971.20	213.97
971.49	213.98
971.79	214.01
972.08	213.83
972.38	213.85
972.67	213.83
972.96	213.89
973.26	213.87
973.55	213.92
973.85	213.96
974.14	213.93
974.43	213.94
974.73	213.90
975.02	213.88
975.31	213.88
975.61	213.86
975.90	213.88
976.19	213.87
976.49	213.90
976.78	213.91
977.07	213.93
977.37	213.90
977.66	213.93
977.95	213.90
978.24	213.99
978.54	214.02
978.83	214.01
979.12	213.97
979.42	213.97
979.71	213.92
980.00	213.87
980.29	213.89
980.59	213.87
980.88	213.95
981.17	213.94
981.46	213.94
981.76	213.91
982.05	213.93
982.34	213.99
982.63	213.96
982.93	213.96
983.22	214.03
983.51	214.06
983.80	214.08
984.09	214.11
984.39	214.06
984.68	214.03
984.97	214.06
985.26	214.04
985.55	214.04
985.85	213.98
986.14	214.04
986.43	214.04
986.72	214.01
987.01	213.94
987.30	213.94
987.59	213.92
987.89	213.97
988.18	213.92
988.47	213.87
988.76	213.87
989.05	213.87
989.34	213.83
989.63	213.89
989.92	213.84
990.22	213.80
990.51	213.82
990.80	213.82
991.09	213.85
991.38	213.88
991.67	213.86
991.96	213.83
992.25	213.83
992.54	213.80
992.83	213.81
993.12	213.82
993.41	213.85
993.70	213.93
993.99	213.96
994.28	214.00
994.58	214.07
994.87	214.03
995.16	214.02
995.45	214.00
995.74	213.93
996.03	213.97
996.32	214.04
996.61	214.06
996.90	214.08
997.19	214.06
997.48	214.07
997.77	214.09
998.06	214.12
998.34	214.09
998.63	214.09
998.92	214.10
999.21	214.11
999.50	214.12
999.79	214.07
1000.08	214.02
1000.37	214.01
1000.66	213.96
1000.95	214.02
1001.24	214.05
1001.53	214.10
1001.82	214.10
1002.11	214.04
1002.40	214.05
1002.68	214.11
1002.97	214.22
1003.26	214.19
1003.55	214.14
1003.84	214.18
1004.13	214.25
1004.42	214.24
1004.71	214.27
1004.99	214.25
1005.28	214.31
1005.57	214.29
1005.86	214.25
1006.15	214.25
1006.44	214.23
1006.72	214.28
1007.01	214.25
1007.30	214.22
1007.59	214.17
1007.88	214.16
1008.17	214.20
1008.45	214.16
1008.74	214.06
1009.03	213.96
1009.32	213.99
1009.60	213.97
1009.89	213.91
1010.18	213.84
1010.47	213.83
1010.76	213.80
1011.04	213.81
1011.33	213.80
1011.62	213.83
1011.91	213.87
1012.19	213.86
1012.48	213.86
1012.77	213.85
1013.05	213.95
1013.34	213.96
1013.63	213.96
1013.92	213.99
1014.20	213.96
1014.49	213.95
1014.78	213.94
1015.06	213.89
1015.35	213.91
1015.64	213.95
1015.92	213.99
1016.21	213.98
1016.50	214.00
1016.78	214.02
1017.07	214.03
1017.36	213.99
1017.64	213.96
1017.93	213.96
1018.22	213.97
1018.50	213.96
1018.79	213.94
1019.08	213.83
1019.36	213.84
1019.65	213.87
1019.93	213.90
1020.22	213.96
1020.51	214.06
1020.79	214.07
1021.08	213.93
1021.36	213.36
1021.65	214.23
1021.94	213.40
1022.22	214.07
1022.51	214.30
1022.79	214.99
1023.08	214.47
1023.36	216.30
1023.65	213.54
>>>>>End Processed Spectral Data<<<<<
