SpectraSuite Data File
++++++++++++++++++++++++++++++++++++
Date: Tue Jan 29 16:07:22 EST 2013
User: group
Dark Spectrum Present: No
Reference Spectrum Present: No
Number of Sampled Component Spectra: 1
Spectrometers: USB2E7196
Integration Time (usec): 65000 (USB2E7196)
Spectra Averaged: 100 (USB2E7196)
Boxcar Smoothing: 10 (USB2E7196)
Correct for Electrical Dark: No (USB2E7196)
Strobe/Lamp Enabled: No (USB2E7196)
Correct for Detector Non-linearity: No (USB2E7196)
Correct for Stray Light: No (USB2E7196)
Number of Pixels in Processed Spectrum: 2048
>>>>>Begin Processed Spectral Data<<<<<
339.09	0.00
339.48	202.76
339.86	204.68
340.24	205.21
340.63	207.20
341.01	211.11
341.39	209.63
341.78	211.28
342.16	212.27
342.54	212.97
342.93	202.03
343.31	212.23
343.69	212.79
344.07	213.25
344.46	213.73
344.84	214.14
345.22	214.32
345.60	214.61
345.99	214.83
346.37	214.99
346.75	215.10
347.13	215.15
347.52	215.21
347.90	215.30
348.28	215.37
348.66	215.44
349.05	215.37
349.43	215.44
349.81	215.51
350.19	215.54
350.57	215.61
350.96	215.68
351.34	215.75
351.72	215.83
352.10	215.94
352.48	215.97
352.87	216.00
353.25	216.06
353.63	216.11
354.01	216.12
354.39	216.18
354.77	216.24
355.15	216.35
355.54	216.39
355.92	216.40
356.30	216.44
356.68	216.60
357.06	216.68
357.44	216.71
357.82	216.73
358.20	216.81
358.58	216.83
358.97	216.90
359.35	217.04
359.73	217.13
360.11	217.15
360.49	217.19
360.87	217.24
361.25	217.30
361.63	217.37
362.01	217.44
362.39	217.46
362.77	217.51
363.15	217.51
363.53	217.53
363.91	217.54
364.29	217.55
364.67	217.38
365.05	217.41
365.43	217.46
365.81	217.51
366.19	217.60
366.57	217.70
366.95	217.70
367.33	217.61
367.71	217.60
368.09	217.64
368.47	217.67
368.85	217.64
369.23	217.67
369.61	217.60
369.99	217.63
370.37	217.65
370.75	217.74
371.13	217.70
371.51	217.65
371.89	217.68
372.27	217.67
372.65	217.68
373.03	217.65
373.41	217.59
373.78	217.53
374.16	217.43
374.54	217.33
374.92	217.25
375.30	217.23
375.68	217.16
376.06	217.14
376.44	217.06
376.82	217.04
377.19	217.02
377.57	216.97
377.95	216.88
378.33	216.81
378.71	216.62
379.09	216.63
379.47	216.60
379.84	216.55
380.22	216.48
380.60	216.42
380.98	216.38
381.36	216.32
381.73	216.25
382.11	216.22
382.49	216.19
382.87	216.18
383.25	216.14
383.62	216.34
384.00	216.26
384.38	216.25
384.76	216.27
385.13	216.31
385.51	216.27
385.89	216.21
386.27	216.20
386.64	216.21
387.02	216.13
387.40	216.11
387.78	216.08
388.15	216.09
388.53	216.04
388.91	216.02
389.29	216.03
389.66	216.06
390.04	216.00
390.42	216.01
390.79	215.98
391.17	215.99
391.55	215.78
391.92	215.76
392.30	215.79
392.68	215.71
393.05	215.66
393.43	215.70
393.81	215.72
394.18	215.68
394.56	215.67
394.94	215.72
395.31	215.70
395.69	215.75
396.06	215.77
396.44	215.81
396.82	215.81
397.19	215.93
397.57	215.96
397.95	216.03
398.32	216.00
398.70	216.07
399.07	216.17
399.45	216.19
399.82	216.22
400.20	216.21
400.58	216.31
400.95	216.29
401.33	216.40
401.70	216.62
402.08	216.71
402.45	216.82
402.83	216.96
403.20	217.08
403.58	217.16
403.95	217.30
404.33	217.45
404.71	217.63
405.08	217.86
405.46	217.99
405.83	218.17
406.21	218.40
406.58	218.58
406.96	218.77
407.33	219.03
407.70	219.36
408.08	219.83
408.45	220.17
408.83	220.53
409.20	220.82
409.58	221.08
409.95	221.56
410.33	222.02
410.70	222.42
411.08	222.98
411.45	223.54
411.82	224.07
412.20	224.74
412.57	225.52
412.95	226.08
413.32	226.91
413.69	227.72
414.07	228.57
414.44	229.53
414.82	230.55
415.19	231.67
415.56	232.82
415.94	233.96
416.31	235.31
416.68	236.65
417.06	238.24
417.43	239.74
417.81	241.40
418.18	243.15
418.55	245.05
418.93	247.02
419.30	249.07
419.67	251.24
420.04	253.45
420.42	255.76
420.79	258.48
421.16	261.16
421.54	264.00
421.91	266.87
422.28	269.89
422.66	273.06
423.03	276.21
423.40	279.43
423.77	282.85
424.15	286.37
424.52	290.12
424.89	294.12
425.26	298.06
425.64	301.82
426.01	305.92
426.38	310.25
426.75	314.60
427.13	319.12
427.50	323.90
427.87	328.94
428.24	333.90
428.61	338.73
428.99	343.99
429.36	349.80
429.73	355.56
430.10	361.26
430.47	367.16
430.85	373.23
431.22	379.74
431.59	386.66
431.96	393.33
432.33	400.55
432.70	407.52
433.08	415.71
433.45	423.47
433.82	431.24
434.19	439.82
434.56	448.21
434.93	456.31
435.30	464.35
435.68	473.13
436.05	481.82
436.42	490.41
436.79	498.32
437.16	506.71
437.53	515.63
437.90	524.46
438.27	533.06
438.64	541.97
439.01	550.16
439.38	557.46
439.75	564.47
440.13	572.62
440.50	580.37
440.87	586.55
441.24	592.94
441.61	599.99
441.98	605.21
442.35	611.30
442.72	617.36
443.09	623.19
443.46	626.78
443.83	629.25
444.20	631.36
444.57	634.41
444.94	635.82
445.31	637.18
445.68	638.49
446.05	639.06
446.42	638.29
446.79	637.36
447.16	636.32
447.53	635.53
447.90	632.29
448.27	629.06
448.64	624.63
449.01	621.39
449.37	615.67
449.74	610.13
450.11	603.45
450.48	596.31
450.85	589.01
451.22	582.76
451.59	576.82
451.96	571.18
452.33	563.55
452.70	556.67
453.07	548.49
453.43	540.17
453.80	532.18
454.17	524.47
454.54	517.22
454.91	509.32
455.28	501.66
455.65	494.52
456.02	487.32
456.38	481.23
456.75	473.71
457.12	467.43
457.49	461.19
457.86	455.30
458.23	450.15
458.59	444.59
458.96	438.84
459.33	433.73
459.70	428.58
460.07	424.54
460.43	419.86
460.80	415.52
461.17	411.66
461.54	407.58
461.91	403.70
462.27	399.78
462.64	396.48
463.01	392.81
463.38	389.26
463.74	385.67
464.11	382.52
464.48	379.77
464.85	376.77
465.21	374.47
465.58	371.93
465.95	368.86
466.32	366.29
466.68	363.79
467.05	361.27
467.42	358.80
467.78	356.18
468.15	353.72
468.52	351.83
468.88	349.45
469.25	347.35
469.62	345.62
469.98	343.72
470.35	341.99
470.72	340.41
471.08	338.67
471.45	337.26
471.82	335.84
472.18	334.24
472.55	333.09
472.92	331.71
473.28	330.52
473.65	329.43
474.02	328.39
474.38	327.60
474.75	326.92
475.11	326.13
475.48	325.58
475.85	325.17
476.21	324.76
476.58	324.47
476.94	324.30
477.31	324.06
477.67	323.87
478.04	323.71
478.41	323.71
478.77	323.91
479.14	323.87
479.50	324.00
479.87	324.33
480.23	324.67
480.60	324.97
480.96	325.26
481.33	325.88
481.69	326.47
482.06	326.96
482.42	327.42
482.79	328.10
483.15	328.90
483.52	329.86
483.88	330.76
484.25	331.71
484.61	332.75
484.98	333.79
485.34	335.08
485.71	336.47
486.07	337.87
486.44	339.22
486.80	340.85
487.17	342.52
487.53	344.34
487.90	346.20
488.26	348.24
488.62	350.43
488.99	352.51
489.35	354.70
489.72	357.09
490.08	359.63
490.44	362.13
490.81	364.89
491.17	367.60
491.54	370.54
491.90	373.49
492.26	376.68
492.63	380.11
492.99	383.61
493.36	387.28
493.72	391.17
494.08	395.14
494.45	399.38
494.81	403.72
495.17	408.14
495.54	412.85
495.90	417.60
496.26	422.50
496.63	427.68
496.99	433.01
497.35	438.55
497.72	444.34
498.08	450.26
498.44	456.29
498.80	462.68
499.17	469.16
499.53	475.87
499.89	482.75
500.26	489.64
500.62	496.68
500.98	504.04
501.34	511.51
501.71	519.29
502.07	526.98
502.43	534.99
502.79	543.12
503.16	551.46
503.52	560.01
503.88	568.73
504.24	577.59
504.60	586.63
504.97	595.82
505.33	605.05
505.69	614.94
506.05	624.82
506.41	634.59
506.78	644.63
507.14	654.84
507.50	665.22
507.86	675.93
508.22	686.70
508.59	697.36
508.95	708.39
509.31	719.58
509.67	731.02
510.03	742.36
510.39	754.15
510.75	765.95
511.12	777.80
511.48	789.86
511.84	802.07
512.20	814.36
512.56	826.91
512.92	839.60
513.28	852.13
513.64	864.78
514.00	877.57
514.37	890.48
514.73	903.46
515.09	916.35
515.45	929.06
515.81	941.91
516.17	955.20
516.53	968.17
516.89	981.14
517.25	994.22
517.61	1007.49
517.97	1020.63
518.33	1033.54
518.69	1046.97
519.05	1060.43
519.41	1073.83
519.77	1087.43
520.13	1100.60
520.49	1113.63
520.85	1126.75
521.21	1139.90
521.57	1153.34
521.93	1166.24
522.29	1179.79
522.65	1193.32
523.01	1206.73
523.37	1219.71
523.73	1232.62
524.09	1245.49
524.45	1258.70
524.81	1271.93
525.17	1285.12
525.53	1297.99
525.89	1311.17
526.25	1323.99
526.61	1336.57
526.97	1349.52
527.33	1362.26
527.68	1375.40
528.04	1388.54
528.40	1401.32
528.76	1414.38
529.12	1427.05
529.48	1439.94
529.84	1451.93
530.20	1464.32
530.56	1476.64
530.91	1489.59
531.27	1502.22
531.63	1514.89
531.99	1527.19
532.35	1539.09
532.71	1551.18
533.07	1563.76
533.42	1575.65
533.78	1587.45
534.14	1599.19
534.50	1610.12
534.86	1621.48
535.21	1632.04
535.57	1643.24
535.93	1654.38
536.29	1665.15
536.65	1676.12
537.00	1686.83
537.36	1697.92
537.72	1708.54
538.08	1719.63
538.44	1730.21
538.79	1740.95
539.15	1751.40
539.51	1761.97
539.87	1772.94
540.22	1783.32
540.58	1793.91
540.94	1804.45
541.29	1814.44
541.65	1823.95
542.01	1834.11
542.37	1843.72
542.72	1853.75
543.08	1863.22
543.44	1873.32
543.79	1882.31
544.15	1891.59
544.51	1901.34
544.87	1910.87
545.22	1919.81
545.58	1928.39
545.94	1937.00
546.29	1945.27
546.65	1953.43
547.01	1961.33
547.36	1968.82
547.72	1976.44
548.07	1983.86
548.43	1991.26
548.79	1998.82
549.14	2006.75
549.50	2014.90
549.86	2022.53
550.21	2029.61
550.57	2037.10
550.92	2043.55
551.28	2050.95
551.64	2058.02
551.99	2065.21
552.35	2072.22
552.70	2078.81
553.06	2085.31
553.41	2091.47
553.77	2097.76
554.13	2103.97
554.48	2110.80
554.84	2117.66
555.19	2124.06
555.55	2130.42
555.90	2136.66
556.26	2143.29
556.61	2149.02
556.97	2153.87
557.32	2159.72
557.68	2166.08
558.03	2171.69
558.39	2177.08
558.74	2182.82
559.10	2188.29
559.45	2193.93
559.81	2199.24
560.16	2204.89
560.52	2210.76
560.87	2217.16
561.23	2223.17
561.58	2229.73
561.94	2234.94
562.29	2239.84
562.64	2245.89
563.00	2251.32
563.35	2256.94
563.71	2262.79
564.06	2268.62
564.42	2274.65
564.77	2279.65
565.12	2284.79
565.48	2290.07
565.83	2295.68
566.19	2301.22
566.54	2306.67
566.89	2311.21
567.25	2315.98
567.60	2321.71
567.96	2326.91
568.31	2331.48
568.66	2335.86
569.02	2339.82
569.37	2343.60
569.72	2347.92
570.08	2351.54
570.43	2354.73
570.78	2357.87
571.14	2360.71
571.49	2363.86
571.84	2367.38
572.20	2370.10
572.55	2373.25
572.90	2375.56
573.26	2378.43
573.61	2381.05
573.96	2383.32
574.31	2385.51
574.67	2387.49
575.02	2388.48
575.37	2390.01
575.72	2391.04
576.08	2392.48
576.43	2392.91
576.78	2393.90
577.13	2395.87
577.49	2397.20
577.84	2398.65
578.19	2400.22
578.54	2400.88
578.90	2402.04
579.25	2402.09
579.60	2402.62
579.95	2402.17
580.30	2402.63
580.66	2402.12
581.01	2400.54
581.36	2398.58
581.71	2397.22
582.06	2396.50
582.42	2395.77
582.77	2393.83
583.12	2392.29
583.47	2391.31
583.82	2390.91
584.17	2389.77
584.53	2387.59
584.88	2385.77
585.23	2384.10
585.58	2381.96
585.93	2380.00
586.28	2377.94
586.63	2375.77
586.98	2373.75
587.34	2371.93
587.69	2369.69
588.04	2367.89
588.39	2366.79
588.74	2364.46
589.09	2362.29
589.44	2359.31
589.79	2357.08
590.14	2355.36
590.49	2352.73
590.84	2349.10
591.19	2346.22
591.54	2343.00
591.89	2339.35
592.25	2336.16
592.60	2332.02
592.95	2328.11
593.30	2324.11
593.65	2319.80
594.00	2315.61
594.35	2312.69
594.70	2308.14
595.05	2303.58
595.40	2298.29
595.75	2292.74
596.10	2289.15
596.45	2284.38
596.80	2279.85
597.15	2274.70
597.50	2268.79
597.85	2264.06
598.19	2258.72
598.54	2253.18
598.89	2248.16
599.24	2243.63
599.59	2237.72
599.94	2232.09
600.29	2226.29
600.64	2220.42
600.99	2213.97
601.34	2208.70
601.69	2201.71
602.04	2195.44
602.39	2189.12
602.74	2183.20
603.08	2177.66
603.43	2171.31
603.78	2164.45
604.13	2157.43
604.48	2150.38
604.83	2144.44
605.18	2138.06
605.53	2131.27
605.87	2124.08
606.22	2117.37
606.57	2109.56
606.92	2101.78
607.27	2094.93
607.62	2088.41
607.96	2081.58
608.31	2075.02
608.66	2067.15
609.01	2059.62
609.36	2052.71
609.70	2044.90
610.05	2037.12
610.40	2028.99
610.75	2020.66
611.10	2013.21
611.44	2004.64
611.79	1995.96
612.14	1986.03
612.49	1975.67
612.83	1966.62
613.18	1957.66
613.53	1948.48
613.88	1938.94
614.22	1930.27
614.57	1920.31
614.92	1909.82
615.27	1899.70
615.61	1889.66
615.96	1880.02
616.31	1870.51
616.65	1861.00
617.00	1851.20
617.35	1841.52
617.70	1831.77
618.04	1821.78
618.39	1811.35
618.74	1801.59
619.08	1791.82
619.43	1783.12
619.78	1774.87
620.12	1766.07
620.47	1756.22
620.82	1745.78
621.16	1736.12
621.51	1726.25
621.85	1716.39
622.20	1705.89
622.55	1695.29
622.89	1685.47
623.24	1675.76
623.59	1665.97
623.93	1655.81
624.28	1646.32
624.62	1636.27
624.97	1625.99
625.32	1616.20
625.66	1607.44
626.01	1598.58
626.35	1589.27
626.70	1579.16
627.04	1568.93
627.39	1558.86
627.73	1549.67
628.08	1540.69
628.43	1530.88
628.77	1521.52
629.12	1512.69
629.46	1504.89
629.81	1496.45
630.15	1486.85
630.50	1477.07
630.84	1466.56
631.19	1456.76
631.53	1447.15
631.88	1436.81
632.22	1426.69
632.57	1417.34
632.91	1407.15
633.26	1397.26
633.60	1387.71
633.95	1378.40
634.29	1368.95
634.64	1359.70
634.98	1349.74
635.32	1340.47
635.67	1332.04
636.01	1322.78
636.36	1312.94
636.70	1303.32
637.05	1294.01
637.39	1285.02
637.73	1276.37
638.08	1268.82
638.42	1260.49
638.77	1251.71
639.11	1243.58
639.45	1235.82
639.80	1227.21
640.14	1218.56
640.49	1209.76
640.83	1200.97
641.17	1192.93
641.52	1184.80
641.86	1176.15
642.20	1168.26
642.55	1159.61
642.89	1150.66
643.23	1142.01
643.58	1133.95
643.92	1124.96
644.26	1116.38
644.61	1108.03
644.95	1099.24
645.29	1089.94
645.64	1080.79
645.98	1072.47
646.32	1064.52
646.66	1056.02
647.01	1047.67
647.35	1039.50
647.69	1031.04
648.04	1022.63
648.38	1013.64
648.72	1004.91
649.06	996.53
649.41	988.38
649.75	980.42
650.09	972.60
650.43	964.59
650.78	956.39
651.12	948.78
651.46	941.36
651.80	934.11
652.14	926.85
652.49	919.38
652.83	912.16
653.17	904.47
653.51	896.99
653.85	889.71
654.20	882.49
654.54	874.96
654.88	867.87
655.22	860.79
655.56	853.89
655.90	847.17
656.25	840.58
656.59	833.66
656.93	826.68
657.27	819.61
657.61	812.80
657.95	806.75
658.29	800.90
658.64	794.73
658.98	788.32
659.32	781.74
659.66	775.65
660.00	769.29
660.34	763.25
660.68	757.14
661.02	750.92
661.36	745.03
661.70	739.34
662.05	733.64
662.39	728.20
662.73	722.84
663.07	717.49
663.41	711.87
663.75	706.25
664.09	700.68
664.43	695.33
664.77	689.98
665.11	684.20
665.45	678.27
665.79	672.55
666.13	666.89
666.47	661.46
666.81	656.04
667.15	650.78
667.49	645.66
667.83	640.42
668.17	635.24
668.51	630.18
668.85	625.28
669.19	620.55
669.53	615.57
669.87	610.57
670.21	605.88
670.55	601.20
670.89	596.82
671.23	592.64
671.57	588.32
671.91	584.05
672.25	579.97
672.58	575.93
672.92	571.96
673.26	568.10
673.60	564.34
673.94	560.56
674.28	556.97
674.62	553.21
674.96	549.58
675.30	546.21
675.64	542.65
675.97	539.18
676.31	535.64
676.65	532.08
676.99	528.67
677.33	524.80
677.67	521.13
678.01	517.34
678.34	513.70
678.68	510.26
679.02	506.70
679.36	503.03
679.70	499.45
680.04	495.94
680.37	492.52
680.71	489.28
681.05	486.17
681.39	483.00
681.73	479.92
682.06	476.92
682.40	473.80
682.74	470.59
683.08	467.43
683.42	464.25
683.75	461.37
684.09	458.46
684.43	455.77
684.77	452.94
685.10	450.15
685.44	447.26
685.78	444.35
686.12	441.68
686.45	439.01
686.79	436.38
687.13	433.88
687.46	431.32
687.80	428.63
688.14	425.79
688.48	423.27
688.81	420.66
689.15	418.13
689.49	415.53
689.82	413.05
690.16	410.53
690.50	408.13
690.83	405.61
691.17	403.07
691.51	400.64
691.84	398.44
692.18	396.30
692.52	394.12
692.85	392.07
693.19	389.94
693.52	387.86
693.86	385.71
694.20	383.60
694.53	381.48
694.87	379.36
695.21	377.38
695.54	375.22
695.88	373.07
696.21	370.88
696.55	368.83
696.88	366.87
697.22	364.91
697.56	363.06
697.89	361.29
698.23	359.59
698.56	357.86
698.90	356.13
699.23	354.25
699.57	352.45
699.90	350.65
700.24	348.89
700.58	347.12
700.91	345.51
701.25	343.97
701.58	342.44
701.92	340.85
702.25	339.24
702.59	337.66
702.92	336.16
703.26	334.71
703.59	333.35
703.93	332.12
704.26	330.70
704.60	329.22
704.93	327.79
705.26	326.36
705.60	324.92
705.93	323.46
706.27	322.18
706.60	320.94
706.94	319.73
707.27	318.38
707.61	317.10
707.94	315.80
708.27	314.30
708.61	312.92
708.94	311.65
709.28	310.39
709.61	309.19
709.94	308.06
710.28	306.83
710.61	305.56
710.95	304.14
711.28	303.06
711.61	301.89
711.95	300.75
712.28	299.57
712.61	298.44
712.95	297.38
713.28	296.40
713.61	295.35
713.95	294.20
714.28	293.18
714.61	292.17
714.95	291.16
715.28	290.21
715.61	289.20
715.95	288.25
716.28	287.34
716.61	286.38
716.95	285.45
717.28	284.58
717.61	283.70
717.94	282.88
718.28	281.93
718.61	281.11
718.94	280.22
719.27	279.37
719.61	278.55
719.94	277.71
720.27	276.75
720.60	275.85
720.94	275.07
721.27	274.35
721.60	273.69
721.93	272.98
722.27	272.36
722.60	271.71
722.93	271.00
723.26	270.36
723.59	269.71
723.93	269.07
724.26	268.42
724.59	267.79
724.92	267.23
725.25	266.74
725.59	266.20
725.92	265.70
726.25	265.13
726.58	264.59
726.91	264.02
727.24	263.50
727.57	263.00
727.91	262.46
728.24	261.92
728.57	261.34
728.90	260.81
729.23	260.19
729.56	259.72
729.89	259.18
730.22	258.63
730.55	258.13
730.89	257.60
731.22	257.10
731.55	256.59
731.88	256.06
732.21	255.50
732.54	254.99
732.87	254.46
733.20	253.98
733.53	253.50
733.86	253.09
734.19	252.64
734.52	252.24
734.85	251.96
735.18	251.50
735.51	251.13
735.84	250.70
736.17	250.31
736.50	249.83
736.83	249.71
737.16	249.35
737.49	248.96
737.82	248.56
738.15	248.20
738.48	247.88
738.81	247.47
739.14	247.08
739.47	246.69
739.80	246.33
740.13	246.01
740.46	245.61
740.79	245.21
741.12	244.85
741.45	244.49
741.78	244.06
742.11	243.83
742.44	243.49
742.77	243.21
743.10	242.87
743.43	242.54
743.75	241.97
744.08	241.90
744.41	241.54
744.74	241.22
745.07	240.84
745.40	240.51
745.73	240.26
746.06	239.93
746.39	239.60
746.71	239.29
747.04	238.96
747.37	238.68
747.70	238.43
748.03	238.17
748.36	237.91
748.68	237.64
749.01	237.27
749.34	236.97
749.67	236.69
750.00	236.44
750.33	236.32
750.65	236.07
750.98	235.54
751.31	235.33
751.64	235.09
751.97	234.99
752.29	234.72
752.62	234.41
752.95	234.17
753.28	233.90
753.60	233.68
753.93	233.51
754.26	233.31
754.59	233.01
754.91	232.75
755.24	232.50
755.57	232.24
755.90	232.00
756.22	231.80
756.55	231.55
756.88	231.32
757.20	230.95
757.53	230.70
757.86	230.51
758.19	230.30
758.51	230.11
758.84	229.82
759.17	229.63
759.49	229.48
759.82	229.39
760.15	229.28
760.47	229.12
760.80	228.90
761.13	228.73
761.45	228.58
761.78	228.40
762.11	228.24
762.43	228.07
762.76	227.91
763.08	227.76
763.41	227.61
763.74	227.47
764.06	227.35
764.39	227.18
764.71	227.05
765.04	226.87
765.37	226.70
765.69	226.53
766.02	226.37
766.34	226.22
766.67	226.01
767.00	225.94
767.32	225.92
767.65	225.85
767.97	225.73
768.30	225.61
768.62	225.46
768.95	225.32
769.27	225.19
769.60	225.12
769.92	224.94
770.25	224.80
770.57	224.62
770.90	224.51
771.22	224.39
771.55	224.26
771.87	224.18
772.20	224.06
772.52	224.14
772.85	224.31
773.17	224.20
773.50	224.07
773.82	223.91
774.15	223.72
774.47	223.52
774.80	223.40
775.12	223.30
775.45	223.25
775.77	223.19
776.09	223.08
776.42	222.97
776.74	222.95
777.07	222.85
777.39	222.81
777.72	222.72
778.04	222.70
778.36	222.60
778.69	222.53
779.01	222.49
779.33	222.24
779.66	221.92
779.98	221.84
780.31	221.79
780.63	221.80
780.95	221.75
781.28	221.70
781.60	221.60
781.92	221.53
782.25	221.45
782.57	221.35
782.89	221.27
783.22	221.17
783.54	221.05
783.86	221.02
784.19	220.96
784.51	220.95
784.83	220.81
785.16	220.73
785.48	220.65
785.80	220.58
786.12	220.56
786.45	220.50
786.77	220.45
787.09	220.39
787.42	220.23
787.74	220.19
788.06	220.14
788.38	220.10
788.71	220.01
789.03	219.95
789.35	219.91
789.67	219.86
789.99	219.83
790.32	219.79
790.64	219.74
790.96	219.84
791.28	219.71
791.61	219.69
791.93	219.67
792.25	219.63
792.57	219.74
792.89	219.61
793.21	219.57
793.54	219.49
793.86	219.43
794.18	219.41
794.50	219.35
794.82	219.28
795.14	219.26
795.47	219.28
795.79	219.26
796.11	219.18
796.43	219.10
796.75	219.05
797.07	219.01
797.39	218.97
797.71	218.77
798.04	218.78
798.36	218.78
798.68	218.74
799.00	218.70
799.32	218.56
799.64	218.59
799.96	218.56
800.28	218.57
800.60	218.53
800.92	218.50
801.24	218.43
801.56	218.45
801.89	218.39
802.21	218.35
802.53	218.27
802.85	218.29
803.17	218.40
803.49	218.34
803.81	218.29
804.13	218.26
804.45	218.21
804.77	218.17
805.09	218.12
805.41	218.06
805.73	217.99
806.05	217.87
806.37	217.80
806.69	217.74
807.01	217.72
807.33	217.71
807.65	217.61
807.97	217.67
808.28	217.59
808.60	217.56
808.92	217.53
809.24	217.64
809.56	217.59
809.88	217.48
810.20	217.45
810.52	217.47
810.84	217.41
811.16	217.38
811.48	217.33
811.80	217.38
812.12	217.37
812.43	217.40
812.75	217.42
813.07	217.41
813.39	217.40
813.71	217.35
814.03	217.31
814.35	217.26
814.67	217.16
814.98	217.14
815.30	217.13
815.62	217.08
815.94	216.93
816.26	216.91
816.58	216.85
816.89	216.90
817.21	216.84
817.53	216.87
817.85	216.85
818.17	216.84
818.48	216.76
818.80	216.79
819.12	216.74
819.44	216.71
819.76	216.66
820.07	216.64
820.39	216.63
820.71	216.65
821.03	216.67
821.34	216.66
821.66	216.68
821.98	216.68
822.30	216.63
822.61	216.73
822.93	216.73
823.25	216.70
823.57	216.65
823.88	216.68
824.20	216.63
824.52	216.66
824.83	216.65
825.15	216.63
825.47	216.57
825.79	216.59
826.10	216.55
826.42	216.53
826.74	216.54
827.05	216.53
827.37	216.48
827.69	216.47
828.00	216.45
828.32	216.41
828.64	216.39
828.95	216.52
829.27	216.43
829.58	216.42
829.90	216.47
830.22	216.48
830.53	216.41
830.85	216.36
831.17	216.30
831.48	216.28
831.80	216.27
832.11	216.25
832.43	216.19
832.75	216.20
833.06	216.34
833.38	216.29
833.69	216.29
834.01	216.27
834.32	216.25
834.64	216.24
834.96	216.26
835.27	216.22
835.59	216.13
835.90	216.07
836.22	216.03
836.53	215.98
836.85	215.93
837.16	216.12
837.48	216.16
837.79	216.22
838.11	216.23
838.42	216.21
838.74	216.25
839.05	216.27
839.37	216.21
839.68	216.07
840.00	216.05
840.31	216.08
840.63	216.07
840.94	216.03
841.26	216.00
841.57	215.99
841.88	216.03
842.20	215.98
842.51	215.96
842.83	215.95
843.14	216.14
843.46	216.14
843.77	216.02
844.08	215.97
844.40	215.89
844.71	215.85
845.03	215.83
845.34	215.80
845.65	215.75
845.97	215.80
846.28	215.80
846.60	215.80
846.91	215.73
847.22	215.73
847.54	215.76
847.85	215.78
848.16	215.74
848.48	215.69
848.79	215.75
849.10	215.76
849.42	215.76
849.73	215.56
850.04	215.56
850.36	215.50
850.67	215.53
850.98	215.51
851.30	215.56
851.61	215.54
851.92	215.51
852.23	215.60
852.55	215.58
852.86	215.58
853.17	215.57
853.49	215.61
853.80	215.64
854.11	215.66
854.42	215.68
854.74	215.66
855.05	215.66
855.36	215.57
855.67	215.62
855.99	215.63
856.30	215.84
856.61	215.82
856.92	215.80
857.23	215.79
857.55	215.77
857.86	215.74
858.17	215.78
858.48	215.76
858.79	215.69
859.11	215.72
859.42	215.70
859.73	215.71
860.04	215.71
860.35	215.64
860.66	215.59
860.98	215.57
861.29	215.60
861.60	215.59
861.91	215.62
862.22	215.56
862.53	215.52
862.84	215.25
863.16	215.32
863.47	215.30
863.78	215.28
864.09	215.31
864.40	215.31
864.71	215.30
865.02	215.31
865.33	215.29
865.64	215.27
865.95	215.29
866.27	215.43
866.58	215.41
866.89	215.40
867.20	215.38
867.51	215.36
867.82	215.36
868.13	215.43
868.44	215.38
868.75	215.41
869.06	215.43
869.37	215.47
869.68	215.38
869.99	215.41
870.30	215.45
870.61	215.45
870.92	215.41
871.23	215.40
871.54	215.41
871.85	215.47
872.16	215.45
872.47	215.42
872.78	215.24
873.09	215.25
873.40	215.26
873.71	215.31
874.02	215.31
874.33	215.27
874.64	215.18
874.95	215.22
875.26	215.17
875.56	215.13
875.87	215.13
876.18	215.15
876.49	215.34
876.80	215.29
877.11	215.27
877.42	215.30
877.73	215.32
878.04	215.31
878.35	215.29
878.66	215.28
878.96	215.31
879.27	215.30
879.58	215.28
879.89	215.27
880.20	215.32
880.51	215.29
880.82	215.31
881.12	215.35
881.43	215.31
881.74	215.30
882.05	215.33
882.36	215.32
882.67	215.34
882.97	215.14
883.28	215.14
883.59	215.09
883.90	215.07
884.21	215.07
884.51	215.05
884.82	215.01
885.13	215.02
885.44	214.96
885.74	215.00
886.05	214.98
886.36	214.96
886.67	214.89
886.98	215.01
887.28	215.01
887.59	215.00
887.90	215.01
888.20	215.01
888.51	215.04
888.82	215.04
889.13	215.04
889.43	215.21
889.74	215.21
890.05	215.24
890.35	215.24
890.66	215.23
890.97	215.22
891.28	215.23
891.58	215.22
891.89	215.27
892.20	215.24
892.50	215.23
892.81	215.27
893.12	215.27
893.42	215.18
893.73	215.17
894.04	215.19
894.34	215.19
894.65	215.20
894.95	215.16
895.26	215.18
895.57	215.28
895.87	215.08
896.18	215.09
896.48	215.10
896.79	215.09
897.10	215.10
897.40	215.14
897.71	215.19
898.01	215.17
898.32	215.19
898.63	215.21
898.93	215.21
899.24	215.19
899.54	215.18
899.85	215.19
900.15	215.19
900.46	215.21
900.76	215.22
901.07	215.23
901.38	215.24
901.68	215.25
901.99	215.14
902.29	215.17
902.60	215.17
902.90	215.17
903.21	215.17
903.51	215.15
903.82	215.18
904.12	215.16
904.43	215.20
904.73	215.17
905.03	215.15
905.34	215.37
905.64	215.33
905.95	215.36
906.25	215.34
906.56	215.34
906.86	215.27
907.17	215.26
907.47	215.28
907.77	215.26
908.08	215.22
908.38	215.24
908.69	215.26
908.99	215.28
909.30	215.30
909.60	215.32
909.90	215.31
910.21	215.23
910.51	215.20
910.81	215.19
911.12	215.19
911.42	215.20
911.73	214.99
912.03	215.05
912.33	215.04
912.64	215.06
912.94	215.04
913.24	215.03
913.55	215.00
913.85	214.94
914.15	214.97
914.46	215.03
914.76	215.00
915.06	214.99
915.37	214.95
915.67	214.91
915.97	214.92
916.27	214.89
916.58	214.91
916.88	214.89
917.18	214.87
917.49	215.04
917.79	215.05
918.09	215.08
918.39	215.09
918.70	215.10
919.00	215.07
919.30	215.18
919.60	215.18
919.91	215.18
920.21	215.24
920.51	215.20
920.81	215.15
921.12	215.16
921.42	215.17
921.72	215.20
922.02	215.24
922.32	215.21
922.63	215.23
922.93	215.31
923.23	215.35
923.53	215.32
923.83	215.13
924.13	215.15
924.44	215.14
924.74	215.17
925.04	215.20
925.34	215.18
925.64	215.10
925.94	215.09
926.24	215.21
926.55	215.18
926.85	215.20
927.15	215.20
927.45	215.21
927.75	215.20
928.05	215.21
928.35	215.17
928.65	215.21
928.95	215.21
929.26	215.18
929.56	215.22
929.86	215.21
930.16	215.22
930.46	215.17
930.76	215.18
931.06	215.07
931.36	215.00
931.66	215.09
931.96	215.12
932.26	215.15
932.56	215.07
932.86	215.08
933.16	215.09
933.46	215.06
933.76	215.02
934.06	215.08
934.36	215.14
934.66	215.13
934.96	215.10
935.26	215.13
935.56	215.15
935.86	215.06
936.16	215.06
936.46	215.06
936.76	215.08
937.06	215.06
937.36	215.12
937.66	215.12
937.96	215.08
938.26	215.01
938.56	214.97
938.86	214.96
939.16	214.98
939.46	215.01
939.76	215.02
940.06	215.03
940.35	214.96
940.65	214.85
940.95	214.87
941.25	214.83
941.55	214.83
941.85	214.80
942.15	214.86
942.45	214.92
942.75	214.88
943.04	214.85
943.34	214.88
943.64	214.85
943.94	214.84
944.24	214.83
944.54	214.86
944.84	214.88
945.13	214.84
945.43	214.79
945.73	214.76
946.03	214.76
946.33	214.75
946.62	214.71
946.92	214.69
947.22	214.71
947.52	214.72
947.82	214.71
948.11	214.68
948.41	214.67
948.71	214.60
949.01	214.64
949.31	214.64
949.60	214.62
949.90	214.65
950.20	214.64
950.50	214.64
950.79	214.60
951.09	214.64
951.39	214.65
951.69	214.66
951.98	214.72
952.28	214.71
952.58	214.72
952.87	214.73
953.17	214.79
953.47	214.76
953.76	214.78
954.06	214.73
954.36	214.69
954.66	214.65
954.95	214.70
955.25	214.70
955.55	214.70
955.84	214.66
956.14	214.67
956.44	214.69
956.73	214.65
957.03	214.68
957.32	214.66
957.62	214.66
957.92	214.66
958.21	214.62
958.51	214.85
958.81	214.85
959.10	214.85
959.40	214.90
959.69	214.91
959.99	214.93
960.29	214.93
960.58	214.93
960.88	214.98
961.17	214.95
961.47	214.97
961.76	214.96
962.06	214.99
962.36	214.94
962.65	214.94
962.95	214.96
963.24	214.95
963.54	214.95
963.83	214.97
964.13	214.97
964.42	214.94
964.72	214.75
965.01	214.76
965.31	214.77
965.60	214.71
965.90	214.83
966.19	214.78
966.49	214.79
966.78	214.83
967.08	214.82
967.37	214.85
967.67	214.83
967.96	214.86
968.26	214.84
968.55	214.89
968.85	214.88
969.14	214.89
969.43	214.88
969.73	214.86
970.02	214.86
970.32	214.86
970.61	214.85
970.91	214.82
971.20	214.81
971.49	214.79
971.79	214.78
972.08	214.64
972.38	214.65
972.67	214.65
972.96	214.68
973.26	214.65
973.55	214.67
973.85	214.66
974.14	214.66
974.43	214.71
974.73	214.66
975.02	214.64
975.31	214.63
975.61	214.62
975.90	214.60
976.19	214.57
976.49	214.60
976.78	214.61
977.07	214.58
977.37	214.56
977.66	214.57
977.95	214.55
978.24	214.57
978.54	214.64
978.83	214.65
979.12	214.60
979.42	214.61
979.71	214.59
980.00	214.57
980.29	214.59
980.59	214.54
980.88	214.60
981.17	214.60
981.46	214.62
981.76	214.65
982.05	214.69
982.34	214.70
982.63	214.69
982.93	214.69
983.22	214.77
983.51	214.79
983.80	214.82
984.09	214.85
984.39	214.83
984.68	214.75
984.97	214.72
985.26	214.75
985.55	214.76
985.85	214.71
986.14	214.78
986.43	214.79
986.72	214.78
987.01	214.70
987.30	214.70
987.59	214.71
987.89	214.70
988.18	214.65
988.47	214.63
988.76	214.59
989.05	214.57
989.34	214.53
989.63	214.59
989.92	214.56
990.22	214.53
990.51	214.53
990.80	214.53
991.09	214.55
991.38	214.54
991.67	214.51
991.96	214.47
992.25	214.47
992.54	214.43
992.83	214.44
993.12	214.42
993.41	214.48
993.70	214.56
993.99	214.57
994.28	214.62
994.58	214.63
994.87	214.67
995.16	214.66
995.45	214.64
995.74	214.61
996.03	214.65
996.32	214.68
996.61	214.71
996.90	214.71
997.19	214.70
997.48	214.69
997.77	214.66
998.06	214.70
998.34	214.67
998.63	214.67
998.92	214.68
999.21	214.74
999.50	214.72
999.79	214.60
1000.08	214.57
1000.37	214.58
1000.66	214.58
1000.95	214.62
1001.24	214.63
1001.53	214.63
1001.82	214.58
1002.11	214.53
1002.40	214.54
1002.68	214.57
1002.97	214.76
1003.26	214.73
1003.55	214.70
1003.84	214.75
1004.13	214.82
1004.42	214.85
1004.71	214.85
1004.99	214.86
1005.28	214.91
1005.57	214.90
1005.86	214.91
1006.15	214.91
1006.44	214.85
1006.72	214.86
1007.01	214.83
1007.30	214.85
1007.59	214.84
1007.88	214.84
1008.17	214.85
1008.45	214.83
1008.74	214.78
1009.03	214.64
1009.32	214.68
1009.60	214.67
1009.89	214.63
1010.18	214.55
1010.47	214.52
1010.76	214.51
1011.04	214.47
1011.33	214.45
1011.62	214.44
1011.91	214.46
1012.19	214.49
1012.48	214.50
1012.77	214.51
1013.05	214.61
1013.34	214.59
1013.63	214.58
1013.92	214.58
1014.20	214.58
1014.49	214.59
1014.78	214.59
1015.06	214.54
1015.35	214.53
1015.64	214.58
1015.92	214.65
1016.21	214.64
1016.50	214.63
1016.78	214.65
1017.07	214.66
1017.36	214.63
1017.64	214.63
1017.93	214.62
1018.22	214.57
1018.50	214.56
1018.79	214.55
1019.08	214.45
1019.36	214.43
1019.65	214.41
1019.93	214.50
1020.22	214.50
1020.51	214.60
1020.79	214.56
1021.08	214.10
1021.36	213.95
1021.65	214.44
1021.94	214.92
1022.22	214.06
1022.51	213.91
1022.79	215.88
1023.08	214.26
1023.36	216.82
1023.65	213.79
>>>>>End Processed Spectral Data<<<<<
