SpectraSuite Data File
++++++++++++++++++++++++++++++++++++
Date: Tue Jan 29 16:19:46 EST 2013
User: group
Dark Spectrum Present: No
Reference Spectrum Present: No
Number of Sampled Component Spectra: 1
Spectrometers: USB2E7196
Integration Time (usec): 65000 (USB2E7196)
Spectra Averaged: 100 (USB2E7196)
Boxcar Smoothing: 10 (USB2E7196)
Correct for Electrical Dark: No (USB2E7196)
Strobe/Lamp Enabled: No (USB2E7196)
Correct for Detector Non-linearity: No (USB2E7196)
Correct for Stray Light: No (USB2E7196)
Number of Pixels in Processed Spectrum: 2048
>>>>>Begin Processed Spectral Data<<<<<
339.09	0.00
339.48	201.97
339.86	203.51
340.24	205.14
340.63	207.01
341.01	211.62
341.39	209.70
341.78	210.90
342.16	212.31
342.54	212.69
342.93	201.76
343.31	211.96
343.69	212.56
344.07	213.07
344.46	213.54
344.84	213.96
345.22	214.12
345.60	214.38
345.99	214.64
346.37	214.78
346.75	214.90
347.13	214.99
347.52	215.06
347.90	215.20
348.28	215.26
348.66	215.35
349.05	215.30
349.43	215.39
349.81	215.45
350.19	215.53
350.57	215.59
350.96	215.68
351.34	215.78
351.72	215.87
352.10	215.94
352.48	216.02
352.87	216.06
353.25	216.15
353.63	216.24
354.01	216.26
354.39	216.32
354.77	216.40
355.15	216.54
355.54	216.60
355.92	216.58
356.30	216.65
356.68	216.84
357.06	216.92
357.44	216.97
357.82	217.00
358.20	217.04
358.58	217.08
358.97	217.13
359.35	217.22
359.73	217.29
360.11	217.34
360.49	217.36
360.87	217.41
361.25	217.41
361.63	217.49
362.01	217.51
362.39	217.55
362.77	217.59
363.15	217.57
363.53	217.58
363.91	217.60
364.29	217.61
364.67	217.38
365.05	217.40
365.43	217.44
365.81	217.48
366.19	217.57
366.57	217.65
366.95	217.64
367.33	217.58
367.71	217.57
368.09	217.58
368.47	217.56
368.85	217.53
369.23	217.59
369.61	217.51
369.99	217.56
370.37	217.55
370.75	217.56
371.13	217.49
371.51	217.45
371.89	217.47
372.27	217.45
372.65	217.47
373.03	217.45
373.41	217.39
373.78	217.34
374.16	217.20
374.54	217.08
374.92	217.01
375.30	216.99
375.68	216.90
376.06	216.88
376.44	216.84
376.82	216.80
377.19	216.71
377.57	216.64
377.95	216.47
378.33	216.44
378.71	216.31
379.09	216.33
379.47	216.31
379.84	216.23
380.22	216.16
380.60	216.07
380.98	216.01
381.36	215.96
381.73	215.90
382.11	215.88
382.49	215.89
382.87	215.85
383.25	215.82
383.62	216.03
384.00	215.97
384.38	215.95
384.76	215.96
385.13	216.04
385.51	216.04
385.89	216.02
386.27	215.97
386.64	215.98
387.02	215.92
387.40	215.88
387.78	215.86
388.15	215.85
388.53	215.83
388.91	215.82
389.29	215.79
389.66	215.78
390.04	215.77
390.42	215.80
390.79	215.82
391.17	215.81
391.55	215.58
391.92	215.55
392.30	215.56
392.68	215.51
393.05	215.48
393.43	215.51
393.81	215.56
394.18	215.54
394.56	215.59
394.94	215.63
395.31	215.60
395.69	215.66
396.06	215.71
396.44	215.76
396.82	215.77
397.19	215.91
397.57	215.92
397.95	215.98
398.32	215.91
398.70	215.97
399.07	216.04
399.45	216.07
399.82	216.12
400.20	216.13
400.58	216.20
400.95	216.18
401.33	216.22
401.70	216.44
402.08	216.52
402.45	216.58
402.83	216.71
403.20	216.85
403.58	216.94
403.95	217.09
404.33	217.22
404.71	217.38
405.08	217.63
405.46	217.80
405.83	217.99
406.21	218.21
406.58	218.43
406.96	218.66
407.33	218.93
407.70	219.25
408.08	219.74
408.45	220.11
408.83	220.52
409.20	220.88
409.58	221.15
409.95	221.60
410.33	222.08
410.70	222.49
411.08	223.05
411.45	223.63
411.82	224.21
412.20	224.91
412.57	225.71
412.95	226.26
413.32	227.07
413.69	227.88
414.07	228.78
414.44	229.73
414.82	230.71
415.19	231.84
415.56	233.01
415.94	234.19
416.31	235.55
416.68	236.92
417.06	238.49
417.43	240.01
417.81	241.73
418.18	243.51
418.55	245.43
418.93	247.42
419.30	249.48
419.67	251.62
420.04	253.85
420.42	256.22
420.79	258.98
421.16	261.73
421.54	264.59
421.91	267.54
422.28	270.63
422.66	273.90
423.03	277.12
423.40	280.45
423.77	283.96
424.15	287.54
424.52	291.36
424.89	295.51
425.26	299.49
425.64	303.33
426.01	307.52
426.38	311.94
426.75	316.40
427.13	321.06
427.50	325.97
427.87	331.09
428.24	336.19
428.61	341.08
428.99	346.45
429.36	352.36
429.73	358.12
430.10	363.87
430.47	369.79
430.85	376.01
431.22	382.59
431.59	389.56
431.96	396.26
432.33	403.59
432.70	410.63
433.08	419.00
433.45	426.92
433.82	434.81
434.19	443.47
434.56	452.04
434.93	460.23
435.30	468.37
435.68	477.34
436.05	486.13
436.42	494.87
436.79	502.92
437.16	511.52
437.53	520.67
437.90	529.65
438.27	538.52
438.64	547.53
439.01	555.89
439.38	563.36
439.75	570.59
440.13	578.88
440.50	586.72
440.87	593.04
441.24	599.51
441.61	606.68
441.98	611.99
442.35	618.14
442.72	624.34
443.09	630.32
443.46	633.89
443.83	636.36
444.20	638.61
444.57	641.65
444.94	643.01
445.31	644.37
445.68	645.64
446.05	646.16
446.42	645.36
446.79	644.36
447.16	643.22
447.53	642.47
447.90	639.17
448.27	635.93
448.64	631.33
449.01	628.12
449.37	622.28
449.74	616.74
450.11	609.93
450.48	602.66
450.85	595.32
451.22	588.99
451.59	582.99
451.96	577.18
452.33	569.50
452.70	562.59
453.07	554.33
453.43	546.00
453.80	537.90
454.17	530.05
454.54	522.69
454.91	514.71
455.28	506.87
455.65	499.60
456.02	492.24
456.38	486.05
456.75	478.30
457.12	471.86
457.49	465.46
457.86	459.44
458.23	454.18
458.59	448.33
458.96	442.49
459.33	437.30
459.70	432.02
460.07	427.79
460.43	422.95
460.80	418.45
461.17	414.50
461.54	410.39
461.91	406.49
462.27	402.44
462.64	399.12
463.01	395.39
463.38	391.76
463.74	388.10
464.11	384.93
464.48	382.15
464.85	379.17
465.21	376.79
465.58	374.21
465.95	371.14
466.32	368.63
466.68	366.04
467.05	363.50
467.42	361.02
467.78	358.41
468.15	355.99
468.52	354.12
468.88	351.70
469.25	349.54
469.62	347.78
469.98	345.86
470.35	344.03
470.72	342.35
471.08	340.57
471.45	339.14
471.82	337.64
472.18	336.01
472.55	334.81
472.92	333.45
473.28	332.28
473.65	331.12
474.02	330.04
474.38	329.20
474.75	328.44
475.11	327.69
475.48	327.18
475.85	326.71
476.21	326.21
476.58	325.82
476.94	325.58
477.31	325.24
477.67	325.04
478.04	324.92
478.41	324.93
478.77	325.16
479.14	325.11
479.50	325.27
479.87	325.62
480.23	325.99
480.60	326.23
480.96	326.52
481.33	327.12
481.69	327.69
482.06	328.20
482.42	328.71
482.79	329.31
483.15	330.09
483.52	331.01
483.88	331.94
484.25	332.92
484.61	333.94
484.98	335.07
485.34	336.37
485.71	337.74
486.07	339.15
486.44	340.47
486.80	342.12
487.17	343.80
487.53	345.59
487.90	347.44
488.26	349.55
488.62	351.72
488.99	353.78
489.35	355.97
489.72	358.37
490.08	360.88
490.44	363.41
490.81	366.18
491.17	368.92
491.54	371.88
491.90	374.92
492.26	378.16
492.63	381.50
492.99	384.98
493.36	388.64
493.72	392.57
494.08	396.59
494.45	400.80
494.81	405.18
495.17	409.67
495.54	414.40
495.90	419.17
496.26	424.07
496.63	429.32
496.99	434.71
497.35	440.32
497.72	446.17
498.08	452.18
498.44	458.20
498.80	464.61
499.17	471.09
499.53	477.76
499.89	484.71
500.26	491.76
500.62	498.91
500.98	506.36
501.34	513.76
501.71	521.55
502.07	529.32
502.43	537.25
502.79	545.39
503.16	553.79
503.52	562.44
503.88	571.18
504.24	580.08
504.60	589.16
504.97	598.41
505.33	607.65
505.69	617.46
506.05	627.36
506.41	637.28
506.78	647.40
507.14	657.66
507.50	668.13
507.86	678.85
508.22	689.62
508.59	700.34
508.95	711.49
509.31	722.81
509.67	734.38
510.03	745.90
510.39	757.71
510.75	769.60
511.12	781.54
511.48	793.71
511.84	806.02
512.20	818.44
512.56	831.19
512.92	844.08
513.28	856.77
513.64	869.62
514.00	882.46
514.37	895.41
514.73	908.56
515.09	921.51
515.45	934.36
515.81	947.53
516.17	960.88
516.53	974.17
516.89	987.20
517.25	1000.35
517.61	1013.90
517.97	1027.24
518.33	1040.48
518.69	1053.93
519.05	1067.68
519.41	1081.38
519.77	1095.30
520.13	1108.60
520.49	1121.76
520.85	1135.19
521.21	1148.46
521.57	1162.17
521.93	1175.31
522.29	1189.11
522.65	1202.88
523.01	1216.52
523.37	1229.68
523.73	1243.03
524.09	1256.23
524.45	1269.70
524.81	1283.19
525.17	1296.59
525.53	1309.72
525.89	1322.94
526.25	1336.10
526.61	1348.95
526.97	1361.98
527.33	1374.79
527.68	1388.04
528.04	1401.58
528.40	1414.70
528.76	1428.06
529.12	1440.86
529.48	1454.09
529.84	1466.24
530.20	1478.90
530.56	1491.45
530.91	1504.68
531.27	1517.38
531.63	1530.03
531.99	1542.78
532.35	1555.00
532.71	1567.33
533.07	1580.26
533.42	1592.33
533.78	1604.45
534.14	1616.31
534.50	1627.62
534.86	1639.24
535.21	1650.09
535.57	1661.46
535.93	1672.54
536.29	1683.52
536.65	1694.92
537.00	1705.86
537.36	1717.32
537.72	1728.18
538.08	1739.50
538.44	1750.34
538.79	1761.50
539.15	1772.28
539.51	1782.97
539.87	1794.11
540.22	1804.82
540.58	1815.58
540.94	1826.47
541.29	1836.62
541.65	1846.45
542.01	1856.72
542.37	1866.68
542.72	1876.89
543.08	1886.58
543.44	1897.09
543.79	1906.29
544.15	1915.70
544.51	1925.54
544.87	1935.16
545.22	1944.46
545.58	1953.40
545.94	1962.19
546.29	1970.49
546.65	1978.74
547.01	1986.83
547.36	1994.40
547.72	2002.10
548.07	2009.63
548.43	2017.38
548.79	2025.15
549.14	2033.14
549.50	2041.50
549.86	2049.23
550.21	2056.51
550.57	2064.20
550.92	2070.94
551.28	2078.34
551.64	2085.59
551.99	2093.11
552.35	2100.15
552.70	2106.83
553.06	2113.33
553.41	2119.63
553.77	2126.16
554.13	2132.62
554.48	2139.57
554.84	2146.76
555.19	2153.28
555.55	2159.69
555.90	2165.83
556.26	2172.72
556.61	2178.87
556.97	2183.69
557.32	2189.45
557.68	2195.86
558.03	2201.58
558.39	2206.77
558.74	2212.79
559.10	2218.18
559.45	2223.75
559.81	2229.50
560.16	2235.23
560.52	2241.24
560.87	2247.55
561.23	2253.48
561.58	2260.14
561.94	2265.55
562.29	2270.20
562.64	2276.33
563.00	2282.10
563.35	2287.75
563.71	2293.43
564.06	2299.14
564.42	2305.28
564.77	2310.46
565.12	2315.94
565.48	2321.11
565.83	2326.87
566.19	2332.42
566.54	2337.83
566.89	2342.48
567.25	2347.08
567.60	2352.74
567.96	2357.87
568.31	2362.58
568.66	2367.02
569.02	2371.14
569.37	2374.94
569.72	2379.54
570.08	2382.92
570.43	2386.14
570.78	2389.38
571.14	2392.00
571.49	2395.26
571.84	2398.97
572.20	2402.04
572.55	2404.93
572.90	2407.49
573.26	2410.50
573.61	2413.12
573.96	2415.61
574.31	2417.91
574.67	2420.11
575.02	2420.97
575.37	2422.46
575.72	2423.30
576.08	2424.83
576.43	2424.83
576.78	2425.31
577.13	2426.95
577.49	2428.40
577.84	2429.39
578.19	2430.96
578.54	2431.71
578.90	2432.56
579.25	2432.60
579.60	2432.60
579.95	2432.11
580.30	2432.25
580.66	2431.56
581.01	2430.20
581.36	2427.86
581.71	2426.53
582.06	2425.31
582.42	2424.72
582.77	2422.75
583.12	2421.26
583.47	2420.08
583.82	2419.84
584.17	2418.84
584.53	2416.88
584.88	2414.90
585.23	2413.39
585.58	2411.11
585.93	2409.39
586.28	2407.36
586.63	2405.04
586.98	2403.03
587.34	2401.25
587.69	2398.82
588.04	2396.86
588.39	2395.46
588.74	2393.17
589.09	2390.51
589.44	2387.46
589.79	2385.00
590.14	2383.20
590.49	2380.55
590.84	2376.75
591.19	2373.71
591.54	2370.73
591.89	2366.78
592.25	2363.70
592.60	2359.62
592.95	2355.69
593.30	2351.54
593.65	2347.42
594.00	2343.10
594.35	2340.20
594.70	2335.68
595.05	2331.36
595.40	2326.07
595.75	2320.39
596.10	2316.91
596.45	2312.22
596.80	2307.75
597.15	2302.64
597.50	2296.77
597.85	2291.91
598.19	2286.89
598.54	2281.10
598.89	2275.71
599.24	2271.28
599.59	2265.19
599.94	2259.46
600.29	2253.52
600.64	2247.60
600.99	2240.60
601.34	2235.07
601.69	2228.02
602.04	2221.61
602.39	2214.82
602.74	2208.57
603.08	2203.00
603.43	2196.43
603.78	2189.70
604.13	2182.75
604.48	2175.43
604.83	2169.24
605.18	2163.06
605.53	2156.13
605.87	2149.16
606.22	2142.43
606.57	2134.49
606.92	2126.55
607.27	2119.56
607.62	2112.88
607.96	2105.90
608.31	2099.52
608.66	2091.65
609.01	2084.15
609.36	2077.02
609.70	2069.53
610.05	2062.00
610.40	2053.65
610.75	2045.39
611.10	2037.42
611.44	2028.36
611.79	2019.64
612.14	2009.68
612.49	1999.01
612.83	1989.56
613.18	1980.18
613.53	1970.99
613.88	1961.36
614.22	1952.77
614.57	1942.85
614.92	1932.21
615.27	1921.81
615.61	1911.53
615.96	1901.89
616.31	1892.23
616.65	1882.64
617.00	1872.83
617.35	1863.07
617.70	1853.30
618.04	1843.15
618.39	1833.01
618.74	1823.43
619.08	1813.74
619.43	1805.02
619.78	1796.50
620.12	1787.94
620.47	1778.37
620.82	1767.81
621.16	1757.97
621.51	1747.93
621.85	1737.99
622.20	1727.51
622.55	1716.87
622.89	1706.90
623.24	1697.10
623.59	1687.23
623.93	1676.98
624.28	1666.93
624.62	1656.68
624.97	1646.30
625.32	1636.47
625.66	1627.54
626.01	1618.78
626.35	1609.36
626.70	1599.11
627.04	1589.02
627.39	1578.68
627.73	1569.20
628.08	1560.16
628.43	1550.58
628.77	1541.24
629.12	1532.14
629.46	1524.38
629.81	1516.10
630.15	1506.46
630.50	1496.51
630.84	1485.84
631.19	1475.85
631.53	1466.55
631.88	1456.21
632.22	1446.10
632.57	1436.65
632.91	1426.46
633.26	1416.41
633.60	1406.77
633.95	1397.44
634.29	1387.87
634.64	1378.46
634.98	1368.44
635.32	1359.03
635.67	1350.43
636.01	1341.05
636.36	1331.33
636.70	1321.62
637.05	1312.12
637.39	1303.14
637.73	1294.50
638.08	1286.95
638.42	1278.83
638.77	1269.95
639.11	1261.71
639.45	1253.82
639.80	1245.15
640.14	1236.25
640.49	1227.22
640.83	1218.29
641.17	1210.05
641.52	1201.82
641.86	1193.14
642.20	1185.20
642.55	1176.47
642.89	1167.47
643.23	1158.71
643.58	1150.48
643.92	1141.42
644.26	1132.56
644.61	1124.05
644.95	1115.13
645.29	1105.79
645.64	1096.45
645.98	1087.84
646.32	1079.80
646.66	1071.17
647.01	1062.77
647.35	1054.57
647.69	1046.21
648.04	1037.86
648.38	1029.00
648.72	1020.13
649.06	1011.62
649.41	1003.35
649.75	995.34
650.09	987.35
650.43	979.32
650.78	970.90
651.12	963.06
651.46	955.67
651.80	948.28
652.14	940.95
652.49	933.37
652.83	925.99
653.17	918.20
653.51	910.48
653.85	903.22
654.20	895.87
654.54	888.35
654.88	881.01
655.22	873.62
655.56	866.48
655.90	859.71
656.25	852.90
656.59	846.00
656.93	839.01
657.27	831.84
657.61	824.68
657.95	818.59
658.29	812.63
658.64	806.49
658.98	800.04
659.32	793.44
659.66	787.12
660.00	780.76
660.34	774.72
660.68	768.66
661.02	762.26
661.36	756.24
661.70	750.40
662.05	744.76
662.39	739.29
662.73	733.88
663.07	728.41
663.41	722.82
663.75	717.07
664.09	711.29
664.43	705.82
664.77	700.56
665.11	694.71
665.45	688.72
665.79	682.80
666.13	677.08
666.47	671.59
666.81	666.16
667.15	660.67
667.49	655.43
667.83	650.07
668.17	644.81
668.51	639.68
668.85	634.73
669.19	629.78
669.53	624.72
669.87	619.54
670.21	614.71
670.55	609.92
670.89	605.38
671.23	601.05
671.57	596.59
671.91	592.22
672.25	587.97
672.58	583.89
672.92	579.78
673.26	575.80
673.60	571.84
673.94	568.01
674.28	564.36
674.62	560.63
674.96	556.89
675.30	553.41
675.64	549.76
675.97	546.19
676.31	542.60
676.65	539.01
676.99	535.61
677.33	531.80
677.67	528.25
678.01	524.41
678.34	520.74
678.68	517.24
679.02	513.66
679.36	510.03
679.70	506.34
680.04	502.78
680.37	499.32
680.71	496.00
681.05	492.80
681.39	489.57
681.73	486.34
682.06	483.29
682.40	480.10
682.74	476.85
683.08	473.60
683.42	470.36
683.75	467.36
684.09	464.29
684.43	461.44
684.77	458.46
685.10	455.60
685.44	452.73
685.78	449.81
686.12	447.03
686.45	444.25
686.79	441.61
687.13	439.11
687.46	436.55
687.80	433.88
688.14	431.02
688.48	428.37
688.81	425.69
689.15	423.08
689.49	420.54
689.82	418.06
690.16	415.46
690.50	413.01
690.83	410.51
691.17	408.00
691.51	405.49
691.84	403.22
692.18	400.98
692.52	398.79
692.85	396.67
693.19	394.54
693.52	392.37
693.86	390.12
694.20	387.89
694.53	385.66
694.87	383.46
695.21	381.32
695.54	379.16
695.88	377.01
696.21	374.86
696.55	372.72
696.88	370.63
697.22	368.65
697.56	366.73
697.89	364.86
698.23	363.10
698.56	361.35
698.90	359.57
699.23	357.69
699.57	355.82
699.90	353.97
700.24	352.12
700.58	350.39
700.91	348.76
701.25	347.21
701.58	345.63
701.92	344.04
702.25	342.40
702.59	340.77
702.92	339.25
703.26	337.68
703.59	336.18
703.93	334.94
704.26	333.50
704.60	332.02
704.93	330.51
705.26	329.04
705.60	327.54
705.93	326.01
706.27	324.70
706.60	323.43
706.94	322.18
707.27	320.80
707.61	319.45
707.94	318.10
708.27	316.59
708.61	315.17
708.94	313.79
709.28	312.54
709.61	311.32
709.94	310.06
710.28	308.83
710.61	307.69
710.95	306.25
711.28	305.18
711.61	304.01
711.95	302.87
712.28	301.66
712.61	300.48
712.95	299.44
713.28	298.40
713.61	297.22
713.95	296.07
714.28	295.08
714.61	294.06
714.95	293.05
715.28	292.09
715.61	291.08
715.95	290.13
716.28	289.16
716.61	288.19
716.95	287.21
717.28	286.32
717.61	285.31
717.94	284.39
718.28	283.35
718.61	282.48
718.94	281.61
719.27	280.76
719.61	280.00
719.94	279.14
720.27	278.21
720.60	277.37
720.94	276.58
721.27	275.81
721.60	275.14
721.93	274.41
722.27	273.72
722.60	273.07
722.93	272.39
723.26	271.73
723.59	271.03
723.93	270.41
724.26	269.76
724.59	269.10
724.92	268.54
725.25	268.02
725.59	267.43
725.92	266.92
726.25	266.33
726.58	265.76
726.91	265.15
727.24	264.58
727.57	264.02
727.91	263.43
728.24	262.86
728.57	262.25
728.90	261.68
729.23	261.07
729.56	260.60
729.89	260.04
730.22	259.45
730.55	258.95
730.89	258.46
731.22	257.93
731.55	257.45
731.88	256.93
732.21	256.37
732.54	255.84
732.87	255.32
733.20	254.84
733.53	254.35
733.86	253.93
734.19	253.47
734.52	253.05
734.85	252.78
735.18	252.35
735.51	252.01
735.84	251.61
736.17	251.24
736.50	250.71
736.83	250.56
737.16	250.21
737.49	249.85
737.82	249.40
738.15	249.05
738.48	248.67
738.81	248.29
739.14	247.87
739.47	247.48
739.80	247.11
740.13	246.80
740.46	246.42
740.79	246.04
741.12	245.67
741.45	245.28
741.78	244.84
742.11	244.58
742.44	244.18
742.77	243.86
743.10	243.50
743.43	243.18
743.75	242.61
744.08	242.54
744.41	242.16
744.74	241.82
745.07	241.39
745.40	241.08
745.73	240.79
746.06	240.51
746.39	240.25
746.71	239.88
747.04	239.49
747.37	239.15
747.70	238.87
748.03	238.58
748.36	238.31
748.68	237.97
749.01	237.57
749.34	237.29
749.67	236.98
750.00	236.72
750.33	236.58
750.65	236.32
750.98	235.79
751.31	235.54
751.64	235.36
751.97	235.26
752.29	235.00
752.62	234.65
752.95	234.40
753.28	234.12
753.60	233.88
753.93	233.70
754.26	233.50
754.59	233.23
754.91	232.97
755.24	232.70
755.57	232.47
755.90	232.27
756.22	231.99
756.55	231.78
756.88	231.53
757.20	231.19
757.53	230.94
757.86	230.72
758.19	230.52
758.51	230.30
758.84	230.01
759.17	229.80
759.49	229.65
759.82	229.54
760.15	229.38
760.47	229.22
760.80	228.96
761.13	228.80
761.45	228.58
761.78	228.38
762.11	228.25
762.43	228.04
762.76	227.88
763.08	227.74
763.41	227.60
763.74	227.44
764.06	227.32
764.39	227.20
764.71	227.07
765.04	226.90
765.37	226.71
765.69	226.53
766.02	226.41
766.34	226.25
766.67	226.04
767.00	225.96
767.32	225.91
767.65	225.92
767.97	225.77
768.30	225.68
768.62	225.59
768.95	225.43
769.27	225.35
769.60	225.25
769.92	225.13
770.25	224.96
770.57	224.81
770.90	224.65
771.22	224.47
771.55	224.39
771.87	224.29
772.20	224.18
772.52	224.27
772.85	224.40
773.17	224.31
773.50	224.18
773.82	224.01
774.15	223.83
774.47	223.62
774.80	223.49
775.12	223.39
775.45	223.28
775.77	223.20
776.09	223.11
776.42	223.03
776.74	222.99
777.07	222.89
777.39	222.82
777.72	222.71
778.04	222.69
778.36	222.57
778.69	222.51
779.01	222.47
779.33	222.19
779.66	221.87
779.98	221.80
780.31	221.77
780.63	221.81
780.95	221.79
781.28	221.71
781.60	221.62
781.92	221.55
782.25	221.50
782.57	221.43
782.89	221.32
783.22	221.23
783.54	221.12
783.86	221.07
784.19	221.00
784.51	221.02
784.83	220.92
785.16	220.86
785.48	220.80
785.80	220.73
786.12	220.74
786.45	220.69
786.77	220.65
787.09	220.60
787.42	220.42
787.74	220.36
788.06	220.34
788.38	220.33
788.71	220.27
789.03	220.27
789.35	220.26
789.67	220.23
789.99	220.17
790.32	220.11
790.64	220.11
790.96	220.21
791.28	220.09
791.61	220.02
791.93	219.98
792.25	219.92
792.57	220.03
792.89	219.91
793.21	219.88
793.54	219.78
793.86	219.69
794.18	219.69
794.50	219.62
794.82	219.56
795.14	219.53
795.47	219.54
795.79	219.46
796.11	219.36
796.43	219.31
796.75	219.28
797.07	219.24
797.39	219.15
797.71	218.96
798.04	218.95
798.36	218.95
798.68	218.93
799.00	218.92
799.32	218.78
799.64	218.80
799.96	218.75
800.28	218.77
800.60	218.74
800.92	218.70
801.24	218.64
801.56	218.61
801.89	218.56
802.21	218.52
802.53	218.43
802.85	218.46
803.17	218.52
803.49	218.43
803.81	218.40
804.13	218.40
804.45	218.38
804.77	218.33
805.09	218.27
805.41	218.18
805.73	218.08
806.05	217.98
806.37	217.93
806.69	217.90
807.01	217.88
807.33	217.88
807.65	217.76
807.97	217.81
808.28	217.77
808.60	217.74
808.92	217.66
809.24	217.79
809.56	217.71
809.88	217.60
810.20	217.60
810.52	217.62
810.84	217.56
811.16	217.49
811.48	217.48
811.80	217.55
812.12	217.51
812.43	217.54
812.75	217.53
813.07	217.49
813.39	217.47
813.71	217.37
814.03	217.29
814.35	217.29
814.67	217.20
814.98	217.16
815.30	217.13
815.62	217.12
815.94	216.95
816.26	216.93
816.58	216.91
816.89	216.91
817.21	216.80
817.53	216.81
817.85	216.78
818.17	216.78
818.48	216.67
818.80	216.73
819.12	216.67
819.44	216.62
819.76	216.60
820.07	216.56
820.39	216.57
820.71	216.57
821.03	216.55
821.34	216.52
821.66	216.50
821.98	216.49
822.30	216.49
822.61	216.62
822.93	216.59
823.25	216.53
823.57	216.49
823.88	216.54
824.20	216.53
824.52	216.55
824.83	216.52
825.15	216.49
825.47	216.42
825.79	216.42
826.10	216.43
826.42	216.39
826.74	216.41
827.05	216.39
827.37	216.38
827.69	216.37
828.00	216.37
828.32	216.35
828.64	216.28
828.95	216.35
829.27	216.28
829.58	216.28
829.90	216.31
830.22	216.34
830.53	216.28
830.85	216.24
831.17	216.18
831.48	216.13
831.80	216.13
832.11	216.16
832.43	216.12
832.75	216.07
833.06	216.21
833.38	216.13
833.69	216.10
834.01	216.08
834.32	216.08
834.64	216.04
834.96	216.05
835.27	216.07
835.59	216.01
835.90	215.93
836.22	215.92
836.53	215.86
836.85	215.80
837.16	215.99
837.48	215.99
837.79	216.06
838.11	216.09
838.42	216.05
838.74	216.05
839.05	216.01
839.37	216.02
839.68	215.85
840.00	215.84
840.31	215.87
840.63	215.87
840.94	215.83
841.26	215.81
841.57	215.81
841.88	215.84
842.20	215.79
842.51	215.78
842.83	215.75
843.14	215.94
843.46	215.94
843.77	215.82
844.08	215.78
844.40	215.69
844.71	215.66
845.03	215.67
845.34	215.65
845.65	215.65
845.97	215.62
846.28	215.64
846.60	215.68
846.91	215.65
847.22	215.63
847.54	215.69
847.85	215.70
848.16	215.64
848.48	215.58
848.79	215.66
849.10	215.69
849.42	215.71
849.73	215.51
850.04	215.50
850.36	215.41
850.67	215.45
850.98	215.47
851.30	215.46
851.61	215.44
851.92	215.44
852.23	215.50
852.55	215.56
852.86	215.56
853.17	215.55
853.49	215.58
853.80	215.60
854.11	215.59
854.42	215.65
854.74	215.67
855.05	215.69
855.36	215.58
855.67	215.57
855.99	215.58
856.30	215.85
856.61	215.84
856.92	215.87
857.23	215.86
857.55	215.87
857.86	215.88
858.17	215.91
858.48	215.85
858.79	215.81
859.11	215.81
859.42	215.79
859.73	215.75
860.04	215.77
860.35	215.73
860.66	215.66
860.98	215.61
861.29	215.63
861.60	215.57
861.91	215.57
862.22	215.55
862.53	215.49
862.84	215.21
863.16	215.28
863.47	215.24
863.78	215.22
864.09	215.21
864.40	215.18
864.71	215.21
865.02	215.24
865.33	215.20
865.64	215.17
865.95	215.17
866.27	215.35
866.58	215.29
866.89	215.32
867.20	215.36
867.51	215.32
867.82	215.31
868.13	215.42
868.44	215.38
868.75	215.39
869.06	215.43
869.37	215.44
869.68	215.35
869.99	215.36
870.30	215.39
870.61	215.37
870.92	215.31
871.23	215.28
871.54	215.29
871.85	215.34
872.16	215.32
872.47	215.29
872.78	215.11
873.09	215.15
873.40	215.11
873.71	215.11
874.02	215.14
874.33	215.13
874.64	215.05
874.95	215.08
875.26	215.05
875.56	215.03
875.87	215.00
876.18	215.02
876.49	215.22
876.80	215.16
877.11	215.15
877.42	215.20
877.73	215.17
878.04	215.15
878.35	215.16
878.66	215.18
878.96	215.19
879.27	215.22
879.58	215.16
879.89	215.18
880.20	215.21
880.51	215.19
880.82	215.17
881.12	215.18
881.43	215.20
881.74	215.22
882.05	215.19
882.36	215.21
882.67	215.19
882.97	214.98
883.28	214.96
883.59	214.95
883.90	214.98
884.21	215.04
884.51	215.03
884.82	214.98
885.13	214.95
885.44	214.94
885.74	214.91
886.05	214.94
886.36	214.93
886.67	214.87
886.98	214.97
887.28	214.99
887.59	214.98
887.90	214.91
888.20	214.87
888.51	214.89
888.82	214.89
889.13	214.93
889.43	215.09
889.74	215.12
890.05	215.14
890.35	215.12
890.66	215.07
890.97	215.06
891.28	215.05
891.58	215.06
891.89	215.07
892.20	215.06
892.50	215.03
892.81	215.03
893.12	215.01
893.42	214.94
893.73	214.93
894.04	214.94
894.34	214.96
894.65	214.97
894.95	214.97
895.26	214.94
895.57	215.03
895.87	214.83
896.18	214.84
896.48	214.84
896.79	214.83
897.10	214.85
897.40	214.84
897.71	214.87
898.01	214.86
898.32	214.90
898.63	214.91
898.93	214.92
899.24	214.92
899.54	214.92
899.85	214.87
900.15	214.85
900.46	214.83
900.76	214.90
901.07	214.91
901.38	214.90
901.68	214.98
901.99	214.88
902.29	214.90
902.60	214.90
902.90	214.89
903.21	214.89
903.51	214.90
903.82	214.97
904.12	214.97
904.43	215.02
904.73	215.01
905.03	215.01
905.34	215.20
905.64	215.20
905.95	215.20
906.25	215.21
906.56	215.24
906.86	215.25
907.17	215.23
907.47	215.22
907.77	215.21
908.08	215.15
908.38	215.13
908.69	215.14
908.99	215.18
909.30	215.16
909.60	215.16
909.90	215.15
910.21	215.09
910.51	215.09
910.81	215.05
911.12	215.05
911.42	215.04
911.73	214.85
912.03	214.83
912.33	214.89
912.64	214.88
912.94	214.84
913.24	214.79
913.55	214.76
913.85	214.77
914.15	214.81
914.46	214.81
914.76	214.83
915.06	214.83
915.37	214.77
915.67	214.76
915.97	214.80
916.27	214.77
916.58	214.76
916.88	214.70
917.18	214.70
917.49	214.79
917.79	214.79
918.09	214.80
918.39	214.86
918.70	214.84
919.00	214.86
919.30	214.99
919.60	215.00
919.91	214.99
920.21	215.01
920.51	214.96
920.81	214.94
921.12	214.98
921.42	214.95
921.72	214.97
922.02	215.00
922.32	215.00
922.63	215.04
922.93	215.16
923.23	215.20
923.53	215.15
923.83	215.09
924.13	215.09
924.44	215.09
924.74	215.12
925.04	215.18
925.34	215.17
925.64	215.08
925.94	215.07
926.24	215.17
926.55	215.14
926.85	215.15
927.15	215.16
927.45	215.16
927.75	215.15
928.05	215.15
928.35	215.14
928.65	215.15
928.95	215.15
929.26	215.06
929.56	215.08
929.86	215.12
930.16	215.08
930.46	215.05
930.76	215.04
931.06	214.94
931.36	214.88
931.66	214.89
931.96	214.91
932.26	214.95
932.56	214.86
932.86	214.87
933.16	214.86
933.46	214.84
933.76	214.80
934.06	214.86
934.36	214.94
934.66	214.92
934.96	214.91
935.26	214.90
935.56	214.93
935.86	214.87
936.16	214.85
936.46	214.85
936.76	214.87
937.06	214.83
937.36	214.84
937.66	214.85
937.96	214.84
938.26	214.76
938.56	214.75
938.86	214.79
939.16	214.85
939.46	214.87
939.76	214.88
940.06	214.90
940.35	214.85
940.65	214.72
940.95	214.77
941.25	214.71
941.55	214.71
941.85	214.70
942.15	214.76
942.45	214.81
942.75	214.79
943.04	214.81
943.34	214.89
943.64	214.85
943.94	214.84
944.24	214.87
944.54	214.92
944.84	214.92
945.13	214.90
945.43	214.84
945.73	214.84
946.03	214.81
946.33	214.77
946.62	214.75
946.92	214.76
947.22	214.75
947.52	214.76
947.82	214.78
948.11	214.75
948.41	214.71
948.71	214.62
949.01	214.62
949.31	214.59
949.60	214.55
949.90	214.63
950.20	214.62
950.50	214.55
950.79	214.51
951.09	214.56
951.39	214.55
951.69	214.54
951.98	214.57
952.28	214.56
952.58	214.56
952.87	214.58
953.17	214.61
953.47	214.60
953.76	214.59
954.06	214.51
954.36	214.50
954.66	214.51
954.95	214.59
955.25	214.61
955.55	214.63
955.84	214.62
956.14	214.61
956.44	214.60
956.73	214.62
957.03	214.64
957.32	214.60
957.62	214.57
957.92	214.63
958.21	214.62
958.51	214.91
958.81	214.96
959.10	214.97
959.40	215.02
959.69	215.02
959.99	215.06
960.29	215.09
960.58	215.09
960.88	215.17
961.17	215.12
961.47	215.16
961.76	215.13
962.06	215.18
962.36	215.13
962.65	215.18
962.95	215.17
963.24	215.15
963.54	215.18
963.83	215.21
964.13	215.16
964.42	215.11
964.72	214.90
965.01	214.89
965.31	214.87
965.60	214.78
965.90	214.92
966.19	214.85
966.49	214.88
966.78	214.85
967.08	214.81
967.37	214.85
967.67	214.81
967.96	214.84
968.26	214.80
968.55	214.85
968.85	214.82
969.14	214.84
969.43	214.83
969.73	214.78
970.02	214.78
970.32	214.79
970.61	214.78
970.91	214.75
971.20	214.71
971.49	214.70
971.79	214.73
972.08	214.58
972.38	214.62
972.67	214.59
972.96	214.63
973.26	214.59
973.55	214.63
973.85	214.61
974.14	214.60
974.43	214.61
974.73	214.55
975.02	214.53
975.31	214.51
975.61	214.53
975.90	214.49
976.19	214.45
976.49	214.43
976.78	214.46
977.07	214.43
977.37	214.47
977.66	214.50
977.95	214.46
978.24	214.46
978.54	214.49
978.83	214.50
979.12	214.48
979.42	214.49
979.71	214.44
980.00	214.44
980.29	214.42
980.59	214.38
980.88	214.45
981.17	214.43
981.46	214.46
981.76	214.45
982.05	214.54
982.34	214.58
982.63	214.58
982.93	214.56
983.22	214.64
983.51	214.64
983.80	214.67
984.09	214.72
984.39	214.74
984.68	214.73
984.97	214.73
985.26	214.70
985.55	214.71
985.85	214.70
986.14	214.73
986.43	214.78
986.72	214.78
987.01	214.71
987.30	214.73
987.59	214.69
987.89	214.68
988.18	214.61
988.47	214.57
988.76	214.57
989.05	214.57
989.34	214.53
989.63	214.61
989.92	214.59
990.22	214.54
990.51	214.52
990.80	214.48
991.09	214.52
991.38	214.54
991.67	214.51
991.96	214.49
992.25	214.48
992.54	214.45
992.83	214.47
993.12	214.48
993.41	214.53
993.70	214.63
993.99	214.69
994.28	214.71
994.58	214.76
994.87	214.73
995.16	214.72
995.45	214.71
995.74	214.62
996.03	214.65
996.32	214.70
996.61	214.73
996.90	214.74
997.19	214.72
997.48	214.74
997.77	214.72
998.06	214.73
998.34	214.69
998.63	214.66
998.92	214.67
999.21	214.69
999.50	214.64
999.79	214.60
1000.08	214.56
1000.37	214.56
1000.66	214.52
1000.95	214.57
1001.24	214.60
1001.53	214.61
1001.82	214.59
1002.11	214.52
1002.40	214.51
1002.68	214.56
1002.97	214.70
1003.26	214.68
1003.55	214.65
1003.84	214.70
1004.13	214.75
1004.42	214.79
1004.71	214.80
1004.99	214.79
1005.28	214.84
1005.57	214.85
1005.86	214.79
1006.15	214.81
1006.44	214.77
1006.72	214.80
1007.01	214.79
1007.30	214.77
1007.59	214.75
1007.88	214.73
1008.17	214.75
1008.45	214.71
1008.74	214.63
1009.03	214.55
1009.32	214.55
1009.60	214.53
1009.89	214.48
1010.18	214.42
1010.47	214.40
1010.76	214.38
1011.04	214.36
1011.33	214.36
1011.62	214.37
1011.91	214.39
1012.19	214.41
1012.48	214.43
1012.77	214.46
1013.05	214.50
1013.34	214.51
1013.63	214.49
1013.92	214.51
1014.20	214.48
1014.49	214.52
1014.78	214.57
1015.06	214.53
1015.35	214.54
1015.64	214.57
1015.92	214.61
1016.21	214.60
1016.50	214.61
1016.78	214.63
1017.07	214.66
1017.36	214.64
1017.64	214.63
1017.93	214.65
1018.22	214.63
1018.50	214.63
1018.79	214.62
1019.08	214.56
1019.36	214.58
1019.65	214.58
1019.93	214.66
1020.22	214.68
1020.51	214.76
1020.79	214.75
1021.08	214.35
1021.36	214.43
1021.65	214.95
1021.94	214.53
1022.22	214.68
1022.51	214.42
1022.79	215.67
1023.08	214.32
1023.36	217.23
1023.65	214.59
>>>>>End Processed Spectral Data<<<<<
