SpectraSuite Data File
++++++++++++++++++++++++++++++++++++
Date: Tue Jan 29 16:42:57 EST 2013
User: group
Dark Spectrum Present: No
Reference Spectrum Present: No
Number of Sampled Component Spectra: 1
Spectrometers: USB2E7196
Integration Time (usec): 65000 (USB2E7196)
Spectra Averaged: 100 (USB2E7196)
Boxcar Smoothing: 10 (USB2E7196)
Correct for Electrical Dark: No (USB2E7196)
Strobe/Lamp Enabled: No (USB2E7196)
Correct for Detector Non-linearity: No (USB2E7196)
Correct for Stray Light: No (USB2E7196)
Number of Pixels in Processed Spectrum: 2048
>>>>>Begin Processed Spectral Data<<<<<
339.09	0.00
339.48	201.80
339.86	203.34
340.24	204.94
340.63	205.71
341.01	210.58
341.39	208.30
341.78	209.90
342.16	211.94
342.54	211.43
342.93	201.06
343.31	211.23
343.69	211.78
344.07	212.25
344.46	212.70
344.84	213.11
345.22	213.29
345.60	213.62
345.99	213.84
346.37	213.95
346.75	214.09
347.13	214.15
347.52	214.20
347.90	214.32
348.28	214.38
348.66	214.47
349.05	214.43
349.43	214.47
349.81	214.53
350.19	214.59
350.57	214.63
350.96	214.76
351.34	214.85
351.72	214.95
352.10	215.04
352.48	215.10
352.87	215.17
353.25	215.22
353.63	215.25
354.01	215.31
354.39	215.43
354.77	215.51
355.15	215.64
355.54	215.71
355.92	215.68
356.30	215.75
356.68	215.94
357.06	216.00
357.44	216.06
357.82	216.15
358.20	216.19
358.58	216.25
358.97	216.29
359.35	216.42
359.73	216.51
360.11	216.57
360.49	216.61
360.87	216.65
361.25	216.71
361.63	216.79
362.01	216.87
362.39	216.87
362.77	216.92
363.15	216.95
363.53	216.99
363.91	217.03
364.29	217.05
364.67	216.87
365.05	216.91
365.43	216.93
365.81	216.94
366.19	217.05
366.57	217.15
366.95	217.17
367.33	217.11
367.71	217.08
368.09	217.15
368.47	217.17
368.85	217.16
369.23	217.19
369.61	217.15
369.99	217.17
370.37	217.17
370.75	217.22
371.13	217.16
371.51	217.12
371.89	217.13
372.27	217.12
372.65	217.13
373.03	217.08
373.41	217.04
373.78	216.99
374.16	216.87
374.54	216.75
374.92	216.65
375.30	216.63
375.68	216.56
376.06	216.51
376.44	216.47
376.82	216.44
377.19	216.40
377.57	216.35
377.95	216.22
378.33	216.19
378.71	216.05
379.09	216.04
379.47	216.03
379.84	215.96
380.22	215.92
380.60	215.82
380.98	215.80
381.36	215.75
381.73	215.71
382.11	215.69
382.49	215.67
382.87	215.63
383.25	215.57
383.62	215.78
384.00	215.69
384.38	215.67
384.76	215.66
385.13	215.68
385.51	215.63
385.89	215.59
386.27	215.53
386.64	215.52
387.02	215.47
387.40	215.42
387.78	215.42
388.15	215.40
388.53	215.37
388.91	215.34
389.29	215.29
389.66	215.31
390.04	215.28
390.42	215.28
390.79	215.30
391.17	215.29
391.55	215.04
391.92	215.06
392.30	215.07
392.68	215.03
393.05	215.03
393.43	215.04
393.81	215.08
394.18	215.05
394.56	215.08
394.94	215.14
395.31	215.10
395.69	215.16
396.06	215.19
396.44	215.23
396.82	215.21
397.19	215.35
397.57	215.35
397.95	215.43
398.32	215.41
398.70	215.43
399.07	215.49
399.45	215.54
399.82	215.56
400.20	215.56
400.58	215.59
400.95	215.57
401.33	215.66
401.70	215.85
402.08	215.96
402.45	216.03
402.83	216.16
403.20	216.32
403.58	216.42
403.95	216.55
404.33	216.70
404.71	216.88
405.08	217.15
405.46	217.32
405.83	217.50
406.21	217.70
406.58	217.97
406.96	218.20
407.33	218.48
407.70	218.79
408.08	219.27
408.45	219.64
408.83	220.01
409.20	220.37
409.58	220.65
409.95	221.12
410.33	221.57
410.70	221.97
411.08	222.51
411.45	223.10
411.82	223.68
412.20	224.37
412.57	225.20
412.95	225.75
413.32	226.57
413.69	227.42
414.07	228.34
414.44	229.32
414.82	230.34
415.19	231.53
415.56	232.72
415.94	233.90
416.31	235.34
416.68	236.76
417.06	238.37
417.43	239.95
417.81	241.74
418.18	243.57
418.55	245.51
418.93	247.58
419.30	249.69
419.67	251.95
420.04	254.23
420.42	256.63
420.79	259.51
421.16	262.29
421.54	265.16
421.91	268.15
422.28	271.27
422.66	274.56
423.03	277.82
423.40	281.20
423.77	284.85
424.15	288.52
424.52	292.38
424.89	296.56
425.26	300.62
425.64	304.47
426.01	308.80
426.38	313.31
426.75	317.86
427.13	322.65
427.50	327.68
427.87	332.95
428.24	338.18
428.61	343.19
428.99	348.77
429.36	354.81
429.73	360.71
430.10	366.55
430.47	372.66
430.85	378.95
431.22	385.67
431.59	392.81
431.96	399.66
432.33	407.22
432.70	414.55
433.08	423.11
433.45	431.20
433.82	439.20
434.19	448.07
434.56	456.85
434.93	465.16
435.30	473.40
435.68	482.51
436.05	491.50
436.42	500.42
436.79	508.55
437.16	517.38
437.53	526.67
437.90	535.85
438.27	544.90
438.64	554.21
439.01	562.78
439.38	570.37
439.75	577.73
440.13	586.12
440.50	594.07
440.87	600.53
441.24	607.21
441.61	614.64
441.98	620.06
442.35	626.37
442.72	632.73
443.09	638.85
443.46	642.63
443.83	645.21
444.20	647.43
444.57	650.61
444.94	652.13
445.31	653.62
445.68	655.05
446.05	655.63
446.42	654.80
446.79	653.91
447.16	652.81
447.53	652.05
447.90	648.70
448.27	645.37
448.64	640.71
449.01	637.41
449.37	631.46
449.74	625.81
450.11	618.89
450.48	611.44
450.85	603.97
451.22	597.48
451.59	591.34
451.96	585.45
452.33	577.56
452.70	570.39
453.07	561.87
453.43	553.23
453.80	544.92
454.17	536.94
454.54	529.33
454.91	521.16
455.28	513.10
455.65	505.69
456.02	498.14
456.38	491.73
456.75	483.81
457.12	477.20
457.49	470.62
457.86	464.41
458.23	459.04
458.59	453.07
458.96	447.07
459.33	441.71
459.70	436.37
460.07	432.06
460.43	427.11
460.80	422.49
461.17	418.51
461.54	414.29
461.91	410.22
462.27	406.11
462.64	402.62
463.01	398.87
463.38	395.12
463.74	391.47
464.11	388.26
464.48	385.45
464.85	382.34
465.21	379.94
465.58	377.29
465.95	374.12
466.32	371.48
466.68	368.85
467.05	366.21
467.42	363.61
467.78	360.95
468.15	358.41
468.52	356.51
468.88	353.94
469.25	351.69
469.62	349.90
469.98	347.88
470.35	346.04
470.72	344.35
471.08	342.58
471.45	341.04
471.82	339.56
472.18	337.83
472.55	336.57
472.92	335.14
473.28	333.93
473.65	332.76
474.02	331.62
474.38	330.70
474.75	329.97
475.11	329.16
475.48	328.57
475.85	328.06
476.21	327.53
476.58	327.16
476.94	326.96
477.31	326.65
477.67	326.41
478.04	326.25
478.41	326.18
478.77	326.29
479.14	326.20
479.50	326.31
479.87	326.63
480.23	326.96
480.60	327.21
480.96	327.41
481.33	327.99
481.69	328.57
482.06	329.06
482.42	329.51
482.79	330.11
483.15	330.88
483.52	331.82
483.88	332.78
484.25	333.75
484.61	334.73
484.98	335.74
485.34	337.00
485.71	338.35
486.07	339.78
486.44	341.14
486.80	342.77
487.17	344.41
487.53	346.20
487.90	348.08
488.26	350.09
488.62	352.26
488.99	354.30
489.35	356.46
489.72	358.87
490.08	361.41
490.44	363.97
490.81	366.68
491.17	369.37
491.54	372.30
491.90	375.36
492.26	378.60
492.63	382.01
492.99	385.52
493.36	389.27
493.72	393.15
494.08	397.16
494.45	401.39
494.81	405.73
495.17	410.18
495.54	414.87
495.90	419.68
496.26	424.65
496.63	429.89
496.99	435.31
497.35	440.92
497.72	446.70
498.08	452.61
498.44	458.70
498.80	465.18
499.17	471.69
499.53	478.40
499.89	485.33
500.26	492.27
500.62	499.37
500.98	506.74
501.34	514.21
501.71	521.97
502.07	529.75
502.43	537.79
502.79	545.95
503.16	554.32
503.52	562.94
503.88	571.60
504.24	580.59
504.60	589.57
504.97	598.81
505.33	608.10
505.69	618.00
506.05	627.91
506.41	637.76
506.78	647.80
507.14	658.01
507.50	668.44
507.86	679.25
508.22	690.03
508.59	700.80
508.95	711.87
509.31	723.19
509.67	734.72
510.03	746.21
510.39	757.91
510.75	769.75
511.12	781.65
511.48	793.79
511.84	806.03
512.20	818.46
512.56	831.14
512.92	843.97
513.28	856.66
513.64	869.38
514.00	882.21
514.37	895.22
514.73	908.41
515.09	921.54
515.45	934.46
515.81	947.62
516.17	960.96
516.53	974.23
516.89	987.31
517.25	1000.50
517.61	1014.06
517.97	1027.58
518.33	1040.89
518.69	1054.42
519.05	1068.19
519.41	1081.88
519.77	1095.82
520.13	1109.12
520.49	1122.42
520.85	1135.82
521.21	1149.25
521.57	1162.96
521.93	1176.17
522.29	1190.00
522.65	1203.62
523.01	1217.40
523.37	1230.64
523.73	1243.97
524.09	1257.22
524.45	1270.76
524.81	1284.34
525.17	1297.65
525.53	1310.94
525.89	1324.32
526.25	1337.50
526.61	1350.49
526.97	1363.75
527.33	1376.75
527.68	1390.35
528.04	1403.86
528.40	1417.01
528.76	1430.49
529.12	1443.48
529.48	1456.81
529.84	1469.09
530.20	1481.93
530.56	1494.53
530.91	1507.86
531.27	1520.80
531.63	1533.49
531.99	1546.25
532.35	1558.48
532.71	1571.13
533.07	1583.96
533.42	1596.28
533.78	1608.58
534.14	1620.71
534.50	1631.98
534.86	1643.69
535.21	1654.53
535.57	1666.20
535.93	1677.55
536.29	1688.70
536.65	1700.29
537.00	1711.40
537.36	1723.03
537.72	1734.08
538.08	1745.48
538.44	1756.46
538.79	1767.59
539.15	1778.74
539.51	1789.72
539.87	1801.23
540.22	1812.12
540.58	1823.28
540.94	1834.26
541.29	1844.62
541.65	1854.43
542.01	1865.05
542.37	1875.27
542.72	1885.59
543.08	1895.33
543.44	1905.98
543.79	1915.24
544.15	1924.60
544.51	1934.62
544.87	1944.44
545.22	1953.82
545.58	1962.84
545.94	1971.88
546.29	1980.58
546.65	1989.08
547.01	1997.41
547.36	2005.10
547.72	2012.85
548.07	2020.42
548.43	2028.27
548.79	2036.27
549.14	2044.58
549.50	2053.09
549.86	2061.06
550.21	2068.67
550.57	2076.40
550.92	2083.22
551.28	2090.88
551.64	2098.38
551.99	2105.86
552.35	2113.17
552.70	2120.20
553.06	2126.91
553.41	2133.18
553.77	2139.66
554.13	2146.06
554.48	2153.08
554.84	2160.35
555.19	2166.96
555.55	2173.51
555.90	2179.65
556.26	2186.47
556.61	2192.56
556.97	2197.41
557.32	2203.11
557.68	2209.52
558.03	2215.43
558.39	2220.92
558.74	2226.90
559.10	2232.62
559.45	2238.35
559.81	2243.86
560.16	2249.23
560.52	2255.12
560.87	2261.50
561.23	2267.44
561.58	2274.06
561.94	2279.29
562.29	2283.71
562.64	2289.64
563.00	2295.38
563.35	2300.99
563.71	2306.61
564.06	2312.38
564.42	2318.38
564.77	2323.41
565.12	2328.56
565.48	2333.53
565.83	2338.91
566.19	2344.22
566.54	2349.18
566.89	2353.49
567.25	2358.09
567.60	2363.80
567.96	2368.87
568.31	2373.37
568.66	2377.61
569.02	2381.44
569.37	2385.19
569.72	2389.72
570.08	2393.18
570.43	2396.06
570.78	2399.23
571.14	2401.59
571.49	2404.46
571.84	2407.93
572.20	2410.85
572.55	2413.72
572.90	2415.98
573.26	2418.65
573.61	2421.21
573.96	2423.50
574.31	2425.52
574.67	2427.30
575.02	2427.85
575.37	2429.16
575.72	2429.67
576.08	2430.99
576.43	2430.98
576.78	2431.13
577.13	2432.49
577.49	2433.58
577.84	2434.50
578.19	2435.50
578.54	2436.11
578.90	2436.71
579.25	2436.27
579.60	2435.86
579.95	2434.88
580.30	2434.76
580.66	2433.89
581.01	2432.10
581.36	2429.55
581.71	2427.98
582.06	2426.59
582.42	2425.61
582.77	2423.21
583.12	2421.53
583.47	2419.98
583.82	2419.31
584.17	2417.95
584.53	2415.84
584.88	2413.74
585.23	2411.68
585.58	2409.42
585.93	2407.25
586.28	2404.81
586.63	2402.27
586.98	2400.00
587.34	2397.96
587.69	2395.38
588.04	2393.24
588.39	2391.75
588.74	2389.25
589.09	2386.50
589.44	2383.19
589.79	2380.60
590.14	2378.62
590.49	2375.74
590.84	2371.85
591.19	2368.60
591.54	2365.32
591.89	2361.03
592.25	2357.56
592.60	2353.35
592.95	2348.99
593.30	2344.69
593.65	2340.32
594.00	2335.83
594.35	2332.78
594.70	2328.03
595.05	2323.56
595.40	2317.93
595.75	2311.81
596.10	2307.98
596.45	2302.97
596.80	2298.37
597.15	2293.10
597.50	2287.11
597.85	2282.12
598.19	2276.75
598.54	2270.87
598.89	2265.52
599.24	2260.93
599.59	2254.69
599.94	2248.63
600.29	2242.64
600.64	2236.78
600.99	2229.90
601.34	2224.37
601.69	2217.29
602.04	2210.90
602.39	2204.05
602.74	2198.05
603.08	2192.68
603.43	2186.07
603.78	2179.21
604.13	2172.11
604.48	2164.79
604.83	2158.63
605.18	2152.26
605.53	2145.45
605.87	2138.33
606.22	2131.60
606.57	2123.66
606.92	2115.74
607.27	2108.87
607.62	2102.22
607.96	2095.19
608.31	2088.82
608.66	2081.06
609.01	2073.41
609.36	2066.19
609.70	2058.47
610.05	2050.73
610.40	2042.30
610.75	2034.05
611.10	2026.34
611.44	2017.37
611.79	2008.59
612.14	1998.63
612.49	1987.83
612.83	1978.48
613.18	1969.25
613.53	1959.85
613.88	1950.23
614.22	1941.52
614.57	1931.71
614.92	1921.13
615.27	1910.86
615.61	1900.70
615.96	1891.06
616.31	1881.40
616.65	1872.00
617.00	1862.30
617.35	1852.51
617.70	1842.81
618.04	1832.87
618.39	1822.78
618.74	1813.22
619.08	1803.73
619.43	1795.00
619.78	1786.86
620.12	1778.28
620.47	1768.79
620.82	1758.63
621.16	1748.94
621.51	1739.14
621.85	1729.31
622.20	1719.04
622.55	1708.53
622.89	1698.53
623.24	1688.83
623.59	1679.13
623.93	1669.07
624.28	1659.28
624.62	1649.25
624.97	1639.00
625.32	1629.19
625.66	1620.33
626.01	1611.61
626.35	1602.30
626.70	1592.27
627.04	1582.30
627.39	1572.17
627.73	1563.02
628.08	1554.11
628.43	1544.65
628.77	1535.43
629.12	1526.62
629.46	1518.83
629.81	1510.49
630.15	1501.13
630.50	1491.35
630.84	1480.92
631.19	1471.04
631.53	1461.83
631.88	1451.78
632.22	1441.79
632.57	1432.50
632.91	1422.40
633.26	1412.54
633.60	1403.00
633.95	1393.77
634.29	1384.32
634.64	1375.10
634.98	1365.02
635.32	1355.71
635.67	1347.13
636.01	1337.84
636.36	1328.13
636.70	1318.65
637.05	1309.29
637.39	1300.35
637.73	1291.80
638.08	1284.29
638.42	1276.21
638.77	1267.51
639.11	1259.21
639.45	1251.54
639.80	1242.99
640.14	1234.23
640.49	1225.38
640.83	1216.51
641.17	1208.38
641.52	1200.30
641.86	1191.70
642.20	1183.98
642.55	1175.35
642.89	1166.52
643.23	1157.93
643.58	1149.81
643.92	1140.78
644.26	1132.19
644.61	1123.85
644.95	1115.13
645.29	1105.92
645.64	1096.79
645.98	1088.24
646.32	1080.41
646.66	1071.88
647.01	1063.66
647.35	1055.62
647.69	1047.33
648.04	1039.15
648.38	1030.30
648.72	1021.56
649.06	1013.22
649.41	1004.95
649.75	997.10
650.09	989.29
650.43	981.34
650.78	973.09
651.12	965.38
651.46	957.99
651.80	950.77
652.14	943.40
652.49	935.92
652.83	928.62
653.17	921.01
653.51	913.38
653.85	906.15
654.20	898.87
654.54	891.42
654.88	884.19
655.22	876.93
655.56	869.99
655.90	863.17
656.25	856.45
656.59	849.57
656.93	842.52
657.27	835.43
657.61	828.48
657.95	822.34
658.29	816.42
658.64	810.33
658.98	803.83
659.32	797.30
659.66	791.07
660.00	784.70
660.34	778.63
660.68	772.46
661.02	766.11
661.36	760.13
661.70	754.37
662.05	748.77
662.39	743.28
662.73	737.85
663.07	732.51
663.41	726.82
663.75	721.09
664.09	715.40
664.43	709.94
664.77	704.52
665.11	698.76
665.45	692.84
665.79	687.00
666.13	681.31
666.47	675.81
666.81	670.35
667.15	664.97
667.49	659.77
667.83	654.58
668.17	649.35
668.51	644.21
668.85	639.19
669.19	634.29
669.53	629.21
669.87	624.00
670.21	619.13
670.55	614.48
670.89	610.00
671.23	605.60
671.57	601.23
671.91	596.95
672.25	592.68
672.58	588.63
672.92	584.48
673.26	580.51
673.60	576.58
673.94	572.73
674.28	569.15
674.62	565.43
674.96	561.58
675.30	558.03
675.64	554.31
675.97	550.74
676.31	547.00
676.65	543.43
676.99	540.06
677.33	536.21
677.67	532.45
678.01	528.57
678.34	524.93
678.68	521.32
679.02	517.68
679.36	513.97
679.70	510.20
680.04	506.60
680.37	503.11
680.71	499.76
681.05	496.52
681.39	493.17
681.73	489.90
682.06	486.88
682.40	483.73
682.74	480.50
683.08	477.19
683.42	473.99
683.75	470.93
684.09	467.81
684.43	465.01
684.77	462.14
685.10	459.32
685.44	456.38
685.78	453.49
686.12	450.73
686.45	448.02
686.79	445.33
687.13	442.81
687.46	440.16
687.80	437.48
688.14	434.62
688.48	431.93
688.81	429.21
689.15	426.60
689.49	423.95
689.82	421.41
690.16	418.79
690.50	416.29
690.83	413.79
691.17	411.23
691.51	408.69
691.84	406.31
692.18	404.06
692.52	401.78
692.85	399.57
693.19	397.36
693.52	395.12
693.86	392.91
694.20	390.70
694.53	388.53
694.87	386.29
695.21	384.15
695.54	381.98
695.88	379.83
696.21	377.62
696.55	375.47
696.88	373.34
697.22	371.37
697.56	369.49
697.89	367.58
698.23	365.81
698.56	363.97
698.90	362.21
699.23	360.26
699.57	358.36
699.90	356.44
700.24	354.60
700.58	352.81
700.91	351.10
701.25	349.50
701.58	347.83
701.92	346.21
702.25	344.56
702.59	342.92
702.92	341.37
703.26	339.82
703.59	338.30
703.93	337.06
704.26	335.56
704.60	334.01
704.93	332.52
705.26	330.98
705.60	329.55
705.93	327.94
706.27	326.59
706.60	325.32
706.94	324.09
707.27	322.68
707.61	321.31
707.94	319.97
708.27	318.39
708.61	316.96
708.94	315.59
709.28	314.26
709.61	313.01
709.94	311.73
710.28	310.50
710.61	309.35
710.95	307.90
711.28	306.84
711.61	305.61
711.95	304.45
712.28	303.25
712.61	302.01
712.95	300.99
713.28	299.92
713.61	298.78
713.95	297.56
714.28	296.54
714.61	295.50
714.95	294.44
715.28	293.42
715.61	292.39
715.95	291.38
716.28	290.46
716.61	289.50
716.95	288.51
717.28	287.54
717.61	286.47
717.94	285.57
718.28	284.51
718.61	283.67
718.94	282.69
719.27	281.84
719.61	281.05
719.94	280.16
720.27	279.21
720.60	278.31
720.94	277.51
721.27	276.74
721.60	276.03
721.93	275.28
722.27	274.63
722.60	273.93
722.93	273.20
723.26	272.49
723.59	271.77
723.93	271.12
724.26	270.44
724.59	269.82
724.92	269.22
725.25	268.66
725.59	268.03
725.92	267.54
726.25	266.97
726.58	266.33
726.91	265.73
727.24	265.19
727.57	264.64
727.91	264.00
728.24	263.43
728.57	262.86
728.90	262.33
729.23	261.68
729.56	261.27
729.89	260.72
730.22	260.13
730.55	259.60
730.89	259.04
731.22	258.50
731.55	257.95
731.88	257.42
732.21	256.88
732.54	256.33
732.87	255.78
733.20	255.29
733.53	254.82
733.86	254.35
734.19	253.85
734.52	253.41
734.85	253.14
735.18	252.64
735.51	252.23
735.84	251.78
736.17	251.41
736.50	250.86
736.83	250.73
737.16	250.33
737.49	249.90
737.82	249.48
738.15	249.13
738.48	248.78
738.81	248.36
739.14	247.95
739.47	247.57
739.80	247.19
740.13	246.84
740.46	246.44
740.79	246.06
741.12	245.68
741.45	245.31
741.78	244.86
742.11	244.59
742.44	244.21
742.77	243.90
743.10	243.53
743.43	243.17
743.75	242.58
744.08	242.51
744.41	242.16
744.74	241.80
745.07	241.41
745.40	241.09
745.73	240.84
746.06	240.51
746.39	240.19
746.71	239.83
747.04	239.46
747.37	239.17
747.70	238.85
748.03	238.54
748.36	238.24
748.68	237.88
749.01	237.50
749.34	237.21
749.67	236.91
750.00	236.64
750.33	236.51
750.65	236.24
750.98	235.70
751.31	235.45
751.64	235.22
751.97	235.09
752.29	234.83
752.62	234.50
752.95	234.25
753.28	234.00
753.60	233.76
753.93	233.59
754.26	233.34
754.59	233.08
754.91	232.84
755.24	232.57
755.57	232.35
755.90	232.13
756.22	231.86
756.55	231.61
756.88	231.36
757.20	231.03
757.53	230.80
757.86	230.60
758.19	230.40
758.51	230.20
758.84	229.87
759.17	229.64
759.49	229.45
759.82	229.38
760.15	229.24
760.47	229.04
760.80	228.75
761.13	228.62
761.45	228.41
761.78	228.24
762.11	228.09
762.43	227.94
762.76	227.76
763.08	227.63
763.41	227.48
763.74	227.36
764.06	227.14
764.39	226.94
764.71	226.76
765.04	226.60
765.37	226.44
765.69	226.31
766.02	226.17
766.34	226.05
766.67	225.81
767.00	225.72
767.32	225.71
767.65	225.74
767.97	225.54
768.30	225.46
768.62	225.32
768.95	225.16
769.27	225.03
769.60	224.92
769.92	224.79
770.25	224.63
770.57	224.43
770.90	224.34
771.22	224.21
771.55	224.11
771.87	223.99
772.20	223.86
772.52	223.91
772.85	224.02
773.17	223.90
773.50	223.75
773.82	223.60
774.15	223.39
774.47	223.15
774.80	223.06
775.12	222.94
775.45	222.83
775.77	222.73
776.09	222.63
776.42	222.54
776.74	222.49
777.07	222.40
777.39	222.33
777.72	222.25
778.04	222.20
778.36	222.08
778.69	222.01
779.01	221.94
779.33	221.69
779.66	221.37
779.98	221.26
780.31	221.20
780.63	221.20
780.95	221.16
781.28	221.08
781.60	220.98
781.92	220.93
782.25	220.87
782.57	220.80
782.89	220.68
783.22	220.61
783.54	220.53
783.86	220.45
784.19	220.39
784.51	220.38
784.83	220.31
785.16	220.24
785.48	220.17
785.80	220.12
786.12	220.05
786.45	220.01
786.77	219.98
787.09	219.90
787.42	219.76
787.74	219.70
788.06	219.65
788.38	219.60
788.71	219.50
789.03	219.46
789.35	219.45
789.67	219.40
789.99	219.34
790.32	219.27
790.64	219.25
790.96	219.35
791.28	219.23
791.61	219.14
791.93	219.14
792.25	219.10
792.57	219.19
792.89	219.09
793.21	219.06
793.54	219.01
793.86	218.94
794.18	218.90
794.50	218.82
794.82	218.78
795.14	218.76
795.47	218.77
795.79	218.68
796.11	218.61
796.43	218.54
796.75	218.52
797.07	218.47
797.39	218.45
797.71	218.25
798.04	218.24
798.36	218.21
798.68	218.18
799.00	218.17
799.32	218.04
799.64	218.10
799.96	218.05
800.28	218.05
800.60	218.02
800.92	218.01
801.24	217.97
801.56	217.93
801.89	217.88
802.21	217.86
802.53	217.80
802.85	217.77
803.17	217.85
803.49	217.79
803.81	217.74
804.13	217.67
804.45	217.61
804.77	217.61
805.09	217.58
805.41	217.49
805.73	217.40
806.05	217.32
806.37	217.25
806.69	217.20
807.01	217.14
807.33	217.13
807.65	217.05
807.97	217.11
808.28	217.08
808.60	217.04
808.92	216.98
809.24	217.10
809.56	217.05
809.88	216.95
810.20	216.96
810.52	216.98
810.84	216.92
811.16	216.89
811.48	216.82
811.80	216.86
812.12	216.86
812.43	216.86
812.75	216.83
813.07	216.80
813.39	216.78
813.71	216.70
814.03	216.64
814.35	216.61
814.67	216.49
814.98	216.43
815.30	216.44
815.62	216.40
815.94	216.23
816.26	216.25
816.58	216.19
816.89	216.15
817.21	216.06
817.53	216.08
817.85	216.10
818.17	216.10
818.48	216.03
818.80	216.04
819.12	216.01
819.44	215.95
819.76	215.90
820.07	215.88
820.39	215.87
820.71	215.88
821.03	215.89
821.34	215.87
821.66	215.90
821.98	215.87
822.30	215.83
822.61	215.94
822.93	215.91
823.25	215.90
823.57	215.86
823.88	215.91
824.20	215.88
824.52	215.87
824.83	215.82
825.15	215.76
825.47	215.76
825.79	215.78
826.10	215.77
826.42	215.74
826.74	215.78
827.05	215.79
827.37	215.76
827.69	215.73
828.00	215.74
828.32	215.74
828.64	215.72
828.95	215.86
829.27	215.78
829.58	215.75
829.90	215.77
830.22	215.79
830.53	215.72
830.85	215.69
831.17	215.64
831.48	215.60
831.80	215.60
832.11	215.57
832.43	215.48
832.75	215.48
833.06	215.61
833.38	215.50
833.69	215.49
834.01	215.51
834.32	215.48
834.64	215.48
834.96	215.45
835.27	215.44
835.59	215.35
835.90	215.29
836.22	215.27
836.53	215.21
836.85	215.18
837.16	215.37
837.48	215.36
837.79	215.40
838.11	215.45
838.42	215.46
838.74	215.46
839.05	215.45
839.37	215.45
839.68	215.32
840.00	215.29
840.31	215.31
840.63	215.29
840.94	215.29
841.26	215.25
841.57	215.24
841.88	215.26
842.20	215.19
842.51	215.18
842.83	215.18
843.14	215.35
843.46	215.32
843.77	215.19
844.08	215.18
844.40	215.09
844.71	215.03
845.03	215.01
845.34	214.99
845.65	214.98
845.97	214.97
846.28	214.93
846.60	214.97
846.91	214.92
847.22	214.91
847.54	214.93
847.85	214.91
848.16	214.86
848.48	214.83
848.79	214.90
849.10	214.92
849.42	214.92
849.73	214.75
850.04	214.74
850.36	214.68
850.67	214.72
850.98	214.74
851.30	214.76
851.61	214.74
851.92	214.73
852.23	214.82
852.55	214.82
852.86	214.85
853.17	214.88
853.49	214.93
853.80	214.96
854.11	214.96
854.42	214.98
854.74	214.97
855.05	214.95
855.36	214.87
855.67	214.87
855.99	214.87
856.30	215.12
856.61	215.12
856.92	215.09
857.23	215.05
857.55	215.00
857.86	215.01
858.17	215.02
858.48	214.99
858.79	214.94
859.11	214.93
859.42	214.91
859.73	214.86
860.04	214.81
860.35	214.74
860.66	214.69
860.98	214.66
861.29	214.65
861.60	214.63
861.91	214.66
862.22	214.61
862.53	214.60
862.84	214.34
863.16	214.41
863.47	214.38
863.78	214.43
864.09	214.44
864.40	214.42
864.71	214.43
865.02	214.46
865.33	214.42
865.64	214.37
865.95	214.38
866.27	214.51
866.58	214.50
866.89	214.53
867.20	214.53
867.51	214.54
867.82	214.55
868.13	214.63
868.44	214.61
868.75	214.65
869.06	214.62
869.37	214.61
869.68	214.52
869.99	214.56
870.30	214.55
870.61	214.57
870.92	214.57
871.23	214.53
871.54	214.51
871.85	214.58
872.16	214.62
872.47	214.61
872.78	214.50
873.09	214.53
873.40	214.50
873.71	214.49
874.02	214.51
874.33	214.49
874.64	214.42
874.95	214.42
875.26	214.37
875.56	214.38
875.87	214.38
876.18	214.41
876.49	214.60
876.80	214.55
877.11	214.53
877.42	214.53
877.73	214.56
878.04	214.54
878.35	214.52
878.66	214.51
878.96	214.53
879.27	214.52
879.58	214.50
879.89	214.48
880.20	214.56
880.51	214.55
880.82	214.55
881.12	214.62
881.43	214.64
881.74	214.63
882.05	214.62
882.36	214.65
882.67	214.65
882.97	214.42
883.28	214.40
883.59	214.38
883.90	214.39
884.21	214.41
884.51	214.41
884.82	214.39
885.13	214.43
885.44	214.40
885.74	214.40
886.05	214.38
886.36	214.39
886.67	214.29
886.98	214.39
887.28	214.44
887.59	214.41
887.90	214.40
888.20	214.38
888.51	214.43
888.82	214.40
889.13	214.39
889.43	214.58
889.74	214.58
890.05	214.57
890.35	214.54
890.66	214.47
890.97	214.46
891.28	214.45
891.58	214.42
891.89	214.42
892.20	214.38
892.50	214.37
892.81	214.40
893.12	214.41
893.42	214.32
893.73	214.29
894.04	214.27
894.34	214.29
894.65	214.32
894.95	214.29
895.26	214.31
895.57	214.40
895.87	214.22
896.18	214.26
896.48	214.29
896.79	214.33
897.10	214.41
897.40	214.44
897.71	214.43
898.01	214.41
898.32	214.46
898.63	214.48
898.93	214.51
899.24	214.51
899.54	214.51
899.85	214.45
900.15	214.47
900.46	214.46
900.76	214.46
901.07	214.40
901.38	214.43
901.68	214.42
901.99	214.32
902.29	214.35
902.60	214.33
902.90	214.33
903.21	214.30
903.51	214.26
903.82	214.29
904.12	214.30
904.43	214.34
904.73	214.29
905.03	214.32
905.34	214.51
905.64	214.46
905.95	214.42
906.25	214.46
906.56	214.42
906.86	214.44
907.17	214.43
907.47	214.48
907.77	214.45
908.08	214.39
908.38	214.39
908.69	214.38
908.99	214.42
909.30	214.43
909.60	214.44
909.90	214.44
910.21	214.36
910.51	214.33
910.81	214.31
911.12	214.34
911.42	214.31
911.73	214.08
912.03	214.13
912.33	214.22
912.64	214.18
912.94	214.14
913.24	214.10
913.55	214.08
913.85	214.07
914.15	214.07
914.46	214.12
914.76	214.09
915.06	214.09
915.37	214.05
915.67	214.00
915.97	213.98
916.27	213.94
916.58	213.99
916.88	213.96
917.18	213.94
917.49	214.05
917.79	214.06
918.09	214.08
918.39	214.12
918.70	214.09
919.00	214.12
919.30	214.25
919.60	214.24
919.91	214.22
920.21	214.24
920.51	214.22
920.81	214.20
921.12	214.27
921.42	214.23
921.72	214.24
922.02	214.27
922.32	214.30
922.63	214.33
922.93	214.40
923.23	214.43
923.53	214.40
923.83	214.27
924.13	214.26
924.44	214.24
924.74	214.26
925.04	214.30
925.34	214.26
925.64	214.18
925.94	214.21
926.24	214.29
926.55	214.24
926.85	214.28
927.15	214.28
927.45	214.26
927.75	214.26
928.05	214.27
928.35	214.25
928.65	214.29
928.95	214.28
929.26	214.23
929.56	214.27
929.86	214.32
930.16	214.29
930.46	214.26
930.76	214.29
931.06	214.21
931.36	214.16
931.66	214.21
931.96	214.24
932.26	214.25
932.56	214.21
932.86	214.21
933.16	214.19
933.46	214.18
933.76	214.13
934.06	214.20
934.36	214.25
934.66	214.25
934.96	214.19
935.26	214.23
935.56	214.22
935.86	214.15
936.16	214.11
936.46	214.11
936.76	214.12
937.06	214.10
937.36	214.13
937.66	214.13
937.96	214.12
938.26	214.06
938.56	214.03
938.86	214.02
939.16	214.09
939.46	214.09
939.76	214.09
940.06	214.08
940.35	214.01
940.65	213.91
940.95	213.92
941.25	213.89
941.55	213.87
941.85	213.84
942.15	213.88
942.45	213.96
942.75	213.94
943.04	213.96
943.34	214.00
943.64	213.96
943.94	213.91
944.24	213.91
944.54	213.95
944.84	213.91
945.13	213.90
945.43	213.88
945.73	213.89
946.03	213.86
946.33	213.85
946.62	213.84
946.92	213.84
947.22	213.83
947.52	213.84
947.82	213.84
948.11	213.81
948.41	213.76
948.71	213.69
949.01	213.71
949.31	213.68
949.60	213.66
949.90	213.69
950.20	213.72
950.50	213.69
950.79	213.69
951.09	213.76
951.39	213.74
951.69	213.69
951.98	213.72
952.28	213.75
952.58	213.74
952.87	213.76
953.17	213.79
953.47	213.82
953.76	213.84
954.06	213.78
954.36	213.79
954.66	213.78
954.95	213.85
955.25	213.86
955.55	213.87
955.84	213.84
956.14	213.83
956.44	213.84
956.73	213.81
957.03	213.80
957.32	213.80
957.62	213.79
957.92	213.85
958.21	213.85
958.51	214.09
958.81	214.15
959.10	214.17
959.40	214.22
959.69	214.20
959.99	214.25
960.29	214.26
960.58	214.24
960.88	214.34
961.17	214.31
961.47	214.35
961.76	214.35
962.06	214.40
962.36	214.37
962.65	214.39
962.95	214.42
963.24	214.40
963.54	214.41
963.83	214.44
964.13	214.43
964.42	214.35
964.72	214.19
965.01	214.16
965.31	214.15
965.60	214.11
965.90	214.24
966.19	214.17
966.49	214.20
966.78	214.23
967.08	214.22
967.37	214.25
967.67	214.20
967.96	214.23
968.26	214.22
968.55	214.27
968.85	214.25
969.14	214.22
969.43	214.22
969.73	214.19
970.02	214.19
970.32	214.17
970.61	214.16
970.91	214.09
971.20	214.07
971.49	214.07
971.79	214.06
972.08	213.93
972.38	213.98
972.67	213.99
972.96	214.00
973.26	213.96
973.55	214.03
973.85	214.01
974.14	214.02
974.43	214.03
974.73	213.98
975.02	213.98
975.31	213.99
975.61	213.99
975.90	213.97
976.19	213.95
976.49	213.98
976.78	214.02
977.07	214.03
977.37	214.06
977.66	214.07
977.95	214.06
978.24	214.08
978.54	214.10
978.83	214.09
979.12	214.08
979.42	214.11
979.71	214.06
980.00	214.04
980.29	214.04
980.59	214.00
980.88	214.09
981.17	214.07
981.46	214.11
981.76	214.13
982.05	214.23
982.34	214.25
982.63	214.22
982.93	214.23
983.22	214.29
983.51	214.30
983.80	214.35
984.09	214.37
984.39	214.37
984.68	214.34
984.97	214.35
985.26	214.34
985.55	214.32
985.85	214.30
986.14	214.34
986.43	214.36
986.72	214.33
987.01	214.23
987.30	214.26
987.59	214.20
987.89	214.20
988.18	214.10
988.47	214.07
988.76	214.09
989.05	214.07
989.34	213.99
989.63	214.04
989.92	213.97
990.22	213.93
990.51	213.91
990.80	213.90
991.09	213.91
991.38	213.94
991.67	213.91
991.96	213.88
992.25	213.87
992.54	213.80
992.83	213.83
993.12	213.84
993.41	213.86
993.70	213.94
993.99	213.97
994.28	214.01
994.58	214.02
994.87	213.97
995.16	213.98
995.45	214.00
995.74	213.91
996.03	213.96
996.32	214.02
996.61	214.05
996.90	214.05
997.19	214.05
997.48	214.04
997.77	214.04
998.06	214.05
998.34	214.06
998.63	214.08
998.92	214.07
999.21	214.10
999.50	214.09
999.79	214.02
1000.08	214.01
1000.37	214.02
1000.66	214.01
1000.95	214.07
1001.24	214.08
1001.53	214.10
1001.82	214.10
1002.11	214.05
1002.40	214.04
1002.68	214.12
1002.97	214.25
1003.26	214.19
1003.55	214.16
1003.84	214.17
1004.13	214.25
1004.42	214.24
1004.71	214.22
1004.99	214.22
1005.28	214.25
1005.57	214.21
1005.86	214.19
1006.15	214.15
1006.44	214.10
1006.72	214.12
1007.01	214.07
1007.30	214.07
1007.59	214.04
1007.88	214.03
1008.17	214.05
1008.45	214.03
1008.74	213.92
1009.03	213.84
1009.32	213.87
1009.60	213.87
1009.89	213.83
1010.18	213.74
1010.47	213.73
1010.76	213.73
1011.04	213.74
1011.33	213.76
1011.62	213.81
1011.91	213.85
1012.19	213.86
1012.48	213.87
1012.77	213.87
1013.05	213.98
1013.34	213.97
1013.63	213.96
1013.92	213.97
1014.20	213.94
1014.49	213.95
1014.78	213.96
1015.06	213.86
1015.35	213.84
1015.64	213.86
1015.92	213.93
1016.21	213.94
1016.50	213.91
1016.78	213.93
1017.07	213.93
1017.36	213.85
1017.64	213.80
1017.93	213.82
1018.22	213.81
1018.50	213.80
1018.79	213.82
1019.08	213.68
1019.36	213.68
1019.65	213.66
1019.93	213.72
1020.22	213.75
1020.51	213.82
1020.79	213.80
1021.08	213.32
1021.36	213.58
1021.65	214.08
1021.94	213.39
1022.22	213.73
1022.51	212.94
1022.79	215.02
1023.08	214.05
1023.36	215.86
1023.65	213.33
>>>>>End Processed Spectral Data<<<<<
