SpectraSuite Data File
++++++++++++++++++++++++++++++++++++
Date: Tue Jan 29 16:24:26 EST 2013
User: group
Dark Spectrum Present: No
Reference Spectrum Present: No
Number of Sampled Component Spectra: 1
Spectrometers: USB2E7196
Integration Time (usec): 65000 (USB2E7196)
Spectra Averaged: 100 (USB2E7196)
Boxcar Smoothing: 10 (USB2E7196)
Correct for Electrical Dark: No (USB2E7196)
Strobe/Lamp Enabled: No (USB2E7196)
Correct for Detector Non-linearity: No (USB2E7196)
Correct for Stray Light: No (USB2E7196)
Number of Pixels in Processed Spectrum: 2048
>>>>>Begin Processed Spectral Data<<<<<
339.09	0.00
339.48	202.08
339.86	204.02
340.24	205.12
340.63	206.23
341.01	210.77
341.39	209.18
341.78	210.48
342.16	212.12
342.54	212.62
342.93	201.39
343.31	211.55
343.69	212.05
344.07	212.49
344.46	212.95
344.84	213.37
345.22	213.55
345.60	213.82
345.99	214.01
346.37	214.14
346.75	214.21
347.13	214.29
347.52	214.39
347.90	214.54
348.28	214.59
348.66	214.67
349.05	214.65
349.43	214.72
349.81	214.79
350.19	214.82
350.57	214.87
350.96	214.97
351.34	215.08
351.72	215.22
352.10	215.33
352.48	215.40
352.87	215.45
353.25	215.50
353.63	215.55
354.01	215.62
354.39	215.69
354.77	215.80
355.15	215.92
355.54	215.95
355.92	215.92
356.30	215.97
356.68	216.16
357.06	216.23
357.44	216.27
357.82	216.32
358.20	216.42
358.58	216.48
358.97	216.55
359.35	216.66
359.73	216.78
360.11	216.85
360.49	216.90
360.87	216.95
361.25	217.05
361.63	217.15
362.01	217.23
362.39	217.26
362.77	217.32
363.15	217.34
363.53	217.36
363.91	217.38
364.29	217.43
364.67	217.27
365.05	217.32
365.43	217.37
365.81	217.43
366.19	217.54
366.57	217.63
366.95	217.67
367.33	217.64
367.71	217.63
368.09	217.68
368.47	217.69
368.85	217.68
369.23	217.72
369.61	217.67
369.99	217.73
370.37	217.76
370.75	217.83
371.13	217.77
371.51	217.75
371.89	217.77
372.27	217.76
372.65	217.74
373.03	217.71
373.41	217.66
373.78	217.61
374.16	217.44
374.54	217.35
374.92	217.25
375.30	217.21
375.68	217.13
376.06	217.08
376.44	217.03
376.82	217.00
377.19	216.92
377.57	216.87
377.95	216.73
378.33	216.65
378.71	216.48
379.09	216.49
379.47	216.48
379.84	216.42
380.22	216.32
380.60	216.27
380.98	216.21
381.36	216.15
381.73	216.11
382.11	216.14
382.49	216.09
382.87	216.07
383.25	216.01
383.62	216.19
384.00	216.12
384.38	216.09
384.76	216.08
385.13	216.12
385.51	216.10
385.89	216.08
386.27	216.08
386.64	216.09
387.02	216.06
387.40	216.00
387.78	215.95
388.15	215.99
388.53	215.97
388.91	215.94
389.29	215.93
389.66	215.89
390.04	215.77
390.42	215.78
390.79	215.76
391.17	215.78
391.55	215.59
391.92	215.58
392.30	215.59
392.68	215.53
393.05	215.50
393.43	215.50
393.81	215.47
394.18	215.45
394.56	215.44
394.94	215.49
395.31	215.47
395.69	215.55
396.06	215.57
396.44	215.60
396.82	215.61
397.19	215.74
397.57	215.77
397.95	215.89
398.32	215.89
398.70	215.95
399.07	215.99
399.45	215.99
399.82	216.00
400.20	216.04
400.58	216.12
400.95	216.10
401.33	216.19
401.70	216.43
402.08	216.51
402.45	216.56
402.83	216.67
403.20	216.82
403.58	216.89
403.95	217.06
404.33	217.21
404.71	217.35
405.08	217.60
405.46	217.79
405.83	218.01
406.21	218.19
406.58	218.43
406.96	218.65
407.33	218.90
407.70	219.23
408.08	219.69
408.45	220.05
408.83	220.44
409.20	220.81
409.58	221.08
409.95	221.54
410.33	222.04
410.70	222.47
411.08	223.03
411.45	223.62
411.82	224.15
412.20	224.86
412.57	225.69
412.95	226.21
413.32	227.05
413.69	227.85
414.07	228.76
414.44	229.72
414.82	230.76
415.19	231.95
415.56	233.14
415.94	234.26
416.31	235.62
416.68	237.00
417.06	238.56
417.43	240.12
417.81	241.83
418.18	243.60
418.55	245.56
418.93	247.54
419.30	249.63
419.67	251.83
420.04	254.08
420.42	256.45
420.79	259.29
421.16	262.04
421.54	264.92
421.91	267.88
422.28	270.97
422.66	274.22
423.03	277.44
423.40	280.73
423.77	284.34
424.15	288.02
424.52	291.85
424.89	296.04
425.26	300.09
425.64	303.98
426.01	308.25
426.38	312.67
426.75	317.22
427.13	321.90
427.50	326.90
427.87	332.08
428.24	337.26
428.61	342.20
428.99	347.69
429.36	353.67
429.73	359.57
430.10	365.45
430.47	371.47
430.85	377.78
431.22	384.46
431.59	391.56
431.96	398.32
432.33	405.73
432.70	412.98
433.08	421.45
433.45	429.50
433.82	437.49
434.19	446.36
434.56	455.04
434.93	463.39
435.30	471.63
435.68	480.64
436.05	489.54
436.42	498.42
436.79	506.53
437.16	515.23
437.53	524.42
437.90	533.52
438.27	542.44
438.64	551.66
439.01	560.16
439.38	567.67
439.75	575.03
440.13	583.52
440.50	591.39
440.87	597.79
441.24	604.28
441.61	611.58
441.98	616.91
442.35	623.19
442.72	629.44
443.09	635.41
443.46	639.18
443.83	641.67
444.20	643.78
444.57	646.88
444.94	648.39
445.31	649.83
445.68	651.20
446.05	651.81
446.42	650.95
446.79	650.02
447.16	648.93
447.53	648.07
447.90	644.65
448.27	641.39
448.64	636.76
449.01	633.54
449.37	627.70
449.74	621.98
450.11	615.02
450.48	607.65
450.85	600.23
451.22	593.76
451.59	587.66
451.96	581.88
452.33	574.08
452.70	566.99
453.07	558.56
453.43	549.99
453.80	541.74
454.17	533.77
454.54	526.22
454.91	518.09
455.28	510.18
455.65	502.81
456.02	495.34
456.38	489.03
456.75	481.22
457.12	474.67
457.49	468.22
457.86	462.13
458.23	456.83
458.59	450.93
458.96	444.99
459.33	439.73
459.70	434.40
460.07	430.18
460.43	425.29
460.80	420.71
461.17	416.70
461.54	412.49
461.91	408.51
462.27	404.45
462.64	401.03
463.01	397.26
463.38	393.63
463.74	389.95
464.11	386.70
464.48	383.84
464.85	380.70
465.21	378.32
465.58	375.71
465.95	372.56
466.32	370.03
466.68	367.45
467.05	364.86
467.42	362.39
467.78	359.70
468.15	357.19
468.52	355.28
468.88	352.86
469.25	350.69
469.62	348.89
469.98	346.98
470.35	345.23
470.72	343.50
471.08	341.74
471.45	340.18
471.82	338.66
472.18	337.01
472.55	335.83
472.92	334.39
473.28	333.19
473.65	332.03
474.02	330.90
474.38	329.94
474.75	329.20
475.11	328.33
475.48	327.73
475.85	327.22
476.21	326.77
476.58	326.41
476.94	326.19
477.31	325.92
477.67	325.64
478.04	325.45
478.41	325.43
478.77	325.56
479.14	325.58
479.50	325.73
479.87	326.03
480.23	326.39
480.60	326.70
480.96	326.99
481.33	327.61
481.69	328.17
482.06	328.77
482.42	329.27
482.79	329.91
483.15	330.74
483.52	331.73
483.88	332.63
484.25	333.61
484.61	334.66
484.98	335.69
485.34	337.03
485.71	338.41
486.07	339.92
486.44	341.23
486.80	342.83
487.17	344.48
487.53	346.34
487.90	348.22
488.26	350.24
488.62	352.40
488.99	354.47
489.35	356.66
489.72	359.00
490.08	361.56
490.44	364.12
490.81	366.84
491.17	369.59
491.54	372.59
491.90	375.61
492.26	378.85
492.63	382.26
492.99	385.74
493.36	389.45
493.72	393.34
494.08	397.42
494.45	401.66
494.81	406.07
495.17	410.53
495.54	415.27
495.90	420.13
496.26	425.04
496.63	430.24
496.99	435.67
497.35	441.32
497.72	447.15
498.08	453.10
498.44	459.20
498.80	465.61
499.17	472.08
499.53	478.80
499.89	485.75
500.26	492.77
500.62	499.94
500.98	507.34
501.34	514.80
501.71	522.65
502.07	530.48
502.43	538.54
502.79	546.74
503.16	555.16
503.52	563.83
503.88	572.64
504.24	581.71
504.60	590.81
504.97	600.05
505.33	609.36
505.69	619.37
506.05	629.32
506.41	639.33
506.78	649.48
507.14	659.83
507.50	670.33
507.86	681.13
508.22	691.94
508.59	702.70
508.95	713.87
509.31	725.16
509.67	736.73
510.03	748.15
510.39	759.97
510.75	771.91
511.12	783.87
511.48	796.07
511.84	808.42
512.20	820.92
512.56	833.79
512.92	846.72
513.28	859.54
513.64	872.38
514.00	885.33
514.37	898.39
514.73	911.54
515.09	924.65
515.45	937.64
515.81	950.83
516.17	964.39
516.53	977.66
516.89	990.87
517.25	1004.15
517.61	1017.85
517.97	1031.38
518.33	1044.65
518.69	1058.35
519.05	1072.15
519.41	1085.87
519.77	1099.76
520.13	1113.12
520.49	1126.41
520.85	1139.74
521.21	1153.28
521.57	1167.03
521.93	1180.34
522.29	1194.25
522.65	1208.05
523.01	1221.83
523.37	1235.23
523.73	1248.61
524.09	1262.08
524.45	1275.65
524.81	1289.37
525.17	1302.98
525.53	1316.22
525.89	1329.62
526.25	1342.91
526.61	1355.97
526.97	1369.19
527.33	1382.30
527.68	1395.81
528.04	1409.36
528.40	1422.68
528.76	1436.14
529.12	1449.13
529.48	1462.41
529.84	1474.80
530.20	1487.55
530.56	1500.31
530.91	1513.61
531.27	1526.63
531.63	1539.41
531.99	1552.35
532.35	1564.61
532.71	1577.00
533.07	1590.08
533.42	1602.45
533.78	1614.66
534.14	1626.77
534.50	1638.09
534.86	1649.85
535.21	1660.87
535.57	1672.52
535.93	1683.85
536.29	1695.03
536.65	1706.52
537.00	1717.70
537.36	1729.16
537.72	1740.32
538.08	1751.81
538.44	1762.80
538.79	1774.00
539.15	1784.97
539.51	1795.70
539.87	1807.14
540.22	1818.11
540.58	1829.07
540.94	1840.06
541.29	1850.39
541.65	1860.22
542.01	1870.82
542.37	1880.88
542.72	1891.16
543.08	1901.14
543.44	1911.81
543.79	1921.02
544.15	1930.65
544.51	1940.70
544.87	1950.68
545.22	1960.00
545.58	1968.87
545.94	1977.79
546.29	1986.25
546.65	1994.55
547.01	2002.81
547.36	2010.50
547.72	2018.25
548.07	2025.86
548.43	2033.58
548.79	2041.41
549.14	2049.56
549.50	2058.00
549.86	2065.87
550.21	2073.34
550.57	2081.09
550.92	2087.73
551.28	2095.26
551.64	2102.52
551.99	2110.04
552.35	2117.20
552.70	2124.12
553.06	2130.82
553.41	2137.19
553.77	2143.85
554.13	2150.38
554.48	2157.55
554.84	2164.78
555.19	2171.33
555.55	2177.71
555.90	2184.13
556.26	2191.03
556.61	2197.21
556.97	2202.11
557.32	2207.98
557.68	2214.42
558.03	2220.11
558.39	2225.58
558.74	2231.87
559.10	2237.54
559.45	2243.07
559.81	2248.72
560.16	2254.29
560.52	2260.32
560.87	2266.77
561.23	2272.61
561.58	2279.43
561.94	2284.58
562.29	2289.30
562.64	2295.51
563.00	2301.41
563.35	2307.03
563.71	2312.85
564.06	2318.63
564.42	2324.84
564.77	2330.05
565.12	2335.40
565.48	2340.62
565.83	2346.25
566.19	2351.68
566.54	2357.00
566.89	2361.62
567.25	2366.27
567.60	2371.91
567.96	2377.00
568.31	2381.70
568.66	2386.21
569.02	2390.07
569.37	2394.11
569.72	2398.65
570.08	2402.09
570.43	2405.34
570.78	2408.55
571.14	2411.02
571.49	2414.28
571.84	2417.81
572.20	2420.74
572.55	2423.58
572.90	2425.94
573.26	2428.76
573.61	2431.32
573.96	2433.74
574.31	2435.95
574.67	2437.89
575.02	2438.76
575.37	2440.36
575.72	2441.01
576.08	2442.44
576.43	2442.64
576.78	2443.07
577.13	2444.62
577.49	2445.91
577.84	2446.88
578.19	2448.14
578.54	2448.89
578.90	2449.46
579.25	2449.30
579.60	2449.33
579.95	2448.78
580.30	2448.78
580.66	2448.11
581.01	2446.43
581.36	2444.05
581.71	2442.73
582.06	2441.63
582.42	2440.86
582.77	2438.71
583.12	2437.19
583.47	2435.84
583.82	2435.37
584.17	2434.17
584.53	2432.07
584.88	2430.01
585.23	2428.27
585.58	2426.14
585.93	2424.15
586.28	2422.08
586.63	2419.70
586.98	2417.63
587.34	2415.68
587.69	2413.34
588.04	2411.36
588.39	2410.08
588.74	2407.54
589.09	2404.73
589.44	2401.58
589.79	2399.13
590.14	2397.10
590.49	2394.28
590.84	2390.43
591.19	2387.24
591.54	2383.99
591.89	2379.99
592.25	2376.68
592.60	2372.47
592.95	2368.35
593.30	2364.28
593.65	2360.05
594.00	2355.59
594.35	2352.62
594.70	2348.06
595.05	2343.54
595.40	2338.10
595.75	2332.16
596.10	2328.48
596.45	2323.76
596.80	2319.21
597.15	2314.08
597.50	2308.20
597.85	2303.31
598.19	2298.16
598.54	2292.45
598.89	2287.17
599.24	2282.66
599.59	2276.66
599.94	2270.76
600.29	2264.76
600.64	2258.84
600.99	2251.92
601.34	2246.44
601.69	2239.23
602.04	2232.64
602.39	2226.00
602.74	2219.82
603.08	2214.36
603.43	2207.81
603.78	2200.93
604.13	2193.76
604.48	2186.30
604.83	2180.05
605.18	2173.86
605.53	2166.94
605.87	2159.99
606.22	2153.14
606.57	2145.08
606.92	2137.03
607.27	2130.06
607.62	2123.32
607.96	2116.23
608.31	2109.71
608.66	2101.91
609.01	2094.26
609.36	2087.19
609.70	2079.45
610.05	2071.70
610.40	2063.36
610.75	2054.99
611.10	2047.12
611.44	2038.09
611.79	2029.38
612.14	2019.37
612.49	2008.39
612.83	1998.83
613.18	1989.28
613.53	1979.99
613.88	1970.38
614.22	1961.67
614.57	1951.66
614.92	1940.99
615.27	1930.69
615.61	1920.40
615.96	1910.62
616.31	1901.01
616.65	1891.48
617.00	1881.71
617.35	1871.90
617.70	1861.95
618.04	1851.83
618.39	1841.53
618.74	1831.91
619.08	1822.19
619.43	1813.34
619.78	1805.11
620.12	1796.47
620.47	1786.90
620.82	1776.35
621.16	1766.45
621.51	1756.49
621.85	1746.54
622.20	1736.07
622.55	1725.43
622.89	1715.52
623.24	1705.65
623.59	1695.66
623.93	1685.56
624.28	1675.53
624.62	1665.37
624.97	1655.04
625.32	1645.13
625.66	1636.20
626.01	1627.38
626.35	1617.89
626.70	1607.82
627.04	1597.57
627.39	1587.32
627.73	1577.93
628.08	1568.91
628.43	1559.16
628.77	1549.79
629.12	1540.78
629.46	1532.88
629.81	1524.39
630.15	1514.76
630.50	1504.95
630.84	1494.28
631.19	1484.12
631.53	1474.69
631.88	1464.40
632.22	1454.25
632.57	1444.79
632.91	1434.56
633.26	1424.43
633.60	1414.76
633.95	1405.29
634.29	1395.76
634.64	1386.35
634.98	1376.18
635.32	1366.86
635.67	1358.32
636.01	1348.86
636.36	1339.04
636.70	1329.37
637.05	1319.90
637.39	1310.88
637.73	1302.11
638.08	1294.54
638.42	1286.35
638.77	1277.53
639.11	1269.16
639.45	1261.25
639.80	1252.62
640.14	1243.78
640.49	1234.88
640.83	1225.98
641.17	1217.72
641.52	1209.56
641.86	1200.87
642.20	1192.86
642.55	1184.05
642.89	1175.02
643.23	1166.31
643.58	1158.02
643.92	1148.84
644.26	1140.06
644.61	1131.40
644.95	1122.58
645.29	1113.13
645.64	1103.82
645.98	1095.11
646.32	1087.10
646.66	1078.42
647.01	1070.02
647.35	1061.75
647.69	1053.35
648.04	1044.91
648.38	1035.99
648.72	1027.02
649.06	1018.59
649.41	1010.35
649.75	1002.33
650.09	994.39
650.43	986.32
650.78	977.94
651.12	970.18
651.46	962.57
651.80	955.29
652.14	947.82
652.49	940.33
652.83	932.88
653.17	925.10
653.51	917.29
653.85	910.06
654.20	902.65
654.54	895.11
654.88	887.76
655.22	880.50
655.56	873.37
655.90	866.43
656.25	859.54
656.59	852.55
656.93	845.42
657.27	838.24
657.61	831.07
657.95	824.91
658.29	818.89
658.64	812.71
658.98	806.17
659.32	799.54
659.66	793.17
660.00	786.80
660.34	780.72
660.68	774.60
661.02	768.14
661.36	762.08
661.70	756.27
662.05	750.53
662.39	744.97
662.73	739.53
663.07	734.13
663.41	728.50
663.75	722.69
664.09	716.90
664.43	711.37
664.77	706.00
665.11	700.07
665.45	694.10
665.79	688.27
666.13	682.52
666.47	676.94
666.81	671.42
667.15	665.89
667.49	660.61
667.83	655.27
668.17	649.97
668.51	644.85
668.85	639.78
669.19	634.91
669.53	629.77
669.87	624.57
670.21	619.69
670.55	614.87
670.89	610.38
671.23	606.03
671.57	601.63
671.91	597.35
672.25	593.17
672.58	588.98
672.92	584.84
673.26	580.76
673.60	576.86
673.94	573.05
674.28	569.44
674.62	565.62
674.96	561.85
675.30	558.30
675.64	554.51
675.97	550.89
676.31	547.13
676.65	543.50
676.99	540.07
677.33	536.20
677.67	532.50
678.01	528.53
678.34	524.91
678.68	521.26
679.02	517.51
679.36	513.78
679.70	510.07
680.04	506.43
680.37	502.97
680.71	499.58
681.05	496.27
681.39	492.97
681.73	489.72
682.06	486.64
682.40	483.51
682.74	480.33
683.08	477.05
683.42	473.83
683.75	470.73
684.09	467.63
684.43	464.81
684.77	461.87
685.10	459.01
685.44	456.00
685.78	453.06
686.12	450.26
686.45	447.49
686.79	444.81
687.13	442.25
687.46	439.62
687.80	436.91
688.14	434.09
688.48	431.38
688.81	428.66
689.15	426.04
689.49	423.39
689.82	420.80
690.16	418.20
690.50	415.75
690.83	413.23
691.17	410.61
691.51	408.06
691.84	405.73
692.18	403.50
692.52	401.25
692.85	399.05
693.19	396.88
693.52	394.70
693.86	392.41
694.20	390.20
694.53	387.97
694.87	385.71
695.21	383.54
695.54	381.34
695.88	379.17
696.21	376.94
696.55	374.76
696.88	372.71
697.22	370.73
697.56	368.77
697.89	366.86
698.23	365.14
698.56	363.32
698.90	361.53
699.23	359.62
699.57	357.79
699.90	355.91
700.24	354.07
700.58	352.28
700.91	350.62
701.25	349.02
701.58	347.42
701.92	345.82
702.25	344.22
702.59	342.60
702.92	341.05
703.26	339.45
703.59	337.97
703.93	336.60
704.26	335.16
704.60	333.63
704.93	332.13
705.26	330.62
705.60	329.15
705.93	327.61
706.27	326.25
706.60	324.93
706.94	323.72
707.27	322.31
707.61	320.93
707.94	319.60
708.27	318.10
708.61	316.63
708.94	315.21
709.28	313.87
709.61	312.60
709.94	311.38
710.28	310.13
710.61	308.92
710.95	307.55
711.28	306.43
711.61	305.28
711.95	304.12
712.28	302.93
712.61	301.73
712.95	300.68
713.28	299.66
713.61	298.43
713.95	297.25
714.28	296.21
714.61	295.17
714.95	294.13
715.28	293.08
715.61	292.04
715.95	291.08
716.28	290.13
716.61	289.16
716.95	288.15
717.28	287.25
717.61	286.27
717.94	285.31
718.28	284.27
718.61	283.34
718.94	282.43
719.27	281.55
719.61	280.70
719.94	279.85
720.27	278.83
720.60	278.02
720.94	277.19
721.27	276.47
721.60	275.76
721.93	275.04
722.27	274.45
722.60	273.78
722.93	273.09
723.26	272.43
723.59	271.73
723.93	271.11
724.26	270.45
724.59	269.82
724.92	269.22
725.25	268.71
725.59	268.12
725.92	267.59
726.25	267.02
726.58	266.45
726.91	265.83
727.24	265.32
727.57	264.73
727.91	264.11
728.24	263.54
728.57	262.95
728.90	262.35
729.23	261.68
729.56	261.24
729.89	260.64
730.22	260.07
730.55	259.54
730.89	258.97
731.22	258.45
731.55	257.92
731.88	257.42
732.21	256.86
732.54	256.33
732.87	255.79
733.20	255.28
733.53	254.78
733.86	254.30
734.19	253.79
734.52	253.38
734.85	253.10
735.18	252.59
735.51	252.23
735.84	251.83
736.17	251.43
736.50	250.91
736.83	250.79
737.16	250.38
737.49	249.99
737.82	249.56
738.15	249.19
738.48	248.78
738.81	248.39
739.14	247.96
739.47	247.58
739.80	247.20
740.13	246.87
740.46	246.50
740.79	246.09
741.12	245.70
741.45	245.31
741.78	244.89
742.11	244.64
742.44	244.20
742.77	243.90
743.10	243.57
743.43	243.19
743.75	242.61
744.08	242.53
744.41	242.20
744.74	241.87
745.07	241.50
745.40	241.22
745.73	240.92
746.06	240.58
746.39	240.29
746.71	239.98
747.04	239.63
747.37	239.27
747.70	239.03
748.03	238.78
748.36	238.52
748.68	238.18
749.01	237.81
749.34	237.57
749.67	237.26
750.00	236.99
750.33	236.90
750.65	236.64
750.98	236.13
751.31	235.87
751.64	235.65
751.97	235.49
752.29	235.22
752.62	234.92
752.95	234.68
753.28	234.42
753.60	234.15
753.93	233.99
754.26	233.81
754.59	233.49
754.91	233.24
755.24	232.99
755.57	232.76
755.90	232.52
756.22	232.28
756.55	232.03
756.88	231.78
757.20	231.42
757.53	231.17
757.86	230.96
758.19	230.77
758.51	230.56
758.84	230.30
759.17	230.11
759.49	229.94
759.82	229.86
760.15	229.66
760.47	229.49
760.80	229.21
761.13	229.02
761.45	228.88
761.78	228.69
762.11	228.51
762.43	228.34
762.76	228.20
763.08	228.05
763.41	227.87
763.74	227.71
764.06	227.57
764.39	227.37
764.71	227.19
765.04	226.99
765.37	226.82
765.69	226.64
766.02	226.48
766.34	226.34
766.67	226.09
767.00	225.99
767.32	225.95
767.65	225.96
767.97	225.83
768.30	225.69
768.62	225.56
768.95	225.43
769.27	225.30
769.60	225.17
769.92	224.98
770.25	224.83
770.57	224.68
770.90	224.55
771.22	224.42
771.55	224.32
771.87	224.23
772.20	224.10
772.52	224.15
772.85	224.24
773.17	224.13
773.50	224.01
773.82	223.85
774.15	223.64
774.47	223.41
774.80	223.26
775.12	223.15
775.45	223.03
775.77	222.96
776.09	222.88
776.42	222.80
776.74	222.80
777.07	222.72
777.39	222.65
777.72	222.55
778.04	222.54
778.36	222.45
778.69	222.38
779.01	222.32
779.33	222.06
779.66	221.80
779.98	221.69
780.31	221.64
780.63	221.67
780.95	221.63
781.28	221.58
781.60	221.53
781.92	221.48
782.25	221.46
782.57	221.39
782.89	221.32
783.22	221.22
783.54	221.08
783.86	221.04
784.19	220.95
784.51	220.95
784.83	220.84
785.16	220.76
785.48	220.68
785.80	220.63
786.12	220.59
786.45	220.53
786.77	220.49
787.09	220.41
787.42	220.26
787.74	220.20
788.06	220.12
788.38	220.08
788.71	219.96
789.03	219.87
789.35	219.83
789.67	219.75
789.99	219.72
790.32	219.68
790.64	219.64
790.96	219.78
791.28	219.67
791.61	219.61
791.93	219.58
792.25	219.54
792.57	219.60
792.89	219.51
793.21	219.48
793.54	219.40
793.86	219.31
794.18	219.31
794.50	219.21
794.82	219.16
795.14	219.12
795.47	219.16
795.79	219.12
796.11	219.01
796.43	218.95
796.75	218.90
797.07	218.85
797.39	218.79
797.71	218.60
798.04	218.54
798.36	218.52
798.68	218.48
799.00	218.45
799.32	218.31
799.64	218.29
799.96	218.23
800.28	218.25
800.60	218.22
800.92	218.21
801.24	218.14
801.56	218.15
801.89	218.10
802.21	218.07
802.53	218.02
802.85	218.02
803.17	218.07
803.49	217.99
803.81	217.98
804.13	217.93
804.45	217.87
804.77	217.87
805.09	217.80
805.41	217.72
805.73	217.67
806.05	217.59
806.37	217.55
806.69	217.49
807.01	217.44
807.33	217.45
807.65	217.36
807.97	217.46
808.28	217.39
808.60	217.38
808.92	217.32
809.24	217.42
809.56	217.40
809.88	217.31
810.20	217.30
810.52	217.29
810.84	217.25
811.16	217.21
811.48	217.17
811.80	217.27
812.12	217.25
812.43	217.26
812.75	217.26
813.07	217.23
813.39	217.24
813.71	217.18
814.03	217.13
814.35	217.07
814.67	216.97
814.98	216.92
815.30	216.89
815.62	216.84
815.94	216.67
816.26	216.65
816.58	216.57
816.89	216.59
817.21	216.53
817.53	216.51
817.85	216.49
818.17	216.47
818.48	216.33
818.80	216.38
819.12	216.31
819.44	216.26
819.76	216.23
820.07	216.18
820.39	216.16
820.71	216.14
821.03	216.16
821.34	216.15
821.66	216.16
821.98	216.15
822.30	216.12
822.61	216.24
822.93	216.20
823.25	216.22
823.57	216.16
823.88	216.21
824.20	216.21
824.52	216.26
824.83	216.25
825.15	216.24
825.47	216.20
825.79	216.20
826.10	216.21
826.42	216.16
826.74	216.18
827.05	216.18
827.37	216.17
827.69	216.15
828.00	216.12
828.32	216.08
828.64	216.04
828.95	216.15
829.27	216.07
829.58	216.06
829.90	216.07
830.22	216.09
830.53	216.00
830.85	215.97
831.17	215.92
831.48	215.90
831.80	215.89
832.11	215.86
832.43	215.83
832.75	215.80
833.06	215.94
833.38	215.88
833.69	215.86
834.01	215.87
834.32	215.88
834.64	215.87
834.96	215.88
835.27	215.90
835.59	215.80
835.90	215.77
836.22	215.79
836.53	215.73
836.85	215.70
837.16	215.91
837.48	215.93
837.79	215.97
838.11	215.97
838.42	215.96
838.74	215.98
839.05	215.95
839.37	215.94
839.68	215.80
840.00	215.79
840.31	215.81
840.63	215.78
840.94	215.71
841.26	215.68
841.57	215.67
841.88	215.69
842.20	215.69
842.51	215.61
842.83	215.58
843.14	215.77
843.46	215.75
843.77	215.62
844.08	215.57
844.40	215.49
844.71	215.47
845.03	215.45
845.34	215.45
845.65	215.44
845.97	215.43
846.28	215.45
846.60	215.46
846.91	215.43
847.22	215.44
847.54	215.48
847.85	215.50
848.16	215.49
848.48	215.39
848.79	215.45
849.10	215.49
849.42	215.49
849.73	215.30
850.04	215.29
850.36	215.22
850.67	215.24
850.98	215.25
851.30	215.24
851.61	215.21
851.92	215.19
852.23	215.29
852.55	215.32
852.86	215.30
853.17	215.28
853.49	215.30
853.80	215.33
854.11	215.34
854.42	215.34
854.74	215.30
855.05	215.36
855.36	215.28
855.67	215.31
855.99	215.32
856.30	215.56
856.61	215.55
856.92	215.58
857.23	215.60
857.55	215.58
857.86	215.59
858.17	215.61
858.48	215.57
858.79	215.50
859.11	215.50
859.42	215.51
859.73	215.50
860.04	215.51
860.35	215.44
860.66	215.39
860.98	215.41
861.29	215.43
861.60	215.39
861.91	215.41
862.22	215.36
862.53	215.34
862.84	215.09
863.16	215.15
863.47	215.07
863.78	215.05
864.09	215.06
864.40	215.06
864.71	215.07
865.02	215.11
865.33	215.10
865.64	215.06
865.95	215.05
866.27	215.20
866.58	215.16
866.89	215.18
867.20	215.16
867.51	215.13
867.82	215.11
868.13	215.16
868.44	215.12
868.75	215.18
869.06	215.18
869.37	215.21
869.68	215.12
869.99	215.18
870.30	215.17
870.61	215.17
870.92	215.14
871.23	215.15
871.54	215.18
871.85	215.20
872.16	215.21
872.47	215.17
872.78	215.03
873.09	215.05
873.40	215.04
873.71	215.06
874.02	215.03
874.33	215.03
874.64	214.99
874.95	215.00
875.26	214.91
875.56	214.90
875.87	214.90
876.18	214.89
876.49	215.10
876.80	215.07
877.11	215.02
877.42	215.03
877.73	214.98
878.04	214.94
878.35	214.93
878.66	214.94
878.96	214.95
879.27	214.95
879.58	214.93
879.89	214.90
880.20	214.96
880.51	214.96
880.82	214.96
881.12	214.95
881.43	214.92
881.74	214.92
882.05	214.91
882.36	214.88
882.67	214.94
882.97	214.67
883.28	214.65
883.59	214.70
883.90	214.72
884.21	214.78
884.51	214.76
884.82	214.73
885.13	214.72
885.44	214.72
885.74	214.72
886.05	214.72
886.36	214.72
886.67	214.64
886.98	214.75
887.28	214.76
887.59	214.78
887.90	214.76
888.20	214.74
888.51	214.78
888.82	214.78
889.13	214.74
889.43	214.94
889.74	214.93
890.05	214.92
890.35	214.89
890.66	214.85
890.97	214.84
891.28	214.86
891.58	214.89
891.89	214.90
892.20	214.90
892.50	214.88
892.81	214.88
893.12	214.89
893.42	214.76
893.73	214.76
894.04	214.77
894.34	214.81
894.65	214.82
894.95	214.80
895.26	214.80
895.57	214.91
895.87	214.71
896.18	214.74
896.48	214.72
896.79	214.70
897.10	214.72
897.40	214.73
897.71	214.73
898.01	214.68
898.32	214.69
898.63	214.69
898.93	214.72
899.24	214.73
899.54	214.71
899.85	214.70
900.15	214.71
900.46	214.70
900.76	214.69
901.07	214.71
901.38	214.70
901.68	214.71
901.99	214.61
902.29	214.64
902.60	214.66
902.90	214.62
903.21	214.61
903.51	214.60
903.82	214.62
904.12	214.64
904.43	214.66
904.73	214.66
905.03	214.64
905.34	214.81
905.64	214.80
905.95	214.79
906.25	214.79
906.56	214.75
906.86	214.76
907.17	214.74
907.47	214.73
907.77	214.71
908.08	214.68
908.38	214.66
908.69	214.65
908.99	214.64
909.30	214.66
909.60	214.68
909.90	214.69
910.21	214.63
910.51	214.58
910.81	214.56
911.12	214.55
911.42	214.57
911.73	214.34
912.03	214.35
912.33	214.40
912.64	214.41
912.94	214.41
913.24	214.37
913.55	214.38
913.85	214.38
914.15	214.43
914.46	214.48
914.76	214.46
915.06	214.46
915.37	214.43
915.67	214.42
915.97	214.43
916.27	214.38
916.58	214.41
916.88	214.41
917.18	214.41
917.49	214.57
917.79	214.55
918.09	214.61
918.39	214.63
918.70	214.62
919.00	214.62
919.30	214.72
919.60	214.72
919.91	214.68
920.21	214.68
920.51	214.64
920.81	214.62
921.12	214.66
921.42	214.66
921.72	214.69
922.02	214.70
922.32	214.70
922.63	214.72
922.93	214.77
923.23	214.79
923.53	214.77
923.83	214.63
924.13	214.64
924.44	214.63
924.74	214.68
925.04	214.71
925.34	214.72
925.64	214.63
925.94	214.62
926.24	214.72
926.55	214.72
926.85	214.71
927.15	214.69
927.45	214.68
927.75	214.71
928.05	214.70
928.35	214.67
928.65	214.73
928.95	214.74
929.26	214.68
929.56	214.70
929.86	214.70
930.16	214.66
930.46	214.65
930.76	214.65
931.06	214.58
931.36	214.54
931.66	214.55
931.96	214.54
932.26	214.56
932.56	214.45
932.86	214.46
933.16	214.49
933.46	214.49
933.76	214.46
934.06	214.48
934.36	214.54
934.66	214.54
934.96	214.53
935.26	214.58
935.56	214.62
935.86	214.57
936.16	214.60
936.46	214.61
936.76	214.63
937.06	214.62
937.36	214.63
937.66	214.61
937.96	214.63
938.26	214.59
938.56	214.60
938.86	214.61
939.16	214.65
939.46	214.60
939.76	214.64
940.06	214.62
940.35	214.59
940.65	214.52
940.95	214.55
941.25	214.49
941.55	214.43
941.85	214.44
942.15	214.48
942.45	214.50
942.75	214.48
943.04	214.45
943.34	214.49
943.64	214.45
943.94	214.47
944.24	214.44
944.54	214.45
944.84	214.40
945.13	214.43
945.43	214.39
945.73	214.40
946.03	214.37
946.33	214.37
946.62	214.33
946.92	214.33
947.22	214.35
947.52	214.36
947.82	214.37
948.11	214.33
948.41	214.28
948.71	214.22
949.01	214.24
949.31	214.23
949.60	214.20
949.90	214.20
950.20	214.16
950.50	214.14
950.79	214.16
951.09	214.23
951.39	214.22
951.69	214.21
951.98	214.25
952.28	214.27
952.58	214.24
952.87	214.26
953.17	214.27
953.47	214.23
953.76	214.22
954.06	214.20
954.36	214.17
954.66	214.17
954.95	214.23
955.25	214.24
955.55	214.27
955.84	214.26
956.14	214.28
956.44	214.33
956.73	214.35
957.03	214.35
957.32	214.34
957.62	214.33
957.92	214.38
958.21	214.36
958.51	214.59
958.81	214.61
959.10	214.66
959.40	214.69
959.69	214.70
959.99	214.71
960.29	214.70
960.58	214.71
960.88	214.77
961.17	214.73
961.47	214.75
961.76	214.71
962.06	214.73
962.36	214.72
962.65	214.68
962.95	214.68
963.24	214.66
963.54	214.64
963.83	214.66
964.13	214.62
964.42	214.55
964.72	214.38
965.01	214.39
965.31	214.35
965.60	214.28
965.90	214.40
966.19	214.37
966.49	214.41
966.78	214.41
967.08	214.43
967.37	214.45
967.67	214.40
967.96	214.47
968.26	214.49
968.55	214.50
968.85	214.48
969.14	214.47
969.43	214.45
969.73	214.43
970.02	214.39
970.32	214.39
970.61	214.40
970.91	214.33
971.20	214.27
971.49	214.25
971.79	214.31
972.08	214.18
972.38	214.23
972.67	214.22
972.96	214.23
973.26	214.18
973.55	214.24
973.85	214.24
974.14	214.19
974.43	214.20
974.73	214.16
975.02	214.20
975.31	214.18
975.61	214.19
975.90	214.21
976.19	214.19
976.49	214.22
976.78	214.23
977.07	214.23
977.37	214.26
977.66	214.29
977.95	214.24
978.24	214.23
978.54	214.26
978.83	214.23
979.12	214.21
979.42	214.20
979.71	214.14
980.00	214.15
980.29	214.13
980.59	214.12
980.88	214.16
981.17	214.17
981.46	214.17
981.76	214.20
982.05	214.26
982.34	214.28
982.63	214.30
982.93	214.33
983.22	214.37
983.51	214.41
983.80	214.44
984.09	214.49
984.39	214.51
984.68	214.47
984.97	214.51
985.26	214.51
985.55	214.51
985.85	214.48
986.14	214.50
986.43	214.55
986.72	214.50
987.01	214.45
987.30	214.40
987.59	214.40
987.89	214.38
988.18	214.33
988.47	214.32
988.76	214.26
989.05	214.23
989.34	214.20
989.63	214.24
989.92	214.23
990.22	214.21
990.51	214.21
990.80	214.21
991.09	214.19
991.38	214.20
991.67	214.21
991.96	214.21
992.25	214.23
992.54	214.19
992.83	214.21
993.12	214.20
993.41	214.24
993.70	214.31
993.99	214.36
994.28	214.40
994.58	214.43
994.87	214.46
995.16	214.48
995.45	214.51
995.74	214.41
996.03	214.39
996.32	214.42
996.61	214.48
996.90	214.50
997.19	214.49
997.48	214.52
997.77	214.52
998.06	214.50
998.34	214.45
998.63	214.44
998.92	214.47
999.21	214.51
999.50	214.55
999.79	214.47
1000.08	214.45
1000.37	214.40
1000.66	214.39
1000.95	214.45
1001.24	214.46
1001.53	214.48
1001.82	214.48
1002.11	214.48
1002.40	214.47
1002.68	214.50
1002.97	214.64
1003.26	214.62
1003.55	214.59
1003.84	214.58
1004.13	214.68
1004.42	214.70
1004.71	214.71
1004.99	214.67
1005.28	214.73
1005.57	214.67
1005.86	214.65
1006.15	214.66
1006.44	214.66
1006.72	214.63
1007.01	214.60
1007.30	214.60
1007.59	214.56
1007.88	214.58
1008.17	214.58
1008.45	214.56
1008.74	214.48
1009.03	214.35
1009.32	214.36
1009.60	214.35
1009.89	214.34
1010.18	214.24
1010.47	214.23
1010.76	214.25
1011.04	214.24
1011.33	214.24
1011.62	214.25
1011.91	214.29
1012.19	214.28
1012.48	214.26
1012.77	214.30
1013.05	214.39
1013.34	214.38
1013.63	214.37
1013.92	214.39
1014.20	214.37
1014.49	214.39
1014.78	214.42
1015.06	214.35
1015.35	214.35
1015.64	214.37
1015.92	214.43
1016.21	214.43
1016.50	214.42
1016.78	214.42
1017.07	214.45
1017.36	214.42
1017.64	214.40
1017.93	214.41
1018.22	214.40
1018.50	214.40
1018.79	214.34
1019.08	214.24
1019.36	214.22
1019.65	214.18
1019.93	214.22
1020.22	214.24
1020.51	214.32
1020.79	214.31
1021.08	214.02
1021.36	213.56
1021.65	213.84
1021.94	214.09
1022.22	213.94
1022.51	213.64
1022.79	215.13
1023.08	214.64
1023.36	216.58
1023.65	214.16
>>>>>End Processed Spectral Data<<<<<
