SpectraSuite Data File
++++++++++++++++++++++++++++++++++++
Date: Tue Jan 29 16:29:27 EST 2013
User: group
Dark Spectrum Present: No
Reference Spectrum Present: No
Number of Sampled Component Spectra: 1
Spectrometers: USB2E7196
Integration Time (usec): 65000 (USB2E7196)
Spectra Averaged: 100 (USB2E7196)
Boxcar Smoothing: 10 (USB2E7196)
Correct for Electrical Dark: No (USB2E7196)
Strobe/Lamp Enabled: No (USB2E7196)
Correct for Detector Non-linearity: No (USB2E7196)
Correct for Stray Light: No (USB2E7196)
Number of Pixels in Processed Spectrum: 2048
>>>>>Begin Processed Spectral Data<<<<<
339.09	0.00
339.48	202.04
339.86	203.46
340.24	204.71
340.63	206.58
341.01	210.89
341.39	208.63
341.78	210.21
342.16	212.15
342.54	212.65
342.93	201.22
343.31	211.34
343.69	211.90
344.07	212.38
344.46	212.84
344.84	213.23
345.22	213.39
345.60	213.67
345.99	213.88
346.37	213.98
346.75	214.07
347.13	214.15
347.52	214.24
347.90	214.35
348.28	214.40
348.66	214.49
349.05	214.47
349.43	214.52
349.81	214.59
350.19	214.70
350.57	214.77
350.96	214.85
351.34	215.00
351.72	215.10
352.10	215.21
352.48	215.29
352.87	215.35
353.25	215.46
353.63	215.51
354.01	215.59
354.39	215.70
354.77	215.79
355.15	215.90
355.54	215.97
355.92	216.00
356.30	216.07
356.68	216.26
357.06	216.36
357.44	216.40
357.82	216.47
358.20	216.51
358.58	216.58
358.97	216.64
359.35	216.75
359.73	216.82
360.11	216.86
360.49	216.90
360.87	216.92
361.25	216.98
361.63	217.10
362.01	217.15
362.39	217.15
362.77	217.23
363.15	217.26
363.53	217.29
363.91	217.31
364.29	217.34
364.67	217.17
365.05	217.22
365.43	217.28
365.81	217.33
366.19	217.45
366.57	217.57
366.95	217.62
367.33	217.57
367.71	217.60
368.09	217.64
368.47	217.69
368.85	217.69
369.23	217.72
369.61	217.62
369.99	217.65
370.37	217.68
370.75	217.73
371.13	217.64
371.51	217.60
371.89	217.63
372.27	217.62
372.65	217.62
373.03	217.61
373.41	217.53
373.78	217.51
374.16	217.34
374.54	217.21
374.92	217.14
375.30	217.12
375.68	217.04
376.06	217.02
376.44	216.94
376.82	216.89
377.19	216.83
377.57	216.79
377.95	216.70
378.33	216.64
378.71	216.50
379.09	216.50
379.47	216.49
379.84	216.38
380.22	216.28
380.60	216.22
380.98	216.12
381.36	216.08
381.73	216.01
382.11	216.01
382.49	215.98
382.87	215.90
383.25	215.82
383.62	216.02
384.00	215.91
384.38	215.87
384.76	215.93
385.13	215.98
385.51	215.96
385.89	215.90
386.27	215.87
386.64	215.86
387.02	215.82
387.40	215.76
387.78	215.77
388.15	215.77
388.53	215.74
388.91	215.72
389.29	215.69
389.66	215.70
390.04	215.64
390.42	215.66
390.79	215.68
391.17	215.69
391.55	215.43
391.92	215.41
392.30	215.41
392.68	215.30
393.05	215.27
393.43	215.26
393.81	215.28
394.18	215.23
394.56	215.23
394.94	215.28
395.31	215.27
395.69	215.33
396.06	215.39
396.44	215.42
396.82	215.45
397.19	215.56
397.57	215.59
397.95	215.68
398.32	215.64
398.70	215.63
399.07	215.69
399.45	215.74
399.82	215.82
400.20	215.90
400.58	215.99
400.95	215.96
401.33	216.07
401.70	216.28
402.08	216.43
402.45	216.49
402.83	216.62
403.20	216.74
403.58	216.81
403.95	216.93
404.33	217.10
404.71	217.23
405.08	217.51
405.46	217.66
405.83	217.87
406.21	218.07
406.58	218.34
406.96	218.59
407.33	218.86
407.70	219.18
408.08	219.62
408.45	219.95
408.83	220.36
409.20	220.68
409.58	220.97
409.95	221.40
410.33	221.86
410.70	222.29
411.08	222.82
411.45	223.43
411.82	224.00
412.20	224.68
412.57	225.55
412.95	226.09
413.32	226.93
413.69	227.74
414.07	228.65
414.44	229.62
414.82	230.64
415.19	231.80
415.56	233.00
415.94	234.19
416.31	235.60
416.68	236.99
417.06	238.62
417.43	240.14
417.81	241.84
418.18	243.66
418.55	245.58
418.93	247.62
419.30	249.71
419.67	251.96
420.04	254.23
420.42	256.58
420.79	259.42
421.16	262.19
421.54	265.11
421.91	268.10
422.28	271.21
422.66	274.54
423.03	277.78
423.40	281.10
423.77	284.69
424.15	288.39
424.52	292.26
424.89	296.44
425.26	300.51
425.64	304.41
426.01	308.71
426.38	313.16
426.75	317.69
427.13	322.41
427.50	327.35
427.87	332.53
428.24	337.75
428.61	342.71
428.99	348.23
429.36	354.22
429.73	360.13
430.10	365.99
430.47	371.95
430.85	378.28
431.22	384.96
431.59	391.99
431.96	398.72
432.33	406.21
432.70	413.46
433.08	421.96
433.45	430.00
433.82	438.00
434.19	446.88
434.56	455.61
434.93	463.93
435.30	472.22
435.68	481.31
436.05	490.27
436.42	499.20
436.79	507.34
437.16	516.07
437.53	525.28
437.90	534.44
438.27	543.41
438.64	552.58
439.01	561.06
439.38	568.73
439.75	576.08
440.13	584.41
440.50	592.33
440.87	598.77
441.24	605.42
441.61	612.77
441.98	618.13
442.35	624.42
442.72	630.72
443.09	636.74
443.46	640.47
443.83	642.96
444.20	645.10
444.57	648.24
444.94	649.69
445.31	651.16
445.68	652.47
446.05	653.13
446.42	652.38
446.79	651.44
447.16	650.30
447.53	649.57
447.90	646.35
448.27	643.06
448.64	638.45
449.01	635.18
449.37	629.26
449.74	623.64
450.11	616.74
450.48	609.34
450.85	601.90
451.22	595.45
451.59	589.33
451.96	583.55
452.33	575.71
452.70	568.65
453.07	560.16
453.43	551.60
453.80	543.28
454.17	535.27
454.54	527.72
454.91	519.57
455.28	511.59
455.65	504.10
456.02	496.62
456.38	490.31
456.75	482.39
457.12	475.81
457.49	469.31
457.86	463.16
458.23	457.82
458.59	451.90
458.96	445.95
459.33	440.68
459.70	435.32
460.07	431.03
460.43	426.11
460.80	421.56
461.17	417.61
461.54	413.39
461.91	409.42
462.27	405.36
462.64	401.97
463.01	398.17
463.38	394.51
463.74	390.76
464.11	387.49
464.48	384.67
464.85	381.61
465.21	379.19
465.58	376.54
465.95	373.38
466.32	370.78
466.68	368.12
467.05	365.55
467.42	363.00
467.78	360.34
468.15	357.80
468.52	355.86
468.88	353.34
469.25	351.15
469.62	349.37
469.98	347.44
470.35	345.58
470.72	343.97
471.08	342.18
471.45	340.71
471.82	339.19
472.18	337.51
472.55	336.30
472.92	334.88
473.28	333.62
473.65	332.46
474.02	331.34
474.38	330.46
474.75	329.69
475.11	328.85
475.48	328.29
475.85	327.81
476.21	327.33
476.58	326.95
476.94	326.72
477.31	326.39
477.67	326.09
478.04	325.95
478.41	325.86
478.77	325.98
479.14	325.93
479.50	326.10
479.87	326.42
480.23	326.73
480.60	326.95
480.96	327.29
481.33	327.93
481.69	328.49
482.06	328.97
482.42	329.42
482.79	330.04
483.15	330.82
483.52	331.80
483.88	332.70
484.25	333.68
484.61	334.73
484.98	335.76
485.34	337.07
485.71	338.39
486.07	339.83
486.44	341.18
486.80	342.83
487.17	344.45
487.53	346.28
487.90	348.18
488.26	350.29
488.62	352.43
488.99	354.47
489.35	356.67
489.72	359.10
490.08	361.64
490.44	364.20
490.81	366.91
491.17	369.66
491.54	372.63
491.90	375.68
492.26	378.96
492.63	382.39
492.99	385.88
493.36	389.61
493.72	393.53
494.08	397.57
494.45	401.75
494.81	406.15
495.17	410.59
495.54	415.27
495.90	420.06
496.26	425.01
496.63	430.29
496.99	435.68
497.35	441.30
497.72	447.12
498.08	453.11
498.44	459.26
498.80	465.66
499.17	472.21
499.53	478.98
499.89	485.88
500.26	492.91
500.62	500.11
500.98	507.51
501.34	514.96
501.71	522.76
502.07	530.61
502.43	538.62
502.79	546.77
503.16	555.23
503.52	563.88
503.88	572.62
504.24	581.60
504.60	590.71
504.97	599.97
505.33	609.32
505.69	619.21
506.05	629.11
506.41	639.06
506.78	649.17
507.14	659.48
507.50	669.93
507.86	680.62
508.22	691.42
508.59	702.24
508.95	713.36
509.31	724.67
509.67	736.26
510.03	747.66
510.39	759.43
510.75	771.28
511.12	783.26
511.48	795.43
511.84	807.78
512.20	820.24
512.56	832.94
512.92	845.80
513.28	858.56
513.64	871.38
514.00	884.29
514.37	897.41
514.73	910.53
515.09	923.68
515.45	936.78
515.81	949.91
516.17	963.31
516.53	976.66
516.89	989.86
517.25	1003.06
517.61	1016.89
517.97	1030.56
518.33	1043.78
518.69	1057.40
519.05	1071.29
519.41	1084.99
519.77	1098.92
520.13	1112.43
520.49	1125.70
520.85	1139.18
521.21	1152.75
521.57	1166.59
521.93	1179.84
522.29	1193.76
522.65	1207.53
523.01	1221.26
523.37	1234.63
523.73	1248.02
524.09	1261.37
524.45	1274.92
524.81	1288.60
525.17	1302.08
525.53	1315.28
525.89	1328.73
526.25	1342.08
526.61	1355.02
526.97	1368.31
527.33	1381.51
527.68	1394.98
528.04	1408.68
528.40	1421.94
528.76	1435.40
529.12	1448.30
529.48	1461.70
529.84	1474.05
530.20	1486.88
530.56	1499.57
530.91	1512.89
531.27	1526.00
531.63	1538.93
531.99	1551.91
532.35	1564.25
532.71	1576.70
533.07	1589.79
533.42	1602.31
533.78	1614.54
534.14	1626.73
534.50	1638.06
534.86	1649.62
535.21	1660.67
535.57	1672.24
535.93	1683.56
536.29	1694.68
536.65	1706.28
537.00	1717.32
537.36	1728.74
537.72	1739.94
538.08	1751.37
538.44	1762.47
538.79	1773.61
539.15	1784.50
539.51	1795.30
539.87	1806.70
540.22	1817.68
540.58	1828.74
540.94	1839.66
541.29	1849.98
541.65	1859.85
542.01	1870.49
542.37	1880.72
542.72	1890.94
543.08	1900.88
543.44	1911.57
543.79	1920.98
544.15	1930.57
544.51	1940.61
544.87	1950.66
545.22	1959.86
545.58	1968.95
545.94	1977.90
546.29	1986.49
546.65	1994.90
547.01	2003.18
547.36	2010.84
547.72	2018.74
548.07	2026.36
548.43	2034.18
548.79	2042.15
549.14	2050.34
549.50	2058.92
549.86	2066.90
550.21	2074.37
550.57	2082.13
550.92	2089.03
551.28	2096.71
551.64	2104.00
551.99	2111.48
552.35	2118.78
552.70	2125.78
553.06	2132.42
553.41	2138.71
553.77	2145.26
554.13	2151.77
554.48	2158.86
554.84	2166.07
555.19	2172.38
555.55	2178.88
555.90	2185.28
556.26	2192.01
556.61	2198.24
556.97	2203.02
557.32	2208.80
557.68	2215.31
558.03	2221.11
558.39	2226.38
558.74	2232.22
559.10	2237.82
559.45	2243.46
559.81	2248.94
560.16	2254.46
560.52	2260.32
560.87	2266.86
561.23	2272.86
561.58	2279.62
561.94	2284.82
562.29	2289.56
562.64	2295.93
563.00	2301.54
563.35	2307.12
563.71	2313.10
564.06	2318.68
564.42	2324.76
564.77	2329.93
565.12	2335.34
565.48	2340.39
565.83	2346.12
566.19	2351.64
566.54	2357.09
566.89	2361.78
567.25	2366.40
567.60	2372.14
567.96	2377.51
568.31	2382.12
568.66	2386.46
569.02	2390.31
569.37	2394.08
569.72	2398.59
570.08	2402.05
570.43	2405.26
570.78	2408.36
571.14	2410.89
571.49	2414.20
571.84	2417.68
572.20	2420.66
572.55	2423.47
572.90	2425.87
573.26	2428.52
573.61	2430.98
573.96	2433.03
574.31	2435.01
574.67	2436.97
575.02	2437.68
575.37	2438.99
575.72	2439.60
576.08	2441.05
576.43	2441.27
576.78	2441.85
577.13	2443.45
577.49	2444.53
577.84	2445.45
578.19	2446.74
578.54	2447.25
578.90	2447.87
579.25	2447.85
579.60	2447.69
579.95	2446.97
580.30	2446.98
580.66	2446.27
581.01	2444.64
581.36	2442.26
581.71	2440.96
582.06	2439.87
582.42	2439.03
582.77	2436.78
583.12	2435.20
583.47	2433.81
583.82	2433.13
584.17	2431.91
584.53	2429.84
584.88	2427.80
585.23	2426.00
585.58	2423.64
585.93	2421.70
586.28	2419.34
586.63	2416.68
586.98	2414.46
587.34	2412.53
587.69	2410.03
588.04	2407.92
588.39	2406.47
588.74	2403.98
589.09	2401.23
589.44	2397.93
589.79	2395.44
590.14	2393.42
590.49	2390.48
590.84	2386.57
591.19	2383.35
591.54	2380.02
591.89	2375.82
592.25	2372.40
592.60	2368.04
592.95	2363.95
593.30	2359.67
593.65	2355.32
594.00	2350.87
594.35	2347.77
594.70	2343.15
595.05	2338.64
595.40	2333.09
595.75	2327.27
596.10	2323.68
596.45	2318.72
596.80	2314.14
597.15	2308.92
597.50	2302.91
597.85	2298.01
598.19	2292.64
598.54	2286.93
598.89	2281.60
599.24	2277.08
599.59	2270.88
599.94	2265.08
600.29	2259.09
600.64	2253.13
600.99	2246.24
601.34	2240.87
601.69	2233.85
602.04	2227.18
602.39	2220.51
602.74	2214.41
603.08	2208.84
603.43	2202.23
603.78	2195.21
604.13	2187.98
604.48	2180.65
604.83	2174.66
605.18	2168.35
605.53	2161.44
605.87	2154.30
606.22	2147.49
606.57	2139.54
606.92	2131.59
607.27	2124.51
607.62	2117.79
607.96	2110.77
608.31	2104.35
608.66	2096.36
609.01	2088.74
609.36	2081.74
609.70	2073.96
610.05	2066.16
610.40	2057.72
610.75	2049.40
611.10	2041.80
611.44	2032.97
611.79	2024.14
612.14	2014.01
612.49	2003.20
612.83	1993.83
613.18	1984.56
613.53	1975.03
613.88	1965.33
614.22	1956.57
614.57	1946.77
614.92	1936.02
615.27	1925.67
615.61	1915.43
615.96	1905.80
616.31	1896.12
616.65	1886.48
617.00	1876.63
617.35	1866.92
617.70	1857.21
618.04	1847.24
618.39	1836.99
618.74	1827.19
619.08	1817.52
619.43	1808.82
619.78	1800.49
620.12	1791.80
620.47	1782.07
620.82	1771.84
621.16	1762.01
621.51	1752.17
621.85	1742.20
622.20	1731.86
622.55	1721.27
622.89	1711.43
623.24	1701.62
623.59	1691.73
623.93	1681.79
624.28	1672.04
624.62	1661.76
624.97	1651.35
625.32	1641.27
625.66	1632.24
626.01	1623.48
626.35	1614.12
626.70	1603.93
627.04	1593.89
627.39	1583.67
627.73	1574.31
628.08	1565.33
628.43	1555.63
628.77	1546.31
629.12	1537.36
629.46	1529.49
629.81	1521.10
630.15	1511.49
630.50	1501.57
630.84	1490.90
631.19	1480.79
631.53	1471.41
631.88	1461.25
632.22	1451.07
632.57	1441.72
632.91	1431.59
633.26	1421.58
633.60	1412.00
633.95	1402.73
634.29	1393.23
634.64	1383.98
634.98	1374.00
635.32	1364.65
635.67	1356.11
636.01	1346.80
636.36	1336.96
636.70	1327.28
637.05	1317.84
637.39	1308.82
637.73	1300.19
638.08	1292.70
638.42	1284.41
638.77	1275.47
639.11	1267.15
639.45	1259.51
639.80	1250.90
640.14	1242.13
640.49	1233.31
640.83	1224.32
641.17	1215.99
641.52	1207.78
641.86	1199.09
642.20	1191.17
642.55	1182.40
642.89	1173.44
643.23	1164.77
643.58	1156.63
643.92	1147.59
644.26	1138.80
644.61	1130.28
644.95	1121.48
645.29	1112.14
645.64	1102.94
645.98	1094.45
646.32	1086.50
646.66	1077.87
647.01	1069.38
647.35	1061.15
647.69	1052.67
648.04	1044.30
648.38	1035.35
648.72	1026.46
649.06	1017.89
649.41	1009.57
649.75	1001.65
650.09	993.82
650.43	985.65
650.78	977.37
651.12	969.57
651.46	962.13
651.80	954.84
652.14	947.36
652.49	939.84
652.83	932.48
653.17	924.67
653.51	916.90
653.85	909.57
654.20	902.27
654.54	894.74
654.88	887.48
655.22	880.13
655.56	873.11
655.90	866.30
656.25	859.60
656.59	852.68
656.93	845.51
657.27	838.19
657.61	831.13
657.95	824.90
658.29	818.95
658.64	812.80
658.98	806.18
659.32	799.61
659.66	793.25
660.00	786.81
660.34	780.76
660.68	774.65
661.02	768.29
661.36	762.29
661.70	756.47
662.05	750.77
662.39	745.32
662.73	739.82
663.07	734.33
663.41	728.67
663.75	722.88
664.09	717.19
664.43	711.75
664.77	706.37
665.11	700.46
665.45	694.45
665.79	688.50
666.13	682.80
666.47	677.20
666.81	671.67
667.15	666.22
667.49	660.91
667.83	655.62
668.17	650.37
668.51	645.14
668.85	640.14
669.19	635.18
669.53	630.16
669.87	625.06
670.21	620.24
670.55	615.50
670.89	610.98
671.23	606.63
671.57	602.19
671.91	597.80
672.25	593.63
672.58	589.43
672.92	585.34
673.26	581.35
673.60	577.53
673.94	573.72
674.28	570.05
674.62	566.31
674.96	562.49
675.30	558.83
675.64	555.19
675.97	551.57
676.31	547.90
676.65	544.21
676.99	540.72
677.33	536.77
677.67	533.08
678.01	529.18
678.34	525.44
678.68	521.87
679.02	518.26
679.36	514.49
679.70	510.83
680.04	507.20
680.37	503.67
680.71	500.20
681.05	496.99
681.39	493.70
681.73	490.47
682.06	487.38
682.40	484.28
682.74	481.07
683.08	477.76
683.42	474.57
683.75	471.52
684.09	468.42
684.43	465.61
684.77	462.59
685.10	459.71
685.44	456.79
685.78	453.83
686.12	451.01
686.45	448.31
686.79	445.65
687.13	443.11
687.46	440.51
687.80	437.83
688.14	434.93
688.48	432.22
688.81	429.46
689.15	426.84
689.49	424.12
689.82	421.49
690.16	418.88
690.50	416.36
690.83	413.80
691.17	411.23
691.51	408.73
691.84	406.45
692.18	404.19
692.52	401.89
692.85	399.78
693.19	397.60
693.52	395.37
693.86	393.06
694.20	390.82
694.53	388.67
694.87	386.42
695.21	384.27
695.54	382.08
695.88	379.89
696.21	377.65
696.55	375.56
696.88	373.50
697.22	371.51
697.56	369.59
697.89	367.65
698.23	365.85
698.56	364.00
698.90	362.16
699.23	360.26
699.57	358.40
699.90	356.44
700.24	354.60
700.58	352.87
700.91	351.19
701.25	349.58
701.58	347.94
701.92	346.31
702.25	344.64
702.59	343.03
702.92	341.48
703.26	339.95
703.59	338.44
703.93	337.15
704.26	335.68
704.60	334.16
704.93	332.66
705.26	331.13
705.60	329.66
705.93	328.16
706.27	326.80
706.60	325.49
706.94	324.30
707.27	322.89
707.61	321.44
707.94	320.08
708.27	318.54
708.61	317.03
708.94	315.63
709.28	314.35
709.61	313.07
709.94	311.81
710.28	310.56
710.61	309.31
710.95	307.86
711.28	306.75
711.61	305.54
711.95	304.41
712.28	303.19
712.61	301.98
712.95	300.91
713.28	299.83
713.61	298.68
713.95	297.49
714.28	296.43
714.61	295.36
714.95	294.31
715.28	293.30
715.61	292.23
715.95	291.27
716.28	290.26
716.61	289.28
716.95	288.32
717.28	287.38
717.61	286.42
717.94	285.51
718.28	284.44
718.61	283.52
718.94	282.60
719.27	281.74
719.61	280.94
719.94	280.06
720.27	279.10
720.60	278.22
720.94	277.38
721.27	276.60
721.60	275.93
721.93	275.20
722.27	274.55
722.60	273.94
722.93	273.23
723.26	272.58
723.59	271.89
723.93	271.21
724.26	270.56
724.59	269.94
724.92	269.34
725.25	268.80
725.59	268.21
725.92	267.67
726.25	267.10
726.58	266.47
726.91	265.86
727.24	265.31
727.57	264.73
727.91	264.11
728.24	263.58
728.57	262.96
728.90	262.42
729.23	261.80
729.56	261.35
729.89	260.76
730.22	260.16
730.55	259.58
730.89	259.02
731.22	258.45
731.55	257.90
731.88	257.35
732.21	256.81
732.54	256.30
732.87	255.82
733.20	255.32
733.53	254.84
733.86	254.36
734.19	253.87
734.52	253.49
734.85	253.19
735.18	252.68
735.51	252.32
735.84	251.86
736.17	251.44
736.50	250.90
736.83	250.78
737.16	250.38
737.49	250.01
737.82	249.59
738.15	249.24
738.48	248.87
738.81	248.51
739.14	248.04
739.47	247.63
739.80	247.22
740.13	246.86
740.46	246.45
740.79	246.04
741.12	245.68
741.45	245.25
741.78	244.84
742.11	244.58
742.44	244.20
742.77	243.90
743.10	243.58
743.43	243.24
743.75	242.67
744.08	242.64
744.41	242.27
744.74	241.94
745.07	241.52
745.40	241.19
745.73	240.94
746.06	240.66
746.39	240.38
746.71	240.04
747.04	239.72
747.37	239.38
747.70	239.13
748.03	238.80
748.36	238.55
748.68	238.19
749.01	237.82
749.34	237.48
749.67	237.18
750.00	236.90
750.33	236.80
750.65	236.54
750.98	235.98
751.31	235.73
751.64	235.49
751.97	235.38
752.29	235.13
752.62	234.75
752.95	234.49
753.28	234.20
753.60	233.94
753.93	233.77
754.26	233.60
754.59	233.33
754.91	233.09
755.24	232.85
755.57	232.63
755.90	232.42
756.22	232.21
756.55	232.00
756.88	231.74
757.20	231.34
757.53	231.06
757.86	230.87
758.19	230.68
758.51	230.47
758.84	230.19
759.17	229.95
759.49	229.78
759.82	229.70
760.15	229.53
760.47	229.33
760.80	229.04
761.13	228.86
761.45	228.66
761.78	228.50
762.11	228.30
762.43	228.14
762.76	227.94
763.08	227.78
763.41	227.59
763.74	227.46
764.06	227.31
764.39	227.17
764.71	227.02
765.04	226.86
765.37	226.68
765.69	226.57
766.02	226.47
766.34	226.31
766.67	226.09
767.00	225.98
767.32	225.99
767.65	225.99
767.97	225.85
768.30	225.74
768.62	225.58
768.95	225.44
769.27	225.29
769.60	225.21
769.92	225.05
770.25	224.91
770.57	224.72
770.90	224.61
771.22	224.45
771.55	224.35
771.87	224.25
772.20	224.13
772.52	224.18
772.85	224.30
773.17	224.21
773.50	224.13
773.82	224.02
774.15	223.79
774.47	223.58
774.80	223.47
775.12	223.36
775.45	223.29
775.77	223.21
776.09	223.12
776.42	223.03
776.74	223.02
777.07	222.91
777.39	222.83
777.72	222.71
778.04	222.69
778.36	222.62
778.69	222.51
779.01	222.45
779.33	222.18
779.66	221.84
779.98	221.75
780.31	221.66
780.63	221.64
780.95	221.63
781.28	221.57
781.60	221.47
781.92	221.38
782.25	221.30
782.57	221.23
782.89	221.18
783.22	221.08
783.54	220.94
783.86	220.88
784.19	220.84
784.51	220.81
784.83	220.72
785.16	220.64
785.48	220.61
785.80	220.55
786.12	220.53
786.45	220.49
786.77	220.44
787.09	220.38
787.42	220.27
787.74	220.19
788.06	220.12
788.38	220.09
788.71	220.03
789.03	220.00
789.35	219.98
789.67	219.89
789.99	219.82
790.32	219.76
790.64	219.75
790.96	219.85
791.28	219.74
791.61	219.67
791.93	219.59
792.25	219.52
792.57	219.58
792.89	219.48
793.21	219.43
793.54	219.38
793.86	219.26
794.18	219.24
794.50	219.18
794.82	219.15
795.14	219.11
795.47	219.10
795.79	219.02
796.11	218.92
796.43	218.86
796.75	218.81
797.07	218.77
797.39	218.73
797.71	218.54
798.04	218.51
798.36	218.51
798.68	218.49
799.00	218.43
799.32	218.31
799.64	218.31
799.96	218.26
800.28	218.27
800.60	218.24
800.92	218.18
801.24	218.11
801.56	218.08
801.89	217.99
802.21	217.97
802.53	217.93
802.85	217.94
803.17	218.01
803.49	217.98
803.81	217.96
804.13	217.91
804.45	217.85
804.77	217.86
805.09	217.82
805.41	217.72
805.73	217.67
806.05	217.62
806.37	217.57
806.69	217.54
807.01	217.48
807.33	217.47
807.65	217.38
807.97	217.45
808.28	217.41
808.60	217.42
808.92	217.37
809.24	217.45
809.56	217.42
809.88	217.32
810.20	217.30
810.52	217.31
810.84	217.23
811.16	217.19
811.48	217.13
811.80	217.18
812.12	217.19
812.43	217.19
812.75	217.15
813.07	217.11
813.39	217.08
813.71	217.04
814.03	216.99
814.35	216.99
814.67	216.88
814.98	216.81
815.30	216.79
815.62	216.73
815.94	216.61
816.26	216.58
816.58	216.54
816.89	216.55
817.21	216.48
817.53	216.48
817.85	216.48
818.17	216.49
818.48	216.37
818.80	216.40
819.12	216.37
819.44	216.32
819.76	216.28
820.07	216.26
820.39	216.24
820.71	216.23
821.03	216.21
821.34	216.17
821.66	216.19
821.98	216.17
822.30	216.14
822.61	216.22
822.93	216.21
823.25	216.17
823.57	216.12
823.88	216.15
824.20	216.16
824.52	216.18
824.83	216.17
825.15	216.14
825.47	216.11
825.79	216.12
826.10	216.12
826.42	216.11
826.74	216.10
827.05	216.09
827.37	216.08
827.69	216.05
828.00	216.04
828.32	216.01
828.64	215.97
828.95	216.11
829.27	216.01
829.58	215.99
829.90	216.02
830.22	216.00
830.53	215.94
830.85	215.88
831.17	215.77
831.48	215.75
831.80	215.77
832.11	215.75
832.43	215.69
832.75	215.67
833.06	215.77
833.38	215.71
833.69	215.71
834.01	215.71
834.32	215.70
834.64	215.69
834.96	215.70
835.27	215.69
835.59	215.59
835.90	215.55
836.22	215.52
836.53	215.47
836.85	215.46
837.16	215.65
837.48	215.66
837.79	215.76
838.11	215.76
838.42	215.74
838.74	215.73
839.05	215.73
839.37	215.72
839.68	215.58
840.00	215.54
840.31	215.53
840.63	215.52
840.94	215.51
841.26	215.48
841.57	215.45
841.88	215.49
842.20	215.43
842.51	215.41
842.83	215.44
843.14	215.58
843.46	215.60
843.77	215.47
844.08	215.46
844.40	215.39
844.71	215.35
845.03	215.28
845.34	215.28
845.65	215.26
845.97	215.26
846.28	215.29
846.60	215.32
846.91	215.29
847.22	215.27
847.54	215.29
847.85	215.32
848.16	215.32
848.48	215.28
848.79	215.38
849.10	215.38
849.42	215.34
849.73	215.19
850.04	215.15
850.36	215.08
850.67	215.10
850.98	215.10
851.30	215.11
851.61	215.18
851.92	215.16
852.23	215.22
852.55	215.25
852.86	215.26
853.17	215.28
853.49	215.31
853.80	215.35
854.11	215.39
854.42	215.41
854.74	215.39
855.05	215.38
855.36	215.24
855.67	215.28
855.99	215.29
856.30	215.54
856.61	215.56
856.92	215.58
857.23	215.56
857.55	215.53
857.86	215.52
858.17	215.52
858.48	215.50
858.79	215.45
859.11	215.44
859.42	215.39
859.73	215.37
860.04	215.36
860.35	215.25
860.66	215.15
860.98	215.13
861.29	215.15
861.60	215.15
861.91	215.20
862.22	215.16
862.53	215.15
862.84	214.89
863.16	214.94
863.47	214.90
863.78	214.91
864.09	214.92
864.40	214.93
864.71	214.96
865.02	214.98
865.33	214.95
865.64	214.92
865.95	214.93
866.27	215.07
866.58	215.05
866.89	215.10
867.20	215.13
867.51	215.07
867.82	215.05
868.13	215.07
868.44	215.04
868.75	215.07
869.06	215.03
869.37	215.04
869.68	214.95
869.99	214.96
870.30	214.97
870.61	215.02
870.92	214.98
871.23	214.91
871.54	214.95
871.85	215.02
872.16	215.03
872.47	215.01
872.78	214.86
873.09	214.86
873.40	214.86
873.71	214.88
874.02	214.88
874.33	214.87
874.64	214.83
874.95	214.89
875.26	214.84
875.56	214.90
875.87	214.89
876.18	214.88
876.49	215.09
876.80	215.04
877.11	214.95
877.42	214.96
877.73	214.98
878.04	214.91
878.35	214.90
878.66	214.92
878.96	214.94
879.27	214.93
879.58	214.94
879.89	214.93
880.20	214.99
880.51	215.01
880.82	215.02
881.12	215.05
881.43	214.97
881.74	214.98
882.05	214.94
882.36	214.96
882.67	214.98
882.97	214.73
883.28	214.73
883.59	214.77
883.90	214.78
884.21	214.80
884.51	214.80
884.82	214.72
885.13	214.69
885.44	214.65
885.74	214.68
886.05	214.64
886.36	214.64
886.67	214.53
886.98	214.64
887.28	214.61
887.59	214.59
887.90	214.59
888.20	214.59
888.51	214.62
888.82	214.59
889.13	214.60
889.43	214.79
889.74	214.80
890.05	214.76
890.35	214.76
890.66	214.72
890.97	214.73
891.28	214.73
891.58	214.76
891.89	214.78
892.20	214.73
892.50	214.75
892.81	214.76
893.12	214.76
893.42	214.68
893.73	214.74
894.04	214.76
894.34	214.78
894.65	214.77
894.95	214.74
895.26	214.74
895.57	214.82
895.87	214.62
896.18	214.64
896.48	214.67
896.79	214.66
897.10	214.68
897.40	214.69
897.71	214.72
898.01	214.69
898.32	214.70
898.63	214.71
898.93	214.70
899.24	214.70
899.54	214.69
899.85	214.67
900.15	214.63
900.46	214.64
900.76	214.68
901.07	214.68
901.38	214.67
901.68	214.70
901.99	214.63
902.29	214.65
902.60	214.65
902.90	214.64
903.21	214.62
903.51	214.62
903.82	214.64
904.12	214.65
904.43	214.64
904.73	214.64
905.03	214.66
905.34	214.87
905.64	214.87
905.95	214.91
906.25	214.89
906.56	214.90
906.86	214.88
907.17	214.85
907.47	214.87
907.77	214.84
908.08	214.81
908.38	214.79
908.69	214.82
908.99	214.86
909.30	214.84
909.60	214.82
909.90	214.83
910.21	214.78
910.51	214.75
910.81	214.77
911.12	214.74
911.42	214.74
911.73	214.52
912.03	214.52
912.33	214.54
912.64	214.56
912.94	214.53
913.24	214.52
913.55	214.47
913.85	214.44
914.15	214.49
914.46	214.53
914.76	214.53
915.06	214.49
915.37	214.46
915.67	214.46
915.97	214.49
916.27	214.42
916.58	214.44
916.88	214.40
917.18	214.38
917.49	214.57
917.79	214.58
918.09	214.59
918.39	214.63
918.70	214.60
919.00	214.60
919.30	214.67
919.60	214.66
919.91	214.68
920.21	214.69
920.51	214.63
920.81	214.61
921.12	214.62
921.42	214.63
921.72	214.60
922.02	214.61
922.32	214.64
922.63	214.63
922.93	214.72
923.23	214.71
923.53	214.67
923.83	214.49
924.13	214.50
924.44	214.53
924.74	214.59
925.04	214.62
925.34	214.60
925.64	214.53
925.94	214.53
926.24	214.63
926.55	214.62
926.85	214.62
927.15	214.62
927.45	214.62
927.75	214.61
928.05	214.64
928.35	214.63
928.65	214.64
928.95	214.66
929.26	214.56
929.56	214.64
929.86	214.68
930.16	214.71
930.46	214.68
930.76	214.65
931.06	214.53
931.36	214.50
931.66	214.55
931.96	214.58
932.26	214.62
932.56	214.51
932.86	214.52
933.16	214.54
933.46	214.51
933.76	214.48
934.06	214.54
934.36	214.59
934.66	214.59
934.96	214.58
935.26	214.63
935.56	214.65
935.86	214.58
936.16	214.55
936.46	214.51
936.76	214.49
937.06	214.47
937.36	214.47
937.66	214.43
937.96	214.37
938.26	214.31
938.56	214.28
938.86	214.30
939.16	214.33
939.46	214.38
939.76	214.39
940.06	214.41
940.35	214.33
940.65	214.24
940.95	214.27
941.25	214.22
941.55	214.18
941.85	214.15
942.15	214.24
942.45	214.30
942.75	214.29
943.04	214.30
943.34	214.33
943.64	214.34
943.94	214.34
944.24	214.39
944.54	214.42
944.84	214.38
945.13	214.35
945.43	214.32
945.73	214.28
946.03	214.26
946.33	214.23
946.62	214.24
946.92	214.26
947.22	214.26
947.52	214.28
947.82	214.30
948.11	214.32
948.41	214.25
948.71	214.17
949.01	214.17
949.31	214.14
949.60	214.13
949.90	214.16
950.20	214.15
950.50	214.12
950.79	214.09
951.09	214.09
951.39	214.09
951.69	214.05
951.98	214.10
952.28	214.14
952.58	214.14
952.87	214.11
953.17	214.08
953.47	214.05
953.76	214.06
954.06	214.04
954.36	214.01
954.66	214.02
954.95	214.10
955.25	214.11
955.55	214.17
955.84	214.12
956.14	214.15
956.44	214.17
956.73	214.13
957.03	214.15
957.32	214.18
957.62	214.18
957.92	214.23
958.21	214.18
958.51	214.36
958.81	214.39
959.10	214.44
959.40	214.48
959.69	214.51
959.99	214.50
960.29	214.49
960.58	214.50
960.88	214.57
961.17	214.55
961.47	214.59
961.76	214.54
962.06	214.58
962.36	214.51
962.65	214.52
962.95	214.56
963.24	214.55
963.54	214.56
963.83	214.59
964.13	214.60
964.42	214.58
964.72	214.43
965.01	214.44
965.31	214.39
965.60	214.38
965.90	214.51
966.19	214.47
966.49	214.49
966.78	214.46
967.08	214.45
967.37	214.43
967.67	214.35
967.96	214.41
968.26	214.39
968.55	214.45
968.85	214.41
969.14	214.39
969.43	214.39
969.73	214.39
970.02	214.35
970.32	214.32
970.61	214.33
970.91	214.28
971.20	214.23
971.49	214.25
971.79	214.25
972.08	214.08
972.38	214.11
972.67	214.11
972.96	214.18
973.26	214.14
973.55	214.24
973.85	214.25
974.14	214.20
974.43	214.23
974.73	214.20
975.02	214.19
975.31	214.22
975.61	214.23
975.90	214.21
976.19	214.22
976.49	214.24
976.78	214.26
977.07	214.25
977.37	214.26
977.66	214.25
977.95	214.24
978.24	214.27
978.54	214.32
978.83	214.30
979.12	214.27
979.42	214.27
979.71	214.18
980.00	214.16
980.29	214.18
980.59	214.16
980.88	214.18
981.17	214.21
981.46	214.21
981.76	214.24
982.05	214.27
982.34	214.25
982.63	214.27
982.93	214.25
983.22	214.30
983.51	214.32
983.80	214.38
984.09	214.39
984.39	214.37
984.68	214.32
984.97	214.34
985.26	214.31
985.55	214.34
985.85	214.31
986.14	214.38
986.43	214.40
986.72	214.39
987.01	214.31
987.30	214.33
987.59	214.31
987.89	214.27
988.18	214.22
988.47	214.22
988.76	214.18
989.05	214.18
989.34	214.15
989.63	214.21
989.92	214.16
990.22	214.13
990.51	214.15
990.80	214.17
991.09	214.17
991.38	214.20
991.67	214.15
991.96	214.15
992.25	214.14
992.54	214.14
992.83	214.12
993.12	214.11
993.41	214.10
993.70	214.17
993.99	214.23
994.28	214.26
994.58	214.28
994.87	214.27
995.16	214.27
995.45	214.25
995.74	214.15
996.03	214.20
996.32	214.20
996.61	214.26
996.90	214.23
997.19	214.20
997.48	214.22
997.77	214.22
998.06	214.22
998.34	214.21
998.63	214.16
998.92	214.21
999.21	214.25
999.50	214.26
999.79	214.19
1000.08	214.19
1000.37	214.19
1000.66	214.16
1000.95	214.24
1001.24	214.25
1001.53	214.29
1001.82	214.31
1002.11	214.26
1002.40	214.30
1002.68	214.31
1002.97	214.45
1003.26	214.47
1003.55	214.42
1003.84	214.45
1004.13	214.54
1004.42	214.50
1004.71	214.55
1004.99	214.48
1005.28	214.54
1005.57	214.53
1005.86	214.51
1006.15	214.48
1006.44	214.48
1006.72	214.50
1007.01	214.44
1007.30	214.42
1007.59	214.41
1007.88	214.41
1008.17	214.42
1008.45	214.41
1008.74	214.33
1009.03	214.25
1009.32	214.23
1009.60	214.25
1009.89	214.21
1010.18	214.10
1010.47	214.12
1010.76	214.12
1011.04	214.14
1011.33	214.15
1011.62	214.15
1011.91	214.19
1012.19	214.25
1012.48	214.25
1012.77	214.27
1013.05	214.37
1013.34	214.36
1013.63	214.32
1013.92	214.34
1014.20	214.32
1014.49	214.33
1014.78	214.39
1015.06	214.30
1015.35	214.30
1015.64	214.33
1015.92	214.38
1016.21	214.41
1016.50	214.39
1016.78	214.41
1017.07	214.45
1017.36	214.41
1017.64	214.37
1017.93	214.35
1018.22	214.29
1018.50	214.28
1018.79	214.26
1019.08	214.14
1019.36	214.15
1019.65	214.16
1019.93	214.22
1020.22	214.24
1020.51	214.31
1020.79	214.27
1021.08	213.98
1021.36	213.88
1021.65	214.00
1021.94	213.93
1022.22	213.78
1022.51	214.06
1022.79	215.50
1023.08	214.22
1023.36	216.35
1023.65	214.05
>>>>>End Processed Spectral Data<<<<<
