SpectraSuite Data File
++++++++++++++++++++++++++++++++++++
Date: Tue Jan 29 16:00:39 EST 2013
User: group
Dark Spectrum Present: No
Reference Spectrum Present: No
Number of Sampled Component Spectra: 1
Spectrometers: USB2E7196
Integration Time (usec): 65000 (USB2E7196)
Spectra Averaged: 100 (USB2E7196)
Boxcar Smoothing: 10 (USB2E7196)
Correct for Electrical Dark: No (USB2E7196)
Strobe/Lamp Enabled: No (USB2E7196)
Correct for Detector Non-linearity: No (USB2E7196)
Correct for Stray Light: No (USB2E7196)
Number of Pixels in Processed Spectrum: 2048
>>>>>Begin Processed Spectral Data<<<<<
339.09	0.00
339.48	203.35
339.86	204.58
340.24	205.86
340.63	207.39
341.01	212.12
341.39	210.41
341.78	211.65
342.16	213.05
342.54	213.00
342.93	202.28
343.31	212.50
343.69	213.03
344.07	213.49
344.46	213.94
344.84	214.35
345.22	214.49
345.60	214.74
345.99	214.94
346.37	215.07
346.75	215.18
347.13	215.24
347.52	215.30
347.90	215.42
348.28	215.39
348.66	215.43
349.05	215.39
349.43	215.43
349.81	215.52
350.19	215.59
350.57	215.65
350.96	215.74
351.34	215.86
351.72	215.97
352.10	216.11
352.48	216.18
352.87	216.24
353.25	216.30
353.63	216.36
354.01	216.41
354.39	216.46
354.77	216.54
355.15	216.67
355.54	216.65
355.92	216.62
356.30	216.72
356.68	216.94
357.06	217.01
357.44	217.03
357.82	217.07
358.20	217.14
358.58	217.19
358.97	217.26
359.35	217.33
359.73	217.41
360.11	217.40
360.49	217.45
360.87	217.45
361.25	217.54
361.63	217.61
362.01	217.68
362.39	217.71
362.77	217.79
363.15	217.82
363.53	217.90
363.91	217.95
364.29	217.96
364.67	217.78
365.05	217.81
365.43	217.85
365.81	217.87
366.19	217.99
366.57	218.08
366.95	218.05
367.33	218.00
367.71	217.96
368.09	218.04
368.47	218.03
368.85	218.02
369.23	218.05
369.61	217.99
369.99	218.02
370.37	218.01
370.75	218.07
371.13	218.01
371.51	217.95
371.89	217.94
372.27	217.95
372.65	217.95
373.03	217.96
373.41	217.93
373.78	217.89
374.16	217.72
374.54	217.64
374.92	217.60
375.30	217.59
375.68	217.56
376.06	217.49
376.44	217.43
376.82	217.39
377.19	217.32
377.57	217.28
377.95	217.21
378.33	217.18
378.71	217.03
379.09	217.03
379.47	217.00
379.84	216.95
380.22	216.90
380.60	216.81
380.98	216.74
381.36	216.68
381.73	216.64
382.11	216.65
382.49	216.61
382.87	216.55
383.25	216.51
383.62	216.68
384.00	216.63
384.38	216.63
384.76	216.65
385.13	216.71
385.51	216.66
385.89	216.59
386.27	216.57
386.64	216.55
387.02	216.48
387.40	216.43
387.78	216.41
388.15	216.38
388.53	216.38
388.91	216.32
389.29	216.27
389.66	216.28
390.04	216.23
390.42	216.25
390.79	216.27
391.17	216.21
391.55	216.01
391.92	215.99
392.30	215.99
392.68	215.93
393.05	215.87
393.43	215.90
393.81	215.89
394.18	215.85
394.56	215.83
394.94	215.88
395.31	215.91
395.69	215.96
396.06	216.00
396.44	216.02
396.82	216.07
397.19	216.25
397.57	216.24
397.95	216.29
398.32	216.25
398.70	216.27
399.07	216.36
399.45	216.39
399.82	216.47
400.20	216.48
400.58	216.53
400.95	216.51
401.33	216.63
401.70	216.83
402.08	216.91
402.45	216.99
402.83	217.12
403.20	217.20
403.58	217.30
403.95	217.46
404.33	217.61
404.71	217.74
405.08	217.95
405.46	218.12
405.83	218.32
406.21	218.53
406.58	218.78
406.96	219.00
407.33	219.25
407.70	219.55
408.08	220.02
408.45	220.34
408.83	220.76
409.20	221.08
409.58	221.37
409.95	221.83
410.33	222.33
410.70	222.74
411.08	223.31
411.45	223.85
411.82	224.38
412.20	225.04
412.57	225.85
412.95	226.38
413.32	227.17
413.69	227.94
414.07	228.86
414.44	229.78
414.82	230.74
415.19	231.90
415.56	233.01
415.94	234.13
416.31	235.50
416.68	236.85
417.06	238.36
417.43	239.86
417.81	241.52
418.18	243.19
418.55	245.10
418.93	247.06
419.30	249.11
419.67	251.22
420.04	253.41
420.42	255.70
420.79	258.42
421.16	261.13
421.54	263.95
421.91	266.79
422.28	269.76
422.66	273.00
423.03	276.12
423.40	279.36
423.77	282.83
424.15	286.35
424.52	290.04
424.89	294.10
425.26	297.96
425.64	301.73
426.01	305.89
426.38	310.18
426.75	314.50
427.13	319.04
427.50	323.91
427.87	328.94
428.24	333.95
428.61	338.74
428.99	344.04
429.36	349.85
429.73	355.55
430.10	361.21
430.47	367.03
430.85	373.10
431.22	379.52
431.59	386.40
431.96	392.99
432.33	400.21
432.70	407.20
433.08	415.48
433.45	423.30
433.82	430.97
434.19	439.53
434.56	447.91
434.93	455.92
435.30	463.85
435.68	472.66
436.05	481.31
436.42	489.94
436.79	497.77
437.16	506.21
437.53	515.10
437.90	523.89
438.27	532.47
438.64	541.37
439.01	549.63
439.38	556.97
439.75	564.06
440.13	572.19
440.50	579.78
440.87	585.94
441.24	592.21
441.61	599.29
441.98	604.39
442.35	610.53
442.72	616.64
443.09	622.47
443.46	626.04
443.83	628.44
444.20	630.50
444.57	633.55
444.94	634.92
445.31	636.29
445.68	637.61
446.05	638.23
446.42	637.37
446.79	636.38
447.16	635.21
447.53	634.38
447.90	631.15
448.27	628.01
448.64	623.54
449.01	620.40
449.37	614.77
449.74	609.31
450.11	602.64
450.48	595.45
450.85	588.25
451.22	581.97
451.59	576.05
451.96	570.41
452.33	562.78
452.70	555.90
453.07	547.75
453.43	539.49
453.80	531.55
454.17	523.91
454.54	516.64
454.91	508.87
455.28	501.23
455.65	494.13
456.02	486.94
456.38	480.85
456.75	473.26
457.12	466.94
457.49	460.74
457.86	454.85
458.23	449.79
458.59	444.14
458.96	438.47
459.33	433.40
459.70	428.25
460.07	424.26
460.43	419.61
460.80	415.17
461.17	411.35
461.54	407.29
461.91	403.47
462.27	399.57
462.64	396.25
463.01	392.60
463.38	389.01
463.74	385.47
464.11	382.34
464.48	379.67
464.85	376.66
465.21	374.30
465.58	371.71
465.95	368.63
466.32	366.11
466.68	363.57
467.05	361.11
467.42	358.68
467.78	356.08
468.15	353.63
468.52	351.91
468.88	349.52
469.25	347.43
469.62	345.72
469.98	343.87
470.35	342.13
470.72	340.52
471.08	338.81
471.45	337.37
471.82	335.96
472.18	334.37
472.55	333.27
472.92	331.97
473.28	330.83
473.65	329.76
474.02	328.71
474.38	327.87
474.75	327.20
475.11	326.43
475.48	325.86
475.85	325.45
476.21	324.96
476.58	324.66
476.94	324.46
477.31	324.19
477.67	323.95
478.04	323.84
478.41	323.87
478.77	324.07
479.14	324.04
479.50	324.19
479.87	324.49
480.23	324.81
480.60	325.04
480.96	325.35
481.33	325.97
481.69	326.57
482.06	327.11
482.42	327.57
482.79	328.22
483.15	329.06
483.52	330.04
483.88	330.95
484.25	331.93
484.61	332.91
484.98	333.95
485.34	335.26
485.71	336.62
486.07	338.02
486.44	339.34
486.80	341.01
487.17	342.63
487.53	344.47
487.90	346.31
488.26	348.40
488.62	350.56
488.99	352.59
489.35	354.71
489.72	357.09
490.08	359.61
490.44	362.17
490.81	364.80
491.17	367.50
491.54	370.45
491.90	373.43
492.26	376.72
492.63	380.14
492.99	383.68
493.36	387.38
493.72	391.24
494.08	395.26
494.45	399.40
494.81	403.81
495.17	408.25
495.54	412.94
495.90	417.73
496.26	422.70
496.63	427.87
496.99	433.25
497.35	438.78
497.72	444.58
498.08	450.56
498.44	456.70
498.80	463.10
499.17	469.55
499.53	476.24
499.89	483.05
500.26	489.99
500.62	496.98
500.98	504.36
501.34	511.81
501.71	519.57
502.07	527.37
502.43	535.33
502.79	543.43
503.16	551.78
503.52	560.35
503.88	569.00
504.24	577.96
504.60	586.95
504.97	596.16
505.33	605.45
505.69	615.25
506.05	625.14
506.41	634.91
506.78	644.93
507.14	655.16
507.50	665.54
507.86	676.16
508.22	686.96
508.59	697.57
508.95	708.63
509.31	719.87
509.67	731.26
510.03	742.60
510.39	754.30
510.75	766.20
511.12	778.08
511.48	790.13
511.84	802.36
512.20	814.65
512.56	827.27
512.92	839.90
513.28	852.32
513.64	864.88
514.00	877.66
514.37	890.52
514.73	903.54
515.09	916.46
515.45	929.23
515.81	942.13
516.17	955.28
516.53	968.23
516.89	981.11
517.25	994.14
517.61	1007.49
517.97	1020.73
518.33	1033.56
518.69	1046.90
519.05	1060.35
519.41	1073.74
519.77	1087.57
520.13	1100.67
520.49	1113.70
520.85	1126.90
521.21	1139.98
521.57	1153.52
521.93	1166.40
522.29	1179.94
522.65	1193.39
523.01	1206.78
523.37	1219.68
523.73	1232.75
524.09	1245.78
524.45	1259.01
524.81	1272.19
525.17	1285.34
525.53	1298.21
525.89	1311.30
526.25	1324.16
526.61	1336.83
526.97	1349.71
527.33	1362.21
527.68	1375.39
528.04	1388.59
528.40	1401.48
528.76	1414.56
529.12	1427.11
529.48	1440.12
529.84	1452.07
530.20	1464.54
530.56	1477.02
530.91	1490.08
531.27	1502.75
531.63	1515.25
531.99	1527.70
532.35	1539.75
532.71	1551.76
533.07	1564.39
533.42	1576.25
533.78	1588.08
534.14	1599.84
534.50	1610.74
534.86	1622.10
535.21	1632.58
535.57	1643.67
535.93	1654.72
536.29	1665.49
536.65	1676.50
537.00	1687.27
537.36	1698.35
537.72	1708.93
538.08	1719.73
538.44	1730.20
538.79	1740.86
539.15	1751.35
539.51	1761.65
539.87	1772.62
540.22	1783.14
540.58	1793.60
540.94	1804.17
541.29	1814.04
541.65	1823.51
542.01	1833.83
542.37	1843.50
542.72	1853.40
543.08	1862.98
543.44	1873.10
543.79	1882.10
544.15	1891.30
544.51	1900.92
544.87	1910.37
545.22	1919.21
545.58	1927.91
545.94	1936.68
546.29	1945.05
546.65	1953.17
547.01	1961.25
547.36	1968.71
547.72	1976.27
548.07	1983.73
548.43	1991.29
548.79	1998.89
549.14	2006.76
549.50	2014.74
549.86	2022.19
550.21	2029.36
550.57	2036.69
550.92	2043.32
551.28	2050.81
551.64	2057.95
551.99	2065.34
552.35	2072.39
552.70	2079.01
553.06	2085.40
553.41	2091.50
553.77	2097.82
554.13	2104.08
554.48	2110.86
554.84	2117.64
555.19	2124.06
555.55	2130.45
555.90	2136.60
556.26	2143.24
556.61	2149.05
556.97	2153.88
557.32	2159.82
557.68	2166.18
558.03	2171.86
558.39	2176.85
558.74	2182.55
559.10	2188.09
559.45	2193.44
559.81	2198.90
560.16	2204.59
560.52	2210.49
560.87	2216.86
561.23	2222.72
561.58	2229.42
561.94	2234.63
562.29	2239.58
562.64	2245.76
563.00	2251.35
563.35	2256.93
563.71	2262.98
564.06	2268.66
564.42	2274.70
564.77	2279.84
565.12	2285.02
565.48	2290.42
565.83	2296.10
566.19	2301.77
566.54	2307.17
566.89	2311.96
567.25	2316.63
567.60	2322.41
567.96	2327.66
568.31	2332.16
568.66	2336.32
569.02	2340.16
569.37	2343.99
569.72	2348.38
570.08	2351.82
570.43	2354.76
570.78	2357.96
571.14	2360.56
571.49	2363.74
571.84	2367.30
572.20	2370.17
572.55	2373.41
572.90	2375.63
573.26	2378.78
573.61	2381.24
573.96	2383.54
574.31	2385.56
574.67	2387.65
575.02	2388.57
575.37	2390.06
575.72	2391.14
576.08	2392.88
576.43	2393.46
576.78	2394.47
577.13	2396.51
577.49	2397.77
577.84	2399.50
578.19	2401.09
578.54	2401.86
578.90	2403.18
579.25	2403.32
579.60	2403.77
579.95	2403.26
580.30	2403.60
580.66	2402.97
581.01	2401.54
581.36	2399.48
581.71	2398.30
582.06	2397.48
582.42	2396.88
582.77	2395.11
583.12	2393.73
583.47	2392.76
583.82	2392.33
584.17	2391.12
584.53	2388.91
584.88	2387.18
585.23	2385.23
585.58	2383.12
585.93	2381.12
586.28	2379.18
586.63	2377.00
586.98	2375.00
587.34	2373.33
587.69	2371.34
588.04	2369.52
588.39	2368.16
588.74	2366.03
589.09	2363.63
589.44	2360.86
589.79	2358.74
590.14	2356.97
590.49	2354.27
590.84	2350.77
591.19	2347.89
591.54	2344.75
591.89	2340.99
592.25	2337.81
592.60	2333.83
592.95	2329.92
593.30	2325.98
593.65	2321.46
594.00	2317.26
594.35	2314.19
594.70	2309.65
595.05	2305.08
595.40	2299.84
595.75	2294.64
596.10	2290.99
596.45	2286.21
596.80	2281.67
597.15	2276.32
597.50	2270.57
597.85	2265.69
598.19	2260.38
598.54	2254.74
598.89	2249.87
599.24	2245.45
599.59	2239.64
599.94	2234.27
600.29	2228.57
600.64	2222.79
600.99	2216.47
601.34	2211.13
601.69	2204.27
602.04	2198.02
602.39	2191.63
602.74	2185.67
603.08	2180.04
603.43	2173.68
603.78	2167.12
604.13	2159.90
604.48	2152.80
604.83	2146.80
605.18	2140.58
605.53	2133.74
605.87	2126.74
606.22	2119.96
606.57	2112.09
606.92	2104.36
607.27	2097.32
607.62	2090.86
607.96	2083.88
608.31	2077.22
608.66	2069.56
609.01	2062.03
609.36	2054.97
609.70	2047.32
610.05	2039.76
610.40	2031.70
610.75	2023.51
611.10	2015.90
611.44	2007.51
611.79	1998.82
612.14	1988.91
612.49	1978.62
612.83	1969.49
613.18	1960.39
613.53	1951.02
613.88	1941.54
614.22	1932.76
614.57	1922.80
614.92	1912.27
615.27	1902.36
615.61	1892.49
615.96	1882.76
616.31	1873.30
616.65	1863.89
617.00	1853.78
617.35	1843.99
617.70	1834.22
618.04	1824.06
618.39	1813.64
618.74	1803.77
619.08	1794.26
619.43	1785.50
619.78	1777.21
620.12	1768.36
620.47	1758.38
620.82	1748.25
621.16	1738.54
621.51	1728.63
621.85	1718.75
622.20	1708.19
622.55	1697.53
622.89	1687.67
623.24	1677.93
623.59	1668.23
623.93	1658.10
624.28	1648.67
624.62	1638.54
624.97	1628.28
625.32	1618.67
625.66	1609.83
626.01	1601.04
626.35	1591.50
626.70	1581.35
627.04	1571.14
627.39	1561.26
627.73	1552.04
628.08	1542.95
628.43	1533.21
628.77	1523.99
629.12	1515.17
629.46	1507.26
629.81	1498.78
630.15	1489.00
630.50	1479.19
630.84	1468.60
631.19	1458.72
631.53	1449.23
631.88	1439.08
632.22	1428.93
632.57	1419.46
632.91	1409.35
633.26	1399.39
633.60	1389.89
633.95	1380.61
634.29	1371.17
634.64	1361.70
634.98	1351.81
635.32	1342.40
635.67	1333.85
636.01	1324.55
636.36	1314.72
636.70	1305.17
637.05	1295.76
637.39	1286.93
637.73	1278.23
638.08	1270.67
638.42	1262.31
638.77	1253.47
639.11	1245.16
639.45	1237.20
639.80	1228.45
640.14	1219.80
640.49	1210.94
640.83	1202.13
641.17	1194.06
641.52	1185.75
641.86	1177.15
642.20	1169.21
642.55	1160.55
642.89	1151.69
643.23	1143.03
643.58	1134.89
643.92	1125.79
644.26	1117.17
644.61	1108.73
644.95	1099.96
645.29	1090.58
645.64	1081.42
645.98	1073.08
646.32	1065.12
646.66	1056.76
647.01	1048.39
647.35	1040.19
647.69	1031.74
648.04	1023.40
648.38	1014.30
648.72	1005.53
649.06	997.03
649.41	988.98
649.75	980.95
650.09	973.04
650.43	964.88
650.78	956.66
651.12	949.00
651.46	941.53
651.80	934.25
652.14	926.96
652.49	919.50
652.83	912.19
653.17	904.54
653.51	896.90
653.85	889.62
654.20	882.36
654.54	874.79
654.88	867.71
655.22	860.56
655.56	853.71
655.90	846.99
656.25	840.42
656.59	833.39
656.93	826.45
657.27	819.40
657.61	812.63
657.95	806.55
658.29	800.79
658.64	794.75
658.98	788.29
659.32	781.68
659.66	775.44
660.00	769.18
660.34	763.08
660.68	757.05
661.02	750.76
661.36	744.96
661.70	739.29
662.05	733.68
662.39	728.30
662.73	722.96
663.07	717.67
663.41	712.04
663.75	706.48
664.09	700.90
664.43	695.50
664.77	690.12
665.11	684.33
665.45	678.38
665.79	672.58
666.13	666.90
666.47	661.52
666.81	656.24
667.15	650.91
667.49	645.82
667.83	640.60
668.17	635.46
668.51	630.40
668.85	625.50
669.19	620.63
669.53	615.59
669.87	610.59
670.21	605.81
670.55	601.13
670.89	596.79
671.23	592.67
671.57	588.34
671.91	584.16
672.25	580.10
672.58	576.03
672.92	572.06
673.26	568.15
673.60	564.39
673.94	560.55
674.28	556.90
674.62	553.13
674.96	549.45
675.30	545.99
675.64	542.46
675.97	538.93
676.31	535.40
676.65	531.82
676.99	528.37
677.33	524.61
677.67	521.04
678.01	517.22
678.34	513.53
678.68	510.09
679.02	506.47
679.36	502.80
679.70	499.21
680.04	495.76
680.37	492.44
680.71	489.18
681.05	486.07
681.39	482.95
681.73	479.84
682.06	476.89
682.40	473.77
682.74	470.56
683.08	467.40
683.42	464.30
683.75	461.47
684.09	458.51
684.43	455.77
684.77	452.89
685.10	450.06
685.44	447.20
685.78	444.28
686.12	441.66
686.45	439.03
686.79	436.45
687.13	433.94
687.46	431.36
687.80	428.60
688.14	425.85
688.48	423.30
688.81	420.69
689.15	418.15
689.49	415.61
689.82	413.13
690.16	410.58
690.50	408.09
690.83	405.59
691.17	403.14
691.51	400.75
691.84	398.59
692.18	396.39
692.52	394.23
692.85	392.21
693.19	390.09
693.52	387.94
693.86	385.77
694.20	383.61
694.53	381.53
694.87	379.49
695.21	377.38
695.54	375.28
695.88	373.20
696.21	371.00
696.55	368.95
696.88	366.97
697.22	365.06
697.56	363.27
697.89	361.43
698.23	359.70
698.56	357.93
698.90	356.15
699.23	354.25
699.57	352.43
699.90	350.60
700.24	348.83
700.58	347.12
700.91	345.50
701.25	343.96
701.58	342.42
701.92	340.85
702.25	339.26
702.59	337.71
702.92	336.22
703.26	334.76
703.59	333.34
703.93	332.07
704.26	330.69
704.60	329.17
704.93	327.71
705.26	326.22
705.60	324.77
705.93	323.33
706.27	322.11
706.60	320.89
706.94	319.64
707.27	318.26
707.61	316.95
707.94	315.61
708.27	314.10
708.61	312.69
708.94	311.36
709.28	310.13
709.61	308.91
709.94	307.72
710.28	306.52
710.61	305.31
710.95	303.91
711.28	302.83
711.61	301.71
711.95	300.64
712.28	299.49
712.61	298.37
712.95	297.34
713.28	296.36
713.61	295.22
713.95	294.10
714.28	293.10
714.61	292.09
714.95	291.12
715.28	290.18
715.61	289.18
715.95	288.26
716.28	287.35
716.61	286.39
716.95	285.45
717.28	284.53
717.61	283.67
717.94	282.83
718.28	281.82
718.61	281.01
718.94	280.10
719.27	279.26
719.61	278.45
719.94	277.62
720.27	276.63
720.60	275.82
720.94	275.06
721.27	274.33
721.60	273.69
721.93	273.00
722.27	272.36
722.60	271.72
722.93	271.01
723.26	270.35
723.59	269.69
723.93	269.05
724.26	268.38
724.59	267.76
724.92	267.16
725.25	266.69
725.59	266.13
725.92	265.62
726.25	265.07
726.58	264.53
726.91	263.96
727.24	263.43
727.57	262.92
727.91	262.32
728.24	261.81
728.57	261.24
728.90	260.70
729.23	260.07
729.56	259.65
729.89	259.13
730.22	258.60
730.55	258.07
730.89	257.58
731.22	257.12
731.55	256.59
731.88	256.11
732.21	255.56
732.54	255.00
732.87	254.51
733.20	254.07
733.53	253.56
733.86	253.13
734.19	252.69
734.52	252.26
734.85	252.01
735.18	251.54
735.51	251.16
735.84	250.75
736.17	250.39
736.50	249.88
736.83	249.74
737.16	249.36
737.49	249.00
737.82	248.57
738.15	248.25
738.48	247.87
738.81	247.50
739.14	247.07
739.47	246.78
739.80	246.38
740.13	246.05
740.46	245.66
740.79	245.25
741.12	244.93
741.45	244.55
741.78	244.11
742.11	243.86
742.44	243.46
742.77	243.18
743.10	242.88
743.43	242.52
743.75	241.98
744.08	241.89
744.41	241.51
744.74	241.16
745.07	240.77
745.40	240.52
745.73	240.24
746.06	239.94
746.39	239.61
746.71	239.29
747.04	238.94
747.37	238.67
747.70	238.43
748.03	238.10
748.36	237.85
748.68	237.58
749.01	237.21
749.34	236.96
749.67	236.67
750.00	236.37
750.33	236.29
750.65	236.04
750.98	235.57
751.31	235.34
751.64	235.17
751.97	235.07
752.29	234.81
752.62	234.52
752.95	234.28
753.28	234.01
753.60	233.77
753.93	233.64
754.26	233.43
754.59	233.15
754.91	232.94
755.24	232.70
755.57	232.47
755.90	232.28
756.22	232.04
756.55	231.79
756.88	231.60
757.20	231.24
757.53	230.98
757.86	230.76
758.19	230.57
758.51	230.36
758.84	230.06
759.17	229.87
759.49	229.70
759.82	229.67
760.15	229.51
760.47	229.37
760.80	229.12
761.13	229.00
761.45	228.79
761.78	228.64
762.11	228.47
762.43	228.28
762.76	228.11
763.08	227.99
763.41	227.86
763.74	227.72
764.06	227.58
764.39	227.45
764.71	227.31
765.04	227.11
765.37	226.95
765.69	226.77
766.02	226.65
766.34	226.54
766.67	226.30
767.00	226.20
767.32	226.19
767.65	226.22
767.97	226.04
768.30	225.94
768.62	225.80
768.95	225.66
769.27	225.54
769.60	225.44
769.92	225.28
770.25	225.09
770.57	224.95
770.90	224.83
771.22	224.70
771.55	224.59
771.87	224.54
772.20	224.42
772.52	224.50
772.85	224.60
773.17	224.45
773.50	224.32
773.82	224.19
774.15	223.96
774.47	223.71
774.80	223.59
775.12	223.51
775.45	223.42
775.77	223.36
776.09	223.29
776.42	223.20
776.74	223.16
777.07	223.08
777.39	222.99
777.72	222.89
778.04	222.81
778.36	222.73
778.69	222.62
779.01	222.57
779.33	222.33
779.66	222.04
779.98	221.96
780.31	221.91
780.63	221.92
780.95	221.91
781.28	221.84
781.60	221.77
781.92	221.71
782.25	221.63
782.57	221.54
782.89	221.48
783.22	221.36
783.54	221.23
783.86	221.22
784.19	221.17
784.51	221.18
784.83	221.11
785.16	221.04
785.48	220.99
785.80	220.94
786.12	220.88
786.45	220.85
786.77	220.81
787.09	220.72
787.42	220.61
787.74	220.53
788.06	220.48
788.38	220.44
788.71	220.32
789.03	220.34
789.35	220.31
789.67	220.22
789.99	220.21
790.32	220.16
790.64	220.10
790.96	220.22
791.28	220.09
791.61	220.03
791.93	219.98
792.25	219.94
792.57	220.05
792.89	219.96
793.21	219.90
793.54	219.83
793.86	219.77
794.18	219.74
794.50	219.69
794.82	219.63
795.14	219.63
795.47	219.65
795.79	219.55
796.11	219.45
796.43	219.42
796.75	219.36
797.07	219.34
797.39	219.28
797.71	219.07
798.04	219.04
798.36	219.01
798.68	218.99
799.00	218.96
799.32	218.76
799.64	218.77
799.96	218.73
800.28	218.73
800.60	218.70
800.92	218.72
801.24	218.66
801.56	218.65
801.89	218.57
802.21	218.59
802.53	218.54
802.85	218.56
803.17	218.61
803.49	218.56
803.81	218.53
804.13	218.52
804.45	218.45
804.77	218.45
805.09	218.38
805.41	218.32
805.73	218.26
806.05	218.22
806.37	218.18
806.69	218.12
807.01	218.07
807.33	218.03
807.65	217.89
807.97	217.96
808.28	217.93
808.60	217.92
808.92	217.86
809.24	217.97
809.56	217.91
809.88	217.80
810.20	217.81
810.52	217.81
810.84	217.76
811.16	217.72
811.48	217.66
811.80	217.73
812.12	217.74
812.43	217.76
812.75	217.77
813.07	217.72
813.39	217.73
813.71	217.67
814.03	217.61
814.35	217.62
814.67	217.54
814.98	217.47
815.30	217.44
815.62	217.38
815.94	217.21
816.26	217.23
816.58	217.21
816.89	217.21
817.21	217.13
817.53	217.14
817.85	217.17
818.17	217.16
818.48	217.12
818.80	217.12
819.12	217.08
819.44	217.02
819.76	216.98
820.07	216.95
820.39	216.96
820.71	216.98
821.03	216.99
821.34	216.93
821.66	216.96
821.98	216.96
822.30	216.94
822.61	217.07
822.93	217.01
823.25	216.99
823.57	216.93
823.88	217.01
824.20	216.99
824.52	216.95
824.83	216.93
825.15	216.86
825.47	216.85
825.79	216.87
826.10	216.81
826.42	216.81
826.74	216.85
827.05	216.84
827.37	216.84
827.69	216.80
828.00	216.79
828.32	216.80
828.64	216.79
828.95	216.89
829.27	216.82
829.58	216.80
829.90	216.83
830.22	216.81
830.53	216.73
830.85	216.70
831.17	216.67
831.48	216.67
831.80	216.66
832.11	216.63
832.43	216.57
832.75	216.58
833.06	216.72
833.38	216.63
833.69	216.60
834.01	216.59
834.32	216.59
834.64	216.56
834.96	216.53
835.27	216.49
835.59	216.40
835.90	216.33
836.22	216.34
836.53	216.30
836.85	216.28
837.16	216.46
837.48	216.44
837.79	216.51
838.11	216.51
838.42	216.51
838.74	216.53
839.05	216.50
839.37	216.46
839.68	216.26
840.00	216.27
840.31	216.31
840.63	216.26
840.94	216.23
841.26	216.22
841.57	216.18
841.88	216.21
842.20	216.16
842.51	216.15
842.83	216.07
843.14	216.24
843.46	216.22
843.77	216.11
844.08	216.08
844.40	215.98
844.71	215.98
845.03	215.94
845.34	215.91
845.65	215.90
845.97	215.92
846.28	215.96
846.60	215.94
846.91	215.89
847.22	215.91
847.54	215.95
847.85	215.94
848.16	215.92
848.48	215.87
848.79	215.96
849.10	215.96
849.42	216.03
849.73	215.84
850.04	215.86
850.36	215.76
850.67	215.78
850.98	215.80
851.30	215.79
851.61	215.81
851.92	215.79
852.23	215.81
852.55	215.81
852.86	215.79
853.17	215.81
853.49	215.85
853.80	215.85
854.11	215.85
854.42	215.89
854.74	215.90
855.05	215.90
855.36	215.79
855.67	215.81
855.99	215.81
856.30	216.02
856.61	216.02
856.92	216.05
857.23	216.06
857.55	216.04
857.86	216.01
858.17	216.00
858.48	215.97
858.79	215.92
859.11	215.94
859.42	215.92
859.73	215.90
860.04	215.86
860.35	215.83
860.66	215.74
860.98	215.73
861.29	215.72
861.60	215.70
861.91	215.75
862.22	215.73
862.53	215.68
862.84	215.43
863.16	215.49
863.47	215.41
863.78	215.40
864.09	215.39
864.40	215.41
864.71	215.44
865.02	215.48
865.33	215.46
865.64	215.43
865.95	215.45
866.27	215.60
866.58	215.57
866.89	215.59
867.20	215.59
867.51	215.57
867.82	215.58
868.13	215.64
868.44	215.62
868.75	215.61
869.06	215.62
869.37	215.65
869.68	215.59
869.99	215.64
870.30	215.64
870.61	215.65
870.92	215.64
871.23	215.60
871.54	215.60
871.85	215.69
872.16	215.69
872.47	215.68
872.78	215.55
873.09	215.56
873.40	215.54
873.71	215.57
874.02	215.56
874.33	215.51
874.64	215.44
874.95	215.45
875.26	215.43
875.56	215.44
875.87	215.44
876.18	215.41
876.49	215.63
876.80	215.62
877.11	215.59
877.42	215.58
877.73	215.60
878.04	215.57
878.35	215.57
878.66	215.60
878.96	215.58
879.27	215.56
879.58	215.59
879.89	215.57
880.20	215.63
880.51	215.64
880.82	215.67
881.12	215.70
881.43	215.68
881.74	215.64
882.05	215.64
882.36	215.63
882.67	215.63
882.97	215.39
883.28	215.38
883.59	215.39
883.90	215.42
884.21	215.44
884.51	215.42
884.82	215.35
885.13	215.36
885.44	215.33
885.74	215.33
886.05	215.31
886.36	215.30
886.67	215.22
886.98	215.33
887.28	215.33
887.59	215.35
887.90	215.36
888.20	215.40
888.51	215.43
888.82	215.37
889.13	215.43
889.43	215.57
889.74	215.54
890.05	215.53
890.35	215.49
890.66	215.45
890.97	215.46
891.28	215.44
891.58	215.41
891.89	215.41
892.20	215.40
892.50	215.40
892.81	215.39
893.12	215.38
893.42	215.28
893.73	215.27
894.04	215.19
894.34	215.17
894.65	215.17
894.95	215.15
895.26	215.19
895.57	215.25
895.87	215.10
896.18	215.14
896.48	215.15
896.79	215.20
897.10	215.24
897.40	215.24
897.71	215.30
898.01	215.31
898.32	215.38
898.63	215.36
898.93	215.39
899.24	215.41
899.54	215.43
899.85	215.41
900.15	215.39
900.46	215.42
900.76	215.44
901.07	215.43
901.38	215.42
901.68	215.42
901.99	215.34
902.29	215.32
902.60	215.30
902.90	215.33
903.21	215.28
903.51	215.26
903.82	215.29
904.12	215.29
904.43	215.28
904.73	215.26
905.03	215.32
905.34	215.48
905.64	215.46
905.95	215.45
906.25	215.45
906.56	215.48
906.86	215.51
907.17	215.54
907.47	215.52
907.77	215.51
908.08	215.45
908.38	215.44
908.69	215.48
908.99	215.50
909.30	215.47
909.60	215.46
909.90	215.46
910.21	215.40
910.51	215.36
910.81	215.36
911.12	215.35
911.42	215.34
911.73	215.13
912.03	215.14
912.33	215.18
912.64	215.15
912.94	215.10
913.24	215.01
913.55	214.96
913.85	214.97
914.15	215.01
914.46	215.05
914.76	215.02
915.06	215.00
915.37	214.97
915.67	214.97
915.97	215.01
916.27	214.94
916.58	214.95
916.88	214.93
917.18	214.90
917.49	215.03
917.79	215.02
918.09	215.05
918.39	215.06
918.70	215.04
919.00	215.04
919.30	215.18
919.60	215.22
919.91	215.23
920.21	215.24
920.51	215.19
920.81	215.17
921.12	215.19
921.42	215.19
921.72	215.21
922.02	215.21
922.32	215.21
922.63	215.23
922.93	215.35
923.23	215.37
923.53	215.35
923.83	215.20
924.13	215.21
924.44	215.21
924.74	215.28
925.04	215.33
925.34	215.34
925.64	215.25
925.94	215.23
926.24	215.36
926.55	215.35
926.85	215.41
927.15	215.42
927.45	215.43
927.75	215.43
928.05	215.41
928.35	215.38
928.65	215.42
928.95	215.48
929.26	215.39
929.56	215.43
929.86	215.46
930.16	215.48
930.46	215.48
930.76	215.50
931.06	215.39
931.36	215.34
931.66	215.38
931.96	215.38
932.26	215.38
932.56	215.28
932.86	215.31
933.16	215.29
933.46	215.26
933.76	215.24
934.06	215.28
934.36	215.36
934.66	215.38
934.96	215.35
935.26	215.31
935.56	215.34
935.86	215.31
936.16	215.26
936.46	215.24
936.76	215.24
937.06	215.20
937.36	215.25
937.66	215.27
937.96	215.20
938.26	215.14
938.56	215.12
938.86	215.15
939.16	215.16
939.46	215.18
939.76	215.19
940.06	215.18
940.35	215.14
940.65	215.04
940.95	215.03
941.25	214.97
941.55	214.99
941.85	214.97
942.15	214.99
942.45	215.06
942.75	215.07
943.04	215.07
943.34	215.08
943.64	215.03
943.94	214.98
944.24	215.02
944.54	215.04
944.84	215.06
945.13	215.02
945.43	214.97
945.73	214.94
946.03	214.93
946.33	214.91
946.62	214.88
946.92	214.87
947.22	214.90
947.52	214.92
947.82	214.91
948.11	214.90
948.41	214.86
948.71	214.80
949.01	214.80
949.31	214.77
949.60	214.76
949.90	214.81
950.20	214.81
950.50	214.81
950.79	214.85
951.09	214.88
951.39	214.87
951.69	214.89
951.98	214.94
952.28	214.95
952.58	214.97
952.87	215.00
953.17	215.06
953.47	215.03
953.76	215.03
954.06	215.00
954.36	214.99
954.66	215.02
954.95	215.08
955.25	215.09
955.55	215.13
955.84	215.10
956.14	215.12
956.44	215.14
956.73	215.14
957.03	215.17
957.32	215.14
957.62	215.14
957.92	215.16
958.21	215.14
958.51	215.40
958.81	215.41
959.10	215.43
959.40	215.44
959.69	215.44
959.99	215.47
960.29	215.48
960.58	215.47
960.88	215.53
961.17	215.50
961.47	215.51
961.76	215.45
962.06	215.50
962.36	215.46
962.65	215.46
962.95	215.43
963.24	215.37
963.54	215.39
963.83	215.41
964.13	215.43
964.42	215.41
964.72	215.23
965.01	215.23
965.31	215.20
965.60	215.16
965.90	215.28
966.19	215.25
966.49	215.27
966.78	215.26
967.08	215.26
967.37	215.26
967.67	215.19
967.96	215.25
968.26	215.24
968.55	215.28
968.85	215.26
969.14	215.27
969.43	215.27
969.73	215.24
970.02	215.25
970.32	215.20
970.61	215.17
970.91	215.10
971.20	215.07
971.49	215.06
971.79	215.09
972.08	214.96
972.38	215.00
972.67	215.00
972.96	215.04
973.26	214.99
973.55	215.07
973.85	215.11
974.14	215.08
974.43	215.06
974.73	215.00
975.02	215.01
975.31	214.99
975.61	215.00
975.90	215.00
976.19	214.95
976.49	214.95
976.78	214.98
977.07	214.97
977.37	215.00
977.66	214.99
977.95	214.93
978.24	214.96
978.54	214.99
978.83	214.95
979.12	214.94
979.42	214.93
979.71	214.87
980.00	214.84
980.29	214.87
980.59	214.85
980.88	214.92
981.17	214.89
981.46	214.92
981.76	214.95
982.05	215.02
982.34	215.03
982.63	215.03
982.93	215.04
983.22	215.11
983.51	215.13
983.80	215.15
984.09	215.21
984.39	215.20
984.68	215.16
984.97	215.16
985.26	215.12
985.55	215.15
985.85	215.12
986.14	215.15
986.43	215.15
986.72	215.17
987.01	215.09
987.30	215.11
987.59	215.08
987.89	215.07
988.18	214.98
988.47	214.97
988.76	214.95
989.05	214.90
989.34	214.83
989.63	214.87
989.92	214.86
990.22	214.81
990.51	214.80
990.80	214.79
991.09	214.81
991.38	214.87
991.67	214.82
991.96	214.81
992.25	214.81
992.54	214.77
992.83	214.77
993.12	214.79
993.41	214.82
993.70	214.89
993.99	214.96
994.28	214.98
994.58	215.00
994.87	215.02
995.16	215.05
995.45	215.03
995.74	214.96
996.03	215.00
996.32	215.05
996.61	215.08
996.90	215.05
997.19	215.05
997.48	215.02
997.77	215.00
998.06	215.01
998.34	215.00
998.63	215.00
998.92	214.96
999.21	215.00
999.50	214.99
999.79	214.90
1000.08	214.86
1000.37	214.89
1000.66	214.86
1000.95	214.92
1001.24	214.91
1001.53	214.95
1001.82	214.94
1002.11	214.88
1002.40	214.87
1002.68	214.92
1002.97	215.07
1003.26	215.04
1003.55	215.02
1003.84	215.03
1004.13	215.11
1004.42	215.07
1004.71	215.10
1004.99	215.09
1005.28	215.13
1005.57	215.13
1005.86	215.12
1006.15	215.12
1006.44	215.05
1006.72	215.10
1007.01	215.03
1007.30	215.01
1007.59	214.97
1007.88	214.94
1008.17	214.99
1008.45	214.98
1008.74	214.89
1009.03	214.80
1009.32	214.78
1009.60	214.79
1009.89	214.76
1010.18	214.67
1010.47	214.68
1010.76	214.68
1011.04	214.68
1011.33	214.69
1011.62	214.72
1011.91	214.75
1012.19	214.75
1012.48	214.80
1012.77	214.77
1013.05	214.91
1013.34	214.94
1013.63	214.96
1013.92	215.02
1014.20	214.95
1014.49	214.93
1014.78	214.95
1015.06	214.87
1015.35	214.85
1015.64	214.90
1015.92	214.95
1016.21	214.96
1016.50	215.00
1016.78	214.97
1017.07	215.01
1017.36	214.98
1017.64	214.92
1017.93	214.92
1018.22	214.92
1018.50	214.88
1018.79	214.90
1019.08	214.76
1019.36	214.77
1019.65	214.76
1019.93	214.79
1020.22	214.84
1020.51	214.95
1020.79	214.93
1021.08	215.02
1021.36	214.17
1021.65	214.94
1021.94	214.77
1022.22	214.93
1022.51	214.68
1022.79	215.82
1023.08	215.12
1023.36	217.03
1023.65	214.41
>>>>>End Processed Spectral Data<<<<<
