SpectraSuite Data File
++++++++++++++++++++++++++++++++++++
Date: Tue Jan 29 16:04:28 EST 2013
User: group
Dark Spectrum Present: No
Reference Spectrum Present: No
Number of Sampled Component Spectra: 1
Spectrometers: USB2E7196
Integration Time (usec): 65000 (USB2E7196)
Spectra Averaged: 100 (USB2E7196)
Boxcar Smoothing: 10 (USB2E7196)
Correct for Electrical Dark: No (USB2E7196)
Strobe/Lamp Enabled: No (USB2E7196)
Correct for Detector Non-linearity: No (USB2E7196)
Correct for Stray Light: No (USB2E7196)
Number of Pixels in Processed Spectrum: 2048
>>>>>Begin Processed Spectral Data<<<<<
339.09	0.00
339.48	202.93
339.86	204.49
340.24	206.21
340.63	206.98
341.01	211.64
341.39	210.11
341.78	211.73
342.16	212.79
342.54	213.05
342.93	202.17
343.31	212.40
343.69	212.96
344.07	213.41
344.46	213.86
344.84	214.29
345.22	214.48
345.60	214.75
345.99	214.94
346.37	215.09
346.75	215.18
347.13	215.27
347.52	215.35
347.90	215.47
348.28	215.48
348.66	215.58
349.05	215.58
349.43	215.65
349.81	215.71
350.19	215.75
350.57	215.79
350.96	215.87
351.34	215.93
351.72	216.00
352.10	216.11
352.48	216.16
352.87	216.18
353.25	216.21
353.63	216.25
354.01	216.29
354.39	216.34
354.77	216.45
355.15	216.57
355.54	216.60
355.92	216.60
356.30	216.67
356.68	216.86
357.06	216.92
357.44	216.94
357.82	216.97
358.20	217.04
358.58	217.10
358.97	217.16
359.35	217.24
359.73	217.34
360.11	217.35
360.49	217.38
360.87	217.43
361.25	217.49
361.63	217.58
362.01	217.62
362.39	217.62
362.77	217.64
363.15	217.64
363.53	217.64
363.91	217.65
364.29	217.68
364.67	217.47
365.05	217.47
365.43	217.51
365.81	217.53
366.19	217.63
366.57	217.70
366.95	217.66
367.33	217.60
367.71	217.60
368.09	217.62
368.47	217.61
368.85	217.58
369.23	217.60
369.61	217.52
369.99	217.53
370.37	217.53
370.75	217.58
371.13	217.54
371.51	217.49
371.89	217.45
372.27	217.44
372.65	217.41
373.03	217.38
373.41	217.32
373.78	217.30
374.16	217.14
374.54	217.07
374.92	217.03
375.30	217.02
375.68	216.92
376.06	216.92
376.44	216.88
376.82	216.83
377.19	216.79
377.57	216.75
377.95	216.65
378.33	216.61
378.71	216.47
379.09	216.48
379.47	216.46
379.84	216.41
380.22	216.34
380.60	216.29
380.98	216.22
381.36	216.18
381.73	216.09
382.11	216.10
382.49	216.01
382.87	215.96
383.25	215.93
383.62	216.17
384.00	216.06
384.38	216.02
384.76	216.05
385.13	216.12
385.51	216.10
385.89	216.08
386.27	216.04
386.64	216.07
387.02	215.99
387.40	215.95
387.78	215.95
388.15	215.93
388.53	215.91
388.91	215.89
389.29	215.85
389.66	215.89
390.04	215.87
390.42	215.91
390.79	215.91
391.17	215.87
391.55	215.63
391.92	215.62
392.30	215.65
392.68	215.60
393.05	215.54
393.43	215.55
393.81	215.58
394.18	215.56
394.56	215.56
394.94	215.64
395.31	215.62
395.69	215.68
396.06	215.72
396.44	215.74
396.82	215.77
397.19	215.91
397.57	215.90
397.95	215.96
398.32	215.90
398.70	215.99
399.07	216.08
399.45	216.15
399.82	216.22
400.20	216.26
400.58	216.31
400.95	216.32
401.33	216.45
401.70	216.64
402.08	216.78
402.45	216.86
402.83	216.98
403.20	217.14
403.58	217.22
403.95	217.39
404.33	217.55
404.71	217.70
405.08	217.96
405.46	218.17
405.83	218.31
406.21	218.53
406.58	218.75
406.96	218.96
407.33	219.16
407.70	219.45
408.08	219.89
408.45	220.23
408.83	220.60
409.20	220.92
409.58	221.17
409.95	221.58
410.33	222.02
410.70	222.41
411.08	222.93
411.45	223.50
411.82	224.05
412.20	224.71
412.57	225.53
412.95	226.08
413.32	226.85
413.69	227.68
414.07	228.58
414.44	229.48
414.82	230.47
415.19	231.66
415.56	232.81
415.94	233.95
416.31	235.32
416.68	236.64
417.06	238.20
417.43	239.72
417.81	241.41
418.18	243.16
418.55	245.03
418.93	246.96
419.30	248.98
419.67	251.11
420.04	253.31
420.42	255.62
420.79	258.37
421.16	261.06
421.54	263.90
421.91	266.77
422.28	269.78
422.66	272.96
423.03	276.08
423.40	279.34
423.77	282.80
424.15	286.35
424.52	290.07
424.89	294.05
425.26	297.95
425.64	301.68
426.01	305.84
426.38	310.15
426.75	314.56
427.13	319.14
427.50	323.96
427.87	328.98
428.24	333.99
428.61	338.76
428.99	344.11
429.36	349.89
429.73	355.58
430.10	361.28
430.47	367.13
430.85	373.16
431.22	379.61
431.59	386.47
431.96	393.02
432.33	400.26
432.70	407.25
433.08	415.55
433.45	423.36
433.82	431.09
434.19	439.69
434.56	448.07
434.93	456.14
435.30	464.15
435.68	472.97
436.05	481.59
436.42	490.18
436.79	498.05
437.16	506.52
437.53	515.47
437.90	524.26
438.27	532.94
438.64	541.90
439.01	550.15
439.38	557.48
439.75	564.58
440.13	572.76
440.50	580.43
440.87	586.59
441.24	593.01
441.61	600.10
441.98	605.25
442.35	611.39
442.72	617.50
443.09	623.30
443.46	626.84
443.83	629.26
444.20	631.34
444.57	634.33
444.94	635.69
445.31	637.11
445.68	638.44
446.05	639.01
446.42	638.22
446.79	637.24
447.16	636.20
447.53	635.40
447.90	632.10
448.27	628.88
448.64	624.33
449.01	621.06
449.37	615.31
449.74	609.86
450.11	603.15
450.48	596.01
450.85	588.80
451.22	582.55
451.59	576.68
451.96	571.12
452.33	563.50
452.70	556.67
453.07	548.46
453.43	540.15
453.80	532.10
454.17	524.38
454.54	517.13
454.91	509.22
455.28	501.57
455.65	494.46
456.02	487.32
456.38	481.31
456.75	473.77
457.12	467.45
457.49	461.19
457.86	455.30
458.23	450.08
458.59	444.39
458.96	438.66
459.33	433.57
459.70	428.41
460.07	424.35
460.43	419.65
460.80	415.21
461.17	411.40
461.54	407.42
461.91	403.59
462.27	399.66
462.64	396.37
463.01	392.71
463.38	389.18
463.74	385.62
464.11	382.45
464.48	379.69
464.85	376.72
465.21	374.34
465.58	371.79
465.95	368.80
466.32	366.31
466.68	363.82
467.05	361.35
467.42	358.87
467.78	356.32
468.15	353.89
468.52	352.12
468.88	349.73
469.25	347.61
469.62	345.86
469.98	343.99
470.35	342.29
470.72	340.69
471.08	338.96
471.45	337.52
471.82	336.07
472.18	334.48
472.55	333.33
472.92	332.02
473.28	330.83
473.65	329.74
474.02	328.65
474.38	327.78
474.75	327.04
475.11	326.27
475.48	325.71
475.85	325.26
476.21	324.82
476.58	324.46
476.94	324.24
477.31	323.98
477.67	323.73
478.04	323.60
478.41	323.60
478.77	323.79
479.14	323.78
479.50	323.95
479.87	324.29
480.23	324.66
480.60	324.98
480.96	325.32
481.33	325.92
481.69	326.50
482.06	327.08
482.42	327.60
482.79	328.21
483.15	329.01
483.52	330.00
483.88	330.86
484.25	331.84
484.61	332.84
484.98	333.93
485.34	335.23
485.71	336.61
486.07	338.06
486.44	339.38
486.80	340.98
487.17	342.66
487.53	344.46
487.90	346.28
488.26	348.29
488.62	350.43
488.99	352.41
489.35	354.62
489.72	356.99
490.08	359.47
490.44	362.07
490.81	364.81
491.17	367.51
491.54	370.54
491.90	373.58
492.26	376.81
492.63	380.20
492.99	383.73
493.36	387.38
493.72	391.18
494.08	395.20
494.45	399.39
494.81	403.71
495.17	408.11
495.54	412.81
495.90	417.55
496.26	422.45
496.63	427.68
496.99	433.01
497.35	438.56
497.72	444.35
498.08	450.25
498.44	456.27
498.80	462.67
499.17	469.14
499.53	475.82
499.89	482.72
500.26	489.62
500.62	496.65
500.98	504.05
501.34	511.54
501.71	519.33
502.07	527.07
502.43	535.10
502.79	543.21
503.16	551.63
503.52	560.21
503.88	568.91
504.24	577.80
504.60	586.78
504.97	595.94
505.33	605.29
505.69	614.98
506.05	624.83
506.41	634.56
506.78	644.50
507.14	654.75
507.50	665.17
507.86	675.82
508.22	686.64
508.59	697.19
508.95	708.20
509.31	719.40
509.67	730.78
510.03	742.19
510.39	754.04
510.75	765.83
511.12	777.72
511.48	789.70
511.84	801.90
512.20	814.23
512.56	826.87
512.92	839.42
513.28	852.15
513.64	864.78
514.00	877.59
514.37	890.46
514.73	903.44
515.09	916.30
515.45	929.06
515.81	941.91
516.17	955.28
516.53	968.37
516.89	981.32
517.25	994.47
517.61	1007.76
517.97	1020.83
518.33	1033.83
518.69	1047.21
519.05	1060.78
519.41	1074.29
519.77	1088.08
520.13	1101.17
520.49	1114.24
520.85	1127.41
521.21	1140.59
521.57	1153.96
521.93	1166.95
522.29	1180.45
522.65	1193.85
523.01	1207.25
523.37	1220.18
523.73	1233.12
524.09	1246.05
524.45	1259.28
524.81	1272.43
525.17	1285.52
525.53	1298.49
525.89	1311.51
526.25	1324.33
526.61	1336.96
526.97	1349.77
527.33	1362.30
527.68	1375.45
528.04	1388.70
528.40	1401.48
528.76	1414.49
529.12	1427.11
529.48	1440.09
529.84	1452.05
530.20	1464.47
530.56	1476.87
530.91	1489.82
531.27	1502.44
531.63	1515.03
531.99	1527.39
532.35	1539.41
532.71	1551.48
533.07	1564.01
533.42	1575.85
533.78	1587.70
534.14	1599.59
534.50	1610.67
534.86	1621.95
535.21	1632.60
535.57	1643.77
535.93	1654.92
536.29	1665.83
536.65	1677.06
537.00	1687.86
537.36	1699.01
537.72	1709.75
538.08	1720.77
538.44	1731.41
538.79	1742.13
539.15	1752.50
539.51	1762.89
539.87	1773.88
540.22	1784.45
540.58	1794.98
540.94	1805.62
541.29	1815.63
541.65	1825.13
542.01	1835.31
542.37	1845.16
542.72	1855.04
543.08	1864.44
543.44	1874.37
543.79	1883.36
544.15	1892.55
544.51	1902.23
544.87	1911.86
545.22	1920.79
545.58	1929.32
545.94	1937.94
546.29	1946.31
546.65	1954.52
547.01	1962.55
547.36	1969.92
547.72	1977.44
548.07	1984.95
548.43	1992.37
548.79	2000.08
549.14	2007.79
549.50	2015.89
549.86	2023.38
550.21	2030.53
550.57	2038.12
550.92	2044.80
551.28	2052.09
551.64	2059.14
551.99	2066.46
552.35	2073.36
552.70	2080.10
553.06	2086.52
553.41	2092.60
553.77	2098.78
554.13	2105.02
554.48	2111.82
554.84	2118.72
555.19	2125.05
555.55	2131.48
555.90	2137.78
556.26	2144.22
556.61	2150.07
556.97	2154.70
557.32	2160.62
557.68	2166.97
558.03	2172.59
558.39	2177.79
558.74	2183.73
559.10	2189.17
559.45	2194.49
559.81	2200.09
560.16	2205.58
560.52	2211.64
560.87	2218.09
561.23	2224.24
561.58	2230.83
561.94	2236.08
562.29	2240.99
562.64	2247.31
563.00	2252.81
563.35	2258.42
563.71	2264.42
564.06	2270.08
564.42	2276.26
564.77	2281.35
565.12	2286.53
565.48	2291.85
565.83	2297.49
566.19	2303.04
566.54	2308.60
566.89	2313.41
567.25	2317.82
567.60	2323.49
567.96	2328.66
568.31	2333.28
568.66	2337.45
569.02	2341.33
569.37	2345.23
569.72	2349.63
570.08	2353.09
570.43	2356.23
570.78	2359.22
571.14	2361.81
571.49	2365.16
571.84	2368.76
572.20	2371.63
572.55	2374.80
572.90	2376.89
573.26	2379.96
573.61	2382.43
573.96	2384.78
574.31	2386.82
574.67	2388.99
575.02	2390.10
575.37	2391.62
575.72	2392.67
576.08	2394.31
576.43	2394.67
576.78	2395.57
577.13	2397.47
577.49	2398.70
577.84	2400.14
578.19	2401.83
578.54	2402.81
578.90	2403.98
579.25	2403.94
579.60	2404.27
579.95	2403.84
580.30	2404.46
580.66	2403.83
581.01	2402.28
581.36	2400.31
581.71	2399.17
582.06	2398.36
582.42	2397.59
582.77	2395.63
583.12	2394.16
583.47	2393.07
583.82	2392.86
584.17	2391.61
584.53	2389.53
584.88	2387.57
585.23	2385.65
585.58	2383.56
585.93	2381.40
586.28	2379.41
586.63	2377.33
586.98	2375.27
587.34	2373.57
587.69	2371.39
588.04	2369.62
588.39	2368.46
588.74	2365.93
589.09	2363.45
589.44	2360.45
589.79	2358.19
590.14	2356.61
590.49	2353.83
590.84	2350.39
591.19	2347.60
591.54	2344.50
591.89	2340.58
592.25	2337.66
592.60	2333.88
592.95	2329.98
593.30	2326.07
593.65	2321.66
594.00	2317.45
594.35	2314.58
594.70	2309.87
595.05	2305.30
595.40	2299.95
595.75	2294.49
596.10	2291.02
596.45	2286.29
596.80	2281.90
597.15	2276.82
597.50	2271.06
597.85	2266.22
598.19	2260.96
598.54	2255.20
598.89	2250.33
599.24	2245.90
599.59	2239.88
599.94	2234.24
600.29	2228.38
600.64	2222.59
600.99	2216.06
601.34	2210.76
601.69	2203.76
602.04	2197.60
602.39	2191.21
602.74	2185.23
603.08	2179.72
603.43	2173.19
603.78	2166.48
604.13	2159.41
604.48	2152.29
604.83	2146.22
605.18	2140.06
605.53	2133.20
605.87	2126.32
606.22	2119.45
606.57	2111.68
606.92	2103.89
607.27	2096.98
607.62	2090.47
607.96	2083.46
608.31	2077.02
608.66	2069.16
609.01	2061.65
609.36	2054.46
609.70	2046.78
610.05	2039.18
610.40	2030.91
610.75	2022.80
611.10	2015.14
611.44	2006.41
611.79	1997.61
612.14	1987.66
612.49	1977.24
612.83	1968.01
613.18	1958.77
613.53	1949.47
613.88	1940.04
614.22	1931.45
614.57	1921.65
614.92	1911.19
615.27	1901.12
615.61	1891.05
615.96	1881.53
616.31	1872.02
616.65	1862.82
617.00	1852.88
617.35	1843.18
617.70	1833.51
618.04	1823.47
618.39	1813.17
618.74	1803.60
619.08	1794.12
619.43	1785.36
619.78	1777.11
620.12	1768.36
620.47	1758.54
620.82	1748.13
621.16	1738.27
621.51	1728.21
621.85	1718.25
622.20	1707.70
622.55	1697.15
622.89	1687.35
623.24	1677.54
623.59	1667.76
623.93	1657.53
624.28	1647.85
624.62	1637.65
624.97	1627.44
625.32	1617.71
625.66	1609.00
626.01	1600.05
626.35	1590.47
626.70	1580.34
627.04	1570.15
627.39	1560.27
627.73	1551.02
628.08	1542.04
628.43	1532.47
628.77	1523.28
629.12	1514.46
629.46	1506.58
629.81	1498.08
630.15	1488.37
630.50	1478.45
630.84	1467.98
631.19	1458.17
631.53	1448.77
631.88	1438.63
632.22	1428.51
632.57	1419.08
632.91	1408.85
633.26	1398.99
633.60	1389.54
633.95	1380.25
634.29	1370.91
634.64	1361.40
634.98	1351.48
635.32	1342.33
635.67	1333.66
636.01	1324.41
636.36	1314.53
636.70	1305.03
637.05	1295.71
637.39	1286.80
637.73	1278.22
638.08	1270.57
638.42	1262.12
638.77	1253.28
639.11	1245.08
639.45	1237.24
639.80	1228.58
640.14	1219.91
640.49	1211.07
640.83	1202.24
641.17	1194.15
641.52	1185.87
641.86	1177.18
642.20	1169.35
642.55	1160.62
642.89	1151.91
643.23	1143.20
643.58	1135.03
643.92	1125.89
644.26	1117.25
644.61	1108.79
644.95	1100.02
645.29	1090.73
645.64	1081.70
645.98	1073.39
646.32	1065.30
646.66	1056.81
647.01	1048.48
647.35	1040.26
647.69	1031.90
648.04	1023.59
648.38	1014.55
648.72	1005.81
649.06	997.47
649.41	989.29
649.75	981.35
650.09	973.49
650.43	965.51
650.78	957.34
651.12	949.82
651.46	942.42
651.80	935.17
652.14	927.88
652.49	920.40
652.83	913.02
653.17	905.26
653.51	897.70
653.85	890.44
654.20	883.14
654.54	875.59
654.88	868.39
655.22	861.25
655.56	854.42
655.90	847.63
656.25	840.95
656.59	833.91
656.93	826.89
657.27	819.73
657.61	812.81
657.95	806.74
658.29	800.80
658.64	794.70
658.98	788.31
659.32	781.80
659.66	775.61
660.00	769.29
660.34	763.31
660.68	757.25
661.02	750.99
661.36	745.20
661.70	739.55
662.05	733.96
662.39	728.54
662.73	723.20
663.07	717.87
663.41	712.34
663.75	706.83
664.09	701.29
664.43	695.90
664.77	690.58
665.11	684.77
665.45	678.87
665.79	673.13
666.13	667.44
666.47	662.03
666.81	656.87
667.15	651.62
667.49	646.50
667.83	641.34
668.17	636.23
668.51	631.08
668.85	626.21
669.19	621.36
669.53	616.41
669.87	611.38
670.21	606.73
670.55	601.97
670.89	597.56
671.23	593.36
671.57	589.10
671.91	584.85
672.25	580.75
672.58	576.72
672.92	572.71
673.26	568.84
673.60	565.03
673.94	561.09
674.28	557.47
674.62	553.72
674.96	550.03
675.30	546.47
675.64	542.94
675.97	539.41
676.31	535.81
676.65	532.22
676.99	528.82
677.33	525.02
677.67	521.45
678.01	517.67
678.34	513.99
678.68	510.45
679.02	506.91
679.36	503.29
679.70	499.73
680.04	496.24
680.37	492.87
680.71	489.59
681.05	486.43
681.39	483.31
681.73	480.21
682.06	477.26
682.40	474.24
682.74	471.05
683.08	467.88
683.42	464.81
683.75	461.90
684.09	458.93
684.43	456.13
684.77	453.28
685.10	450.52
685.44	447.68
685.78	444.84
686.12	442.17
686.45	439.49
686.79	436.86
687.13	434.39
687.46	431.80
687.80	429.11
688.14	426.32
688.48	423.73
688.81	421.10
689.15	418.56
689.49	416.00
689.82	413.55
690.16	410.97
690.50	408.53
690.83	406.02
691.17	403.52
691.51	401.14
691.84	398.97
692.18	396.70
692.52	394.49
692.85	392.43
693.19	390.29
693.52	388.14
693.86	385.99
694.20	383.81
694.53	381.78
694.87	379.66
695.21	377.61
695.54	375.48
695.88	373.40
696.21	371.21
696.55	369.14
696.88	367.09
697.22	365.23
697.56	363.37
697.89	361.59
698.23	359.89
698.56	358.12
698.90	356.35
699.23	354.50
699.57	352.71
699.90	350.87
700.24	349.12
700.58	347.45
700.91	345.82
701.25	344.28
701.58	342.65
701.92	341.12
702.25	339.54
702.59	337.96
702.92	336.43
703.26	334.93
703.59	333.52
703.93	332.33
704.26	330.93
704.60	329.44
704.93	327.97
705.26	326.49
705.60	325.07
705.93	323.64
706.27	322.39
706.60	321.16
706.94	319.95
707.27	318.58
707.61	317.24
707.94	315.92
708.27	314.45
708.61	313.07
708.94	311.75
709.28	310.48
709.61	309.29
709.94	308.16
710.28	307.00
710.61	305.76
710.95	304.32
711.28	303.24
711.61	302.08
711.95	300.98
712.28	299.84
712.61	298.70
712.95	297.69
713.28	296.68
713.61	295.54
713.95	294.43
714.28	293.44
714.61	292.41
714.95	291.41
715.28	290.41
715.61	289.41
715.95	288.46
716.28	287.51
716.61	286.56
716.95	285.59
717.28	284.70
717.61	283.85
717.94	283.03
718.28	282.04
718.61	281.25
718.94	280.38
719.27	279.53
719.61	278.72
719.94	277.80
720.27	276.87
720.60	276.01
720.94	275.23
721.27	274.48
721.60	273.83
721.93	273.17
722.27	272.53
722.60	271.88
722.93	271.18
723.26	270.57
723.59	269.88
723.93	269.21
724.26	268.53
724.59	267.89
724.92	267.29
725.25	266.78
725.59	266.22
725.92	265.69
726.25	265.15
726.58	264.55
726.91	264.00
727.24	263.46
727.57	262.96
727.91	262.37
728.24	261.89
728.57	261.33
728.90	260.78
729.23	260.21
729.56	259.79
729.89	259.27
730.22	258.73
730.55	258.23
730.89	257.73
731.22	257.22
731.55	256.68
731.88	256.18
732.21	255.63
732.54	255.05
732.87	254.54
733.20	254.09
733.53	253.65
733.86	253.22
734.19	252.75
734.52	252.34
734.85	252.08
735.18	251.59
735.51	251.19
735.84	250.75
736.17	250.41
736.50	249.90
736.83	249.78
737.16	249.39
737.49	249.02
737.82	248.62
738.15	248.29
738.48	247.96
738.81	247.57
739.14	247.17
739.47	246.81
739.80	246.45
740.13	246.07
740.46	245.69
740.79	245.27
741.12	244.93
741.45	244.58
741.78	244.12
742.11	243.86
742.44	243.50
742.77	243.23
743.10	242.85
743.43	242.52
743.75	241.92
744.08	241.83
744.41	241.47
744.74	241.17
745.07	240.80
745.40	240.49
745.73	240.27
746.06	239.96
746.39	239.66
746.71	239.33
747.04	239.00
747.37	238.71
747.70	238.45
748.03	238.19
748.36	237.93
748.68	237.61
749.01	237.28
749.34	236.97
749.67	236.65
750.00	236.42
750.33	236.30
750.65	236.08
750.98	235.57
751.31	235.33
751.64	235.14
751.97	235.01
752.29	234.75
752.62	234.39
752.95	234.13
753.28	233.87
753.60	233.63
753.93	233.49
754.26	233.30
754.59	233.06
754.91	232.82
755.24	232.56
755.57	232.34
755.90	232.10
756.22	231.89
756.55	231.64
756.88	231.38
757.20	231.01
757.53	230.73
757.86	230.53
758.19	230.36
758.51	230.12
758.84	229.80
759.17	229.59
759.49	229.41
759.82	229.36
760.15	229.23
760.47	229.05
760.80	228.78
761.13	228.61
761.45	228.38
761.78	228.20
762.11	228.02
762.43	227.85
762.76	227.67
763.08	227.52
763.41	227.39
763.74	227.28
764.06	227.13
764.39	227.01
764.71	226.86
765.04	226.71
765.37	226.51
765.69	226.41
766.02	226.30
766.34	226.19
766.67	225.96
767.00	225.84
767.32	225.83
767.65	225.81
767.97	225.67
768.30	225.59
768.62	225.47
768.95	225.33
769.27	225.21
769.60	225.15
769.92	225.00
770.25	224.82
770.57	224.65
770.90	224.54
771.22	224.42
771.55	224.31
771.87	224.19
772.20	224.13
772.52	224.18
772.85	224.31
773.17	224.21
773.50	224.12
773.82	224.02
774.15	223.83
774.47	223.60
774.80	223.51
775.12	223.38
775.45	223.26
775.77	223.22
776.09	223.15
776.42	223.06
776.74	223.03
777.07	222.98
777.39	222.94
777.72	222.85
778.04	222.78
778.36	222.68
778.69	222.61
779.01	222.57
779.33	222.32
779.66	222.02
779.98	221.93
780.31	221.86
780.63	221.85
780.95	221.80
781.28	221.75
781.60	221.65
781.92	221.62
782.25	221.57
782.57	221.49
782.89	221.45
783.22	221.37
783.54	221.27
783.86	221.24
784.19	221.14
784.51	221.16
784.83	221.11
785.16	221.03
785.48	220.98
785.80	220.89
786.12	220.86
786.45	220.81
786.77	220.79
787.09	220.72
787.42	220.61
787.74	220.57
788.06	220.55
788.38	220.52
788.71	220.45
789.03	220.41
789.35	220.41
789.67	220.30
789.99	220.27
790.32	220.21
790.64	220.16
790.96	220.29
791.28	220.17
791.61	220.09
791.93	220.05
792.25	219.99
792.57	220.10
792.89	220.02
793.21	219.99
793.54	219.92
793.86	219.88
794.18	219.83
794.50	219.72
794.82	219.67
795.14	219.64
795.47	219.63
795.79	219.57
796.11	219.46
796.43	219.42
796.75	219.38
797.07	219.34
797.39	219.31
797.71	219.11
798.04	219.09
798.36	219.08
798.68	219.07
799.00	219.05
799.32	218.90
799.64	218.89
799.96	218.82
800.28	218.82
800.60	218.75
800.92	218.73
801.24	218.70
801.56	218.67
801.89	218.62
802.21	218.57
802.53	218.53
802.85	218.53
803.17	218.56
803.49	218.52
803.81	218.46
804.13	218.44
804.45	218.39
804.77	218.40
805.09	218.36
805.41	218.30
805.73	218.24
806.05	218.14
806.37	218.08
806.69	218.03
807.01	217.97
807.33	217.97
807.65	217.87
807.97	217.96
808.28	217.90
808.60	217.88
808.92	217.83
809.24	217.91
809.56	217.84
809.88	217.78
810.20	217.77
810.52	217.76
810.84	217.69
811.16	217.65
811.48	217.59
811.80	217.63
812.12	217.59
812.43	217.61
812.75	217.59
813.07	217.59
813.39	217.59
813.71	217.56
814.03	217.52
814.35	217.53
814.67	217.40
814.98	217.40
815.30	217.35
815.62	217.30
815.94	217.15
816.26	217.15
816.58	217.10
816.89	217.04
817.21	217.00
817.53	216.99
817.85	216.95
818.17	216.90
818.48	216.81
818.80	216.83
819.12	216.79
819.44	216.77
819.76	216.71
820.07	216.68
820.39	216.63
820.71	216.62
821.03	216.59
821.34	216.55
821.66	216.51
821.98	216.55
822.30	216.53
822.61	216.63
822.93	216.57
823.25	216.55
823.57	216.53
823.88	216.55
824.20	216.54
824.52	216.56
824.83	216.53
825.15	216.52
825.47	216.49
825.79	216.50
826.10	216.45
826.42	216.44
826.74	216.48
827.05	216.48
827.37	216.47
827.69	216.44
828.00	216.47
828.32	216.49
828.64	216.42
828.95	216.53
829.27	216.48
829.58	216.50
829.90	216.52
830.22	216.51
830.53	216.46
830.85	216.44
831.17	216.38
831.48	216.39
831.80	216.37
832.11	216.34
832.43	216.30
832.75	216.31
833.06	216.42
833.38	216.33
833.69	216.31
834.01	216.29
834.32	216.29
834.64	216.25
834.96	216.25
835.27	216.25
835.59	216.18
835.90	216.13
836.22	216.12
836.53	216.09
836.85	216.08
837.16	216.28
837.48	216.28
837.79	216.33
838.11	216.37
838.42	216.37
838.74	216.41
839.05	216.39
839.37	216.35
839.68	216.24
840.00	216.24
840.31	216.27
840.63	216.25
840.94	216.21
841.26	216.18
841.57	216.15
841.88	216.17
842.20	216.10
842.51	216.08
842.83	216.06
843.14	216.22
843.46	216.22
843.77	216.07
844.08	216.04
844.40	215.99
844.71	215.95
845.03	215.91
845.34	215.83
845.65	215.83
845.97	215.85
846.28	215.83
846.60	215.83
846.91	215.76
847.22	215.76
847.54	215.82
847.85	215.89
848.16	215.86
848.48	215.80
848.79	215.90
849.10	215.91
849.42	215.93
849.73	215.72
850.04	215.68
850.36	215.61
850.67	215.65
850.98	215.65
851.30	215.67
851.61	215.65
851.92	215.66
852.23	215.70
852.55	215.71
852.86	215.70
853.17	215.72
853.49	215.78
853.80	215.78
854.11	215.76
854.42	215.70
854.74	215.69
855.05	215.71
855.36	215.62
855.67	215.64
855.99	215.64
856.30	215.87
856.61	215.89
856.92	215.89
857.23	215.89
857.55	215.85
857.86	215.82
858.17	215.87
858.48	215.85
858.79	215.81
859.11	215.79
859.42	215.78
859.73	215.75
860.04	215.73
860.35	215.67
860.66	215.63
860.98	215.66
861.29	215.68
861.60	215.64
861.91	215.68
862.22	215.59
862.53	215.57
862.84	215.34
863.16	215.37
863.47	215.34
863.78	215.31
864.09	215.36
864.40	215.34
864.71	215.28
865.02	215.28
865.33	215.25
865.64	215.23
865.95	215.21
866.27	215.38
866.58	215.37
866.89	215.38
867.20	215.38
867.51	215.35
867.82	215.34
868.13	215.43
868.44	215.37
868.75	215.45
869.06	215.48
869.37	215.50
869.68	215.41
869.99	215.46
870.30	215.48
870.61	215.50
870.92	215.48
871.23	215.52
871.54	215.55
871.85	215.60
872.16	215.63
872.47	215.58
872.78	215.43
873.09	215.43
873.40	215.42
873.71	215.42
874.02	215.43
874.33	215.40
874.64	215.34
874.95	215.37
875.26	215.32
875.56	215.28
875.87	215.29
876.18	215.28
876.49	215.49
876.80	215.45
877.11	215.38
877.42	215.41
877.73	215.39
878.04	215.37
878.35	215.37
878.66	215.40
878.96	215.46
879.27	215.47
879.58	215.46
879.89	215.48
880.20	215.54
880.51	215.52
880.82	215.52
881.12	215.50
881.43	215.47
881.74	215.43
882.05	215.42
882.36	215.44
882.67	215.47
882.97	215.23
883.28	215.22
883.59	215.23
883.90	215.21
884.21	215.27
884.51	215.25
884.82	215.21
885.13	215.20
885.44	215.14
885.74	215.14
886.05	215.16
886.36	215.11
886.67	215.06
886.98	215.15
887.28	215.18
887.59	215.18
887.90	215.18
888.20	215.18
888.51	215.24
888.82	215.18
889.13	215.22
889.43	215.39
889.74	215.39
890.05	215.37
890.35	215.36
890.66	215.30
890.97	215.27
891.28	215.26
891.58	215.23
891.89	215.28
892.20	215.23
892.50	215.21
892.81	215.22
893.12	215.23
893.42	215.14
893.73	215.13
894.04	215.17
894.34	215.18
894.65	215.17
894.95	215.14
895.26	215.16
895.57	215.23
895.87	215.04
896.18	215.07
896.48	215.12
896.79	215.15
897.10	215.19
897.40	215.22
897.71	215.26
898.01	215.26
898.32	215.25
898.63	215.23
898.93	215.23
899.24	215.26
899.54	215.25
899.85	215.28
900.15	215.30
900.46	215.31
900.76	215.34
901.07	215.35
901.38	215.35
901.68	215.37
901.99	215.28
902.29	215.30
902.60	215.28
902.90	215.23
903.21	215.24
903.51	215.21
903.82	215.24
904.12	215.25
904.43	215.26
904.73	215.25
905.03	215.28
905.34	215.49
905.64	215.48
905.95	215.45
906.25	215.43
906.56	215.39
906.86	215.32
907.17	215.32
907.47	215.33
907.77	215.31
908.08	215.26
908.38	215.28
908.69	215.29
908.99	215.34
909.30	215.34
909.60	215.32
909.90	215.37
910.21	215.33
910.51	215.29
910.81	215.30
911.12	215.32
911.42	215.33
911.73	215.10
912.03	215.10
912.33	215.16
912.64	215.14
912.94	215.15
913.24	215.13
913.55	215.11
913.85	215.09
914.15	215.16
914.46	215.17
914.76	215.14
915.06	215.11
915.37	215.07
915.67	215.05
915.97	215.07
916.27	215.00
916.58	215.04
916.88	215.05
917.18	215.02
917.49	215.16
917.79	215.18
918.09	215.20
918.39	215.22
918.70	215.19
919.00	215.19
919.30	215.26
919.60	215.27
919.91	215.22
920.21	215.28
920.51	215.19
920.81	215.19
921.12	215.24
921.42	215.25
921.72	215.26
922.02	215.26
922.32	215.27
922.63	215.28
922.93	215.35
923.23	215.36
923.53	215.34
923.83	215.19
924.13	215.18
924.44	215.18
924.74	215.27
925.04	215.35
925.34	215.34
925.64	215.25
925.94	215.25
926.24	215.35
926.55	215.30
926.85	215.34
927.15	215.34
927.45	215.33
927.75	215.36
928.05	215.35
928.35	215.38
928.65	215.40
928.95	215.37
929.26	215.30
929.56	215.37
929.86	215.41
930.16	215.42
930.46	215.42
930.76	215.44
931.06	215.31
931.36	215.23
931.66	215.26
931.96	215.29
932.26	215.30
932.56	215.20
932.86	215.20
933.16	215.22
933.46	215.20
933.76	215.15
934.06	215.21
934.36	215.27
934.66	215.24
934.96	215.24
935.26	215.30
935.56	215.29
935.86	215.20
936.16	215.12
936.46	215.08
936.76	215.04
937.06	214.99
937.36	215.00
937.66	215.03
937.96	215.02
938.26	214.99
938.56	214.98
938.86	215.03
939.16	215.10
939.46	215.13
939.76	215.15
940.06	215.15
940.35	215.08
940.65	214.98
940.95	214.99
941.25	214.93
941.55	214.90
941.85	214.89
942.15	214.91
942.45	214.99
942.75	215.01
943.04	215.02
943.34	215.08
943.64	215.07
943.94	215.01
944.24	215.00
944.54	215.01
944.84	214.98
945.13	214.94
945.43	214.89
945.73	214.85
946.03	214.83
946.33	214.80
946.62	214.78
946.92	214.78
947.22	214.79
947.52	214.82
947.82	214.82
948.11	214.82
948.41	214.79
948.71	214.72
949.01	214.71
949.31	214.66
949.60	214.65
949.90	214.70
950.20	214.67
950.50	214.65
950.79	214.61
951.09	214.68
951.39	214.65
951.69	214.61
951.98	214.64
952.28	214.68
952.58	214.68
952.87	214.68
953.17	214.72
953.47	214.70
953.76	214.67
954.06	214.63
954.36	214.59
954.66	214.59
954.95	214.64
955.25	214.65
955.55	214.71
955.84	214.68
956.14	214.66
956.44	214.70
956.73	214.68
957.03	214.70
957.32	214.70
957.62	214.73
957.92	214.76
958.21	214.76
958.51	214.98
958.81	215.00
959.10	215.02
959.40	215.06
959.69	215.06
959.99	215.07
960.29	215.07
960.58	215.05
960.88	215.16
961.17	215.16
961.47	215.18
961.76	215.12
962.06	215.18
962.36	215.13
962.65	215.15
962.95	215.17
963.24	215.18
963.54	215.19
963.83	215.24
964.13	215.25
964.42	215.21
964.72	215.04
965.01	215.03
965.31	215.00
965.60	214.94
965.90	215.06
966.19	215.04
966.49	215.05
966.78	215.08
967.08	215.04
967.37	215.03
967.67	214.99
967.96	215.05
968.26	215.01
968.55	215.07
968.85	215.03
969.14	215.02
969.43	215.01
969.73	214.95
970.02	214.91
970.32	214.89
970.61	214.89
970.91	214.81
971.20	214.77
971.49	214.78
971.79	214.81
972.08	214.68
972.38	214.70
972.67	214.69
972.96	214.72
973.26	214.67
973.55	214.77
973.85	214.75
974.14	214.76
974.43	214.77
974.73	214.73
975.02	214.72
975.31	214.72
975.61	214.70
975.90	214.73
976.19	214.70
976.49	214.71
976.78	214.70
977.07	214.72
977.37	214.76
977.66	214.74
977.95	214.72
978.24	214.75
978.54	214.79
978.83	214.78
979.12	214.77
979.42	214.78
979.71	214.69
980.00	214.71
980.29	214.66
980.59	214.60
980.88	214.66
981.17	214.68
981.46	214.68
981.76	214.70
982.05	214.71
982.34	214.72
982.63	214.70
982.93	214.67
983.22	214.70
983.51	214.70
983.80	214.76
984.09	214.75
984.39	214.75
984.68	214.71
984.97	214.71
985.26	214.69
985.55	214.70
985.85	214.65
986.14	214.66
986.43	214.72
986.72	214.75
987.01	214.65
987.30	214.65
987.59	214.65
987.89	214.66
988.18	214.60
988.47	214.62
988.76	214.63
989.05	214.64
989.34	214.64
989.63	214.71
989.92	214.66
990.22	214.67
990.51	214.66
990.80	214.68
991.09	214.69
991.38	214.70
991.67	214.68
991.96	214.69
992.25	214.71
992.54	214.63
992.83	214.64
993.12	214.66
993.41	214.68
993.70	214.78
993.99	214.83
994.28	214.87
994.58	214.88
994.87	214.86
995.16	214.89
995.45	214.86
995.74	214.75
996.03	214.80
996.32	214.81
996.61	214.86
996.90	214.84
997.19	214.85
997.48	214.85
997.77	214.84
998.06	214.86
998.34	214.83
998.63	214.85
998.92	214.88
999.21	214.90
999.50	214.93
999.79	214.85
1000.08	214.83
1000.37	214.83
1000.66	214.83
1000.95	214.88
1001.24	214.88
1001.53	214.92
1001.82	214.92
1002.11	214.86
1002.40	214.89
1002.68	214.93
1002.97	215.08
1003.26	215.06
1003.55	215.01
1003.84	215.02
1004.13	215.07
1004.42	215.09
1004.71	215.07
1004.99	215.04
1005.28	215.11
1005.57	215.06
1005.86	215.06
1006.15	215.03
1006.44	215.04
1006.72	215.02
1007.01	214.99
1007.30	214.97
1007.59	214.96
1007.88	214.99
1008.17	215.01
1008.45	214.98
1008.74	214.88
1009.03	214.80
1009.32	214.79
1009.60	214.79
1009.89	214.77
1010.18	214.71
1010.47	214.69
1010.76	214.68
1011.04	214.67
1011.33	214.68
1011.62	214.72
1011.91	214.69
1012.19	214.69
1012.48	214.68
1012.77	214.69
1013.05	214.76
1013.34	214.76
1013.63	214.72
1013.92	214.74
1014.20	214.69
1014.49	214.68
1014.78	214.69
1015.06	214.62
1015.35	214.63
1015.64	214.69
1015.92	214.74
1016.21	214.72
1016.50	214.71
1016.78	214.74
1017.07	214.77
1017.36	214.69
1017.64	214.65
1017.93	214.67
1018.22	214.66
1018.50	214.64
1018.79	214.68
1019.08	214.58
1019.36	214.58
1019.65	214.57
1019.93	214.58
1020.22	214.62
1020.51	214.75
1020.79	214.73
1021.08	214.09
1021.36	214.54
1021.65	215.38
1021.94	214.29
1022.22	214.71
1022.51	214.27
1022.79	215.13
1023.08	214.84
1023.36	217.35
1023.65	214.36
>>>>>End Processed Spectral Data<<<<<
