SpectraSuite Data File
++++++++++++++++++++++++++++++++++++
Date: Tue Jan 29 15:57:57 EST 2013
User: group
Dark Spectrum Present: No
Reference Spectrum Present: No
Number of Sampled Component Spectra: 1
Spectrometers: USB2E7196
Integration Time (usec): 65000 (USB2E7196)
Spectra Averaged: 100 (USB2E7196)
Boxcar Smoothing: 10 (USB2E7196)
Correct for Electrical Dark: No (USB2E7196)
Strobe/Lamp Enabled: No (USB2E7196)
Correct for Detector Non-linearity: No (USB2E7196)
Correct for Stray Light: No (USB2E7196)
Number of Pixels in Processed Spectrum: 2048
>>>>>Begin Processed Spectral Data<<<<<
339.09	0.00
339.48	203.05
339.86	204.86
340.24	205.98
340.63	206.84
341.01	211.21
341.39	210.07
341.78	211.21
342.16	212.92
342.54	213.20
342.93	202.13
343.31	212.32
343.69	212.86
344.07	213.30
344.46	213.75
344.84	214.16
345.22	214.33
345.60	214.59
345.99	214.81
346.37	214.94
346.75	215.05
347.13	215.12
347.52	215.20
347.90	215.34
348.28	215.37
348.66	215.43
349.05	215.40
349.43	215.48
349.81	215.58
350.19	215.61
350.57	215.65
350.96	215.75
351.34	215.86
351.72	215.95
352.10	216.06
352.48	216.12
352.87	216.16
353.25	216.24
353.63	216.31
354.01	216.35
354.39	216.42
354.77	216.47
355.15	216.61
355.54	216.66
355.92	216.65
356.30	216.71
356.68	216.91
357.06	217.02
357.44	217.02
357.82	217.06
358.20	217.16
358.58	217.20
358.97	217.23
359.35	217.34
359.73	217.41
360.11	217.46
360.49	217.54
360.87	217.59
361.25	217.66
361.63	217.77
362.01	217.84
362.39	217.86
362.77	217.93
363.15	217.94
363.53	218.00
363.91	218.05
364.29	218.10
364.67	217.96
365.05	217.97
365.43	218.00
365.81	218.04
366.19	218.15
366.57	218.24
366.95	218.23
367.33	218.17
367.71	218.20
368.09	218.25
368.47	218.21
368.85	218.22
369.23	218.24
369.61	218.14
369.99	218.19
370.37	218.21
370.75	218.26
371.13	218.19
371.51	218.11
371.89	218.05
372.27	218.01
372.65	217.98
373.03	217.95
373.41	217.92
373.78	217.86
374.16	217.72
374.54	217.62
374.92	217.56
375.30	217.53
375.68	217.42
376.06	217.38
376.44	217.36
376.82	217.32
377.19	217.29
377.57	217.27
377.95	217.16
378.33	217.10
378.71	216.93
379.09	216.92
379.47	216.91
379.84	216.87
380.22	216.82
380.60	216.72
380.98	216.65
381.36	216.60
381.73	216.54
382.11	216.55
382.49	216.51
382.87	216.48
383.25	216.46
383.62	216.65
384.00	216.58
384.38	216.52
384.76	216.53
385.13	216.56
385.51	216.49
385.89	216.43
386.27	216.41
386.64	216.44
387.02	216.41
387.40	216.38
387.78	216.36
388.15	216.38
388.53	216.37
388.91	216.38
389.29	216.36
389.66	216.38
390.04	216.33
390.42	216.35
390.79	216.37
391.17	216.34
391.55	216.14
391.92	216.13
392.30	216.15
392.68	216.09
393.05	216.04
393.43	216.04
393.81	216.09
394.18	216.05
394.56	216.04
394.94	216.09
395.31	216.08
395.69	216.15
396.06	216.17
396.44	216.21
396.82	216.18
397.19	216.30
397.57	216.30
397.95	216.38
398.32	216.37
398.70	216.40
399.07	216.48
399.45	216.51
399.82	216.53
400.20	216.54
400.58	216.59
400.95	216.57
401.33	216.67
401.70	216.85
402.08	216.95
402.45	217.04
402.83	217.15
403.20	217.26
403.58	217.31
403.95	217.48
404.33	217.63
404.71	217.76
405.08	217.99
405.46	218.14
405.83	218.30
406.21	218.48
406.58	218.72
406.96	218.94
407.33	219.18
407.70	219.49
408.08	219.95
408.45	220.31
408.83	220.74
409.20	221.07
409.58	221.34
409.95	221.77
410.33	222.24
410.70	222.66
411.08	223.19
411.45	223.77
411.82	224.29
412.20	224.94
412.57	225.78
412.95	226.34
413.32	227.17
413.69	227.97
414.07	228.86
414.44	229.78
414.82	230.74
415.19	231.90
415.56	233.01
415.94	234.14
416.31	235.48
416.68	236.81
417.06	238.33
417.43	239.83
417.81	241.49
418.18	243.16
418.55	244.99
418.93	246.94
419.30	248.98
419.67	251.09
420.04	253.29
420.42	255.57
420.79	258.28
421.16	260.96
421.54	263.76
421.91	266.61
422.28	269.60
422.66	272.80
423.03	275.92
423.40	279.19
423.77	282.66
424.15	286.18
424.52	289.88
424.89	293.93
425.26	297.85
425.64	301.63
426.01	305.74
426.38	310.04
426.75	314.45
427.13	319.01
427.50	323.80
427.87	328.80
428.24	333.78
428.61	338.54
428.99	343.84
429.36	349.61
429.73	355.25
430.10	360.88
430.47	366.67
430.85	372.70
431.22	379.11
431.59	385.92
431.96	392.44
432.33	399.67
432.70	406.63
433.08	414.80
433.45	422.51
433.82	430.23
434.19	438.79
434.56	447.15
434.93	455.11
435.30	463.06
435.68	471.79
436.05	480.44
436.42	489.08
436.79	496.94
437.16	505.39
437.53	514.35
437.90	523.16
438.27	531.78
438.64	540.74
439.01	548.96
439.38	556.26
439.75	563.39
440.13	571.49
440.50	579.14
440.87	585.33
441.24	591.73
441.61	598.82
441.98	604.04
442.35	610.06
442.72	616.19
443.09	621.99
443.46	625.61
443.83	628.00
444.20	630.02
444.57	632.97
444.94	634.33
445.31	635.68
445.68	636.97
446.05	637.58
446.42	636.69
446.79	635.73
447.16	634.66
447.53	633.84
447.90	630.58
448.27	627.36
448.64	622.87
449.01	619.65
449.37	613.91
449.74	608.39
450.11	601.79
450.48	594.63
450.85	587.42
451.22	581.18
451.59	575.28
451.96	569.64
452.33	562.08
452.70	555.24
453.07	547.10
453.43	538.90
453.80	530.90
454.17	523.27
454.54	516.02
454.91	508.19
455.28	500.55
455.65	493.47
456.02	486.31
456.38	480.27
456.75	472.81
457.12	466.56
457.49	460.31
457.86	454.41
458.23	449.25
458.59	443.68
458.96	437.95
459.33	432.88
459.70	427.79
460.07	423.76
460.43	419.09
460.80	414.71
461.17	410.87
461.54	406.87
461.91	403.01
462.27	399.09
462.64	395.78
463.01	392.16
463.38	388.59
463.74	385.05
464.11	381.92
464.48	379.15
464.85	376.19
465.21	373.90
465.58	371.37
465.95	368.35
466.32	365.80
466.68	363.30
467.05	360.85
467.42	358.41
467.78	355.84
468.15	353.41
468.52	351.60
468.88	349.20
469.25	347.10
469.62	345.38
469.98	343.52
470.35	341.83
470.72	340.25
471.08	338.53
471.45	337.17
471.82	335.77
472.18	334.18
472.55	333.03
472.92	331.71
473.28	330.58
473.65	329.54
474.02	328.53
474.38	327.67
474.75	326.98
475.11	326.22
475.48	325.69
475.85	325.27
476.21	324.79
476.58	324.49
476.94	324.30
477.31	324.04
477.67	323.86
478.04	323.74
478.41	323.72
478.77	323.93
479.14	323.87
479.50	324.03
479.87	324.32
480.23	324.69
480.60	324.98
480.96	325.28
481.33	325.92
481.69	326.49
482.06	327.07
482.42	327.57
482.79	328.18
483.15	329.04
483.52	329.99
483.88	330.94
484.25	331.87
484.61	332.89
484.98	333.98
485.34	335.35
485.71	336.70
486.07	338.09
486.44	339.38
486.80	340.99
487.17	342.65
487.53	344.47
487.90	346.26
488.26	348.30
488.62	350.41
488.99	352.41
489.35	354.56
489.72	356.92
490.08	359.42
490.44	361.99
490.81	364.66
491.17	367.39
491.54	370.36
491.90	373.48
492.26	376.70
492.63	380.06
492.99	383.49
493.36	387.17
493.72	391.09
494.08	395.14
494.45	399.34
494.81	403.67
495.17	408.12
495.54	412.81
495.90	417.64
496.26	422.60
496.63	427.83
496.99	433.19
497.35	438.79
497.72	444.57
498.08	450.45
498.44	456.53
498.80	462.93
499.17	469.37
499.53	476.03
499.89	482.90
500.26	489.92
500.62	497.00
500.98	504.38
501.34	511.80
501.71	519.53
502.07	527.30
502.43	535.31
502.79	543.38
503.16	551.76
503.52	560.25
503.88	568.88
504.24	577.79
504.60	586.86
504.97	596.08
505.33	605.35
505.69	615.23
506.05	625.09
506.41	634.91
506.78	644.98
507.14	655.20
507.50	665.61
507.86	676.26
508.22	686.98
508.59	697.63
508.95	708.74
509.31	720.05
509.67	731.48
510.03	742.90
510.39	754.65
510.75	766.54
511.12	778.42
511.48	790.54
511.84	802.71
512.20	814.93
512.56	827.33
512.92	840.06
513.28	852.63
513.64	865.31
514.00	877.97
514.37	890.73
514.73	903.63
515.09	916.46
515.45	929.18
515.81	941.99
516.17	955.18
516.53	968.17
516.89	981.02
517.25	993.97
517.61	1007.27
517.97	1020.43
518.33	1033.34
518.69	1046.71
519.05	1060.18
519.41	1073.67
519.77	1087.40
520.13	1100.58
520.49	1113.51
520.85	1126.64
521.21	1139.72
521.57	1153.21
521.93	1166.11
522.29	1179.70
522.65	1193.21
523.01	1206.56
523.37	1219.58
523.73	1232.59
524.09	1245.48
524.45	1258.71
524.81	1271.96
525.17	1285.17
525.53	1298.13
525.89	1311.17
526.25	1324.03
526.61	1336.55
526.97	1349.32
527.33	1361.91
527.68	1375.13
528.04	1388.33
528.40	1401.19
528.76	1414.18
529.12	1426.79
529.48	1439.71
529.84	1451.76
530.20	1464.00
530.56	1476.39
530.91	1489.37
531.27	1502.04
531.63	1514.57
531.99	1526.85
532.35	1538.78
532.71	1550.77
533.07	1563.17
533.42	1574.98
533.78	1586.67
534.14	1598.49
534.50	1609.35
534.86	1620.58
535.21	1631.05
535.57	1642.17
535.93	1653.25
536.29	1663.98
536.65	1675.04
537.00	1685.76
537.36	1696.69
537.72	1707.42
538.08	1718.31
538.44	1728.84
538.79	1739.45
539.15	1749.91
539.51	1760.32
539.87	1771.31
540.22	1781.69
540.58	1792.34
540.94	1802.89
541.29	1812.90
541.65	1822.29
542.01	1832.58
542.37	1842.35
542.72	1852.30
543.08	1861.74
543.44	1871.79
543.79	1880.95
544.15	1890.11
544.51	1899.88
544.87	1909.40
545.22	1918.17
545.58	1926.81
545.94	1935.30
546.29	1943.57
546.65	1951.58
547.01	1959.60
547.36	1967.03
547.72	1974.37
548.07	1981.67
548.43	1989.20
548.79	1996.75
549.14	2004.64
549.50	2012.58
549.86	2020.11
550.21	2027.14
550.57	2034.46
550.92	2040.99
551.28	2048.11
551.64	2055.19
551.99	2062.40
552.35	2069.46
552.70	2076.29
553.06	2082.80
553.41	2088.94
553.77	2095.21
554.13	2101.59
554.48	2108.49
554.84	2115.28
555.19	2121.76
555.55	2128.16
555.90	2134.19
556.26	2140.73
556.61	2146.45
556.97	2151.44
557.32	2157.17
557.68	2163.41
558.03	2169.21
558.39	2174.26
558.74	2180.18
559.10	2185.64
559.45	2191.06
559.81	2196.52
560.16	2202.01
560.52	2207.83
560.87	2214.28
561.23	2220.28
561.58	2226.71
561.94	2231.94
562.29	2236.82
562.64	2242.99
563.00	2248.47
563.35	2254.20
563.71	2260.10
564.06	2265.91
564.42	2271.97
564.77	2277.26
565.12	2282.47
565.48	2287.61
565.83	2293.24
566.19	2298.80
566.54	2304.26
566.89	2308.81
567.25	2313.36
567.60	2319.12
567.96	2324.46
568.31	2328.97
568.66	2333.19
569.02	2337.26
569.37	2340.90
569.72	2345.34
570.08	2348.97
570.43	2352.22
570.78	2355.33
571.14	2358.07
571.49	2361.26
571.84	2364.86
572.20	2367.78
572.55	2371.06
572.90	2373.38
573.26	2376.51
573.61	2379.03
573.96	2381.36
574.31	2383.69
574.67	2385.69
575.02	2386.71
575.37	2388.11
575.72	2389.16
576.08	2390.69
576.43	2391.03
576.78	2391.97
577.13	2393.83
577.49	2395.08
577.84	2396.52
578.19	2398.25
578.54	2399.29
578.90	2400.54
579.25	2400.53
579.60	2400.78
579.95	2400.38
580.30	2401.07
580.66	2400.38
581.01	2398.96
581.36	2397.00
581.71	2395.91
582.06	2395.27
582.42	2394.61
582.77	2392.77
583.12	2391.38
583.47	2390.57
583.82	2390.26
584.17	2389.15
584.53	2387.15
584.88	2385.33
585.23	2383.66
585.58	2381.44
585.93	2379.24
586.28	2377.11
586.63	2374.89
586.98	2372.93
587.34	2371.33
587.69	2369.12
588.04	2367.54
588.39	2366.32
588.74	2364.08
589.09	2361.77
589.44	2358.78
589.79	2356.58
590.14	2354.97
590.49	2352.41
590.84	2348.86
591.19	2346.09
591.54	2343.05
591.89	2339.37
592.25	2336.45
592.60	2332.40
592.95	2328.59
593.30	2324.90
593.65	2320.82
594.00	2316.68
594.35	2313.79
594.70	2309.13
595.05	2304.58
595.40	2299.29
595.75	2294.04
596.10	2290.33
596.45	2285.53
596.80	2281.12
597.15	2275.87
597.50	2270.05
597.85	2265.24
598.19	2260.11
598.54	2254.25
598.89	2249.36
599.24	2244.94
599.59	2238.90
599.94	2233.48
600.29	2227.74
600.64	2221.84
600.99	2215.23
601.34	2209.88
601.69	2202.93
602.04	2196.63
602.39	2190.12
602.74	2184.19
603.08	2178.51
603.43	2172.13
603.78	2165.36
604.13	2158.29
604.48	2151.39
604.83	2145.46
605.18	2139.08
605.53	2132.07
605.87	2125.24
606.22	2118.44
606.57	2110.48
606.92	2102.71
607.27	2095.73
607.62	2089.18
607.96	2082.10
608.31	2075.68
608.66	2068.03
609.01	2060.58
609.36	2053.60
609.70	2046.06
610.05	2038.32
610.40	2030.20
610.75	2022.10
611.10	2014.58
611.44	2006.02
611.79	1997.29
612.14	1987.25
612.49	1977.00
612.83	1967.96
613.18	1958.93
613.53	1949.69
613.88	1940.25
614.22	1931.56
614.57	1921.60
614.92	1911.12
615.27	1901.14
615.61	1891.21
615.96	1881.56
616.31	1872.01
616.65	1862.67
617.00	1852.81
617.35	1843.21
617.70	1833.46
618.04	1823.38
618.39	1812.94
618.74	1803.21
619.08	1793.68
619.43	1785.01
619.78	1776.69
620.12	1767.93
620.47	1758.01
620.82	1747.71
621.16	1737.97
621.51	1728.00
621.85	1718.21
622.20	1707.59
622.55	1696.98
622.89	1687.04
623.24	1677.29
623.59	1667.51
623.93	1657.37
624.28	1647.72
624.62	1637.48
624.97	1627.16
625.32	1617.42
625.66	1608.64
626.01	1599.78
626.35	1590.32
626.70	1580.18
627.04	1570.06
627.39	1559.99
627.73	1550.86
628.08	1541.70
628.43	1532.05
628.77	1522.94
629.12	1514.03
629.46	1506.20
629.81	1497.66
630.15	1488.00
630.50	1478.22
630.84	1467.67
631.19	1457.64
631.53	1448.02
631.88	1437.91
632.22	1427.88
632.57	1418.64
632.91	1408.50
633.26	1398.69
633.60	1389.04
633.95	1379.65
634.29	1370.32
634.64	1360.89
634.98	1350.90
635.32	1341.65
635.67	1333.08
636.01	1323.79
636.36	1313.99
636.70	1304.42
637.05	1295.14
637.39	1286.21
637.73	1277.48
638.08	1269.95
638.42	1261.64
638.77	1252.97
639.11	1244.68
639.45	1236.69
639.80	1227.75
640.14	1219.02
640.49	1210.04
640.83	1201.24
641.17	1193.24
641.52	1184.87
641.86	1176.34
642.20	1168.50
642.55	1159.88
642.89	1151.03
643.23	1142.30
643.58	1134.15
643.92	1125.15
644.26	1116.54
644.61	1108.10
644.95	1099.34
645.29	1090.03
645.64	1080.85
645.98	1072.51
646.32	1064.60
646.66	1056.14
647.01	1047.77
647.35	1039.66
647.69	1031.26
648.04	1022.94
648.38	1013.80
648.72	1005.06
649.06	996.65
649.41	988.42
649.75	980.43
650.09	972.53
650.43	964.48
650.78	956.31
651.12	948.60
651.46	941.20
651.80	933.82
652.14	926.44
652.49	918.97
652.83	911.75
653.17	903.97
653.51	896.37
653.85	889.20
654.20	882.06
654.54	874.45
654.88	867.32
655.22	860.15
655.56	853.29
655.90	846.46
656.25	839.67
656.59	832.63
656.93	825.67
657.27	818.60
657.61	811.73
657.95	805.70
658.29	799.85
658.64	793.64
658.98	787.23
659.32	780.76
659.66	774.51
660.00	768.26
660.34	762.26
660.68	756.15
661.02	749.81
661.36	743.96
661.70	738.20
662.05	732.53
662.39	727.10
662.73	721.79
663.07	716.51
663.41	711.06
663.75	705.53
664.09	699.97
664.43	694.60
664.77	689.31
665.11	683.41
665.45	677.54
665.79	671.77
666.13	666.22
666.47	660.70
666.81	655.38
667.15	650.02
667.49	644.91
667.83	639.67
668.17	634.52
668.51	629.46
668.85	624.72
669.19	619.88
669.53	614.90
669.87	609.86
670.21	605.07
670.55	600.36
670.89	596.02
671.23	591.74
671.57	587.47
671.91	583.14
672.25	579.12
672.58	575.08
672.92	571.07
673.26	567.22
673.60	563.47
673.94	559.66
674.28	556.09
674.62	552.35
674.96	548.72
675.30	545.29
675.64	541.67
675.97	538.11
676.31	534.57
676.65	531.02
676.99	527.60
677.33	523.86
677.67	520.32
678.01	516.53
678.34	512.92
678.68	509.41
679.02	505.89
679.36	502.21
679.70	498.62
680.04	495.24
680.37	491.87
680.71	488.62
681.05	485.48
681.39	482.34
681.73	479.28
682.06	476.29
682.40	473.19
682.74	470.05
683.08	466.88
683.42	463.78
683.75	460.89
684.09	457.91
684.43	455.19
684.77	452.27
685.10	449.45
685.44	446.59
685.78	443.68
686.12	441.03
686.45	438.34
686.79	435.76
687.13	433.25
687.46	430.59
687.80	427.96
688.14	425.19
688.48	422.60
688.81	419.96
689.15	417.45
689.49	414.98
689.82	412.52
690.16	410.03
690.50	407.63
690.83	405.18
691.17	402.75
691.51	400.33
691.84	398.17
692.18	396.05
692.52	393.90
692.85	391.83
693.19	389.76
693.52	387.65
693.86	385.46
694.20	383.30
694.53	381.28
694.87	379.10
695.21	377.06
695.54	374.94
695.88	372.84
696.21	370.69
696.55	368.57
696.88	366.57
697.22	364.63
697.56	362.81
697.89	360.98
698.23	359.31
698.56	357.55
698.90	355.82
699.23	353.90
699.57	352.04
699.90	350.27
700.24	348.49
700.58	346.75
700.91	345.15
701.25	343.66
701.58	342.05
701.92	340.55
702.25	338.99
702.59	337.42
702.92	335.93
703.26	334.41
703.59	333.00
703.93	331.77
704.26	330.39
704.60	328.87
704.93	327.43
705.26	325.96
705.60	324.54
705.93	323.03
706.27	321.78
706.60	320.60
706.94	319.34
707.27	317.96
707.61	316.67
707.94	315.38
708.27	313.92
708.61	312.49
708.94	311.15
709.28	309.91
709.61	308.73
709.94	307.54
710.28	306.39
710.61	305.23
710.95	303.83
711.28	302.75
711.61	301.59
711.95	300.48
712.28	299.31
712.61	298.16
712.95	297.19
713.28	296.20
713.61	295.04
713.95	293.95
714.28	293.02
714.61	292.02
714.95	291.02
715.28	290.04
715.61	289.09
715.95	288.16
716.28	287.23
716.61	286.29
716.95	285.33
717.28	284.44
717.61	283.52
717.94	282.70
718.28	281.73
718.61	280.90
718.94	280.02
719.27	279.20
719.61	278.41
719.94	277.55
720.27	276.60
720.60	275.83
720.94	275.05
721.27	274.31
721.60	273.64
721.93	272.93
722.27	272.30
722.60	271.66
722.93	270.98
723.26	270.34
723.59	269.66
723.93	269.08
724.26	268.42
724.59	267.78
724.92	267.18
725.25	266.69
725.59	266.14
725.92	265.59
726.25	265.05
726.58	264.48
726.91	263.87
727.24	263.34
727.57	262.75
727.91	262.15
728.24	261.59
728.57	261.04
728.90	260.50
729.23	259.95
729.56	259.51
729.89	259.01
730.22	258.45
730.55	257.95
730.89	257.42
731.22	256.93
731.55	256.46
731.88	255.96
732.21	255.45
732.54	254.94
732.87	254.47
733.20	254.02
733.53	253.57
733.86	253.14
734.19	252.73
734.52	252.37
734.85	252.12
735.18	251.67
735.51	251.28
735.84	250.88
736.17	250.50
736.50	250.01
736.83	249.86
737.16	249.49
737.49	249.11
737.82	248.73
738.15	248.37
738.48	248.00
738.81	247.64
739.14	247.24
739.47	246.87
739.80	246.54
740.13	246.20
740.46	245.85
740.79	245.52
741.12	245.15
741.45	244.78
741.78	244.32
742.11	244.05
742.44	243.70
742.77	243.41
743.10	243.08
743.43	242.76
743.75	242.18
744.08	242.13
744.41	241.79
744.74	241.42
745.07	241.03
745.40	240.76
745.73	240.53
746.06	240.19
746.39	239.91
746.71	239.58
747.04	239.24
747.37	238.89
747.70	238.61
748.03	238.34
748.36	238.12
748.68	237.84
749.01	237.53
749.34	237.24
749.67	236.92
750.00	236.64
750.33	236.54
750.65	236.33
750.98	235.81
751.31	235.56
751.64	235.35
751.97	235.26
752.29	234.98
752.62	234.64
752.95	234.39
753.28	234.12
753.60	233.88
753.93	233.73
754.26	233.52
754.59	233.29
754.91	233.03
755.24	232.77
755.57	232.54
755.90	232.28
756.22	232.07
756.55	231.86
756.88	231.60
757.20	231.23
757.53	230.95
757.86	230.76
758.19	230.61
758.51	230.44
758.84	230.14
759.17	229.97
759.49	229.80
759.82	229.72
760.15	229.58
760.47	229.42
760.80	229.12
761.13	228.99
761.45	228.76
761.78	228.59
762.11	228.41
762.43	228.21
762.76	228.06
763.08	227.92
763.41	227.75
763.74	227.63
764.06	227.48
764.39	227.38
764.71	227.25
765.04	227.04
765.37	226.86
765.69	226.72
766.02	226.58
766.34	226.39
766.67	226.19
767.00	226.09
767.32	226.07
767.65	226.09
767.97	225.93
768.30	225.82
768.62	225.73
768.95	225.62
769.27	225.51
769.60	225.43
769.92	225.30
770.25	225.17
770.57	224.99
770.90	224.88
771.22	224.73
771.55	224.60
771.87	224.51
772.20	224.41
772.52	224.46
772.85	224.60
773.17	224.52
773.50	224.40
773.82	224.27
774.15	224.07
774.47	223.87
774.80	223.81
775.12	223.72
775.45	223.60
775.77	223.52
776.09	223.48
776.42	223.36
776.74	223.33
777.07	223.23
777.39	223.18
777.72	223.06
778.04	223.02
778.36	222.94
778.69	222.90
779.01	222.84
779.33	222.59
779.66	222.26
779.98	222.18
780.31	222.10
780.63	222.10
780.95	222.08
781.28	222.01
781.60	221.89
781.92	221.83
782.25	221.79
782.57	221.70
782.89	221.61
783.22	221.56
783.54	221.45
783.86	221.43
784.19	221.33
784.51	221.36
784.83	221.23
785.16	221.16
785.48	221.09
785.80	221.04
786.12	221.02
786.45	220.97
786.77	220.92
787.09	220.88
787.42	220.75
787.74	220.67
788.06	220.61
788.38	220.55
788.71	220.47
789.03	220.42
789.35	220.36
789.67	220.29
789.99	220.29
790.32	220.22
790.64	220.19
790.96	220.34
791.28	220.22
791.61	220.21
791.93	220.16
792.25	220.11
792.57	220.18
792.89	220.08
793.21	220.06
793.54	219.99
793.86	219.89
794.18	219.86
794.50	219.79
794.82	219.77
795.14	219.75
795.47	219.75
795.79	219.72
796.11	219.66
796.43	219.60
796.75	219.51
797.07	219.47
797.39	219.41
797.71	219.18
798.04	219.17
798.36	219.14
798.68	219.09
799.00	219.03
799.32	218.92
799.64	218.94
799.96	218.92
800.28	218.93
800.60	218.91
800.92	218.92
801.24	218.88
801.56	218.83
801.89	218.78
802.21	218.75
802.53	218.66
802.85	218.68
803.17	218.74
803.49	218.69
803.81	218.65
804.13	218.62
804.45	218.60
804.77	218.56
805.09	218.53
805.41	218.49
805.73	218.44
806.05	218.35
806.37	218.31
806.69	218.24
807.01	218.20
807.33	218.18
807.65	218.06
807.97	218.11
808.28	218.07
808.60	218.07
808.92	218.00
809.24	218.13
809.56	218.07
809.88	217.98
810.20	217.95
810.52	217.94
810.84	217.90
811.16	217.83
811.48	217.80
811.80	217.85
812.12	217.83
812.43	217.86
812.75	217.82
813.07	217.76
813.39	217.75
813.71	217.68
814.03	217.63
814.35	217.60
814.67	217.51
814.98	217.46
815.30	217.43
815.62	217.39
815.94	217.24
816.26	217.20
816.58	217.13
816.89	217.12
817.21	217.07
817.53	217.03
817.85	217.04
818.17	217.02
818.48	216.92
818.80	216.94
819.12	216.90
819.44	216.87
819.76	216.81
820.07	216.78
820.39	216.78
820.71	216.76
821.03	216.77
821.34	216.74
821.66	216.77
821.98	216.77
822.30	216.75
822.61	216.85
822.93	216.83
823.25	216.82
823.57	216.79
823.88	216.84
824.20	216.80
824.52	216.81
824.83	216.80
825.15	216.77
825.47	216.76
825.79	216.76
826.10	216.73
826.42	216.73
826.74	216.75
827.05	216.73
827.37	216.72
827.69	216.70
828.00	216.71
828.32	216.67
828.64	216.64
828.95	216.73
829.27	216.66
829.58	216.66
829.90	216.70
830.22	216.69
830.53	216.63
830.85	216.63
831.17	216.59
831.48	216.55
831.80	216.55
832.11	216.53
832.43	216.48
832.75	216.47
833.06	216.57
833.38	216.53
833.69	216.51
834.01	216.53
834.32	216.51
834.64	216.45
834.96	216.48
835.27	216.48
835.59	216.40
835.90	216.36
836.22	216.33
836.53	216.26
836.85	216.23
837.16	216.43
837.48	216.40
837.79	216.46
838.11	216.48
838.42	216.47
838.74	216.47
839.05	216.45
839.37	216.44
839.68	216.32
840.00	216.26
840.31	216.34
840.63	216.31
840.94	216.28
841.26	216.28
841.57	216.26
841.88	216.22
842.20	216.20
842.51	216.16
842.83	216.15
843.14	216.34
843.46	216.34
843.77	216.20
844.08	216.24
844.40	216.16
844.71	216.14
845.03	216.09
845.34	216.09
845.65	216.04
845.97	216.05
846.28	216.05
846.60	216.07
846.91	216.00
847.22	216.01
847.54	216.06
847.85	216.06
848.16	216.04
848.48	216.05
848.79	216.14
849.10	216.19
849.42	216.20
849.73	216.01
850.04	216.00
850.36	215.91
850.67	215.93
850.98	215.91
851.30	215.89
851.61	215.91
851.92	215.89
852.23	215.99
852.55	215.96
852.86	215.97
853.17	216.00
853.49	216.04
853.80	216.08
854.11	216.09
854.42	216.11
854.74	216.08
855.05	216.07
855.36	215.94
855.67	215.94
855.99	215.91
856.30	216.13
856.61	216.13
856.92	216.14
857.23	216.10
857.55	216.09
857.86	216.07
858.17	216.09
858.48	216.04
858.79	215.99
859.11	216.02
859.42	216.02
859.73	215.98
860.04	215.96
860.35	215.87
860.66	215.80
860.98	215.83
861.29	215.87
861.60	215.86
861.91	215.89
862.22	215.84
862.53	215.83
862.84	215.57
863.16	215.63
863.47	215.61
863.78	215.60
864.09	215.61
864.40	215.66
864.71	215.66
865.02	215.70
865.33	215.67
865.64	215.65
865.95	215.64
866.27	215.76
866.58	215.75
866.89	215.80
867.20	215.80
867.51	215.72
867.82	215.70
868.13	215.72
868.44	215.65
868.75	215.69
869.06	215.69
869.37	215.76
869.68	215.68
869.99	215.69
870.30	215.72
870.61	215.73
870.92	215.69
871.23	215.67
871.54	215.69
871.85	215.73
872.16	215.73
872.47	215.71
872.78	215.61
873.09	215.60
873.40	215.54
873.71	215.56
874.02	215.61
874.33	215.59
874.64	215.57
874.95	215.65
875.26	215.61
875.56	215.62
875.87	215.57
876.18	215.57
876.49	215.78
876.80	215.74
877.11	215.71
877.42	215.71
877.73	215.70
878.04	215.67
878.35	215.69
878.66	215.72
878.96	215.70
879.27	215.68
879.58	215.69
879.89	215.69
880.20	215.72
880.51	215.70
880.82	215.71
881.12	215.72
881.43	215.65
881.74	215.64
882.05	215.59
882.36	215.62
882.67	215.62
882.97	215.40
883.28	215.39
883.59	215.38
883.90	215.42
884.21	215.46
884.51	215.45
884.82	215.40
885.13	215.37
885.44	215.38
885.74	215.36
886.05	215.36
886.36	215.37
886.67	215.31
886.98	215.40
887.28	215.41
887.59	215.39
887.90	215.39
888.20	215.40
888.51	215.46
888.82	215.42
889.13	215.41
889.43	215.58
889.74	215.58
890.05	215.60
890.35	215.57
890.66	215.50
890.97	215.48
891.28	215.47
891.58	215.48
891.89	215.45
892.20	215.44
892.50	215.42
892.81	215.40
893.12	215.39
893.42	215.30
893.73	215.32
894.04	215.33
894.34	215.36
894.65	215.32
894.95	215.29
895.26	215.31
895.57	215.41
895.87	215.23
896.18	215.26
896.48	215.29
896.79	215.29
897.10	215.32
897.40	215.33
897.71	215.37
898.01	215.38
898.32	215.43
898.63	215.44
898.93	215.44
899.24	215.44
899.54	215.45
899.85	215.42
900.15	215.39
900.46	215.39
900.76	215.40
901.07	215.41
901.38	215.42
901.68	215.44
901.99	215.36
902.29	215.37
902.60	215.37
902.90	215.33
903.21	215.33
903.51	215.33
903.82	215.38
904.12	215.36
904.43	215.34
904.73	215.32
905.03	215.34
905.34	215.52
905.64	215.51
905.95	215.50
906.25	215.49
906.56	215.49
906.86	215.47
907.17	215.47
907.47	215.48
907.77	215.48
908.08	215.43
908.38	215.46
908.69	215.46
908.99	215.45
909.30	215.47
909.60	215.47
909.90	215.48
910.21	215.45
910.51	215.41
910.81	215.43
911.12	215.44
911.42	215.44
911.73	215.22
912.03	215.24
912.33	215.26
912.64	215.27
912.94	215.22
913.24	215.21
913.55	215.19
913.85	215.17
914.15	215.23
914.46	215.25
914.76	215.21
915.06	215.22
915.37	215.19
915.67	215.16
915.97	215.15
916.27	215.10
916.58	215.11
916.88	215.12
917.18	215.08
917.49	215.22
917.79	215.21
918.09	215.29
918.39	215.34
918.70	215.32
919.00	215.34
919.30	215.46
919.60	215.46
919.91	215.43
920.21	215.46
920.51	215.37
920.81	215.35
921.12	215.36
921.42	215.37
921.72	215.42
922.02	215.41
922.32	215.46
922.63	215.47
922.93	215.52
923.23	215.53
923.53	215.54
923.83	215.40
924.13	215.40
924.44	215.36
924.74	215.37
925.04	215.44
925.34	215.42
925.64	215.34
925.94	215.32
926.24	215.42
926.55	215.40
926.85	215.44
927.15	215.43
927.45	215.45
927.75	215.42
928.05	215.38
928.35	215.43
928.65	215.41
928.95	215.44
929.26	215.40
929.56	215.41
929.86	215.40
930.16	215.40
930.46	215.36
930.76	215.33
931.06	215.24
931.36	215.18
931.66	215.22
931.96	215.22
932.26	215.23
932.56	215.17
932.86	215.19
933.16	215.18
933.46	215.18
933.76	215.14
934.06	215.21
934.36	215.28
934.66	215.22
934.96	215.22
935.26	215.21
935.56	215.22
935.86	215.20
936.16	215.19
936.46	215.17
936.76	215.17
937.06	215.17
937.36	215.19
937.66	215.19
937.96	215.17
938.26	215.16
938.56	215.15
938.86	215.17
939.16	215.19
939.46	215.19
939.76	215.22
940.06	215.21
940.35	215.14
940.65	215.03
940.95	215.07
941.25	215.01
941.55	215.01
941.85	214.98
942.15	215.03
942.45	215.09
942.75	215.07
943.04	215.10
943.34	215.15
943.64	215.14
943.94	215.10
944.24	215.08
944.54	215.07
944.84	215.05
945.13	214.98
945.43	214.95
945.73	214.96
946.03	214.93
946.33	214.94
946.62	214.91
946.92	214.93
947.22	214.94
947.52	214.93
947.82	214.91
948.11	214.89
948.41	214.82
948.71	214.76
949.01	214.76
949.31	214.75
949.60	214.69
949.90	214.71
950.20	214.68
950.50	214.72
950.79	214.72
951.09	214.75
951.39	214.80
951.69	214.79
951.98	214.78
952.28	214.79
952.58	214.75
952.87	214.76
953.17	214.78
953.47	214.74
953.76	214.76
954.06	214.75
954.36	214.74
954.66	214.75
954.95	214.79
955.25	214.83
955.55	214.86
955.84	214.86
956.14	214.86
956.44	214.88
956.73	214.86
957.03	214.84
957.32	214.84
957.62	214.83
957.92	214.88
958.21	214.89
958.51	215.15
958.81	215.19
959.10	215.19
959.40	215.23
959.69	215.26
959.99	215.29
960.29	215.30
960.58	215.30
960.88	215.38
961.17	215.36
961.47	215.34
961.76	215.31
962.06	215.36
962.36	215.37
962.65	215.37
962.95	215.36
963.24	215.36
963.54	215.39
963.83	215.39
964.13	215.39
964.42	215.35
964.72	215.16
965.01	215.18
965.31	215.20
965.60	215.19
965.90	215.35
966.19	215.30
966.49	215.32
966.78	215.28
967.08	215.26
967.37	215.25
967.67	215.25
967.96	215.29
968.26	215.27
968.55	215.27
968.85	215.31
969.14	215.33
969.43	215.33
969.73	215.31
970.02	215.30
970.32	215.29
970.61	215.27
970.91	215.22
971.20	215.20
971.49	215.18
971.79	215.17
972.08	215.01
972.38	215.05
972.67	215.02
972.96	215.09
973.26	215.05
973.55	215.13
973.85	215.10
974.14	215.06
974.43	215.08
974.73	215.05
975.02	214.99
975.31	214.99
975.61	214.98
975.90	214.93
976.19	214.94
976.49	214.94
976.78	214.95
977.07	214.94
977.37	214.93
977.66	214.93
977.95	214.92
978.24	214.92
978.54	214.93
978.83	214.95
979.12	214.93
979.42	214.92
979.71	214.88
980.00	214.88
980.29	214.92
980.59	214.89
980.88	214.94
981.17	215.00
981.46	214.96
981.76	214.96
982.05	215.07
982.34	215.08
982.63	215.07
982.93	215.05
983.22	215.11
983.51	215.13
983.80	215.19
984.09	215.19
984.39	215.21
984.68	215.20
984.97	215.19
985.26	215.15
985.55	215.19
985.85	215.15
986.14	215.17
986.43	215.20
986.72	215.18
987.01	215.14
987.30	215.09
987.59	215.12
987.89	215.13
988.18	215.06
988.47	215.03
988.76	215.02
989.05	215.04
989.34	215.00
989.63	215.05
989.92	215.00
990.22	214.98
990.51	214.94
990.80	214.90
991.09	214.90
991.38	214.91
991.67	214.90
991.96	214.89
992.25	214.90
992.54	214.83
992.83	214.82
993.12	214.82
993.41	214.87
993.70	214.93
993.99	214.97
994.28	215.00
994.58	215.02
994.87	215.00
995.16	215.01
995.45	214.98
995.74	214.92
996.03	214.96
996.32	214.99
996.61	215.05
996.90	215.08
997.19	215.07
997.48	215.12
997.77	215.09
998.06	215.11
998.34	215.08
998.63	215.07
998.92	215.08
999.21	215.13
999.50	215.10
999.79	215.04
1000.08	215.04
1000.37	214.99
1000.66	214.96
1000.95	215.04
1001.24	215.03
1001.53	215.04
1001.82	215.03
1002.11	214.97
1002.40	214.99
1002.68	215.02
1002.97	215.17
1003.26	215.16
1003.55	215.11
1003.84	215.12
1004.13	215.22
1004.42	215.21
1004.71	215.23
1004.99	215.21
1005.28	215.23
1005.57	215.24
1005.86	215.24
1006.15	215.22
1006.44	215.21
1006.72	215.25
1007.01	215.18
1007.30	215.17
1007.59	215.16
1007.88	215.13
1008.17	215.17
1008.45	215.09
1008.74	215.02
1009.03	214.92
1009.32	214.95
1009.60	214.94
1009.89	214.92
1010.18	214.80
1010.47	214.80
1010.76	214.78
1011.04	214.76
1011.33	214.80
1011.62	214.79
1011.91	214.78
1012.19	214.80
1012.48	214.82
1012.77	214.80
1013.05	214.92
1013.34	214.95
1013.63	214.94
1013.92	215.01
1014.20	214.99
1014.49	215.02
1014.78	215.02
1015.06	214.93
1015.35	214.93
1015.64	214.97
1015.92	215.01
1016.21	215.03
1016.50	215.05
1016.78	215.10
1017.07	215.16
1017.36	215.09
1017.64	215.06
1017.93	215.09
1018.22	215.03
1018.50	215.01
1018.79	215.02
1019.08	214.93
1019.36	214.93
1019.65	214.91
1019.93	214.96
1020.22	214.98
1020.51	215.07
1020.79	215.04
1021.08	213.93
1021.36	214.25
1021.65	215.31
1021.94	215.18
1022.22	215.16
1022.51	214.45
1022.79	216.19
1023.08	215.19
1023.36	216.97
1023.65	214.26
>>>>>End Processed Spectral Data<<<<<
