SpectraSuite Data File
++++++++++++++++++++++++++++++++++++
Date: Tue Jan 29 16:53:07 EST 2013
User: group
Dark Spectrum Present: No
Reference Spectrum Present: No
Number of Sampled Component Spectra: 1
Spectrometers: USB2E7196
Integration Time (usec): 65000 (USB2E7196)
Spectra Averaged: 100 (USB2E7196)
Boxcar Smoothing: 10 (USB2E7196)
Correct for Electrical Dark: No (USB2E7196)
Strobe/Lamp Enabled: No (USB2E7196)
Correct for Detector Non-linearity: No (USB2E7196)
Correct for Stray Light: No (USB2E7196)
Number of Pixels in Processed Spectrum: 2048
>>>>>Begin Processed Spectral Data<<<<<
339.09	0.00
339.48	201.87
339.86	203.04
340.24	204.59
340.63	205.97
341.01	209.93
341.39	208.65
341.78	209.94
342.16	211.55
342.54	211.65
342.93	200.81
343.31	210.97
343.69	211.49
344.07	211.95
344.46	212.40
344.84	212.80
345.22	212.98
345.60	213.25
345.99	213.47
346.37	213.59
346.75	213.72
347.13	213.75
347.52	213.83
347.90	213.96
348.28	213.99
348.66	214.10
349.05	214.11
349.43	214.21
349.81	214.25
350.19	214.30
350.57	214.37
350.96	214.46
351.34	214.55
351.72	214.64
352.10	214.74
352.48	214.75
352.87	214.79
353.25	214.88
353.63	214.93
354.01	214.99
354.39	215.07
354.77	215.11
355.15	215.26
355.54	215.32
355.92	215.29
356.30	215.38
356.68	215.58
357.06	215.65
357.44	215.63
357.82	215.70
358.20	215.75
358.58	215.80
358.97	215.87
359.35	215.96
359.73	216.07
360.11	216.13
360.49	216.23
360.87	216.27
361.25	216.34
361.63	216.46
362.01	216.50
362.39	216.51
362.77	216.59
363.15	216.62
363.53	216.65
363.91	216.69
364.29	216.70
364.67	216.50
365.05	216.54
365.43	216.64
365.81	216.69
366.19	216.83
366.57	216.93
366.95	216.90
367.33	216.90
367.71	216.86
368.09	216.91
368.47	216.89
368.85	216.90
369.23	216.93
369.61	216.83
369.99	216.90
370.37	216.92
370.75	217.00
371.13	216.93
371.51	216.88
371.89	216.89
372.27	216.90
372.65	216.89
373.03	216.81
373.41	216.74
373.78	216.69
374.16	216.54
374.54	216.43
374.92	216.40
375.30	216.33
375.68	216.28
376.06	216.24
376.44	216.23
376.82	216.19
377.19	216.10
377.57	216.03
377.95	215.89
378.33	215.83
378.71	215.63
379.09	215.64
379.47	215.66
379.84	215.57
380.22	215.51
380.60	215.42
380.98	215.40
381.36	215.34
381.73	215.30
382.11	215.28
382.49	215.23
382.87	215.16
383.25	215.09
383.62	215.29
384.00	215.20
384.38	215.15
384.76	215.15
385.13	215.19
385.51	215.18
385.89	215.13
386.27	215.10
386.64	215.13
387.02	215.07
387.40	215.01
387.78	215.01
388.15	214.99
388.53	214.99
388.91	214.96
389.29	214.92
389.66	214.90
390.04	214.89
390.42	214.93
390.79	214.94
391.17	214.93
391.55	214.69
391.92	214.69
392.30	214.68
392.68	214.62
393.05	214.62
393.43	214.62
393.81	214.66
394.18	214.66
394.56	214.67
394.94	214.69
395.31	214.70
395.69	214.77
396.06	214.78
396.44	214.82
396.82	214.82
397.19	214.96
397.57	214.96
397.95	215.02
398.32	214.97
398.70	215.03
399.07	215.14
399.45	215.22
399.82	215.30
400.20	215.30
400.58	215.35
400.95	215.32
401.33	215.44
401.70	215.65
402.08	215.73
402.45	215.83
402.83	215.99
403.20	216.10
403.58	216.17
403.95	216.33
404.33	216.47
404.71	216.63
405.08	216.92
405.46	217.09
405.83	217.27
406.21	217.52
406.58	217.76
406.96	217.97
407.33	218.20
407.70	218.47
408.08	219.03
408.45	219.42
408.83	219.80
409.20	220.13
409.58	220.38
409.95	220.85
410.33	221.33
410.70	221.73
411.08	222.28
411.45	222.85
411.82	223.43
412.20	224.16
412.57	224.98
412.95	225.54
413.32	226.40
413.69	227.21
414.07	228.08
414.44	229.04
414.82	230.05
415.19	231.25
415.56	232.44
415.94	233.56
416.31	234.98
416.68	236.41
417.06	238.05
417.43	239.65
417.81	241.42
418.18	243.24
418.55	245.20
418.93	247.25
419.30	249.43
419.67	251.69
420.04	253.96
420.42	256.40
420.79	259.24
421.16	262.04
421.54	264.95
421.91	267.98
422.28	271.11
422.66	274.42
423.03	277.68
423.40	281.09
423.77	284.71
424.15	288.39
424.52	292.25
424.89	296.41
425.26	300.48
425.64	304.34
426.01	308.59
426.38	313.07
426.75	317.63
427.13	322.38
427.50	327.39
427.87	332.59
428.24	337.75
428.61	342.71
428.99	348.25
429.36	354.27
429.73	360.16
430.10	366.05
430.47	372.18
430.85	378.51
431.22	385.27
431.59	392.39
431.96	399.22
432.33	406.68
432.70	413.96
433.08	422.56
433.45	430.67
433.82	438.67
434.19	447.59
434.56	456.36
434.93	464.71
435.30	473.00
435.68	482.17
436.05	491.26
436.42	500.19
436.79	508.37
437.16	517.17
437.53	526.49
437.90	535.70
438.27	544.68
438.64	553.95
439.01	562.46
439.38	570.07
439.75	577.47
440.13	585.93
440.50	593.92
440.87	600.34
441.24	606.99
441.61	614.40
441.98	619.82
442.35	626.16
442.72	632.51
443.09	638.60
443.46	642.38
443.83	644.91
444.20	647.17
444.57	650.41
444.94	651.90
445.31	653.37
445.68	654.81
446.05	655.48
446.42	654.70
446.79	653.79
447.16	652.74
447.53	651.97
447.90	648.76
448.27	645.46
448.64	640.81
449.01	637.56
449.37	631.66
449.74	625.98
450.11	619.09
450.48	611.65
450.85	604.19
451.22	597.70
451.59	591.49
451.96	585.65
452.33	577.70
452.70	570.68
453.07	562.19
453.43	553.49
453.80	545.15
454.17	537.16
454.54	529.57
454.91	521.33
455.28	513.34
455.65	505.89
456.02	498.40
456.38	492.03
456.75	484.10
457.12	477.39
457.49	470.85
457.86	464.62
458.23	459.23
458.59	453.27
458.96	447.21
459.33	441.93
459.70	436.51
460.07	432.23
460.43	427.24
460.80	422.59
461.17	418.59
461.54	414.35
461.91	410.30
462.27	406.13
462.64	402.73
463.01	398.88
463.38	395.13
463.74	391.38
464.11	388.16
464.48	385.25
464.85	382.20
465.21	379.77
465.58	377.10
465.95	373.97
466.32	371.32
466.68	368.71
467.05	366.09
467.42	363.53
467.78	360.80
468.15	358.21
468.52	356.29
468.88	353.75
469.25	351.51
469.62	349.70
469.98	347.75
470.35	345.93
470.72	344.24
471.08	342.43
471.45	340.92
471.82	339.34
472.18	337.70
472.55	336.50
472.92	335.07
473.28	333.80
473.65	332.62
474.02	331.48
474.38	330.57
474.75	329.76
475.11	328.92
475.48	328.34
475.85	327.88
476.21	327.39
476.58	327.03
476.94	326.79
477.31	326.43
477.67	326.13
478.04	325.93
478.41	325.85
478.77	325.99
479.14	325.88
479.50	326.00
479.87	326.26
480.23	326.59
480.60	326.82
480.96	327.10
481.33	327.70
481.69	328.22
482.06	328.70
482.42	329.21
482.79	329.78
483.15	330.59
483.52	331.50
483.88	332.38
484.25	333.34
484.61	334.35
484.98	335.38
485.34	336.73
485.71	338.07
486.07	339.49
486.44	340.86
486.80	342.52
487.17	344.21
487.53	346.01
487.90	347.83
488.26	349.88
488.62	352.07
488.99	354.08
489.35	356.26
489.72	358.71
490.08	361.21
490.44	363.79
490.81	366.50
491.17	369.23
491.54	372.20
491.90	375.26
492.26	378.50
492.63	381.92
492.99	385.38
493.36	389.04
493.72	392.95
494.08	396.88
494.45	401.04
494.81	405.30
495.17	409.75
495.54	414.49
495.90	419.24
496.26	424.14
496.63	429.36
496.99	434.74
497.35	440.23
497.72	446.03
498.08	451.94
498.44	458.02
498.80	464.40
499.17	470.89
499.53	477.55
499.89	484.46
500.26	491.45
500.62	498.50
500.98	505.90
501.34	513.30
501.71	520.99
502.07	528.82
502.43	536.86
502.79	545.06
503.16	553.41
503.52	562.04
503.88	570.76
504.24	579.69
504.60	588.76
504.97	597.97
505.33	607.22
505.69	617.08
506.05	626.93
506.41	636.73
506.78	646.74
507.14	656.94
507.50	667.31
507.86	677.95
508.22	688.66
508.59	699.27
508.95	710.27
509.31	721.55
509.67	733.02
510.03	744.30
510.39	755.91
510.75	767.69
511.12	779.50
511.48	791.46
511.84	803.66
512.20	815.89
512.56	828.53
512.92	841.31
513.28	853.91
513.64	866.59
514.00	879.42
514.37	892.37
514.73	905.47
515.09	918.46
515.45	931.43
515.81	944.51
516.17	957.93
516.53	971.16
516.89	984.21
517.25	997.33
517.61	1010.90
517.97	1024.27
518.33	1037.43
518.69	1051.07
519.05	1064.90
519.41	1078.63
519.77	1092.64
520.13	1105.95
520.49	1119.11
520.85	1132.47
521.21	1145.75
521.57	1159.44
521.93	1172.60
522.29	1186.35
522.65	1199.98
523.01	1213.52
523.37	1226.77
523.73	1240.14
524.09	1253.42
524.45	1266.85
524.81	1280.35
525.17	1293.74
525.53	1306.95
525.89	1320.32
526.25	1333.45
526.61	1346.16
526.97	1359.28
527.33	1372.20
527.68	1385.70
528.04	1399.23
528.40	1412.35
528.76	1425.76
529.12	1438.65
529.48	1451.96
529.84	1464.35
530.20	1477.11
530.56	1489.80
530.91	1503.09
531.27	1515.97
531.63	1528.70
531.99	1541.53
532.35	1553.85
532.71	1566.30
533.07	1579.36
533.42	1591.69
533.78	1603.81
534.14	1616.13
534.50	1627.47
534.86	1639.14
535.21	1649.92
535.57	1661.51
535.93	1672.92
536.29	1684.10
536.65	1695.69
537.00	1706.68
537.36	1718.00
537.72	1729.08
538.08	1740.54
538.44	1751.46
538.79	1762.52
539.15	1773.42
539.51	1784.36
539.87	1795.74
540.22	1806.68
540.58	1817.69
540.94	1828.63
541.29	1839.06
541.65	1848.98
542.01	1859.30
542.37	1869.35
542.72	1879.62
543.08	1889.40
543.44	1899.87
543.79	1909.21
544.15	1918.79
544.51	1928.84
544.87	1938.72
545.22	1948.17
545.58	1957.04
545.94	1966.03
546.29	1974.61
546.65	1983.18
547.01	1991.38
547.36	1999.11
547.72	2006.94
548.07	2014.47
548.43	2022.24
548.79	2030.08
549.14	2038.11
549.50	2046.83
549.86	2054.90
550.21	2062.60
550.57	2070.37
550.92	2077.21
551.28	2084.77
551.64	2091.95
551.99	2099.40
552.35	2106.61
552.70	2113.44
553.06	2120.08
553.41	2126.36
553.77	2132.86
554.13	2139.16
554.48	2146.22
554.84	2153.43
555.19	2159.94
555.55	2166.42
555.90	2172.84
556.26	2179.69
556.61	2185.82
556.97	2190.46
557.32	2196.20
557.68	2202.47
558.03	2208.35
558.39	2213.69
558.74	2219.61
559.10	2224.98
559.45	2230.65
559.81	2236.27
560.16	2241.78
560.52	2247.71
560.87	2254.12
561.23	2259.94
561.58	2266.55
561.94	2271.72
562.29	2276.12
562.64	2282.07
563.00	2287.70
563.35	2293.07
563.71	2298.66
564.06	2304.21
564.42	2310.22
564.77	2315.08
565.12	2320.33
565.48	2325.26
565.83	2330.72
566.19	2335.89
566.54	2341.19
566.89	2345.61
567.25	2350.10
567.60	2355.68
567.96	2360.71
568.31	2365.18
568.66	2369.41
569.02	2373.14
569.37	2376.85
569.72	2381.18
570.08	2384.59
570.43	2387.49
570.78	2390.37
571.14	2392.71
571.49	2395.64
571.84	2398.96
572.20	2401.96
572.55	2404.75
572.90	2406.90
573.26	2409.47
573.61	2412.04
573.96	2414.26
574.31	2416.26
574.67	2417.92
575.02	2418.42
575.37	2419.75
575.72	2420.10
576.08	2421.41
576.43	2421.52
576.78	2421.63
577.13	2422.92
577.49	2423.94
577.84	2424.67
578.19	2425.80
578.54	2426.27
578.90	2426.79
579.25	2426.59
579.60	2426.09
579.95	2425.11
580.30	2424.90
580.66	2424.00
581.01	2422.22
581.36	2419.49
581.71	2417.77
582.06	2416.40
582.42	2415.34
582.77	2412.85
583.12	2411.19
583.47	2409.61
583.82	2408.89
584.17	2407.44
584.53	2405.19
584.88	2402.97
585.23	2401.04
585.58	2398.68
585.93	2396.66
586.28	2394.31
586.63	2391.61
586.98	2389.43
587.34	2387.19
587.69	2384.48
588.04	2382.26
588.39	2380.58
588.74	2377.97
589.09	2375.09
589.44	2371.82
589.79	2369.02
590.14	2366.83
590.49	2363.88
590.84	2359.90
591.19	2356.46
591.54	2353.18
591.89	2349.15
592.25	2345.77
592.60	2341.52
592.95	2337.12
593.30	2332.77
593.65	2328.26
594.00	2323.71
594.35	2320.51
594.70	2315.76
595.05	2311.34
595.40	2305.93
595.75	2300.03
596.10	2296.40
596.45	2291.56
596.80	2286.87
597.15	2281.70
597.50	2275.70
597.85	2270.66
598.19	2265.37
598.54	2259.50
598.89	2254.21
599.24	2249.59
599.59	2243.31
599.94	2237.28
600.29	2231.43
600.64	2225.34
600.99	2218.48
601.34	2213.00
601.69	2205.90
602.04	2199.66
602.39	2192.82
602.74	2186.52
603.08	2181.02
603.43	2174.46
603.78	2167.39
604.13	2160.37
604.48	2153.13
604.83	2147.07
605.18	2140.85
605.53	2133.94
605.87	2126.89
606.22	2120.15
606.57	2112.28
606.92	2104.28
607.27	2097.35
607.62	2090.73
607.96	2083.84
608.31	2077.47
608.66	2069.68
609.01	2062.09
609.36	2054.90
609.70	2047.26
610.05	2039.57
610.40	2031.17
610.75	2022.84
611.10	2015.17
611.44	2006.24
611.79	1997.62
612.14	1987.60
612.49	1976.88
612.83	1967.54
613.18	1958.43
613.53	1949.04
613.88	1939.33
614.22	1930.74
614.57	1920.97
614.92	1910.36
615.27	1900.10
615.61	1889.96
615.96	1880.39
616.31	1870.93
616.65	1861.49
617.00	1851.81
617.35	1842.26
617.70	1832.67
618.04	1822.68
618.39	1812.64
618.74	1803.08
619.08	1793.47
619.43	1784.97
619.78	1776.86
620.12	1768.46
620.47	1759.08
620.82	1748.88
621.16	1739.32
621.51	1729.56
621.85	1719.86
622.20	1709.70
622.55	1699.24
622.89	1689.49
623.24	1679.86
623.59	1670.15
623.93	1660.08
624.28	1650.46
624.62	1640.33
624.97	1630.11
625.32	1620.39
625.66	1611.50
626.01	1602.83
626.35	1593.58
626.70	1583.51
627.04	1573.52
627.39	1563.42
627.73	1554.20
628.08	1545.47
628.43	1536.04
628.77	1526.97
629.12	1518.08
629.46	1510.27
629.81	1502.24
630.15	1492.89
630.50	1483.21
630.84	1472.82
631.19	1463.13
631.53	1453.99
631.88	1444.03
632.22	1434.19
632.57	1425.04
632.91	1415.20
633.26	1405.47
633.60	1395.95
633.95	1386.91
634.29	1377.64
634.64	1368.43
634.98	1358.45
635.32	1349.25
635.67	1340.89
636.01	1331.65
636.36	1322.21
636.70	1312.83
637.05	1303.42
637.39	1294.59
637.73	1286.06
638.08	1278.60
638.42	1270.51
638.77	1261.78
639.11	1253.59
639.45	1245.95
639.80	1237.58
640.14	1228.98
640.49	1220.17
640.83	1211.54
641.17	1203.45
641.52	1195.31
641.86	1186.80
642.20	1179.13
642.55	1170.54
642.89	1161.72
643.23	1153.19
643.58	1145.02
643.92	1136.06
644.26	1127.47
644.61	1119.05
644.95	1110.25
645.29	1101.15
645.64	1092.03
645.98	1083.65
646.32	1076.01
646.66	1067.49
647.01	1059.21
647.35	1051.18
647.69	1043.04
648.04	1034.90
648.38	1026.13
648.72	1017.55
649.06	1009.26
649.41	1001.15
649.75	993.37
650.09	985.60
650.43	977.63
650.78	969.40
651.12	961.78
651.46	954.40
651.80	947.31
652.14	940.22
652.49	932.76
652.83	925.64
653.17	918.08
653.51	910.39
653.85	903.29
654.20	896.15
654.54	888.69
654.88	881.52
655.22	874.30
655.56	867.30
655.90	860.55
656.25	853.87
656.59	847.02
656.93	840.06
657.27	832.94
657.61	826.03
657.95	819.96
658.29	814.09
658.64	808.01
658.98	801.53
659.32	794.97
659.66	788.75
660.00	782.42
660.34	776.34
660.68	770.25
661.02	763.87
661.36	757.87
661.70	752.14
662.05	746.50
662.39	741.05
662.73	735.72
663.07	730.32
663.41	724.72
663.75	718.88
664.09	713.14
664.43	707.73
664.77	702.48
665.11	696.66
665.45	690.82
665.79	685.00
666.13	679.38
666.47	673.83
666.81	668.47
667.15	663.04
667.49	657.77
667.83	652.53
668.17	647.31
668.51	642.23
668.85	637.31
669.19	632.43
669.53	627.38
669.87	622.26
670.21	617.47
670.55	612.78
670.89	608.37
671.23	604.07
671.57	599.61
671.91	595.25
672.25	591.16
672.58	586.97
672.92	582.94
673.26	578.96
673.60	575.14
673.94	571.23
674.28	567.68
674.62	564.03
674.96	560.27
675.30	556.81
675.64	553.11
675.97	549.46
676.31	545.81
676.65	542.16
676.99	538.73
677.33	534.85
677.67	531.21
678.01	527.36
678.34	523.70
678.68	520.24
679.02	516.63
679.36	512.90
679.70	509.26
680.04	505.62
680.37	502.14
680.71	498.78
681.05	495.59
681.39	492.22
681.73	489.03
682.06	486.00
682.40	482.93
682.74	479.72
683.08	476.56
683.42	473.38
683.75	470.38
684.09	467.34
684.43	464.61
684.77	461.67
685.10	458.83
685.44	455.90
685.78	452.90
686.12	450.12
686.45	447.41
686.79	444.72
687.13	442.22
687.46	439.63
687.80	436.94
688.14	434.09
688.48	431.50
688.81	428.71
689.15	426.10
689.49	423.40
689.82	420.83
690.16	418.19
690.50	415.67
690.83	413.18
691.17	410.58
691.51	408.01
691.84	405.66
692.18	403.38
692.52	401.14
692.85	399.05
693.19	396.85
693.52	394.63
693.86	392.37
694.20	390.14
694.53	387.94
694.87	385.75
695.21	383.61
695.54	381.37
695.88	379.16
696.21	376.91
696.55	374.78
696.88	372.77
697.22	370.76
697.56	368.86
697.89	366.92
698.23	365.17
698.56	363.38
698.90	361.65
699.23	359.75
699.57	357.91
699.90	355.98
700.24	354.15
700.58	352.39
700.91	350.71
701.25	349.12
701.58	347.49
701.92	345.84
702.25	344.24
702.59	342.59
702.92	341.05
703.26	339.47
703.59	337.95
703.93	336.62
704.26	335.18
704.60	333.63
704.93	332.11
705.26	330.60
705.60	329.08
705.93	327.52
706.27	326.16
706.60	324.87
706.94	323.62
707.27	322.23
707.61	320.88
707.94	319.53
708.27	318.03
708.61	316.57
708.94	315.19
709.28	313.82
709.61	312.61
709.94	311.41
710.28	310.16
710.61	308.97
710.95	307.52
711.28	306.41
711.61	305.22
711.95	304.10
712.28	302.87
712.61	301.67
712.95	300.61
713.28	299.56
713.61	298.39
713.95	297.19
714.28	296.19
714.61	295.13
714.95	294.09
715.28	293.05
715.61	292.01
715.95	291.00
716.28	290.09
716.61	289.08
716.95	288.06
717.28	287.14
717.61	286.14
717.94	285.24
718.28	284.20
718.61	283.29
718.94	282.42
719.27	281.54
719.61	280.72
719.94	279.87
720.27	278.91
720.60	278.08
720.94	277.28
721.27	276.46
721.60	275.74
721.93	274.98
722.27	274.33
722.60	273.68
722.93	273.01
723.26	272.27
723.59	271.55
723.93	270.90
724.26	270.27
724.59	269.62
724.92	269.00
725.25	268.45
725.59	267.89
725.92	267.30
726.25	266.71
726.58	266.18
726.91	265.54
727.24	264.96
727.57	264.36
727.91	263.77
728.24	263.22
728.57	262.66
728.90	262.12
729.23	261.45
729.56	260.98
729.89	260.42
730.22	259.88
730.55	259.33
730.89	258.81
731.22	258.24
731.55	257.68
731.88	257.14
732.21	256.59
732.54	256.06
732.87	255.52
733.20	255.07
733.53	254.54
733.86	254.06
734.19	253.62
734.52	253.16
734.85	252.83
735.18	252.33
735.51	251.91
735.84	251.46
736.17	251.11
736.50	250.57
736.83	250.39
737.16	250.02
737.49	249.63
737.82	249.20
738.15	248.81
738.48	248.44
738.81	248.06
739.14	247.63
739.47	247.23
739.80	246.84
740.13	246.46
740.46	246.05
740.79	245.66
741.12	245.29
741.45	244.93
741.78	244.50
742.11	244.26
742.44	243.86
742.77	243.56
743.10	243.16
743.43	242.80
743.75	242.25
744.08	242.17
744.41	241.80
744.74	241.44
745.07	241.09
745.40	240.80
745.73	240.54
746.06	240.20
746.39	239.89
746.71	239.55
747.04	239.21
747.37	238.90
747.70	238.62
748.03	238.29
748.36	238.01
748.68	237.66
749.01	237.28
749.34	237.01
749.67	236.69
750.00	236.45
750.33	236.34
750.65	236.09
750.98	235.53
751.31	235.30
751.64	235.09
751.97	234.93
752.29	234.70
752.62	234.38
752.95	234.13
753.28	233.87
753.60	233.65
753.93	233.49
754.26	233.26
754.59	232.98
754.91	232.74
755.24	232.50
755.57	232.31
755.90	232.06
756.22	231.80
756.55	231.57
756.88	231.33
757.20	230.97
757.53	230.70
757.86	230.49
758.19	230.26
758.51	230.04
758.84	229.75
759.17	229.48
759.49	229.28
759.82	229.20
760.15	229.03
760.47	228.83
760.80	228.56
761.13	228.40
761.45	228.22
761.78	228.00
762.11	227.80
762.43	227.56
762.76	227.39
763.08	227.23
763.41	227.07
763.74	226.89
764.06	226.73
764.39	226.58
764.71	226.39
765.04	226.27
765.37	226.12
765.69	225.97
766.02	225.82
766.34	225.68
766.67	225.50
767.00	225.38
767.32	225.37
767.65	225.37
767.97	225.19
768.30	225.04
768.62	224.95
768.95	224.82
769.27	224.75
769.60	224.66
769.92	224.50
770.25	224.34
770.57	224.18
770.90	224.06
771.22	223.89
771.55	223.82
771.87	223.72
772.20	223.57
772.52	223.62
772.85	223.77
773.17	223.64
773.50	223.50
773.82	223.37
774.15	223.18
774.47	222.95
774.80	222.84
775.12	222.76
775.45	222.65
775.77	222.57
776.09	222.46
776.42	222.38
776.74	222.36
777.07	222.26
777.39	222.19
777.72	222.08
778.04	222.08
778.36	221.95
778.69	221.84
779.01	221.79
779.33	221.52
779.66	221.21
779.98	221.13
780.31	221.03
780.63	221.02
780.95	220.94
781.28	220.86
781.60	220.82
781.92	220.79
782.25	220.71
782.57	220.63
782.89	220.54
783.22	220.45
783.54	220.34
783.86	220.29
784.19	220.24
784.51	220.24
784.83	220.10
785.16	220.05
785.48	220.00
785.80	219.91
786.12	219.90
786.45	219.84
786.77	219.82
787.09	219.77
787.42	219.64
787.74	219.61
788.06	219.55
788.38	219.44
788.71	219.33
789.03	219.29
789.35	219.26
789.67	219.21
789.99	219.16
790.32	219.08
790.64	219.06
790.96	219.17
791.28	219.04
791.61	219.01
791.93	218.96
792.25	218.90
792.57	219.03
792.89	218.91
793.21	218.85
793.54	218.76
793.86	218.68
794.18	218.63
794.50	218.51
794.82	218.45
795.14	218.44
795.47	218.43
795.79	218.39
796.11	218.31
796.43	218.25
796.75	218.21
797.07	218.17
797.39	218.10
797.71	217.87
798.04	217.83
798.36	217.80
798.68	217.75
799.00	217.72
799.32	217.57
799.64	217.62
799.96	217.60
800.28	217.60
800.60	217.56
800.92	217.53
801.24	217.49
801.56	217.47
801.89	217.38
802.21	217.36
802.53	217.27
802.85	217.25
803.17	217.29
803.49	217.22
803.81	217.18
804.13	217.14
804.45	217.11
804.77	217.07
805.09	217.02
805.41	216.94
805.73	216.88
806.05	216.79
806.37	216.71
806.69	216.65
807.01	216.62
807.33	216.58
807.65	216.50
807.97	216.60
808.28	216.55
808.60	216.55
808.92	216.51
809.24	216.61
809.56	216.56
809.88	216.46
810.20	216.46
810.52	216.49
810.84	216.44
811.16	216.40
811.48	216.36
811.80	216.43
812.12	216.42
812.43	216.44
812.75	216.40
813.07	216.36
813.39	216.34
813.71	216.23
814.03	216.20
814.35	216.20
814.67	216.09
814.98	216.06
815.30	216.06
815.62	215.99
815.94	215.85
816.26	215.85
816.58	215.80
816.89	215.77
817.21	215.68
817.53	215.65
817.85	215.68
818.17	215.69
818.48	215.59
818.80	215.61
819.12	215.56
819.44	215.51
819.76	215.48
820.07	215.47
820.39	215.50
820.71	215.52
821.03	215.49
821.34	215.44
821.66	215.46
821.98	215.44
822.30	215.45
822.61	215.56
822.93	215.50
823.25	215.50
823.57	215.50
823.88	215.53
824.20	215.54
824.52	215.54
824.83	215.52
825.15	215.49
825.47	215.48
825.79	215.48
826.10	215.44
826.42	215.40
826.74	215.43
827.05	215.41
827.37	215.40
827.69	215.39
828.00	215.37
828.32	215.37
828.64	215.33
828.95	215.42
829.27	215.37
829.58	215.33
829.90	215.36
830.22	215.32
830.53	215.26
830.85	215.19
831.17	215.13
831.48	215.11
831.80	215.10
832.11	215.06
832.43	215.02
832.75	215.05
833.06	215.19
833.38	215.07
833.69	215.05
834.01	215.03
834.32	215.01
834.64	214.98
834.96	214.94
835.27	214.93
835.59	214.85
835.90	214.79
836.22	214.81
836.53	214.72
836.85	214.71
837.16	214.92
837.48	214.94
837.79	214.98
838.11	214.99
838.42	214.97
838.74	214.98
839.05	214.97
839.37	214.95
839.68	214.81
840.00	214.84
840.31	214.88
840.63	214.86
840.94	214.84
841.26	214.83
841.57	214.82
841.88	214.84
842.20	214.80
842.51	214.79
842.83	214.78
843.14	214.98
843.46	215.01
843.77	214.89
844.08	214.88
844.40	214.81
844.71	214.78
845.03	214.76
845.34	214.77
845.65	214.79
845.97	214.75
846.28	214.77
846.60	214.79
846.91	214.71
847.22	214.69
847.54	214.75
847.85	214.77
848.16	214.74
848.48	214.68
848.79	214.76
849.10	214.76
849.42	214.79
849.73	214.58
850.04	214.56
850.36	214.50
850.67	214.54
850.98	214.55
851.30	214.59
851.61	214.58
851.92	214.53
852.23	214.57
852.55	214.58
852.86	214.58
853.17	214.56
853.49	214.62
853.80	214.68
854.11	214.67
854.42	214.71
854.74	214.70
855.05	214.70
855.36	214.60
855.67	214.59
855.99	214.58
856.30	214.87
856.61	214.85
856.92	214.83
857.23	214.80
857.55	214.79
857.86	214.77
858.17	214.78
858.48	214.76
858.79	214.69
859.11	214.73
859.42	214.69
859.73	214.64
860.04	214.61
860.35	214.52
860.66	214.44
860.98	214.37
861.29	214.38
861.60	214.38
861.91	214.40
862.22	214.34
862.53	214.30
862.84	214.00
863.16	214.04
863.47	213.99
863.78	213.99
864.09	213.99
864.40	214.00
864.71	214.00
865.02	214.03
865.33	214.01
865.64	213.96
865.95	213.97
866.27	214.15
866.58	214.14
866.89	214.16
867.20	214.16
867.51	214.14
867.82	214.12
868.13	214.17
868.44	214.14
868.75	214.22
869.06	214.23
869.37	214.28
869.68	214.20
869.99	214.24
870.30	214.25
870.61	214.25
870.92	214.22
871.23	214.19
871.54	214.22
871.85	214.30
872.16	214.34
872.47	214.33
872.78	214.21
873.09	214.23
873.40	214.23
873.71	214.28
874.02	214.29
874.33	214.26
874.64	214.19
874.95	214.23
875.26	214.20
875.56	214.20
875.87	214.20
876.18	214.20
876.49	214.41
876.80	214.38
877.11	214.34
877.42	214.36
877.73	214.38
878.04	214.34
878.35	214.30
878.66	214.30
878.96	214.29
879.27	214.25
879.58	214.24
879.89	214.24
880.20	214.30
880.51	214.31
880.82	214.35
881.12	214.39
881.43	214.36
881.74	214.34
882.05	214.31
882.36	214.29
882.67	214.34
882.97	214.10
883.28	214.07
883.59	214.09
883.90	214.11
884.21	214.12
884.51	214.12
884.82	214.09
885.13	214.06
885.44	214.03
885.74	214.02
886.05	214.01
886.36	213.98
886.67	213.89
886.98	213.98
887.28	213.98
887.59	213.99
887.90	213.97
888.20	213.93
888.51	213.97
888.82	213.95
889.13	213.96
889.43	214.13
889.74	214.13
890.05	214.12
890.35	214.11
890.66	214.10
890.97	214.05
891.28	214.02
891.58	214.03
891.89	214.04
892.20	214.06
892.50	214.05
892.81	214.05
893.12	214.04
893.42	213.95
893.73	213.96
894.04	213.94
894.34	213.98
894.65	213.98
894.95	213.95
895.26	213.99
895.57	214.06
895.87	213.87
896.18	213.91
896.48	213.89
896.79	213.88
897.10	213.87
897.40	213.92
897.71	213.98
898.01	213.98
898.32	214.00
898.63	213.99
898.93	214.00
899.24	214.01
899.54	214.00
899.85	214.00
900.15	214.00
900.46	214.01
900.76	214.03
901.07	214.01
901.38	214.00
901.68	214.00
901.99	213.88
902.29	213.89
902.60	213.87
902.90	213.86
903.21	213.87
903.51	213.85
903.82	213.90
904.12	213.89
904.43	213.92
904.73	213.93
905.03	213.91
905.34	214.09
905.64	214.07
905.95	214.06
906.25	214.05
906.56	214.04
906.86	214.03
907.17	213.99
907.47	214.04
907.77	214.05
908.08	214.00
908.38	214.01
908.69	214.02
908.99	214.06
909.30	214.08
909.60	214.07
909.90	214.08
910.21	213.99
910.51	213.95
910.81	213.92
911.12	213.92
911.42	213.95
911.73	213.74
912.03	213.75
912.33	213.82
912.64	213.81
912.94	213.80
913.24	213.77
913.55	213.78
913.85	213.74
914.15	213.78
914.46	213.80
914.76	213.80
915.06	213.78
915.37	213.76
915.67	213.74
915.97	213.73
916.27	213.69
916.58	213.71
916.88	213.70
917.18	213.71
917.49	213.83
917.79	213.82
918.09	213.85
918.39	213.93
918.70	213.90
919.00	213.90
919.30	213.96
919.60	213.96
919.91	213.92
920.21	213.96
920.51	213.90
920.81	213.88
921.12	213.93
921.42	213.93
921.72	213.94
922.02	213.93
922.32	213.97
922.63	213.96
922.93	214.10
923.23	214.10
923.53	214.05
923.83	213.92
924.13	213.95
924.44	213.95
924.74	213.97
925.04	214.02
925.34	214.00
925.64	213.93
925.94	213.90
926.24	214.02
926.55	214.01
926.85	214.05
927.15	214.06
927.45	214.04
927.75	214.07
928.05	214.07
928.35	214.04
928.65	214.09
928.95	214.13
929.26	214.00
929.56	214.06
929.86	214.09
930.16	214.05
930.46	214.04
930.76	214.00
931.06	213.89
931.36	213.83
931.66	213.88
931.96	213.90
932.26	213.91
932.56	213.84
932.86	213.83
933.16	213.84
933.46	213.82
933.76	213.76
934.06	213.81
934.36	213.90
934.66	213.94
934.96	213.90
935.26	213.92
935.56	213.96
935.86	213.92
936.16	213.91
936.46	213.94
936.76	213.91
937.06	213.94
937.36	213.96
937.66	213.99
937.96	213.97
938.26	213.95
938.56	213.98
938.86	213.99
939.16	214.03
939.46	214.00
939.76	214.02
940.06	214.01
940.35	213.91
940.65	213.77
940.95	213.77
941.25	213.70
941.55	213.66
941.85	213.64
942.15	213.66
942.45	213.70
942.75	213.70
943.04	213.69
943.34	213.74
943.64	213.74
943.94	213.69
944.24	213.70
944.54	213.69
944.84	213.68
945.13	213.64
945.43	213.58
945.73	213.58
946.03	213.56
946.33	213.58
946.62	213.60
946.92	213.62
947.22	213.63
947.52	213.65
947.82	213.68
948.11	213.66
948.41	213.63
948.71	213.58
949.01	213.60
949.31	213.61
949.60	213.59
949.90	213.59
950.20	213.61
950.50	213.59
950.79	213.58
951.09	213.60
951.39	213.60
951.69	213.62
951.98	213.66
952.28	213.68
952.58	213.67
952.87	213.68
953.17	213.71
953.47	213.68
953.76	213.67
954.06	213.67
954.36	213.66
954.66	213.66
954.95	213.67
955.25	213.66
955.55	213.69
955.84	213.61
956.14	213.63
956.44	213.62
956.73	213.58
957.03	213.60
957.32	213.61
957.62	213.61
957.92	213.69
958.21	213.66
958.51	213.91
958.81	213.94
959.10	213.94
959.40	213.99
959.69	214.00
959.99	214.03
960.29	213.99
960.58	213.96
960.88	214.03
961.17	214.02
961.47	214.06
961.76	214.03
962.06	214.12
962.36	214.10
962.65	214.12
962.95	214.14
963.24	214.13
963.54	214.14
963.83	214.12
964.13	214.07
964.42	214.04
964.72	213.85
965.01	213.87
965.31	213.89
965.60	213.81
965.90	213.95
966.19	213.90
966.49	213.91
966.78	213.92
967.08	213.89
967.37	213.92
967.67	213.89
967.96	213.94
968.26	213.92
968.55	213.96
968.85	213.94
969.14	213.94
969.43	213.91
969.73	213.85
970.02	213.89
970.32	213.88
970.61	213.87
970.91	213.83
971.20	213.77
971.49	213.74
971.79	213.76
972.08	213.62
972.38	213.65
972.67	213.69
972.96	213.73
973.26	213.72
973.55	213.77
973.85	213.74
974.14	213.70
974.43	213.72
974.73	213.65
975.02	213.66
975.31	213.66
975.61	213.70
975.90	213.67
976.19	213.63
976.49	213.64
976.78	213.68
977.07	213.66
977.37	213.69
977.66	213.72
977.95	213.69
978.24	213.70
978.54	213.74
978.83	213.68
979.12	213.65
979.42	213.65
979.71	213.62
980.00	213.64
980.29	213.66
980.59	213.61
980.88	213.70
981.17	213.68
981.46	213.68
981.76	213.69
982.05	213.79
982.34	213.81
982.63	213.80
982.93	213.78
983.22	213.84
983.51	213.85
983.80	213.85
984.09	213.90
984.39	213.87
984.68	213.84
984.97	213.87
985.26	213.88
985.55	213.88
985.85	213.83
986.14	213.84
986.43	213.87
986.72	213.85
987.01	213.76
987.30	213.76
987.59	213.74
987.89	213.74
988.18	213.67
988.47	213.68
988.76	213.66
989.05	213.67
989.34	213.64
989.63	213.68
989.92	213.68
990.22	213.64
990.51	213.63
990.80	213.61
991.09	213.63
991.38	213.63
991.67	213.63
991.96	213.62
992.25	213.62
992.54	213.55
992.83	213.56
993.12	213.56
993.41	213.61
993.70	213.71
993.99	213.73
994.28	213.76
994.58	213.79
994.87	213.78
995.16	213.77
995.45	213.73
995.74	213.64
996.03	213.64
996.32	213.67
996.61	213.73
996.90	213.75
997.19	213.73
997.48	213.75
997.77	213.69
998.06	213.69
998.34	213.68
998.63	213.73
998.92	213.74
999.21	213.77
999.50	213.76
999.79	213.68
1000.08	213.67
1000.37	213.67
1000.66	213.66
1000.95	213.70
1001.24	213.68
1001.53	213.73
1001.82	213.75
1002.11	213.71
1002.40	213.73
1002.68	213.76
1002.97	213.90
1003.26	213.87
1003.55	213.84
1003.84	213.89
1004.13	213.96
1004.42	213.93
1004.71	213.93
1004.99	213.92
1005.28	213.96
1005.57	213.94
1005.86	213.92
1006.15	213.87
1006.44	213.81
1006.72	213.82
1007.01	213.78
1007.30	213.81
1007.59	213.77
1007.88	213.79
1008.17	213.80
1008.45	213.78
1008.74	213.70
1009.03	213.61
1009.32	213.63
1009.60	213.62
1009.89	213.61
1010.18	213.51
1010.47	213.51
1010.76	213.49
1011.04	213.48
1011.33	213.48
1011.62	213.49
1011.91	213.52
1012.19	213.56
1012.48	213.57
1012.77	213.58
1013.05	213.68
1013.34	213.65
1013.63	213.62
1013.92	213.62
1014.20	213.61
1014.49	213.60
1014.78	213.62
1015.06	213.50
1015.35	213.49
1015.64	213.53
1015.92	213.52
1016.21	213.55
1016.50	213.55
1016.78	213.56
1017.07	213.59
1017.36	213.54
1017.64	213.51
1017.93	213.51
1018.22	213.47
1018.50	213.51
1018.79	213.48
1019.08	213.37
1019.36	213.41
1019.65	213.38
1019.93	213.43
1020.22	213.45
1020.51	213.55
1020.79	213.55
1021.08	213.20
1021.36	213.70
1021.65	213.41
1021.94	213.67
1022.22	213.54
1022.51	212.63
1022.79	214.68
1023.08	213.69
1023.36	215.74
1023.65	213.67
>>>>>End Processed Spectral Data<<<<<
