SpectraSuite Data File
++++++++++++++++++++++++++++++++++++
Date: Tue Jan 29 16:14:51 EST 2013
User: group
Dark Spectrum Present: No
Reference Spectrum Present: No
Number of Sampled Component Spectra: 1
Spectrometers: USB2E7196
Integration Time (usec): 65000 (USB2E7196)
Spectra Averaged: 100 (USB2E7196)
Boxcar Smoothing: 10 (USB2E7196)
Correct for Electrical Dark: No (USB2E7196)
Strobe/Lamp Enabled: No (USB2E7196)
Correct for Detector Non-linearity: No (USB2E7196)
Correct for Stray Light: No (USB2E7196)
Number of Pixels in Processed Spectrum: 2048
>>>>>Begin Processed Spectral Data<<<<<
339.09	0.00
339.48	202.40
339.86	204.40
340.24	205.67
340.63	206.40
341.01	210.93
341.39	210.17
341.78	211.07
342.16	212.33
342.54	212.52
342.93	201.74
343.31	211.91
343.69	212.46
344.07	212.90
344.46	213.32
344.84	213.72
345.22	213.91
345.60	214.13
345.99	214.35
346.37	214.48
346.75	214.59
347.13	214.64
347.52	214.71
347.90	214.83
348.28	214.83
348.66	214.90
349.05	214.86
349.43	214.92
349.81	214.98
350.19	215.02
350.57	215.09
350.96	215.19
351.34	215.32
351.72	215.38
352.10	215.48
352.48	215.55
352.87	215.62
353.25	215.67
353.63	215.74
354.01	215.76
354.39	215.84
354.77	215.91
355.15	216.06
355.54	216.13
355.92	216.11
356.30	216.20
356.68	216.42
357.06	216.51
357.44	216.53
357.82	216.60
358.20	216.72
358.58	216.77
358.97	216.83
359.35	216.91
359.73	217.06
360.11	217.13
360.49	217.17
360.87	217.19
361.25	217.27
361.63	217.39
362.01	217.47
362.39	217.48
362.77	217.52
363.15	217.53
363.53	217.57
363.91	217.61
364.29	217.59
364.67	217.39
365.05	217.43
365.43	217.49
365.81	217.50
366.19	217.57
366.57	217.67
366.95	217.65
367.33	217.61
367.71	217.55
368.09	217.59
368.47	217.63
368.85	217.65
369.23	217.68
369.61	217.59
369.99	217.62
370.37	217.64
370.75	217.74
371.13	217.67
371.51	217.60
371.89	217.61
372.27	217.61
372.65	217.59
373.03	217.54
373.41	217.49
373.78	217.45
374.16	217.29
374.54	217.19
374.92	217.16
375.30	217.13
375.68	217.07
376.06	217.04
376.44	216.96
376.82	216.88
377.19	216.82
377.57	216.79
377.95	216.70
378.33	216.64
378.71	216.47
379.09	216.48
379.47	216.44
379.84	216.34
380.22	216.30
380.60	216.25
380.98	216.20
381.36	216.18
381.73	216.10
382.11	216.12
382.49	216.07
382.87	215.99
383.25	215.95
383.62	216.13
384.00	216.05
384.38	216.03
384.76	216.07
385.13	216.10
385.51	216.06
385.89	216.00
386.27	215.98
386.64	215.98
387.02	215.92
387.40	215.94
387.78	215.99
388.15	215.96
388.53	215.93
388.91	215.92
389.29	215.87
389.66	215.91
390.04	215.86
390.42	215.90
390.79	215.91
391.17	215.90
391.55	215.68
391.92	215.67
392.30	215.68
392.68	215.62
393.05	215.60
393.43	215.60
393.81	215.61
394.18	215.59
394.56	215.63
394.94	215.69
395.31	215.66
395.69	215.68
396.06	215.72
396.44	215.79
396.82	215.78
397.19	215.91
397.57	215.91
397.95	215.96
398.32	215.89
398.70	215.95
399.07	216.01
399.45	216.07
399.82	216.10
400.20	216.12
400.58	216.20
400.95	216.19
401.33	216.28
401.70	216.50
402.08	216.57
402.45	216.59
402.83	216.74
403.20	216.84
403.58	216.91
403.95	217.06
404.33	217.18
404.71	217.32
405.08	217.57
405.46	217.74
405.83	217.94
406.21	218.15
406.58	218.37
406.96	218.56
407.33	218.82
407.70	219.12
408.08	219.58
408.45	219.91
408.83	220.29
409.20	220.63
409.58	220.88
409.95	221.32
410.33	221.81
410.70	222.21
411.08	222.76
411.45	223.33
411.82	223.89
412.20	224.51
412.57	225.34
412.95	225.88
413.32	226.68
413.69	227.48
414.07	228.36
414.44	229.29
414.82	230.28
415.19	231.43
415.56	232.59
415.94	233.70
416.31	235.08
416.68	236.43
417.06	238.00
417.43	239.52
417.81	241.19
418.18	242.91
418.55	244.79
418.93	246.73
419.30	248.76
419.67	250.90
420.04	253.15
420.42	255.43
420.79	258.16
421.16	260.87
421.54	263.70
421.91	266.58
422.28	269.60
422.66	272.80
423.03	275.93
423.40	279.19
423.77	282.73
424.15	286.26
424.52	290.00
424.89	294.03
425.26	297.93
425.64	301.69
426.01	305.82
426.38	310.12
426.75	314.54
427.13	319.15
427.50	323.97
427.87	328.96
428.24	333.96
428.61	338.74
428.99	344.10
429.36	349.86
429.73	355.54
430.10	361.23
430.47	367.09
430.85	373.19
431.22	379.64
431.59	386.47
431.96	393.03
432.33	400.26
432.70	407.26
433.08	415.56
433.45	423.38
433.82	431.16
434.19	439.74
434.56	448.15
434.93	456.18
435.30	464.21
435.68	473.03
436.05	481.75
436.42	490.37
436.79	498.19
437.16	506.69
437.53	515.69
437.90	524.50
438.27	533.13
438.64	542.07
439.01	550.35
439.38	557.68
439.75	564.76
440.13	572.86
440.50	580.53
440.87	586.69
441.24	593.10
441.61	600.10
441.98	605.33
442.35	611.34
442.72	617.42
443.09	623.19
443.46	626.82
443.83	629.22
444.20	631.41
444.57	634.54
444.94	635.88
445.31	637.23
445.68	638.56
446.05	639.17
446.42	638.34
446.79	637.36
447.16	636.27
447.53	635.51
447.90	632.24
448.27	629.07
448.64	624.59
449.01	621.36
449.37	615.72
449.74	610.22
450.11	603.63
450.48	596.49
450.85	589.35
451.22	583.13
451.59	577.19
451.96	571.49
452.33	563.81
452.70	557.00
453.07	548.87
453.43	540.59
453.80	532.57
454.17	524.92
454.54	517.67
454.91	509.81
455.28	502.16
455.65	495.09
456.02	487.87
456.38	481.82
456.75	474.25
457.12	467.88
457.49	461.63
457.86	455.71
458.23	450.59
458.59	444.85
458.96	439.05
459.33	433.96
459.70	428.82
460.07	424.74
460.43	420.01
460.80	415.54
461.17	411.74
461.54	407.73
461.91	403.86
462.27	399.88
462.64	396.58
463.01	392.90
463.38	389.34
463.74	385.70
464.11	382.57
464.48	379.84
464.85	376.91
465.21	374.56
465.58	371.99
465.95	368.96
466.32	366.44
466.68	363.93
467.05	361.46
467.42	358.98
467.78	356.40
468.15	353.95
468.52	352.15
468.88	349.69
469.25	347.57
469.62	345.80
469.98	343.93
470.35	342.20
470.72	340.62
471.08	338.90
471.45	337.51
471.82	336.05
472.18	334.45
472.55	333.31
472.92	331.96
473.28	330.80
473.65	329.69
474.02	328.64
474.38	327.77
474.75	327.07
475.11	326.30
475.48	325.78
475.85	325.36
476.21	324.88
476.58	324.54
476.94	324.31
477.31	324.05
477.67	323.85
478.04	323.71
478.41	323.68
478.77	323.86
479.14	323.84
479.50	323.98
479.87	324.25
480.23	324.57
480.60	324.85
480.96	325.18
481.33	325.75
481.69	326.33
482.06	326.92
482.42	327.38
482.79	327.99
483.15	328.78
483.52	329.76
483.88	330.67
484.25	331.67
484.61	332.69
484.98	333.78
485.34	335.10
485.71	336.51
486.07	337.94
486.44	339.30
486.80	340.93
487.17	342.59
487.53	344.39
487.90	346.28
488.26	348.33
488.62	350.48
488.99	352.58
489.35	354.71
489.72	357.07
490.08	359.60
490.44	362.18
490.81	364.90
491.17	367.51
491.54	370.47
491.90	373.52
492.26	376.77
492.63	380.15
492.99	383.62
493.36	387.27
493.72	391.18
494.08	395.13
494.45	399.34
494.81	403.60
495.17	408.03
495.54	412.71
495.90	417.47
496.26	422.35
496.63	427.51
496.99	432.91
497.35	438.45
497.72	444.20
498.08	450.02
498.44	456.08
498.80	462.48
499.17	468.90
499.53	475.53
499.89	482.33
500.26	489.21
500.62	496.19
500.98	503.53
501.34	510.91
501.71	518.59
502.07	526.29
502.43	534.28
502.79	542.33
503.16	550.60
503.52	559.17
503.88	567.75
504.24	576.66
504.60	585.70
504.97	594.88
505.33	604.08
505.69	613.88
506.05	623.66
506.41	633.51
506.78	643.54
507.14	653.68
507.50	664.11
507.86	674.75
508.22	685.52
508.59	696.12
508.95	707.14
509.31	718.33
509.67	729.72
510.03	741.11
510.39	752.79
510.75	764.63
511.12	776.46
511.48	788.51
511.84	800.62
512.20	812.75
512.56	825.24
512.92	838.00
513.28	850.53
513.64	863.09
514.00	875.71
514.37	888.52
514.73	901.46
515.09	914.26
515.45	926.94
515.81	939.80
516.17	952.95
516.53	965.98
516.89	978.81
517.25	991.76
517.61	1005.15
517.97	1018.31
518.33	1031.18
518.69	1044.45
519.05	1058.06
519.41	1071.42
519.77	1085.13
520.13	1098.16
520.49	1111.00
520.85	1124.07
521.21	1137.21
521.57	1150.67
521.93	1163.52
522.29	1177.01
522.65	1190.42
523.01	1203.76
523.37	1216.73
523.73	1229.69
524.09	1242.62
524.45	1255.88
524.81	1269.10
525.17	1282.03
525.53	1295.04
525.89	1308.11
526.25	1320.91
526.61	1333.38
526.97	1346.19
527.33	1358.73
527.68	1371.88
528.04	1385.18
528.40	1398.11
528.76	1411.10
529.12	1423.61
529.48	1436.66
529.84	1448.68
530.20	1461.10
530.56	1473.50
530.91	1486.33
531.27	1498.87
531.63	1511.34
531.99	1523.87
532.35	1535.79
532.71	1547.98
533.07	1560.49
533.42	1572.28
533.78	1584.09
534.14	1595.83
534.50	1606.77
534.86	1618.03
535.21	1628.75
535.57	1639.78
535.93	1650.70
536.29	1661.50
536.65	1672.63
537.00	1683.31
537.36	1694.36
537.72	1705.05
538.08	1716.03
538.44	1726.73
538.79	1737.64
539.15	1748.16
539.51	1758.52
539.87	1769.51
540.22	1779.90
540.58	1790.48
540.94	1801.14
541.29	1811.05
541.65	1820.63
542.01	1830.96
542.37	1840.76
542.72	1850.62
543.08	1860.07
543.44	1870.23
543.79	1879.31
544.15	1888.47
544.51	1898.02
544.87	1907.62
545.22	1916.44
545.58	1925.06
545.94	1933.63
546.29	1941.80
546.65	1949.90
547.01	1957.90
547.36	1965.43
547.72	1973.01
548.07	1980.49
548.43	1987.83
548.79	1995.41
549.14	2003.15
549.50	2011.17
549.86	2018.80
550.21	2025.95
550.57	2033.47
550.92	2040.04
551.28	2047.21
551.64	2054.33
551.99	2061.68
552.35	2068.63
552.70	2075.30
553.06	2081.71
553.41	2087.70
553.77	2094.06
554.13	2100.15
554.48	2107.02
554.84	2113.84
555.19	2120.11
555.55	2126.27
555.90	2132.47
556.26	2139.25
556.61	2145.10
556.97	2149.83
557.32	2155.54
557.68	2161.70
558.03	2167.23
558.39	2172.35
558.74	2178.29
559.10	2183.80
559.45	2189.17
559.81	2194.58
560.16	2200.24
560.52	2206.09
560.87	2212.50
561.23	2218.36
561.58	2225.03
561.94	2230.04
562.29	2234.84
562.64	2240.96
563.00	2246.53
563.35	2252.11
563.71	2257.94
564.06	2263.53
564.42	2269.55
564.77	2274.63
565.12	2279.89
565.48	2285.17
565.83	2290.82
566.19	2296.28
566.54	2301.70
566.89	2306.30
567.25	2310.93
567.60	2316.49
567.96	2321.76
568.31	2326.38
568.66	2330.58
569.02	2334.39
569.37	2338.22
569.72	2342.64
570.08	2346.12
570.43	2349.28
570.78	2352.40
571.14	2354.89
571.49	2358.20
571.84	2361.76
572.20	2364.84
572.55	2368.06
572.90	2370.44
573.26	2373.44
573.61	2375.94
573.96	2378.18
574.31	2380.39
574.67	2382.41
575.02	2383.46
575.37	2384.87
575.72	2385.83
576.08	2387.45
576.43	2387.96
576.78	2388.71
577.13	2390.41
577.49	2391.75
577.84	2392.95
578.19	2394.56
578.54	2395.37
578.90	2396.25
579.25	2396.30
579.60	2396.52
579.95	2395.96
580.30	2396.29
580.66	2395.70
581.01	2394.22
581.36	2392.11
581.71	2390.85
582.06	2389.91
582.42	2389.15
582.77	2387.23
583.12	2385.75
583.47	2384.76
583.82	2384.25
584.17	2383.34
584.53	2381.36
584.88	2379.45
585.23	2377.82
585.58	2375.56
585.93	2373.62
586.28	2371.63
586.63	2369.40
586.98	2367.15
587.34	2365.29
587.69	2363.04
588.04	2361.21
588.39	2360.01
588.74	2357.78
589.09	2355.40
589.44	2352.50
589.79	2350.21
590.14	2348.46
590.49	2345.79
590.84	2342.06
591.19	2339.20
591.54	2335.89
591.89	2332.05
592.25	2329.03
592.60	2325.05
592.95	2321.29
593.30	2317.27
593.65	2313.12
594.00	2308.88
594.35	2305.93
594.70	2301.36
595.05	2296.84
595.40	2291.50
595.75	2285.82
596.10	2282.15
596.45	2277.41
596.80	2272.81
597.15	2267.66
597.50	2261.80
597.85	2256.91
598.19	2251.82
598.54	2246.04
598.89	2241.12
599.24	2236.77
599.59	2230.72
599.94	2224.96
600.29	2219.18
600.64	2213.49
600.99	2206.90
601.34	2201.53
601.69	2194.62
602.04	2188.34
602.39	2181.95
602.74	2176.02
603.08	2170.64
603.43	2164.30
603.78	2157.51
604.13	2150.62
604.48	2143.60
604.83	2137.66
605.18	2131.59
605.53	2124.66
605.87	2117.86
606.22	2111.08
606.57	2103.20
606.92	2095.33
607.27	2088.41
607.62	2081.73
607.96	2074.61
608.31	2068.17
608.66	2060.45
609.01	2053.11
609.36	2046.09
609.70	2038.43
610.05	2030.60
610.40	2022.40
610.75	2014.10
611.10	2006.59
611.44	1997.85
611.79	1989.16
612.14	1979.16
612.49	1968.62
612.83	1959.36
613.18	1950.21
613.53	1940.82
613.88	1931.31
614.22	1922.82
614.57	1913.09
614.92	1902.61
615.27	1892.62
615.61	1882.63
615.96	1873.07
616.31	1863.52
616.65	1854.25
617.00	1844.49
617.35	1835.03
617.70	1825.38
618.04	1815.41
618.39	1805.09
618.74	1795.41
619.08	1785.92
619.43	1777.37
619.78	1769.19
620.12	1760.72
620.47	1750.92
620.82	1740.76
621.16	1730.99
621.51	1720.99
621.85	1711.23
622.20	1700.75
622.55	1690.23
622.89	1680.43
623.24	1670.73
623.59	1660.97
623.93	1650.79
624.28	1641.12
624.62	1631.01
624.97	1620.82
625.32	1611.18
625.66	1602.33
626.01	1593.51
626.35	1583.95
626.70	1573.81
627.04	1563.72
627.39	1553.70
627.73	1544.51
628.08	1535.51
628.43	1525.87
628.77	1516.83
629.12	1508.02
629.46	1500.21
629.81	1491.87
630.15	1482.23
630.50	1472.51
630.84	1462.10
631.19	1452.16
631.53	1442.83
631.88	1432.62
632.22	1422.57
632.57	1413.28
632.91	1403.28
633.26	1393.63
633.60	1384.24
633.95	1374.96
634.29	1365.54
634.64	1356.16
634.98	1346.42
635.32	1337.22
635.67	1328.81
636.01	1319.51
636.36	1309.66
636.70	1300.19
637.05	1290.89
637.39	1282.05
637.73	1273.39
638.08	1265.85
638.42	1257.77
638.77	1249.06
639.11	1240.94
639.45	1233.21
639.80	1224.60
640.14	1215.88
640.49	1206.98
640.83	1198.22
641.17	1190.15
641.52	1181.97
641.86	1173.33
642.20	1165.36
642.55	1156.68
642.89	1147.94
643.23	1139.42
643.58	1131.28
643.92	1122.33
644.26	1113.66
644.61	1105.29
644.95	1096.54
645.29	1087.36
645.64	1078.19
645.98	1069.76
646.32	1061.89
646.66	1053.38
647.01	1045.01
647.35	1036.99
647.69	1028.68
648.04	1020.38
648.38	1011.59
648.72	1002.88
649.06	994.58
649.41	986.48
649.75	978.57
650.09	970.62
650.43	962.56
650.78	954.39
651.12	946.81
651.46	939.50
651.80	932.28
652.14	925.03
652.49	917.54
652.83	910.33
653.17	902.64
653.51	894.96
653.85	887.73
654.20	880.53
654.54	873.01
654.88	865.99
655.22	858.90
655.56	851.93
655.90	845.21
656.25	838.65
656.59	831.76
656.93	824.91
657.27	817.92
657.61	811.08
657.95	805.10
658.29	799.27
658.64	793.14
658.98	786.76
659.32	780.25
659.66	774.02
660.00	767.76
660.34	761.81
660.68	755.89
661.02	749.72
661.36	743.88
661.70	738.20
662.05	732.49
662.39	727.09
662.73	721.82
663.07	716.49
663.41	710.97
663.75	705.45
664.09	699.85
664.43	694.58
664.77	689.27
665.11	683.54
665.45	677.72
665.79	672.03
666.13	666.36
666.47	661.03
666.81	655.77
667.15	650.44
667.49	645.35
667.83	640.14
668.17	634.99
668.51	629.95
668.85	625.16
669.19	620.41
669.53	615.39
669.87	610.35
670.21	605.65
670.55	600.94
670.89	596.55
671.23	592.30
671.57	587.95
671.91	583.70
672.25	579.63
672.58	575.55
672.92	571.50
673.26	567.68
673.60	563.86
673.94	560.06
674.28	556.52
674.62	552.82
674.96	549.14
675.30	545.65
675.64	542.04
675.97	538.49
676.31	534.95
676.65	531.40
676.99	527.99
677.33	524.22
677.67	520.63
678.01	516.81
678.34	513.26
678.68	509.79
679.02	506.30
679.36	502.61
679.70	499.07
680.04	495.62
680.37	492.24
680.71	489.01
681.05	485.83
681.39	482.65
681.73	479.53
682.06	476.58
682.40	473.51
682.74	470.37
683.08	467.19
683.42	464.02
683.75	461.12
684.09	458.17
684.43	455.43
684.77	452.59
685.10	449.84
685.44	446.99
685.78	444.09
686.12	441.35
686.45	438.73
686.79	436.06
687.13	433.58
687.46	430.95
687.80	428.34
688.14	425.58
688.48	423.03
688.81	420.41
689.15	417.83
689.49	415.33
689.82	412.88
690.16	410.41
690.50	408.00
690.83	405.54
691.17	403.08
691.51	400.68
691.84	398.51
692.18	396.30
692.52	394.11
692.85	392.05
693.19	389.96
693.52	387.83
693.86	385.69
694.20	383.57
694.53	381.52
694.87	379.31
695.21	377.28
695.54	375.16
695.88	373.05
696.21	370.98
696.55	368.88
696.88	366.86
697.22	364.94
697.56	363.10
697.89	361.29
698.23	359.62
698.56	357.87
698.90	356.09
699.23	354.22
699.57	352.42
699.90	350.60
700.24	348.83
700.58	347.08
700.91	345.51
701.25	343.98
701.58	342.39
701.92	340.90
702.25	339.39
702.59	337.80
702.92	336.30
703.26	334.73
703.59	333.33
703.93	332.08
704.26	330.66
704.60	329.17
704.93	327.70
705.26	326.23
705.60	324.79
705.93	323.34
706.27	322.03
706.60	320.76
706.94	319.63
707.27	318.29
707.61	317.01
707.94	315.68
708.27	314.17
708.61	312.75
708.94	311.36
709.28	310.04
709.61	308.84
709.94	307.63
710.28	306.48
710.61	305.30
710.95	303.94
711.28	302.90
711.61	301.75
711.95	300.64
712.28	299.45
712.61	298.26
712.95	297.22
713.28	296.22
713.61	295.11
713.95	293.92
714.28	292.95
714.61	291.91
714.95	290.85
715.28	289.90
715.61	288.90
715.95	287.97
716.28	287.05
716.61	286.09
716.95	285.17
717.28	284.26
717.61	283.30
717.94	282.41
718.28	281.38
718.61	280.55
718.94	279.66
719.27	278.82
719.61	278.05
719.94	277.22
720.27	276.28
720.60	275.47
720.94	274.72
721.27	273.93
721.60	273.31
721.93	272.66
722.27	272.02
722.60	271.43
722.93	270.77
723.26	270.13
723.59	269.47
723.93	268.84
724.26	268.20
724.59	267.59
724.92	267.04
725.25	266.55
725.59	265.98
725.92	265.48
726.25	264.96
726.58	264.37
726.91	263.79
727.24	263.25
727.57	262.69
727.91	262.10
728.24	261.57
728.57	260.95
728.90	260.39
729.23	259.80
729.56	259.36
729.89	258.84
730.22	258.30
730.55	257.80
730.89	257.29
731.22	256.78
731.55	256.26
731.88	255.75
732.21	255.20
732.54	254.69
732.87	254.21
733.20	253.75
733.53	253.33
733.86	252.90
734.19	252.47
734.52	252.07
734.85	251.83
735.18	251.34
735.51	251.02
735.84	250.64
736.17	250.28
736.50	249.74
736.83	249.62
737.16	249.24
737.49	248.86
737.82	248.48
738.15	248.12
738.48	247.79
738.81	247.40
739.14	247.00
739.47	246.62
739.80	246.26
740.13	245.92
740.46	245.56
740.79	245.20
741.12	244.88
741.45	244.55
741.78	244.08
742.11	243.87
742.44	243.51
742.77	243.21
743.10	242.85
743.43	242.52
743.75	241.94
744.08	241.85
744.41	241.49
744.74	241.12
745.07	240.75
745.40	240.44
745.73	240.20
746.06	239.92
746.39	239.62
746.71	239.26
747.04	238.89
747.37	238.55
747.70	238.27
748.03	237.96
748.36	237.68
748.68	237.41
749.01	237.02
749.34	236.73
749.67	236.47
750.00	236.23
750.33	236.11
750.65	235.89
750.98	235.39
751.31	235.15
751.64	234.95
751.97	234.85
752.29	234.63
752.62	234.30
752.95	234.00
753.28	233.72
753.60	233.50
753.93	233.35
754.26	233.13
754.59	232.88
754.91	232.66
755.24	232.42
755.57	232.15
755.90	231.97
756.22	231.72
756.55	231.46
756.88	231.23
757.20	230.89
757.53	230.61
757.86	230.40
758.19	230.23
758.51	230.03
758.84	229.73
759.17	229.52
759.49	229.36
759.82	229.31
760.15	229.16
760.47	228.94
760.80	228.69
761.13	228.57
761.45	228.38
761.78	228.18
762.11	228.02
762.43	227.86
762.76	227.69
763.08	227.58
763.41	227.44
763.74	227.28
764.06	227.12
764.39	227.00
764.71	226.84
765.04	226.68
765.37	226.52
765.69	226.39
766.02	226.22
766.34	226.08
766.67	225.86
767.00	225.79
767.32	225.82
767.65	225.84
767.97	225.68
768.30	225.55
768.62	225.41
768.95	225.28
769.27	225.14
769.60	225.05
769.92	224.86
770.25	224.71
770.57	224.56
770.90	224.45
771.22	224.28
771.55	224.20
771.87	224.10
772.20	223.96
772.52	224.01
772.85	224.18
773.17	224.06
773.50	223.95
773.82	223.84
774.15	223.65
774.47	223.41
774.80	223.31
775.12	223.23
775.45	223.15
775.77	223.04
776.09	223.00
776.42	222.86
776.74	222.85
777.07	222.76
777.39	222.68
777.72	222.58
778.04	222.56
778.36	222.43
778.69	222.34
779.01	222.33
779.33	222.07
779.66	221.74
779.98	221.64
780.31	221.59
780.63	221.56
780.95	221.51
781.28	221.44
781.60	221.35
781.92	221.27
782.25	221.22
782.57	221.18
782.89	221.05
783.22	221.01
783.54	220.91
783.86	220.85
784.19	220.80
784.51	220.80
784.83	220.69
785.16	220.62
785.48	220.58
785.80	220.49
786.12	220.43
786.45	220.41
786.77	220.36
787.09	220.26
787.42	220.12
787.74	220.07
788.06	220.01
788.38	219.96
788.71	219.91
789.03	219.83
789.35	219.78
789.67	219.73
789.99	219.68
790.32	219.61
790.64	219.58
790.96	219.68
791.28	219.55
791.61	219.50
791.93	219.50
792.25	219.44
792.57	219.52
792.89	219.44
793.21	219.37
793.54	219.31
793.86	219.27
794.18	219.22
794.50	219.16
794.82	219.09
795.14	219.06
795.47	219.08
795.79	219.05
796.11	218.99
796.43	218.94
796.75	218.88
797.07	218.85
797.39	218.79
797.71	218.60
798.04	218.59
798.36	218.61
798.68	218.56
799.00	218.52
799.32	218.40
799.64	218.43
799.96	218.41
800.28	218.44
800.60	218.39
800.92	218.40
801.24	218.37
801.56	218.40
801.89	218.34
802.21	218.31
802.53	218.26
802.85	218.25
803.17	218.37
803.49	218.29
803.81	218.23
804.13	218.18
804.45	218.18
804.77	218.18
805.09	218.11
805.41	218.07
805.73	218.01
806.05	217.93
806.37	217.91
806.69	217.88
807.01	217.84
807.33	217.83
807.65	217.72
807.97	217.78
808.28	217.72
808.60	217.71
808.92	217.62
809.24	217.70
809.56	217.63
809.88	217.51
810.20	217.51
810.52	217.53
810.84	217.48
811.16	217.39
811.48	217.36
811.80	217.43
812.12	217.43
812.43	217.49
812.75	217.48
813.07	217.44
813.39	217.42
813.71	217.36
814.03	217.32
814.35	217.32
814.67	217.21
814.98	217.16
815.30	217.11
815.62	217.10
815.94	216.95
816.26	216.97
816.58	216.92
816.89	216.91
817.21	216.83
817.53	216.83
817.85	216.87
818.17	216.85
818.48	216.76
818.80	216.76
819.12	216.69
819.44	216.65
819.76	216.59
820.07	216.57
820.39	216.55
820.71	216.54
821.03	216.53
821.34	216.48
821.66	216.48
821.98	216.52
822.30	216.50
822.61	216.61
822.93	216.56
823.25	216.52
823.57	216.49
823.88	216.53
824.20	216.54
824.52	216.53
824.83	216.49
825.15	216.43
825.47	216.42
825.79	216.41
826.10	216.38
826.42	216.37
826.74	216.39
827.05	216.36
827.37	216.38
827.69	216.33
828.00	216.33
828.32	216.36
828.64	216.30
828.95	216.41
829.27	216.29
829.58	216.32
829.90	216.38
830.22	216.40
830.53	216.32
830.85	216.30
831.17	216.24
831.48	216.24
831.80	216.28
832.11	216.23
832.43	216.17
832.75	216.14
833.06	216.27
833.38	216.19
833.69	216.20
834.01	216.18
834.32	216.20
834.64	216.18
834.96	216.13
835.27	216.11
835.59	216.03
835.90	216.03
836.22	215.99
836.53	215.93
836.85	215.90
837.16	216.10
837.48	216.08
837.79	216.15
838.11	216.16
838.42	216.13
838.74	216.15
839.05	216.14
839.37	216.15
839.68	215.98
840.00	215.95
840.31	215.93
840.63	215.92
840.94	215.88
841.26	215.86
841.57	215.85
841.88	215.86
842.20	215.83
842.51	215.77
842.83	215.73
843.14	215.90
843.46	215.91
843.77	215.80
844.08	215.74
844.40	215.64
844.71	215.58
845.03	215.54
845.34	215.52
845.65	215.52
845.97	215.49
846.28	215.50
846.60	215.54
846.91	215.54
847.22	215.49
847.54	215.54
847.85	215.55
848.16	215.57
848.48	215.54
848.79	215.63
849.10	215.69
849.42	215.71
849.73	215.53
850.04	215.50
850.36	215.44
850.67	215.51
850.98	215.51
851.30	215.55
851.61	215.52
851.92	215.51
852.23	215.57
852.55	215.59
852.86	215.58
853.17	215.58
853.49	215.62
853.80	215.67
854.11	215.67
854.42	215.67
854.74	215.64
855.05	215.63
855.36	215.49
855.67	215.48
855.99	215.47
856.30	215.69
856.61	215.69
856.92	215.66
857.23	215.61
857.55	215.62
857.86	215.59
858.17	215.66
858.48	215.59
858.79	215.56
859.11	215.59
859.42	215.59
859.73	215.56
860.04	215.55
860.35	215.47
860.66	215.43
860.98	215.43
861.29	215.43
861.60	215.40
861.91	215.46
862.22	215.41
862.53	215.36
862.84	215.13
863.16	215.14
863.47	215.14
863.78	215.17
864.09	215.18
864.40	215.18
864.71	215.17
865.02	215.20
865.33	215.14
865.64	215.12
865.95	215.12
866.27	215.23
866.58	215.19
866.89	215.23
867.20	215.22
867.51	215.16
867.82	215.13
868.13	215.20
868.44	215.15
868.75	215.20
869.06	215.23
869.37	215.25
869.68	215.21
869.99	215.25
870.30	215.25
870.61	215.27
870.92	215.24
871.23	215.20
871.54	215.22
871.85	215.28
872.16	215.27
872.47	215.22
872.78	215.09
873.09	215.11
873.40	215.08
873.71	215.06
874.02	215.07
874.33	215.07
874.64	215.03
874.95	215.02
875.26	214.99
875.56	214.93
875.87	214.90
876.18	214.91
876.49	215.06
876.80	215.00
877.11	214.97
877.42	214.98
877.73	215.00
878.04	214.96
878.35	214.97
878.66	214.98
878.96	215.00
879.27	214.97
879.58	214.96
879.89	214.95
880.20	215.00
880.51	215.01
880.82	215.00
881.12	215.02
881.43	215.01
881.74	214.98
882.05	215.00
882.36	215.01
882.67	214.99
882.97	214.77
883.28	214.77
883.59	214.74
883.90	214.80
884.21	214.81
884.51	214.82
884.82	214.77
885.13	214.75
885.44	214.76
885.74	214.81
886.05	214.82
886.36	214.84
886.67	214.76
886.98	214.86
887.28	214.87
887.59	214.86
887.90	214.88
888.20	214.86
888.51	214.90
888.82	214.86
889.13	214.90
889.43	215.08
889.74	215.07
890.05	215.10
890.35	215.03
890.66	214.98
890.97	214.97
891.28	214.96
891.58	214.97
891.89	214.97
892.20	214.93
892.50	214.87
892.81	214.87
893.12	214.88
893.42	214.82
893.73	214.82
894.04	214.82
894.34	214.83
894.65	214.84
894.95	214.79
895.26	214.83
895.57	214.93
895.87	214.75
896.18	214.80
896.48	214.81
896.79	214.81
897.10	214.87
897.40	214.86
897.71	214.87
898.01	214.83
898.32	214.83
898.63	214.82
898.93	214.86
899.24	214.87
899.54	214.85
899.85	214.83
900.15	214.82
900.46	214.79
900.76	214.79
901.07	214.81
901.38	214.86
901.68	214.90
901.99	214.78
902.29	214.80
902.60	214.78
902.90	214.78
903.21	214.78
903.51	214.74
903.82	214.80
904.12	214.84
904.43	214.86
904.73	214.86
905.03	214.87
905.34	215.07
905.64	215.06
905.95	215.07
906.25	215.08
906.56	215.08
906.86	215.10
907.17	215.09
907.47	215.10
907.77	215.06
908.08	214.99
908.38	214.99
908.69	214.98
908.99	215.02
909.30	215.00
909.60	215.01
909.90	215.01
910.21	214.95
910.51	214.90
910.81	214.91
911.12	214.88
911.42	214.90
911.73	214.69
912.03	214.68
912.33	214.72
912.64	214.71
912.94	214.68
913.24	214.64
913.55	214.63
913.85	214.63
914.15	214.66
914.46	214.69
914.76	214.67
915.06	214.66
915.37	214.60
915.67	214.61
915.97	214.61
916.27	214.60
916.58	214.62
916.88	214.61
917.18	214.60
917.49	214.76
917.79	214.71
918.09	214.75
918.39	214.84
918.70	214.84
919.00	214.86
919.30	214.94
919.60	214.98
919.91	214.97
920.21	214.98
920.51	214.93
920.81	214.92
921.12	214.96
921.42	214.97
921.72	214.98
922.02	214.98
922.32	215.00
922.63	214.98
922.93	215.04
923.23	215.06
923.53	215.04
923.83	214.94
924.13	215.01
924.44	215.00
924.74	215.06
925.04	215.08
925.34	215.08
925.64	215.01
925.94	214.97
926.24	215.07
926.55	215.04
926.85	215.09
927.15	215.08
927.45	215.09
927.75	215.08
928.05	215.07
928.35	215.08
928.65	215.14
928.95	215.19
929.26	215.13
929.56	215.16
929.86	215.20
930.16	215.16
930.46	215.15
930.76	215.12
931.06	215.00
931.36	214.95
931.66	214.98
931.96	215.02
932.26	215.07
932.56	215.01
932.86	215.03
933.16	215.02
933.46	214.98
933.76	214.92
934.06	215.03
934.36	215.10
934.66	215.10
934.96	215.04
935.26	215.03
935.56	215.06
935.86	215.02
936.16	214.99
936.46	214.96
936.76	214.96
937.06	214.97
937.36	214.98
937.66	215.01
937.96	214.97
938.26	214.91
938.56	214.87
938.86	214.85
939.16	214.89
939.46	214.92
939.76	214.96
940.06	214.98
940.35	214.89
940.65	214.81
940.95	214.83
941.25	214.77
941.55	214.73
941.85	214.69
942.15	214.72
942.45	214.78
942.75	214.76
943.04	214.75
943.34	214.76
943.64	214.75
943.94	214.69
944.24	214.70
944.54	214.71
944.84	214.68
945.13	214.66
945.43	214.59
945.73	214.54
946.03	214.49
946.33	214.47
946.62	214.44
946.92	214.41
947.22	214.40
947.52	214.43
947.82	214.47
948.11	214.46
948.41	214.45
948.71	214.39
949.01	214.40
949.31	214.36
949.60	214.33
949.90	214.33
950.20	214.32
950.50	214.32
950.79	214.32
951.09	214.38
951.39	214.37
951.69	214.39
951.98	214.45
952.28	214.47
952.58	214.46
952.87	214.48
953.17	214.53
953.47	214.52
953.76	214.52
954.06	214.48
954.36	214.45
954.66	214.45
954.95	214.51
955.25	214.52
955.55	214.54
955.84	214.52
956.14	214.56
956.44	214.58
956.73	214.53
957.03	214.55
957.32	214.55
957.62	214.52
957.92	214.53
958.21	214.50
958.51	214.77
958.81	214.79
959.10	214.82
959.40	214.86
959.69	214.87
959.99	214.90
960.29	214.90
960.58	214.92
960.88	215.02
961.17	214.95
961.47	215.00
961.76	215.00
962.06	215.04
962.36	215.00
962.65	215.04
962.95	215.11
963.24	215.07
963.54	215.09
963.83	215.13
964.13	215.09
964.42	215.06
964.72	214.88
965.01	214.89
965.31	214.85
965.60	214.78
965.90	214.93
966.19	214.89
966.49	214.90
966.78	214.89
967.08	214.88
967.37	214.89
967.67	214.84
967.96	214.88
968.26	214.86
968.55	214.86
968.85	214.83
969.14	214.80
969.43	214.81
969.73	214.78
970.02	214.78
970.32	214.79
970.61	214.79
970.91	214.71
971.20	214.66
971.49	214.66
971.79	214.71
972.08	214.56
972.38	214.58
972.67	214.58
972.96	214.58
973.26	214.51
973.55	214.58
973.85	214.59
974.14	214.58
974.43	214.58
974.73	214.57
975.02	214.56
975.31	214.56
975.61	214.57
975.90	214.53
976.19	214.51
976.49	214.51
976.78	214.54
977.07	214.57
977.37	214.61
977.66	214.62
977.95	214.57
978.24	214.56
978.54	214.58
978.83	214.57
979.12	214.55
979.42	214.53
979.71	214.47
980.00	214.46
980.29	214.46
980.59	214.45
980.88	214.50
981.17	214.50
981.46	214.48
981.76	214.48
982.05	214.54
982.34	214.56
982.63	214.59
982.93	214.54
983.22	214.59
983.51	214.58
983.80	214.62
984.09	214.67
984.39	214.63
984.68	214.60
984.97	214.61
985.26	214.61
985.55	214.62
985.85	214.62
986.14	214.66
986.43	214.70
986.72	214.69
987.01	214.62
987.30	214.62
987.59	214.62
987.89	214.61
988.18	214.57
988.47	214.54
988.76	214.52
989.05	214.55
989.34	214.50
989.63	214.54
989.92	214.48
990.22	214.44
990.51	214.46
990.80	214.44
991.09	214.47
991.38	214.50
991.67	214.49
991.96	214.47
992.25	214.45
992.54	214.39
992.83	214.38
993.12	214.39
993.41	214.40
993.70	214.50
993.99	214.57
994.28	214.60
994.58	214.66
994.87	214.61
995.16	214.60
995.45	214.58
995.74	214.52
996.03	214.56
996.32	214.60
996.61	214.67
996.90	214.68
997.19	214.64
997.48	214.65
997.77	214.62
998.06	214.63
998.34	214.62
998.63	214.63
998.92	214.66
999.21	214.69
999.50	214.70
999.79	214.60
1000.08	214.54
1000.37	214.55
1000.66	214.53
1000.95	214.61
1001.24	214.59
1001.53	214.67
1001.82	214.66
1002.11	214.59
1002.40	214.61
1002.68	214.66
1002.97	214.81
1003.26	214.80
1003.55	214.77
1003.84	214.81
1004.13	214.88
1004.42	214.86
1004.71	214.87
1004.99	214.86
1005.28	214.90
1005.57	214.88
1005.86	214.88
1006.15	214.87
1006.44	214.86
1006.72	214.84
1007.01	214.81
1007.30	214.84
1007.59	214.80
1007.88	214.79
1008.17	214.84
1008.45	214.81
1008.74	214.70
1009.03	214.63
1009.32	214.64
1009.60	214.64
1009.89	214.59
1010.18	214.48
1010.47	214.49
1010.76	214.46
1011.04	214.43
1011.33	214.42
1011.62	214.43
1011.91	214.45
1012.19	214.44
1012.48	214.40
1012.77	214.40
1013.05	214.48
1013.34	214.46
1013.63	214.43
1013.92	214.46
1014.20	214.44
1014.49	214.41
1014.78	214.47
1015.06	214.40
1015.35	214.37
1015.64	214.43
1015.92	214.49
1016.21	214.53
1016.50	214.52
1016.78	214.55
1017.07	214.58
1017.36	214.54
1017.64	214.51
1017.93	214.52
1018.22	214.52
1018.50	214.55
1018.79	214.55
1019.08	214.46
1019.36	214.47
1019.65	214.46
1019.93	214.51
1020.22	214.52
1020.51	214.62
1020.79	214.57
1021.08	214.25
1021.36	214.35
1021.65	214.44
1021.94	214.54
1022.22	214.36
1022.51	213.84
1022.79	215.32
1023.08	214.42
1023.36	216.91
1023.65	213.78
>>>>>End Processed Spectral Data<<<<<
