SpectraSuite Data File
++++++++++++++++++++++++++++++++++++
Date: Tue Jan 29 15:53:49 EST 2013
User: group
Dark Spectrum Present: No
Reference Spectrum Present: No
Number of Sampled Component Spectra: 1
Spectrometers: USB2E7196
Integration Time (usec): 65000 (USB2E7196)
Spectra Averaged: 100 (USB2E7196)
Boxcar Smoothing: 10 (USB2E7196)
Correct for Electrical Dark: No (USB2E7196)
Strobe/Lamp Enabled: No (USB2E7196)
Correct for Detector Non-linearity: No (USB2E7196)
Correct for Stray Light: No (USB2E7196)
Number of Pixels in Processed Spectrum: 2048
>>>>>Begin Processed Spectral Data<<<<<
339.09	0.00
339.48	202.57
339.86	204.82
340.24	205.96
340.63	207.14
341.01	211.90
341.39	210.07
341.78	211.97
342.16	213.33
342.54	213.07
342.93	202.22
343.31	212.42
343.69	212.99
344.07	213.45
344.46	213.89
344.84	214.31
345.22	214.48
345.60	214.75
345.99	214.93
346.37	215.06
346.75	215.18
347.13	215.26
347.52	215.31
347.90	215.48
348.28	215.49
348.66	215.57
349.05	215.55
349.43	215.61
349.81	215.69
350.19	215.75
350.57	215.85
350.96	215.92
351.34	216.07
351.72	216.15
352.10	216.26
352.48	216.30
352.87	216.35
353.25	216.42
353.63	216.49
354.01	216.53
354.39	216.60
354.77	216.68
355.15	216.80
355.54	216.84
355.92	216.81
356.30	216.89
356.68	217.08
357.06	217.18
357.44	217.23
357.82	217.27
358.20	217.35
358.58	217.38
358.97	217.48
359.35	217.57
359.73	217.67
360.11	217.73
360.49	217.80
360.87	217.85
361.25	217.92
361.63	218.00
362.01	218.08
362.39	218.10
362.77	218.13
363.15	218.17
363.53	218.23
363.91	218.28
364.29	218.30
364.67	218.15
365.05	218.18
365.43	218.22
365.81	218.23
366.19	218.34
366.57	218.46
366.95	218.44
367.33	218.34
367.71	218.33
368.09	218.35
368.47	218.34
368.85	218.32
369.23	218.33
369.61	218.27
369.99	218.27
370.37	218.31
370.75	218.38
371.13	218.30
371.51	218.26
371.89	218.25
372.27	218.22
372.65	218.19
373.03	218.17
373.41	218.11
373.78	218.07
374.16	217.91
374.54	217.80
374.92	217.78
375.30	217.77
375.68	217.69
376.06	217.67
376.44	217.63
376.82	217.62
377.19	217.57
377.57	217.54
377.95	217.44
378.33	217.34
378.71	217.22
379.09	217.20
379.47	217.18
379.84	217.15
380.22	217.10
380.60	217.03
380.98	216.94
381.36	216.93
381.73	216.86
382.11	216.86
382.49	216.80
382.87	216.69
383.25	216.65
383.62	216.85
384.00	216.76
384.38	216.72
384.76	216.71
385.13	216.75
385.51	216.72
385.89	216.70
386.27	216.69
386.64	216.67
387.02	216.63
387.40	216.57
387.78	216.53
388.15	216.53
388.53	216.55
388.91	216.56
389.29	216.51
389.66	216.51
390.04	216.48
390.42	216.52
390.79	216.56
391.17	216.55
391.55	216.31
391.92	216.31
392.30	216.32
392.68	216.28
393.05	216.25
393.43	216.23
393.81	216.24
394.18	216.21
394.56	216.20
394.94	216.25
395.31	216.24
395.69	216.31
396.06	216.34
396.44	216.31
396.82	216.33
397.19	216.47
397.57	216.49
397.95	216.53
398.32	216.50
398.70	216.55
399.07	216.65
399.45	216.69
399.82	216.76
400.20	216.79
400.58	216.82
400.95	216.78
401.33	216.89
401.70	217.07
402.08	217.18
402.45	217.28
402.83	217.40
403.20	217.52
403.58	217.61
403.95	217.74
404.33	217.90
404.71	218.03
405.08	218.29
405.46	218.46
405.83	218.65
406.21	218.83
406.58	219.06
406.96	219.24
407.33	219.50
407.70	219.79
408.08	220.25
408.45	220.62
408.83	221.01
409.20	221.34
409.58	221.62
409.95	222.05
410.33	222.51
410.70	222.92
411.08	223.46
411.45	224.01
411.82	224.54
412.20	225.20
412.57	225.99
412.95	226.49
413.32	227.29
413.69	228.09
414.07	228.97
414.44	229.89
414.82	230.87
415.19	231.98
415.56	233.13
415.94	234.22
416.31	235.58
416.68	236.94
417.06	238.47
417.43	239.94
417.81	241.60
418.18	243.29
418.55	245.12
418.93	247.05
419.30	249.07
419.67	251.23
420.04	253.37
420.42	255.61
420.79	258.32
421.16	260.99
421.54	263.77
421.91	266.61
422.28	269.55
422.66	272.70
423.03	275.82
423.40	279.01
423.77	282.49
424.15	285.98
424.52	289.63
424.89	293.61
425.26	297.55
425.64	301.31
426.01	305.40
426.38	309.69
426.75	314.03
427.13	318.54
427.50	323.29
427.87	328.29
428.24	333.29
428.61	338.05
428.99	343.31
429.36	348.99
429.73	354.61
430.10	360.28
430.47	366.06
430.85	372.11
431.22	378.46
431.59	385.19
431.96	391.70
432.33	398.89
432.70	405.82
433.08	413.93
433.45	421.64
433.82	429.31
434.19	437.82
434.56	446.14
434.93	454.11
435.30	462.00
435.68	470.72
436.05	479.27
436.42	487.80
436.79	495.56
437.16	503.98
437.53	512.90
437.90	521.62
438.27	530.26
438.64	539.05
439.01	547.25
439.38	554.54
439.75	561.54
440.13	569.48
440.50	577.09
440.87	583.16
441.24	589.47
441.61	596.43
441.98	601.50
442.35	607.46
442.72	613.54
443.09	619.24
443.46	622.76
443.83	625.16
444.20	627.17
444.57	630.15
444.94	631.54
445.31	632.86
445.68	634.15
446.05	634.66
446.42	633.87
446.79	632.92
447.16	631.78
447.53	631.02
447.90	627.87
448.27	624.68
448.64	620.24
449.01	617.02
449.37	611.44
449.74	606.01
450.11	599.49
450.48	592.36
450.85	585.29
451.22	579.14
451.59	573.33
451.96	567.81
452.33	560.31
452.70	553.50
453.07	545.41
453.43	537.19
453.80	529.26
454.17	521.68
454.54	514.50
454.91	506.80
455.28	499.26
455.65	492.24
456.02	485.15
456.38	479.19
456.75	471.71
457.12	465.46
457.49	459.35
457.86	453.47
458.23	448.41
458.59	442.81
458.96	437.14
459.33	432.06
459.70	426.96
460.07	422.93
460.43	418.27
460.80	413.91
461.17	410.13
461.54	406.12
461.91	402.28
462.27	398.35
462.64	395.08
463.01	391.47
463.38	387.94
463.74	384.37
464.11	381.29
464.48	378.58
464.85	375.64
465.21	373.29
465.58	370.79
465.95	367.78
466.32	365.27
466.68	362.76
467.05	360.32
467.42	357.90
467.78	355.35
468.15	352.98
468.52	351.20
468.88	348.81
469.25	346.76
469.62	345.08
469.98	343.25
470.35	341.55
470.72	339.94
471.08	338.29
471.45	336.90
471.82	335.47
472.18	333.92
472.55	332.81
472.92	331.54
473.28	330.44
473.65	329.40
474.02	328.32
474.38	327.49
474.75	326.82
475.11	326.06
475.48	325.56
475.85	325.11
476.21	324.63
476.58	324.34
476.94	324.17
477.31	323.91
477.67	323.70
478.04	323.49
478.41	323.48
478.77	323.63
479.14	323.57
479.50	323.72
479.87	324.05
480.23	324.35
480.60	324.58
480.96	324.84
481.33	325.41
481.69	326.03
482.06	326.62
482.42	327.12
482.79	327.72
483.15	328.50
483.52	329.48
483.88	330.37
484.25	331.34
484.61	332.29
484.98	333.36
485.34	334.71
485.71	336.09
486.07	337.53
486.44	338.85
486.80	340.42
487.17	342.05
487.53	343.83
487.90	345.66
488.26	347.69
488.62	349.81
488.99	351.87
489.35	354.00
489.72	356.36
490.08	358.84
490.44	361.42
490.81	364.11
491.17	366.75
491.54	369.78
491.90	372.79
492.26	376.05
492.63	379.43
492.99	382.88
493.36	386.64
493.72	390.46
494.08	394.49
494.45	398.78
494.81	403.20
495.17	407.61
495.54	412.29
495.90	417.05
496.26	421.96
496.63	427.12
496.99	432.56
497.35	438.10
497.72	443.87
498.08	449.78
498.44	455.87
498.80	462.31
499.17	468.80
499.53	475.50
499.89	482.34
500.26	489.34
500.62	496.37
500.98	503.67
501.34	511.13
501.71	518.79
502.07	526.55
502.43	534.44
502.79	542.55
503.16	550.91
503.52	559.45
503.88	568.12
504.24	577.07
504.60	585.99
504.97	595.21
505.33	604.48
505.69	614.26
506.05	624.04
506.41	633.82
506.78	643.77
507.14	653.96
507.50	664.39
507.86	675.00
508.22	685.80
508.59	696.32
508.95	707.27
509.31	718.45
509.67	729.78
510.03	741.14
510.39	752.90
510.75	764.70
511.12	776.56
511.48	788.56
511.84	800.67
512.20	812.93
512.56	825.44
512.92	838.06
513.28	850.50
513.64	863.16
514.00	875.76
514.37	888.57
514.73	901.40
515.09	914.12
515.45	926.75
515.81	939.42
516.17	952.69
516.53	965.71
516.89	978.59
517.25	991.55
517.61	1004.80
517.97	1017.72
518.33	1030.59
518.69	1043.88
519.05	1057.26
519.41	1070.71
519.77	1084.33
520.13	1097.32
520.49	1110.27
520.85	1123.47
521.21	1136.42
521.57	1149.81
521.93	1162.65
522.29	1176.24
522.65	1189.65
523.01	1203.02
523.37	1216.01
523.73	1228.93
524.09	1241.82
524.45	1254.93
524.81	1268.00
525.17	1280.98
525.53	1293.84
525.89	1306.80
526.25	1319.53
526.61	1332.14
526.97	1344.85
527.33	1357.26
527.68	1370.26
528.04	1383.33
528.40	1395.93
528.76	1408.98
529.12	1421.44
529.48	1434.22
529.84	1446.08
530.20	1458.38
530.56	1470.49
530.91	1483.24
531.27	1495.76
531.63	1508.07
531.99	1520.29
532.35	1532.19
532.71	1544.09
533.07	1556.62
533.42	1568.29
533.78	1579.91
534.14	1591.47
534.50	1602.18
534.86	1613.37
535.21	1623.83
535.57	1634.76
535.93	1645.74
536.29	1656.45
536.65	1667.57
537.00	1678.15
537.36	1688.96
537.72	1699.39
538.08	1710.29
538.44	1720.82
538.79	1731.38
539.15	1741.85
539.51	1752.28
539.87	1763.09
540.22	1773.53
540.58	1783.94
540.94	1794.48
541.29	1804.27
541.65	1813.68
542.01	1823.81
542.37	1833.60
542.72	1843.43
543.08	1852.87
543.44	1862.72
543.79	1871.53
544.15	1880.53
544.51	1890.07
544.87	1899.51
545.22	1908.39
545.58	1916.87
545.94	1925.27
546.29	1933.39
546.65	1941.32
547.01	1949.01
547.36	1956.34
547.72	1963.72
548.07	1970.91
548.43	1978.26
548.79	1985.84
549.14	1993.59
549.50	2001.55
549.86	2008.94
550.21	2015.95
550.57	2023.29
550.92	2029.82
551.28	2036.90
551.64	2043.73
551.99	2050.95
552.35	2057.71
552.70	2064.20
553.06	2070.52
553.41	2076.54
553.77	2082.73
554.13	2088.96
554.48	2095.74
554.84	2102.51
555.19	2108.83
555.55	2115.18
555.90	2121.23
556.26	2127.70
556.61	2133.35
556.97	2138.12
557.32	2143.83
557.68	2150.11
558.03	2155.56
558.39	2160.66
558.74	2166.54
559.10	2172.05
559.45	2177.43
559.81	2183.00
560.16	2188.52
560.52	2194.46
560.87	2200.81
561.23	2206.69
561.58	2213.19
561.94	2218.44
562.29	2223.34
562.64	2229.41
563.00	2235.09
563.35	2240.68
563.71	2246.52
564.06	2252.18
564.42	2258.12
564.77	2263.25
565.12	2268.48
565.48	2273.90
565.83	2279.42
566.19	2284.85
566.54	2290.33
566.89	2294.93
567.25	2299.54
567.60	2305.24
567.96	2310.43
568.31	2315.03
568.66	2319.48
569.02	2323.47
569.37	2327.30
569.72	2331.69
570.08	2335.19
570.43	2338.22
570.78	2341.30
571.14	2344.11
571.49	2347.38
571.84	2351.10
572.20	2353.87
572.55	2356.96
572.90	2359.19
573.26	2362.37
573.61	2365.09
573.96	2367.29
574.31	2369.45
574.67	2371.40
575.02	2372.52
575.37	2374.14
575.72	2375.16
576.08	2376.58
576.43	2376.80
576.78	2377.69
577.13	2379.51
577.49	2380.83
577.84	2382.23
578.19	2383.95
578.54	2384.76
578.90	2385.97
579.25	2386.13
579.60	2386.64
579.95	2386.23
580.30	2386.62
580.66	2386.14
581.01	2384.69
581.36	2382.78
581.71	2381.80
582.06	2381.13
582.42	2380.69
582.77	2378.96
583.12	2377.76
583.47	2376.94
583.82	2376.84
584.17	2375.62
584.53	2373.81
584.88	2372.24
585.23	2370.68
585.58	2368.71
585.93	2366.79
586.28	2364.80
586.63	2362.63
586.98	2360.57
587.34	2358.93
587.69	2357.01
588.04	2355.37
588.39	2354.31
588.74	2352.12
589.09	2349.81
589.44	2346.95
589.79	2344.67
590.14	2342.89
590.49	2340.17
590.84	2336.64
591.19	2333.86
591.54	2331.06
591.89	2327.38
592.25	2324.40
592.60	2320.46
592.95	2316.69
593.30	2312.81
593.65	2308.66
594.00	2304.56
594.35	2301.77
594.70	2297.35
595.05	2292.91
595.40	2287.59
595.75	2282.19
596.10	2278.81
596.45	2274.05
596.80	2269.81
597.15	2264.71
597.50	2258.89
597.85	2254.31
598.19	2249.23
598.54	2243.50
598.89	2238.45
599.24	2233.96
599.59	2227.86
599.94	2222.29
600.29	2216.48
600.64	2210.72
600.99	2204.23
601.34	2198.93
601.69	2192.03
602.04	2185.76
602.39	2179.30
602.74	2173.43
603.08	2167.87
603.43	2161.38
603.78	2154.83
604.13	2147.68
604.48	2140.57
604.83	2134.76
605.18	2128.51
605.53	2121.69
605.87	2114.83
606.22	2108.27
606.57	2100.54
606.92	2092.73
607.27	2086.01
607.62	2079.43
607.96	2072.70
608.31	2066.33
608.66	2058.72
609.01	2051.30
609.36	2044.43
609.70	2036.81
610.05	2029.10
610.40	2021.02
610.75	2013.05
611.10	2005.33
611.44	1996.54
611.79	1987.95
612.14	1977.94
612.49	1967.45
612.83	1958.23
613.18	1949.16
613.53	1939.79
613.88	1930.23
614.22	1921.70
614.57	1911.74
614.92	1901.21
615.27	1891.10
615.61	1880.99
615.96	1871.22
616.31	1861.80
616.65	1852.29
617.00	1842.56
617.35	1832.91
617.70	1823.18
618.04	1813.09
618.39	1802.91
618.74	1793.41
619.08	1783.87
619.43	1775.38
619.78	1767.28
620.12	1758.75
620.47	1749.18
620.82	1739.05
621.16	1729.38
621.51	1719.56
621.85	1709.55
622.20	1699.23
622.55	1688.57
622.89	1678.85
623.24	1669.21
623.59	1659.46
623.93	1649.32
624.28	1639.62
624.62	1629.53
624.97	1619.25
625.32	1609.49
625.66	1600.75
626.01	1591.98
626.35	1582.48
626.70	1572.31
627.04	1562.05
627.39	1551.91
627.73	1542.46
628.08	1533.34
628.43	1523.81
628.77	1514.59
629.12	1505.97
629.46	1498.27
629.81	1489.93
630.15	1480.32
630.50	1470.37
630.84	1459.69
631.19	1449.93
631.53	1440.54
631.88	1430.38
632.22	1420.35
632.57	1410.99
632.91	1400.76
633.26	1390.89
633.60	1381.32
633.95	1371.96
634.29	1362.72
634.64	1353.40
634.98	1343.58
635.32	1334.38
635.67	1325.83
636.01	1316.62
636.36	1306.87
636.70	1297.24
637.05	1287.94
637.39	1279.00
637.73	1270.59
638.08	1263.18
638.42	1254.87
638.77	1246.10
639.11	1237.88
639.45	1230.07
639.80	1221.36
640.14	1212.65
640.49	1203.84
640.83	1195.14
641.17	1187.07
641.52	1178.93
641.86	1170.33
642.20	1162.37
642.55	1153.69
642.89	1144.77
643.23	1136.11
643.58	1127.93
643.92	1118.87
644.26	1110.15
644.61	1101.70
644.95	1092.80
645.29	1083.51
645.64	1074.45
645.98	1066.10
646.32	1058.25
646.66	1049.74
647.01	1041.40
647.35	1033.29
647.69	1024.94
648.04	1016.68
648.38	1007.71
648.72	998.71
649.06	990.22
649.41	982.11
649.75	974.19
650.09	966.33
650.43	958.25
650.78	950.04
651.12	942.49
651.46	935.20
651.80	928.00
652.14	920.65
652.49	913.21
652.83	905.95
653.17	898.19
653.51	890.69
653.85	883.53
654.20	876.42
654.54	868.96
654.88	861.87
655.22	854.74
655.56	847.92
655.90	841.35
656.25	834.85
656.59	827.97
656.93	821.11
657.27	814.11
657.61	807.32
657.95	801.34
658.29	795.45
658.64	789.28
658.98	782.88
659.32	776.50
659.66	770.35
660.00	764.01
660.34	758.14
660.68	752.05
661.02	745.81
661.36	740.01
661.70	734.32
662.05	728.68
662.39	723.20
662.73	717.92
663.07	712.56
663.41	706.99
663.75	701.39
664.09	695.74
664.43	690.40
664.77	685.12
665.11	679.38
665.45	673.57
665.79	667.89
666.13	662.34
666.47	656.96
666.81	651.68
667.15	646.44
667.49	641.29
667.83	636.14
668.17	631.01
668.51	625.95
668.85	621.17
669.19	616.35
669.53	611.47
669.87	606.41
670.21	601.77
670.55	597.18
670.89	592.83
671.23	588.61
671.57	584.34
671.91	580.07
672.25	576.02
672.58	571.97
672.92	568.00
673.26	564.09
673.60	560.36
673.94	556.56
674.28	553.03
674.62	549.33
674.96	545.65
675.30	542.19
675.64	538.62
675.97	535.07
676.31	531.57
676.65	528.06
676.99	524.75
677.33	520.96
677.67	517.40
678.01	513.70
678.34	510.18
678.68	506.71
679.02	503.22
679.36	499.58
679.70	496.06
680.04	492.63
680.37	489.33
680.71	486.04
681.05	483.00
681.39	479.84
681.73	476.76
682.06	473.79
682.40	470.81
682.74	467.65
683.08	464.56
683.42	461.49
683.75	458.54
684.09	455.57
684.43	452.87
684.77	449.99
685.10	447.23
685.44	444.36
685.78	441.57
686.12	438.90
686.45	436.27
686.79	433.68
687.13	431.23
687.46	428.68
687.80	426.09
688.14	423.28
688.48	420.73
688.81	418.16
689.15	415.69
689.49	413.11
689.82	410.72
690.16	408.16
690.50	405.79
690.83	403.40
691.17	400.95
691.51	398.57
691.84	396.42
692.18	394.27
692.52	392.17
692.85	390.07
693.19	388.01
693.52	385.88
693.86	383.72
694.20	381.61
694.53	379.52
694.87	377.43
695.21	375.42
695.54	373.34
695.88	371.24
696.21	369.09
696.55	367.08
696.88	365.12
697.22	363.25
697.56	361.38
697.89	359.59
698.23	357.92
698.56	356.19
698.90	354.43
699.23	352.62
699.57	350.79
699.90	349.03
700.24	347.27
700.58	345.57
700.91	344.01
701.25	342.48
701.58	340.95
701.92	339.38
702.25	337.82
702.59	336.28
702.92	334.85
703.26	333.41
703.59	332.01
703.93	330.79
704.26	329.42
704.60	327.98
704.93	326.51
705.26	325.08
705.60	323.65
705.93	322.24
706.27	320.92
706.60	319.70
706.94	318.50
707.27	317.16
707.61	315.92
707.94	314.61
708.27	313.17
708.61	311.78
708.94	310.46
709.28	309.24
709.61	307.99
709.94	306.77
710.28	305.55
710.61	304.38
710.95	302.97
711.28	301.93
711.61	300.81
711.95	299.77
712.28	298.56
712.61	297.42
712.95	296.42
713.28	295.44
713.61	294.36
713.95	293.25
714.28	292.30
714.61	291.26
714.95	290.26
715.28	289.30
715.61	288.35
715.95	287.47
716.28	286.55
716.61	285.72
716.95	284.80
717.28	283.96
717.61	283.04
717.94	282.21
718.28	281.21
718.61	280.36
718.94	279.48
719.27	278.68
719.61	277.93
719.94	277.05
720.27	276.10
720.60	275.29
720.94	274.51
721.27	273.75
721.60	273.12
721.93	272.46
722.27	271.85
722.60	271.21
722.93	270.50
723.26	269.87
723.59	269.16
723.93	268.57
724.26	267.92
724.59	267.30
724.92	266.72
725.25	266.23
725.59	265.68
725.92	265.16
726.25	264.63
726.58	264.06
726.91	263.52
727.24	263.02
727.57	262.47
727.91	261.89
728.24	261.36
728.57	260.74
728.90	260.19
729.23	259.57
729.56	259.13
729.89	258.61
730.22	258.09
730.55	257.56
730.89	257.01
731.22	256.47
731.55	255.99
731.88	255.49
732.21	254.95
732.54	254.44
732.87	253.94
733.20	253.50
733.53	253.05
733.86	252.64
734.19	252.17
734.52	251.79
734.85	251.53
735.18	251.10
735.51	250.79
735.84	250.39
736.17	250.03
736.50	249.52
736.83	249.43
737.16	249.03
737.49	248.66
737.82	248.28
738.15	247.98
738.48	247.64
738.81	247.27
739.14	246.90
739.47	246.57
739.80	246.23
740.13	245.88
740.46	245.49
740.79	245.14
741.12	244.81
741.45	244.49
741.78	244.05
742.11	243.78
742.44	243.41
742.77	243.11
743.10	242.76
743.43	242.45
743.75	241.88
744.08	241.82
744.41	241.52
744.74	241.22
745.07	240.86
745.40	240.57
745.73	240.34
746.06	240.02
746.39	239.77
746.71	239.41
747.04	239.06
747.37	238.75
747.70	238.50
748.03	238.20
748.36	237.91
748.68	237.63
749.01	237.29
749.34	236.99
749.67	236.72
750.00	236.49
750.33	236.39
750.65	236.14
750.98	235.65
751.31	235.43
751.64	235.18
751.97	235.11
752.29	234.82
752.62	234.49
752.95	234.25
753.28	233.94
753.60	233.72
753.93	233.60
754.26	233.41
754.59	233.12
754.91	232.92
755.24	232.69
755.57	232.45
755.90	232.24
756.22	232.04
756.55	231.80
756.88	231.56
757.20	231.23
757.53	231.00
757.86	230.79
758.19	230.59
758.51	230.42
758.84	230.09
759.17	229.92
759.49	229.76
759.82	229.70
760.15	229.55
760.47	229.40
760.80	229.16
761.13	229.00
761.45	228.81
761.78	228.63
762.11	228.47
762.43	228.31
762.76	228.14
763.08	228.00
763.41	227.87
763.74	227.74
764.06	227.58
764.39	227.42
764.71	227.28
765.04	227.10
765.37	226.95
765.69	226.82
766.02	226.67
766.34	226.55
766.67	226.34
767.00	226.25
767.32	226.23
767.65	226.22
767.97	226.08
768.30	225.98
768.62	225.87
768.95	225.71
769.27	225.60
769.60	225.52
769.92	225.39
770.25	225.24
770.57	225.08
770.90	224.95
771.22	224.80
771.55	224.67
771.87	224.57
772.20	224.44
772.52	224.51
772.85	224.66
773.17	224.54
773.50	224.43
773.82	224.31
774.15	224.11
774.47	223.88
774.80	223.77
775.12	223.68
775.45	223.57
775.77	223.51
776.09	223.44
776.42	223.34
776.74	223.27
777.07	223.16
777.39	223.15
777.72	223.05
778.04	223.04
778.36	222.95
778.69	222.88
779.01	222.83
779.33	222.58
779.66	222.24
779.98	222.14
780.31	222.07
780.63	222.06
780.95	222.01
781.28	221.92
781.60	221.83
781.92	221.77
782.25	221.73
782.57	221.67
782.89	221.59
783.22	221.51
783.54	221.42
783.86	221.38
784.19	221.26
784.51	221.26
784.83	221.14
785.16	221.08
785.48	221.05
785.80	220.99
786.12	220.92
786.45	220.86
786.77	220.86
787.09	220.77
787.42	220.65
787.74	220.63
788.06	220.61
788.38	220.57
788.71	220.50
789.03	220.45
789.35	220.40
789.67	220.32
789.99	220.30
790.32	220.24
790.64	220.23
790.96	220.34
791.28	220.24
791.61	220.19
791.93	220.18
792.25	220.11
792.57	220.16
792.89	220.10
793.21	220.06
793.54	219.99
793.86	219.98
794.18	219.94
794.50	219.85
794.82	219.79
795.14	219.77
795.47	219.77
795.79	219.72
796.11	219.63
796.43	219.60
796.75	219.55
797.07	219.51
797.39	219.44
797.71	219.28
798.04	219.24
798.36	219.25
798.68	219.19
799.00	219.19
799.32	219.10
799.64	219.10
799.96	219.08
800.28	219.07
800.60	219.00
800.92	218.98
801.24	218.92
801.56	218.94
801.89	218.89
802.21	218.85
802.53	218.77
802.85	218.80
803.17	218.89
803.49	218.81
803.81	218.73
804.13	218.71
804.45	218.64
804.77	218.65
805.09	218.59
805.41	218.54
805.73	218.47
806.05	218.38
806.37	218.38
806.69	218.33
807.01	218.31
807.33	218.31
807.65	218.23
807.97	218.26
808.28	218.20
808.60	218.18
808.92	218.11
809.24	218.22
809.56	218.16
809.88	218.05
810.20	218.03
810.52	218.08
810.84	218.01
811.16	217.99
811.48	217.92
811.80	217.98
812.12	217.96
812.43	217.96
812.75	217.96
813.07	217.88
813.39	217.87
813.71	217.82
814.03	217.77
814.35	217.77
814.67	217.69
814.98	217.68
815.30	217.65
815.62	217.61
815.94	217.44
816.26	217.40
816.58	217.37
816.89	217.37
817.21	217.29
817.53	217.30
817.85	217.29
818.17	217.28
818.48	217.18
818.80	217.22
819.12	217.17
819.44	217.12
819.76	217.07
820.07	217.05
820.39	217.02
820.71	217.02
821.03	217.01
821.34	216.99
821.66	216.98
821.98	217.00
822.30	216.98
822.61	217.11
822.93	217.13
823.25	217.12
823.57	217.11
823.88	217.15
824.20	217.13
824.52	217.10
824.83	217.09
825.15	217.05
825.47	216.99
825.79	216.99
826.10	216.95
826.42	216.93
826.74	216.94
827.05	216.90
827.37	216.90
827.69	216.84
828.00	216.82
828.32	216.79
828.64	216.75
828.95	216.86
829.27	216.78
829.58	216.75
829.90	216.74
830.22	216.72
830.53	216.66
830.85	216.64
831.17	216.62
831.48	216.60
831.80	216.62
832.11	216.60
832.43	216.56
832.75	216.57
833.06	216.69
833.38	216.63
833.69	216.64
834.01	216.64
834.32	216.65
834.64	216.63
834.96	216.63
835.27	216.58
835.59	216.50
835.90	216.44
836.22	216.44
836.53	216.41
836.85	216.41
837.16	216.58
837.48	216.58
837.79	216.62
838.11	216.63
838.42	216.63
838.74	216.67
839.05	216.67
839.37	216.65
839.68	216.53
840.00	216.51
840.31	216.54
840.63	216.47
840.94	216.43
841.26	216.45
841.57	216.45
841.88	216.47
842.20	216.42
842.51	216.40
842.83	216.39
843.14	216.55
843.46	216.55
843.77	216.45
844.08	216.42
844.40	216.35
844.71	216.30
845.03	216.23
845.34	216.17
845.65	216.16
845.97	216.16
846.28	216.18
846.60	216.18
846.91	216.14
847.22	216.15
847.54	216.19
847.85	216.19
848.16	216.16
848.48	216.14
848.79	216.22
849.10	216.24
849.42	216.22
849.73	216.05
850.04	216.02
850.36	215.95
850.67	215.99
850.98	215.98
851.30	216.01
851.61	216.01
851.92	216.02
852.23	216.06
852.55	216.07
852.86	216.08
853.17	216.08
853.49	216.10
853.80	216.16
854.11	216.18
854.42	216.19
854.74	216.15
855.05	216.19
855.36	216.11
855.67	216.13
855.99	216.12
856.30	216.38
856.61	216.37
856.92	216.37
857.23	216.36
857.55	216.35
857.86	216.35
858.17	216.41
858.48	216.38
858.79	216.36
859.11	216.37
859.42	216.34
859.73	216.33
860.04	216.34
860.35	216.27
860.66	216.22
860.98	216.19
861.29	216.26
861.60	216.19
861.91	216.21
862.22	216.15
862.53	216.13
862.84	215.86
863.16	215.93
863.47	215.89
863.78	215.88
864.09	215.89
864.40	215.90
864.71	215.91
865.02	215.94
865.33	215.91
865.64	215.88
865.95	215.90
866.27	216.04
866.58	216.03
866.89	216.02
867.20	216.00
867.51	215.99
867.82	215.91
868.13	215.99
868.44	215.92
868.75	215.93
869.06	215.95
869.37	215.98
869.68	215.92
869.99	215.95
870.30	215.92
870.61	215.94
870.92	215.90
871.23	215.84
871.54	215.85
871.85	215.92
872.16	215.93
872.47	215.89
872.78	215.75
873.09	215.76
873.40	215.73
873.71	215.76
874.02	215.77
874.33	215.75
874.64	215.72
874.95	215.76
875.26	215.74
875.56	215.74
875.87	215.72
876.18	215.70
876.49	215.90
876.80	215.88
877.11	215.80
877.42	215.83
877.73	215.83
878.04	215.82
878.35	215.78
878.66	215.78
878.96	215.78
879.27	215.77
879.58	215.78
879.89	215.77
880.20	215.83
880.51	215.81
880.82	215.83
881.12	215.82
881.43	215.80
881.74	215.76
882.05	215.72
882.36	215.74
882.67	215.73
882.97	215.50
883.28	215.49
883.59	215.51
883.90	215.53
884.21	215.56
884.51	215.53
884.82	215.49
885.13	215.46
885.44	215.45
885.74	215.46
886.05	215.43
886.36	215.44
886.67	215.35
886.98	215.43
887.28	215.44
887.59	215.45
887.90	215.47
888.20	215.54
888.51	215.60
888.82	215.60
889.13	215.63
889.43	215.81
889.74	215.80
890.05	215.81
890.35	215.78
890.66	215.74
890.97	215.74
891.28	215.73
891.58	215.76
891.89	215.79
892.20	215.76
892.50	215.75
892.81	215.76
893.12	215.78
893.42	215.67
893.73	215.70
894.04	215.68
894.34	215.67
894.65	215.64
894.95	215.60
895.26	215.59
895.57	215.67
895.87	215.49
896.18	215.56
896.48	215.58
896.79	215.59
897.10	215.59
897.40	215.61
897.71	215.63
898.01	215.59
898.32	215.59
898.63	215.58
898.93	215.57
899.24	215.57
899.54	215.54
899.85	215.53
900.15	215.52
900.46	215.49
900.76	215.51
901.07	215.49
901.38	215.51
901.68	215.49
901.99	215.37
902.29	215.35
902.60	215.31
902.90	215.26
903.21	215.27
903.51	215.26
903.82	215.31
904.12	215.35
904.43	215.39
904.73	215.37
905.03	215.40
905.34	215.59
905.64	215.58
905.95	215.58
906.25	215.57
906.56	215.55
906.86	215.59
907.17	215.55
907.47	215.58
907.77	215.52
908.08	215.51
908.38	215.55
908.69	215.61
908.99	215.64
909.30	215.68
909.60	215.65
909.90	215.70
910.21	215.64
910.51	215.55
910.81	215.55
911.12	215.57
911.42	215.59
911.73	215.38
912.03	215.37
912.33	215.40
912.64	215.45
912.94	215.42
913.24	215.39
913.55	215.40
913.85	215.38
914.15	215.43
914.46	215.43
914.76	215.38
915.06	215.34
915.37	215.29
915.67	215.25
915.97	215.27
916.27	215.20
916.58	215.23
916.88	215.24
917.18	215.25
917.49	215.37
917.79	215.33
918.09	215.39
918.39	215.46
918.70	215.44
919.00	215.46
919.30	215.56
919.60	215.57
919.91	215.52
920.21	215.55
920.51	215.52
920.81	215.55
921.12	215.61
921.42	215.64
921.72	215.66
922.02	215.68
922.32	215.72
922.63	215.74
922.93	215.80
923.23	215.81
923.53	215.78
923.83	215.64
924.13	215.67
924.44	215.65
924.74	215.67
925.04	215.74
925.34	215.74
925.64	215.63
925.94	215.60
926.24	215.74
926.55	215.71
926.85	215.72
927.15	215.70
927.45	215.69
927.75	215.69
928.05	215.71
928.35	215.72
928.65	215.74
928.95	215.77
929.26	215.66
929.56	215.68
929.86	215.70
930.16	215.67
930.46	215.65
930.76	215.67
931.06	215.58
931.36	215.49
931.66	215.51
931.96	215.55
932.26	215.58
932.56	215.50
932.86	215.50
933.16	215.51
933.46	215.50
933.76	215.50
934.06	215.59
934.36	215.64
934.66	215.62
934.96	215.57
935.26	215.57
935.56	215.65
935.86	215.61
936.16	215.56
936.46	215.58
936.76	215.56
937.06	215.52
937.36	215.55
937.66	215.55
937.96	215.53
938.26	215.47
938.56	215.43
938.86	215.45
939.16	215.50
939.46	215.54
939.76	215.55
940.06	215.53
940.35	215.42
940.65	215.31
940.95	215.31
941.25	215.28
941.55	215.23
941.85	215.22
942.15	215.26
942.45	215.35
942.75	215.34
943.04	215.37
943.34	215.40
943.64	215.38
943.94	215.35
944.24	215.37
944.54	215.40
944.84	215.42
945.13	215.39
945.43	215.35
945.73	215.30
946.03	215.28
946.33	215.22
946.62	215.24
946.92	215.21
947.22	215.22
947.52	215.23
947.82	215.28
948.11	215.24
948.41	215.22
948.71	215.15
949.01	215.15
949.31	215.11
949.60	215.11
949.90	215.15
950.20	215.13
950.50	215.13
950.79	215.13
951.09	215.16
951.39	215.15
951.69	215.15
951.98	215.22
952.28	215.22
952.58	215.24
952.87	215.21
953.17	215.26
953.47	215.24
953.76	215.25
954.06	215.18
954.36	215.14
954.66	215.11
954.95	215.17
955.25	215.18
955.55	215.18
955.84	215.16
956.14	215.15
956.44	215.19
956.73	215.17
957.03	215.17
957.32	215.16
957.62	215.16
957.92	215.23
958.21	215.19
958.51	215.41
958.81	215.47
959.10	215.53
959.40	215.58
959.69	215.62
959.99	215.63
960.29	215.66
960.58	215.67
960.88	215.77
961.17	215.73
961.47	215.78
961.76	215.79
962.06	215.81
962.36	215.81
962.65	215.81
962.95	215.78
963.24	215.78
963.54	215.77
963.83	215.79
964.13	215.77
964.42	215.69
964.72	215.54
965.01	215.53
965.31	215.47
965.60	215.42
965.90	215.53
966.19	215.49
966.49	215.50
966.78	215.51
967.08	215.51
967.37	215.53
967.67	215.44
967.96	215.48
968.26	215.48
968.55	215.48
968.85	215.49
969.14	215.48
969.43	215.48
969.73	215.46
970.02	215.43
970.32	215.41
970.61	215.41
970.91	215.33
971.20	215.27
971.49	215.30
971.79	215.35
972.08	215.21
972.38	215.22
972.67	215.21
972.96	215.25
973.26	215.20
973.55	215.27
973.85	215.27
974.14	215.23
974.43	215.24
974.73	215.21
975.02	215.21
975.31	215.23
975.61	215.28
975.90	215.25
976.19	215.25
976.49	215.26
976.78	215.32
977.07	215.31
977.37	215.33
977.66	215.32
977.95	215.27
978.24	215.27
978.54	215.35
978.83	215.34
979.12	215.31
979.42	215.32
979.71	215.27
980.00	215.30
980.29	215.26
980.59	215.24
980.88	215.30
981.17	215.27
981.46	215.28
981.76	215.24
982.05	215.33
982.34	215.34
982.63	215.31
982.93	215.29
983.22	215.36
983.51	215.39
983.80	215.45
984.09	215.50
984.39	215.49
984.68	215.45
984.97	215.43
985.26	215.42
985.55	215.41
985.85	215.32
986.14	215.37
986.43	215.43
986.72	215.43
987.01	215.33
987.30	215.32
987.59	215.30
987.89	215.30
988.18	215.23
988.47	215.24
988.76	215.25
989.05	215.22
989.34	215.19
989.63	215.24
989.92	215.20
990.22	215.15
990.51	215.16
990.80	215.17
991.09	215.17
991.38	215.22
991.67	215.20
991.96	215.22
992.25	215.21
992.54	215.16
992.83	215.17
993.12	215.20
993.41	215.25
993.70	215.33
993.99	215.38
994.28	215.41
994.58	215.41
994.87	215.39
995.16	215.41
995.45	215.38
995.74	215.28
996.03	215.29
996.32	215.33
996.61	215.37
996.90	215.34
997.19	215.33
997.48	215.31
997.77	215.30
998.06	215.29
998.34	215.28
998.63	215.31
998.92	215.29
999.21	215.31
999.50	215.29
999.79	215.21
1000.08	215.23
1000.37	215.23
1000.66	215.20
1000.95	215.24
1001.24	215.26
1001.53	215.30
1001.82	215.27
1002.11	215.25
1002.40	215.23
1002.68	215.27
1002.97	215.42
1003.26	215.43
1003.55	215.39
1003.84	215.39
1004.13	215.46
1004.42	215.44
1004.71	215.42
1004.99	215.41
1005.28	215.44
1005.57	215.42
1005.86	215.38
1006.15	215.37
1006.44	215.32
1006.72	215.39
1007.01	215.34
1007.30	215.35
1007.59	215.32
1007.88	215.34
1008.17	215.34
1008.45	215.31
1008.74	215.23
1009.03	215.12
1009.32	215.13
1009.60	215.11
1009.89	215.13
1010.18	215.06
1010.47	215.04
1010.76	215.04
1011.04	215.03
1011.33	215.06
1011.62	215.09
1011.91	215.12
1012.19	215.06
1012.48	215.08
1012.77	215.04
1013.05	215.16
1013.34	215.15
1013.63	215.15
1013.92	215.17
1014.20	215.16
1014.49	215.18
1014.78	215.18
1015.06	215.14
1015.35	215.16
1015.64	215.21
1015.92	215.22
1016.21	215.24
1016.50	215.25
1016.78	215.27
1017.07	215.27
1017.36	215.21
1017.64	215.16
1017.93	215.22
1018.22	215.25
1018.50	215.24
1018.79	215.25
1019.08	215.16
1019.36	215.17
1019.65	215.14
1019.93	215.19
1020.22	215.21
1020.51	215.31
1020.79	215.27
1021.08	214.98
1021.36	214.94
1021.65	215.36
1021.94	215.50
1022.22	215.32
1022.51	214.45
1022.79	216.23
1023.08	215.33
1023.36	217.55
1023.65	214.43
>>>>>End Processed Spectral Data<<<<<
