SpectraSuite Data File
++++++++++++++++++++++++++++++++++++
Date: Tue Jan 29 16:50:53 EST 2013
User: group
Dark Spectrum Present: No
Reference Spectrum Present: No
Number of Sampled Component Spectra: 1
Spectrometers: USB2E7196
Integration Time (usec): 65000 (USB2E7196)
Spectra Averaged: 100 (USB2E7196)
Boxcar Smoothing: 10 (USB2E7196)
Correct for Electrical Dark: No (USB2E7196)
Strobe/Lamp Enabled: No (USB2E7196)
Correct for Detector Non-linearity: No (USB2E7196)
Correct for Stray Light: No (USB2E7196)
Number of Pixels in Processed Spectrum: 2048
>>>>>Begin Processed Spectral Data<<<<<
339.09	0.00
339.48	201.99
339.86	202.67
340.24	204.32
340.63	206.10
341.01	210.06
341.39	208.43
341.78	210.22
342.16	211.13
342.54	211.71
342.93	200.71
343.31	210.86
343.69	211.36
344.07	211.83
344.46	212.29
344.84	212.69
345.22	212.87
345.60	213.14
345.99	213.33
346.37	213.48
346.75	213.60
347.13	213.72
347.52	213.83
347.90	213.97
348.28	214.02
348.66	214.10
349.05	214.06
349.43	214.11
349.81	214.19
350.19	214.24
350.57	214.33
350.96	214.42
351.34	214.51
351.72	214.62
352.10	214.73
352.48	214.78
352.87	214.83
353.25	214.91
353.63	214.97
354.01	215.04
354.39	215.13
354.77	215.19
355.15	215.32
355.54	215.36
355.92	215.40
356.30	215.49
356.68	215.67
357.06	215.77
357.44	215.81
357.82	215.87
358.20	215.93
358.58	215.96
358.97	216.05
359.35	216.18
359.73	216.27
360.11	216.34
360.49	216.41
360.87	216.44
361.25	216.49
361.63	216.61
362.01	216.65
362.39	216.69
362.77	216.73
363.15	216.73
363.53	216.76
363.91	216.76
364.29	216.75
364.67	216.59
365.05	216.60
365.43	216.64
365.81	216.71
366.19	216.80
366.57	216.89
366.95	216.86
367.33	216.80
367.71	216.79
368.09	216.81
368.47	216.81
368.85	216.79
369.23	216.84
369.61	216.74
369.99	216.82
370.37	216.81
370.75	216.88
371.13	216.83
371.51	216.78
371.89	216.78
372.27	216.75
372.65	216.76
373.03	216.74
373.41	216.72
373.78	216.67
374.16	216.54
374.54	216.45
374.92	216.40
375.30	216.37
375.68	216.29
376.06	216.26
376.44	216.20
376.82	216.19
377.19	216.12
377.57	216.08
377.95	215.93
378.33	215.87
378.71	215.72
379.09	215.71
379.47	215.69
379.84	215.64
380.22	215.60
380.60	215.51
380.98	215.45
381.36	215.39
381.73	215.32
382.11	215.30
382.49	215.26
382.87	215.19
383.25	215.14
383.62	215.36
384.00	215.25
384.38	215.24
384.76	215.23
385.13	215.26
385.51	215.24
385.89	215.18
386.27	215.16
386.64	215.19
387.02	215.15
387.40	215.08
387.78	215.04
388.15	215.05
388.53	215.01
388.91	214.98
389.29	214.92
389.66	214.94
390.04	214.90
390.42	214.91
390.79	214.92
391.17	214.91
391.55	214.67
391.92	214.65
392.30	214.62
392.68	214.57
393.05	214.53
393.43	214.55
393.81	214.55
394.18	214.53
394.56	214.51
394.94	214.56
395.31	214.56
395.69	214.63
396.06	214.65
396.44	214.71
396.82	214.69
397.19	214.82
397.57	214.81
397.95	214.88
398.32	214.83
398.70	214.89
399.07	214.96
399.45	214.98
399.82	215.05
400.20	215.12
400.58	215.15
400.95	215.14
401.33	215.23
401.70	215.47
402.08	215.54
402.45	215.60
402.83	215.70
403.20	215.82
403.58	215.94
403.95	216.09
404.33	216.23
404.71	216.43
405.08	216.68
405.46	216.83
405.83	217.02
406.21	217.27
406.58	217.50
406.96	217.72
407.33	217.99
407.70	218.28
408.08	218.77
408.45	219.17
408.83	219.57
409.20	219.90
409.58	220.19
409.95	220.65
410.33	221.15
410.70	221.60
411.08	222.14
411.45	222.70
411.82	223.26
412.20	223.95
412.57	224.82
412.95	225.42
413.32	226.26
413.69	227.09
414.07	228.00
414.44	229.02
414.82	230.04
415.19	231.28
415.56	232.46
415.94	233.63
416.31	235.06
416.68	236.45
417.06	238.09
417.43	239.65
417.81	241.44
418.18	243.26
418.55	245.21
418.93	247.26
419.30	249.38
419.67	251.67
420.04	253.94
420.42	256.25
420.79	259.06
421.16	261.90
421.54	264.81
421.91	267.80
422.28	270.88
422.66	274.20
423.03	277.48
423.40	280.86
423.77	284.49
424.15	288.16
424.52	292.03
424.89	296.19
425.26	300.26
425.64	304.14
426.01	308.41
426.38	312.94
426.75	317.50
427.13	322.23
427.50	327.22
427.87	332.51
428.24	337.74
428.61	342.76
428.99	348.28
429.36	354.36
429.73	360.33
430.10	366.27
430.47	372.38
430.85	378.69
431.22	385.47
431.59	392.58
431.96	399.46
432.33	406.97
432.70	414.23
433.08	422.82
433.45	430.88
433.82	438.98
434.19	447.89
434.56	456.66
434.93	465.08
435.30	473.35
435.68	482.51
436.05	491.58
436.42	500.57
436.79	508.75
437.16	517.54
437.53	526.81
437.90	535.96
438.27	544.96
438.64	554.25
439.01	562.86
439.38	570.51
439.75	577.87
440.13	586.36
440.50	594.33
440.87	600.72
441.24	607.46
441.61	614.78
441.98	620.22
442.35	626.55
442.72	632.90
443.09	639.03
443.46	642.75
443.83	645.29
444.20	647.48
444.57	650.62
444.94	652.13
445.31	653.62
445.68	655.07
446.05	655.72
446.42	654.91
446.79	653.93
447.16	652.86
447.53	652.05
447.90	648.79
448.27	645.58
448.64	641.02
449.01	637.60
449.37	631.78
449.74	626.09
450.11	619.22
450.48	611.80
450.85	604.31
451.22	597.87
451.59	591.77
451.96	585.95
452.33	578.14
452.70	570.99
453.07	562.50
453.43	553.80
453.80	545.42
454.17	537.39
454.54	529.81
454.91	521.54
455.28	513.53
455.65	505.98
456.02	498.38
456.38	491.99
456.75	484.13
457.12	477.45
457.49	470.85
457.86	464.59
458.23	459.15
458.59	453.18
458.96	447.13
459.33	441.72
459.70	436.25
460.07	431.89
460.43	426.92
460.80	422.31
461.17	418.31
461.54	414.10
461.91	410.09
462.27	405.96
462.64	402.51
463.01	398.71
463.38	395.02
463.74	391.37
464.11	388.12
464.48	385.27
464.85	382.16
465.21	379.71
465.58	377.03
465.95	373.89
466.32	371.21
466.68	368.58
467.05	365.98
467.42	363.39
467.78	360.73
468.15	358.20
468.52	356.25
468.88	353.74
469.25	351.49
469.62	349.63
469.98	347.66
470.35	345.82
470.72	344.12
471.08	342.27
471.45	340.73
471.82	339.17
472.18	337.47
472.55	336.23
472.92	334.85
473.28	333.64
473.65	332.45
474.02	331.36
474.38	330.50
474.75	329.70
475.11	328.88
475.48	328.25
475.85	327.71
476.21	327.17
476.58	326.79
476.94	326.53
477.31	326.19
477.67	325.86
478.04	325.74
478.41	325.64
478.77	325.79
479.14	325.70
479.50	325.84
479.87	326.16
480.23	326.52
480.60	326.72
480.96	327.00
481.33	327.56
481.69	328.08
482.06	328.52
482.42	328.99
482.79	329.61
483.15	330.40
483.52	331.38
483.88	332.32
484.25	333.28
484.61	334.32
484.98	335.46
485.34	336.87
485.71	338.23
486.07	339.71
486.44	341.07
486.80	342.75
487.17	344.39
487.53	346.21
487.90	348.06
488.26	350.12
488.62	352.29
488.99	354.36
489.35	356.52
489.72	358.92
490.08	361.50
490.44	364.03
490.81	366.75
491.17	369.43
491.54	372.39
491.90	375.38
492.26	378.64
492.63	381.93
492.99	385.33
493.36	388.97
493.72	392.80
494.08	396.82
494.45	400.98
494.81	405.38
495.17	409.80
495.54	414.49
495.90	419.32
496.26	424.23
496.63	429.43
496.99	434.87
497.35	440.46
497.72	446.21
498.08	452.17
498.44	458.23
498.80	464.70
499.17	471.15
499.53	477.86
499.89	484.71
500.26	491.75
500.62	498.85
500.98	506.24
501.34	513.72
501.71	521.53
502.07	529.42
502.43	537.43
502.79	545.52
503.16	553.87
503.52	562.41
503.88	571.06
504.24	580.05
504.60	589.10
504.97	598.27
505.33	607.61
505.69	617.47
506.05	627.35
506.41	637.21
506.78	647.22
507.14	657.44
507.50	667.90
507.86	678.61
508.22	689.28
508.59	699.90
508.95	710.89
509.31	722.07
509.67	733.41
510.03	744.65
510.39	756.32
510.75	768.13
511.12	780.02
511.48	792.06
511.84	804.20
512.20	816.44
512.56	829.06
512.92	841.74
513.28	854.29
513.64	866.98
514.00	879.76
514.37	892.78
514.73	905.89
515.09	918.84
515.45	931.70
515.81	944.86
516.17	958.27
516.53	971.56
516.89	984.69
517.25	997.88
517.61	1011.48
517.97	1025.00
518.33	1038.20
518.69	1051.83
519.05	1065.55
519.41	1079.32
519.77	1093.33
520.13	1106.60
520.49	1119.81
520.85	1133.22
521.21	1146.61
521.57	1160.26
521.93	1173.31
522.29	1187.08
522.65	1200.73
523.01	1214.41
523.37	1227.62
523.73	1240.92
524.09	1254.18
524.45	1267.55
524.81	1280.99
525.17	1294.40
525.53	1307.54
525.89	1320.89
526.25	1333.96
526.61	1346.99
526.97	1360.07
527.33	1373.06
527.68	1386.67
528.04	1400.36
528.40	1413.57
528.76	1426.98
529.12	1439.95
529.48	1453.39
529.84	1465.71
530.20	1478.50
530.56	1491.05
530.91	1504.43
531.27	1517.37
531.63	1529.98
531.99	1542.90
532.35	1555.22
532.71	1567.66
533.07	1580.55
533.42	1592.89
533.78	1605.07
534.14	1617.07
534.50	1628.44
534.86	1640.05
535.21	1650.96
535.57	1662.27
535.93	1673.68
536.29	1684.74
536.65	1696.24
537.00	1707.24
537.36	1718.71
537.72	1729.79
538.08	1741.33
538.44	1752.28
538.79	1763.45
539.15	1774.52
539.51	1785.29
539.87	1796.68
540.22	1807.61
540.58	1818.70
540.94	1829.65
541.29	1840.08
541.65	1849.96
542.01	1860.42
542.37	1870.55
542.72	1880.73
543.08	1890.74
543.44	1901.27
543.79	1910.68
544.15	1920.31
544.51	1930.33
544.87	1940.14
545.22	1949.42
545.58	1958.39
545.94	1967.48
546.29	1976.06
546.65	1984.49
547.01	1992.85
547.36	2000.62
547.72	2008.48
548.07	2016.06
548.43	2023.84
548.79	2031.70
549.14	2039.91
549.50	2048.51
549.86	2056.53
550.21	2064.10
550.57	2071.79
550.92	2078.50
551.28	2085.98
551.64	2093.15
551.99	2100.72
552.35	2108.05
552.70	2115.01
553.06	2121.72
553.41	2127.84
553.77	2134.42
554.13	2140.86
554.48	2147.85
554.84	2155.15
555.19	2161.64
555.55	2168.17
555.90	2174.46
556.26	2181.27
556.61	2187.53
556.97	2192.34
557.32	2198.02
557.68	2204.46
558.03	2210.26
558.39	2215.79
558.74	2221.76
559.10	2227.28
559.45	2232.76
559.81	2238.21
560.16	2243.64
560.52	2249.42
560.87	2255.87
561.23	2261.68
561.58	2268.39
561.94	2273.56
562.29	2277.95
562.64	2283.93
563.00	2289.43
563.35	2294.76
563.71	2300.34
564.06	2305.90
564.42	2311.75
564.77	2316.74
565.12	2321.90
565.48	2326.77
565.83	2332.01
566.19	2337.28
566.54	2342.60
566.89	2347.14
567.25	2351.69
567.60	2357.44
567.96	2362.38
568.31	2366.81
568.66	2370.92
569.02	2374.60
569.37	2378.18
569.72	2382.68
570.08	2386.02
570.43	2389.15
570.78	2392.35
571.14	2394.76
571.49	2397.62
571.84	2401.08
572.20	2403.86
572.55	2406.69
572.90	2409.03
573.26	2411.72
573.61	2414.17
573.96	2416.29
574.31	2418.20
574.67	2420.00
575.02	2420.55
575.37	2421.98
575.72	2422.57
576.08	2424.00
576.43	2423.93
576.78	2424.20
577.13	2425.54
577.49	2426.62
577.84	2427.50
578.19	2428.49
578.54	2428.91
578.90	2429.43
579.25	2429.01
579.60	2428.81
579.95	2427.86
580.30	2427.68
580.66	2426.91
581.01	2425.13
581.36	2422.55
581.71	2420.91
582.06	2419.39
582.42	2418.43
582.77	2415.84
583.12	2413.91
583.47	2412.31
583.82	2411.57
584.17	2410.17
584.53	2407.99
584.88	2405.68
585.23	2403.48
585.58	2401.08
585.93	2399.00
586.28	2396.68
586.63	2394.09
586.98	2391.77
587.34	2389.60
587.69	2386.88
588.04	2384.56
588.39	2382.88
588.74	2380.16
589.09	2377.25
589.44	2373.93
589.79	2371.08
590.14	2368.96
590.49	2366.00
590.84	2362.08
591.19	2358.83
591.54	2355.48
591.89	2351.17
592.25	2347.84
592.60	2343.48
592.95	2339.34
593.30	2334.94
593.65	2330.40
594.00	2325.95
594.35	2322.71
594.70	2318.03
595.05	2313.51
595.40	2308.05
595.75	2302.17
596.10	2298.44
596.45	2293.59
596.80	2288.90
597.15	2283.83
597.50	2278.02
597.85	2273.01
598.19	2267.74
598.54	2261.91
598.89	2256.67
599.24	2252.05
599.59	2245.70
599.94	2239.88
600.29	2233.79
600.64	2227.86
600.99	2221.04
601.34	2215.46
601.69	2208.50
602.04	2202.09
602.39	2195.35
602.74	2189.19
603.08	2183.87
603.43	2177.25
603.78	2170.30
604.13	2163.31
604.48	2155.86
604.83	2149.60
605.18	2143.59
605.53	2136.61
605.87	2129.59
606.22	2122.72
606.57	2114.69
606.92	2106.80
607.27	2099.80
607.62	2093.07
607.96	2086.06
608.31	2079.63
608.66	2071.82
609.01	2064.14
609.36	2057.05
609.70	2049.41
610.05	2041.52
610.40	2033.01
610.75	2024.78
611.10	2017.08
611.44	2008.16
611.79	1999.50
612.14	1989.60
612.49	1978.79
612.83	1969.29
613.18	1960.05
613.53	1950.84
613.88	1941.31
614.22	1932.76
614.57	1923.04
614.92	1912.58
615.27	1902.52
615.61	1892.39
615.96	1882.84
616.31	1873.23
616.65	1863.80
617.00	1854.24
617.35	1844.73
617.70	1835.03
618.04	1825.13
618.39	1815.09
618.74	1805.58
619.08	1796.00
619.43	1787.40
619.78	1779.24
620.12	1770.80
620.47	1761.29
620.82	1750.98
621.16	1741.39
621.51	1731.61
621.85	1721.83
622.20	1711.65
622.55	1701.13
622.89	1691.24
623.24	1681.62
623.59	1671.93
623.93	1661.77
624.28	1651.84
624.62	1641.91
624.97	1631.78
625.32	1622.04
625.66	1613.17
626.01	1604.46
626.35	1595.29
626.70	1585.18
627.04	1575.05
627.39	1565.09
627.73	1555.89
628.08	1547.15
628.43	1537.65
628.77	1528.50
629.12	1519.73
629.46	1511.88
629.81	1503.70
630.15	1494.32
630.50	1484.56
630.84	1474.25
631.19	1464.54
631.53	1455.50
631.88	1445.45
632.22	1435.60
632.57	1426.40
632.91	1416.49
633.26	1406.71
633.60	1397.22
633.95	1388.25
634.29	1379.02
634.64	1369.86
634.98	1359.98
635.32	1350.63
635.67	1342.30
636.01	1333.08
636.36	1323.40
636.70	1313.98
637.05	1304.70
637.39	1296.00
637.73	1287.51
638.08	1280.02
638.42	1271.96
638.77	1263.16
639.11	1254.91
639.45	1247.18
639.80	1238.65
640.14	1230.00
640.49	1221.29
640.83	1212.53
641.17	1204.42
641.52	1196.40
641.86	1187.85
642.20	1180.09
642.55	1171.58
642.89	1162.70
643.23	1154.19
643.58	1146.25
643.92	1137.30
644.26	1128.62
644.61	1120.24
644.95	1111.49
645.29	1102.34
645.64	1093.19
645.98	1084.80
646.32	1076.97
646.66	1068.51
647.01	1060.31
647.35	1052.18
647.69	1043.91
648.04	1035.73
648.38	1026.90
648.72	1018.18
649.06	1009.85
649.41	1001.72
649.75	993.98
650.09	986.23
650.43	978.30
650.78	969.98
651.12	962.29
651.46	954.92
651.80	947.73
652.14	940.52
652.49	933.05
652.83	925.89
653.17	918.27
653.51	910.67
653.85	903.47
654.20	896.25
654.54	888.91
654.88	881.75
655.22	874.50
655.56	867.51
655.90	860.70
656.25	854.00
656.59	847.15
656.93	840.13
657.27	832.97
657.61	825.95
657.95	819.91
658.29	814.11
658.64	808.12
658.98	801.70
659.32	795.20
659.66	789.02
660.00	782.67
660.34	776.56
660.68	770.45
661.02	764.14
661.36	758.26
661.70	752.49
662.05	746.84
662.39	741.42
662.73	736.10
663.07	730.79
663.41	725.19
663.75	719.54
664.09	713.81
664.43	708.39
664.77	703.07
665.11	697.21
665.45	691.30
665.79	685.38
666.13	679.71
666.47	674.25
666.81	668.78
667.15	663.36
667.49	658.25
667.83	653.10
668.17	647.84
668.51	642.65
668.85	637.71
669.19	632.82
669.53	627.81
669.87	622.62
670.21	617.79
670.55	613.11
670.89	608.61
671.23	604.26
671.57	599.88
671.91	595.62
672.25	591.43
672.58	587.30
672.92	583.28
673.26	579.30
673.60	575.42
673.94	571.59
674.28	568.00
674.62	564.21
674.96	560.45
675.30	556.96
675.64	553.34
675.97	549.68
676.31	546.06
676.65	542.43
676.99	539.07
677.33	535.22
677.67	531.52
678.01	527.67
678.34	524.09
678.68	520.59
679.02	516.93
679.36	513.27
679.70	509.62
680.04	506.01
680.37	502.55
680.71	499.18
681.05	496.01
681.39	492.71
681.73	489.50
682.06	486.38
682.40	483.29
682.74	480.07
683.08	476.88
683.42	473.70
683.75	470.65
684.09	467.48
684.43	464.66
684.77	461.72
685.10	458.82
685.44	455.85
685.78	452.92
686.12	450.12
686.45	447.38
686.79	444.69
687.13	442.12
687.46	439.48
687.80	436.78
688.14	433.87
688.48	431.21
688.81	428.52
689.15	425.99
689.49	423.32
689.82	420.75
690.16	418.15
690.50	415.61
690.83	413.08
691.17	410.52
691.51	407.98
691.84	405.69
692.18	403.42
692.52	401.20
692.85	399.02
693.19	396.90
693.52	394.71
693.86	392.47
694.20	390.25
694.53	388.08
694.87	385.83
695.21	383.71
695.54	381.54
695.88	379.35
696.21	377.07
696.55	374.98
696.88	372.90
697.22	370.87
697.56	368.94
697.89	367.01
698.23	365.27
698.56	363.49
698.90	361.68
699.23	359.78
699.57	357.91
699.90	356.01
700.24	354.17
700.58	352.36
700.91	350.68
701.25	349.06
701.58	347.42
701.92	345.81
702.25	344.16
702.59	342.48
702.92	340.94
703.26	339.39
703.59	337.86
703.93	336.55
704.26	335.12
704.60	333.61
704.93	332.18
705.26	330.64
705.60	329.17
705.93	327.64
706.27	326.31
706.60	324.98
706.94	323.74
707.27	322.34
707.61	320.99
707.94	319.62
708.27	318.13
708.61	316.66
708.94	315.27
709.28	313.96
709.61	312.75
709.94	311.50
710.28	310.28
710.61	309.03
710.95	307.64
711.28	306.54
711.61	305.35
711.95	304.17
712.28	302.96
712.61	301.73
712.95	300.65
713.28	299.58
713.61	298.40
713.95	297.23
714.28	296.18
714.61	295.18
714.95	294.14
715.28	293.07
715.61	292.04
715.95	291.04
716.28	290.08
716.61	289.09
716.95	288.09
717.28	287.14
717.61	286.18
717.94	285.21
718.28	284.13
718.61	283.26
718.94	282.30
719.27	281.43
719.61	280.64
719.94	279.75
720.27	278.76
720.60	277.93
720.94	277.09
721.27	276.32
721.60	275.60
721.93	274.89
722.27	274.31
722.60	273.65
722.93	272.96
723.26	272.30
723.59	271.59
723.93	270.95
724.26	270.29
724.59	269.62
724.92	269.04
725.25	268.51
725.59	267.90
725.92	267.39
726.25	266.85
726.58	266.23
726.91	265.62
727.24	265.07
727.57	264.48
727.91	263.90
728.24	263.32
728.57	262.69
728.90	262.13
729.23	261.47
729.56	261.04
729.89	260.49
730.22	259.92
730.55	259.38
730.89	258.78
731.22	258.26
731.55	257.78
731.88	257.23
732.21	256.68
732.54	256.11
732.87	255.58
733.20	255.08
733.53	254.57
733.86	254.11
734.19	253.60
734.52	253.19
734.85	252.87
735.18	252.38
735.51	251.99
735.84	251.55
736.17	251.14
736.50	250.57
736.83	250.41
737.16	249.99
737.49	249.63
737.82	249.22
738.15	248.84
738.48	248.42
738.81	247.98
739.14	247.54
739.47	247.15
739.80	246.74
740.13	246.34
740.46	245.95
740.79	245.57
741.12	245.25
741.45	244.88
741.78	244.40
742.11	244.12
742.44	243.69
742.77	243.34
743.10	243.00
743.43	242.64
743.75	242.04
744.08	242.01
744.41	241.59
744.74	241.24
745.07	240.85
745.40	240.55
745.73	240.30
746.06	239.99
746.39	239.71
746.71	239.38
747.04	239.07
747.37	238.76
747.70	238.45
748.03	238.13
748.36	237.84
748.68	237.54
749.01	237.22
749.34	236.94
749.67	236.67
750.00	236.39
750.33	236.26
750.65	236.03
750.98	235.44
751.31	235.21
751.64	235.00
751.97	234.88
752.29	234.58
752.62	234.29
752.95	234.00
753.28	233.73
753.60	233.50
753.93	233.30
754.26	233.06
754.59	232.81
754.91	232.57
755.24	232.34
755.57	232.13
755.90	231.87
756.22	231.63
756.55	231.37
756.88	231.07
757.20	230.74
757.53	230.44
757.86	230.29
758.19	230.07
758.51	229.85
758.84	229.54
759.17	229.35
759.49	229.18
759.82	229.10
760.15	228.93
760.47	228.72
760.80	228.48
761.13	228.34
761.45	228.12
761.78	227.93
762.11	227.76
762.43	227.57
762.76	227.39
763.08	227.25
763.41	227.10
763.74	226.98
764.06	226.81
764.39	226.65
764.71	226.45
765.04	226.26
765.37	226.08
765.69	225.91
766.02	225.75
766.34	225.59
766.67	225.38
767.00	225.26
767.32	225.25
767.65	225.23
767.97	225.07
768.30	224.97
768.62	224.85
768.95	224.66
769.27	224.51
769.60	224.43
769.92	224.27
770.25	224.09
770.57	223.91
770.90	223.77
771.22	223.63
771.55	223.57
771.87	223.48
772.20	223.35
772.52	223.43
772.85	223.58
773.17	223.46
773.50	223.33
773.82	223.21
774.15	223.00
774.47	222.76
774.80	222.66
775.12	222.54
775.45	222.45
775.77	222.39
776.09	222.32
776.42	222.24
776.74	222.22
777.07	222.14
777.39	222.05
777.72	221.98
778.04	221.95
778.36	221.80
778.69	221.73
779.01	221.68
779.33	221.42
779.66	221.10
779.98	221.01
780.31	220.94
780.63	220.92
780.95	220.89
781.28	220.83
781.60	220.72
781.92	220.67
782.25	220.59
782.57	220.47
782.89	220.39
783.22	220.31
783.54	220.18
783.86	220.13
784.19	220.07
784.51	220.07
784.83	219.96
785.16	219.91
785.48	219.87
785.80	219.78
786.12	219.70
786.45	219.64
786.77	219.62
787.09	219.56
787.42	219.45
787.74	219.39
788.06	219.35
788.38	219.30
788.71	219.20
789.03	219.13
789.35	219.11
789.67	219.05
789.99	219.02
790.32	218.92
790.64	218.91
790.96	219.02
791.28	218.89
791.61	218.88
791.93	218.85
792.25	218.74
792.57	218.84
792.89	218.77
793.21	218.73
793.54	218.67
793.86	218.60
794.18	218.58
794.50	218.51
794.82	218.44
795.14	218.43
795.47	218.44
795.79	218.40
796.11	218.31
796.43	218.25
796.75	218.17
797.07	218.17
797.39	218.10
797.71	217.91
798.04	217.91
798.36	217.86
798.68	217.82
799.00	217.84
799.32	217.71
799.64	217.73
799.96	217.70
800.28	217.68
800.60	217.65
800.92	217.61
801.24	217.56
801.56	217.54
801.89	217.50
802.21	217.48
802.53	217.41
802.85	217.42
803.17	217.50
803.49	217.46
803.81	217.40
804.13	217.37
804.45	217.32
804.77	217.26
805.09	217.24
805.41	217.19
805.73	217.09
806.05	216.96
806.37	216.91
806.69	216.87
807.01	216.81
807.33	216.80
807.65	216.71
807.97	216.75
808.28	216.70
808.60	216.68
808.92	216.61
809.24	216.71
809.56	216.66
809.88	216.51
810.20	216.50
810.52	216.54
810.84	216.46
811.16	216.42
811.48	216.40
811.80	216.42
812.12	216.37
812.43	216.44
812.75	216.49
813.07	216.42
813.39	216.40
813.71	216.34
814.03	216.28
814.35	216.23
814.67	216.14
814.98	216.10
815.30	216.05
815.62	216.01
815.94	215.86
816.26	215.86
816.58	215.81
816.89	215.83
817.21	215.73
817.53	215.75
817.85	215.75
818.17	215.74
818.48	215.64
818.80	215.67
819.12	215.59
819.44	215.53
819.76	215.51
820.07	215.49
820.39	215.49
820.71	215.49
821.03	215.47
821.34	215.42
821.66	215.44
821.98	215.44
822.30	215.45
822.61	215.56
822.93	215.51
823.25	215.47
823.57	215.41
823.88	215.47
824.20	215.44
824.52	215.47
824.83	215.41
825.15	215.38
825.47	215.35
825.79	215.35
826.10	215.32
826.42	215.31
826.74	215.33
827.05	215.30
827.37	215.30
827.69	215.34
828.00	215.35
828.32	215.32
828.64	215.27
828.95	215.35
829.27	215.27
829.58	215.28
829.90	215.32
830.22	215.31
830.53	215.24
830.85	215.19
831.17	215.11
831.48	215.12
831.80	215.12
832.11	215.10
832.43	215.05
832.75	215.07
833.06	215.16
833.38	215.09
833.69	215.06
834.01	215.04
834.32	215.01
834.64	214.96
834.96	214.98
835.27	214.99
835.59	214.90
835.90	214.85
836.22	214.82
836.53	214.79
836.85	214.77
837.16	214.98
837.48	215.03
837.79	215.09
838.11	215.07
838.42	215.06
838.74	215.07
839.05	215.08
839.37	215.03
839.68	214.95
840.00	214.92
840.31	214.99
840.63	214.93
840.94	214.89
841.26	214.86
841.57	214.85
841.88	214.91
842.20	214.86
842.51	214.83
842.83	214.84
843.14	214.97
843.46	214.97
843.77	214.85
844.08	214.82
844.40	214.75
844.71	214.74
845.03	214.74
845.34	214.68
845.65	214.66
845.97	214.65
846.28	214.63
846.60	214.63
846.91	214.59
847.22	214.65
847.54	214.68
847.85	214.70
848.16	214.66
848.48	214.57
848.79	214.63
849.10	214.69
849.42	214.67
849.73	214.51
850.04	214.46
850.36	214.39
850.67	214.42
850.98	214.46
851.30	214.46
851.61	214.43
851.92	214.46
852.23	214.51
852.55	214.53
852.86	214.55
853.17	214.57
853.49	214.60
853.80	214.60
854.11	214.62
854.42	214.65
854.74	214.64
855.05	214.64
855.36	214.57
855.67	214.53
855.99	214.55
856.30	214.81
856.61	214.83
856.92	214.76
857.23	214.74
857.55	214.66
857.86	214.62
858.17	214.67
858.48	214.63
858.79	214.61
859.11	214.61
859.42	214.57
859.73	214.52
860.04	214.51
860.35	214.42
860.66	214.33
860.98	214.30
861.29	214.32
861.60	214.31
861.91	214.32
862.22	214.30
862.53	214.26
862.84	214.01
863.16	214.05
863.47	214.06
863.78	214.02
864.09	214.08
864.40	214.11
864.71	214.12
865.02	214.17
865.33	214.12
865.64	214.12
865.95	214.14
866.27	214.29
866.58	214.27
866.89	214.32
867.20	214.36
867.51	214.37
867.82	214.37
868.13	214.43
868.44	214.42
868.75	214.48
869.06	214.48
869.37	214.47
869.68	214.39
869.99	214.40
870.30	214.43
870.61	214.44
870.92	214.41
871.23	214.38
871.54	214.38
871.85	214.41
872.16	214.41
872.47	214.38
872.78	214.24
873.09	214.23
873.40	214.21
873.71	214.21
874.02	214.19
874.33	214.15
874.64	214.11
874.95	214.13
875.26	214.08
875.56	214.04
875.87	214.07
876.18	214.07
876.49	214.29
876.80	214.26
877.11	214.20
877.42	214.20
877.73	214.20
878.04	214.15
878.35	214.15
878.66	214.16
878.96	214.17
879.27	214.14
879.58	214.16
879.89	214.12
880.20	214.16
880.51	214.15
880.82	214.16
881.12	214.17
881.43	214.12
881.74	214.07
882.05	214.09
882.36	214.07
882.67	214.09
882.97	213.87
883.28	213.90
883.59	213.89
883.90	213.91
884.21	213.93
884.51	213.90
884.82	213.87
885.13	213.85
885.44	213.82
885.74	213.84
886.05	213.82
886.36	213.86
886.67	213.79
886.98	213.90
887.28	213.92
887.59	213.92
887.90	213.90
888.20	213.92
888.51	213.97
888.82	213.94
889.13	213.96
889.43	214.12
889.74	214.08
890.05	214.06
890.35	214.02
890.66	213.98
890.97	213.97
891.28	213.96
891.58	213.96
891.89	213.97
892.20	213.96
892.50	213.94
892.81	213.91
893.12	213.93
893.42	213.81
893.73	213.81
894.04	213.81
894.34	213.83
894.65	213.82
894.95	213.80
895.26	213.81
895.57	213.88
895.87	213.68
896.18	213.71
896.48	213.77
896.79	213.79
897.10	213.81
897.40	213.83
897.71	213.84
898.01	213.83
898.32	213.83
898.63	213.82
898.93	213.85
899.24	213.86
899.54	213.84
899.85	213.85
900.15	213.83
900.46	213.82
900.76	213.83
901.07	213.82
901.38	213.81
901.68	213.84
901.99	213.76
902.29	213.76
902.60	213.75
902.90	213.70
903.21	213.71
903.51	213.71
903.82	213.76
904.12	213.76
904.43	213.83
904.73	213.85
905.03	213.86
905.34	214.06
905.64	214.00
905.95	214.01
906.25	214.01
906.56	214.01
906.86	213.99
907.17	213.96
907.47	213.96
907.77	213.94
908.08	213.92
908.38	213.94
908.69	213.95
908.99	213.98
909.30	214.02
909.60	214.01
909.90	214.00
910.21	213.95
910.51	213.88
910.81	213.85
911.12	213.83
911.42	213.88
911.73	213.66
912.03	213.73
912.33	213.74
912.64	213.72
912.94	213.68
913.24	213.68
913.55	213.67
913.85	213.67
914.15	213.72
914.46	213.72
914.76	213.68
915.06	213.67
915.37	213.64
915.67	213.61
915.97	213.61
916.27	213.61
916.58	213.62
916.88	213.66
917.18	213.63
917.49	213.78
917.79	213.74
918.09	213.75
918.39	213.78
918.70	213.80
919.00	213.82
919.30	213.97
919.60	213.93
919.91	213.90
920.21	213.91
920.51	213.84
920.81	213.85
921.12	213.89
921.42	213.91
921.72	213.92
922.02	213.92
922.32	213.96
922.63	213.97
922.93	214.08
923.23	214.07
923.53	214.05
923.83	213.90
924.13	213.92
924.44	213.93
924.74	213.96
925.04	214.01
925.34	214.00
925.64	213.89
925.94	213.96
926.24	214.10
926.55	214.10
926.85	214.16
927.15	214.12
927.45	214.11
927.75	214.11
928.05	214.11
928.35	214.14
928.65	214.12
928.95	214.13
929.26	214.01
929.56	214.08
929.86	214.12
930.16	214.09
930.46	214.07
930.76	214.09
931.06	213.96
931.36	213.90
931.66	213.90
931.96	213.92
932.26	213.90
932.56	213.79
932.86	213.80
933.16	213.78
933.46	213.77
933.76	213.75
934.06	213.76
934.36	213.85
934.66	213.80
934.96	213.80
935.26	213.78
935.56	213.84
935.86	213.75
936.16	213.73
936.46	213.75
936.76	213.74
937.06	213.70
937.36	213.74
937.66	213.78
937.96	213.78
938.26	213.75
938.56	213.72
938.86	213.76
939.16	213.80
939.46	213.82
939.76	213.87
940.06	213.88
940.35	213.87
940.65	213.74
940.95	213.78
941.25	213.74
941.55	213.72
941.85	213.68
942.15	213.75
942.45	213.77
942.75	213.77
943.04	213.80
943.34	213.82
943.64	213.79
943.94	213.73
944.24	213.74
944.54	213.74
944.84	213.72
945.13	213.67
945.43	213.62
945.73	213.62
946.03	213.56
946.33	213.55
946.62	213.55
946.92	213.55
947.22	213.58
947.52	213.62
947.82	213.67
948.11	213.65
948.41	213.57
948.71	213.51
949.01	213.52
949.31	213.49
949.60	213.48
949.90	213.50
950.20	213.50
950.50	213.50
950.79	213.50
951.09	213.55
951.39	213.53
951.69	213.55
951.98	213.57
952.28	213.62
952.58	213.61
952.87	213.62
953.17	213.61
953.47	213.55
953.76	213.52
954.06	213.48
954.36	213.47
954.66	213.48
954.95	213.58
955.25	213.61
955.55	213.64
955.84	213.62
956.14	213.65
956.44	213.67
956.73	213.64
957.03	213.64
957.32	213.62
957.62	213.67
957.92	213.68
958.21	213.64
958.51	213.86
958.81	213.87
959.10	213.89
959.40	213.93
959.69	213.97
959.99	214.02
960.29	214.01
960.58	214.01
960.88	214.09
961.17	214.05
961.47	214.04
961.76	214.02
962.06	214.09
962.36	214.05
962.65	214.06
962.95	214.08
963.24	214.05
963.54	214.09
963.83	214.08
964.13	214.08
964.42	214.07
964.72	213.91
965.01	213.92
965.31	213.88
965.60	213.86
965.90	213.97
966.19	213.87
966.49	213.88
966.78	213.89
967.08	213.85
967.37	213.85
967.67	213.82
967.96	213.82
968.26	213.81
968.55	213.82
968.85	213.84
969.14	213.82
969.43	213.81
969.73	213.80
970.02	213.79
970.32	213.77
970.61	213.75
970.91	213.66
971.20	213.62
971.49	213.61
971.79	213.63
972.08	213.48
972.38	213.55
972.67	213.56
972.96	213.55
973.26	213.56
973.55	213.62
973.85	213.62
974.14	213.61
974.43	213.60
974.73	213.60
975.02	213.58
975.31	213.61
975.61	213.63
975.90	213.63
976.19	213.58
976.49	213.60
976.78	213.64
977.07	213.65
977.37	213.67
977.66	213.70
977.95	213.68
978.24	213.72
978.54	213.75
978.83	213.72
979.12	213.72
979.42	213.71
979.71	213.67
980.00	213.68
980.29	213.68
980.59	213.65
980.88	213.67
981.17	213.65
981.46	213.62
981.76	213.60
982.05	213.64
982.34	213.69
982.63	213.69
982.93	213.65
983.22	213.72
983.51	213.73
983.80	213.76
984.09	213.81
984.39	213.78
984.68	213.72
984.97	213.72
985.26	213.72
985.55	213.71
985.85	213.68
986.14	213.68
986.43	213.72
986.72	213.73
987.01	213.68
987.30	213.68
987.59	213.67
987.89	213.68
988.18	213.61
988.47	213.60
988.76	213.58
989.05	213.59
989.34	213.54
989.63	213.56
989.92	213.52
990.22	213.47
990.51	213.46
990.80	213.46
991.09	213.49
991.38	213.52
991.67	213.51
991.96	213.47
992.25	213.49
992.54	213.45
992.83	213.44
993.12	213.42
993.41	213.44
993.70	213.53
993.99	213.56
994.28	213.61
994.58	213.65
994.87	213.63
995.16	213.65
995.45	213.63
995.74	213.57
996.03	213.59
996.32	213.60
996.61	213.67
996.90	213.68
997.19	213.65
997.48	213.65
997.77	213.66
998.06	213.70
998.34	213.69
998.63	213.70
998.92	213.71
999.21	213.73
999.50	213.74
999.79	213.68
1000.08	213.71
1000.37	213.70
1000.66	213.68
1000.95	213.73
1001.24	213.69
1001.53	213.76
1001.82	213.78
1002.11	213.72
1002.40	213.76
1002.68	213.78
1002.97	213.93
1003.26	213.90
1003.55	213.87
1003.84	213.86
1004.13	213.90
1004.42	213.88
1004.71	213.88
1004.99	213.87
1005.28	213.95
1005.57	213.94
1005.86	213.90
1006.15	213.88
1006.44	213.85
1006.72	213.86
1007.01	213.83
1007.30	213.88
1007.59	213.82
1007.88	213.79
1008.17	213.80
1008.45	213.71
1008.74	213.65
1009.03	213.55
1009.32	213.59
1009.60	213.58
1009.89	213.57
1010.18	213.50
1010.47	213.51
1010.76	213.49
1011.04	213.45
1011.33	213.48
1011.62	213.53
1011.91	213.55
1012.19	213.55
1012.48	213.58
1012.77	213.56
1013.05	213.69
1013.34	213.68
1013.63	213.69
1013.92	213.72
1014.20	213.72
1014.49	213.78
1014.78	213.81
1015.06	213.73
1015.35	213.73
1015.64	213.78
1015.92	213.82
1016.21	213.83
1016.50	213.83
1016.78	213.87
1017.07	213.93
1017.36	213.83
1017.64	213.75
1017.93	213.77
1018.22	213.77
1018.50	213.73
1018.79	213.71
1019.08	213.58
1019.36	213.57
1019.65	213.53
1019.93	213.58
1020.22	213.62
1020.51	213.71
1020.79	213.65
1021.08	213.74
1021.36	212.67
1021.65	213.37
1021.94	213.66
1022.22	213.63
1022.51	212.77
1022.79	214.55
1023.08	214.11
1023.36	215.81
1023.65	212.80
>>>>>End Processed Spectral Data<<<<<
