SpectraSuite Data File
++++++++++++++++++++++++++++++++++++
Date: Tue Jan 29 15:55:03 EST 2013
User: group
Dark Spectrum Present: No
Reference Spectrum Present: No
Number of Sampled Component Spectra: 1
Spectrometers: USB2E7196
Integration Time (usec): 65000 (USB2E7196)
Spectra Averaged: 100 (USB2E7196)
Boxcar Smoothing: 10 (USB2E7196)
Correct for Electrical Dark: No (USB2E7196)
Strobe/Lamp Enabled: No (USB2E7196)
Correct for Detector Non-linearity: No (USB2E7196)
Correct for Stray Light: No (USB2E7196)
Number of Pixels in Processed Spectrum: 2048
>>>>>Begin Processed Spectral Data<<<<<
339.09	0.00
339.48	203.34
339.86	204.23
340.24	205.89
340.63	207.45
341.01	211.81
341.39	210.39
341.78	210.91
342.16	212.95
342.54	212.78
342.93	202.15
343.31	212.37
343.69	212.92
344.07	213.39
344.46	213.83
344.84	214.26
345.22	214.43
345.60	214.68
345.99	214.93
346.37	215.06
346.75	215.19
347.13	215.28
347.52	215.32
347.90	215.48
348.28	215.54
348.66	215.63
349.05	215.64
349.43	215.72
349.81	215.80
350.19	215.86
350.57	215.91
350.96	215.98
351.34	216.09
351.72	216.14
352.10	216.26
352.48	216.32
352.87	216.34
353.25	216.39
353.63	216.43
354.01	216.45
354.39	216.53
354.77	216.61
355.15	216.75
355.54	216.81
355.92	216.80
356.30	216.85
356.68	217.04
357.06	217.10
357.44	217.09
357.82	217.13
358.20	217.20
358.58	217.27
358.97	217.35
359.35	217.41
359.73	217.53
360.11	217.53
360.49	217.61
360.87	217.65
361.25	217.73
361.63	217.86
362.01	217.93
362.39	217.95
362.77	217.99
363.15	218.03
363.53	218.09
363.91	218.11
364.29	218.13
364.67	217.99
365.05	218.04
365.43	218.14
365.81	218.19
366.19	218.29
366.57	218.37
366.95	218.37
367.33	218.35
367.71	218.37
368.09	218.42
368.47	218.41
368.85	218.41
369.23	218.44
369.61	218.34
369.99	218.40
370.37	218.41
370.75	218.48
371.13	218.41
371.51	218.33
371.89	218.32
372.27	218.30
372.65	218.27
373.03	218.21
373.41	218.16
373.78	218.12
374.16	217.97
374.54	217.91
374.92	217.81
375.30	217.81
375.68	217.71
376.06	217.71
376.44	217.66
376.82	217.64
377.19	217.54
377.57	217.51
377.95	217.41
378.33	217.35
378.71	217.19
379.09	217.15
379.47	217.16
379.84	217.10
380.22	217.03
380.60	216.95
380.98	216.92
381.36	216.87
381.73	216.79
382.11	216.79
382.49	216.74
382.87	216.73
383.25	216.67
383.62	216.84
384.00	216.78
384.38	216.73
384.76	216.74
385.13	216.81
385.51	216.79
385.89	216.71
386.27	216.70
386.64	216.70
387.02	216.66
387.40	216.62
387.78	216.61
388.15	216.61
388.53	216.58
388.91	216.56
389.29	216.53
389.66	216.54
390.04	216.48
390.42	216.49
390.79	216.48
391.17	216.44
391.55	216.22
391.92	216.20
392.30	216.23
392.68	216.16
393.05	216.16
393.43	216.14
393.81	216.18
394.18	216.17
394.56	216.18
394.94	216.20
395.31	216.19
395.69	216.28
396.06	216.31
396.44	216.37
396.82	216.36
397.19	216.51
397.57	216.49
397.95	216.55
398.32	216.52
398.70	216.57
399.07	216.68
399.45	216.70
399.82	216.75
400.20	216.79
400.58	216.86
400.95	216.84
401.33	216.94
401.70	217.14
402.08	217.20
402.45	217.27
402.83	217.40
403.20	217.52
403.58	217.60
403.95	217.73
404.33	217.87
404.71	218.00
405.08	218.24
405.46	218.40
405.83	218.61
406.21	218.81
406.58	219.03
406.96	219.23
407.33	219.48
407.70	219.76
408.08	220.16
408.45	220.48
408.83	220.82
409.20	221.16
409.58	221.41
409.95	221.86
410.33	222.32
410.70	222.75
411.08	223.26
411.45	223.78
411.82	224.30
412.20	224.96
412.57	225.79
412.95	226.33
413.32	227.14
413.69	227.93
414.07	228.82
414.44	229.76
414.82	230.76
415.19	231.91
415.56	233.07
415.94	234.22
416.31	235.59
416.68	236.95
417.06	238.48
417.43	239.99
417.81	241.67
418.18	243.37
418.55	245.24
418.93	247.18
419.30	249.21
419.67	251.35
420.04	253.51
420.42	255.77
420.79	258.47
421.16	261.13
421.54	263.92
421.91	266.75
422.28	269.69
422.66	272.83
423.03	275.94
423.40	279.14
423.77	282.59
424.15	286.10
424.52	289.73
424.89	293.77
425.26	297.64
425.64	301.36
426.01	305.47
426.38	309.75
426.75	314.11
427.13	318.63
427.50	323.41
427.87	328.41
428.24	333.39
428.61	338.15
428.99	343.45
429.36	349.23
429.73	354.87
430.10	360.52
430.47	366.35
430.85	372.40
431.22	378.79
431.59	385.59
431.96	392.16
432.33	399.33
432.70	406.21
433.08	414.34
433.45	422.04
433.82	429.67
434.19	438.23
434.56	446.55
434.93	454.54
435.30	462.46
435.68	471.16
436.05	479.74
436.42	488.23
436.79	495.96
437.16	504.28
437.53	513.17
437.90	521.94
438.27	530.53
438.64	539.36
439.01	547.54
439.38	554.83
439.75	561.80
440.13	569.97
440.50	577.62
440.87	583.75
441.24	590.13
441.61	597.16
441.98	602.26
442.35	608.28
442.72	614.26
443.09	620.04
443.46	623.67
443.83	626.06
444.20	628.25
444.57	631.33
444.94	632.75
445.31	634.10
445.68	635.41
446.05	635.92
446.42	635.12
446.79	634.12
447.16	633.03
447.53	632.28
447.90	628.98
448.27	625.80
448.64	621.37
449.01	618.13
449.37	612.49
449.74	607.00
450.11	600.40
450.48	593.33
450.85	586.16
451.22	579.89
451.59	574.07
451.96	568.41
452.33	560.84
452.70	554.03
453.07	545.91
453.43	537.67
453.80	529.75
454.17	522.14
454.54	515.00
454.91	507.21
455.28	499.65
455.65	492.59
456.02	485.43
456.38	479.45
456.75	472.02
457.12	465.80
457.49	459.65
457.86	453.83
458.23	448.78
458.59	443.17
458.96	437.46
459.33	432.39
459.70	427.31
460.07	423.30
460.43	418.62
460.80	414.32
461.17	410.51
461.54	406.53
461.91	402.66
462.27	398.73
462.64	395.47
463.01	391.76
463.38	388.25
463.74	384.70
464.11	381.57
464.48	378.81
464.85	375.82
465.21	373.46
465.58	370.90
465.95	367.91
466.32	365.39
466.68	362.94
467.05	360.47
467.42	357.98
467.78	355.43
468.15	353.03
468.52	351.22
468.88	348.84
469.25	346.74
469.62	345.09
469.98	343.26
470.35	341.56
470.72	340.00
471.08	338.27
471.45	336.88
471.82	335.42
472.18	333.88
472.55	332.79
472.92	331.53
473.28	330.43
473.65	329.34
474.02	328.33
474.38	327.50
474.75	326.84
475.11	326.11
475.48	325.57
475.85	325.12
476.21	324.62
476.58	324.31
476.94	324.13
477.31	323.82
477.67	323.60
478.04	323.49
478.41	323.46
478.77	323.71
479.14	323.70
479.50	323.90
479.87	324.20
480.23	324.52
480.60	324.78
480.96	325.06
481.33	325.68
481.69	326.30
482.06	326.86
482.42	327.33
482.79	328.01
483.15	328.83
483.52	329.81
483.88	330.73
484.25	331.70
484.61	332.72
484.98	333.78
485.34	335.09
485.71	336.44
486.07	337.90
486.44	339.21
486.80	340.80
487.17	342.54
487.53	344.39
487.90	346.26
488.26	348.28
488.62	350.43
488.99	352.46
489.35	354.62
489.72	357.00
490.08	359.53
490.44	362.06
490.81	364.76
491.17	367.48
491.54	370.44
491.90	373.49
492.26	376.71
492.63	380.19
492.99	383.69
493.36	387.36
493.72	391.20
494.08	395.18
494.45	399.47
494.81	403.78
495.17	408.24
495.54	412.93
495.90	417.75
496.26	422.69
496.63	427.90
496.99	433.28
497.35	438.86
497.72	444.67
498.08	450.56
498.44	456.63
498.80	463.02
499.17	469.48
499.53	476.05
499.89	482.93
500.26	489.84
500.62	496.90
500.98	504.29
501.34	511.70
501.71	519.47
502.07	527.17
502.43	535.13
502.79	543.19
503.16	551.55
503.52	560.05
503.88	568.62
504.24	577.54
504.60	586.57
504.97	595.72
505.33	604.90
505.69	614.76
506.05	624.55
506.41	634.28
506.78	644.28
507.14	654.50
507.50	664.94
507.86	675.48
508.22	686.16
508.59	696.69
508.95	707.75
509.31	718.90
509.67	730.30
510.03	741.52
510.39	753.15
510.75	764.87
511.12	776.73
511.48	788.79
511.84	800.89
512.20	812.99
512.56	825.47
512.92	838.13
513.28	850.58
513.64	863.24
514.00	875.99
514.37	888.87
514.73	901.89
515.09	914.62
515.45	927.42
515.81	940.35
516.17	953.58
516.53	966.57
516.89	979.46
517.25	992.42
517.61	1005.86
517.97	1019.02
518.33	1031.94
518.69	1045.23
519.05	1058.76
519.41	1072.25
519.77	1085.88
520.13	1098.94
520.49	1111.88
520.85	1125.08
521.21	1138.15
521.57	1151.61
521.93	1164.51
522.29	1178.04
522.65	1191.45
523.01	1204.72
523.37	1217.58
523.73	1230.68
524.09	1243.64
524.45	1256.82
524.81	1270.00
525.17	1283.00
525.53	1295.88
525.89	1308.87
526.25	1321.60
526.61	1334.13
526.97	1346.90
527.33	1359.55
527.68	1372.79
528.04	1385.88
528.40	1398.57
528.76	1411.53
529.12	1424.07
529.48	1436.80
529.84	1448.60
530.20	1461.05
530.56	1473.40
530.91	1486.33
531.27	1498.73
531.63	1511.09
531.99	1523.37
532.35	1535.16
532.71	1547.15
533.07	1559.66
533.42	1571.59
533.78	1583.26
534.14	1594.91
534.50	1605.70
534.86	1616.83
535.21	1627.24
535.57	1638.43
535.93	1649.32
536.29	1660.01
536.65	1670.91
537.00	1681.42
537.36	1692.35
537.72	1702.83
538.08	1713.71
538.44	1724.18
538.79	1734.84
539.15	1745.15
539.51	1755.65
539.87	1766.67
540.22	1777.10
540.58	1787.61
540.94	1797.83
541.29	1807.83
541.65	1817.22
542.01	1827.42
542.37	1837.13
542.72	1846.85
543.08	1856.20
543.44	1866.36
543.79	1875.36
544.15	1884.48
544.51	1894.33
544.87	1903.81
545.22	1912.60
545.58	1921.13
545.94	1929.60
546.29	1937.60
546.65	1945.75
547.01	1953.49
547.36	1960.62
547.72	1967.82
548.07	1974.91
548.43	1982.34
548.79	1989.86
549.14	1997.60
549.50	2005.52
549.86	2013.00
550.21	2020.23
550.57	2027.70
550.92	2034.11
551.28	2041.21
551.64	2048.16
551.99	2055.28
552.35	2062.11
552.70	2068.74
553.06	2075.12
553.41	2081.22
553.77	2087.80
554.13	2093.94
554.48	2100.73
554.84	2107.60
555.19	2114.01
555.55	2120.23
555.90	2126.40
556.26	2132.96
556.61	2138.87
556.97	2143.57
557.32	2149.36
557.68	2155.58
558.03	2161.03
558.39	2166.20
558.74	2172.06
559.10	2177.52
559.45	2182.86
559.81	2188.42
560.16	2194.04
560.52	2199.73
560.87	2206.08
561.23	2211.83
561.58	2218.40
561.94	2223.70
562.29	2228.59
562.64	2234.85
563.00	2240.76
563.35	2246.52
563.71	2252.35
564.06	2257.96
564.42	2264.02
564.77	2269.01
565.12	2274.22
565.48	2279.53
565.83	2285.07
566.19	2290.61
566.54	2296.03
566.89	2300.85
567.25	2305.58
567.60	2311.21
567.96	2316.49
568.31	2321.10
568.66	2325.37
569.02	2329.34
569.37	2333.02
569.72	2337.46
570.08	2340.81
570.43	2343.72
570.78	2346.86
571.14	2349.38
571.49	2352.61
571.84	2356.36
572.20	2359.34
572.55	2362.47
572.90	2364.68
573.26	2367.83
573.61	2370.53
573.96	2372.85
574.31	2374.89
574.67	2376.77
575.02	2377.73
575.37	2379.50
575.72	2380.37
576.08	2382.02
576.43	2382.31
576.78	2383.06
577.13	2384.79
577.49	2386.42
577.84	2387.84
578.19	2389.45
578.54	2390.42
578.90	2391.57
579.25	2391.74
579.60	2392.14
579.95	2391.74
580.30	2392.20
580.66	2391.71
581.01	2390.24
581.36	2388.33
581.71	2387.40
582.06	2386.74
582.42	2386.25
582.77	2384.38
583.12	2383.21
583.47	2382.22
583.82	2382.13
584.17	2381.30
584.53	2379.65
584.88	2377.67
585.23	2376.14
585.58	2374.13
585.93	2372.42
586.28	2370.55
586.63	2368.37
586.98	2366.48
587.34	2364.93
587.69	2362.85
588.04	2361.09
588.39	2359.90
588.74	2357.71
589.09	2355.45
589.44	2352.49
589.79	2350.32
590.14	2348.64
590.49	2345.99
590.84	2342.48
591.19	2339.68
591.54	2336.70
591.89	2332.87
592.25	2329.88
592.60	2326.05
592.95	2322.33
593.30	2318.52
593.65	2314.30
594.00	2309.97
594.35	2307.18
594.70	2302.71
595.05	2298.43
595.40	2293.30
595.75	2287.91
596.10	2284.42
596.45	2279.72
596.80	2275.38
597.15	2270.27
597.50	2264.39
597.85	2259.65
598.19	2254.55
598.54	2248.78
598.89	2243.69
599.24	2239.34
599.59	2233.48
599.94	2227.87
600.29	2221.89
600.64	2215.89
600.99	2209.27
601.34	2203.97
601.69	2197.09
602.04	2190.73
602.39	2184.20
602.74	2178.10
603.08	2172.62
603.43	2166.25
603.78	2159.54
604.13	2152.51
604.48	2145.31
604.83	2139.48
605.18	2133.35
605.53	2126.61
605.87	2119.78
606.22	2113.14
606.57	2105.37
606.92	2097.50
607.27	2090.52
607.62	2084.11
607.96	2077.36
608.31	2071.11
608.66	2063.47
609.01	2055.98
609.36	2048.97
609.70	2041.44
610.05	2033.88
610.40	2025.70
610.75	2017.55
611.10	2009.76
611.44	2001.12
611.79	1992.69
612.14	1982.72
612.49	1972.16
612.83	1962.81
613.18	1953.60
613.53	1944.29
613.88	1934.83
614.22	1926.37
614.57	1916.60
614.92	1906.04
615.27	1895.85
615.61	1885.72
615.96	1876.13
616.31	1866.65
616.65	1857.25
617.00	1847.57
617.35	1837.99
617.70	1828.25
618.04	1818.20
618.39	1808.19
618.74	1798.49
619.08	1788.84
619.43	1780.14
619.78	1771.83
620.12	1763.20
620.47	1753.59
620.82	1743.38
621.16	1733.47
621.51	1723.53
621.85	1713.60
622.20	1703.14
622.55	1692.60
622.89	1682.76
623.24	1673.07
623.59	1663.25
623.93	1653.19
624.28	1643.22
624.62	1632.96
624.97	1622.65
625.32	1612.77
625.66	1603.79
626.01	1594.97
626.35	1585.58
626.70	1575.48
627.04	1565.46
627.39	1555.42
627.73	1546.24
628.08	1537.13
628.43	1527.59
628.77	1518.36
629.12	1509.46
629.46	1501.73
629.81	1493.36
630.15	1483.82
630.50	1473.96
630.84	1463.35
631.19	1453.44
631.53	1444.23
631.88	1434.11
632.22	1424.17
632.57	1414.80
632.91	1404.68
633.26	1394.78
633.60	1385.20
633.95	1375.95
634.29	1366.56
634.64	1357.19
634.98	1347.17
635.32	1337.93
635.67	1329.43
636.01	1320.13
636.36	1310.49
636.70	1300.82
637.05	1291.42
637.39	1282.53
637.73	1273.91
638.08	1266.30
638.42	1258.05
638.77	1249.22
639.11	1241.00
639.45	1233.11
639.80	1224.60
640.14	1215.78
640.49	1206.88
640.83	1198.01
641.17	1189.83
641.52	1181.60
641.86	1172.99
642.20	1165.12
642.55	1156.43
642.89	1147.58
643.23	1138.97
643.58	1130.78
643.92	1121.77
644.26	1113.02
644.61	1104.46
644.95	1095.61
645.29	1086.48
645.64	1077.41
645.98	1068.98
646.32	1061.01
646.66	1052.52
647.01	1044.14
647.35	1035.96
647.69	1027.76
648.04	1019.44
648.38	1010.61
648.72	1001.84
649.06	993.47
649.41	985.22
649.75	977.38
650.09	969.47
650.43	961.41
650.78	953.21
651.12	945.62
651.46	938.33
651.80	931.18
652.14	923.89
652.49	916.29
652.83	908.86
653.17	901.17
653.51	893.64
653.85	886.41
654.20	879.19
654.54	871.84
654.88	864.64
655.22	857.54
655.56	850.56
655.90	843.88
656.25	837.27
656.59	830.49
656.93	823.51
657.27	816.43
657.61	809.57
657.95	803.53
658.29	797.62
658.64	791.52
658.98	784.99
659.32	778.57
659.66	772.45
660.00	766.26
660.34	760.32
660.68	754.28
661.02	748.04
661.36	742.21
661.70	736.52
662.05	730.89
662.39	725.48
662.73	720.11
663.07	714.73
663.41	709.14
663.75	703.50
664.09	697.89
664.43	692.59
664.77	687.31
665.11	681.54
665.45	675.71
665.79	669.97
666.13	664.43
666.47	659.04
666.81	653.72
667.15	648.39
667.49	643.23
667.83	638.00
668.17	632.77
668.51	627.67
668.85	622.77
669.19	617.90
669.53	612.96
669.87	607.99
670.21	603.34
670.55	598.69
670.89	594.35
671.23	590.04
671.57	585.70
671.91	581.43
672.25	577.31
672.58	573.31
672.92	569.30
673.26	565.38
673.60	561.52
673.94	557.78
674.28	554.21
674.62	550.51
674.96	546.84
675.30	543.47
675.64	539.91
675.97	536.33
676.31	532.91
676.65	529.37
676.99	526.04
677.33	522.25
677.67	518.74
678.01	514.90
678.34	511.42
678.68	507.94
679.02	504.46
679.36	500.89
679.70	497.32
680.04	493.84
680.37	490.55
680.71	487.29
681.05	484.15
681.39	480.98
681.73	477.88
682.06	474.89
682.40	471.84
682.74	468.69
683.08	465.65
683.42	462.52
683.75	459.53
684.09	456.56
684.43	453.79
684.77	450.93
685.10	448.17
685.44	445.27
685.78	442.49
686.12	439.79
686.45	437.12
686.79	434.49
687.13	432.03
687.46	429.45
687.80	426.89
688.14	424.16
688.48	421.62
688.81	419.02
689.15	416.54
689.49	414.04
689.82	411.65
690.16	409.08
690.50	406.73
690.83	404.34
691.17	401.85
691.51	399.49
691.84	397.27
692.18	395.12
692.52	393.03
692.85	390.88
693.19	388.85
693.52	386.78
693.86	384.61
694.20	382.48
694.53	380.37
694.87	378.18
695.21	376.09
695.54	373.96
695.88	371.84
696.21	369.68
696.55	367.62
696.88	365.62
697.22	363.74
697.56	361.83
697.89	360.03
698.23	358.36
698.56	356.63
698.90	354.91
699.23	353.12
699.57	351.31
699.90	349.54
700.24	347.72
700.58	345.99
700.91	344.42
701.25	342.90
701.58	341.34
701.92	339.83
702.25	338.28
702.59	336.71
702.92	335.23
703.26	333.73
703.59	332.33
703.93	331.11
704.26	329.76
704.60	328.33
704.93	326.91
705.26	325.43
705.60	323.99
705.93	322.54
706.27	321.23
706.60	319.96
706.94	318.78
707.27	317.43
707.61	316.15
707.94	314.85
708.27	313.41
708.61	312.03
708.94	310.65
709.28	309.42
709.61	308.27
709.94	307.14
710.28	305.96
710.61	304.77
710.95	303.37
711.28	302.32
711.61	301.16
711.95	300.05
712.28	298.87
712.61	297.73
712.95	296.74
713.28	295.73
713.61	294.62
713.95	293.49
714.28	292.56
714.61	291.55
714.95	290.61
715.28	289.61
715.61	288.65
715.95	287.79
716.28	286.89
716.61	285.98
716.95	285.02
717.28	284.15
717.61	283.25
717.94	282.41
718.28	281.38
718.61	280.53
718.94	279.67
719.27	278.91
719.61	278.13
719.94	277.27
720.27	276.37
720.60	275.57
720.94	274.82
721.27	274.04
721.60	273.37
721.93	272.68
722.27	272.06
722.60	271.44
722.93	270.75
723.26	270.11
723.59	269.40
723.93	268.80
724.26	268.15
724.59	267.53
724.92	266.93
725.25	266.43
725.59	265.84
725.92	265.34
726.25	264.77
726.58	264.21
726.91	263.67
727.24	263.16
727.57	262.64
727.91	262.04
728.24	261.54
728.57	260.93
728.90	260.36
729.23	259.79
729.56	259.36
729.89	258.86
730.22	258.33
730.55	257.80
730.89	257.31
731.22	256.80
731.55	256.32
731.88	255.85
732.21	255.31
732.54	254.86
732.87	254.33
733.20	253.87
733.53	253.40
733.86	252.92
734.19	252.44
734.52	252.06
734.85	251.79
735.18	251.34
735.51	251.02
735.84	250.62
736.17	250.26
736.50	249.75
736.83	249.65
737.16	249.27
737.49	248.95
737.82	248.56
738.15	248.21
738.48	247.82
738.81	247.45
739.14	247.08
739.47	246.74
739.80	246.39
740.13	246.07
740.46	245.69
740.79	245.32
741.12	245.02
741.45	244.61
741.78	244.22
742.11	243.95
742.44	243.59
742.77	243.31
743.10	242.96
743.43	242.65
743.75	242.07
744.08	242.00
744.41	241.64
744.74	241.28
745.07	240.93
745.40	240.66
745.73	240.40
746.06	240.15
746.39	239.82
746.71	239.53
747.04	239.19
747.37	238.89
747.70	238.64
748.03	238.32
748.36	238.08
748.68	237.77
749.01	237.41
749.34	237.12
749.67	236.85
750.00	236.58
750.33	236.43
750.65	236.19
750.98	235.68
751.31	235.43
751.64	235.24
751.97	235.13
752.29	234.87
752.62	234.53
752.95	234.23
753.28	233.97
753.60	233.73
753.93	233.59
754.26	233.45
754.59	233.15
754.91	232.94
755.24	232.70
755.57	232.48
755.90	232.30
756.22	232.08
756.55	231.80
756.88	231.59
757.20	231.29
757.53	231.03
757.86	230.83
758.19	230.65
758.51	230.42
758.84	230.14
759.17	229.94
759.49	229.80
759.82	229.72
760.15	229.59
760.47	229.40
760.80	229.12
761.13	228.93
761.45	228.74
761.78	228.57
762.11	228.43
762.43	228.26
762.76	228.07
763.08	227.95
763.41	227.83
763.74	227.67
764.06	227.52
764.39	227.39
764.71	227.22
765.04	227.07
765.37	226.95
765.69	226.79
766.02	226.68
766.34	226.52
766.67	226.28
767.00	226.18
767.32	226.17
767.65	226.19
767.97	226.06
768.30	226.00
768.62	225.88
768.95	225.70
769.27	225.56
769.60	225.46
769.92	225.29
770.25	225.15
770.57	224.99
770.90	224.87
771.22	224.75
771.55	224.64
771.87	224.52
772.20	224.42
772.52	224.50
772.85	224.62
773.17	224.53
773.50	224.46
773.82	224.35
774.15	224.16
774.47	223.93
774.80	223.81
775.12	223.65
775.45	223.57
775.77	223.49
776.09	223.44
776.42	223.36
776.74	223.37
777.07	223.26
777.39	223.21
777.72	223.12
778.04	223.06
778.36	223.01
778.69	222.95
779.01	222.87
779.33	222.63
779.66	222.33
779.98	222.24
780.31	222.16
780.63	222.14
780.95	222.09
781.28	222.01
781.60	221.95
781.92	221.89
782.25	221.81
782.57	221.75
782.89	221.66
783.22	221.59
783.54	221.46
783.86	221.43
784.19	221.36
784.51	221.37
784.83	221.26
785.16	221.20
785.48	221.11
785.80	221.07
786.12	220.96
786.45	220.92
786.77	220.86
787.09	220.81
787.42	220.69
787.74	220.63
788.06	220.60
788.38	220.52
788.71	220.49
789.03	220.46
789.35	220.48
789.67	220.39
789.99	220.32
790.32	220.27
790.64	220.22
790.96	220.33
791.28	220.19
791.61	220.14
791.93	220.08
792.25	220.04
792.57	220.14
792.89	220.11
793.21	220.06
793.54	220.00
793.86	219.96
794.18	219.90
794.50	219.82
794.82	219.77
795.14	219.78
795.47	219.76
795.79	219.72
796.11	219.62
796.43	219.61
796.75	219.58
797.07	219.52
797.39	219.47
797.71	219.29
798.04	219.26
798.36	219.23
798.68	219.21
799.00	219.16
799.32	218.97
799.64	218.98
799.96	218.97
800.28	218.97
800.60	218.93
800.92	218.91
801.24	218.88
801.56	218.84
801.89	218.77
802.21	218.75
802.53	218.69
802.85	218.71
803.17	218.80
803.49	218.75
803.81	218.73
804.13	218.72
804.45	218.66
804.77	218.63
805.09	218.64
805.41	218.57
805.73	218.54
806.05	218.48
806.37	218.39
806.69	218.35
807.01	218.32
807.33	218.28
807.65	218.20
807.97	218.25
808.28	218.21
808.60	218.20
808.92	218.13
809.24	218.23
809.56	218.16
809.88	218.00
810.20	217.98
810.52	218.00
810.84	217.93
811.16	217.89
811.48	217.89
811.80	217.91
812.12	217.89
812.43	217.91
812.75	217.85
813.07	217.86
813.39	217.84
813.71	217.77
814.03	217.74
814.35	217.72
814.67	217.64
814.98	217.62
815.30	217.58
815.62	217.54
815.94	217.36
816.26	217.31
816.58	217.30
816.89	217.30
817.21	217.24
817.53	217.19
817.85	217.19
818.17	217.14
818.48	217.04
818.80	217.08
819.12	217.04
819.44	217.05
819.76	217.01
820.07	216.99
820.39	216.97
820.71	216.98
821.03	216.99
821.34	216.95
821.66	216.96
821.98	216.97
822.30	216.95
822.61	217.05
822.93	217.04
823.25	217.01
823.57	216.97
823.88	216.98
824.20	217.02
824.52	217.06
824.83	217.06
825.15	217.04
825.47	216.99
825.79	217.00
826.10	216.97
826.42	216.94
826.74	216.94
827.05	216.95
827.37	216.92
827.69	216.91
828.00	216.92
828.32	216.89
828.64	216.84
828.95	216.95
829.27	216.90
829.58	216.88
829.90	216.93
830.22	216.92
830.53	216.86
830.85	216.84
831.17	216.74
831.48	216.68
831.80	216.69
832.11	216.69
832.43	216.60
832.75	216.62
833.06	216.73
833.38	216.67
833.69	216.63
834.01	216.63
834.32	216.63
834.64	216.60
834.96	216.59
835.27	216.59
835.59	216.53
835.90	216.50
836.22	216.48
836.53	216.36
836.85	216.34
837.16	216.54
837.48	216.53
837.79	216.61
838.11	216.61
838.42	216.59
838.74	216.58
839.05	216.56
839.37	216.50
839.68	216.37
840.00	216.36
840.31	216.38
840.63	216.35
840.94	216.33
841.26	216.31
841.57	216.31
841.88	216.35
842.20	216.30
842.51	216.30
842.83	216.29
843.14	216.50
843.46	216.51
843.77	216.38
844.08	216.37
844.40	216.32
844.71	216.32
845.03	216.30
845.34	216.29
845.65	216.31
845.97	216.33
846.28	216.35
846.60	216.32
846.91	216.30
847.22	216.31
847.54	216.36
847.85	216.37
848.16	216.34
848.48	216.27
848.79	216.36
849.10	216.34
849.42	216.40
849.73	216.21
850.04	216.18
850.36	216.10
850.67	216.12
850.98	216.09
851.30	216.12
851.61	216.11
851.92	216.09
852.23	216.17
852.55	216.16
852.86	216.16
853.17	216.20
853.49	216.22
853.80	216.25
854.11	216.26
854.42	216.29
854.74	216.29
855.05	216.27
855.36	216.16
855.67	216.15
855.99	216.12
856.30	216.37
856.61	216.37
856.92	216.39
857.23	216.40
857.55	216.40
857.86	216.38
858.17	216.40
858.48	216.38
858.79	216.30
859.11	216.33
859.42	216.35
859.73	216.31
860.04	216.33
860.35	216.26
860.66	216.17
860.98	216.15
861.29	216.15
861.60	216.14
861.91	216.19
862.22	216.18
862.53	216.13
862.84	215.92
863.16	215.96
863.47	215.92
863.78	215.90
864.09	215.92
864.40	215.91
864.71	215.89
865.02	215.91
865.33	215.87
865.64	215.84
865.95	215.79
866.27	215.91
866.58	215.87
866.89	215.89
867.20	215.89
867.51	215.86
867.82	215.85
868.13	215.91
868.44	215.87
868.75	215.92
869.06	215.92
869.37	215.91
869.68	215.87
869.99	215.88
870.30	215.88
870.61	215.88
870.92	215.85
871.23	215.83
871.54	215.85
871.85	215.91
872.16	215.90
872.47	215.91
872.78	215.77
873.09	215.79
873.40	215.78
873.71	215.79
874.02	215.79
874.33	215.79
874.64	215.75
874.95	215.76
875.26	215.67
875.56	215.68
875.87	215.68
876.18	215.66
876.49	215.88
876.80	215.87
877.11	215.84
877.42	215.83
877.73	215.84
878.04	215.78
878.35	215.79
878.66	215.79
878.96	215.78
879.27	215.79
879.58	215.77
879.89	215.75
880.20	215.79
880.51	215.78
880.82	215.74
881.12	215.73
881.43	215.71
881.74	215.72
882.05	215.72
882.36	215.73
882.67	215.75
882.97	215.50
883.28	215.47
883.59	215.48
883.90	215.56
884.21	215.60
884.51	215.65
884.82	215.60
885.13	215.62
885.44	215.61
885.74	215.63
886.05	215.63
886.36	215.63
886.67	215.59
886.98	215.73
887.28	215.78
887.59	215.77
887.90	215.81
888.20	215.80
888.51	215.81
888.82	215.77
889.13	215.74
889.43	215.93
889.74	215.92
890.05	215.91
890.35	215.83
890.66	215.80
890.97	215.77
891.28	215.75
891.58	215.75
891.89	215.73
892.20	215.70
892.50	215.70
892.81	215.69
893.12	215.68
893.42	215.56
893.73	215.55
894.04	215.58
894.34	215.58
894.65	215.55
894.95	215.56
895.26	215.56
895.57	215.64
895.87	215.44
896.18	215.45
896.48	215.43
896.79	215.46
897.10	215.47
897.40	215.50
897.71	215.53
898.01	215.50
898.32	215.53
898.63	215.54
898.93	215.53
899.24	215.52
899.54	215.49
899.85	215.47
900.15	215.46
900.46	215.44
900.76	215.43
901.07	215.44
901.38	215.39
901.68	215.42
901.99	215.34
902.29	215.36
902.60	215.35
902.90	215.35
903.21	215.34
903.51	215.30
903.82	215.33
904.12	215.32
904.43	215.31
904.73	215.32
905.03	215.30
905.34	215.51
905.64	215.49
905.95	215.50
906.25	215.51
906.56	215.52
906.86	215.51
907.17	215.49
907.47	215.52
907.77	215.52
908.08	215.50
908.38	215.51
908.69	215.53
908.99	215.60
909.30	215.64
909.60	215.63
909.90	215.67
910.21	215.61
910.51	215.58
910.81	215.61
911.12	215.62
911.42	215.66
911.73	215.42
912.03	215.42
912.33	215.45
912.64	215.44
912.94	215.40
913.24	215.37
913.55	215.35
913.85	215.30
914.15	215.34
914.46	215.34
914.76	215.33
915.06	215.30
915.37	215.25
915.67	215.23
915.97	215.25
916.27	215.20
916.58	215.21
916.88	215.21
917.18	215.17
917.49	215.30
917.79	215.29
918.09	215.34
918.39	215.41
918.70	215.44
919.00	215.45
919.30	215.56
919.60	215.53
919.91	215.50
920.21	215.53
920.51	215.50
920.81	215.47
921.12	215.51
921.42	215.52
921.72	215.54
922.02	215.54
922.32	215.57
922.63	215.57
922.93	215.66
923.23	215.65
923.53	215.65
923.83	215.52
924.13	215.54
924.44	215.54
924.74	215.56
925.04	215.56
925.34	215.56
925.64	215.46
925.94	215.50
926.24	215.64
926.55	215.63
926.85	215.67
927.15	215.69
927.45	215.71
927.75	215.72
928.05	215.70
928.35	215.67
928.65	215.70
928.95	215.74
929.26	215.65
929.56	215.70
929.86	215.73
930.16	215.71
930.46	215.66
930.76	215.68
931.06	215.60
931.36	215.54
931.66	215.57
931.96	215.60
932.26	215.63
932.56	215.54
932.86	215.55
933.16	215.56
933.46	215.55
933.76	215.46
934.06	215.49
934.36	215.52
934.66	215.54
934.96	215.50
935.26	215.49
935.56	215.54
935.86	215.46
936.16	215.44
936.46	215.43
936.76	215.45
937.06	215.38
937.36	215.42
937.66	215.44
937.96	215.44
938.26	215.41
938.56	215.37
938.86	215.37
939.16	215.39
939.46	215.40
939.76	215.44
940.06	215.46
940.35	215.43
940.65	215.36
940.95	215.37
941.25	215.30
941.55	215.21
941.85	215.20
942.15	215.25
942.45	215.27
942.75	215.29
943.04	215.30
943.34	215.36
943.64	215.30
943.94	215.24
944.24	215.23
944.54	215.25
944.84	215.21
945.13	215.19
945.43	215.16
945.73	215.13
946.03	215.07
946.33	215.04
946.62	215.01
946.92	215.01
947.22	215.00
947.52	215.06
947.82	215.13
948.11	215.09
948.41	215.04
948.71	215.00
949.01	214.97
949.31	214.93
949.60	214.90
949.90	214.97
950.20	214.94
950.50	214.92
950.79	214.89
951.09	214.93
951.39	214.91
951.69	214.92
951.98	214.95
952.28	214.98
952.58	214.98
952.87	214.98
953.17	215.01
953.47	215.00
953.76	214.97
954.06	214.94
954.36	214.92
954.66	214.94
954.95	215.01
955.25	215.05
955.55	215.10
955.84	215.07
956.14	215.09
956.44	215.16
956.73	215.15
957.03	215.16
957.32	215.14
957.62	215.15
957.92	215.15
958.21	215.13
958.51	215.36
958.81	215.43
959.10	215.45
959.40	215.50
959.69	215.51
959.99	215.52
960.29	215.54
960.58	215.54
960.88	215.64
961.17	215.59
961.47	215.61
961.76	215.57
962.06	215.60
962.36	215.56
962.65	215.56
962.95	215.57
963.24	215.57
963.54	215.60
963.83	215.62
964.13	215.62
964.42	215.58
964.72	215.42
965.01	215.40
965.31	215.41
965.60	215.34
965.90	215.46
966.19	215.44
966.49	215.42
966.78	215.43
967.08	215.39
967.37	215.39
967.67	215.33
967.96	215.37
968.26	215.33
968.55	215.38
968.85	215.36
969.14	215.36
969.43	215.38
969.73	215.36
970.02	215.35
970.32	215.36
970.61	215.37
970.91	215.29
971.20	215.24
971.49	215.22
971.79	215.26
972.08	215.11
972.38	215.11
972.67	215.12
972.96	215.16
973.26	215.10
973.55	215.16
973.85	215.17
974.14	215.13
974.43	215.15
974.73	215.08
975.02	215.11
975.31	215.11
975.61	215.06
975.90	215.03
976.19	214.99
976.49	214.99
976.78	214.98
977.07	214.99
977.37	215.00
977.66	214.99
977.95	214.94
978.24	214.95
978.54	215.03
978.83	215.01
979.12	214.97
979.42	214.97
979.71	214.92
980.00	214.91
980.29	214.92
980.59	214.87
980.88	214.94
981.17	214.91
981.46	214.92
981.76	214.94
982.05	215.01
982.34	215.05
982.63	215.04
982.93	215.05
983.22	215.10
983.51	215.14
983.80	215.17
984.09	215.21
984.39	215.19
984.68	215.14
984.97	215.16
985.26	215.18
985.55	215.19
985.85	215.14
986.14	215.16
986.43	215.20
986.72	215.21
987.01	215.09
987.30	215.09
987.59	215.09
987.89	215.08
988.18	215.02
988.47	214.97
988.76	214.96
989.05	214.94
989.34	214.89
989.63	214.91
989.92	214.89
990.22	214.86
990.51	214.84
990.80	214.81
991.09	214.83
991.38	214.84
991.67	214.83
991.96	214.88
992.25	214.88
992.54	214.87
992.83	214.88
993.12	214.94
993.41	214.96
993.70	215.03
993.99	215.10
994.28	215.14
994.58	215.19
994.87	215.15
995.16	215.16
995.45	215.14
995.74	215.10
996.03	215.10
996.32	215.14
996.61	215.21
996.90	215.19
997.19	215.19
997.48	215.22
997.77	215.18
998.06	215.19
998.34	215.19
998.63	215.18
998.92	215.18
999.21	215.23
999.50	215.24
999.79	215.18
1000.08	215.13
1000.37	215.15
1000.66	215.12
1000.95	215.21
1001.24	215.23
1001.53	215.26
1001.82	215.27
1002.11	215.27
1002.40	215.28
1002.68	215.36
1002.97	215.52
1003.26	215.48
1003.55	215.42
1003.84	215.46
1004.13	215.52
1004.42	215.52
1004.71	215.51
1004.99	215.50
1005.28	215.50
1005.57	215.50
1005.86	215.44
1006.15	215.43
1006.44	215.38
1006.72	215.44
1007.01	215.39
1007.30	215.36
1007.59	215.33
1007.88	215.34
1008.17	215.33
1008.45	215.28
1008.74	215.19
1009.03	215.11
1009.32	215.09
1009.60	215.08
1009.89	215.06
1010.18	214.95
1010.47	214.93
1010.76	214.94
1011.04	214.94
1011.33	214.94
1011.62	214.93
1011.91	214.99
1012.19	215.05
1012.48	215.03
1012.77	215.00
1013.05	215.09
1013.34	215.11
1013.63	215.10
1013.92	215.07
1014.20	215.07
1014.49	215.09
1014.78	215.08
1015.06	214.99
1015.35	214.99
1015.64	215.06
1015.92	215.08
1016.21	215.13
1016.50	215.13
1016.78	215.16
1017.07	215.18
1017.36	215.14
1017.64	215.10
1017.93	215.10
1018.22	215.03
1018.50	215.06
1018.79	215.07
1019.08	214.96
1019.36	214.99
1019.65	214.97
1019.93	215.05
1020.22	215.06
1020.51	215.15
1020.79	215.13
1021.08	214.42
1021.36	214.96
1021.65	215.24
1021.94	214.93
1022.22	215.45
1022.51	214.50
1022.79	216.22
1023.08	215.10
1023.36	217.30
1023.65	214.48
>>>>>End Processed Spectral Data<<<<<
