SpectraSuite Data File
++++++++++++++++++++++++++++++++++++
Date: Tue Jan 29 16:48:33 EST 2013
User: group
Dark Spectrum Present: No
Reference Spectrum Present: No
Number of Sampled Component Spectra: 1
Spectrometers: USB2E7196
Integration Time (usec): 65000 (USB2E7196)
Spectra Averaged: 100 (USB2E7196)
Boxcar Smoothing: 10 (USB2E7196)
Correct for Electrical Dark: No (USB2E7196)
Strobe/Lamp Enabled: No (USB2E7196)
Correct for Detector Non-linearity: No (USB2E7196)
Correct for Stray Light: No (USB2E7196)
Number of Pixels in Processed Spectrum: 2048
>>>>>Begin Processed Spectral Data<<<<<
339.09	0.00
339.48	201.86
339.86	202.72
340.24	204.68
340.63	206.24
341.01	210.25
341.39	209.00
341.78	210.23
342.16	211.56
342.54	211.63
342.93	200.97
343.31	211.10
343.69	211.64
344.07	212.13
344.46	212.58
344.84	213.00
345.22	213.17
345.60	213.42
345.99	213.63
346.37	213.78
346.75	213.90
347.13	213.98
347.52	214.08
347.90	214.20
348.28	214.26
348.66	214.33
349.05	214.26
349.43	214.31
349.81	214.38
350.19	214.43
350.57	214.53
350.96	214.62
351.34	214.72
351.72	214.86
352.10	214.95
352.48	215.02
352.87	215.04
353.25	215.12
353.63	215.18
354.01	215.23
354.39	215.30
354.77	215.37
355.15	215.49
355.54	215.52
355.92	215.54
356.30	215.59
356.68	215.80
357.06	215.87
357.44	215.93
357.82	215.96
358.20	216.05
358.58	216.11
358.97	216.16
359.35	216.30
359.73	216.37
360.11	216.43
360.49	216.47
360.87	216.50
361.25	216.57
361.63	216.69
362.01	216.76
362.39	216.76
362.77	216.81
363.15	216.82
363.53	216.86
363.91	216.86
364.29	216.88
364.67	216.68
365.05	216.70
365.43	216.74
365.81	216.78
366.19	216.87
366.57	217.00
366.95	217.00
367.33	216.95
367.71	216.95
368.09	216.99
368.47	216.98
368.85	216.98
369.23	217.03
369.61	216.97
369.99	217.00
370.37	217.04
370.75	217.12
371.13	217.06
371.51	217.01
371.89	217.03
372.27	217.03
372.65	217.00
373.03	217.00
373.41	216.97
373.78	216.93
374.16	216.81
374.54	216.68
374.92	216.63
375.30	216.58
375.68	216.49
376.06	216.43
376.44	216.40
376.82	216.35
377.19	216.26
377.57	216.15
377.95	216.06
378.33	215.97
378.71	215.80
379.09	215.79
379.47	215.76
379.84	215.65
380.22	215.57
380.60	215.53
380.98	215.48
381.36	215.41
381.73	215.35
382.11	215.36
382.49	215.31
382.87	215.22
383.25	215.19
383.62	215.37
384.00	215.31
384.38	215.27
384.76	215.30
385.13	215.37
385.51	215.37
385.89	215.30
386.27	215.30
386.64	215.29
387.02	215.24
387.40	215.21
387.78	215.25
388.15	215.24
388.53	215.21
388.91	215.18
389.29	215.16
389.66	215.15
390.04	215.10
390.42	215.12
390.79	215.13
391.17	215.10
391.55	214.88
391.92	214.90
392.30	214.91
392.68	214.87
393.05	214.85
393.43	214.83
393.81	214.83
394.18	214.79
394.56	214.82
394.94	214.86
395.31	214.85
395.69	214.90
396.06	214.94
396.44	214.99
396.82	215.00
397.19	215.14
397.57	215.13
397.95	215.18
398.32	215.16
398.70	215.21
399.07	215.28
399.45	215.30
399.82	215.33
400.20	215.35
400.58	215.43
400.95	215.36
401.33	215.51
401.70	215.73
402.08	215.85
402.45	215.95
402.83	216.09
403.20	216.20
403.58	216.24
403.95	216.42
404.33	216.56
404.71	216.70
405.08	216.94
405.46	217.15
405.83	217.32
406.21	217.51
406.58	217.76
406.96	217.99
407.33	218.23
407.70	218.57
408.08	219.02
408.45	219.36
408.83	219.77
409.20	220.08
409.58	220.37
409.95	220.84
410.33	221.30
410.70	221.73
411.08	222.28
411.45	222.91
411.82	223.49
412.20	224.17
412.57	225.00
412.95	225.59
413.32	226.42
413.69	227.27
414.07	228.20
414.44	229.18
414.82	230.20
415.19	231.41
415.56	232.58
415.94	233.76
416.31	235.16
416.68	236.58
417.06	238.20
417.43	239.75
417.81	241.43
418.18	243.25
418.55	245.22
418.93	247.29
419.30	249.35
419.67	251.55
420.04	253.90
420.42	256.27
420.79	259.09
421.16	261.90
421.54	264.80
421.91	267.80
422.28	270.92
422.66	274.22
423.03	277.48
423.40	280.86
423.77	284.44
424.15	288.12
424.52	292.01
424.89	296.24
425.26	300.35
425.64	304.24
426.01	308.50
426.38	312.99
426.75	317.51
427.13	322.33
427.50	327.32
427.87	332.48
428.24	337.70
428.61	342.70
428.99	348.22
429.36	354.30
429.73	360.23
430.10	366.12
430.47	372.26
430.85	378.58
431.22	385.29
431.59	392.48
431.96	399.27
432.33	406.81
432.70	414.04
433.08	422.58
433.45	430.68
433.82	438.77
434.19	447.73
434.56	456.48
434.93	464.78
435.30	473.09
435.68	482.32
436.05	491.37
436.42	500.27
436.79	508.44
437.16	517.11
437.53	526.40
437.90	535.59
438.27	544.57
438.64	553.78
439.01	562.37
439.38	569.95
439.75	577.36
440.13	585.79
440.50	593.78
440.87	600.24
441.24	606.97
441.61	614.25
441.98	619.66
442.35	626.03
442.72	632.45
443.09	638.60
443.46	642.28
443.83	644.81
444.20	647.15
444.57	650.33
444.94	651.93
445.31	653.39
445.68	654.81
446.05	655.47
446.42	654.81
446.79	653.87
447.16	652.84
447.53	652.13
447.90	648.82
448.27	645.61
448.64	640.98
449.01	637.67
449.37	631.81
449.74	626.09
450.11	619.13
450.48	611.70
450.85	604.21
451.22	597.71
451.59	591.59
451.96	585.69
452.33	577.82
452.70	570.69
453.07	562.20
453.43	553.55
453.80	545.18
454.17	537.05
454.54	529.48
454.91	521.23
455.28	513.17
455.65	505.69
456.02	498.07
456.38	491.74
456.75	483.78
457.12	477.21
457.49	470.65
457.86	464.44
458.23	459.03
458.59	453.05
458.96	447.05
459.33	441.64
459.70	436.22
460.07	431.92
460.43	426.99
460.80	422.41
461.17	418.37
461.54	414.13
461.91	410.16
462.27	405.99
462.64	402.56
463.01	398.76
463.38	395.04
463.74	391.33
464.11	388.00
464.48	385.13
464.85	382.04
465.21	379.65
465.58	377.04
465.95	373.86
466.32	371.23
466.68	368.62
467.05	366.06
467.42	363.51
467.78	360.78
468.15	358.20
468.52	356.26
468.88	353.76
469.25	351.54
469.62	349.72
469.98	347.74
470.35	345.93
470.72	344.22
471.08	342.38
471.45	340.89
471.82	339.34
472.18	337.65
472.55	336.34
472.92	334.90
473.28	333.65
473.65	332.48
474.02	331.35
474.38	330.42
474.75	329.58
475.11	328.75
475.48	328.12
475.85	327.59
476.21	327.05
476.58	326.71
476.94	326.46
477.31	326.13
477.67	325.87
478.04	325.68
478.41	325.63
478.77	325.80
479.14	325.73
479.50	325.88
479.87	326.23
480.23	326.58
480.60	326.84
480.96	327.09
481.33	327.70
481.69	328.22
482.06	328.74
482.42	329.27
482.79	329.85
483.15	330.67
483.52	331.64
483.88	332.52
484.25	333.42
484.61	334.45
484.98	335.48
485.34	336.79
485.71	338.14
486.07	339.58
486.44	340.88
486.80	342.46
487.17	344.18
487.53	345.99
487.90	347.90
488.26	349.92
488.62	352.11
488.99	354.17
489.35	356.39
489.72	358.81
490.08	361.33
490.44	363.91
490.81	366.61
491.17	369.29
491.54	372.29
491.90	375.31
492.26	378.55
492.63	381.94
492.99	385.46
493.36	389.08
493.72	392.95
494.08	396.98
494.45	401.20
494.81	405.49
495.17	409.92
495.54	414.60
495.90	419.41
496.26	424.29
496.63	429.48
496.99	434.86
497.35	440.36
497.72	446.11
498.08	452.02
498.44	458.11
498.80	464.60
499.17	471.08
499.53	477.80
499.89	484.70
500.26	491.65
500.62	498.73
500.98	506.16
501.34	513.68
501.71	521.44
502.07	529.25
502.43	537.25
502.79	545.38
503.16	553.78
503.52	562.36
503.88	571.05
504.24	579.95
504.60	588.97
504.97	598.26
505.33	607.55
505.69	617.46
506.05	627.29
506.41	637.13
506.78	647.18
507.14	657.47
507.50	667.87
507.86	678.53
508.22	689.22
508.59	699.81
508.95	710.84
509.31	722.07
509.67	733.52
510.03	744.92
510.39	756.57
510.75	768.27
511.12	780.10
511.48	792.20
511.84	804.39
512.20	816.74
512.56	829.22
512.92	842.07
513.28	854.58
513.64	867.43
514.00	880.30
514.37	893.27
514.73	906.33
515.09	919.44
515.45	932.47
515.81	945.63
516.17	959.11
516.53	972.36
516.89	985.39
517.25	998.63
517.61	1012.21
517.97	1025.70
518.33	1038.97
518.69	1052.55
519.05	1066.32
519.41	1080.19
519.77	1094.07
520.13	1107.53
520.49	1120.67
520.85	1134.20
521.21	1147.55
521.57	1161.23
521.93	1174.33
522.29	1188.09
522.65	1201.72
523.01	1215.15
523.37	1228.32
523.73	1241.69
524.09	1254.90
524.45	1268.41
524.81	1281.87
525.17	1295.35
525.53	1308.59
525.89	1321.88
526.25	1335.21
526.61	1348.03
526.97	1361.17
527.33	1374.15
527.68	1387.67
528.04	1401.25
528.40	1414.31
528.76	1427.65
529.12	1440.62
529.48	1454.02
529.84	1466.43
530.20	1479.15
530.56	1491.90
530.91	1505.19
531.27	1518.08
531.63	1530.87
531.99	1543.65
532.35	1555.95
532.71	1568.38
533.07	1581.32
533.42	1593.70
533.78	1605.73
534.14	1617.97
534.50	1629.17
534.86	1640.87
535.21	1651.80
535.57	1663.45
535.93	1674.95
536.29	1686.23
536.65	1697.77
537.00	1708.88
537.36	1720.41
537.72	1731.52
538.08	1743.05
538.44	1754.14
538.79	1765.28
539.15	1776.26
539.51	1787.23
539.87	1798.66
540.22	1809.57
540.58	1820.70
540.94	1831.72
541.29	1842.21
541.65	1852.00
542.01	1862.55
542.37	1872.73
542.72	1882.92
543.08	1892.56
543.44	1903.06
543.79	1912.37
544.15	1921.87
544.51	1931.88
544.87	1941.81
545.22	1951.19
545.58	1960.19
545.94	1969.14
546.29	1977.64
546.65	1986.12
547.01	1994.42
547.36	2002.11
547.72	2009.80
548.07	2017.32
548.43	2025.01
548.79	2032.94
549.14	2041.14
549.50	2049.74
549.86	2057.68
550.21	2065.27
550.57	2073.09
550.92	2079.82
551.28	2087.25
551.64	2094.51
551.99	2101.89
552.35	2108.88
552.70	2115.70
553.06	2122.32
553.41	2128.59
553.77	2135.22
554.13	2141.71
554.48	2148.71
554.84	2155.98
555.19	2162.55
555.55	2168.99
555.90	2175.32
556.26	2182.22
556.61	2188.41
556.97	2193.21
557.32	2198.95
557.68	2205.45
558.03	2211.31
558.39	2216.78
558.74	2222.83
559.10	2228.31
559.45	2233.87
559.81	2239.58
560.16	2245.08
560.52	2251.08
560.87	2257.39
561.23	2263.17
561.58	2269.73
561.94	2274.82
562.29	2279.28
562.64	2285.39
563.00	2291.01
563.35	2296.52
563.71	2301.95
564.06	2307.57
564.42	2313.56
564.77	2318.55
565.12	2323.52
565.48	2328.42
565.83	2333.76
566.19	2338.99
566.54	2344.21
566.89	2348.81
567.25	2353.27
567.60	2358.85
567.96	2363.83
568.31	2368.35
568.66	2372.49
569.02	2376.30
569.37	2379.99
569.72	2384.29
570.08	2387.63
570.43	2390.58
570.78	2393.54
571.14	2395.96
571.49	2398.90
571.84	2402.15
572.20	2404.98
572.55	2407.82
572.90	2410.08
573.26	2412.83
573.61	2415.33
573.96	2417.47
574.31	2419.45
574.67	2421.19
575.02	2421.97
575.37	2423.42
575.72	2423.94
576.08	2425.41
576.43	2425.43
576.78	2425.82
577.13	2427.19
577.49	2428.26
577.84	2429.13
578.19	2430.37
578.54	2430.89
578.90	2431.37
579.25	2431.06
579.60	2430.78
579.95	2429.88
580.30	2429.76
580.66	2428.84
581.01	2427.03
581.36	2424.47
581.71	2422.83
582.06	2421.59
582.42	2420.50
582.77	2417.79
583.12	2416.03
583.47	2414.38
583.82	2413.55
584.17	2412.12
584.53	2409.98
584.88	2407.62
585.23	2405.63
585.58	2403.06
585.93	2400.93
586.28	2398.73
586.63	2396.26
586.98	2393.87
587.34	2391.84
587.69	2389.13
588.04	2386.94
588.39	2385.36
588.74	2382.74
589.09	2379.75
589.44	2376.28
589.79	2373.52
590.14	2371.60
590.49	2368.66
590.84	2364.70
591.19	2361.30
591.54	2357.86
591.89	2353.54
592.25	2350.08
592.60	2345.66
592.95	2341.57
593.30	2337.23
593.65	2332.59
594.00	2327.90
594.35	2324.77
594.70	2319.94
595.05	2315.46
595.40	2309.88
595.75	2303.83
596.10	2300.23
596.45	2295.37
596.80	2290.57
597.15	2285.33
597.50	2279.28
597.85	2274.31
598.19	2269.03
598.54	2263.26
598.89	2257.96
599.24	2253.39
599.59	2247.20
599.94	2241.47
600.29	2235.30
600.64	2229.34
600.99	2222.48
601.34	2217.08
601.69	2210.03
602.04	2203.64
602.39	2196.91
602.74	2190.80
603.08	2185.45
603.43	2178.86
603.78	2171.96
604.13	2164.92
604.48	2157.62
604.83	2151.41
605.18	2145.26
605.53	2138.27
605.87	2131.27
606.22	2124.46
606.57	2116.77
606.92	2108.95
607.27	2102.04
607.62	2095.44
607.96	2088.54
608.31	2082.16
608.66	2074.31
609.01	2066.78
609.36	2059.57
609.70	2051.86
610.05	2044.11
610.40	2035.65
610.75	2027.28
611.10	2019.59
611.44	2010.92
611.79	2002.26
612.14	1992.32
612.49	1981.47
612.83	1972.29
613.18	1962.98
613.53	1953.71
613.88	1943.98
614.22	1935.25
614.57	1925.19
614.92	1914.60
615.27	1904.34
615.61	1894.21
615.96	1884.56
616.31	1874.89
616.65	1865.63
617.00	1856.03
617.35	1846.41
617.70	1836.82
618.04	1826.91
618.39	1816.83
618.74	1807.25
619.08	1797.62
619.43	1789.03
619.78	1780.97
620.12	1772.32
620.47	1762.73
620.82	1752.49
621.16	1742.77
621.51	1732.94
621.85	1723.33
622.20	1713.10
622.55	1702.59
622.89	1692.72
623.24	1683.13
623.59	1673.46
623.93	1663.35
624.28	1653.58
624.62	1643.54
624.97	1633.25
625.32	1623.45
625.66	1614.56
626.01	1605.91
626.35	1596.68
626.70	1586.66
627.04	1576.60
627.39	1566.61
627.73	1557.52
628.08	1548.68
628.43	1539.22
628.77	1530.10
629.12	1521.25
629.46	1513.52
629.81	1505.34
630.15	1495.98
630.50	1486.28
630.84	1475.98
631.19	1466.28
631.53	1457.07
631.88	1446.99
632.22	1437.21
632.57	1427.98
632.91	1418.02
633.26	1408.08
633.60	1398.55
633.95	1389.36
634.29	1379.97
634.64	1370.79
634.98	1360.92
635.32	1351.80
635.67	1343.43
636.01	1334.30
636.36	1324.67
636.70	1315.28
637.05	1305.98
637.39	1297.15
637.73	1288.58
638.08	1281.10
638.42	1272.92
638.77	1264.20
639.11	1256.03
639.45	1248.33
639.80	1239.84
640.14	1231.27
640.49	1222.58
640.83	1213.86
641.17	1205.71
641.52	1197.68
641.86	1189.18
642.20	1181.38
642.55	1172.74
642.89	1163.94
643.23	1155.40
643.58	1147.39
643.92	1138.43
644.26	1129.78
644.61	1121.35
644.95	1112.74
645.29	1103.55
645.64	1094.51
645.98	1086.06
646.32	1078.23
646.66	1069.67
647.01	1061.46
647.35	1053.33
647.69	1045.07
648.04	1036.82
648.38	1028.20
648.72	1019.48
649.06	1011.09
649.41	1002.93
649.75	995.03
650.09	987.29
650.43	979.31
650.78	971.02
651.12	963.32
651.46	955.82
651.80	948.70
652.14	941.34
652.49	933.91
652.83	926.60
653.17	918.94
653.51	911.33
653.85	904.12
654.20	896.88
654.54	889.48
654.88	882.25
655.22	875.17
655.56	868.06
655.90	861.23
656.25	854.60
656.59	847.76
656.93	840.77
657.27	833.56
657.61	826.54
657.95	820.44
658.29	814.50
658.64	808.57
658.98	802.05
659.32	795.55
659.66	789.28
660.00	783.03
660.34	777.03
660.68	770.95
661.02	764.61
661.36	758.56
661.70	752.78
662.05	747.21
662.39	741.63
662.73	736.32
663.07	730.99
663.41	725.37
663.75	719.59
664.09	713.97
664.43	708.59
664.77	703.29
665.11	697.51
665.45	691.62
665.79	685.76
666.13	680.13
666.47	674.65
666.81	669.22
667.15	663.77
667.49	658.56
667.83	653.33
668.17	648.17
668.51	643.16
668.85	638.20
669.19	633.35
669.53	628.36
669.87	623.23
670.21	618.41
670.55	613.65
670.89	609.18
671.23	604.80
671.57	600.38
671.91	596.10
672.25	591.92
672.58	587.77
672.92	583.68
673.26	579.76
673.60	575.83
673.94	571.96
674.28	568.32
674.62	564.57
674.96	560.75
675.30	557.21
675.64	553.50
675.97	549.95
676.31	546.25
676.65	542.64
676.99	539.17
677.33	535.32
677.67	531.74
678.01	528.00
678.34	524.32
678.68	520.74
679.02	517.12
679.36	513.38
679.70	509.73
680.04	506.21
680.37	502.68
680.71	499.36
681.05	496.14
681.39	492.91
681.73	489.67
682.06	486.67
682.40	483.57
682.74	480.36
683.08	477.09
683.42	473.84
683.75	470.79
684.09	467.77
684.43	464.96
684.77	462.00
685.10	459.09
685.44	456.16
685.78	453.24
686.12	450.46
686.45	447.71
686.79	444.99
687.13	442.42
687.46	439.80
687.80	437.09
688.14	434.29
688.48	431.59
688.81	428.88
689.15	426.30
689.49	423.64
689.82	421.07
690.16	418.45
690.50	415.98
690.83	413.47
691.17	410.86
691.51	408.33
691.84	405.98
692.18	403.73
692.52	401.52
692.85	399.37
693.19	397.17
693.52	395.03
693.86	392.80
694.20	390.49
694.53	388.27
694.87	386.04
695.21	383.87
695.54	381.69
695.88	379.56
696.21	377.28
696.55	375.16
696.88	373.09
697.22	371.11
697.56	369.19
697.89	367.26
698.23	365.45
698.56	363.68
698.90	361.93
699.23	360.03
699.57	358.12
699.90	356.23
700.24	354.38
700.58	352.59
700.91	350.90
701.25	349.37
701.58	347.74
701.92	346.13
702.25	344.47
702.59	342.83
702.92	341.23
703.26	339.63
703.59	338.07
703.93	336.77
704.26	335.28
704.60	333.76
704.93	332.26
705.26	330.77
705.60	329.27
705.93	327.72
706.27	326.37
706.60	325.12
706.94	323.88
707.27	322.49
707.61	321.12
707.94	319.76
708.27	318.20
708.61	316.77
708.94	315.36
709.28	314.03
709.61	312.74
709.94	311.51
710.28	310.30
710.61	309.12
710.95	307.69
711.28	306.59
711.61	305.37
711.95	304.25
712.28	303.04
712.61	301.84
712.95	300.77
713.28	299.72
713.61	298.56
713.95	297.39
714.28	296.36
714.61	295.30
714.95	294.29
715.28	293.24
715.61	292.21
715.95	291.28
716.28	290.35
716.61	289.40
716.95	288.36
717.28	287.45
717.61	286.46
717.94	285.56
718.28	284.50
718.61	283.60
718.94	282.67
719.27	281.80
719.61	280.97
719.94	280.07
720.27	279.06
720.60	278.13
720.94	277.30
721.27	276.50
721.60	275.78
721.93	275.05
722.27	274.43
722.60	273.76
722.93	273.04
723.26	272.36
723.59	271.62
723.93	271.01
724.26	270.36
724.59	269.71
724.92	269.12
725.25	268.55
725.59	267.97
725.92	267.45
726.25	266.83
726.58	266.23
726.91	265.60
727.24	265.04
727.57	264.46
727.91	263.82
728.24	263.25
728.57	262.63
728.90	262.02
729.23	261.35
729.56	260.89
729.89	260.32
730.22	259.76
730.55	259.20
730.89	258.65
731.22	258.07
731.55	257.53
731.88	256.96
732.21	256.44
732.54	255.88
732.87	255.32
733.20	254.84
733.53	254.34
733.86	253.91
734.19	253.39
734.52	253.00
734.85	252.73
735.18	252.28
735.51	251.89
735.84	251.48
736.17	251.08
736.50	250.55
736.83	250.40
737.16	249.99
737.49	249.62
737.82	249.19
738.15	248.82
738.48	248.45
738.81	248.04
739.14	247.60
739.47	247.23
739.80	246.89
740.13	246.55
740.46	246.17
740.79	245.75
741.12	245.39
741.45	245.02
741.78	244.55
742.11	244.26
742.44	243.87
742.77	243.54
743.10	243.21
743.43	242.86
743.75	242.21
744.08	242.12
744.41	241.79
744.74	241.41
745.07	241.00
745.40	240.68
745.73	240.43
746.06	240.13
746.39	239.81
746.71	239.40
747.04	239.04
747.37	238.68
747.70	238.39
748.03	238.07
748.36	237.79
748.68	237.48
749.01	237.11
749.34	236.81
749.67	236.53
750.00	236.25
750.33	236.12
750.65	235.93
750.98	235.42
751.31	235.14
751.64	234.93
751.97	234.84
752.29	234.60
752.62	234.23
752.95	233.98
753.28	233.71
753.60	233.49
753.93	233.30
754.26	233.12
754.59	232.86
754.91	232.66
755.24	232.41
755.57	232.17
755.90	231.93
756.22	231.70
756.55	231.44
756.88	231.20
757.20	230.86
757.53	230.58
757.86	230.36
758.19	230.15
758.51	229.94
758.84	229.63
759.17	229.42
759.49	229.26
759.82	229.15
760.15	229.00
760.47	228.81
760.80	228.55
761.13	228.38
761.45	228.17
761.78	227.94
762.11	227.78
762.43	227.58
762.76	227.41
763.08	227.27
763.41	227.14
763.74	226.98
764.06	226.81
764.39	226.64
764.71	226.52
765.04	226.38
765.37	226.21
765.69	226.05
766.02	225.91
766.34	225.75
766.67	225.54
767.00	225.43
767.32	225.46
767.65	225.47
767.97	225.32
768.30	225.20
768.62	225.09
768.95	224.91
769.27	224.78
769.60	224.69
769.92	224.54
770.25	224.39
770.57	224.21
770.90	224.09
771.22	223.96
771.55	223.82
771.87	223.67
772.20	223.55
772.52	223.62
772.85	223.75
773.17	223.64
773.50	223.54
773.82	223.40
774.15	223.14
774.47	222.93
774.80	222.82
775.12	222.76
775.45	222.66
775.77	222.61
776.09	222.55
776.42	222.44
776.74	222.42
777.07	222.31
777.39	222.25
777.72	222.15
778.04	222.09
778.36	222.01
778.69	221.96
779.01	221.89
779.33	221.62
779.66	221.29
779.98	221.22
780.31	221.12
780.63	221.14
780.95	221.09
781.28	221.01
781.60	220.90
781.92	220.79
782.25	220.72
782.57	220.62
782.89	220.57
783.22	220.51
783.54	220.39
783.86	220.34
784.19	220.28
784.51	220.29
784.83	220.22
785.16	220.11
785.48	220.07
785.80	220.02
786.12	220.01
786.45	219.95
786.77	219.92
787.09	219.87
787.42	219.73
787.74	219.69
788.06	219.62
788.38	219.58
788.71	219.51
789.03	219.48
789.35	219.49
789.67	219.39
789.99	219.34
790.32	219.26
790.64	219.18
790.96	219.30
791.28	219.16
791.61	219.12
791.93	219.09
792.25	219.00
792.57	219.10
792.89	218.99
793.21	218.97
793.54	218.87
793.86	218.80
794.18	218.77
794.50	218.70
794.82	218.66
795.14	218.62
795.47	218.65
795.79	218.60
796.11	218.48
796.43	218.45
796.75	218.40
797.07	218.38
797.39	218.39
797.71	218.19
798.04	218.15
798.36	218.11
798.68	218.08
799.00	218.07
799.32	217.91
799.64	217.94
799.96	217.88
800.28	217.87
800.60	217.83
800.92	217.78
801.24	217.75
801.56	217.74
801.89	217.69
802.21	217.65
802.53	217.57
802.85	217.57
803.17	217.61
803.49	217.54
803.81	217.46
804.13	217.42
804.45	217.36
804.77	217.36
805.09	217.33
805.41	217.29
805.73	217.21
806.05	217.15
806.37	217.07
806.69	217.01
807.01	216.98
807.33	216.94
807.65	216.83
807.97	216.90
808.28	216.87
808.60	216.85
808.92	216.80
809.24	216.90
809.56	216.84
809.88	216.74
810.20	216.72
810.52	216.76
810.84	216.70
811.16	216.66
811.48	216.59
811.80	216.62
812.12	216.58
812.43	216.61
812.75	216.56
813.07	216.53
813.39	216.54
813.71	216.50
814.03	216.47
814.35	216.46
814.67	216.34
814.98	216.25
815.30	216.23
815.62	216.15
815.94	215.98
816.26	215.97
816.58	215.92
816.89	215.91
817.21	215.83
817.53	215.84
817.85	215.81
818.17	215.80
818.48	215.73
818.80	215.75
819.12	215.71
819.44	215.69
819.76	215.63
820.07	215.61
820.39	215.59
820.71	215.57
821.03	215.58
821.34	215.56
821.66	215.58
821.98	215.57
822.30	215.57
822.61	215.68
822.93	215.65
823.25	215.67
823.57	215.62
823.88	215.68
824.20	215.65
824.52	215.68
824.83	215.70
825.15	215.66
825.47	215.60
825.79	215.58
826.10	215.53
826.42	215.52
826.74	215.52
827.05	215.52
827.37	215.53
827.69	215.50
828.00	215.49
828.32	215.47
828.64	215.43
828.95	215.53
829.27	215.45
829.58	215.45
829.90	215.43
830.22	215.49
830.53	215.37
830.85	215.34
831.17	215.28
831.48	215.20
831.80	215.20
832.11	215.20
832.43	215.18
832.75	215.22
833.06	215.36
833.38	215.29
833.69	215.27
834.01	215.27
834.32	215.26
834.64	215.22
834.96	215.22
835.27	215.20
835.59	215.13
835.90	215.11
836.22	215.08
836.53	215.00
836.85	214.93
837.16	215.18
837.48	215.18
837.79	215.26
838.11	215.30
838.42	215.29
838.74	215.31
839.05	215.28
839.37	215.25
839.68	215.07
840.00	215.07
840.31	215.06
840.63	215.01
840.94	215.00
841.26	214.98
841.57	214.98
841.88	215.01
842.20	214.95
842.51	214.91
842.83	214.92
843.14	215.14
843.46	215.14
843.77	215.00
844.08	215.00
844.40	214.92
844.71	214.92
845.03	214.88
845.34	214.83
845.65	214.82
845.97	214.82
846.28	214.84
846.60	214.88
846.91	214.81
847.22	214.82
847.54	214.85
847.85	214.84
848.16	214.82
848.48	214.79
848.79	214.91
849.10	214.93
849.42	214.92
849.73	214.72
850.04	214.72
850.36	214.66
850.67	214.68
850.98	214.64
851.30	214.64
851.61	214.65
851.92	214.68
852.23	214.74
852.55	214.75
852.86	214.77
853.17	214.74
853.49	214.79
853.80	214.82
854.11	214.82
854.42	214.86
854.74	214.82
855.05	214.82
855.36	214.69
855.67	214.68
855.99	214.67
856.30	214.91
856.61	214.88
856.92	214.86
857.23	214.85
857.55	214.85
857.86	214.84
858.17	214.85
858.48	214.80
858.79	214.76
859.11	214.76
859.42	214.74
859.73	214.72
860.04	214.72
860.35	214.64
860.66	214.57
860.98	214.54
861.29	214.54
861.60	214.52
861.91	214.58
862.22	214.55
862.53	214.51
862.84	214.25
863.16	214.27
863.47	214.23
863.78	214.19
864.09	214.20
864.40	214.19
864.71	214.19
865.02	214.21
865.33	214.16
865.64	214.10
865.95	214.10
866.27	214.22
866.58	214.19
866.89	214.23
867.20	214.24
867.51	214.21
867.82	214.23
868.13	214.29
868.44	214.21
868.75	214.23
869.06	214.24
869.37	214.28
869.68	214.25
869.99	214.29
870.30	214.31
870.61	214.31
870.92	214.26
871.23	214.26
871.54	214.28
871.85	214.33
872.16	214.42
872.47	214.36
872.78	214.25
873.09	214.28
873.40	214.23
873.71	214.23
874.02	214.25
874.33	214.22
874.64	214.18
874.95	214.25
875.26	214.22
875.56	214.20
875.87	214.19
876.18	214.17
876.49	214.35
876.80	214.34
877.11	214.33
877.42	214.37
877.73	214.36
878.04	214.33
878.35	214.34
878.66	214.30
878.96	214.30
879.27	214.29
879.58	214.25
879.89	214.23
880.20	214.28
880.51	214.28
880.82	214.26
881.12	214.26
881.43	214.19
881.74	214.16
882.05	214.16
882.36	214.14
882.67	214.15
882.97	213.91
883.28	213.90
883.59	213.89
883.90	213.89
884.21	213.90
884.51	213.85
884.82	213.82
885.13	213.80
885.44	213.83
885.74	213.83
886.05	213.87
886.36	213.90
886.67	213.85
886.98	213.94
887.28	213.97
887.59	213.96
887.90	213.98
888.20	213.96
888.51	213.98
888.82	213.97
889.13	213.98
889.43	214.17
889.74	214.17
890.05	214.16
890.35	214.12
890.66	214.11
890.97	214.08
891.28	214.09
891.58	214.09
891.89	214.09
892.20	214.10
892.50	214.08
892.81	214.07
893.12	214.05
893.42	213.94
893.73	213.94
894.04	213.94
894.34	213.94
894.65	213.96
894.95	213.95
895.26	213.99
895.57	214.09
895.87	213.89
896.18	213.92
896.48	213.92
896.79	213.93
897.10	213.95
897.40	214.01
897.71	213.99
898.01	213.96
898.32	214.01
898.63	213.97
898.93	213.96
899.24	213.95
899.54	213.93
899.85	213.96
900.15	213.97
900.46	213.96
900.76	214.01
901.07	214.01
901.38	214.02
901.68	214.03
901.99	213.91
902.29	213.94
902.60	213.92
902.90	213.94
903.21	213.96
903.51	213.98
903.82	213.99
904.12	214.01
904.43	214.05
904.73	214.02
905.03	214.07
905.34	214.28
905.64	214.29
905.95	214.30
906.25	214.27
906.56	214.25
906.86	214.25
907.17	214.22
907.47	214.24
907.77	214.19
908.08	214.15
908.38	214.18
908.69	214.19
908.99	214.24
909.30	214.22
909.60	214.23
909.90	214.20
910.21	214.12
910.51	214.06
910.81	214.07
911.12	214.08
911.42	214.09
911.73	213.85
912.03	213.84
912.33	213.88
912.64	213.89
912.94	213.84
913.24	213.82
913.55	213.82
913.85	213.81
914.15	213.85
914.46	213.89
914.76	213.86
915.06	213.84
915.37	213.77
915.67	213.79
915.97	213.81
916.27	213.77
916.58	213.83
916.88	213.88
917.18	213.84
917.49	213.95
917.79	213.93
918.09	213.99
918.39	214.07
918.70	214.04
919.00	214.08
919.30	214.20
919.60	214.20
919.91	214.16
920.21	214.14
920.51	214.12
920.81	214.08
921.12	214.15
921.42	214.14
921.72	214.17
922.02	214.17
922.32	214.14
922.63	214.15
922.93	214.27
923.23	214.25
923.53	214.23
923.83	214.13
924.13	214.13
924.44	214.12
924.74	214.15
925.04	214.22
925.34	214.17
925.64	214.08
925.94	214.06
926.24	214.19
926.55	214.17
926.85	214.21
927.15	214.20
927.45	214.17
927.75	214.21
928.05	214.23
928.35	214.20
928.65	214.23
928.95	214.26
929.26	214.14
929.56	214.20
929.86	214.23
930.16	214.22
930.46	214.22
930.76	214.23
931.06	214.10
931.36	214.02
931.66	214.05
931.96	214.11
932.26	214.11
932.56	214.02
932.86	214.05
933.16	214.02
933.46	214.00
933.76	213.94
934.06	213.97
934.36	214.03
934.66	214.04
934.96	213.99
935.26	213.98
935.56	214.01
935.86	213.93
936.16	213.91
936.46	213.89
936.76	213.84
937.06	213.80
937.36	213.84
937.66	213.88
937.96	213.89
938.26	213.83
938.56	213.81
938.86	213.83
939.16	213.89
939.46	213.93
939.76	213.96
940.06	213.97
940.35	213.92
940.65	213.79
940.95	213.79
941.25	213.79
941.55	213.76
941.85	213.77
942.15	213.81
942.45	213.85
942.75	213.83
943.04	213.85
943.34	213.88
943.64	213.83
943.94	213.78
944.24	213.77
944.54	213.76
944.84	213.78
945.13	213.76
945.43	213.71
945.73	213.68
946.03	213.66
946.33	213.66
946.62	213.64
946.92	213.66
947.22	213.68
947.52	213.68
947.82	213.70
948.11	213.64
948.41	213.59
948.71	213.53
949.01	213.56
949.31	213.55
949.60	213.52
949.90	213.55
950.20	213.54
950.50	213.55
950.79	213.54
951.09	213.55
951.39	213.53
951.69	213.53
951.98	213.57
952.28	213.59
952.58	213.57
952.87	213.59
953.17	213.60
953.47	213.57
953.76	213.58
954.06	213.52
954.36	213.53
954.66	213.54
954.95	213.61
955.25	213.60
955.55	213.61
955.84	213.58
956.14	213.60
956.44	213.62
956.73	213.61
957.03	213.60
957.32	213.59
957.62	213.62
957.92	213.66
958.21	213.61
958.51	213.83
958.81	213.89
959.10	213.91
959.40	213.97
959.69	213.97
959.99	214.00
960.29	214.05
960.58	214.03
960.88	214.12
961.17	214.10
961.47	214.14
961.76	214.13
962.06	214.22
962.36	214.23
962.65	214.25
962.95	214.26
963.24	214.27
963.54	214.31
963.83	214.30
964.13	214.28
964.42	214.24
964.72	214.10
965.01	214.12
965.31	214.08
965.60	214.02
965.90	214.13
966.19	214.08
966.49	214.09
966.78	214.07
967.08	214.01
967.37	213.99
967.67	213.96
967.96	214.00
968.26	213.98
968.55	213.99
968.85	213.99
969.14	213.99
969.43	213.98
969.73	213.94
970.02	213.92
970.32	213.91
970.61	213.94
970.91	213.86
971.20	213.81
971.49	213.77
971.79	213.81
972.08	213.68
972.38	213.67
972.67	213.66
972.96	213.71
973.26	213.72
973.55	213.79
973.85	213.78
974.14	213.78
974.43	213.77
974.73	213.71
975.02	213.68
975.31	213.70
975.61	213.67
975.90	213.64
976.19	213.63
976.49	213.62
976.78	213.61
977.07	213.65
977.37	213.66
977.66	213.73
977.95	213.70
978.24	213.72
978.54	213.78
978.83	213.75
979.12	213.75
979.42	213.72
979.71	213.68
980.00	213.67
980.29	213.64
980.59	213.59
980.88	213.64
981.17	213.63
981.46	213.61
981.76	213.64
982.05	213.72
982.34	213.72
982.63	213.76
982.93	213.75
983.22	213.76
983.51	213.78
983.80	213.78
984.09	213.78
984.39	213.77
984.68	213.75
984.97	213.74
985.26	213.74
985.55	213.74
985.85	213.69
986.14	213.74
986.43	213.78
986.72	213.78
987.01	213.72
987.30	213.75
987.59	213.73
987.89	213.73
988.18	213.65
988.47	213.64
988.76	213.62
989.05	213.62
989.34	213.60
989.63	213.64
989.92	213.59
990.22	213.56
990.51	213.59
990.80	213.56
991.09	213.62
991.38	213.61
991.67	213.63
991.96	213.66
992.25	213.65
992.54	213.60
992.83	213.60
993.12	213.65
993.41	213.64
993.70	213.76
993.99	213.84
994.28	213.88
994.58	213.93
994.87	213.87
995.16	213.85
995.45	213.85
995.74	213.79
996.03	213.83
996.32	213.89
996.61	213.88
996.90	213.88
997.19	213.85
997.48	213.87
997.77	213.81
998.06	213.81
998.34	213.81
998.63	213.79
998.92	213.79
999.21	213.81
999.50	213.83
999.79	213.72
1000.08	213.67
1000.37	213.66
1000.66	213.63
1000.95	213.74
1001.24	213.75
1001.53	213.79
1001.82	213.79
1002.11	213.73
1002.40	213.75
1002.68	213.81
1002.97	213.97
1003.26	213.95
1003.55	213.89
1003.84	213.94
1004.13	213.98
1004.42	213.95
1004.71	213.97
1004.99	213.98
1005.28	214.01
1005.57	213.97
1005.86	213.95
1006.15	213.94
1006.44	213.92
1006.72	213.95
1007.01	213.88
1007.30	213.89
1007.59	213.81
1007.88	213.80
1008.17	213.84
1008.45	213.78
1008.74	213.69
1009.03	213.61
1009.32	213.61
1009.60	213.64
1009.89	213.60
1010.18	213.52
1010.47	213.52
1010.76	213.51
1011.04	213.49
1011.33	213.49
1011.62	213.54
1011.91	213.55
1012.19	213.55
1012.48	213.54
1012.77	213.52
1013.05	213.62
1013.34	213.63
1013.63	213.66
1013.92	213.67
1014.20	213.66
1014.49	213.67
1014.78	213.69
1015.06	213.60
1015.35	213.60
1015.64	213.61
1015.92	213.64
1016.21	213.65
1016.50	213.67
1016.78	213.73
1017.07	213.73
1017.36	213.65
1017.64	213.60
1017.93	213.64
1018.22	213.62
1018.50	213.61
1018.79	213.63
1019.08	213.52
1019.36	213.52
1019.65	213.48
1019.93	213.53
1020.22	213.53
1020.51	213.64
1020.79	213.63
1021.08	213.21
1021.36	212.97
1021.65	213.99
1021.94	213.51
1022.22	213.43
1022.51	213.16
1022.79	214.21
1023.08	213.68
1023.36	216.11
1023.65	213.49
>>>>>End Processed Spectral Data<<<<<
