SpectraSuite Data File
++++++++++++++++++++++++++++++++++++
Date: Tue Jan 29 16:33:55 EST 2013
User: group
Dark Spectrum Present: No
Reference Spectrum Present: No
Number of Sampled Component Spectra: 1
Spectrometers: USB2E7196
Integration Time (usec): 65000 (USB2E7196)
Spectra Averaged: 100 (USB2E7196)
Boxcar Smoothing: 10 (USB2E7196)
Correct for Electrical Dark: No (USB2E7196)
Strobe/Lamp Enabled: No (USB2E7196)
Correct for Detector Non-linearity: No (USB2E7196)
Correct for Stray Light: No (USB2E7196)
Number of Pixels in Processed Spectrum: 2048
>>>>>Begin Processed Spectral Data<<<<<
339.09	0.00
339.48	201.70
339.86	203.58
340.24	204.80
340.63	206.44
341.01	211.26
341.39	208.46
341.78	210.30
342.16	211.60
342.54	211.60
342.93	201.11
343.31	211.26
343.69	211.83
344.07	212.29
344.46	212.74
344.84	213.14
345.22	213.29
345.60	213.57
345.99	213.76
346.37	213.91
346.75	214.03
347.13	214.08
347.52	214.15
347.90	214.27
348.28	214.26
348.66	214.34
349.05	214.32
349.43	214.40
349.81	214.48
350.19	214.51
350.57	214.58
350.96	214.63
351.34	214.74
351.72	214.79
352.10	214.91
352.48	214.95
352.87	215.00
353.25	215.04
353.63	215.09
354.01	215.16
354.39	215.24
354.77	215.30
355.15	215.44
355.54	215.50
355.92	215.48
356.30	215.58
356.68	215.76
357.06	215.82
357.44	215.84
357.82	215.89
358.20	215.98
358.58	216.07
358.97	216.17
359.35	216.26
359.73	216.38
360.11	216.41
360.49	216.49
360.87	216.52
361.25	216.60
361.63	216.73
362.01	216.81
362.39	216.80
362.77	216.87
363.15	216.84
363.53	216.88
363.91	216.93
364.29	216.96
364.67	216.82
365.05	216.85
365.43	216.89
365.81	216.93
366.19	217.02
366.57	217.09
366.95	217.06
367.33	217.04
367.71	217.03
368.09	217.08
368.47	217.08
368.85	217.08
369.23	217.12
369.61	217.03
369.99	217.04
370.37	217.07
370.75	217.15
371.13	217.13
371.51	217.12
371.89	217.11
372.27	217.06
372.65	217.04
373.03	217.02
373.41	216.98
373.78	216.95
374.16	216.81
374.54	216.71
374.92	216.66
375.30	216.60
375.68	216.50
376.06	216.46
376.44	216.41
376.82	216.37
377.19	216.33
377.57	216.27
377.95	216.14
378.33	216.10
378.71	215.95
379.09	215.95
379.47	215.94
379.84	215.90
380.22	215.86
380.60	215.77
380.98	215.72
381.36	215.70
381.73	215.63
382.11	215.67
382.49	215.64
382.87	215.59
383.25	215.57
383.62	215.81
384.00	215.72
384.38	215.69
384.76	215.70
385.13	215.73
385.51	215.68
385.89	215.61
386.27	215.59
386.64	215.57
387.02	215.50
387.40	215.45
387.78	215.42
388.15	215.38
388.53	215.35
388.91	215.34
389.29	215.28
389.66	215.28
390.04	215.24
390.42	215.23
390.79	215.22
391.17	215.20
391.55	214.92
391.92	214.91
392.30	214.91
392.68	214.86
393.05	214.82
393.43	214.86
393.81	214.89
394.18	214.85
394.56	214.83
394.94	214.91
395.31	214.88
395.69	214.94
396.06	215.01
396.44	215.08
396.82	215.09
397.19	215.22
397.57	215.21
397.95	215.27
398.32	215.25
398.70	215.32
399.07	215.41
399.45	215.48
399.82	215.52
400.20	215.60
400.58	215.64
400.95	215.65
401.33	215.77
401.70	216.02
402.08	216.14
402.45	216.28
402.83	216.38
403.20	216.54
403.58	216.61
403.95	216.76
404.33	216.91
404.71	217.07
405.08	217.30
405.46	217.47
405.83	217.64
406.21	217.88
406.58	218.13
406.96	218.34
407.33	218.61
407.70	218.93
408.08	219.41
408.45	219.76
408.83	220.14
409.20	220.46
409.58	220.72
409.95	221.21
410.33	221.70
410.70	222.13
411.08	222.66
411.45	223.27
411.82	223.83
412.20	224.49
412.57	225.32
412.95	225.90
413.32	226.78
413.69	227.62
414.07	228.52
414.44	229.50
414.82	230.55
415.19	231.73
415.56	232.92
415.94	234.02
416.31	235.45
416.68	236.87
417.06	238.49
417.43	240.05
417.81	241.78
418.18	243.56
418.55	245.49
418.93	247.55
419.30	249.68
419.67	251.90
420.04	254.19
420.42	256.60
420.79	259.43
421.16	262.22
421.54	265.09
421.91	268.06
422.28	271.15
422.66	274.44
423.03	277.71
423.40	281.04
423.77	284.66
424.15	288.33
424.52	292.17
424.89	296.35
425.26	300.42
425.64	304.29
426.01	308.61
426.38	313.12
426.75	317.67
427.13	322.36
427.50	327.38
427.87	332.62
428.24	337.80
428.61	342.81
428.99	348.34
429.36	354.37
429.73	360.30
430.10	366.20
430.47	372.28
430.85	378.61
431.22	385.39
431.59	392.57
431.96	399.41
432.33	406.96
432.70	414.19
433.08	422.75
433.45	430.83
433.82	438.86
434.19	447.74
434.56	456.47
434.93	464.87
435.30	473.14
435.68	482.23
436.05	491.29
436.42	500.23
436.79	508.35
437.16	517.19
437.53	526.48
437.90	535.68
438.27	544.68
438.64	553.91
439.01	562.43
439.38	570.03
439.75	577.36
440.13	585.78
440.50	593.76
440.87	600.19
441.24	606.86
441.61	614.17
441.98	619.59
442.35	625.91
442.72	632.23
443.09	638.25
443.46	642.00
443.83	644.52
444.20	646.68
444.57	649.90
444.94	651.30
445.31	652.77
445.68	654.17
446.05	654.80
446.42	653.98
446.79	653.00
447.16	651.90
447.53	651.12
447.90	647.80
448.27	644.53
448.64	639.86
449.01	636.53
449.37	630.64
449.74	624.98
450.11	618.02
450.48	610.61
450.85	603.20
451.22	596.67
451.59	590.49
451.96	584.62
452.33	576.67
452.70	569.62
453.07	561.09
453.43	552.38
453.80	544.02
454.17	536.06
454.54	528.45
454.91	520.22
455.28	512.22
455.65	504.78
456.02	497.26
456.38	490.92
456.75	483.05
457.12	476.45
457.49	469.91
457.86	463.79
458.23	458.44
458.59	452.49
458.96	446.51
459.33	441.22
459.70	435.85
460.07	431.61
460.43	426.67
460.80	422.12
461.17	418.15
461.54	413.94
461.91	409.88
462.27	405.80
462.64	402.41
463.01	398.60
463.38	394.83
463.74	391.11
464.11	387.82
464.48	384.96
464.85	381.88
465.21	379.45
465.58	376.77
465.95	373.63
466.32	371.03
466.68	368.43
467.05	365.80
467.42	363.24
467.78	360.56
468.15	358.02
468.52	356.11
468.88	353.62
469.25	351.40
469.62	349.62
469.98	347.66
470.35	345.80
470.72	344.14
471.08	342.37
471.45	340.88
471.82	339.38
472.18	337.66
472.55	336.43
472.92	334.99
473.28	333.75
473.65	332.52
474.02	331.39
474.38	330.48
474.75	329.74
475.11	328.89
475.48	328.26
475.85	327.77
476.21	327.24
476.58	326.87
476.94	326.65
477.31	326.33
477.67	326.09
478.04	325.97
478.41	325.92
478.77	326.09
479.14	326.05
479.50	326.15
479.87	326.45
480.23	326.75
480.60	327.00
480.96	327.27
481.33	327.91
481.69	328.48
482.06	328.99
482.42	329.44
482.79	330.09
483.15	330.90
483.52	331.88
483.88	332.79
484.25	333.70
484.61	334.68
484.98	335.70
485.34	337.06
485.71	338.41
486.07	339.87
486.44	341.16
486.80	342.78
487.17	344.40
487.53	346.30
487.90	348.20
488.26	350.27
488.62	352.45
488.99	354.47
489.35	356.65
489.72	359.03
490.08	361.60
490.44	364.18
490.81	366.93
491.17	369.61
491.54	372.59
491.90	375.66
492.26	378.98
492.63	382.42
492.99	385.89
493.36	389.54
493.72	393.41
494.08	397.49
494.45	401.72
494.81	406.19
495.17	410.53
495.54	415.23
495.90	420.04
496.26	424.97
496.63	430.21
496.99	435.55
497.35	441.24
497.72	447.07
498.08	453.01
498.44	459.11
498.80	465.59
499.17	472.04
499.53	478.76
499.89	485.66
500.26	492.65
500.62	499.73
500.98	507.22
501.34	514.72
501.71	522.46
502.07	530.31
502.43	538.27
502.79	546.51
503.16	554.95
503.52	563.58
503.88	572.39
504.24	581.46
504.60	590.60
504.97	599.77
505.33	609.04
505.69	618.96
506.05	628.89
506.41	638.73
506.78	648.85
507.14	659.13
507.50	669.63
507.86	680.38
508.22	691.21
508.59	701.86
508.95	712.93
509.31	724.25
509.67	735.79
510.03	747.26
510.39	759.13
510.75	771.02
511.12	782.96
511.48	795.00
511.84	807.25
512.20	819.73
512.56	832.48
512.92	845.41
513.28	858.15
513.64	870.97
514.00	883.96
514.37	897.07
514.73	910.33
515.09	923.44
515.45	936.51
515.81	949.71
516.17	963.14
516.53	976.47
516.89	989.62
517.25	1002.88
517.61	1016.50
517.97	1029.94
518.33	1043.27
518.69	1056.92
519.05	1070.83
519.41	1084.65
519.77	1098.61
520.13	1112.08
520.49	1125.34
520.85	1138.85
521.21	1152.26
521.57	1166.00
521.93	1179.21
522.29	1193.10
522.65	1206.89
523.01	1220.57
523.37	1233.84
523.73	1247.29
524.09	1260.61
524.45	1274.28
524.81	1287.95
525.17	1301.52
525.53	1314.82
525.89	1328.10
526.25	1341.36
526.61	1354.26
526.97	1367.39
527.33	1380.44
527.68	1393.91
528.04	1407.53
528.40	1420.69
528.76	1434.28
529.12	1447.32
529.48	1460.69
529.84	1473.00
530.20	1485.85
530.56	1498.56
530.91	1511.91
531.27	1525.02
531.63	1537.94
531.99	1550.72
532.35	1563.08
532.71	1575.64
533.07	1588.61
533.42	1601.11
533.78	1613.35
534.14	1625.71
534.50	1637.15
534.86	1648.98
535.21	1660.06
535.57	1671.73
535.93	1683.08
536.29	1694.21
536.65	1705.85
537.00	1716.89
537.36	1728.39
537.72	1739.55
538.08	1751.10
538.44	1762.25
538.79	1773.47
539.15	1784.54
539.51	1795.53
539.87	1806.99
540.22	1817.81
540.58	1828.96
540.94	1840.00
541.29	1850.46
541.65	1860.27
542.01	1870.78
542.37	1880.78
542.72	1890.95
543.08	1900.74
543.44	1911.37
543.79	1920.72
544.15	1930.17
544.51	1940.34
544.87	1950.33
545.22	1959.65
545.58	1968.62
545.94	1977.62
546.29	1986.15
546.65	1994.53
547.01	2002.69
547.36	2010.45
547.72	2018.26
548.07	2025.88
548.43	2033.69
548.79	2041.61
549.14	2049.88
549.50	2058.53
549.86	2066.60
550.21	2074.16
550.57	2082.04
550.92	2088.95
551.28	2096.58
551.64	2103.95
551.99	2111.46
552.35	2118.54
552.70	2125.33
553.06	2132.08
553.41	2138.38
553.77	2145.08
554.13	2151.60
554.48	2158.77
554.84	2165.89
555.19	2172.54
555.55	2179.02
555.90	2185.34
556.26	2192.29
556.61	2198.46
556.97	2203.26
557.32	2209.10
557.68	2215.43
558.03	2221.18
558.39	2226.57
558.74	2232.59
559.10	2238.09
559.45	2243.63
559.81	2249.59
560.16	2255.22
560.52	2261.05
560.87	2267.48
561.23	2273.27
561.58	2279.82
561.94	2285.04
562.29	2289.76
562.64	2295.86
563.00	2301.51
563.35	2307.03
563.71	2312.63
564.06	2318.18
564.42	2324.17
564.77	2329.21
565.12	2334.64
565.48	2339.74
565.83	2345.20
566.19	2350.46
566.54	2355.88
566.89	2360.53
567.25	2364.98
567.60	2370.77
567.96	2375.89
568.31	2380.33
568.66	2384.64
569.02	2388.56
569.37	2392.36
569.72	2396.68
570.08	2400.09
570.43	2403.17
570.78	2406.30
571.14	2408.68
571.49	2411.80
571.84	2415.31
572.20	2418.28
572.55	2421.24
572.90	2423.48
573.26	2426.35
573.61	2429.02
573.96	2431.17
574.31	2433.14
574.67	2434.83
575.02	2435.40
575.37	2436.88
575.72	2437.60
576.08	2439.12
576.43	2439.18
576.78	2439.48
577.13	2441.03
577.49	2442.24
577.84	2443.25
578.19	2444.46
578.54	2445.10
578.90	2445.57
579.25	2445.44
579.60	2445.10
579.95	2444.21
580.30	2444.19
580.66	2443.40
581.01	2441.67
581.36	2439.13
581.71	2437.70
582.06	2436.44
582.42	2435.63
582.77	2433.23
583.12	2431.42
583.47	2429.94
583.82	2429.43
584.17	2428.16
584.53	2426.06
584.88	2423.87
585.23	2421.88
585.58	2419.69
585.93	2417.63
586.28	2415.73
586.63	2413.11
586.98	2410.90
587.34	2408.94
587.69	2406.44
588.04	2404.28
588.39	2402.80
588.74	2400.22
589.09	2397.52
589.44	2394.35
589.79	2391.62
590.14	2389.67
590.49	2387.02
590.84	2382.98
591.19	2379.59
591.54	2376.47
591.89	2372.26
592.25	2368.95
592.60	2364.79
592.95	2360.58
593.30	2356.44
593.65	2351.89
594.00	2347.45
594.35	2344.47
594.70	2339.78
595.05	2335.24
595.40	2329.76
595.75	2323.84
596.10	2320.23
596.45	2315.35
596.80	2310.73
597.15	2305.71
597.50	2299.59
597.85	2294.47
598.19	2289.15
598.54	2283.43
598.89	2277.96
599.24	2273.40
599.59	2267.19
599.94	2261.19
600.29	2255.06
600.64	2248.98
600.99	2242.08
601.34	2236.40
601.69	2229.29
602.04	2222.82
602.39	2216.01
602.74	2209.77
603.08	2204.24
603.43	2197.76
603.78	2190.81
604.13	2183.75
604.48	2176.31
604.83	2170.30
605.18	2164.04
605.53	2157.21
605.87	2150.10
606.22	2143.26
606.57	2135.20
606.92	2127.18
607.27	2120.21
607.62	2113.66
607.96	2106.69
608.31	2100.32
608.66	2092.55
609.01	2084.87
609.36	2077.61
609.70	2069.98
610.05	2062.23
610.40	2053.80
610.75	2045.29
611.10	2037.41
611.44	2028.39
611.79	2019.65
612.14	2009.71
612.49	1999.00
612.83	1989.33
613.18	1980.05
613.53	1970.63
613.88	1961.04
614.22	1952.34
614.57	1942.39
614.92	1931.63
615.27	1921.13
615.61	1910.76
615.96	1901.12
616.31	1891.55
616.65	1882.12
617.00	1872.34
617.35	1862.61
617.70	1852.89
618.04	1843.08
618.39	1833.04
618.74	1823.37
619.08	1813.66
619.43	1804.84
619.78	1796.57
620.12	1788.08
620.47	1778.48
620.82	1768.18
621.16	1758.38
621.51	1748.50
621.85	1738.69
622.20	1728.42
622.55	1718.01
622.89	1708.10
623.24	1698.41
623.59	1688.65
623.93	1678.52
624.28	1668.65
624.62	1658.51
624.97	1648.16
625.32	1638.14
625.66	1629.10
626.01	1620.41
626.35	1611.05
626.70	1600.87
627.04	1590.75
627.39	1580.60
627.73	1571.26
628.08	1562.35
628.43	1552.79
628.77	1543.49
629.12	1534.60
629.46	1526.70
629.81	1518.28
630.15	1508.79
630.50	1499.01
630.84	1488.32
631.19	1478.30
631.53	1469.03
631.88	1458.90
632.22	1448.92
632.57	1439.50
632.91	1429.37
633.26	1419.43
633.60	1409.84
633.95	1400.61
634.29	1391.17
634.64	1381.93
634.98	1371.95
635.32	1362.59
635.67	1354.14
636.01	1344.92
636.36	1335.07
636.70	1325.46
637.05	1316.02
637.39	1307.02
637.73	1298.29
638.08	1290.78
638.42	1282.67
638.77	1273.88
639.11	1265.53
639.45	1257.69
639.80	1249.21
640.14	1240.50
640.49	1231.50
640.83	1222.54
641.17	1214.34
641.52	1206.06
641.86	1197.38
642.20	1189.41
642.55	1180.64
642.89	1171.59
643.23	1162.83
643.58	1154.80
643.92	1145.72
644.26	1137.08
644.61	1128.58
644.95	1119.70
645.29	1110.48
645.64	1101.24
645.98	1092.65
646.32	1084.71
646.66	1076.15
647.01	1067.76
647.35	1059.57
647.69	1051.26
648.04	1042.96
648.38	1033.97
648.72	1025.14
649.06	1016.69
649.41	1008.39
649.75	1000.53
650.09	992.68
650.43	984.56
650.78	976.12
651.12	968.39
651.46	960.87
651.80	953.63
652.14	946.24
652.49	938.64
652.83	931.24
653.17	923.52
653.51	915.81
653.85	908.48
654.20	901.25
654.54	893.78
654.88	886.52
655.22	879.29
655.56	872.21
655.90	865.33
656.25	858.55
656.59	851.73
656.93	844.63
657.27	837.43
657.61	830.42
657.95	824.33
658.29	818.29
658.64	812.17
658.98	805.59
659.32	799.05
659.66	792.69
660.00	786.41
660.34	780.24
660.68	774.14
661.02	767.78
661.36	761.68
661.70	755.74
662.05	750.08
662.39	744.50
662.73	739.11
663.07	733.75
663.41	728.11
663.75	722.32
664.09	716.59
664.43	711.11
664.77	705.82
665.11	699.93
665.45	694.05
665.79	688.16
666.13	682.51
666.47	676.96
666.81	671.56
667.15	666.10
667.49	660.82
667.83	655.51
668.17	650.24
668.51	645.13
668.85	640.13
669.19	635.13
669.53	630.13
669.87	625.00
670.21	620.18
670.55	615.44
670.89	610.97
671.23	606.54
671.57	602.12
671.91	597.72
672.25	593.46
672.58	589.27
672.92	585.19
673.26	581.18
673.60	577.25
673.94	573.29
674.28	569.60
674.62	565.88
674.96	562.06
675.30	558.51
675.64	554.73
675.97	551.09
676.31	547.38
676.65	543.66
676.99	540.24
677.33	536.41
677.67	532.77
678.01	528.91
678.34	525.26
678.68	521.70
679.02	518.13
679.36	514.41
679.70	510.70
680.04	507.01
680.37	503.51
680.71	500.16
681.05	496.96
681.39	493.66
681.73	490.44
682.06	487.35
682.40	484.19
682.74	481.00
683.08	477.81
683.42	474.63
683.75	471.59
684.09	468.44
684.43	465.51
684.77	462.45
685.10	459.53
685.44	456.62
685.78	453.63
686.12	450.71
686.45	448.00
686.79	445.24
687.13	442.74
687.46	440.10
687.80	437.35
688.14	434.50
688.48	431.81
688.81	429.11
689.15	426.51
689.49	423.83
689.82	421.23
690.16	418.55
690.50	416.07
690.83	413.55
691.17	410.99
691.51	408.52
691.84	406.25
692.18	404.02
692.52	401.76
692.85	399.57
693.19	397.43
693.52	395.20
693.86	392.97
694.20	390.72
694.53	388.50
694.87	386.27
695.21	384.10
695.54	381.92
695.88	379.74
696.21	377.51
696.55	375.39
696.88	373.36
697.22	371.36
697.56	369.44
697.89	367.60
698.23	365.83
698.56	363.96
698.90	362.17
699.23	360.18
699.57	358.31
699.90	356.47
700.24	354.61
700.58	352.84
700.91	351.14
701.25	349.58
701.58	347.98
701.92	346.36
702.25	344.73
702.59	343.07
702.92	341.47
703.26	339.90
703.59	338.41
703.93	337.11
704.26	335.69
704.60	334.16
704.93	332.64
705.26	331.04
705.60	329.59
705.93	328.01
706.27	326.64
706.60	325.37
706.94	324.07
707.27	322.68
707.61	321.33
707.94	320.03
708.27	318.47
708.61	316.99
708.94	315.60
709.28	314.31
709.61	313.06
709.94	311.81
710.28	310.57
710.61	309.38
710.95	307.95
711.28	306.84
711.61	305.64
711.95	304.45
712.28	303.30
712.61	302.08
712.95	301.04
713.28	299.98
713.61	298.79
713.95	297.62
714.28	296.57
714.61	295.49
714.95	294.41
715.28	293.38
715.61	292.36
715.95	291.36
716.28	290.33
716.61	289.35
716.95	288.37
717.28	287.41
717.61	286.38
717.94	285.44
718.28	284.36
718.61	283.47
718.94	282.56
719.27	281.72
719.61	280.88
719.94	280.05
720.27	279.06
720.60	278.18
720.94	277.37
721.27	276.57
721.60	275.88
721.93	275.18
722.27	274.54
722.60	273.88
722.93	273.20
723.26	272.55
723.59	271.83
723.93	271.18
724.26	270.53
724.59	269.88
724.92	269.29
725.25	268.78
725.59	268.14
725.92	267.62
726.25	267.02
726.58	266.45
726.91	265.78
727.24	265.22
727.57	264.66
727.91	264.05
728.24	263.50
728.57	262.89
728.90	262.32
729.23	261.68
729.56	261.22
729.89	260.66
730.22	260.07
730.55	259.53
730.89	258.99
731.22	258.44
731.55	257.94
731.88	257.39
732.21	256.82
732.54	256.31
732.87	255.77
733.20	255.22
733.53	254.72
733.86	254.27
734.19	253.77
734.52	253.33
734.85	253.06
735.18	252.59
735.51	252.23
735.84	251.80
736.17	251.41
736.50	250.88
736.83	250.71
737.16	250.37
737.49	249.98
737.82	249.53
738.15	249.17
738.48	248.75
738.81	248.35
739.14	247.96
739.47	247.54
739.80	247.13
740.13	246.80
740.46	246.41
740.79	246.04
741.12	245.66
741.45	245.30
741.78	244.82
742.11	244.54
742.44	244.15
742.77	243.82
743.10	243.44
743.43	243.08
743.75	242.51
744.08	242.40
744.41	242.03
744.74	241.72
745.07	241.33
745.40	241.06
745.73	240.83
746.06	240.47
746.39	240.19
746.71	239.85
747.04	239.48
747.37	239.17
747.70	238.90
748.03	238.59
748.36	238.34
748.68	238.01
749.01	237.64
749.34	237.33
749.67	237.06
750.00	236.80
750.33	236.63
750.65	236.38
750.98	235.87
751.31	235.64
751.64	235.40
751.97	235.29
752.29	235.03
752.62	234.67
752.95	234.41
753.28	234.16
753.60	233.94
753.93	233.79
754.26	233.53
754.59	233.25
754.91	233.02
755.24	232.75
755.57	232.50
755.90	232.30
756.22	232.06
756.55	231.79
756.88	231.53
757.20	231.23
757.53	230.96
757.86	230.73
758.19	230.53
758.51	230.31
758.84	229.96
759.17	229.72
759.49	229.52
759.82	229.48
760.15	229.29
760.47	229.10
760.80	228.81
761.13	228.66
761.45	228.46
761.78	228.27
762.11	228.09
762.43	227.90
762.76	227.67
763.08	227.50
763.41	227.34
763.74	227.19
764.06	227.03
764.39	226.89
764.71	226.71
765.04	226.52
765.37	226.37
765.69	226.22
766.02	226.08
766.34	225.95
766.67	225.68
767.00	225.57
767.32	225.54
767.65	225.56
767.97	225.42
768.30	225.29
768.62	225.17
768.95	224.98
769.27	224.89
769.60	224.83
769.92	224.65
770.25	224.50
770.57	224.34
770.90	224.17
771.22	224.04
771.55	223.95
771.87	223.85
772.20	223.72
772.52	223.77
772.85	223.89
773.17	223.78
773.50	223.69
773.82	223.55
774.15	223.35
774.47	223.11
774.80	223.01
775.12	222.88
775.45	222.82
775.77	222.75
776.09	222.64
776.42	222.54
776.74	222.54
777.07	222.44
777.39	222.39
777.72	222.30
778.04	222.25
778.36	222.16
778.69	222.10
779.01	222.07
779.33	221.80
779.66	221.49
779.98	221.39
780.31	221.30
780.63	221.28
780.95	221.21
781.28	221.14
781.60	221.02
781.92	220.97
782.25	220.88
782.57	220.82
782.89	220.74
783.22	220.65
783.54	220.57
783.86	220.52
784.19	220.40
784.51	220.40
784.83	220.27
785.16	220.20
785.48	220.14
785.80	220.05
786.12	220.00
786.45	219.94
786.77	219.93
787.09	219.85
787.42	219.74
787.74	219.71
788.06	219.70
788.38	219.65
788.71	219.60
789.03	219.57
789.35	219.56
789.67	219.47
789.99	219.43
790.32	219.33
790.64	219.32
790.96	219.49
791.28	219.38
791.61	219.36
791.93	219.34
792.25	219.29
792.57	219.40
792.89	219.33
793.21	219.31
793.54	219.22
793.86	219.18
794.18	219.15
794.50	219.09
794.82	219.02
795.14	218.98
795.47	218.95
795.79	218.90
796.11	218.79
796.43	218.76
796.75	218.68
797.07	218.67
797.39	218.61
797.71	218.38
798.04	218.36
798.36	218.32
798.68	218.26
799.00	218.20
799.32	218.06
799.64	218.06
799.96	217.99
800.28	217.99
800.60	217.95
800.92	217.97
801.24	217.93
801.56	217.89
801.89	217.89
802.21	217.87
802.53	217.81
802.85	217.82
803.17	217.90
803.49	217.86
803.81	217.80
804.13	217.74
804.45	217.70
804.77	217.67
805.09	217.62
805.41	217.57
805.73	217.53
806.05	217.45
806.37	217.42
806.69	217.38
807.01	217.35
807.33	217.32
807.65	217.16
807.97	217.22
808.28	217.17
808.60	217.12
808.92	217.08
809.24	217.12
809.56	217.09
809.88	216.96
810.20	216.96
810.52	216.96
810.84	216.92
811.16	216.87
811.48	216.86
811.80	216.93
812.12	216.91
812.43	216.88
812.75	216.84
813.07	216.79
813.39	216.75
813.71	216.67
814.03	216.63
814.35	216.65
814.67	216.53
814.98	216.47
815.30	216.44
815.62	216.38
815.94	216.28
816.26	216.24
816.58	216.20
816.89	216.20
817.21	216.12
817.53	216.09
817.85	216.11
818.17	216.05
818.48	215.94
818.80	215.93
819.12	215.92
819.44	215.91
819.76	215.87
820.07	215.87
820.39	215.90
820.71	215.89
821.03	215.83
821.34	215.78
821.66	215.79
821.98	215.78
822.30	215.74
822.61	215.83
822.93	215.81
823.25	215.82
823.57	215.77
823.88	215.82
824.20	215.83
824.52	215.83
824.83	215.85
825.15	215.84
825.47	215.84
825.79	215.83
826.10	215.78
826.42	215.78
826.74	215.79
827.05	215.74
827.37	215.74
827.69	215.77
828.00	215.79
828.32	215.78
828.64	215.75
828.95	215.84
829.27	215.77
829.58	215.75
829.90	215.74
830.22	215.72
830.53	215.66
830.85	215.64
831.17	215.58
831.48	215.54
831.80	215.50
832.11	215.45
832.43	215.40
832.75	215.41
833.06	215.52
833.38	215.44
833.69	215.47
834.01	215.47
834.32	215.44
834.64	215.41
834.96	215.42
835.27	215.43
835.59	215.37
835.90	215.32
836.22	215.29
836.53	215.26
836.85	215.26
837.16	215.46
837.48	215.45
837.79	215.54
838.11	215.56
838.42	215.56
838.74	215.59
839.05	215.61
839.37	215.60
839.68	215.45
840.00	215.41
840.31	215.41
840.63	215.37
840.94	215.34
841.26	215.34
841.57	215.29
841.88	215.30
842.20	215.28
842.51	215.27
842.83	215.30
843.14	215.47
843.46	215.45
843.77	215.33
844.08	215.30
844.40	215.19
844.71	215.15
845.03	215.11
845.34	215.07
845.65	215.07
845.97	215.06
846.28	215.07
846.60	215.09
846.91	215.04
847.22	215.04
847.54	215.07
847.85	215.06
848.16	215.04
848.48	215.01
848.79	215.05
849.10	215.05
849.42	215.05
849.73	214.86
850.04	214.85
850.36	214.74
850.67	214.76
850.98	214.77
851.30	214.78
851.61	214.79
851.92	214.77
852.23	214.81
852.55	214.80
852.86	214.80
853.17	214.84
853.49	214.90
853.80	214.92
854.11	214.94
854.42	214.95
854.74	214.96
855.05	214.94
855.36	214.82
855.67	214.84
855.99	214.81
856.30	215.07
856.61	215.07
856.92	215.09
857.23	215.09
857.55	215.08
857.86	215.08
858.17	215.13
858.48	215.12
858.79	215.07
859.11	215.11
859.42	215.09
859.73	215.04
860.04	215.01
860.35	214.96
860.66	214.92
860.98	214.90
861.29	214.90
861.60	214.92
861.91	214.96
862.22	214.91
862.53	214.91
862.84	214.64
863.16	214.66
863.47	214.64
863.78	214.63
864.09	214.66
864.40	214.65
864.71	214.59
865.02	214.61
865.33	214.60
865.64	214.54
865.95	214.53
866.27	214.70
866.58	214.68
866.89	214.71
867.20	214.69
867.51	214.66
867.82	214.65
868.13	214.73
868.44	214.67
868.75	214.72
869.06	214.73
869.37	214.75
869.68	214.72
869.99	214.74
870.30	214.72
870.61	214.73
870.92	214.70
871.23	214.69
871.54	214.70
871.85	214.74
872.16	214.79
872.47	214.76
872.78	214.60
873.09	214.61
873.40	214.57
873.71	214.59
874.02	214.61
874.33	214.61
874.64	214.54
874.95	214.59
875.26	214.56
875.56	214.54
875.87	214.54
876.18	214.51
876.49	214.70
876.80	214.71
877.11	214.64
877.42	214.67
877.73	214.68
878.04	214.67
878.35	214.66
878.66	214.65
878.96	214.68
879.27	214.66
879.58	214.64
879.89	214.63
880.20	214.67
880.51	214.67
880.82	214.66
881.12	214.67
881.43	214.64
881.74	214.59
882.05	214.57
882.36	214.56
882.67	214.61
882.97	214.40
883.28	214.38
883.59	214.38
883.90	214.39
884.21	214.41
884.51	214.40
884.82	214.36
885.13	214.38
885.44	214.38
885.74	214.40
886.05	214.41
886.36	214.44
886.67	214.37
886.98	214.47
887.28	214.50
887.59	214.49
887.90	214.50
888.20	214.50
888.51	214.59
888.82	214.57
889.13	214.54
889.43	214.73
889.74	214.70
890.05	214.72
890.35	214.71
890.66	214.67
890.97	214.66
891.28	214.63
891.58	214.60
891.89	214.60
892.20	214.60
892.50	214.54
892.81	214.50
893.12	214.48
893.42	214.40
893.73	214.39
894.04	214.37
894.34	214.36
894.65	214.38
894.95	214.29
895.26	214.28
895.57	214.37
895.87	214.17
896.18	214.21
896.48	214.22
896.79	214.18
897.10	214.21
897.40	214.20
897.71	214.22
898.01	214.22
898.32	214.25
898.63	214.23
898.93	214.28
899.24	214.35
899.54	214.34
899.85	214.30
900.15	214.27
900.46	214.29
900.76	214.32
901.07	214.26
901.38	214.29
901.68	214.35
901.99	214.23
902.29	214.24
902.60	214.20
902.90	214.16
903.21	214.17
903.51	214.15
903.82	214.18
904.12	214.21
904.43	214.22
904.73	214.17
905.03	214.16
905.34	214.34
905.64	214.31
905.95	214.30
906.25	214.29
906.56	214.31
906.86	214.30
907.17	214.29
907.47	214.34
907.77	214.32
908.08	214.27
908.38	214.29
908.69	214.30
908.99	214.37
909.30	214.41
909.60	214.39
909.90	214.36
910.21	214.34
910.51	214.30
910.81	214.28
911.12	214.31
911.42	214.31
911.73	214.11
912.03	214.12
912.33	214.19
912.64	214.19
912.94	214.13
913.24	214.09
913.55	214.06
913.85	214.06
914.15	214.10
914.46	214.11
914.76	214.09
915.06	214.06
915.37	214.01
915.67	213.99
915.97	214.04
916.27	214.05
916.58	214.03
916.88	214.01
917.18	214.02
917.49	214.17
917.79	214.15
918.09	214.16
918.39	214.21
918.70	214.22
919.00	214.21
919.30	214.37
919.60	214.37
919.91	214.38
920.21	214.39
920.51	214.31
920.81	214.33
921.12	214.38
921.42	214.37
921.72	214.39
922.02	214.38
922.32	214.39
922.63	214.39
922.93	214.49
923.23	214.53
923.53	214.50
923.83	214.34
924.13	214.37
924.44	214.36
924.74	214.38
925.04	214.41
925.34	214.42
925.64	214.30
925.94	214.31
926.24	214.40
926.55	214.35
926.85	214.43
927.15	214.42
927.45	214.40
927.75	214.43
928.05	214.40
928.35	214.41
928.65	214.41
928.95	214.42
929.26	214.34
929.56	214.41
929.86	214.46
930.16	214.47
930.46	214.47
930.76	214.50
931.06	214.42
931.36	214.33
931.66	214.37
931.96	214.42
932.26	214.40
932.56	214.35
932.86	214.36
933.16	214.34
933.46	214.32
933.76	214.31
934.06	214.35
934.36	214.43
934.66	214.41
934.96	214.40
935.26	214.43
935.56	214.47
935.86	214.37
936.16	214.34
936.46	214.28
936.76	214.26
937.06	214.23
937.36	214.23
937.66	214.24
937.96	214.26
938.26	214.21
938.56	214.22
938.86	214.21
939.16	214.26
939.46	214.30
939.76	214.30
940.06	214.32
940.35	214.25
940.65	214.15
940.95	214.17
941.25	214.14
941.55	214.10
941.85	214.08
942.15	214.11
942.45	214.17
942.75	214.20
943.04	214.25
943.34	214.28
943.64	214.28
943.94	214.25
944.24	214.21
944.54	214.19
944.84	214.18
945.13	214.15
945.43	214.11
945.73	214.10
946.03	214.11
946.33	214.09
946.62	214.08
946.92	214.08
947.22	214.08
947.52	214.11
947.82	214.14
948.11	214.11
948.41	214.09
948.71	214.03
949.01	214.03
949.31	213.98
949.60	213.95
949.90	213.95
950.20	213.95
950.50	213.96
950.79	213.97
951.09	213.99
951.39	214.00
951.69	213.96
951.98	213.98
952.28	213.96
952.58	213.94
952.87	213.97
953.17	213.96
953.47	213.96
953.76	213.94
954.06	213.92
954.36	213.89
954.66	213.88
954.95	213.95
955.25	213.97
955.55	213.97
955.84	213.96
956.14	213.97
956.44	214.00
956.73	213.95
957.03	213.96
957.32	213.97
957.62	213.95
957.92	214.02
958.21	213.98
958.51	214.25
958.81	214.29
959.10	214.29
959.40	214.36
959.69	214.37
959.99	214.39
960.29	214.35
960.58	214.36
960.88	214.47
961.17	214.43
961.47	214.45
961.76	214.44
962.06	214.45
962.36	214.41
962.65	214.41
962.95	214.41
963.24	214.39
963.54	214.40
963.83	214.44
964.13	214.40
964.42	214.35
964.72	214.16
965.01	214.13
965.31	214.14
965.60	214.12
965.90	214.22
966.19	214.16
966.49	214.20
966.78	214.18
967.08	214.14
967.37	214.14
967.67	214.09
967.96	214.15
968.26	214.15
968.55	214.22
968.85	214.19
969.14	214.18
969.43	214.19
969.73	214.16
970.02	214.12
970.32	214.15
970.61	214.18
970.91	214.12
971.20	214.09
971.49	214.04
971.79	214.04
972.08	213.89
972.38	213.95
972.67	213.90
972.96	213.91
973.26	213.86
973.55	213.91
973.85	213.94
974.14	213.94
974.43	213.92
974.73	213.90
975.02	213.91
975.31	213.90
975.61	213.90
975.90	213.89
976.19	213.89
976.49	213.88
976.78	213.88
977.07	213.88
977.37	213.91
977.66	213.91
977.95	213.89
978.24	213.94
978.54	213.96
978.83	213.99
979.12	213.99
979.42	213.99
979.71	213.94
980.00	213.91
980.29	213.87
980.59	213.86
980.88	213.91
981.17	213.89
981.46	213.93
981.76	213.95
982.05	214.04
982.34	214.09
982.63	214.08
982.93	214.06
983.22	214.13
983.51	214.14
983.80	214.21
984.09	214.25
984.39	214.24
984.68	214.22
984.97	214.23
985.26	214.25
985.55	214.28
985.85	214.28
986.14	214.34
986.43	214.36
986.72	214.34
987.01	214.28
987.30	214.30
987.59	214.30
987.89	214.29
988.18	214.20
988.47	214.17
988.76	214.18
989.05	214.18
989.34	214.14
989.63	214.22
989.92	214.16
990.22	214.12
990.51	214.09
990.80	214.09
991.09	214.12
991.38	214.14
991.67	214.11
991.96	214.07
992.25	214.06
992.54	214.04
992.83	214.04
993.12	214.05
993.41	214.08
993.70	214.17
993.99	214.22
994.28	214.24
994.58	214.24
994.87	214.21
995.16	214.22
995.45	214.23
995.74	214.12
996.03	214.16
996.32	214.19
996.61	214.25
996.90	214.26
997.19	214.18
997.48	214.17
997.77	214.16
998.06	214.21
998.34	214.18
998.63	214.17
998.92	214.19
999.21	214.21
999.50	214.20
999.79	214.09
1000.08	214.07
1000.37	214.07
1000.66	214.06
1000.95	214.14
1001.24	214.14
1001.53	214.15
1001.82	214.15
1002.11	214.09
1002.40	214.14
1002.68	214.18
1002.97	214.33
1003.26	214.33
1003.55	214.28
1003.84	214.31
1004.13	214.37
1004.42	214.37
1004.71	214.35
1004.99	214.35
1005.28	214.39
1005.57	214.35
1005.86	214.37
1006.15	214.36
1006.44	214.31
1006.72	214.37
1007.01	214.30
1007.30	214.28
1007.59	214.24
1007.88	214.24
1008.17	214.26
1008.45	214.16
1008.74	214.05
1009.03	213.92
1009.32	213.92
1009.60	213.93
1009.89	213.87
1010.18	213.74
1010.47	213.71
1010.76	213.73
1011.04	213.72
1011.33	213.71
1011.62	213.72
1011.91	213.75
1012.19	213.75
1012.48	213.80
1012.77	213.79
1013.05	213.90
1013.34	213.92
1013.63	213.95
1013.92	213.97
1014.20	213.94
1014.49	213.97
1014.78	213.98
1015.06	213.92
1015.35	213.93
1015.64	213.96
1015.92	214.02
1016.21	214.08
1016.50	214.09
1016.78	214.11
1017.07	214.14
1017.36	214.10
1017.64	214.10
1017.93	214.09
1018.22	214.06
1018.50	214.06
1018.79	214.03
1019.08	213.91
1019.36	213.89
1019.65	213.85
1019.93	213.88
1020.22	213.96
1020.51	214.05
1020.79	214.07
1021.08	213.42
1021.36	214.13
1021.65	213.84
1021.94	213.78
1022.22	213.93
1022.51	213.47
1022.79	214.65
1023.08	214.83
1023.36	216.10
1023.65	213.56
>>>>>End Processed Spectral Data<<<<<
