SpectraSuite Data File
++++++++++++++++++++++++++++++++++++
Date: Tue Jan 29 16:27:14 EST 2013
User: group
Dark Spectrum Present: No
Reference Spectrum Present: No
Number of Sampled Component Spectra: 1
Spectrometers: USB2E7196
Integration Time (usec): 65000 (USB2E7196)
Spectra Averaged: 100 (USB2E7196)
Boxcar Smoothing: 10 (USB2E7196)
Correct for Electrical Dark: No (USB2E7196)
Strobe/Lamp Enabled: No (USB2E7196)
Correct for Detector Non-linearity: No (USB2E7196)
Correct for Stray Light: No (USB2E7196)
Number of Pixels in Processed Spectrum: 2048
>>>>>Begin Processed Spectral Data<<<<<
339.09	0.00
339.48	201.88
339.86	203.25
340.24	204.73
340.63	206.76
341.01	210.90
341.39	208.89
341.78	210.20
342.16	212.05
342.54	211.89
342.93	201.29
343.31	211.46
343.69	212.00
344.07	212.50
344.46	212.95
344.84	213.33
345.22	213.52
345.60	213.82
345.99	214.01
346.37	214.15
346.75	214.26
347.13	214.34
347.52	214.43
347.90	214.55
348.28	214.59
348.66	214.66
349.05	214.64
349.43	214.69
349.81	214.76
350.19	214.83
350.57	214.89
350.96	214.98
351.34	215.09
351.72	215.22
352.10	215.33
352.48	215.39
352.87	215.44
353.25	215.51
353.63	215.54
354.01	215.62
354.39	215.70
354.77	215.81
355.15	215.96
355.54	215.97
355.92	215.99
356.30	216.06
356.68	216.27
357.06	216.36
357.44	216.39
357.82	216.45
358.20	216.54
358.58	216.60
358.97	216.66
359.35	216.76
359.73	216.83
360.11	216.87
360.49	216.94
360.87	216.99
361.25	217.06
361.63	217.18
362.01	217.24
362.39	217.26
362.77	217.30
363.15	217.33
363.53	217.38
363.91	217.39
364.29	217.41
364.67	217.23
365.05	217.25
365.43	217.26
365.81	217.31
366.19	217.40
366.57	217.49
366.95	217.47
367.33	217.41
367.71	217.41
368.09	217.45
368.47	217.43
368.85	217.41
369.23	217.44
369.61	217.36
369.99	217.41
370.37	217.40
370.75	217.50
371.13	217.43
371.51	217.39
371.89	217.39
372.27	217.36
372.65	217.36
373.03	217.32
373.41	217.32
373.78	217.27
374.16	217.12
374.54	217.01
374.92	216.96
375.30	216.97
375.68	216.88
376.06	216.87
376.44	216.81
376.82	216.81
377.19	216.74
377.57	216.68
377.95	216.58
378.33	216.56
378.71	216.36
379.09	216.36
379.47	216.33
379.84	216.26
380.22	216.19
380.60	216.10
380.98	216.05
381.36	216.01
381.73	215.93
382.11	215.94
382.49	215.93
382.87	215.84
383.25	215.79
383.62	216.00
384.00	215.90
384.38	215.92
384.76	215.93
385.13	215.98
385.51	215.96
385.89	215.91
386.27	215.85
386.64	215.86
387.02	215.76
387.40	215.71
387.78	215.70
388.15	215.71
388.53	215.67
388.91	215.66
389.29	215.62
389.66	215.66
390.04	215.60
390.42	215.60
390.79	215.63
391.17	215.60
391.55	215.35
391.92	215.32
392.30	215.30
392.68	215.22
393.05	215.14
393.43	215.15
393.81	215.14
394.18	215.12
394.56	215.11
394.94	215.20
395.31	215.17
395.69	215.25
396.06	215.26
396.44	215.33
396.82	215.32
397.19	215.43
397.57	215.41
397.95	215.50
398.32	215.46
398.70	215.50
399.07	215.57
399.45	215.61
399.82	215.69
400.20	215.74
400.58	215.82
400.95	215.83
401.33	215.93
401.70	216.12
402.08	216.24
402.45	216.34
402.83	216.49
403.20	216.62
403.58	216.71
403.95	216.89
404.33	217.01
404.71	217.17
405.08	217.42
405.46	217.58
405.83	217.77
406.21	217.98
406.58	218.21
406.96	218.44
407.33	218.72
407.70	219.00
408.08	219.48
408.45	219.83
408.83	220.23
409.20	220.57
409.58	220.89
409.95	221.31
410.33	221.78
410.70	222.18
411.08	222.76
411.45	223.30
411.82	223.88
412.20	224.57
412.57	225.40
412.95	225.94
413.32	226.80
413.69	227.61
414.07	228.52
414.44	229.53
414.82	230.53
415.19	231.65
415.56	232.84
415.94	233.97
416.31	235.38
416.68	236.74
417.06	238.36
417.43	239.88
417.81	241.61
418.18	243.37
418.55	245.28
418.93	247.31
419.30	249.42
419.67	251.63
420.04	253.91
420.42	256.28
420.79	259.13
421.16	261.92
421.54	264.82
421.91	267.78
422.28	270.83
422.66	274.12
423.03	277.39
423.40	280.76
423.77	284.35
424.15	288.00
424.52	291.84
424.89	296.02
425.26	300.07
425.64	303.98
426.01	308.27
426.38	312.73
426.75	317.25
427.13	322.00
427.50	326.93
427.87	332.11
428.24	337.27
428.61	342.17
428.99	347.66
429.36	353.66
429.73	359.56
430.10	365.42
430.47	371.41
430.85	377.72
431.22	384.36
431.59	391.48
431.96	398.23
432.33	405.67
432.70	412.81
433.08	421.35
433.45	429.37
433.82	437.41
434.19	446.27
434.56	454.93
434.93	463.21
435.30	471.54
435.68	480.61
436.05	489.58
436.42	498.52
436.79	506.65
437.16	515.41
437.53	524.64
437.90	533.79
438.27	542.78
438.64	551.98
439.01	560.49
439.38	568.04
439.75	575.41
440.13	583.84
440.50	591.78
440.87	598.17
441.24	604.76
441.61	612.03
441.98	617.43
442.35	623.76
442.72	630.10
443.09	636.10
443.46	639.81
443.83	642.35
444.20	644.51
444.57	647.63
444.94	649.03
445.31	650.47
445.68	651.78
446.05	652.42
446.42	651.66
446.79	650.69
447.16	649.69
447.53	648.86
447.90	645.56
448.27	642.34
448.64	637.69
449.01	634.41
449.37	628.53
449.74	622.83
450.11	615.96
450.48	608.55
450.85	601.12
451.22	594.69
451.59	588.59
451.96	582.80
452.33	574.99
452.70	567.92
453.07	559.44
453.43	550.91
453.80	542.61
454.17	534.63
454.54	527.14
454.91	518.90
455.28	511.01
455.65	503.61
456.02	496.11
456.38	489.82
456.75	481.93
457.12	475.39
457.49	468.90
457.86	462.71
458.23	457.33
458.59	451.41
458.96	445.47
459.33	440.13
459.70	434.80
460.07	430.51
460.43	425.67
460.80	421.13
461.17	417.14
461.54	412.96
461.91	408.97
462.27	404.87
462.64	401.46
463.01	397.63
463.38	393.91
463.74	390.20
464.11	386.98
464.48	384.21
464.85	381.09
465.21	378.69
465.58	376.09
465.95	372.96
466.32	370.37
466.68	367.78
467.05	365.23
467.42	362.68
467.78	360.03
468.15	357.49
468.52	355.62
468.88	353.14
469.25	350.96
469.62	349.16
469.98	347.18
470.35	345.39
470.72	343.72
471.08	342.00
471.45	340.49
471.82	338.90
472.18	337.25
472.55	336.07
472.92	334.70
473.28	333.47
473.65	332.32
474.02	331.18
474.38	330.27
474.75	329.53
475.11	328.66
475.48	328.06
475.85	327.57
476.21	327.08
476.58	326.77
476.94	326.51
477.31	326.18
477.67	325.94
478.04	325.77
478.41	325.70
478.77	325.86
479.14	325.85
479.50	325.99
479.87	326.27
480.23	326.61
480.60	326.82
480.96	327.10
481.33	327.79
481.69	328.36
482.06	328.88
482.42	329.31
482.79	329.94
483.15	330.74
483.52	331.72
483.88	332.61
484.25	333.54
484.61	334.59
484.98	335.65
485.34	336.97
485.71	338.39
486.07	339.90
486.44	341.19
486.80	342.74
487.17	344.40
487.53	346.22
487.90	348.05
488.26	350.14
488.62	352.30
488.99	354.29
489.35	356.47
489.72	358.84
490.08	361.37
490.44	363.99
490.81	366.71
491.17	369.41
491.54	372.39
491.90	375.44
492.26	378.69
492.63	382.15
492.99	385.67
493.36	389.34
493.72	393.21
494.08	397.22
494.45	401.49
494.81	405.91
495.17	410.36
495.54	415.11
495.90	419.93
496.26	424.90
496.63	430.07
496.99	435.46
497.35	441.05
497.72	446.92
498.08	452.89
498.44	458.99
498.80	465.50
499.17	471.99
499.53	478.73
499.89	485.62
500.26	492.58
500.62	499.70
500.98	507.08
501.34	514.60
501.71	522.48
502.07	530.40
502.43	538.44
502.79	546.64
503.16	555.13
503.52	563.81
503.88	572.59
504.24	581.71
504.60	590.84
504.97	600.16
505.33	609.52
505.69	619.46
506.05	629.37
506.41	639.30
506.78	649.40
507.14	659.68
507.50	670.26
507.86	681.01
508.22	691.87
508.59	702.59
508.95	713.68
509.31	725.01
509.67	736.50
510.03	747.98
510.39	759.73
510.75	771.54
511.12	783.54
511.48	795.70
511.84	807.96
512.20	820.42
512.56	833.11
512.92	845.93
513.28	858.63
513.64	871.54
514.00	884.50
514.37	897.53
514.73	910.79
515.09	923.83
515.45	936.93
515.81	950.00
516.17	963.54
516.53	976.91
516.89	990.01
517.25	1003.30
517.61	1016.95
517.97	1030.60
518.33	1043.97
518.69	1057.71
519.05	1071.44
519.41	1085.26
519.77	1099.24
520.13	1112.73
520.49	1126.06
520.85	1139.62
521.21	1153.03
521.57	1166.73
521.93	1179.98
522.29	1193.89
522.65	1207.66
523.01	1221.38
523.37	1234.76
523.73	1248.19
524.09	1261.42
524.45	1275.10
524.81	1288.67
525.17	1302.19
525.53	1315.47
525.89	1328.89
526.25	1341.98
526.61	1355.08
526.97	1368.24
527.33	1381.30
527.68	1394.78
528.04	1408.46
528.40	1421.67
528.76	1435.13
529.12	1448.15
529.48	1461.54
529.84	1473.85
530.20	1486.88
530.56	1499.62
530.91	1512.93
531.27	1525.82
531.63	1538.72
531.99	1551.54
532.35	1563.93
532.71	1576.44
533.07	1589.44
533.42	1601.79
533.78	1614.11
534.14	1626.30
534.50	1637.64
534.86	1649.38
535.21	1660.53
535.57	1672.03
535.93	1683.40
536.29	1694.65
536.65	1706.31
537.00	1717.55
537.36	1729.10
537.72	1739.96
538.08	1751.36
538.44	1762.51
538.79	1773.78
539.15	1784.84
539.51	1795.72
539.87	1807.14
540.22	1817.93
540.58	1828.79
540.94	1839.96
541.29	1850.30
541.65	1860.14
542.01	1870.82
542.37	1880.83
542.72	1891.07
543.08	1900.91
543.44	1911.49
543.79	1920.81
544.15	1930.25
544.51	1940.21
544.87	1950.14
545.22	1959.52
545.58	1968.59
545.94	1977.53
546.29	1986.18
546.65	1994.69
547.01	2002.89
547.36	2010.61
547.72	2018.65
548.07	2026.42
548.43	2034.08
548.79	2041.88
549.14	2050.14
549.50	2058.54
549.86	2066.47
550.21	2073.87
550.57	2081.70
550.92	2088.54
551.28	2096.10
551.64	2103.34
551.99	2110.85
552.35	2118.04
552.70	2124.94
553.06	2131.58
553.41	2137.79
553.77	2144.40
554.13	2150.80
554.48	2158.02
554.84	2165.28
555.19	2171.75
555.55	2178.07
555.90	2184.39
556.26	2191.51
556.61	2197.57
556.97	2202.58
557.32	2208.63
557.68	2215.17
558.03	2221.03
558.39	2226.33
558.74	2232.52
559.10	2238.25
559.45	2244.06
559.81	2249.70
560.16	2255.32
560.52	2261.33
560.87	2268.03
561.23	2274.00
561.58	2280.69
561.94	2285.93
562.29	2290.63
562.64	2296.81
563.00	2302.71
563.35	2308.32
563.71	2313.98
564.06	2319.71
564.42	2325.74
564.77	2330.90
565.12	2336.16
565.48	2341.25
565.83	2346.96
566.19	2352.24
566.54	2357.54
566.89	2362.14
567.25	2366.60
567.60	2372.32
567.96	2377.59
568.31	2381.96
568.66	2386.24
569.02	2390.19
569.37	2393.91
569.72	2398.36
570.08	2401.90
570.43	2404.98
570.78	2408.24
571.14	2410.84
571.49	2413.99
571.84	2417.56
572.20	2420.42
572.55	2423.56
572.90	2425.89
573.26	2428.67
573.61	2431.28
573.96	2433.68
574.31	2435.75
574.67	2437.65
575.02	2438.52
575.37	2439.92
575.72	2440.75
576.08	2442.20
576.43	2442.38
576.78	2442.82
577.13	2444.39
577.49	2445.63
577.84	2446.77
578.19	2448.04
578.54	2448.64
578.90	2449.38
579.25	2449.11
579.60	2449.03
579.95	2448.17
580.30	2448.41
580.66	2447.70
581.01	2446.22
581.36	2443.58
581.71	2442.12
582.06	2441.16
582.42	2440.28
582.77	2437.99
583.12	2436.41
583.47	2435.03
583.82	2434.37
584.17	2433.30
584.53	2431.21
584.88	2429.03
585.23	2427.10
585.58	2424.76
585.93	2422.74
586.28	2420.55
586.63	2418.32
586.98	2416.19
587.34	2414.21
587.69	2411.70
588.04	2409.69
588.39	2408.17
588.74	2405.81
589.09	2403.03
589.44	2399.91
589.79	2397.46
590.14	2395.60
590.49	2392.65
590.84	2388.69
591.19	2385.65
591.54	2382.24
591.89	2378.17
592.25	2374.90
592.60	2370.72
592.95	2366.52
593.30	2362.22
593.65	2357.79
594.00	2353.25
594.35	2350.09
594.70	2345.39
595.05	2340.76
595.40	2335.22
595.75	2329.40
596.10	2325.72
596.45	2320.92
596.80	2316.23
597.15	2311.02
597.50	2304.96
597.85	2300.15
598.19	2294.98
598.54	2288.99
598.89	2283.80
599.24	2279.26
599.59	2273.05
599.94	2267.21
600.29	2261.38
600.64	2255.57
600.99	2248.66
601.34	2243.08
601.69	2235.98
602.04	2229.47
602.39	2222.82
602.74	2216.59
603.08	2210.94
603.43	2204.47
603.78	2197.45
604.13	2190.27
604.48	2182.95
604.83	2176.77
605.18	2170.34
605.53	2163.43
605.87	2156.42
606.22	2149.66
606.57	2141.61
606.92	2133.58
607.27	2126.50
607.62	2119.73
607.96	2112.61
608.31	2106.16
608.66	2098.48
609.01	2090.94
609.36	2083.91
609.70	2076.11
610.05	2068.44
610.40	2060.04
610.75	2051.65
611.10	2043.95
611.44	2035.07
611.79	2026.22
612.14	2016.20
612.49	2005.40
612.83	1995.89
613.18	1986.69
613.53	1977.26
613.88	1967.63
614.22	1958.98
614.57	1949.15
614.92	1938.53
615.27	1928.17
615.61	1918.09
615.96	1908.32
616.31	1898.46
616.65	1888.91
617.00	1879.04
617.35	1869.19
617.70	1859.45
618.04	1849.33
618.39	1839.13
618.74	1829.37
619.08	1819.58
619.43	1810.82
619.78	1802.57
620.12	1793.96
620.47	1784.24
620.82	1773.72
621.16	1763.89
621.51	1753.92
621.85	1743.93
622.20	1733.47
622.55	1722.88
622.89	1712.80
623.24	1702.94
623.59	1693.25
623.93	1682.99
624.28	1673.30
624.62	1663.10
624.97	1652.78
625.32	1642.90
625.66	1633.83
626.01	1625.00
626.35	1615.72
626.70	1605.56
627.04	1595.47
627.39	1585.21
627.73	1575.87
628.08	1566.93
628.43	1557.22
628.77	1547.89
629.12	1539.00
629.46	1531.11
629.81	1522.65
630.15	1513.18
630.50	1503.35
630.84	1492.75
631.19	1482.85
631.53	1473.43
631.88	1463.23
632.22	1453.11
632.57	1443.67
632.91	1433.55
633.26	1423.60
633.60	1413.85
633.95	1404.44
634.29	1394.92
634.64	1385.59
634.98	1375.48
635.32	1366.15
635.67	1357.63
636.01	1348.28
636.36	1338.40
636.70	1328.77
637.05	1319.36
637.39	1310.17
637.73	1301.44
638.08	1293.79
638.42	1285.53
638.77	1276.57
639.11	1268.25
639.45	1260.34
639.80	1251.71
640.14	1243.00
640.49	1234.02
640.83	1225.06
641.17	1216.93
641.52	1208.64
641.86	1200.01
642.20	1192.09
642.55	1183.37
642.89	1174.42
643.23	1165.73
643.58	1157.49
643.92	1148.29
644.26	1139.52
644.61	1131.06
644.95	1122.06
645.29	1112.78
645.64	1103.46
645.98	1094.89
646.32	1086.96
646.66	1078.40
647.01	1070.09
647.35	1061.78
647.69	1053.41
648.04	1045.13
648.38	1036.13
648.72	1027.29
649.06	1018.65
649.41	1010.34
649.75	1002.31
650.09	994.33
650.43	986.14
650.78	977.75
651.12	970.01
651.46	962.56
651.80	955.24
652.14	947.90
652.49	940.29
652.83	932.91
653.17	925.13
653.51	917.35
653.85	909.99
654.20	902.57
654.54	894.91
654.88	887.65
655.22	880.29
655.56	873.27
655.90	866.42
656.25	859.80
656.59	852.84
656.93	845.70
657.27	838.47
657.61	831.39
657.95	825.22
658.29	819.17
658.64	812.87
658.98	806.31
659.32	799.75
659.66	793.41
660.00	786.99
660.34	780.86
660.68	774.66
661.02	768.29
661.36	762.24
661.70	756.46
662.05	750.69
662.39	745.17
662.73	739.65
663.07	734.15
663.41	728.37
663.75	722.56
664.09	716.77
664.43	711.29
664.77	705.90
665.11	700.00
665.45	694.11
665.79	688.20
666.13	682.42
666.47	676.84
666.81	671.30
667.15	665.88
667.49	660.61
667.83	655.31
668.17	649.94
668.51	644.80
668.85	639.80
669.19	634.83
669.53	629.73
669.87	624.56
670.21	619.74
670.55	614.92
670.89	610.36
671.23	606.02
671.57	601.57
671.91	597.27
672.25	593.11
672.58	588.90
672.92	584.82
673.26	580.90
673.60	577.00
673.94	573.16
674.28	569.49
674.62	565.72
674.96	561.94
675.30	558.40
675.64	554.65
675.97	551.01
676.31	547.35
676.65	543.71
676.99	540.23
677.33	536.30
677.67	532.63
678.01	528.78
678.34	525.12
678.68	521.58
679.02	517.96
679.36	514.16
679.70	510.42
680.04	506.84
680.37	503.31
680.71	499.91
681.05	496.72
681.39	493.40
681.73	490.12
682.06	487.03
682.40	483.86
682.74	480.64
683.08	477.38
683.42	474.18
683.75	471.11
684.09	468.02
684.43	465.20
684.77	462.28
685.10	459.43
685.44	456.45
685.78	453.48
686.12	450.64
686.45	447.95
686.79	445.28
687.13	442.72
687.46	440.01
687.80	437.32
688.14	434.39
688.48	431.71
688.81	429.05
689.15	426.42
689.49	423.80
689.82	421.23
690.16	418.60
690.50	416.05
690.83	413.52
691.17	410.88
691.51	408.40
691.84	406.11
692.18	403.89
692.52	401.63
692.85	399.45
693.19	397.28
693.52	395.07
693.86	392.82
694.20	390.62
694.53	388.51
694.87	386.28
695.21	384.16
695.54	381.96
695.88	379.76
696.21	377.48
696.55	375.30
696.88	373.20
697.22	371.22
697.56	369.33
697.89	367.42
698.23	365.66
698.56	363.82
698.90	361.98
699.23	359.95
699.57	358.10
699.90	356.25
700.24	354.37
700.58	352.58
700.91	350.89
701.25	349.29
701.58	347.65
701.92	346.06
702.25	344.44
702.59	342.80
702.92	341.23
703.26	339.68
703.59	338.28
703.93	337.01
704.26	335.52
704.60	333.95
704.93	332.47
705.26	330.94
705.60	329.44
705.93	327.90
706.27	326.56
706.60	325.27
706.94	323.94
707.27	322.60
707.61	321.23
707.94	319.89
708.27	318.33
708.61	316.80
708.94	315.36
709.28	314.04
709.61	312.83
709.94	311.64
710.28	310.40
710.61	309.18
710.95	307.75
711.28	306.65
711.61	305.46
711.95	304.35
712.28	303.13
712.61	301.94
712.95	300.88
713.28	299.82
713.61	298.65
713.95	297.54
714.28	296.45
714.61	295.37
714.95	294.32
715.28	293.26
715.61	292.26
715.95	291.34
716.28	290.38
716.61	289.38
716.95	288.31
717.28	287.42
717.61	286.40
717.94	285.51
718.28	284.46
718.61	283.61
718.94	282.67
719.27	281.83
719.61	280.99
719.94	280.11
720.27	279.18
720.60	278.28
720.94	277.44
721.27	276.69
721.60	276.00
721.93	275.27
722.27	274.63
722.60	274.00
722.93	273.24
723.26	272.55
723.59	271.86
723.93	271.26
724.26	270.58
724.59	269.94
724.92	269.28
725.25	268.75
725.59	268.16
725.92	267.62
726.25	267.03
726.58	266.45
726.91	265.83
727.24	265.29
727.57	264.72
727.91	264.11
728.24	263.56
728.57	262.94
728.90	262.39
729.23	261.79
729.56	261.33
729.89	260.78
730.22	260.19
730.55	259.62
730.89	259.05
731.22	258.52
731.55	257.97
731.88	257.44
732.21	256.88
732.54	256.29
732.87	255.74
733.20	255.25
733.53	254.76
733.86	254.31
734.19	253.83
734.52	253.45
734.85	253.16
735.18	252.68
735.51	252.31
735.84	251.86
736.17	251.45
736.50	250.89
736.83	250.70
737.16	250.30
737.49	249.91
737.82	249.47
738.15	249.08
738.48	248.66
738.81	248.25
739.14	247.82
739.47	247.47
739.80	247.13
740.13	246.79
740.46	246.40
740.79	245.99
741.12	245.60
741.45	245.18
741.78	244.73
742.11	244.43
742.44	244.00
742.77	243.69
743.10	243.33
743.43	242.99
743.75	242.42
744.08	242.35
744.41	241.99
744.74	241.66
745.07	241.29
745.40	241.03
745.73	240.80
746.06	240.44
746.39	240.10
746.71	239.73
747.04	239.36
747.37	239.04
747.70	238.77
748.03	238.46
748.36	238.20
748.68	237.89
749.01	237.52
749.34	237.23
749.67	236.91
750.00	236.64
750.33	236.50
750.65	236.26
750.98	235.73
751.31	235.52
751.64	235.31
751.97	235.20
752.29	234.91
752.62	234.57
752.95	234.34
753.28	234.09
753.60	233.86
753.93	233.71
754.26	233.53
754.59	233.25
754.91	233.00
755.24	232.76
755.57	232.51
755.90	232.28
756.22	232.08
756.55	231.84
756.88	231.57
757.20	231.25
757.53	230.97
757.86	230.77
758.19	230.55
758.51	230.31
758.84	229.98
759.17	229.79
759.49	229.63
759.82	229.59
760.15	229.42
760.47	229.22
760.80	228.92
761.13	228.73
761.45	228.56
761.78	228.38
762.11	228.23
762.43	228.07
762.76	227.90
763.08	227.74
763.41	227.61
763.74	227.51
764.06	227.34
764.39	227.20
764.71	227.05
765.04	226.87
765.37	226.69
765.69	226.56
766.02	226.41
766.34	226.22
766.67	225.95
767.00	225.86
767.32	225.81
767.65	225.84
767.97	225.69
768.30	225.55
768.62	225.42
768.95	225.24
769.27	225.07
769.60	225.02
769.92	224.84
770.25	224.72
770.57	224.57
770.90	224.41
771.22	224.26
771.55	224.11
771.87	224.00
772.20	223.88
772.52	223.93
772.85	224.08
773.17	223.99
773.50	223.87
773.82	223.74
774.15	223.59
774.47	223.35
774.80	223.20
775.12	223.07
775.45	222.95
775.77	222.89
776.09	222.82
776.42	222.70
776.74	222.68
777.07	222.54
777.39	222.47
777.72	222.39
778.04	222.36
778.36	222.30
778.69	222.24
779.01	222.19
779.33	221.94
779.66	221.63
779.98	221.54
780.31	221.49
780.63	221.49
780.95	221.43
781.28	221.36
781.60	221.33
781.92	221.26
782.25	221.23
782.57	221.16
782.89	221.07
783.22	221.00
783.54	220.91
783.86	220.85
784.19	220.76
784.51	220.79
784.83	220.70
785.16	220.63
785.48	220.57
785.80	220.48
786.12	220.43
786.45	220.35
786.77	220.31
787.09	220.27
787.42	220.10
787.74	220.01
788.06	219.95
788.38	219.90
788.71	219.83
789.03	219.76
789.35	219.73
789.67	219.67
789.99	219.63
790.32	219.56
790.64	219.54
790.96	219.65
791.28	219.57
791.61	219.49
791.93	219.47
792.25	219.41
792.57	219.55
792.89	219.47
793.21	219.41
793.54	219.38
793.86	219.28
794.18	219.29
794.50	219.21
794.82	219.19
795.14	219.17
795.47	219.17
795.79	219.16
796.11	219.06
796.43	219.01
796.75	218.96
797.07	218.93
797.39	218.87
797.71	218.69
798.04	218.62
798.36	218.59
798.68	218.52
799.00	218.49
799.32	218.34
799.64	218.36
799.96	218.36
800.28	218.33
800.60	218.31
800.92	218.28
801.24	218.23
801.56	218.21
801.89	218.15
802.21	218.14
802.53	218.05
802.85	218.08
803.17	218.15
803.49	218.08
803.81	218.05
804.13	218.00
804.45	217.92
804.77	217.93
805.09	217.89
805.41	217.83
805.73	217.78
806.05	217.64
806.37	217.60
806.69	217.53
807.01	217.49
807.33	217.48
807.65	217.36
807.97	217.44
808.28	217.37
808.60	217.33
808.92	217.26
809.24	217.37
809.56	217.30
809.88	217.20
810.20	217.20
810.52	217.19
810.84	217.13
811.16	217.11
811.48	217.05
811.80	217.10
812.12	217.10
812.43	217.11
812.75	217.13
813.07	217.10
813.39	217.08
813.71	217.02
814.03	216.97
814.35	216.95
814.67	216.84
814.98	216.85
815.30	216.81
815.62	216.75
815.94	216.60
816.26	216.58
816.58	216.50
816.89	216.47
817.21	216.40
817.53	216.41
817.85	216.39
818.17	216.37
818.48	216.28
818.80	216.28
819.12	216.26
819.44	216.24
819.76	216.17
820.07	216.15
820.39	216.14
820.71	216.15
821.03	216.17
821.34	216.16
821.66	216.15
821.98	216.17
822.30	216.17
822.61	216.29
822.93	216.26
823.25	216.28
823.57	216.26
823.88	216.34
824.20	216.31
824.52	216.34
824.83	216.31
825.15	216.27
825.47	216.24
825.79	216.24
826.10	216.21
826.42	216.20
826.74	216.20
827.05	216.20
827.37	216.17
827.69	216.13
828.00	216.12
828.32	216.11
828.64	216.08
828.95	216.18
829.27	216.06
829.58	216.04
829.90	216.05
830.22	216.02
830.53	215.92
830.85	215.90
831.17	215.83
831.48	215.81
831.80	215.80
832.11	215.77
832.43	215.72
832.75	215.70
833.06	215.82
833.38	215.77
833.69	215.74
834.01	215.74
834.32	215.74
834.64	215.71
834.96	215.71
835.27	215.69
835.59	215.59
835.90	215.56
836.22	215.56
836.53	215.54
836.85	215.53
837.16	215.71
837.48	215.72
837.79	215.81
838.11	215.79
838.42	215.79
838.74	215.83
839.05	215.80
839.37	215.81
839.68	215.64
840.00	215.62
840.31	215.64
840.63	215.61
840.94	215.56
841.26	215.50
841.57	215.48
841.88	215.50
842.20	215.46
842.51	215.43
842.83	215.42
843.14	215.55
843.46	215.56
843.77	215.46
844.08	215.41
844.40	215.31
844.71	215.28
845.03	215.24
845.34	215.21
845.65	215.21
845.97	215.18
846.28	215.19
846.60	215.19
846.91	215.15
847.22	215.14
847.54	215.20
847.85	215.22
848.16	215.18
848.48	215.10
848.79	215.23
849.10	215.27
849.42	215.27
849.73	215.11
850.04	215.07
850.36	215.00
850.67	215.05
850.98	215.05
851.30	215.10
851.61	215.10
851.92	215.10
852.23	215.16
852.55	215.14
852.86	215.15
853.17	215.16
853.49	215.20
853.80	215.26
854.11	215.25
854.42	215.25
854.74	215.25
855.05	215.27
855.36	215.12
855.67	215.11
855.99	215.10
856.30	215.32
856.61	215.29
856.92	215.27
857.23	215.24
857.55	215.22
857.86	215.21
858.17	215.25
858.48	215.20
858.79	215.16
859.11	215.22
859.42	215.23
859.73	215.19
860.04	215.17
860.35	215.08
860.66	215.04
860.98	215.03
861.29	215.07
861.60	215.05
861.91	215.12
862.22	215.08
862.53	215.03
862.84	214.81
863.16	214.88
863.47	214.88
863.78	214.87
864.09	214.89
864.40	214.90
864.71	214.89
865.02	214.92
865.33	214.90
865.64	214.80
865.95	214.77
866.27	214.95
866.58	214.95
866.89	215.00
867.20	215.02
867.51	215.00
867.82	214.96
868.13	215.02
868.44	214.96
868.75	215.00
869.06	215.06
869.37	215.09
869.68	215.04
869.99	215.05
870.30	215.07
870.61	215.05
870.92	215.00
871.23	214.98
871.54	215.03
871.85	215.06
872.16	215.12
872.47	215.12
872.78	214.97
873.09	214.96
873.40	214.91
873.71	214.91
874.02	214.92
874.33	214.90
874.64	214.86
874.95	214.90
875.26	214.85
875.56	214.81
875.87	214.78
876.18	214.76
876.49	214.97
876.80	214.95
877.11	214.94
877.42	214.98
877.73	214.98
878.04	214.93
878.35	214.92
878.66	214.91
878.96	214.93
879.27	214.91
879.58	214.92
879.89	214.92
880.20	214.97
880.51	214.98
880.82	214.99
881.12	215.01
881.43	214.97
881.74	214.94
882.05	214.97
882.36	215.01
882.67	215.03
882.97	214.82
883.28	214.80
883.59	214.80
883.90	214.80
884.21	214.83
884.51	214.82
884.82	214.80
885.13	214.78
885.44	214.76
885.74	214.75
886.05	214.76
886.36	214.75
886.67	214.68
886.98	214.77
887.28	214.78
887.59	214.77
887.90	214.80
888.20	214.80
888.51	214.81
888.82	214.76
889.13	214.77
889.43	214.91
889.74	214.87
890.05	214.89
890.35	214.87
890.66	214.86
890.97	214.84
891.28	214.82
891.58	214.84
891.89	214.83
892.20	214.82
892.50	214.75
892.81	214.74
893.12	214.75
893.42	214.61
893.73	214.61
894.04	214.59
894.34	214.54
894.65	214.55
894.95	214.51
895.26	214.49
895.57	214.55
895.87	214.36
896.18	214.42
896.48	214.41
896.79	214.37
897.10	214.36
897.40	214.39
897.71	214.41
898.01	214.36
898.32	214.40
898.63	214.37
898.93	214.45
899.24	214.48
899.54	214.47
899.85	214.48
900.15	214.50
900.46	214.52
900.76	214.55
901.07	214.54
901.38	214.51
901.68	214.52
901.99	214.42
902.29	214.43
902.60	214.42
902.90	214.41
903.21	214.42
903.51	214.43
903.82	214.43
904.12	214.44
904.43	214.49
904.73	214.49
905.03	214.52
905.34	214.65
905.64	214.62
905.95	214.61
906.25	214.62
906.56	214.59
906.86	214.59
907.17	214.58
907.47	214.62
907.77	214.63
908.08	214.59
908.38	214.61
908.69	214.62
908.99	214.66
909.30	214.67
909.60	214.68
909.90	214.68
910.21	214.62
910.51	214.60
910.81	214.59
911.12	214.57
911.42	214.57
911.73	214.37
912.03	214.39
912.33	214.46
912.64	214.43
912.94	214.42
913.24	214.38
913.55	214.37
913.85	214.35
914.15	214.41
914.46	214.46
914.76	214.44
915.06	214.43
915.37	214.39
915.67	214.36
915.97	214.32
916.27	214.30
916.58	214.32
916.88	214.33
917.18	214.28
917.49	214.45
917.79	214.43
918.09	214.45
918.39	214.45
918.70	214.39
919.00	214.38
919.30	214.48
919.60	214.49
919.91	214.46
920.21	214.47
920.51	214.39
920.81	214.37
921.12	214.44
921.42	214.42
921.72	214.43
922.02	214.45
922.32	214.50
922.63	214.51
922.93	214.59
923.23	214.58
923.53	214.59
923.83	214.44
924.13	214.46
924.44	214.47
924.74	214.54
925.04	214.61
925.34	214.62
925.64	214.51
925.94	214.47
926.24	214.63
926.55	214.59
926.85	214.65
927.15	214.65
927.45	214.63
927.75	214.66
928.05	214.67
928.35	214.65
928.65	214.68
928.95	214.70
929.26	214.67
929.56	214.70
929.86	214.71
930.16	214.69
930.46	214.70
930.76	214.72
931.06	214.64
931.36	214.58
931.66	214.62
931.96	214.66
932.26	214.71
932.56	214.61
932.86	214.65
933.16	214.63
933.46	214.62
933.76	214.58
934.06	214.60
934.36	214.67
934.66	214.69
934.96	214.65
935.26	214.64
935.56	214.63
935.86	214.60
936.16	214.59
936.46	214.60
936.76	214.59
937.06	214.54
937.36	214.54
937.66	214.53
937.96	214.52
938.26	214.50
938.56	214.50
938.86	214.52
939.16	214.55
939.46	214.57
939.76	214.60
940.06	214.60
940.35	214.53
940.65	214.43
940.95	214.44
941.25	214.38
941.55	214.38
941.85	214.37
942.15	214.39
942.45	214.44
942.75	214.44
943.04	214.44
943.34	214.48
943.64	214.45
943.94	214.43
944.24	214.41
944.54	214.38
944.84	214.38
945.13	214.31
945.43	214.28
945.73	214.30
946.03	214.25
946.33	214.24
946.62	214.27
946.92	214.26
947.22	214.28
947.52	214.30
947.82	214.33
948.11	214.28
948.41	214.22
948.71	214.17
949.01	214.17
949.31	214.16
949.60	214.14
949.90	214.15
950.20	214.16
950.50	214.16
950.79	214.15
951.09	214.16
951.39	214.17
951.69	214.15
951.98	214.19
952.28	214.22
952.58	214.24
952.87	214.23
953.17	214.28
953.47	214.24
953.76	214.25
954.06	214.20
954.36	214.21
954.66	214.22
954.95	214.25
955.25	214.25
955.55	214.22
955.84	214.17
956.14	214.21
956.44	214.23
956.73	214.21
957.03	214.21
957.32	214.20
957.62	214.20
957.92	214.23
958.21	214.14
958.51	214.32
958.81	214.30
959.10	214.33
959.40	214.38
959.69	214.37
959.99	214.40
960.29	214.41
960.58	214.40
960.88	214.46
961.17	214.42
961.47	214.45
961.76	214.49
962.06	214.57
962.36	214.56
962.65	214.54
962.95	214.54
963.24	214.54
963.54	214.56
963.83	214.58
964.13	214.57
964.42	214.57
964.72	214.41
965.01	214.43
965.31	214.43
965.60	214.34
965.90	214.47
966.19	214.43
966.49	214.41
966.78	214.41
967.08	214.37
967.37	214.40
967.67	214.37
967.96	214.38
968.26	214.35
968.55	214.40
968.85	214.45
969.14	214.45
969.43	214.45
969.73	214.47
970.02	214.42
970.32	214.40
970.61	214.39
970.91	214.35
971.20	214.31
971.49	214.30
971.79	214.33
972.08	214.19
972.38	214.23
972.67	214.24
972.96	214.30
973.26	214.30
973.55	214.36
973.85	214.34
974.14	214.31
974.43	214.30
974.73	214.27
975.02	214.20
975.31	214.20
975.61	214.20
975.90	214.13
976.19	214.14
976.49	214.17
976.78	214.20
977.07	214.23
977.37	214.22
977.66	214.22
977.95	214.21
978.24	214.25
978.54	214.28
978.83	214.25
979.12	214.22
979.42	214.22
979.71	214.14
980.00	214.14
980.29	214.13
980.59	214.11
980.88	214.13
981.17	214.13
981.46	214.15
981.76	214.18
982.05	214.25
982.34	214.27
982.63	214.27
982.93	214.23
983.22	214.26
983.51	214.28
983.80	214.29
984.09	214.32
984.39	214.27
984.68	214.22
984.97	214.28
985.26	214.25
985.55	214.27
985.85	214.27
986.14	214.32
986.43	214.35
986.72	214.34
987.01	214.27
987.30	214.28
987.59	214.27
987.89	214.26
988.18	214.20
988.47	214.18
988.76	214.18
989.05	214.16
989.34	214.11
989.63	214.18
989.92	214.16
990.22	214.09
990.51	214.09
990.80	214.10
991.09	214.10
991.38	214.14
991.67	214.12
991.96	214.11
992.25	214.08
992.54	214.08
992.83	214.08
993.12	214.09
993.41	214.11
993.70	214.18
993.99	214.19
994.28	214.22
994.58	214.24
994.87	214.21
995.16	214.22
995.45	214.21
995.74	214.11
996.03	214.14
996.32	214.18
996.61	214.25
996.90	214.25
997.19	214.23
997.48	214.22
997.77	214.18
998.06	214.18
998.34	214.19
998.63	214.17
998.92	214.19
999.21	214.22
999.50	214.25
999.79	214.16
1000.08	214.18
1000.37	214.18
1000.66	214.16
1000.95	214.22
1001.24	214.24
1001.53	214.29
1001.82	214.29
1002.11	214.26
1002.40	214.30
1002.68	214.32
1002.97	214.46
1003.26	214.45
1003.55	214.41
1003.84	214.42
1004.13	214.50
1004.42	214.49
1004.71	214.49
1004.99	214.48
1005.28	214.49
1005.57	214.45
1005.86	214.47
1006.15	214.44
1006.44	214.42
1006.72	214.45
1007.01	214.40
1007.30	214.43
1007.59	214.39
1007.88	214.39
1008.17	214.41
1008.45	214.36
1008.74	214.27
1009.03	214.16
1009.32	214.15
1009.60	214.18
1009.89	214.15
1010.18	214.05
1010.47	214.02
1010.76	214.02
1011.04	214.00
1011.33	214.04
1011.62	214.09
1011.91	214.09
1012.19	214.10
1012.48	214.10
1012.77	214.10
1013.05	214.22
1013.34	214.18
1013.63	214.19
1013.92	214.20
1014.20	214.17
1014.49	214.19
1014.78	214.21
1015.06	214.17
1015.35	214.19
1015.64	214.21
1015.92	214.27
1016.21	214.30
1016.50	214.31
1016.78	214.34
1017.07	214.36
1017.36	214.29
1017.64	214.26
1017.93	214.29
1018.22	214.23
1018.50	214.21
1018.79	214.14
1019.08	214.01
1019.36	214.03
1019.65	213.99
1019.93	214.06
1020.22	214.09
1020.51	214.19
1020.79	214.18
1021.08	212.93
1021.36	213.49
1021.65	213.26
1021.94	213.64
1022.22	214.36
1022.51	213.75
1022.79	215.02
1023.08	214.38
1023.36	216.54
1023.65	213.83
>>>>>End Processed Spectral Data<<<<<
