SpectraSuite Data File
++++++++++++++++++++++++++++++++++++
Date: Tue Jan 29 16:24:07 EST 2013
User: group
Dark Spectrum Present: No
Reference Spectrum Present: No
Number of Sampled Component Spectra: 1
Spectrometers: USB2E7196
Integration Time (usec): 65000 (USB2E7196)
Spectra Averaged: 100 (USB2E7196)
Boxcar Smoothing: 10 (USB2E7196)
Correct for Electrical Dark: No (USB2E7196)
Strobe/Lamp Enabled: No (USB2E7196)
Correct for Detector Non-linearity: No (USB2E7196)
Correct for Stray Light: No (USB2E7196)
Number of Pixels in Processed Spectrum: 2048
>>>>>Begin Processed Spectral Data<<<<<
339.09	0.00
339.48	202.31
339.86	203.34
340.24	205.35
340.63	206.20
341.01	211.36
341.39	208.69
341.78	210.38
342.16	211.77
342.54	212.66
342.93	201.48
343.31	211.68
343.69	212.23
344.07	212.71
344.46	213.17
344.84	213.59
345.22	213.76
345.60	214.05
345.99	214.30
346.37	214.49
346.75	214.58
347.13	214.66
347.52	214.75
347.90	214.87
348.28	214.92
348.66	214.99
349.05	214.97
349.43	215.04
349.81	215.07
350.19	215.12
350.57	215.20
350.96	215.30
351.34	215.37
351.72	215.48
352.10	215.61
352.48	215.68
352.87	215.75
353.25	215.84
353.63	215.90
354.01	215.93
354.39	215.98
354.77	216.09
355.15	216.23
355.54	216.30
355.92	216.32
356.30	216.40
356.68	216.60
357.06	216.71
357.44	216.71
357.82	216.75
358.20	216.84
358.58	216.88
358.97	216.93
359.35	217.02
359.73	217.11
360.11	217.16
360.49	217.18
360.87	217.22
361.25	217.26
361.63	217.41
362.01	217.45
362.39	217.46
362.77	217.49
363.15	217.49
363.53	217.51
363.91	217.55
364.29	217.55
364.67	217.36
365.05	217.37
365.43	217.40
365.81	217.49
366.19	217.59
366.57	217.67
366.95	217.65
367.33	217.61
367.71	217.59
368.09	217.61
368.47	217.58
368.85	217.52
369.23	217.54
369.61	217.42
369.99	217.48
370.37	217.48
370.75	217.58
371.13	217.52
371.51	217.44
371.89	217.42
372.27	217.41
372.65	217.40
373.03	217.38
373.41	217.35
373.78	217.25
374.16	217.10
374.54	217.00
374.92	216.99
375.30	216.97
375.68	216.90
376.06	216.87
376.44	216.84
376.82	216.84
377.19	216.76
377.57	216.71
377.95	216.57
378.33	216.53
378.71	216.33
379.09	216.31
379.47	216.29
379.84	216.28
380.22	216.20
380.60	216.17
380.98	216.10
381.36	216.05
381.73	215.97
382.11	215.99
382.49	215.97
382.87	215.88
383.25	215.82
383.62	216.00
384.00	215.91
384.38	215.90
384.76	215.89
385.13	215.94
385.51	215.90
385.89	215.86
386.27	215.82
386.64	215.83
387.02	215.74
387.40	215.69
387.78	215.64
388.15	215.64
388.53	215.60
388.91	215.58
389.29	215.55
389.66	215.57
390.04	215.51
390.42	215.50
390.79	215.51
391.17	215.50
391.55	215.27
391.92	215.26
392.30	215.28
392.68	215.22
393.05	215.21
393.43	215.24
393.81	215.27
394.18	215.24
394.56	215.25
394.94	215.31
395.31	215.34
395.69	215.40
396.06	215.45
396.44	215.45
396.82	215.47
397.19	215.60
397.57	215.59
397.95	215.71
398.32	215.69
398.70	215.68
399.07	215.80
399.45	215.86
399.82	215.95
400.20	215.95
400.58	216.06
400.95	216.01
401.33	216.12
401.70	216.32
402.08	216.46
402.45	216.56
402.83	216.74
403.20	216.84
403.58	216.93
403.95	217.10
404.33	217.28
404.71	217.48
405.08	217.74
405.46	217.94
405.83	218.09
406.21	218.28
406.58	218.55
406.96	218.76
407.33	218.99
407.70	219.28
408.08	219.75
408.45	220.09
408.83	220.53
409.20	220.83
409.58	221.12
409.95	221.56
410.33	222.04
410.70	222.46
411.08	223.02
411.45	223.59
411.82	224.12
412.20	224.77
412.57	225.55
412.95	226.12
413.32	226.92
413.69	227.76
414.07	228.69
414.44	229.69
414.82	230.68
415.19	231.84
415.56	233.00
415.94	234.17
416.31	235.56
416.68	236.92
417.06	238.51
417.43	240.06
417.81	241.80
418.18	243.57
418.55	245.47
418.93	247.46
419.30	249.56
419.67	251.77
420.04	254.07
420.42	256.42
420.79	259.22
421.16	262.00
421.54	264.87
421.91	267.86
422.28	270.92
422.66	274.24
423.03	277.49
423.40	280.87
423.77	284.41
424.15	288.12
424.52	291.93
424.89	296.12
425.26	300.14
425.64	303.96
426.01	308.20
426.38	312.66
426.75	317.25
427.13	321.91
427.50	326.86
427.87	332.02
428.24	337.25
428.61	342.20
428.99	347.64
429.36	353.63
429.73	359.50
430.10	365.38
430.47	371.40
430.85	377.67
431.22	384.32
431.59	391.43
431.96	398.17
432.33	405.62
432.70	412.81
433.08	421.32
433.45	429.34
433.82	437.32
434.19	446.19
434.56	454.78
434.93	463.07
435.30	471.33
435.68	480.40
436.05	489.33
436.42	498.13
436.79	506.23
437.16	514.91
437.53	524.16
437.90	533.20
438.27	542.12
438.64	551.29
439.01	559.78
439.38	567.28
439.75	574.58
440.13	583.00
440.50	590.96
440.87	597.37
441.24	604.04
441.61	611.33
441.98	616.60
442.35	622.91
442.72	629.14
443.09	635.12
443.46	638.82
443.83	641.26
444.20	643.43
444.57	646.58
444.94	648.05
445.31	649.41
445.68	650.75
446.05	651.36
446.42	650.52
446.79	649.59
447.16	648.56
447.53	647.76
447.90	644.41
448.27	641.07
448.64	636.38
449.01	633.02
449.37	627.14
449.74	621.50
450.11	614.63
450.48	607.28
450.85	599.85
451.22	593.39
451.59	587.33
451.96	581.60
452.33	573.69
452.70	566.63
453.07	558.13
453.43	549.57
453.80	541.28
454.17	533.39
454.54	525.81
454.91	517.68
455.28	509.74
455.65	502.40
456.02	494.95
456.38	488.69
456.75	480.86
457.12	474.35
457.49	467.92
457.86	461.75
458.23	456.42
458.59	450.57
458.96	444.64
459.33	439.40
459.70	434.07
460.07	429.95
460.43	425.04
460.80	420.57
461.17	416.62
461.54	412.47
461.91	408.45
462.27	404.41
462.64	401.01
463.01	397.26
463.38	393.56
463.74	389.87
464.11	386.58
464.48	383.80
464.85	380.71
465.21	378.33
465.58	375.71
465.95	372.61
466.32	370.02
466.68	367.44
467.05	364.80
467.42	362.27
467.78	359.60
468.15	357.16
468.52	355.26
468.88	352.80
469.25	350.60
469.62	348.85
469.98	346.89
470.35	345.06
470.72	343.35
471.08	341.56
471.45	340.08
471.82	338.60
472.18	336.91
472.55	335.72
472.92	334.26
473.28	333.10
473.65	331.99
474.02	330.84
474.38	329.97
474.75	329.26
475.11	328.42
475.48	327.86
475.85	327.39
476.21	326.90
476.58	326.57
476.94	326.35
477.31	326.01
477.67	325.79
478.04	325.63
478.41	325.62
478.77	325.78
479.14	325.79
479.50	325.97
479.87	326.28
480.23	326.64
480.60	326.91
480.96	327.16
481.33	327.76
481.69	328.31
482.06	328.81
482.42	329.26
482.79	329.90
483.15	330.65
483.52	331.58
483.88	332.46
484.25	333.41
484.61	334.40
484.98	335.47
485.34	336.75
485.71	338.16
486.07	339.60
486.44	340.93
486.80	342.51
487.17	344.18
487.53	345.99
487.90	347.84
488.26	349.89
488.62	352.04
488.99	354.10
489.35	356.30
489.72	358.68
490.08	361.22
490.44	363.76
490.81	366.45
491.17	369.16
491.54	372.19
491.90	375.25
492.26	378.52
492.63	381.97
492.99	385.53
493.36	389.23
493.72	393.13
494.08	397.17
494.45	401.43
494.81	405.78
495.17	410.27
495.54	415.00
495.90	419.84
496.26	424.80
496.63	430.03
496.99	435.54
497.35	441.18
497.72	447.01
498.08	452.98
498.44	459.19
498.80	465.69
499.17	472.16
499.53	478.89
499.89	485.81
500.26	492.77
500.62	499.86
500.98	507.27
501.34	514.80
501.71	522.65
502.07	530.52
502.43	538.62
502.79	546.81
503.16	555.20
503.52	563.89
503.88	572.74
504.24	581.71
504.60	590.81
504.97	600.14
505.33	609.50
505.69	619.51
506.05	629.41
506.41	639.28
506.78	649.45
507.14	659.74
507.50	670.34
507.86	681.16
508.22	692.08
508.59	702.81
508.95	714.02
509.31	725.31
509.67	736.89
510.03	748.42
510.39	760.27
510.75	772.22
511.12	784.18
511.48	796.27
511.84	808.65
512.20	821.13
512.56	833.81
512.92	846.76
513.28	859.45
513.64	872.37
514.00	885.38
514.37	898.45
514.73	911.73
515.09	924.79
515.45	937.85
515.81	950.93
516.17	964.47
516.53	977.69
516.89	990.90
517.25	1004.14
517.61	1017.75
517.97	1031.30
518.33	1044.63
518.69	1058.30
519.05	1072.21
519.41	1085.97
519.77	1099.97
520.13	1113.42
520.49	1126.70
520.85	1140.19
521.21	1153.56
521.57	1167.36
521.93	1180.57
522.29	1194.46
522.65	1208.21
523.01	1221.95
523.37	1235.38
523.73	1248.82
524.09	1262.22
524.45	1275.83
524.81	1289.44
525.17	1302.88
525.53	1316.11
525.89	1329.45
526.25	1342.66
526.61	1355.57
526.97	1368.85
527.33	1381.86
527.68	1395.41
528.04	1408.81
528.40	1422.05
528.76	1435.59
529.12	1448.47
529.48	1461.84
529.84	1474.12
530.20	1486.93
530.56	1499.70
530.91	1512.97
531.27	1525.95
531.63	1538.68
531.99	1551.50
532.35	1563.85
532.71	1576.44
533.07	1589.63
533.42	1602.13
533.78	1614.47
534.14	1626.78
534.50	1638.08
534.86	1649.77
535.21	1660.80
535.57	1672.60
535.93	1683.95
536.29	1695.05
536.65	1706.72
537.00	1717.92
537.36	1729.47
537.72	1740.61
538.08	1751.99
538.44	1763.11
538.79	1774.25
539.15	1785.27
539.51	1796.09
539.87	1807.53
540.22	1818.28
540.58	1829.09
540.94	1839.96
541.29	1850.35
541.65	1860.15
542.01	1870.79
542.37	1880.85
542.72	1891.03
543.08	1900.78
543.44	1911.24
543.79	1920.74
544.15	1930.22
544.51	1940.25
544.87	1950.19
545.22	1959.48
545.58	1968.54
545.94	1977.45
546.29	1985.98
546.65	1994.38
547.01	2002.66
547.36	2010.25
547.72	2018.16
548.07	2025.71
548.43	2033.50
548.79	2041.28
549.14	2049.44
549.50	2057.80
549.86	2065.79
550.21	2073.35
550.57	2081.16
550.92	2088.13
551.28	2095.47
551.64	2102.79
551.99	2110.30
552.35	2117.42
552.70	2124.41
553.06	2130.97
553.41	2137.25
553.77	2143.81
554.13	2150.32
554.48	2157.40
554.84	2164.64
555.19	2171.17
555.55	2177.70
555.90	2184.11
556.26	2191.13
556.61	2197.19
556.97	2202.07
557.32	2207.86
557.68	2214.15
558.03	2220.02
558.39	2225.39
558.74	2231.61
559.10	2237.08
559.45	2242.66
559.81	2248.24
560.16	2253.85
560.52	2259.81
560.87	2266.28
561.23	2272.18
561.58	2278.96
561.94	2284.40
562.29	2289.06
562.64	2295.25
563.00	2300.99
563.35	2306.56
563.71	2312.29
564.06	2318.09
564.42	2324.13
564.77	2329.29
565.12	2334.67
565.48	2339.82
565.83	2345.35
566.19	2350.82
566.54	2356.24
566.89	2360.91
567.25	2365.72
567.60	2371.48
567.96	2376.56
568.31	2381.22
568.66	2385.65
569.02	2389.53
569.37	2393.30
569.72	2397.90
570.08	2401.40
570.43	2404.70
570.78	2407.91
571.14	2410.49
571.49	2413.86
571.84	2417.58
572.20	2420.65
572.55	2423.75
572.90	2426.15
573.26	2429.15
573.61	2431.70
573.96	2434.05
574.31	2436.19
574.67	2438.09
575.02	2438.88
575.37	2440.50
575.72	2441.13
576.08	2442.68
576.43	2442.92
576.78	2443.41
577.13	2445.07
577.49	2446.33
577.84	2447.31
578.19	2448.66
578.54	2449.15
578.90	2449.85
579.25	2449.88
579.60	2449.87
579.95	2449.30
580.30	2449.43
580.66	2448.92
581.01	2447.30
581.36	2445.09
581.71	2443.68
582.06	2442.47
582.42	2441.84
582.77	2439.71
583.12	2438.32
583.47	2436.98
583.82	2436.36
584.17	2435.17
584.53	2433.12
584.88	2431.09
585.23	2429.42
585.58	2427.22
585.93	2425.48
586.28	2423.29
586.63	2420.74
586.98	2418.53
587.34	2416.46
587.69	2413.93
588.04	2411.84
588.39	2410.52
588.74	2408.10
589.09	2405.46
589.44	2402.28
589.79	2399.72
590.14	2397.81
590.49	2395.01
590.84	2391.10
591.19	2388.01
591.54	2384.79
591.89	2380.77
592.25	2377.56
592.60	2373.20
592.95	2369.00
593.30	2364.71
593.65	2360.30
594.00	2355.88
594.35	2352.85
594.70	2348.10
595.05	2343.72
595.40	2338.17
595.75	2332.25
596.10	2328.61
596.45	2323.73
596.80	2319.40
597.15	2314.04
597.50	2308.06
597.85	2303.10
598.19	2298.05
598.54	2292.20
598.89	2286.94
599.24	2282.30
599.59	2276.06
599.94	2270.33
600.29	2264.27
600.64	2258.29
600.99	2251.40
601.34	2245.87
601.69	2238.91
602.04	2232.49
602.39	2225.64
602.74	2219.38
603.08	2213.86
603.43	2207.23
603.78	2200.23
604.13	2193.03
604.48	2185.72
604.83	2179.58
605.18	2173.33
605.53	2166.30
605.87	2159.27
606.22	2152.46
606.57	2144.60
606.92	2136.69
607.27	2129.72
607.62	2123.21
607.96	2116.19
608.31	2109.77
608.66	2101.98
609.01	2094.31
609.36	2087.27
609.70	2079.67
610.05	2071.95
610.40	2063.49
610.75	2055.10
611.10	2047.38
611.44	2038.29
611.79	2029.46
612.14	2019.28
612.49	2008.37
612.83	1998.91
613.18	1989.54
613.53	1980.16
613.88	1970.47
614.22	1961.70
614.57	1951.66
614.92	1940.88
615.27	1930.61
615.61	1920.26
615.96	1910.53
616.31	1900.75
616.65	1891.19
617.00	1881.37
617.35	1871.66
617.70	1861.90
618.04	1851.83
618.39	1841.67
618.74	1832.02
619.08	1822.39
619.43	1813.74
619.78	1805.43
620.12	1796.80
620.47	1787.17
620.82	1776.71
621.16	1766.74
621.51	1756.72
621.85	1746.84
622.20	1736.38
622.55	1725.66
622.89	1715.74
623.24	1705.90
623.59	1696.00
623.93	1685.62
624.28	1675.65
624.62	1665.38
624.97	1655.04
625.32	1644.96
625.66	1635.97
626.01	1627.12
626.35	1617.59
626.70	1607.31
627.04	1597.27
627.39	1586.97
627.73	1577.64
628.08	1568.56
628.43	1558.84
628.77	1549.50
629.12	1540.42
629.46	1532.55
629.81	1524.13
630.15	1514.51
630.50	1504.46
630.84	1493.98
631.19	1484.04
631.53	1474.75
631.88	1464.53
632.22	1454.46
632.57	1445.12
632.91	1434.83
633.26	1424.77
633.60	1415.07
633.95	1405.75
634.29	1396.19
634.64	1386.77
634.98	1376.65
635.32	1367.28
635.67	1358.81
636.01	1349.43
636.36	1339.62
636.70	1330.00
637.05	1320.41
637.39	1311.38
637.73	1302.82
638.08	1295.11
638.42	1286.91
638.77	1277.88
639.11	1269.50
639.45	1261.53
639.80	1252.90
640.14	1244.12
640.49	1235.26
640.83	1226.30
641.17	1218.03
641.52	1209.79
641.86	1201.07
642.20	1193.12
642.55	1184.39
642.89	1175.34
643.23	1166.55
643.58	1158.31
643.92	1149.13
644.26	1140.47
644.61	1131.93
644.95	1122.93
645.29	1113.56
645.64	1104.21
645.98	1095.54
646.32	1087.49
646.66	1078.89
647.01	1070.36
647.35	1062.01
647.69	1053.60
648.04	1045.24
648.38	1036.33
648.72	1027.34
649.06	1018.85
649.41	1010.52
649.75	1002.37
650.09	994.39
650.43	986.30
650.78	977.86
651.12	970.02
651.46	962.50
651.80	955.17
652.14	947.80
652.49	940.12
652.83	932.72
653.17	924.95
653.51	917.21
653.85	909.79
654.20	902.50
654.54	894.92
654.88	887.53
655.22	880.26
655.56	873.10
655.90	866.16
656.25	859.30
656.59	852.30
656.93	845.27
657.27	838.04
657.61	830.92
657.95	824.71
658.29	818.69
658.64	812.50
658.98	805.91
659.32	799.29
659.66	793.08
660.00	786.76
660.34	780.71
660.68	774.52
661.02	768.20
661.36	762.08
661.70	756.29
662.05	750.63
662.39	745.03
662.73	739.58
663.07	734.22
663.41	728.56
663.75	722.80
664.09	716.96
664.43	711.47
664.77	706.12
665.11	700.31
665.45	694.31
665.79	688.37
666.13	682.59
666.47	677.03
666.81	671.43
667.15	665.88
667.49	660.54
667.83	655.22
668.17	649.86
668.51	644.75
668.85	639.74
669.19	634.71
669.53	629.68
669.87	624.49
670.21	619.57
670.55	614.84
670.89	610.28
671.23	605.93
671.57	601.49
671.91	597.11
672.25	592.88
672.58	588.73
672.92	584.58
673.26	580.55
673.60	576.58
673.94	572.78
674.28	569.19
674.62	565.45
674.96	561.61
675.30	558.05
675.64	554.33
675.97	550.68
676.31	546.96
676.65	543.31
676.99	539.79
677.33	535.89
677.67	532.17
678.01	528.23
678.34	524.56
678.68	520.98
679.02	517.33
679.36	513.56
679.70	509.89
680.04	506.33
680.37	502.85
680.71	499.49
681.05	496.20
681.39	492.82
681.73	489.55
682.06	486.48
682.40	483.36
682.74	480.13
683.08	476.85
683.42	473.63
683.75	470.54
684.09	467.49
684.43	464.62
684.77	461.67
685.10	458.81
685.44	455.83
685.78	452.87
686.12	450.08
686.45	447.31
686.79	444.62
687.13	442.03
687.46	439.47
687.80	436.77
688.14	433.87
688.48	431.19
688.81	428.46
689.15	425.84
689.49	423.16
689.82	420.59
690.16	417.97
690.50	415.50
690.83	412.96
691.17	410.36
691.51	407.84
691.84	405.52
692.18	403.30
692.52	401.06
692.85	398.94
693.19	396.77
693.52	394.61
693.86	392.34
694.20	390.08
694.53	387.87
694.87	385.67
695.21	383.56
695.54	381.38
695.88	379.21
696.21	376.96
696.55	374.81
696.88	372.71
697.22	370.72
697.56	368.80
697.89	366.93
698.23	365.17
698.56	363.40
698.90	361.65
699.23	359.73
699.57	357.85
699.90	355.89
700.24	354.05
700.58	352.28
700.91	350.60
701.25	349.03
701.58	347.36
701.92	345.75
702.25	344.11
702.59	342.48
702.92	340.96
703.26	339.41
703.59	337.91
703.93	336.61
704.26	335.18
704.60	333.67
704.93	332.17
705.26	330.65
705.60	329.13
705.93	327.55
706.27	326.18
706.60	324.85
706.94	323.63
707.27	322.18
707.61	320.77
707.94	319.41
708.27	317.88
708.61	316.42
708.94	315.04
709.28	313.72
709.61	312.47
709.94	311.22
710.28	309.96
710.61	308.77
710.95	307.32
711.28	306.19
711.61	305.00
711.95	303.84
712.28	302.66
712.61	301.45
712.95	300.44
713.28	299.39
713.61	298.27
713.95	297.06
714.28	296.11
714.61	295.09
714.95	294.07
715.28	293.06
715.61	292.02
715.95	291.07
716.28	290.10
716.61	289.10
716.95	288.10
717.28	287.18
717.61	286.26
717.94	285.37
718.28	284.32
718.61	283.44
718.94	282.53
719.27	281.73
719.61	280.92
719.94	280.04
720.27	279.09
720.60	278.20
720.94	277.42
721.27	276.58
721.60	275.85
721.93	275.10
722.27	274.49
722.60	273.86
722.93	273.11
723.26	272.45
723.59	271.77
723.93	271.16
724.26	270.49
724.59	269.83
724.92	269.24
725.25	268.68
725.59	268.08
725.92	267.52
726.25	266.87
726.58	266.30
726.91	265.69
727.24	265.15
727.57	264.64
727.91	264.02
728.24	263.50
728.57	262.91
728.90	262.41
729.23	261.76
729.56	261.32
729.89	260.77
730.22	260.17
730.55	259.64
730.89	259.07
731.22	258.56
731.55	258.00
731.88	257.47
732.21	256.91
732.54	256.39
732.87	255.85
733.20	255.39
733.53	254.92
733.86	254.45
734.19	253.93
734.52	253.48
734.85	253.21
735.18	252.76
735.51	252.38
735.84	251.91
736.17	251.49
736.50	250.93
736.83	250.78
737.16	250.40
737.49	250.01
737.82	249.61
738.15	249.23
738.48	248.84
738.81	248.45
739.14	248.07
739.47	247.69
739.80	247.32
740.13	246.96
740.46	246.56
740.79	246.16
741.12	245.81
741.45	245.41
741.78	244.95
742.11	244.63
742.44	244.22
742.77	243.88
743.10	243.52
743.43	243.17
743.75	242.56
744.08	242.50
744.41	242.14
744.74	241.79
745.07	241.38
745.40	241.11
745.73	240.86
746.06	240.55
746.39	240.21
746.71	239.87
747.04	239.50
747.37	239.19
747.70	238.92
748.03	238.59
748.36	238.33
748.68	238.04
749.01	237.70
749.34	237.44
749.67	237.20
750.00	236.93
750.33	236.79
750.65	236.57
750.98	236.03
751.31	235.82
751.64	235.58
751.97	235.46
752.29	235.21
752.62	234.86
752.95	234.58
753.28	234.32
753.60	234.07
753.93	233.91
754.26	233.66
754.59	233.40
754.91	233.17
755.24	232.92
755.57	232.68
755.90	232.45
756.22	232.16
756.55	231.88
756.88	231.62
757.20	231.25
757.53	230.98
757.86	230.77
758.19	230.57
758.51	230.39
758.84	230.08
759.17	229.83
759.49	229.67
759.82	229.60
760.15	229.44
760.47	229.28
760.80	229.01
761.13	228.86
761.45	228.66
761.78	228.51
762.11	228.31
762.43	228.13
762.76	227.94
763.08	227.79
763.41	227.65
763.74	227.54
764.06	227.41
764.39	227.25
764.71	227.09
765.04	226.91
765.37	226.73
765.69	226.56
766.02	226.44
766.34	226.26
766.67	226.03
767.00	225.93
767.32	225.91
767.65	225.93
767.97	225.80
768.30	225.67
768.62	225.55
768.95	225.42
769.27	225.30
769.60	225.18
769.92	225.05
770.25	224.90
770.57	224.69
770.90	224.58
771.22	224.46
771.55	224.33
771.87	224.24
772.20	224.08
772.52	224.18
772.85	224.30
773.17	224.18
773.50	224.08
773.82	223.93
774.15	223.72
774.47	223.46
774.80	223.34
775.12	223.21
775.45	223.08
775.77	223.00
776.09	222.93
776.42	222.84
776.74	222.83
777.07	222.72
777.39	222.67
777.72	222.58
778.04	222.53
778.36	222.44
778.69	222.39
779.01	222.36
779.33	222.10
779.66	221.79
779.98	221.71
780.31	221.62
780.63	221.62
780.95	221.57
781.28	221.53
781.60	221.42
781.92	221.38
782.25	221.30
782.57	221.24
782.89	221.13
783.22	221.06
783.54	220.94
783.86	220.91
784.19	220.81
784.51	220.78
784.83	220.68
785.16	220.61
785.48	220.54
785.80	220.48
786.12	220.45
786.45	220.40
786.77	220.34
787.09	220.29
787.42	220.14
787.74	220.10
788.06	220.04
788.38	220.00
788.71	219.92
789.03	219.87
789.35	219.85
789.67	219.76
789.99	219.73
790.32	219.65
790.64	219.63
790.96	219.73
791.28	219.62
791.61	219.59
791.93	219.55
792.25	219.46
792.57	219.57
792.89	219.46
793.21	219.41
793.54	219.37
793.86	219.31
794.18	219.30
794.50	219.20
794.82	219.16
795.14	219.13
795.47	219.17
795.79	219.12
796.11	219.02
796.43	219.02
796.75	218.99
797.07	218.97
797.39	218.92
797.71	218.76
798.04	218.75
798.36	218.71
798.68	218.67
799.00	218.67
799.32	218.50
799.64	218.50
799.96	218.46
800.28	218.44
800.60	218.41
800.92	218.38
801.24	218.34
801.56	218.33
801.89	218.29
802.21	218.24
802.53	218.17
802.85	218.18
803.17	218.21
803.49	218.15
803.81	218.10
804.13	218.06
804.45	218.01
804.77	217.99
805.09	217.94
805.41	217.90
805.73	217.83
806.05	217.76
806.37	217.75
806.69	217.71
807.01	217.67
807.33	217.64
807.65	217.56
807.97	217.64
808.28	217.57
808.60	217.53
808.92	217.46
809.24	217.58
809.56	217.54
809.88	217.45
810.20	217.39
810.52	217.42
810.84	217.34
811.16	217.31
811.48	217.26
811.80	217.30
812.12	217.28
812.43	217.26
812.75	217.24
813.07	217.17
813.39	217.16
813.71	217.12
814.03	217.04
814.35	216.99
814.67	216.88
814.98	216.84
815.30	216.81
815.62	216.78
815.94	216.62
816.26	216.61
816.58	216.54
816.89	216.55
817.21	216.46
817.53	216.44
817.85	216.40
818.17	216.36
818.48	216.29
818.80	216.31
819.12	216.27
819.44	216.24
819.76	216.19
820.07	216.18
820.39	216.14
820.71	216.17
821.03	216.19
821.34	216.14
821.66	216.20
821.98	216.18
822.30	216.14
822.61	216.24
822.93	216.18
823.25	216.18
823.57	216.12
823.88	216.15
824.20	216.15
824.52	216.20
824.83	216.18
825.15	216.10
825.47	216.07
825.79	216.11
826.10	216.07
826.42	216.08
826.74	216.08
827.05	216.04
827.37	216.01
827.69	215.96
828.00	215.97
828.32	215.92
828.64	215.89
828.95	216.02
829.27	215.94
829.58	215.94
829.90	215.95
830.22	215.98
830.53	215.90
830.85	215.85
831.17	215.79
831.48	215.74
831.80	215.77
832.11	215.74
832.43	215.67
832.75	215.63
833.06	215.75
833.38	215.70
833.69	215.71
834.01	215.71
834.32	215.72
834.64	215.70
834.96	215.68
835.27	215.68
835.59	215.57
835.90	215.53
836.22	215.52
836.53	215.49
836.85	215.47
837.16	215.71
837.48	215.74
837.79	215.78
838.11	215.81
838.42	215.78
838.74	215.80
839.05	215.79
839.37	215.81
839.68	215.66
840.00	215.64
840.31	215.65
840.63	215.61
840.94	215.59
841.26	215.54
841.57	215.55
841.88	215.55
842.20	215.54
842.51	215.50
842.83	215.48
843.14	215.69
843.46	215.65
843.77	215.51
844.08	215.50
844.40	215.45
844.71	215.43
845.03	215.42
845.34	215.40
845.65	215.39
845.97	215.37
846.28	215.41
846.60	215.40
846.91	215.37
847.22	215.40
847.54	215.45
847.85	215.45
848.16	215.41
848.48	215.37
848.79	215.43
849.10	215.48
849.42	215.49
849.73	215.22
850.04	215.23
850.36	215.14
850.67	215.17
850.98	215.17
851.30	215.23
851.61	215.24
851.92	215.22
852.23	215.31
852.55	215.35
852.86	215.35
853.17	215.39
853.49	215.45
853.80	215.47
854.11	215.46
854.42	215.49
854.74	215.50
855.05	215.48
855.36	215.38
855.67	215.37
855.99	215.38
856.30	215.66
856.61	215.63
856.92	215.63
857.23	215.60
857.55	215.58
857.86	215.55
858.17	215.55
858.48	215.51
858.79	215.43
859.11	215.45
859.42	215.43
859.73	215.37
860.04	215.38
860.35	215.31
860.66	215.26
860.98	215.26
861.29	215.26
861.60	215.23
861.91	215.28
862.22	215.24
862.53	215.21
862.84	214.98
863.16	215.06
863.47	215.00
863.78	214.98
864.09	214.99
864.40	214.97
864.71	214.97
865.02	214.99
865.33	214.97
865.64	214.92
865.95	214.92
866.27	215.04
866.58	214.97
866.89	214.97
867.20	214.96
867.51	214.93
867.82	214.92
868.13	215.03
868.44	214.99
868.75	215.03
869.06	215.03
869.37	215.05
869.68	214.96
869.99	215.01
870.30	215.03
870.61	215.03
870.92	215.04
871.23	215.03
871.54	215.06
871.85	215.12
872.16	215.14
872.47	215.12
872.78	215.02
873.09	215.07
873.40	215.05
873.71	215.05
874.02	215.06
874.33	215.04
874.64	214.96
874.95	214.99
875.26	214.93
875.56	214.93
875.87	214.90
876.18	214.91
876.49	215.11
876.80	215.07
877.11	215.03
877.42	215.04
877.73	215.02
878.04	214.98
878.35	214.95
878.66	214.94
878.96	214.92
879.27	214.89
879.58	214.86
879.89	214.89
880.20	214.94
880.51	214.91
880.82	214.90
881.12	214.90
881.43	214.86
881.74	214.81
882.05	214.80
882.36	214.82
882.67	214.82
882.97	214.58
883.28	214.58
883.59	214.55
883.90	214.54
884.21	214.61
884.51	214.62
884.82	214.60
885.13	214.61
885.44	214.62
885.74	214.57
886.05	214.55
886.36	214.55
886.67	214.45
886.98	214.61
887.28	214.65
887.59	214.65
887.90	214.65
888.20	214.66
888.51	214.70
888.82	214.67
889.13	214.69
889.43	214.89
889.74	214.85
890.05	214.88
890.35	214.86
890.66	214.80
890.97	214.77
891.28	214.77
891.58	214.76
891.89	214.77
892.20	214.78
892.50	214.77
892.81	214.75
893.12	214.77
893.42	214.65
893.73	214.66
894.04	214.66
894.34	214.68
894.65	214.67
894.95	214.63
895.26	214.62
895.57	214.70
895.87	214.46
896.18	214.51
896.48	214.50
896.79	214.52
897.10	214.57
897.40	214.59
897.71	214.59
898.01	214.61
898.32	214.62
898.63	214.65
898.93	214.67
899.24	214.69
899.54	214.68
899.85	214.66
900.15	214.61
900.46	214.62
900.76	214.63
901.07	214.64
901.38	214.68
901.68	214.70
901.99	214.61
902.29	214.66
902.60	214.67
902.90	214.67
903.21	214.63
903.51	214.56
903.82	214.59
904.12	214.61
904.43	214.60
904.73	214.59
905.03	214.58
905.34	214.75
905.64	214.72
905.95	214.76
906.25	214.76
906.56	214.79
906.86	214.82
907.17	214.80
907.47	214.82
907.77	214.76
908.08	214.74
908.38	214.76
908.69	214.76
908.99	214.80
909.30	214.80
909.60	214.79
909.90	214.81
910.21	214.78
910.51	214.74
910.81	214.71
911.12	214.73
911.42	214.72
911.73	214.53
912.03	214.52
912.33	214.53
912.64	214.52
912.94	214.46
913.24	214.41
913.55	214.40
913.85	214.39
914.15	214.44
914.46	214.46
914.76	214.45
915.06	214.46
915.37	214.43
915.67	214.43
915.97	214.45
916.27	214.41
916.58	214.43
916.88	214.40
917.18	214.39
917.49	214.53
917.79	214.51
918.09	214.56
918.39	214.63
918.70	214.60
919.00	214.61
919.30	214.72
919.60	214.72
919.91	214.70
920.21	214.71
920.51	214.66
920.81	214.66
921.12	214.68
921.42	214.63
921.72	214.63
922.02	214.64
922.32	214.67
922.63	214.69
922.93	214.76
923.23	214.77
923.53	214.77
923.83	214.66
924.13	214.69
924.44	214.64
924.74	214.68
925.04	214.77
925.34	214.80
925.64	214.71
925.94	214.70
926.24	214.82
926.55	214.81
926.85	214.83
927.15	214.81
927.45	214.78
927.75	214.79
928.05	214.79
928.35	214.76
928.65	214.79
928.95	214.78
929.26	214.72
929.56	214.77
929.86	214.81
930.16	214.76
930.46	214.75
930.76	214.77
931.06	214.64
931.36	214.56
931.66	214.57
931.96	214.59
932.26	214.59
932.56	214.49
932.86	214.53
933.16	214.53
933.46	214.52
933.76	214.54
934.06	214.57
934.36	214.63
934.66	214.63
934.96	214.61
935.26	214.65
935.56	214.68
935.86	214.64
936.16	214.59
936.46	214.61
936.76	214.62
937.06	214.60
937.36	214.66
937.66	214.66
937.96	214.63
938.26	214.60
938.56	214.64
938.86	214.65
939.16	214.65
939.46	214.72
939.76	214.75
940.06	214.78
940.35	214.74
940.65	214.67
940.95	214.71
941.25	214.64
941.55	214.58
941.85	214.55
942.15	214.59
942.45	214.60
942.75	214.57
943.04	214.59
943.34	214.61
943.64	214.58
943.94	214.55
944.24	214.57
944.54	214.59
944.84	214.57
945.13	214.59
945.43	214.56
945.73	214.46
946.03	214.43
946.33	214.37
946.62	214.34
946.92	214.31
947.22	214.31
947.52	214.36
947.82	214.43
948.11	214.40
948.41	214.35
948.71	214.35
949.01	214.38
949.31	214.37
949.60	214.39
949.90	214.42
950.20	214.43
950.50	214.43
950.79	214.40
951.09	214.39
951.39	214.36
951.69	214.34
951.98	214.44
952.28	214.43
952.58	214.44
952.87	214.45
953.17	214.50
953.47	214.48
953.76	214.46
954.06	214.42
954.36	214.41
954.66	214.41
954.95	214.45
955.25	214.43
955.55	214.42
955.84	214.37
956.14	214.34
956.44	214.34
956.73	214.27
957.03	214.28
957.32	214.31
957.62	214.29
957.92	214.33
958.21	214.32
958.51	214.57
958.81	214.62
959.10	214.66
959.40	214.69
959.69	214.67
959.99	214.71
960.29	214.70
960.58	214.67
960.88	214.75
961.17	214.72
961.47	214.74
961.76	214.72
962.06	214.76
962.36	214.75
962.65	214.79
962.95	214.83
963.24	214.81
963.54	214.81
963.83	214.83
964.13	214.82
964.42	214.71
964.72	214.55
965.01	214.52
965.31	214.47
965.60	214.41
965.90	214.52
966.19	214.48
966.49	214.50
966.78	214.51
967.08	214.50
967.37	214.52
967.67	214.49
967.96	214.52
968.26	214.53
968.55	214.58
968.85	214.56
969.14	214.54
969.43	214.53
969.73	214.52
970.02	214.51
970.32	214.50
970.61	214.52
970.91	214.45
971.20	214.46
971.49	214.46
971.79	214.50
972.08	214.36
972.38	214.38
972.67	214.35
972.96	214.41
973.26	214.35
973.55	214.37
973.85	214.36
974.14	214.33
974.43	214.31
974.73	214.25
975.02	214.22
975.31	214.22
975.61	214.22
975.90	214.18
976.19	214.18
976.49	214.19
976.78	214.19
977.07	214.20
977.37	214.17
977.66	214.20
977.95	214.17
978.24	214.20
978.54	214.25
978.83	214.23
979.12	214.17
979.42	214.20
979.71	214.21
980.00	214.19
980.29	214.20
980.59	214.17
980.88	214.23
981.17	214.25
981.46	214.24
981.76	214.26
982.05	214.34
982.34	214.33
982.63	214.33
982.93	214.35
983.22	214.38
983.51	214.39
983.80	214.42
984.09	214.46
984.39	214.46
984.68	214.43
984.97	214.47
985.26	214.48
985.55	214.48
985.85	214.42
986.14	214.48
986.43	214.49
986.72	214.50
987.01	214.43
987.30	214.43
987.59	214.42
987.89	214.43
988.18	214.40
988.47	214.39
988.76	214.38
989.05	214.36
989.34	214.34
989.63	214.39
989.92	214.35
990.22	214.30
990.51	214.30
990.80	214.27
991.09	214.26
991.38	214.29
991.67	214.29
991.96	214.27
992.25	214.27
992.54	214.25
992.83	214.26
993.12	214.25
993.41	214.26
993.70	214.35
993.99	214.39
994.28	214.40
994.58	214.43
994.87	214.42
995.16	214.43
995.45	214.42
995.74	214.36
996.03	214.39
996.32	214.44
996.61	214.46
996.90	214.48
997.19	214.46
997.48	214.46
997.77	214.44
998.06	214.47
998.34	214.44
998.63	214.41
998.92	214.42
999.21	214.46
999.50	214.44
999.79	214.40
1000.08	214.37
1000.37	214.34
1000.66	214.34
1000.95	214.38
1001.24	214.37
1001.53	214.38
1001.82	214.39
1002.11	214.34
1002.40	214.35
1002.68	214.41
1002.97	214.51
1003.26	214.51
1003.55	214.46
1003.84	214.48
1004.13	214.53
1004.42	214.54
1004.71	214.58
1004.99	214.57
1005.28	214.62
1005.57	214.61
1005.86	214.56
1006.15	214.55
1006.44	214.53
1006.72	214.55
1007.01	214.52
1007.30	214.51
1007.59	214.51
1007.88	214.47
1008.17	214.48
1008.45	214.44
1008.74	214.36
1009.03	214.27
1009.32	214.27
1009.60	214.28
1009.89	214.24
1010.18	214.13
1010.47	214.10
1010.76	214.07
1011.04	214.09
1011.33	214.09
1011.62	214.12
1011.91	214.13
1012.19	214.14
1012.48	214.15
1012.77	214.12
1013.05	214.21
1013.34	214.22
1013.63	214.22
1013.92	214.25
1014.20	214.22
1014.49	214.24
1014.78	214.26
1015.06	214.21
1015.35	214.18
1015.64	214.23
1015.92	214.30
1016.21	214.35
1016.50	214.38
1016.78	214.41
1017.07	214.39
1017.36	214.37
1017.64	214.31
1017.93	214.30
1018.22	214.29
1018.50	214.27
1018.79	214.28
1019.08	214.18
1019.36	214.19
1019.65	214.16
1019.93	214.20
1020.22	214.24
1020.51	214.33
1020.79	214.30
1021.08	213.89
1021.36	213.71
1021.65	214.26
1021.94	213.93
1022.22	214.45
1022.51	214.01
1022.79	214.82
1023.08	214.32
1023.36	216.47
1023.65	214.13
>>>>>End Processed Spectral Data<<<<<
