SpectraSuite Data File
++++++++++++++++++++++++++++++++++++
Date: Tue Jan 29 16:42:44 EST 2013
User: group
Dark Spectrum Present: No
Reference Spectrum Present: No
Number of Sampled Component Spectra: 1
Spectrometers: USB2E7196
Integration Time (usec): 65000 (USB2E7196)
Spectra Averaged: 100 (USB2E7196)
Boxcar Smoothing: 10 (USB2E7196)
Correct for Electrical Dark: No (USB2E7196)
Strobe/Lamp Enabled: No (USB2E7196)
Correct for Detector Non-linearity: No (USB2E7196)
Correct for Stray Light: No (USB2E7196)
Number of Pixels in Processed Spectrum: 2048
>>>>>Begin Processed Spectral Data<<<<<
339.09	0.00
339.48	202.01
339.86	202.99
340.24	204.75
340.63	205.88
341.01	210.74
341.39	209.03
341.78	210.46
342.16	211.62
342.54	211.83
342.93	200.96
343.31	211.09
343.69	211.62
344.07	212.08
344.46	212.51
344.84	212.91
345.22	213.09
345.60	213.31
345.99	213.51
346.37	213.62
346.75	213.76
347.13	213.82
347.52	213.91
347.90	214.06
348.28	214.08
348.66	214.16
349.05	214.11
349.43	214.17
349.81	214.21
350.19	214.26
350.57	214.31
350.96	214.40
351.34	214.48
351.72	214.54
352.10	214.65
352.48	214.71
352.87	214.74
353.25	214.78
353.63	214.87
354.01	214.91
354.39	215.03
354.77	215.06
355.15	215.22
355.54	215.24
355.92	215.23
356.30	215.30
356.68	215.50
357.06	215.60
357.44	215.63
357.82	215.70
358.20	215.78
358.58	215.88
358.97	215.95
359.35	216.08
359.73	216.21
360.11	216.26
360.49	216.33
360.87	216.42
361.25	216.49
361.63	216.61
362.01	216.66
362.39	216.68
362.77	216.74
363.15	216.76
363.53	216.84
363.91	216.87
364.29	216.92
364.67	216.74
365.05	216.76
365.43	216.84
365.81	216.90
366.19	217.01
366.57	217.08
366.95	217.09
367.33	217.05
367.71	217.07
368.09	217.12
368.47	217.12
368.85	217.10
369.23	217.16
369.61	217.07
369.99	217.14
370.37	217.13
370.75	217.20
371.13	217.15
371.51	217.07
371.89	217.09
372.27	217.08
372.65	217.09
373.03	217.09
373.41	217.02
373.78	216.97
374.16	216.81
374.54	216.74
374.92	216.67
375.30	216.61
375.68	216.51
376.06	216.47
376.44	216.45
376.82	216.41
377.19	216.33
377.57	216.29
377.95	216.19
378.33	216.15
378.71	215.99
379.09	215.97
379.47	215.95
379.84	215.86
380.22	215.81
380.60	215.74
380.98	215.69
381.36	215.65
381.73	215.60
382.11	215.60
382.49	215.54
382.87	215.50
383.25	215.49
383.62	215.70
384.00	215.63
384.38	215.59
384.76	215.61
385.13	215.66
385.51	215.63
385.89	215.60
386.27	215.56
386.64	215.56
387.02	215.54
387.40	215.51
387.78	215.52
388.15	215.46
388.53	215.46
388.91	215.41
389.29	215.35
389.66	215.36
390.04	215.31
390.42	215.35
390.79	215.34
391.17	215.29
391.55	215.05
391.92	215.04
392.30	215.06
392.68	215.00
393.05	214.96
393.43	214.96
393.81	214.93
394.18	214.89
394.56	214.92
394.94	214.98
395.31	214.98
395.69	215.04
396.06	215.06
396.44	215.07
396.82	215.11
397.19	215.24
397.57	215.23
397.95	215.30
398.32	215.28
398.70	215.31
399.07	215.43
399.45	215.43
399.82	215.49
400.20	215.51
400.58	215.57
400.95	215.57
401.33	215.68
401.70	215.92
402.08	216.04
402.45	216.11
402.83	216.22
403.20	216.36
403.58	216.45
403.95	216.65
404.33	216.81
404.71	216.95
405.08	217.20
405.46	217.36
405.83	217.57
406.21	217.76
406.58	218.02
406.96	218.23
407.33	218.53
407.70	218.84
408.08	219.30
408.45	219.65
408.83	220.07
409.20	220.39
409.58	220.66
409.95	221.13
410.33	221.61
410.70	222.03
411.08	222.56
411.45	223.11
411.82	223.68
412.20	224.36
412.57	225.19
412.95	225.77
413.32	226.63
413.69	227.45
414.07	228.37
414.44	229.35
414.82	230.37
415.19	231.58
415.56	232.74
415.94	233.93
416.31	235.34
416.68	236.75
417.06	238.40
417.43	239.97
417.81	241.73
418.18	243.51
418.55	245.44
418.93	247.51
419.30	249.62
419.67	251.84
420.04	254.15
420.42	256.54
420.79	259.40
421.16	262.20
421.54	265.08
421.91	268.09
422.28	271.25
422.66	274.54
423.03	277.81
423.40	281.21
423.77	284.79
424.15	288.46
424.52	292.29
424.89	296.46
425.26	300.57
425.64	304.46
426.01	308.79
426.38	313.30
426.75	317.83
427.13	322.58
427.50	327.57
427.87	332.79
428.24	338.01
428.61	342.98
428.99	348.50
429.36	354.55
429.73	360.48
430.10	366.33
430.47	372.43
430.85	378.76
431.22	385.48
431.59	392.62
431.96	399.49
432.33	407.04
432.70	414.29
433.08	422.87
433.45	430.98
433.82	439.00
434.19	447.89
434.56	456.58
434.93	464.94
435.30	473.23
435.68	482.43
436.05	491.43
436.42	500.39
436.79	508.55
437.16	517.37
437.53	526.65
437.90	535.88
438.27	544.88
438.64	554.11
439.01	562.66
439.38	570.26
439.75	577.62
440.13	586.03
440.50	594.06
440.87	600.45
441.24	607.07
441.61	614.48
441.98	619.88
442.35	626.31
442.72	632.71
443.09	638.78
443.46	642.50
443.83	645.05
444.20	647.24
444.57	650.45
444.94	651.89
445.31	653.43
445.68	654.73
446.05	655.37
446.42	654.57
446.79	653.63
447.16	652.60
447.53	651.79
447.90	648.47
448.27	645.14
448.64	640.53
449.01	637.25
449.37	631.30
449.74	625.61
450.11	618.68
450.48	611.26
450.85	603.83
451.22	597.29
451.59	591.19
451.96	585.33
452.33	577.43
452.70	570.36
453.07	561.80
453.43	553.23
453.80	544.87
454.17	536.87
454.54	529.29
454.91	521.01
455.28	513.03
455.65	505.52
456.02	498.02
456.38	491.60
456.75	483.67
457.12	477.04
457.49	470.49
457.86	464.32
458.23	458.88
458.59	452.91
458.96	446.88
459.33	441.48
459.70	436.09
460.07	431.79
460.43	426.83
460.80	422.18
461.17	418.14
461.54	413.95
461.91	409.92
462.27	405.84
462.64	402.47
463.01	398.67
463.38	395.00
463.74	391.28
464.11	388.01
464.48	385.14
464.85	382.07
465.21	379.63
465.58	376.96
465.95	373.82
466.32	371.18
466.68	368.64
467.05	366.02
467.42	363.46
467.78	360.77
468.15	358.21
468.52	356.32
468.88	353.84
469.25	351.61
469.62	349.77
469.98	347.77
470.35	345.93
470.72	344.19
471.08	342.36
471.45	340.84
471.82	339.33
472.18	337.63
472.55	336.38
472.92	335.01
473.28	333.75
473.65	332.55
474.02	331.43
474.38	330.50
474.75	329.70
475.11	328.88
475.48	328.31
475.85	327.84
476.21	327.34
476.58	326.98
476.94	326.75
477.31	326.46
477.67	326.15
478.04	326.00
478.41	325.98
478.77	326.20
479.14	326.13
479.50	326.27
479.87	326.58
480.23	326.92
480.60	327.12
480.96	327.40
481.33	328.03
481.69	328.58
482.06	329.09
482.42	329.63
482.79	330.23
483.15	330.97
483.52	331.91
483.88	332.79
484.25	333.73
484.61	334.73
484.98	335.77
485.34	337.09
485.71	338.44
486.07	339.87
486.44	341.18
486.80	342.81
487.17	344.47
487.53	346.34
487.90	348.20
488.26	350.27
488.62	352.43
488.99	354.45
489.35	356.62
489.72	358.99
490.08	361.52
490.44	364.05
490.81	366.74
491.17	369.40
491.54	372.35
491.90	375.35
492.26	378.62
492.63	382.05
492.99	385.57
493.36	389.25
493.72	393.14
494.08	397.16
494.45	401.39
494.81	405.75
495.17	410.14
495.54	414.87
495.90	419.68
496.26	424.59
496.63	429.80
496.99	435.29
497.35	440.83
497.72	446.62
498.08	452.57
498.44	458.73
498.80	465.25
499.17	471.83
499.53	478.55
499.89	485.47
500.26	492.39
500.62	499.49
500.98	506.89
501.34	514.32
501.71	522.05
502.07	529.88
502.43	537.92
502.79	546.13
503.16	554.57
503.52	563.15
503.88	571.90
504.24	580.91
504.60	589.95
504.97	599.22
505.33	608.53
505.69	618.39
506.05	628.29
506.41	638.11
506.78	648.15
507.14	658.40
507.50	668.78
507.86	679.54
508.22	690.30
508.59	700.93
508.95	712.05
509.31	723.34
509.67	734.77
510.03	746.17
510.39	757.92
510.75	769.63
511.12	781.55
511.48	793.62
511.84	805.85
512.20	818.12
512.56	830.82
512.92	843.65
513.28	856.43
513.64	869.18
514.00	882.09
514.37	895.12
514.73	908.28
515.09	921.38
515.45	934.33
515.81	947.50
516.17	961.05
516.53	974.32
516.89	987.39
517.25	1000.60
517.61	1014.25
517.97	1027.64
518.33	1040.93
518.69	1054.58
519.05	1068.32
519.41	1082.02
519.77	1096.02
520.13	1109.37
520.49	1122.57
520.85	1135.99
521.21	1149.31
521.57	1162.96
521.93	1176.00
522.29	1189.81
522.65	1203.44
523.01	1217.09
523.37	1230.33
523.73	1243.60
524.09	1256.98
524.45	1270.63
524.81	1284.27
525.17	1297.65
525.53	1310.97
525.89	1324.40
526.25	1337.59
526.61	1350.54
526.97	1363.68
527.33	1376.73
527.68	1390.30
528.04	1403.93
528.40	1417.06
528.76	1430.52
529.12	1443.49
529.48	1456.91
529.84	1469.20
530.20	1482.16
530.56	1494.84
530.91	1508.11
531.27	1521.00
531.63	1533.72
531.99	1546.45
532.35	1558.80
532.71	1571.31
533.07	1584.22
533.42	1596.58
533.78	1608.75
534.14	1620.93
534.50	1632.34
534.86	1643.99
535.21	1654.88
535.57	1666.44
535.93	1677.85
536.29	1689.07
536.65	1700.78
537.00	1711.89
537.36	1723.39
537.72	1734.40
538.08	1745.88
538.44	1757.07
538.79	1768.33
539.15	1779.43
539.51	1790.43
539.87	1801.63
540.22	1812.48
540.58	1823.50
540.94	1834.54
541.29	1844.90
541.65	1854.85
542.01	1865.42
542.37	1875.62
542.72	1885.83
543.08	1895.73
543.44	1906.30
543.79	1915.74
544.15	1925.32
544.51	1935.46
544.87	1945.50
545.22	1954.82
545.58	1963.80
545.94	1972.75
546.29	1981.36
546.65	1989.83
547.01	1998.11
547.36	2006.02
547.72	2013.84
548.07	2021.57
548.43	2029.32
548.79	2037.22
549.14	2045.33
549.50	2053.78
549.86	2061.73
550.21	2069.34
550.57	2077.20
550.92	2084.10
551.28	2091.69
551.64	2098.90
551.99	2106.36
552.35	2113.46
552.70	2120.42
553.06	2127.04
553.41	2133.34
553.77	2139.90
554.13	2146.20
554.48	2153.21
554.84	2160.36
555.19	2167.09
555.55	2173.53
555.90	2179.85
556.26	2186.73
556.61	2192.90
556.97	2197.74
557.32	2203.51
557.68	2209.91
558.03	2215.61
558.39	2221.02
558.74	2226.91
559.10	2232.41
559.45	2237.95
559.81	2243.68
560.16	2249.15
560.52	2255.14
560.87	2261.50
561.23	2267.46
561.58	2274.21
561.94	2279.48
562.29	2284.08
562.64	2290.01
563.00	2295.61
563.35	2301.04
563.71	2306.75
564.06	2312.46
564.42	2318.37
564.77	2323.39
565.12	2328.50
565.48	2333.49
565.83	2338.81
566.19	2344.03
566.54	2349.31
566.89	2353.88
567.25	2358.35
567.60	2363.96
567.96	2368.98
568.31	2373.51
568.66	2377.82
569.02	2381.65
569.37	2385.21
569.72	2389.50
570.08	2392.80
570.43	2395.96
570.78	2399.09
571.14	2401.49
571.49	2404.52
571.84	2408.07
572.20	2411.04
572.55	2413.98
572.90	2416.20
573.26	2418.98
573.61	2421.56
573.96	2423.68
574.31	2425.66
574.67	2427.39
575.02	2428.04
575.37	2429.44
575.72	2430.00
576.08	2431.23
576.43	2431.32
576.78	2431.67
577.13	2433.09
577.49	2434.34
577.84	2435.17
578.19	2436.31
578.54	2436.76
578.90	2437.15
579.25	2436.87
579.60	2436.40
579.95	2435.65
580.30	2435.54
580.66	2434.64
581.01	2432.72
581.36	2430.12
581.71	2428.46
582.06	2427.22
582.42	2426.32
582.77	2424.07
583.12	2422.24
583.47	2420.63
583.82	2419.74
584.17	2418.43
584.53	2416.22
584.88	2413.96
585.23	2411.93
585.58	2409.52
585.93	2407.44
586.28	2405.39
586.63	2402.77
586.98	2400.55
587.34	2398.25
587.69	2395.72
588.04	2393.41
588.39	2391.84
588.74	2389.27
589.09	2386.52
589.44	2383.17
589.79	2380.49
590.14	2378.09
590.49	2375.20
590.84	2371.13
591.19	2367.90
591.54	2364.47
591.89	2360.42
592.25	2357.06
592.60	2352.73
592.95	2348.30
593.30	2344.09
593.65	2339.44
594.00	2334.99
594.35	2331.75
594.70	2327.06
595.05	2322.48
595.40	2317.12
595.75	2311.30
596.10	2307.71
596.45	2302.77
596.80	2298.08
597.15	2292.78
597.50	2286.89
597.85	2281.93
598.19	2276.77
598.54	2270.91
598.89	2265.66
599.24	2260.89
599.59	2254.59
599.94	2248.65
600.29	2242.80
600.64	2236.83
600.99	2230.01
601.34	2224.38
601.69	2217.61
602.04	2211.34
602.39	2204.62
602.74	2198.38
603.08	2192.86
603.43	2186.16
603.78	2179.26
604.13	2172.24
604.48	2164.95
604.83	2158.95
605.18	2152.61
605.53	2145.63
605.87	2138.54
606.22	2131.75
606.57	2123.91
606.92	2116.00
607.27	2109.08
607.62	2102.46
607.96	2095.33
608.31	2088.84
608.66	2080.99
609.01	2073.14
609.36	2065.88
609.70	2058.20
610.05	2050.47
610.40	2042.15
610.75	2033.84
611.10	2026.11
611.44	2017.19
611.79	2008.52
612.14	1998.42
612.49	1987.73
612.83	1978.34
613.18	1969.09
613.53	1959.75
613.88	1950.11
614.22	1941.43
614.57	1931.58
614.92	1921.07
615.27	1910.92
615.61	1900.71
615.96	1891.27
616.31	1881.78
616.65	1872.35
617.00	1862.60
617.35	1852.92
617.70	1843.19
618.04	1833.29
618.39	1823.17
618.74	1813.57
619.08	1803.96
619.43	1795.28
619.78	1787.12
620.12	1778.67
620.47	1769.03
620.82	1758.73
621.16	1748.98
621.51	1739.14
621.85	1729.43
622.20	1719.02
622.55	1708.48
622.89	1698.61
623.24	1688.93
623.59	1679.19
623.93	1669.06
624.28	1659.37
624.62	1649.33
624.97	1639.16
625.32	1629.26
625.66	1620.34
626.01	1611.61
626.35	1602.20
626.70	1592.29
627.04	1582.24
627.39	1572.14
627.73	1562.91
628.08	1554.04
628.43	1544.65
628.77	1535.50
629.12	1526.58
629.46	1518.82
629.81	1510.53
630.15	1501.15
630.50	1491.29
630.84	1480.85
631.19	1471.09
631.53	1461.70
631.88	1451.62
632.22	1441.67
632.57	1432.41
632.91	1422.41
633.26	1412.52
633.60	1403.06
633.95	1393.72
634.29	1384.26
634.64	1375.00
634.98	1365.10
635.32	1355.82
635.67	1347.25
636.01	1337.96
636.36	1328.30
636.70	1318.82
637.05	1309.47
637.39	1300.61
637.73	1292.09
638.08	1284.58
638.42	1276.34
638.77	1267.68
639.11	1259.49
639.45	1251.69
639.80	1243.25
640.14	1234.48
640.49	1225.82
640.83	1216.95
641.17	1208.88
641.52	1200.78
641.86	1192.26
642.20	1184.47
642.55	1175.93
642.89	1167.20
643.23	1158.62
643.58	1150.39
643.92	1141.33
644.26	1132.62
644.61	1124.18
644.95	1115.38
645.29	1106.13
645.64	1097.02
645.98	1088.49
646.32	1080.60
646.66	1072.10
647.01	1063.77
647.35	1055.68
647.69	1047.36
648.04	1039.13
648.38	1030.33
648.72	1021.58
649.06	1013.08
649.41	1004.93
649.75	996.96
650.09	989.03
650.43	980.96
650.78	972.64
651.12	964.90
651.46	957.59
651.80	950.39
652.14	943.11
652.49	935.65
652.83	928.38
653.17	920.78
653.51	913.14
653.85	905.88
654.20	898.75
654.54	891.36
654.88	884.03
655.22	876.85
655.56	869.71
655.90	862.92
656.25	856.23
656.59	849.37
656.93	842.36
657.27	835.29
657.61	828.35
657.95	822.31
658.29	816.45
658.64	810.33
658.98	803.85
659.32	797.36
659.66	791.16
660.00	784.86
660.34	778.67
660.68	772.54
661.02	766.21
661.36	760.10
661.70	754.32
662.05	748.72
662.39	743.23
662.73	737.87
663.07	732.47
663.41	726.84
663.75	721.08
664.09	715.35
664.43	709.86
664.77	704.53
665.11	698.75
665.45	692.86
665.79	687.03
666.13	681.37
666.47	675.81
666.81	670.23
667.15	664.80
667.49	659.64
667.83	654.35
668.17	649.12
668.51	643.98
668.85	638.98
669.19	634.01
669.53	629.02
669.87	623.93
670.21	619.15
670.55	614.43
670.89	609.96
671.23	605.68
671.57	601.30
671.91	596.97
672.25	592.75
672.58	588.60
672.92	584.45
673.26	580.45
673.60	576.55
673.94	572.73
674.28	569.06
674.62	565.30
674.96	561.52
675.30	557.97
675.64	554.28
675.97	550.64
676.31	547.00
676.65	543.31
676.99	539.88
677.33	536.01
677.67	532.32
678.01	528.41
678.34	524.66
678.68	521.13
679.02	517.48
679.36	513.78
679.70	510.11
680.04	506.53
680.37	503.04
680.71	499.64
681.05	496.41
681.39	493.15
681.73	490.01
682.06	486.96
682.40	483.82
682.74	480.63
683.08	477.41
683.42	474.19
683.75	471.19
684.09	468.03
684.43	465.30
684.77	462.33
685.10	459.50
685.44	456.60
685.78	453.63
686.12	450.82
686.45	448.12
686.79	445.41
687.13	442.86
687.46	440.20
687.80	437.51
688.14	434.64
688.48	431.95
688.81	429.15
689.15	426.57
689.49	423.91
689.82	421.32
690.16	418.71
690.50	416.25
690.83	413.72
691.17	411.22
691.51	408.63
691.84	406.36
692.18	404.08
692.52	401.83
692.85	399.65
693.19	397.49
693.52	395.28
693.86	393.02
694.20	390.81
694.53	388.63
694.87	386.36
695.21	384.24
695.54	382.09
695.88	379.93
696.21	377.70
696.55	375.56
696.88	373.50
697.22	371.45
697.56	369.50
697.89	367.56
698.23	365.75
698.56	363.93
698.90	362.12
699.23	360.22
699.57	358.34
699.90	356.44
700.24	354.61
700.58	352.83
700.91	351.15
701.25	349.53
701.58	347.90
701.92	346.30
702.25	344.66
702.59	342.97
702.92	341.40
703.26	339.81
703.59	338.30
703.93	336.99
704.26	335.56
704.60	334.01
704.93	332.54
705.26	331.02
705.60	329.50
705.93	327.97
706.27	326.61
706.60	325.30
706.94	324.04
707.27	322.61
707.61	321.17
707.94	319.80
708.27	318.24
708.61	316.78
708.94	315.42
709.28	314.09
709.61	312.84
709.94	311.61
710.28	310.35
710.61	309.17
710.95	307.76
711.28	306.64
711.61	305.47
711.95	304.30
712.28	303.08
712.61	301.88
712.95	300.79
713.28	299.74
713.61	298.57
713.95	297.41
714.28	296.38
714.61	295.36
714.95	294.32
715.28	293.30
715.61	292.31
715.95	291.32
716.28	290.34
716.61	289.39
716.95	288.37
717.28	287.44
717.61	286.44
717.94	285.52
718.28	284.50
718.61	283.61
718.94	282.67
719.27	281.82
719.61	281.02
719.94	280.15
720.27	279.14
720.60	278.25
720.94	277.42
721.27	276.64
721.60	275.91
721.93	275.17
722.27	274.54
722.60	273.83
722.93	273.11
723.26	272.46
723.59	271.75
723.93	271.12
724.26	270.47
724.59	269.80
724.92	269.19
725.25	268.62
725.59	267.99
725.92	267.43
726.25	266.84
726.58	266.24
726.91	265.61
727.24	265.10
727.57	264.52
727.91	263.92
728.24	263.36
728.57	262.79
728.90	262.28
729.23	261.63
729.56	261.20
729.89	260.66
730.22	260.08
730.55	259.49
730.89	258.95
731.22	258.42
731.55	257.90
731.88	257.37
732.21	256.81
732.54	256.31
732.87	255.77
733.20	255.28
733.53	254.76
733.86	254.30
734.19	253.77
734.52	253.40
734.85	253.10
735.18	252.62
735.51	252.21
735.84	251.74
736.17	251.36
736.50	250.80
736.83	250.61
737.16	250.19
737.49	249.83
737.82	249.38
738.15	249.03
738.48	248.70
738.81	248.30
739.14	247.84
739.47	247.44
739.80	247.09
740.13	246.74
740.46	246.31
740.79	245.92
741.12	245.56
741.45	245.16
741.78	244.73
742.11	244.44
742.44	244.09
742.77	243.77
743.10	243.40
743.43	243.07
743.75	242.49
744.08	242.41
744.41	242.06
744.74	241.73
745.07	241.29
745.40	240.92
745.73	240.67
746.06	240.39
746.39	240.10
746.71	239.74
747.04	239.36
747.37	239.06
747.70	238.76
748.03	238.45
748.36	238.18
748.68	237.83
749.01	237.46
749.34	237.12
749.67	236.81
750.00	236.57
750.33	236.40
750.65	236.14
750.98	235.61
751.31	235.37
751.64	235.10
751.97	235.00
752.29	234.75
752.62	234.40
752.95	234.11
753.28	233.83
753.60	233.61
753.93	233.47
754.26	233.25
754.59	232.97
754.91	232.74
755.24	232.46
755.57	232.25
755.90	232.03
756.22	231.81
756.55	231.57
756.88	231.27
757.20	230.94
757.53	230.69
757.86	230.47
758.19	230.25
758.51	230.06
758.84	229.73
759.17	229.50
759.49	229.30
759.82	229.22
760.15	229.05
760.47	228.87
760.80	228.61
761.13	228.43
761.45	228.21
761.78	228.02
762.11	227.87
762.43	227.67
762.76	227.49
763.08	227.34
763.41	227.17
763.74	227.06
764.06	226.90
764.39	226.76
764.71	226.61
765.04	226.46
765.37	226.30
765.69	226.15
766.02	226.00
766.34	225.84
766.67	225.63
767.00	225.52
767.32	225.47
767.65	225.46
767.97	225.34
768.30	225.28
768.62	225.19
768.95	225.01
769.27	224.85
769.60	224.77
769.92	224.59
770.25	224.44
770.57	224.24
770.90	224.13
771.22	223.97
771.55	223.87
771.87	223.77
772.20	223.61
772.52	223.71
772.85	223.85
773.17	223.80
773.50	223.67
773.82	223.55
774.15	223.36
774.47	223.14
774.80	223.01
775.12	222.89
775.45	222.77
775.77	222.71
776.09	222.66
776.42	222.57
776.74	222.58
777.07	222.51
777.39	222.48
777.72	222.39
778.04	222.34
778.36	222.25
778.69	222.17
779.01	222.13
779.33	221.83
779.66	221.54
779.98	221.43
780.31	221.37
780.63	221.36
780.95	221.31
781.28	221.25
781.60	221.18
781.92	221.12
782.25	221.04
782.57	220.97
782.89	220.88
783.22	220.78
783.54	220.66
783.86	220.58
784.19	220.49
784.51	220.46
784.83	220.36
785.16	220.29
785.48	220.22
785.80	220.15
786.12	220.11
786.45	220.05
786.77	220.00
787.09	219.93
787.42	219.81
787.74	219.77
788.06	219.68
788.38	219.62
788.71	219.55
789.03	219.50
789.35	219.45
789.67	219.37
789.99	219.36
790.32	219.31
790.64	219.26
790.96	219.38
791.28	219.25
791.61	219.23
791.93	219.18
792.25	219.12
792.57	219.23
792.89	219.13
793.21	219.08
793.54	219.01
793.86	218.94
794.18	218.89
794.50	218.81
794.82	218.77
795.14	218.77
795.47	218.77
795.79	218.74
796.11	218.67
796.43	218.64
796.75	218.58
797.07	218.54
797.39	218.52
797.71	218.32
798.04	218.30
798.36	218.23
798.68	218.18
799.00	218.19
799.32	218.05
799.64	218.08
799.96	218.04
800.28	218.08
800.60	218.02
800.92	218.01
801.24	217.99
801.56	218.01
801.89	217.95
802.21	217.94
802.53	217.86
802.85	217.88
803.17	217.95
803.49	217.82
803.81	217.76
804.13	217.72
804.45	217.65
804.77	217.67
805.09	217.67
805.41	217.63
805.73	217.54
806.05	217.44
806.37	217.37
806.69	217.36
807.01	217.28
807.33	217.28
807.65	217.16
807.97	217.21
808.28	217.13
808.60	217.11
808.92	217.01
809.24	217.12
809.56	217.06
809.88	216.94
810.20	216.98
810.52	216.98
810.84	216.91
811.16	216.89
811.48	216.85
811.80	216.87
812.12	216.84
812.43	216.86
812.75	216.86
813.07	216.82
813.39	216.78
813.71	216.73
814.03	216.69
814.35	216.71
814.67	216.59
814.98	216.55
815.30	216.51
815.62	216.47
815.94	216.29
816.26	216.27
816.58	216.26
816.89	216.23
817.21	216.17
817.53	216.19
817.85	216.17
818.17	216.11
818.48	216.01
818.80	216.03
819.12	215.98
819.44	215.94
819.76	215.92
820.07	215.87
820.39	215.87
820.71	215.87
821.03	215.86
821.34	215.81
821.66	215.84
821.98	215.85
822.30	215.84
822.61	215.93
822.93	215.89
823.25	215.84
823.57	215.78
823.88	215.80
824.20	215.79
824.52	215.80
824.83	215.81
825.15	215.80
825.47	215.78
825.79	215.77
826.10	215.72
826.42	215.68
826.74	215.69
827.05	215.65
827.37	215.66
827.69	215.66
828.00	215.65
828.32	215.64
828.64	215.56
828.95	215.64
829.27	215.58
829.58	215.59
829.90	215.61
830.22	215.62
830.53	215.59
830.85	215.53
831.17	215.49
831.48	215.47
831.80	215.48
832.11	215.42
832.43	215.41
832.75	215.43
833.06	215.59
833.38	215.51
833.69	215.51
834.01	215.49
834.32	215.44
834.64	215.43
834.96	215.43
835.27	215.44
835.59	215.38
835.90	215.32
836.22	215.30
836.53	215.25
836.85	215.20
837.16	215.40
837.48	215.42
837.79	215.47
838.11	215.48
838.42	215.47
838.74	215.51
839.05	215.47
839.37	215.41
839.68	215.28
840.00	215.28
840.31	215.31
840.63	215.28
840.94	215.27
841.26	215.25
841.57	215.23
841.88	215.26
842.20	215.24
842.51	215.23
842.83	215.25
843.14	215.43
843.46	215.48
843.77	215.34
844.08	215.33
844.40	215.25
844.71	215.23
845.03	215.20
845.34	215.20
845.65	215.19
845.97	215.21
846.28	215.17
846.60	215.19
846.91	215.11
847.22	215.09
847.54	215.11
847.85	215.13
848.16	215.09
848.48	215.04
848.79	215.12
849.10	215.14
849.42	215.15
849.73	214.92
850.04	214.89
850.36	214.83
850.67	214.84
850.98	214.84
851.30	214.84
851.61	214.81
851.92	214.79
852.23	214.85
852.55	214.87
852.86	214.88
853.17	214.88
853.49	214.93
853.80	215.00
854.11	215.02
854.42	215.03
854.74	215.02
855.05	214.98
855.36	214.86
855.67	214.82
855.99	214.81
856.30	215.08
856.61	215.07
856.92	215.06
857.23	215.04
857.55	215.03
857.86	215.00
858.17	215.05
858.48	215.05
858.79	215.00
859.11	215.00
859.42	214.95
859.73	214.92
860.04	214.94
860.35	214.85
860.66	214.79
860.98	214.78
861.29	214.80
861.60	214.80
861.91	214.86
862.22	214.84
862.53	214.78
862.84	214.53
863.16	214.58
863.47	214.53
863.78	214.52
864.09	214.53
864.40	214.54
864.71	214.54
865.02	214.49
865.33	214.46
865.64	214.44
865.95	214.45
866.27	214.60
866.58	214.56
866.89	214.61
867.20	214.55
867.51	214.51
867.82	214.47
868.13	214.57
868.44	214.49
868.75	214.56
869.06	214.57
869.37	214.59
869.68	214.52
869.99	214.56
870.30	214.57
870.61	214.58
870.92	214.56
871.23	214.51
871.54	214.56
871.85	214.55
872.16	214.55
872.47	214.55
872.78	214.45
873.09	214.47
873.40	214.43
873.71	214.44
874.02	214.45
874.33	214.46
874.64	214.36
874.95	214.43
875.26	214.39
875.56	214.36
875.87	214.35
876.18	214.34
876.49	214.52
876.80	214.48
877.11	214.45
877.42	214.45
877.73	214.45
878.04	214.42
878.35	214.46
878.66	214.49
878.96	214.51
879.27	214.46
879.58	214.42
879.89	214.41
880.20	214.48
880.51	214.48
880.82	214.50
881.12	214.54
881.43	214.50
881.74	214.46
882.05	214.45
882.36	214.48
882.67	214.50
882.97	214.27
883.28	214.27
883.59	214.23
883.90	214.28
884.21	214.34
884.51	214.35
884.82	214.32
885.13	214.28
885.44	214.24
885.74	214.25
886.05	214.28
886.36	214.31
886.67	214.23
886.98	214.33
887.28	214.31
887.59	214.32
887.90	214.30
888.20	214.27
888.51	214.31
888.82	214.27
889.13	214.30
889.43	214.48
889.74	214.50
890.05	214.53
890.35	214.51
890.66	214.43
890.97	214.40
891.28	214.40
891.58	214.40
891.89	214.43
892.20	214.41
892.50	214.38
892.81	214.32
893.12	214.34
893.42	214.26
893.73	214.31
894.04	214.29
894.34	214.29
894.65	214.31
894.95	214.28
895.26	214.31
895.57	214.37
895.87	214.19
896.18	214.21
896.48	214.21
896.79	214.21
897.10	214.27
897.40	214.28
897.71	214.30
898.01	214.28
898.32	214.30
898.63	214.26
898.93	214.28
899.24	214.31
899.54	214.29
899.85	214.26
900.15	214.20
900.46	214.21
900.76	214.25
901.07	214.25
901.38	214.27
901.68	214.31
901.99	214.22
902.29	214.22
902.60	214.21
902.90	214.20
903.21	214.17
903.51	214.14
903.82	214.16
904.12	214.14
904.43	214.16
904.73	214.15
905.03	214.22
905.34	214.39
905.64	214.36
905.95	214.40
906.25	214.38
906.56	214.39
906.86	214.38
907.17	214.35
907.47	214.35
907.77	214.31
908.08	214.27
908.38	214.26
908.69	214.25
908.99	214.29
909.30	214.28
909.60	214.27
909.90	214.28
910.21	214.24
910.51	214.21
910.81	214.20
911.12	214.20
911.42	214.17
911.73	213.97
912.03	213.96
912.33	213.96
912.64	213.97
912.94	213.93
913.24	213.92
913.55	213.92
913.85	213.92
914.15	213.96
914.46	213.98
914.76	213.99
915.06	213.99
915.37	213.93
915.67	213.91
915.97	213.90
916.27	213.89
916.58	213.89
916.88	213.88
917.18	213.87
917.49	214.00
917.79	213.98
918.09	214.05
918.39	214.13
918.70	214.11
919.00	214.11
919.30	214.23
919.60	214.22
919.91	214.20
920.21	214.16
920.51	214.14
920.81	214.10
921.12	214.10
921.42	214.12
921.72	214.17
922.02	214.19
922.32	214.26
922.63	214.26
922.93	214.36
923.23	214.39
923.53	214.35
923.83	214.25
924.13	214.24
924.44	214.19
924.74	214.20
925.04	214.26
925.34	214.27
925.64	214.18
925.94	214.20
926.24	214.30
926.55	214.30
926.85	214.35
927.15	214.36
927.45	214.36
927.75	214.35
928.05	214.32
928.35	214.30
928.65	214.34
928.95	214.34
929.26	214.27
929.56	214.29
929.86	214.34
930.16	214.31
930.46	214.31
930.76	214.33
931.06	214.28
931.36	214.19
931.66	214.25
931.96	214.27
932.26	214.26
932.56	214.21
932.86	214.24
933.16	214.22
933.46	214.19
933.76	214.16
934.06	214.19
934.36	214.27
934.66	214.26
934.96	214.23
935.26	214.21
935.56	214.24
935.86	214.23
936.16	214.18
936.46	214.13
936.76	214.14
937.06	214.12
937.36	214.14
937.66	214.16
937.96	214.12
938.26	214.09
938.56	214.05
938.86	214.04
939.16	214.09
939.46	214.10
939.76	214.12
940.06	214.11
940.35	214.04
940.65	213.94
940.95	213.97
941.25	213.91
941.55	213.87
941.85	213.85
942.15	213.90
942.45	213.97
942.75	214.01
943.04	214.03
943.34	214.08
943.64	214.07
943.94	214.04
944.24	214.06
944.54	214.05
944.84	214.09
945.13	214.06
945.43	214.02
945.73	214.00
946.03	213.99
946.33	213.97
946.62	213.98
946.92	213.96
947.22	214.00
947.52	214.05
947.82	214.13
948.11	214.09
948.41	214.03
948.71	213.95
949.01	213.94
949.31	213.87
949.60	213.82
949.90	213.83
950.20	213.83
950.50	213.82
950.79	213.81
951.09	213.81
951.39	213.83
951.69	213.80
951.98	213.86
952.28	213.88
952.58	213.90
952.87	213.90
953.17	213.96
953.47	213.89
953.76	213.87
954.06	213.81
954.36	213.82
954.66	213.79
954.95	213.86
955.25	213.87
955.55	213.92
955.84	213.90
956.14	213.94
956.44	213.96
956.73	213.91
957.03	213.96
957.32	213.97
957.62	213.93
957.92	214.01
958.21	213.93
958.51	214.16
958.81	214.15
959.10	214.19
959.40	214.28
959.69	214.36
959.99	214.40
960.29	214.39
960.58	214.36
960.88	214.44
961.17	214.44
961.47	214.46
961.76	214.45
962.06	214.48
962.36	214.42
962.65	214.45
962.95	214.47
963.24	214.44
963.54	214.42
963.83	214.45
964.13	214.42
964.42	214.39
964.72	214.23
965.01	214.27
965.31	214.25
965.60	214.16
965.90	214.25
966.19	214.14
966.49	214.19
966.78	214.21
967.08	214.20
967.37	214.19
967.67	214.18
967.96	214.24
968.26	214.24
968.55	214.27
968.85	214.26
969.14	214.27
969.43	214.29
969.73	214.29
970.02	214.28
970.32	214.27
970.61	214.30
970.91	214.24
971.20	214.22
971.49	214.18
971.79	214.17
972.08	214.05
972.38	214.13
972.67	214.10
972.96	214.11
973.26	214.09
973.55	214.15
973.85	214.13
974.14	214.08
974.43	214.11
974.73	214.08
975.02	214.05
975.31	214.06
975.61	214.03
975.90	214.01
976.19	214.00
976.49	214.02
976.78	214.03
977.07	214.00
977.37	213.98
977.66	214.00
977.95	214.00
978.24	214.00
978.54	214.00
978.83	213.98
979.12	213.97
979.42	213.94
979.71	213.88
980.00	213.89
980.29	213.91
980.59	213.87
980.88	213.90
981.17	213.89
981.46	213.88
981.76	213.87
982.05	213.94
982.34	213.93
982.63	213.92
982.93	213.90
983.22	213.97
983.51	214.01
983.80	214.05
984.09	214.05
984.39	214.04
984.68	214.05
984.97	214.06
985.26	214.07
985.55	214.10
985.85	214.09
986.14	214.14
986.43	214.15
986.72	214.15
987.01	214.10
987.30	214.10
987.59	214.09
987.89	214.10
988.18	214.04
988.47	214.01
988.76	214.01
989.05	214.01
989.34	213.97
989.63	213.98
989.92	213.97
990.22	213.94
990.51	213.94
990.80	213.90
991.09	213.92
991.38	213.91
991.67	213.88
991.96	213.86
992.25	213.84
992.54	213.80
992.83	213.77
993.12	213.77
993.41	213.80
993.70	213.89
993.99	213.90
994.28	213.96
994.58	214.00
994.87	213.97
995.16	213.98
995.45	213.95
995.74	213.91
996.03	213.92
996.32	213.95
996.61	213.99
996.90	214.00
997.19	213.98
997.48	214.01
997.77	213.96
998.06	213.96
998.34	213.98
998.63	213.99
998.92	214.03
999.21	214.03
999.50	214.04
999.79	213.96
1000.08	213.96
1000.37	213.94
1000.66	213.92
1000.95	213.96
1001.24	213.95
1001.53	213.98
1001.82	213.95
1002.11	213.90
1002.40	213.92
1002.68	213.99
1002.97	214.13
1003.26	214.12
1003.55	214.07
1003.84	214.08
1004.13	214.19
1004.42	214.14
1004.71	214.13
1004.99	214.10
1005.28	214.19
1005.57	214.17
1005.86	214.17
1006.15	214.14
1006.44	214.13
1006.72	214.13
1007.01	214.10
1007.30	214.11
1007.59	214.11
1007.88	214.13
1008.17	214.12
1008.45	214.07
1008.74	213.97
1009.03	213.85
1009.32	213.82
1009.60	213.84
1009.89	213.87
1010.18	213.77
1010.47	213.75
1010.76	213.74
1011.04	213.73
1011.33	213.73
1011.62	213.75
1011.91	213.75
1012.19	213.76
1012.48	213.75
1012.77	213.77
1013.05	213.86
1013.34	213.86
1013.63	213.83
1013.92	213.84
1014.20	213.85
1014.49	213.89
1014.78	213.90
1015.06	213.85
1015.35	213.89
1015.64	213.90
1015.92	213.90
1016.21	213.89
1016.50	213.94
1016.78	213.95
1017.07	214.00
1017.36	213.90
1017.64	213.86
1017.93	213.88
1018.22	213.85
1018.50	213.87
1018.79	213.83
1019.08	213.72
1019.36	213.73
1019.65	213.72
1019.93	213.76
1020.22	213.81
1020.51	213.90
1020.79	213.87
1021.08	213.17
1021.36	213.94
1021.65	213.18
1021.94	213.47
1022.22	213.85
1022.51	213.50
1022.79	214.70
1023.08	214.66
1023.36	216.39
1023.65	213.05
>>>>>End Processed Spectral Data<<<<<
