SpectraSuite Data File
++++++++++++++++++++++++++++++++++++
Date: Tue Jan 29 16:40:57 EST 2013
User: group
Dark Spectrum Present: No
Reference Spectrum Present: No
Number of Sampled Component Spectra: 1
Spectrometers: USB2E7196
Integration Time (usec): 65000 (USB2E7196)
Spectra Averaged: 100 (USB2E7196)
Boxcar Smoothing: 10 (USB2E7196)
Correct for Electrical Dark: No (USB2E7196)
Strobe/Lamp Enabled: No (USB2E7196)
Correct for Detector Non-linearity: No (USB2E7196)
Correct for Stray Light: No (USB2E7196)
Number of Pixels in Processed Spectrum: 2048
>>>>>Begin Processed Spectral Data<<<<<
339.09	0.00
339.48	201.21
339.86	202.59
340.24	204.61
340.63	205.94
341.01	210.38
341.39	208.87
341.78	210.56
342.16	211.79
342.54	211.58
342.93	200.98
343.31	211.12
343.69	211.72
344.07	212.20
344.46	212.66
344.84	213.09
345.22	213.27
345.60	213.54
345.99	213.73
346.37	213.84
346.75	213.96
347.13	214.05
347.52	214.11
347.90	214.25
348.28	214.30
348.66	214.36
349.05	214.31
349.43	214.36
349.81	214.41
350.19	214.45
350.57	214.49
350.96	214.56
351.34	214.66
351.72	214.72
352.10	214.86
352.48	214.91
352.87	214.92
353.25	214.97
353.63	215.03
354.01	215.06
354.39	215.18
354.77	215.24
355.15	215.36
355.54	215.37
355.92	215.38
356.30	215.44
356.68	215.64
357.06	215.73
357.44	215.79
357.82	215.87
358.20	215.97
358.58	216.02
358.97	216.13
359.35	216.22
359.73	216.34
360.11	216.39
360.49	216.46
360.87	216.53
361.25	216.66
361.63	216.77
362.01	216.86
362.39	216.87
362.77	216.93
363.15	216.97
363.53	217.03
363.91	217.06
364.29	217.07
364.67	216.90
365.05	216.92
365.43	216.94
365.81	216.99
366.19	217.09
366.57	217.21
366.95	217.17
367.33	217.16
367.71	217.14
368.09	217.21
368.47	217.19
368.85	217.17
369.23	217.15
369.61	217.07
369.99	217.10
370.37	217.11
370.75	217.21
371.13	217.14
371.51	217.12
371.89	217.11
372.27	217.13
372.65	217.10
373.03	217.07
373.41	217.07
373.78	217.01
374.16	216.87
374.54	216.78
374.92	216.73
375.30	216.69
375.68	216.63
376.06	216.59
376.44	216.55
376.82	216.54
377.19	216.49
377.57	216.42
377.95	216.32
378.33	216.25
378.71	216.10
379.09	216.08
379.47	216.03
379.84	215.97
380.22	215.90
380.60	215.86
380.98	215.82
381.36	215.75
381.73	215.68
382.11	215.69
382.49	215.66
382.87	215.60
383.25	215.57
383.62	215.77
384.00	215.68
384.38	215.65
384.76	215.65
385.13	215.73
385.51	215.71
385.89	215.65
386.27	215.62
386.64	215.59
387.02	215.53
387.40	215.52
387.78	215.51
388.15	215.49
388.53	215.46
388.91	215.42
389.29	215.40
389.66	215.42
390.04	215.33
390.42	215.36
390.79	215.35
391.17	215.32
391.55	215.02
391.92	215.04
392.30	215.04
392.68	214.99
393.05	214.94
393.43	214.92
393.81	214.95
394.18	214.93
394.56	214.96
394.94	215.00
395.31	214.97
395.69	215.04
396.06	215.06
396.44	215.10
396.82	215.14
397.19	215.26
397.57	215.27
397.95	215.38
398.32	215.36
398.70	215.44
399.07	215.53
399.45	215.60
399.82	215.63
400.20	215.66
400.58	215.72
400.95	215.69
401.33	215.82
401.70	216.04
402.08	216.16
402.45	216.23
402.83	216.40
403.20	216.57
403.58	216.65
403.95	216.81
404.33	216.98
404.71	217.11
405.08	217.37
405.46	217.54
405.83	217.69
406.21	217.91
406.58	218.13
406.96	218.34
407.33	218.63
407.70	218.91
408.08	219.38
408.45	219.72
408.83	220.12
409.20	220.46
409.58	220.74
409.95	221.19
410.33	221.68
410.70	222.11
411.08	222.63
411.45	223.20
411.82	223.74
412.20	224.43
412.57	225.30
412.95	225.86
413.32	226.69
413.69	227.57
414.07	228.46
414.44	229.47
414.82	230.48
415.19	231.65
415.56	232.90
415.94	234.10
416.31	235.53
416.68	236.96
417.06	238.58
417.43	240.15
417.81	241.90
418.18	243.70
418.55	245.62
418.93	247.63
419.30	249.74
419.67	252.00
420.04	254.23
420.42	256.61
420.79	259.47
421.16	262.30
421.54	265.16
421.91	268.18
422.28	271.23
422.66	274.54
423.03	277.81
423.40	281.13
423.77	284.69
424.15	288.39
424.52	292.24
424.89	296.44
425.26	300.53
425.64	304.41
426.01	308.69
426.38	313.21
426.75	317.82
427.13	322.59
427.50	327.56
427.87	332.83
428.24	338.02
428.61	343.01
428.99	348.54
429.36	354.59
429.73	360.49
430.10	366.42
430.47	372.55
430.85	378.87
431.22	385.61
431.59	392.80
431.96	399.61
432.33	407.17
432.70	414.43
433.08	422.99
433.45	431.08
433.82	439.11
434.19	448.00
434.56	456.68
434.93	465.02
435.30	473.39
435.68	482.49
436.05	491.55
436.42	500.50
436.79	508.67
437.16	517.47
437.53	526.78
437.90	535.96
438.27	544.92
438.64	554.18
439.01	562.71
439.38	570.32
439.75	577.66
440.13	586.02
440.50	593.96
440.87	600.41
441.24	607.11
441.61	614.45
441.98	619.84
442.35	626.22
442.72	632.61
443.09	638.66
443.46	642.43
443.83	644.91
444.20	647.13
444.57	650.23
444.94	651.70
445.31	653.14
445.68	654.51
446.05	655.13
446.42	654.38
446.79	653.48
447.16	652.37
447.53	651.59
447.90	648.29
448.27	645.02
448.64	640.29
449.01	636.91
449.37	631.01
449.74	625.35
450.11	618.45
450.48	610.99
450.85	603.53
451.22	597.00
451.59	590.85
451.96	584.96
452.33	577.12
452.70	569.96
453.07	561.49
453.43	552.89
453.80	544.53
454.17	536.52
454.54	528.88
454.91	520.65
455.28	512.65
455.65	505.24
456.02	497.73
456.38	491.48
456.75	483.56
457.12	476.98
457.49	470.42
457.86	464.19
458.23	458.80
458.59	452.79
458.96	446.77
459.33	441.47
459.70	436.06
460.07	431.75
460.43	426.86
460.80	422.25
461.17	418.20
461.54	413.99
461.91	409.92
462.27	405.82
462.64	402.42
463.01	398.65
463.38	394.92
463.74	391.20
464.11	387.88
464.48	385.09
464.85	382.00
465.21	379.60
465.58	376.96
465.95	373.77
466.32	371.20
466.68	368.59
467.05	365.97
467.42	363.42
467.78	360.78
468.15	358.21
468.52	356.28
468.88	353.80
469.25	351.60
469.62	349.79
469.98	347.85
470.35	346.01
470.72	344.30
471.08	342.44
471.45	340.89
471.82	339.35
472.18	337.64
472.55	336.39
472.92	334.94
473.28	333.73
473.65	332.57
474.02	331.41
474.38	330.53
474.75	329.76
475.11	328.95
475.48	328.34
475.85	327.85
476.21	327.34
476.58	327.02
476.94	326.79
477.31	326.43
477.67	326.14
478.04	325.95
478.41	325.91
478.77	326.12
479.14	326.08
479.50	326.22
479.87	326.52
480.23	326.88
480.60	327.12
480.96	327.40
481.33	328.02
481.69	328.63
482.06	329.12
482.42	329.59
482.79	330.19
483.15	331.02
483.52	331.93
483.88	332.81
484.25	333.72
484.61	334.70
484.98	335.81
485.34	337.12
485.71	338.43
486.07	339.88
486.44	341.17
486.80	342.77
487.17	344.41
487.53	346.21
487.90	348.03
488.26	350.05
488.62	352.19
488.99	354.20
489.35	356.37
489.72	358.80
490.08	361.32
490.44	363.82
490.81	366.51
491.17	369.24
491.54	372.19
491.90	375.22
492.26	378.49
492.63	381.88
492.99	385.38
493.36	389.08
493.72	392.89
494.08	396.87
494.45	401.08
494.81	405.52
495.17	409.99
495.54	414.66
495.90	419.52
496.26	424.48
496.63	429.70
496.99	435.10
497.35	440.67
497.72	446.54
498.08	452.58
498.44	458.65
498.80	465.13
499.17	471.67
499.53	478.45
499.89	485.37
500.26	492.35
500.62	499.45
500.98	506.92
501.34	514.41
501.71	522.22
502.07	530.09
502.43	538.08
502.79	546.20
503.16	554.64
503.52	563.28
503.88	571.98
504.24	580.96
504.60	590.02
504.97	599.28
505.33	608.59
505.69	618.35
506.05	628.28
506.41	638.14
506.78	648.21
507.14	658.47
507.50	668.91
507.86	679.64
508.22	690.52
508.59	701.18
508.95	712.29
509.31	723.54
509.67	734.96
510.03	746.47
510.39	758.24
510.75	770.12
511.12	782.06
511.48	794.21
511.84	806.54
512.20	818.87
512.56	831.53
512.92	844.27
513.28	857.02
513.64	869.78
514.00	882.70
514.37	895.72
514.73	908.85
515.09	921.89
515.45	934.81
515.81	947.80
516.17	961.21
516.53	974.50
516.89	987.64
517.25	1000.88
517.61	1014.41
517.97	1027.85
518.33	1041.07
518.69	1054.59
519.05	1068.42
519.41	1082.06
519.77	1096.00
520.13	1109.31
520.49	1122.64
520.85	1136.17
521.21	1149.57
521.57	1163.23
521.93	1176.47
522.29	1190.29
522.65	1204.00
523.01	1217.73
523.37	1230.97
523.73	1244.47
524.09	1257.79
524.45	1271.41
524.81	1285.07
525.17	1298.48
525.53	1311.78
525.89	1325.08
526.25	1338.38
526.61	1351.34
526.97	1364.59
527.33	1377.75
527.68	1391.38
528.04	1404.98
528.40	1418.03
528.76	1431.54
529.12	1444.64
529.48	1457.99
529.84	1470.31
530.20	1483.17
530.56	1495.79
530.91	1509.24
531.27	1522.10
531.63	1534.86
531.99	1547.54
532.35	1559.82
532.71	1572.32
533.07	1585.37
533.42	1597.83
533.78	1609.90
534.14	1621.96
534.50	1633.24
534.86	1644.88
535.21	1655.82
535.57	1667.37
535.93	1678.84
536.29	1689.94
536.65	1701.44
537.00	1712.51
537.36	1724.02
537.72	1735.06
538.08	1746.73
538.44	1757.79
538.79	1768.96
539.15	1780.06
539.51	1791.01
539.87	1802.55
540.22	1813.51
540.58	1824.38
540.94	1835.32
541.29	1845.88
541.65	1855.79
542.01	1866.47
542.37	1876.55
542.72	1886.81
543.08	1896.72
543.44	1907.19
543.79	1916.63
544.15	1926.05
544.51	1936.10
544.87	1946.15
545.22	1955.49
545.58	1964.25
545.94	1973.07
546.29	1981.64
546.65	1990.08
547.01	1998.34
547.36	2006.00
547.72	2013.86
548.07	2021.55
548.43	2029.32
548.79	2037.21
549.14	2045.53
549.50	2054.04
549.86	2062.19
550.21	2069.67
550.57	2077.44
550.92	2084.28
551.28	2091.89
551.64	2099.15
551.99	2106.66
552.35	2113.93
552.70	2120.92
553.06	2127.67
553.41	2134.20
553.77	2140.88
554.13	2147.25
554.48	2154.42
554.84	2161.67
555.19	2168.22
555.55	2174.74
555.90	2181.19
556.26	2188.05
556.61	2193.98
556.97	2198.71
557.32	2204.34
557.68	2210.81
558.03	2216.56
558.39	2222.12
558.74	2227.94
559.10	2233.67
559.45	2239.23
559.81	2244.71
560.16	2250.18
560.52	2256.25
560.87	2262.60
561.23	2268.45
561.58	2275.12
561.94	2280.27
562.29	2284.87
562.64	2290.84
563.00	2296.61
563.35	2302.16
563.71	2307.83
564.06	2313.71
564.42	2319.73
564.77	2324.78
565.12	2330.01
565.48	2335.13
565.83	2340.54
566.19	2345.90
566.54	2351.26
566.89	2355.76
567.25	2360.37
567.60	2366.00
567.96	2370.86
568.31	2375.26
568.66	2379.44
569.02	2383.31
569.37	2387.13
569.72	2391.44
570.08	2395.03
570.43	2398.10
570.78	2401.08
571.14	2403.51
571.49	2406.40
571.84	2409.90
572.20	2412.77
572.55	2415.67
572.90	2417.87
573.26	2420.53
573.61	2423.15
573.96	2425.15
574.31	2427.26
574.67	2429.00
575.02	2429.66
575.37	2431.05
575.72	2431.72
576.08	2433.17
576.43	2433.17
576.78	2433.31
577.13	2434.85
577.49	2435.79
577.84	2436.67
578.19	2437.93
578.54	2438.36
578.90	2438.94
579.25	2438.79
579.60	2438.49
579.95	2437.68
580.30	2437.51
580.66	2436.74
581.01	2434.84
581.36	2432.30
581.71	2430.65
582.06	2429.36
582.42	2428.43
582.77	2426.00
583.12	2424.24
583.47	2422.69
583.82	2421.95
584.17	2420.62
584.53	2418.28
584.88	2416.09
585.23	2414.03
585.58	2411.65
585.93	2409.72
586.28	2407.50
586.63	2404.79
586.98	2402.52
587.34	2400.37
587.69	2397.97
588.04	2395.72
588.39	2394.26
588.74	2391.86
589.09	2389.02
589.44	2385.65
589.79	2383.01
590.14	2380.97
590.49	2377.98
590.84	2374.01
591.19	2370.82
591.54	2367.64
591.89	2363.51
592.25	2360.09
592.60	2355.68
592.95	2351.48
593.30	2347.07
593.65	2342.47
594.00	2338.02
594.35	2334.84
594.70	2330.22
595.05	2325.50
595.40	2319.90
595.75	2313.86
596.10	2310.08
596.45	2305.18
596.80	2300.44
597.15	2295.22
597.50	2289.26
597.85	2284.43
598.19	2279.13
598.54	2273.24
598.89	2267.89
599.24	2263.30
599.59	2257.23
599.94	2251.27
600.29	2245.22
600.64	2239.15
600.99	2232.39
601.34	2226.82
601.69	2219.97
602.04	2213.39
602.39	2206.72
602.74	2200.62
603.08	2195.12
603.43	2188.45
603.78	2181.56
604.13	2174.51
604.48	2167.27
604.83	2161.05
605.18	2154.71
605.53	2147.77
605.87	2140.72
606.22	2133.90
606.57	2125.97
606.92	2117.91
607.27	2111.05
607.62	2104.29
607.96	2097.39
608.31	2090.91
608.66	2083.11
609.01	2075.31
609.36	2068.19
609.70	2060.46
610.05	2052.74
610.40	2044.48
610.75	2036.24
611.10	2028.51
611.44	2019.58
611.79	2010.69
612.14	2000.79
612.49	1990.05
612.83	1980.68
613.18	1971.35
613.53	1962.05
613.88	1952.49
614.22	1943.76
614.57	1933.91
614.92	1923.39
615.27	1913.15
615.61	1902.95
615.96	1893.22
616.31	1883.59
616.65	1874.23
617.00	1864.56
617.35	1854.84
617.70	1845.10
618.04	1835.20
618.39	1825.02
618.74	1815.43
619.08	1805.88
619.43	1797.17
619.78	1788.98
620.12	1780.39
620.47	1770.88
620.82	1760.50
621.16	1750.59
621.51	1740.82
621.85	1730.98
622.20	1720.60
622.55	1710.07
622.89	1700.12
623.24	1690.30
623.59	1680.62
623.93	1670.41
624.28	1660.54
624.62	1650.49
624.97	1640.32
625.32	1630.37
625.66	1621.55
626.01	1612.88
626.35	1603.52
626.70	1593.52
627.04	1583.44
627.39	1573.40
627.73	1564.21
628.08	1555.44
628.43	1546.02
628.77	1536.93
629.12	1528.19
629.46	1520.41
629.81	1512.06
630.15	1502.71
630.50	1493.06
630.84	1482.59
631.19	1472.79
631.53	1463.58
631.88	1453.41
632.22	1443.36
632.57	1434.11
632.91	1424.07
633.26	1414.17
633.60	1404.66
633.95	1395.44
634.29	1385.97
634.64	1376.67
634.98	1366.61
635.32	1357.26
635.67	1348.71
636.01	1339.43
636.36	1329.59
636.70	1320.18
637.05	1310.84
637.39	1301.93
637.73	1293.31
638.08	1285.76
638.42	1277.68
638.77	1268.92
639.11	1260.78
639.45	1253.02
639.80	1244.47
640.14	1235.65
640.49	1226.85
640.83	1218.03
641.17	1209.85
641.52	1201.79
641.86	1193.23
642.20	1185.46
642.55	1176.77
642.89	1167.88
643.23	1159.11
643.58	1151.08
643.92	1141.96
644.26	1133.35
644.61	1124.95
644.95	1116.27
645.29	1107.13
645.64	1097.90
645.98	1089.50
646.32	1081.58
646.66	1073.06
647.01	1064.76
647.35	1056.70
647.69	1048.43
648.04	1040.19
648.38	1031.26
648.72	1022.53
649.06	1014.19
649.41	1005.99
649.75	998.10
650.09	990.35
650.43	982.34
650.78	973.96
651.12	966.25
651.46	958.72
651.80	951.42
652.14	944.12
652.49	936.61
652.83	929.30
653.17	921.58
653.51	913.95
653.85	906.63
654.20	899.38
654.54	891.93
654.88	884.66
655.22	877.46
655.56	870.53
655.90	863.73
656.25	856.92
656.59	849.96
656.93	842.93
657.27	835.76
657.61	828.79
657.95	822.69
658.29	816.76
658.64	810.69
658.98	804.26
659.32	797.70
659.66	791.40
660.00	784.98
660.34	778.86
660.68	772.71
661.02	766.40
661.36	760.37
661.70	754.49
662.05	748.82
662.39	743.34
662.73	737.90
663.07	732.46
663.41	726.86
663.75	721.21
664.09	715.45
664.43	709.96
664.77	704.59
665.11	698.75
665.45	692.83
665.79	687.04
666.13	681.24
666.47	675.66
666.81	670.19
667.15	664.83
667.49	659.56
667.83	654.36
668.17	649.11
668.51	643.96
668.85	639.00
669.19	634.07
669.53	628.94
669.87	623.78
670.21	619.04
670.55	614.26
670.89	609.75
671.23	605.50
671.57	601.13
671.91	596.84
672.25	592.67
672.58	588.54
672.92	584.47
673.26	580.54
673.60	576.66
673.94	572.91
674.28	569.28
674.62	565.60
674.96	561.70
675.30	558.17
675.64	554.58
675.97	551.00
676.31	547.40
676.65	543.77
676.99	540.40
677.33	536.50
677.67	532.85
678.01	528.96
678.34	525.30
678.68	521.76
679.02	518.06
679.36	514.31
679.70	510.62
680.04	506.98
680.37	503.53
680.71	500.23
681.05	496.94
681.39	493.60
681.73	490.37
682.06	487.41
682.40	484.28
682.74	480.97
683.08	477.65
683.42	474.39
683.75	471.36
684.09	468.24
684.43	465.35
684.77	462.42
685.10	459.57
685.44	456.61
685.78	453.60
686.12	450.86
686.45	448.12
686.79	445.41
687.13	442.83
687.46	440.17
687.80	437.43
688.14	434.53
688.48	431.89
688.81	429.13
689.15	426.46
689.49	423.80
689.82	421.29
690.16	418.72
690.50	416.24
690.83	413.76
691.17	411.16
691.51	408.68
691.84	406.34
692.18	404.08
692.52	401.85
692.85	399.73
693.19	397.54
693.52	395.38
693.86	393.11
694.20	390.87
694.53	388.70
694.87	386.50
695.21	384.32
695.54	382.12
695.88	379.95
696.21	377.72
696.55	375.56
696.88	373.46
697.22	371.45
697.56	369.52
697.89	367.59
698.23	365.84
698.56	364.02
698.90	362.21
699.23	360.21
699.57	358.27
699.90	356.37
700.24	354.52
700.58	352.77
700.91	351.11
701.25	349.50
701.58	347.82
701.92	346.19
702.25	344.60
702.59	342.97
702.92	341.41
703.26	339.87
703.59	338.38
703.93	337.09
704.26	335.62
704.60	334.04
704.93	332.52
705.26	330.94
705.60	329.46
705.93	327.92
706.27	326.57
706.60	325.28
706.94	324.03
707.27	322.64
707.61	321.22
707.94	319.85
708.27	318.36
708.61	316.92
708.94	315.52
709.28	314.17
709.61	312.87
709.94	311.64
710.28	310.40
710.61	309.19
710.95	307.72
711.28	306.62
711.61	305.45
711.95	304.31
712.28	303.14
712.61	301.95
712.95	300.88
713.28	299.87
713.61	298.73
713.95	297.56
714.28	296.51
714.61	295.44
714.95	294.38
715.28	293.34
715.61	292.29
715.95	291.32
716.28	290.38
716.61	289.44
716.95	288.42
717.28	287.46
717.61	286.45
717.94	285.58
718.28	284.55
718.61	283.66
718.94	282.75
719.27	281.89
719.61	281.02
719.94	280.15
720.27	279.18
720.60	278.28
720.94	277.47
721.27	276.71
721.60	276.02
721.93	275.28
722.27	274.61
722.60	273.98
722.93	273.22
723.26	272.50
723.59	271.79
723.93	271.15
724.26	270.47
724.59	269.82
724.92	269.20
725.25	268.66
725.59	268.08
725.92	267.54
726.25	266.97
726.58	266.42
726.91	265.80
727.24	265.26
727.57	264.72
727.91	264.06
728.24	263.49
728.57	262.88
728.90	262.33
729.23	261.69
729.56	261.19
729.89	260.67
730.22	260.14
730.55	259.56
730.89	259.02
731.22	258.51
731.55	258.00
731.88	257.47
732.21	256.92
732.54	256.37
732.87	255.83
733.20	255.29
733.53	254.82
733.86	254.37
734.19	253.85
734.52	253.41
734.85	253.16
735.18	252.66
735.51	252.27
735.84	251.84
736.17	251.49
736.50	250.98
736.83	250.84
737.16	250.42
737.49	250.03
737.82	249.60
738.15	249.21
738.48	248.80
738.81	248.37
739.14	247.93
739.47	247.55
739.80	247.13
740.13	246.78
740.46	246.35
740.79	245.91
741.12	245.54
741.45	245.14
741.78	244.67
742.11	244.37
742.44	243.95
742.77	243.64
743.10	243.25
743.43	242.89
743.75	242.28
744.08	242.20
744.41	241.82
744.74	241.46
745.07	241.08
745.40	240.79
745.73	240.58
746.06	240.27
746.39	239.96
746.71	239.64
747.04	239.28
747.37	238.95
747.70	238.70
748.03	238.43
748.36	238.19
748.68	237.86
749.01	237.52
749.34	237.26
749.67	236.97
750.00	236.70
750.33	236.57
750.65	236.31
750.98	235.77
751.31	235.55
751.64	235.31
751.97	235.19
752.29	234.93
752.62	234.54
752.95	234.25
753.28	233.96
753.60	233.72
753.93	233.56
754.26	233.35
754.59	233.06
754.91	232.78
755.24	232.53
755.57	232.29
755.90	232.04
756.22	231.79
756.55	231.51
756.88	231.25
757.20	230.90
757.53	230.60
757.86	230.37
758.19	230.16
758.51	229.97
758.84	229.65
759.17	229.43
759.49	229.29
759.82	229.21
760.15	229.04
760.47	228.86
760.80	228.60
761.13	228.47
761.45	228.27
761.78	228.12
762.11	227.91
762.43	227.74
762.76	227.59
763.08	227.43
763.41	227.31
763.74	227.14
764.06	227.00
764.39	226.88
764.71	226.76
765.04	226.58
765.37	226.42
765.69	226.29
766.02	226.15
766.34	226.01
766.67	225.78
767.00	225.68
767.32	225.64
767.65	225.63
767.97	225.47
768.30	225.36
768.62	225.23
768.95	225.08
769.27	224.96
769.60	224.88
769.92	224.73
770.25	224.57
770.57	224.42
770.90	224.29
771.22	224.15
771.55	224.05
771.87	223.95
772.20	223.80
772.52	223.85
772.85	223.99
773.17	223.89
773.50	223.79
773.82	223.67
774.15	223.46
774.47	223.27
774.80	223.13
775.12	223.03
775.45	222.92
775.77	222.86
776.09	222.78
776.42	222.68
776.74	222.66
777.07	222.54
777.39	222.48
777.72	222.36
778.04	222.32
778.36	222.24
778.69	222.15
779.01	222.12
779.33	221.85
779.66	221.51
779.98	221.37
780.31	221.29
780.63	221.28
780.95	221.25
781.28	221.15
781.60	221.08
781.92	220.99
782.25	220.95
782.57	220.85
782.89	220.75
783.22	220.65
783.54	220.53
783.86	220.48
784.19	220.39
784.51	220.39
784.83	220.30
785.16	220.21
785.48	220.17
785.80	220.09
786.12	220.03
786.45	219.97
786.77	219.94
787.09	219.90
787.42	219.78
787.74	219.71
788.06	219.66
788.38	219.59
788.71	219.54
789.03	219.47
789.35	219.46
789.67	219.40
789.99	219.35
790.32	219.25
790.64	219.22
790.96	219.33
791.28	219.21
791.61	219.13
791.93	219.09
792.25	219.00
792.57	219.10
792.89	219.03
793.21	218.99
793.54	218.94
793.86	218.86
794.18	218.80
794.50	218.70
794.82	218.63
795.14	218.59
795.47	218.58
795.79	218.55
796.11	218.42
796.43	218.35
796.75	218.31
797.07	218.30
797.39	218.24
797.71	218.09
798.04	218.09
798.36	218.05
798.68	217.98
799.00	217.98
799.32	217.85
799.64	217.86
799.96	217.84
800.28	217.84
800.60	217.81
800.92	217.82
801.24	217.81
801.56	217.81
801.89	217.80
802.21	217.77
802.53	217.67
802.85	217.75
803.17	217.87
803.49	217.79
803.81	217.77
804.13	217.73
804.45	217.66
804.77	217.64
805.09	217.65
805.41	217.62
805.73	217.56
806.05	217.48
806.37	217.43
806.69	217.36
807.01	217.34
807.33	217.33
807.65	217.22
807.97	217.28
808.28	217.24
808.60	217.23
808.92	217.16
809.24	217.29
809.56	217.19
809.88	217.07
810.20	217.06
810.52	217.06
810.84	217.01
811.16	216.98
811.48	216.94
811.80	216.97
812.12	216.92
812.43	216.94
812.75	216.93
813.07	216.89
813.39	216.90
813.71	216.83
814.03	216.77
814.35	216.75
814.67	216.64
814.98	216.60
815.30	216.56
815.62	216.53
815.94	216.36
816.26	216.38
816.58	216.31
816.89	216.32
817.21	216.25
817.53	216.24
817.85	216.21
818.17	216.17
818.48	216.05
818.80	216.10
819.12	216.03
819.44	215.96
819.76	215.92
820.07	215.86
820.39	215.83
820.71	215.85
821.03	215.84
821.34	215.79
821.66	215.83
821.98	215.81
822.30	215.76
822.61	215.88
822.93	215.81
823.25	215.81
823.57	215.75
823.88	215.78
824.20	215.77
824.52	215.80
824.83	215.76
825.15	215.76
825.47	215.72
825.79	215.73
826.10	215.72
826.42	215.71
826.74	215.75
827.05	215.74
827.37	215.74
827.69	215.72
828.00	215.75
828.32	215.74
828.64	215.69
828.95	215.82
829.27	215.74
829.58	215.75
829.90	215.77
830.22	215.79
830.53	215.73
830.85	215.69
831.17	215.63
831.48	215.64
831.80	215.61
832.11	215.58
832.43	215.52
832.75	215.49
833.06	215.59
833.38	215.51
833.69	215.52
834.01	215.51
834.32	215.49
834.64	215.44
834.96	215.42
835.27	215.40
835.59	215.31
835.90	215.24
836.22	215.20
836.53	215.15
836.85	215.12
837.16	215.31
837.48	215.30
837.79	215.36
838.11	215.35
838.42	215.36
838.74	215.40
839.05	215.43
839.37	215.45
839.68	215.31
840.00	215.30
840.31	215.29
840.63	215.27
840.94	215.23
841.26	215.23
841.57	215.20
841.88	215.23
842.20	215.19
842.51	215.19
842.83	215.20
843.14	215.40
843.46	215.43
843.77	215.30
844.08	215.29
844.40	215.21
844.71	215.19
845.03	215.16
845.34	215.11
845.65	215.07
845.97	215.07
846.28	215.07
846.60	215.11
846.91	215.09
847.22	215.04
847.54	215.08
847.85	215.09
848.16	215.08
848.48	215.00
848.79	215.09
849.10	215.12
849.42	215.12
849.73	214.91
850.04	214.90
850.36	214.82
850.67	214.88
850.98	214.92
851.30	214.92
851.61	214.91
851.92	214.88
852.23	214.95
852.55	214.96
852.86	214.95
853.17	214.95
853.49	214.97
853.80	215.04
854.11	215.06
854.42	215.08
854.74	215.06
855.05	215.07
855.36	214.96
855.67	214.96
855.99	214.97
856.30	215.21
856.61	215.17
856.92	215.20
857.23	215.16
857.55	215.09
857.86	215.09
858.17	215.12
858.48	215.15
858.79	215.11
859.11	215.09
859.42	215.13
859.73	215.10
860.04	215.04
860.35	214.97
860.66	214.91
860.98	214.91
861.29	214.96
861.60	214.96
861.91	215.01
862.22	214.98
862.53	214.93
862.84	214.68
863.16	214.71
863.47	214.67
863.78	214.66
864.09	214.69
864.40	214.71
864.71	214.73
865.02	214.71
865.33	214.68
865.64	214.65
865.95	214.64
866.27	214.78
866.58	214.79
866.89	214.82
867.20	214.83
867.51	214.78
867.82	214.74
868.13	214.79
868.44	214.73
868.75	214.76
869.06	214.75
869.37	214.78
869.68	214.71
869.99	214.77
870.30	214.78
870.61	214.78
870.92	214.72
871.23	214.69
871.54	214.72
871.85	214.73
872.16	214.75
872.47	214.74
872.78	214.58
873.09	214.60
873.40	214.60
873.71	214.62
874.02	214.61
874.33	214.59
874.64	214.56
874.95	214.62
875.26	214.58
875.56	214.58
875.87	214.60
876.18	214.59
876.49	214.76
876.80	214.71
877.11	214.71
877.42	214.71
877.73	214.70
878.04	214.68
878.35	214.69
878.66	214.69
878.96	214.69
879.27	214.68
879.58	214.65
879.89	214.62
880.20	214.65
880.51	214.62
880.82	214.62
881.12	214.62
881.43	214.52
881.74	214.50
882.05	214.47
882.36	214.45
882.67	214.50
882.97	214.28
883.28	214.28
883.59	214.26
883.90	214.30
884.21	214.29
884.51	214.27
884.82	214.25
885.13	214.24
885.44	214.21
885.74	214.21
886.05	214.22
886.36	214.21
886.67	214.12
886.98	214.25
887.28	214.27
887.59	214.27
887.90	214.27
888.20	214.26
888.51	214.31
888.82	214.26
889.13	214.22
889.43	214.38
889.74	214.36
890.05	214.34
890.35	214.30
890.66	214.29
890.97	214.29
891.28	214.25
891.58	214.27
891.89	214.27
892.20	214.25
892.50	214.20
892.81	214.17
893.12	214.20
893.42	214.11
893.73	214.13
894.04	214.11
894.34	214.17
894.65	214.17
894.95	214.14
895.26	214.16
895.57	214.25
895.87	214.04
896.18	214.08
896.48	214.11
896.79	214.13
897.10	214.18
897.40	214.19
897.71	214.21
898.01	214.19
898.32	214.21
898.63	214.21
898.93	214.25
899.24	214.28
899.54	214.26
899.85	214.21
900.15	214.17
900.46	214.22
900.76	214.21
901.07	214.19
901.38	214.14
901.68	214.20
901.99	214.12
902.29	214.15
902.60	214.14
902.90	214.10
903.21	214.10
903.51	214.07
903.82	214.12
904.12	214.13
904.43	214.13
904.73	214.13
905.03	214.14
905.34	214.35
905.64	214.36
905.95	214.34
906.25	214.37
906.56	214.39
906.86	214.35
907.17	214.34
907.47	214.36
907.77	214.39
908.08	214.34
908.38	214.35
908.69	214.38
908.99	214.40
909.30	214.43
909.60	214.43
909.90	214.42
910.21	214.37
910.51	214.36
910.81	214.36
911.12	214.38
911.42	214.38
911.73	214.16
912.03	214.17
912.33	214.23
912.64	214.23
912.94	214.18
913.24	214.17
913.55	214.15
913.85	214.13
914.15	214.16
914.46	214.22
914.76	214.19
915.06	214.20
915.37	214.18
915.67	214.19
915.97	214.20
916.27	214.14
916.58	214.15
916.88	214.13
917.18	214.13
917.49	214.27
917.79	214.26
918.09	214.28
918.39	214.31
918.70	214.28
919.00	214.27
919.30	214.40
919.60	214.37
919.91	214.37
920.21	214.41
920.51	214.38
920.81	214.36
921.12	214.39
921.42	214.33
921.72	214.35
922.02	214.36
922.32	214.35
922.63	214.38
922.93	214.48
923.23	214.52
923.53	214.50
923.83	214.35
924.13	214.38
924.44	214.39
924.74	214.42
925.04	214.49
925.34	214.48
925.64	214.40
925.94	214.39
926.24	214.49
926.55	214.48
926.85	214.49
927.15	214.48
927.45	214.47
927.75	214.48
928.05	214.47
928.35	214.45
928.65	214.49
928.95	214.52
929.26	214.39
929.56	214.40
929.86	214.42
930.16	214.42
930.46	214.41
930.76	214.41
931.06	214.32
931.36	214.26
931.66	214.29
931.96	214.30
932.26	214.32
932.56	214.23
932.86	214.24
933.16	214.23
933.46	214.22
933.76	214.19
934.06	214.25
934.36	214.33
934.66	214.34
934.96	214.29
935.26	214.30
935.56	214.37
935.86	214.30
936.16	214.29
936.46	214.25
936.76	214.21
937.06	214.18
937.36	214.20
937.66	214.18
937.96	214.17
938.26	214.10
938.56	214.07
938.86	214.09
939.16	214.11
939.46	214.12
939.76	214.14
940.06	214.12
940.35	214.10
940.65	213.98
940.95	213.99
941.25	213.96
941.55	213.94
941.85	213.91
942.15	213.96
942.45	214.05
942.75	214.04
943.04	214.06
943.34	214.11
943.64	214.10
943.94	214.12
944.24	214.14
944.54	214.17
944.84	214.18
945.13	214.13
945.43	214.11
945.73	214.10
946.03	214.08
946.33	214.07
946.62	214.02
946.92	214.02
947.22	214.02
947.52	214.02
947.82	214.05
948.11	214.04
948.41	213.99
948.71	213.91
949.01	213.92
949.31	213.90
949.60	213.90
949.90	213.89
950.20	213.88
950.50	213.83
950.79	213.81
951.09	213.83
951.39	213.84
951.69	213.81
951.98	213.86
952.28	213.84
952.58	213.84
952.87	213.84
953.17	213.86
953.47	213.86
953.76	213.87
954.06	213.83
954.36	213.80
954.66	213.78
954.95	213.86
955.25	213.88
955.55	213.93
955.84	213.87
956.14	213.91
956.44	213.92
956.73	213.91
957.03	213.95
957.32	213.99
957.62	214.00
957.92	214.06
958.21	213.97
958.51	214.23
958.81	214.27
959.10	214.30
959.40	214.37
959.69	214.35
959.99	214.36
960.29	214.39
960.58	214.37
960.88	214.44
961.17	214.40
961.47	214.43
961.76	214.39
962.06	214.42
962.36	214.41
962.65	214.42
962.95	214.41
963.24	214.38
963.54	214.34
963.83	214.33
964.13	214.32
964.42	214.31
964.72	214.14
965.01	214.13
965.31	214.11
965.60	214.06
965.90	214.19
966.19	214.14
966.49	214.13
966.78	214.15
967.08	214.14
967.37	214.15
967.67	214.10
967.96	214.14
968.26	214.14
968.55	214.16
968.85	214.15
969.14	214.17
969.43	214.16
969.73	214.15
970.02	214.14
970.32	214.10
970.61	214.12
970.91	214.07
971.20	214.07
971.49	214.08
971.79	214.05
972.08	213.90
972.38	213.92
972.67	213.94
972.96	213.94
973.26	213.90
973.55	213.96
973.85	213.98
974.14	213.93
974.43	213.96
974.73	213.92
975.02	213.89
975.31	213.87
975.61	213.87
975.90	213.85
976.19	213.83
976.49	213.85
976.78	213.86
977.07	213.85
977.37	213.84
977.66	213.83
977.95	213.84
978.24	213.85
978.54	213.88
978.83	213.82
979.12	213.81
979.42	213.79
979.71	213.75
980.00	213.74
980.29	213.77
980.59	213.71
980.88	213.77
981.17	213.76
981.46	213.76
981.76	213.75
982.05	213.82
982.34	213.87
982.63	213.89
982.93	213.89
983.22	213.93
983.51	213.94
983.80	213.95
984.09	213.98
984.39	213.98
984.68	213.98
984.97	214.02
985.26	214.02
985.55	214.04
985.85	213.98
986.14	214.01
986.43	214.04
986.72	214.02
987.01	213.95
987.30	213.96
987.59	213.96
987.89	213.97
988.18	213.93
988.47	213.88
988.76	213.85
989.05	213.87
989.34	213.83
989.63	213.86
989.92	213.81
990.22	213.81
990.51	213.81
990.80	213.76
991.09	213.77
991.38	213.82
991.67	213.79
991.96	213.79
992.25	213.79
992.54	213.74
992.83	213.73
993.12	213.73
993.41	213.76
993.70	213.85
993.99	213.89
994.28	213.90
994.58	213.98
994.87	213.94
995.16	213.91
995.45	213.87
995.74	213.81
996.03	213.87
996.32	213.89
996.61	213.96
996.90	213.98
997.19	213.96
997.48	213.96
997.77	213.96
998.06	213.98
998.34	213.93
998.63	213.93
998.92	213.96
999.21	213.95
999.50	213.97
999.79	213.89
1000.08	213.86
1000.37	213.88
1000.66	213.83
1000.95	213.91
1001.24	213.92
1001.53	213.94
1001.82	213.93
1002.11	213.91
1002.40	213.92
1002.68	213.91
1002.97	214.04
1003.26	213.99
1003.55	213.94
1003.84	213.95
1004.13	214.05
1004.42	214.04
1004.71	214.04
1004.99	214.02
1005.28	214.08
1005.57	214.05
1005.86	214.04
1006.15	214.04
1006.44	213.99
1006.72	214.01
1007.01	213.95
1007.30	213.97
1007.59	213.97
1007.88	213.98
1008.17	213.94
1008.45	213.89
1008.74	213.84
1009.03	213.75
1009.32	213.77
1009.60	213.78
1009.89	213.75
1010.18	213.62
1010.47	213.63
1010.76	213.61
1011.04	213.62
1011.33	213.68
1011.62	213.70
1011.91	213.71
1012.19	213.71
1012.48	213.74
1012.77	213.73
1013.05	213.84
1013.34	213.83
1013.63	213.78
1013.92	213.79
1014.20	213.84
1014.49	213.86
1014.78	213.85
1015.06	213.81
1015.35	213.79
1015.64	213.80
1015.92	213.84
1016.21	213.85
1016.50	213.84
1016.78	213.87
1017.07	213.89
1017.36	213.80
1017.64	213.78
1017.93	213.80
1018.22	213.79
1018.50	213.76
1018.79	213.77
1019.08	213.66
1019.36	213.69
1019.65	213.68
1019.93	213.74
1020.22	213.75
1020.51	213.85
1020.79	213.83
1021.08	213.71
1021.36	213.27
1021.65	213.98
1021.94	213.41
1022.22	214.40
1022.51	213.12
1022.79	214.83
1023.08	214.29
1023.36	216.06
1023.65	213.22
>>>>>End Processed Spectral Data<<<<<
