SpectraSuite Data File
++++++++++++++++++++++++++++++++++++
Date: Tue Jan 29 16:44:52 EST 2013
User: group
Dark Spectrum Present: No
Reference Spectrum Present: No
Number of Sampled Component Spectra: 1
Spectrometers: USB2E7196
Integration Time (usec): 65000 (USB2E7196)
Spectra Averaged: 100 (USB2E7196)
Boxcar Smoothing: 10 (USB2E7196)
Correct for Electrical Dark: No (USB2E7196)
Strobe/Lamp Enabled: No (USB2E7196)
Correct for Detector Non-linearity: No (USB2E7196)
Correct for Stray Light: No (USB2E7196)
Number of Pixels in Processed Spectrum: 2048
>>>>>Begin Processed Spectral Data<<<<<
339.09	0.00
339.48	202.29
339.86	202.68
340.24	204.31
340.63	205.83
341.01	210.66
341.39	208.45
341.78	209.84
342.16	211.23
342.54	211.37
342.93	200.81
343.31	210.97
343.69	211.48
344.07	211.95
344.46	212.39
344.84	212.80
345.22	212.94
345.60	213.23
345.99	213.41
346.37	213.57
346.75	213.72
347.13	213.81
347.52	213.92
347.90	214.07
348.28	214.13
348.66	214.21
349.05	214.19
349.43	214.24
349.81	214.34
350.19	214.39
350.57	214.46
350.96	214.55
351.34	214.66
351.72	214.76
352.10	214.91
352.48	215.00
352.87	215.04
353.25	215.13
353.63	215.18
354.01	215.26
354.39	215.33
354.77	215.40
355.15	215.53
355.54	215.56
355.92	215.55
356.30	215.62
356.68	215.80
357.06	215.87
357.44	215.89
357.82	215.97
358.20	216.04
358.58	216.10
358.97	216.17
359.35	216.27
359.73	216.38
360.11	216.43
360.49	216.51
360.87	216.57
361.25	216.64
361.63	216.75
362.01	216.82
362.39	216.83
362.77	216.90
363.15	216.92
363.53	216.99
363.91	216.99
364.29	217.01
364.67	216.86
365.05	216.92
365.43	217.00
365.81	217.02
366.19	217.13
366.57	217.23
366.95	217.21
367.33	217.14
367.71	217.11
368.09	217.12
368.47	217.11
368.85	217.09
369.23	217.13
369.61	217.03
369.99	217.08
370.37	217.12
370.75	217.18
371.13	217.11
371.51	217.04
371.89	217.07
372.27	217.04
372.65	217.01
373.03	216.99
373.41	216.91
373.78	216.86
374.16	216.72
374.54	216.60
374.92	216.55
375.30	216.52
375.68	216.47
376.06	216.44
376.44	216.41
376.82	216.39
377.19	216.33
377.57	216.32
377.95	216.21
378.33	216.11
378.71	215.93
379.09	215.93
379.47	215.93
379.84	215.89
380.22	215.86
380.60	215.77
380.98	215.71
381.36	215.68
381.73	215.60
382.11	215.57
382.49	215.55
382.87	215.48
383.25	215.44
383.62	215.61
384.00	215.53
384.38	215.48
384.76	215.46
385.13	215.51
385.51	215.44
385.89	215.38
386.27	215.40
386.64	215.43
387.02	215.34
387.40	215.29
387.78	215.23
388.15	215.23
388.53	215.21
388.91	215.16
389.29	215.10
389.66	215.13
390.04	215.08
390.42	215.10
390.79	215.13
391.17	215.11
391.55	214.91
391.92	214.89
392.30	214.92
392.68	214.89
393.05	214.87
393.43	214.90
393.81	214.90
394.18	214.85
394.56	214.86
394.94	214.95
395.31	214.93
395.69	215.02
396.06	215.06
396.44	215.10
396.82	215.12
397.19	215.26
397.57	215.24
397.95	215.30
398.32	215.28
398.70	215.30
399.07	215.39
399.45	215.41
399.82	215.48
400.20	215.51
400.58	215.58
400.95	215.55
401.33	215.62
401.70	215.87
402.08	215.94
402.45	216.00
402.83	216.13
403.20	216.26
403.58	216.34
403.95	216.47
404.33	216.63
404.71	216.77
405.08	217.03
405.46	217.20
405.83	217.41
406.21	217.60
406.58	217.86
406.96	218.10
407.33	218.40
407.70	218.66
408.08	219.12
408.45	219.49
408.83	219.89
409.20	220.24
409.58	220.49
409.95	220.98
410.33	221.48
410.70	221.92
411.08	222.49
411.45	223.10
411.82	223.70
412.20	224.40
412.57	225.22
412.95	225.79
413.32	226.65
413.69	227.50
414.07	228.43
414.44	229.40
414.82	230.41
415.19	231.57
415.56	232.78
415.94	233.95
416.31	235.33
416.68	236.74
417.06	238.34
417.43	239.93
417.81	241.66
418.18	243.46
418.55	245.39
418.93	247.44
419.30	249.53
419.67	251.74
420.04	254.05
420.42	256.46
420.79	259.32
421.16	262.10
421.54	265.00
421.91	268.02
422.28	271.17
422.66	274.51
423.03	277.78
423.40	281.18
423.77	284.86
424.15	288.53
424.52	292.46
424.89	296.69
425.26	300.81
425.64	304.76
426.01	309.03
426.38	313.55
426.75	318.13
427.13	322.89
427.50	327.90
427.87	333.10
428.24	338.34
428.61	343.37
428.99	348.93
429.36	355.02
429.73	360.93
430.10	366.77
430.47	372.85
430.85	379.15
431.22	385.86
431.59	392.97
431.96	399.82
432.33	407.29
432.70	414.53
433.08	423.08
433.45	431.17
433.82	439.29
434.19	448.23
434.56	456.98
434.93	465.32
435.30	473.61
435.68	482.75
436.05	491.78
436.42	500.72
436.79	508.87
437.16	517.62
437.53	526.93
437.90	536.09
438.27	545.12
438.64	554.44
439.01	563.03
439.38	570.67
439.75	578.02
440.13	586.46
440.50	594.45
440.87	600.91
441.24	607.55
441.61	614.86
441.98	620.24
442.35	626.55
442.72	632.95
443.09	639.09
443.46	642.88
443.83	645.36
444.20	647.52
444.57	650.71
444.94	652.21
445.31	653.68
445.68	655.15
446.05	655.70
446.42	654.88
446.79	653.92
447.16	652.87
447.53	652.13
447.90	648.78
448.27	645.54
448.64	640.88
449.01	637.59
449.37	631.75
449.74	626.05
450.11	619.09
450.48	611.69
450.85	604.17
451.22	597.72
451.59	591.62
451.96	585.82
452.33	577.92
452.70	570.75
453.07	562.24
453.43	553.55
453.80	545.30
454.17	537.32
454.54	529.74
454.91	521.44
455.28	513.43
455.65	505.99
456.02	498.42
456.38	492.02
456.75	484.08
457.12	477.46
457.49	470.87
457.86	464.72
458.23	459.32
458.59	453.37
458.96	447.31
459.33	441.94
459.70	436.52
460.07	432.24
460.43	427.34
460.80	422.69
461.17	418.66
461.54	414.43
461.91	410.37
462.27	406.20
462.64	402.76
463.01	398.96
463.38	395.30
463.74	391.56
464.11	388.30
464.48	385.51
464.85	382.36
465.21	379.93
465.58	377.28
465.95	374.09
466.32	371.42
466.68	368.76
467.05	366.16
467.42	363.61
467.78	360.91
468.15	358.34
468.52	356.42
468.88	353.94
469.25	351.70
469.62	349.83
469.98	347.92
470.35	346.10
470.72	344.37
471.08	342.52
471.45	341.01
471.82	339.43
472.18	337.66
472.55	336.47
472.92	335.06
473.28	333.77
473.65	332.60
474.02	331.51
474.38	330.66
474.75	329.89
475.11	329.05
475.48	328.45
475.85	327.96
476.21	327.45
476.58	327.05
476.94	326.80
477.31	326.52
477.67	326.25
478.04	326.07
478.41	326.02
478.77	326.14
479.14	326.09
479.50	326.24
479.87	326.56
480.23	326.88
480.60	327.12
480.96	327.45
481.33	328.04
481.69	328.59
482.06	329.09
482.42	329.57
482.79	330.15
483.15	330.94
483.52	331.86
483.88	332.76
484.25	333.71
484.61	334.73
484.98	335.78
485.34	337.06
485.71	338.44
486.07	339.85
486.44	341.19
486.80	342.80
487.17	344.49
487.53	346.37
487.90	348.21
488.26	350.28
488.62	352.41
488.99	354.46
489.35	356.64
489.72	359.03
490.08	361.55
490.44	364.09
490.81	366.82
491.17	369.54
491.54	372.56
491.90	375.65
492.26	378.89
492.63	382.30
492.99	385.80
493.36	389.52
493.72	393.42
494.08	397.45
494.45	401.64
494.81	406.02
495.17	410.40
495.54	415.12
495.90	419.91
496.26	424.86
496.63	430.06
496.99	435.47
497.35	441.04
497.72	446.86
498.08	452.82
498.44	458.90
498.80	465.36
499.17	471.78
499.53	478.48
499.89	485.34
500.26	492.33
500.62	499.44
500.98	506.75
501.34	514.20
501.71	521.99
502.07	529.80
502.43	537.74
502.79	545.93
503.16	554.29
503.52	562.86
503.88	571.55
504.24	580.48
504.60	589.54
504.97	598.77
505.33	608.07
505.69	617.92
506.05	627.76
506.41	637.58
506.78	647.71
507.14	657.89
507.50	668.32
507.86	679.02
508.22	689.82
508.59	700.49
508.95	711.52
509.31	722.75
509.67	734.24
510.03	745.64
510.39	757.36
510.75	769.19
511.12	781.12
511.48	793.26
511.84	805.61
512.20	817.93
512.56	830.60
512.92	843.42
513.28	856.09
513.64	868.80
514.00	881.82
514.37	894.76
514.73	907.98
515.09	921.07
515.45	934.02
515.81	947.02
516.17	960.49
516.53	973.83
516.89	986.93
517.25	1000.27
517.61	1013.87
517.97	1027.28
518.33	1040.54
518.69	1054.19
519.05	1067.99
519.41	1081.56
519.77	1095.54
520.13	1108.73
520.49	1121.89
520.85	1135.33
521.21	1148.87
521.57	1162.40
521.93	1175.59
522.29	1189.31
522.65	1202.98
523.01	1216.63
523.37	1229.97
523.73	1243.29
524.09	1256.51
524.45	1270.06
524.81	1283.48
525.17	1296.82
525.53	1310.08
525.89	1323.46
526.25	1336.64
526.61	1349.46
526.97	1362.76
527.33	1375.79
527.68	1389.52
528.04	1403.16
528.40	1416.35
528.76	1429.67
529.12	1442.73
529.48	1456.14
529.84	1468.44
530.20	1481.28
530.56	1494.01
530.91	1507.26
531.27	1520.17
531.63	1533.03
531.99	1545.90
532.35	1558.26
532.71	1570.86
533.07	1583.84
533.42	1596.07
533.78	1608.21
534.14	1620.37
534.50	1631.61
534.86	1643.21
535.21	1654.05
535.57	1665.62
535.93	1676.94
536.29	1688.08
536.65	1699.65
537.00	1710.75
537.36	1722.28
537.72	1733.42
538.08	1744.87
538.44	1755.89
538.79	1767.06
539.15	1778.09
539.51	1788.87
539.87	1800.24
540.22	1811.13
540.58	1822.21
540.94	1833.26
541.29	1843.51
541.65	1853.37
542.01	1864.05
542.37	1874.24
542.72	1884.47
543.08	1894.20
543.44	1904.83
543.79	1914.27
544.15	1923.90
544.51	1933.79
544.87	1943.80
545.22	1953.09
545.58	1962.12
545.94	1971.14
546.29	1979.74
546.65	1988.21
547.01	1996.62
547.36	2004.38
547.72	2012.16
548.07	2019.68
548.43	2027.60
548.79	2035.67
549.14	2043.78
549.50	2052.21
549.86	2060.10
550.21	2067.68
550.57	2075.60
550.92	2082.40
551.28	2089.95
551.64	2097.07
551.99	2104.64
552.35	2111.88
552.70	2118.78
553.06	2125.33
553.41	2131.52
553.77	2138.09
554.13	2144.42
554.48	2151.43
554.84	2158.64
555.19	2165.28
555.55	2171.90
555.90	2178.05
556.26	2184.96
556.61	2191.21
556.97	2196.05
557.32	2201.87
557.68	2208.37
558.03	2214.07
558.39	2219.60
558.74	2225.58
559.10	2231.15
559.45	2236.71
559.81	2242.16
560.16	2247.57
560.52	2253.54
560.87	2260.08
561.23	2265.91
561.58	2272.53
561.94	2277.60
562.29	2282.07
562.64	2287.97
563.00	2293.52
563.35	2299.13
563.71	2304.76
564.06	2310.31
564.42	2316.25
564.77	2321.34
565.12	2326.39
565.48	2331.42
565.83	2336.72
566.19	2342.03
566.54	2347.31
566.89	2351.87
567.25	2356.37
567.60	2362.10
567.96	2367.05
568.31	2371.65
568.66	2375.93
569.02	2379.80
569.37	2383.56
569.72	2387.97
570.08	2391.38
570.43	2394.47
570.78	2397.54
571.14	2399.82
571.49	2402.97
571.84	2406.31
572.20	2409.00
572.55	2412.03
572.90	2414.38
573.26	2416.98
573.61	2419.46
573.96	2421.55
574.31	2423.40
574.67	2425.19
575.02	2425.78
575.37	2427.16
575.72	2427.65
576.08	2428.96
576.43	2428.94
576.78	2429.16
577.13	2430.60
577.49	2431.78
577.84	2432.59
578.19	2433.76
578.54	2434.43
578.90	2434.89
579.25	2434.80
579.60	2434.74
579.95	2433.63
580.30	2433.43
580.66	2432.65
581.01	2430.73
581.36	2428.13
581.71	2426.69
582.06	2425.39
582.42	2424.43
582.77	2421.99
583.12	2420.14
583.47	2418.54
583.82	2417.75
584.17	2416.50
584.53	2414.34
584.88	2411.99
585.23	2409.98
585.58	2407.50
585.93	2405.46
586.28	2403.18
586.63	2400.51
586.98	2398.01
587.34	2395.98
587.69	2393.27
588.04	2391.09
588.39	2389.60
588.74	2387.01
589.09	2384.15
589.44	2380.86
589.79	2378.07
590.14	2376.04
590.49	2373.16
590.84	2369.20
591.19	2365.92
591.54	2362.57
591.89	2358.38
592.25	2355.11
592.60	2350.80
592.95	2346.48
593.30	2341.89
593.65	2337.44
594.00	2332.85
594.35	2329.80
594.70	2325.13
595.05	2320.77
595.40	2315.18
595.75	2309.31
596.10	2305.60
596.45	2300.74
596.80	2296.07
597.15	2291.03
597.50	2285.00
597.85	2279.87
598.19	2274.65
598.54	2268.78
598.89	2263.41
599.24	2258.77
599.59	2252.48
599.94	2246.55
600.29	2240.58
600.64	2234.59
600.99	2227.66
601.34	2222.14
601.69	2215.17
602.04	2208.65
602.39	2201.69
602.74	2195.57
603.08	2190.00
603.43	2183.56
603.78	2176.52
604.13	2169.39
604.48	2161.94
604.83	2155.77
605.18	2149.65
605.53	2142.73
605.87	2135.67
606.22	2128.87
606.57	2120.98
606.92	2113.00
607.27	2106.01
607.62	2099.26
607.96	2092.42
608.31	2085.97
608.66	2078.28
609.01	2070.66
609.36	2063.64
609.70	2056.04
610.05	2048.28
610.40	2039.90
610.75	2031.50
611.10	2023.86
611.44	2015.03
611.79	2006.41
612.14	1996.53
612.49	1985.86
612.83	1976.37
613.18	1967.19
613.53	1957.87
613.88	1948.14
614.22	1939.52
614.57	1929.70
614.92	1919.21
615.27	1909.00
615.61	1898.76
615.96	1888.96
616.31	1879.29
616.65	1869.83
617.00	1860.15
617.35	1850.45
617.70	1840.76
618.04	1830.70
618.39	1820.58
618.74	1810.90
619.08	1801.24
619.43	1792.50
619.78	1784.11
620.12	1775.64
620.47	1766.13
620.82	1755.85
621.16	1746.20
621.51	1736.41
621.85	1726.64
622.20	1716.40
622.55	1705.86
622.89	1696.11
623.24	1686.54
623.59	1676.82
623.93	1666.75
624.28	1657.07
624.62	1647.08
624.97	1636.98
625.32	1627.30
625.66	1618.56
626.01	1609.86
626.35	1600.58
626.70	1590.53
627.04	1580.62
627.39	1570.64
627.73	1561.37
628.08	1552.55
628.43	1543.08
628.77	1533.86
629.12	1525.12
629.46	1517.31
629.81	1509.07
630.15	1499.67
630.50	1489.88
630.84	1479.37
631.19	1469.52
631.53	1460.21
631.88	1450.08
632.22	1440.11
632.57	1430.76
632.91	1420.60
633.26	1410.85
633.60	1401.35
633.95	1392.23
634.29	1382.86
634.64	1373.56
634.98	1363.65
635.32	1354.40
635.67	1345.94
636.01	1336.68
636.36	1326.99
636.70	1317.52
637.05	1308.18
637.39	1299.23
637.73	1290.62
638.08	1283.23
638.42	1275.10
638.77	1266.36
639.11	1258.26
639.45	1250.40
639.80	1242.09
640.14	1233.42
640.49	1224.58
640.83	1215.66
641.17	1207.57
641.52	1199.47
641.86	1190.96
642.20	1183.12
642.55	1174.58
642.89	1165.71
643.23	1157.21
643.58	1149.13
643.92	1140.09
644.26	1131.45
644.61	1123.16
644.95	1114.49
645.29	1105.34
645.64	1096.20
645.98	1087.74
646.32	1079.95
646.66	1071.50
647.01	1063.19
647.35	1055.07
647.69	1046.83
648.04	1038.71
648.38	1029.87
648.72	1021.15
649.06	1012.77
649.41	1004.60
649.75	996.72
650.09	988.96
650.43	980.97
650.78	972.60
651.12	964.92
651.46	957.49
651.80	950.21
652.14	942.98
652.49	935.39
652.83	928.13
653.17	920.43
653.51	912.68
653.85	905.49
654.20	898.23
654.54	890.77
654.88	883.55
655.22	876.25
655.56	869.25
655.90	862.49
656.25	855.79
656.59	848.93
656.93	841.85
657.27	834.72
657.61	827.66
657.95	821.63
658.29	815.76
658.64	809.63
658.98	803.10
659.32	796.52
659.66	790.39
660.00	783.97
660.34	777.94
660.68	771.90
661.02	765.55
661.36	759.59
661.70	753.81
662.05	748.15
662.39	742.74
662.73	737.30
663.07	731.86
663.41	726.16
663.75	720.42
664.09	714.73
664.43	709.31
664.77	704.03
665.11	698.14
665.45	692.23
665.79	686.41
666.13	680.74
666.47	675.21
666.81	669.64
667.15	664.27
667.49	659.03
667.83	653.79
668.17	648.49
668.51	643.32
668.85	638.46
669.19	633.56
669.53	628.57
669.87	623.42
670.21	618.65
670.55	613.92
670.89	609.48
671.23	605.17
671.57	600.73
671.91	596.39
672.25	592.32
672.58	588.18
672.92	584.12
673.26	580.22
673.60	576.41
673.94	572.58
674.28	568.98
674.62	565.26
674.96	561.40
675.30	557.92
675.64	554.24
675.97	550.58
676.31	546.91
676.65	543.27
676.99	539.86
677.33	535.98
677.67	532.37
678.01	528.52
678.34	524.85
678.68	521.31
679.02	517.70
679.36	513.91
679.70	510.25
680.04	506.61
680.37	503.07
680.71	499.65
681.05	496.44
681.39	493.11
681.73	489.89
682.06	486.86
682.40	483.72
682.74	480.49
683.08	477.27
683.42	474.05
683.75	471.02
684.09	467.92
684.43	465.16
684.77	462.21
685.10	459.30
685.44	456.34
685.78	453.38
686.12	450.57
686.45	447.82
686.79	445.10
687.13	442.56
687.46	439.98
687.80	437.25
688.14	434.38
688.48	431.69
688.81	428.97
689.15	426.39
689.49	423.75
689.82	421.18
690.16	418.52
690.50	416.04
690.83	413.48
691.17	410.89
691.51	408.30
691.84	405.97
692.18	403.75
692.52	401.49
692.85	399.40
693.19	397.20
693.52	395.06
693.86	392.84
694.20	390.65
694.53	388.44
694.87	386.26
695.21	384.12
695.54	382.00
695.88	379.85
696.21	377.61
696.55	375.42
696.88	373.30
697.22	371.29
697.56	369.36
697.89	367.47
698.23	365.72
698.56	363.93
698.90	362.14
699.23	360.20
699.57	358.34
699.90	356.37
700.24	354.57
700.58	352.80
700.91	351.07
701.25	349.45
701.58	347.80
701.92	346.16
702.25	344.56
702.59	342.91
702.92	341.34
703.26	339.73
703.59	338.30
703.93	337.07
704.26	335.59
704.60	334.07
704.93	332.57
705.26	331.04
705.60	329.55
705.93	328.04
706.27	326.70
706.60	325.41
706.94	324.20
707.27	322.76
707.61	321.33
707.94	319.98
708.27	318.44
708.61	317.00
708.94	315.64
709.28	314.31
709.61	313.01
709.94	311.75
710.28	310.53
710.61	309.35
710.95	307.89
711.28	306.82
711.61	305.63
711.95	304.48
712.28	303.26
712.61	302.04
712.95	300.94
713.28	299.89
713.61	298.74
713.95	297.52
714.28	296.51
714.61	295.44
714.95	294.40
715.28	293.40
715.61	292.35
715.95	291.37
716.28	290.41
716.61	289.44
716.95	288.43
717.28	287.51
717.61	286.48
717.94	285.55
718.28	284.52
718.61	283.62
718.94	282.74
719.27	281.89
719.61	281.07
719.94	280.16
720.27	279.19
720.60	278.29
720.94	277.47
721.27	276.72
721.60	276.02
721.93	275.28
722.27	274.59
722.60	273.92
722.93	273.18
723.26	272.49
723.59	271.77
723.93	271.09
724.26	270.42
724.59	269.75
724.92	269.14
725.25	268.58
725.59	267.99
725.92	267.43
726.25	266.84
726.58	266.29
726.91	265.69
727.24	265.16
727.57	264.57
727.91	263.95
728.24	263.36
728.57	262.75
728.90	262.22
729.23	261.63
729.56	261.15
729.89	260.59
730.22	260.02
730.55	259.52
730.89	259.01
731.22	258.47
731.55	257.98
731.88	257.42
732.21	256.84
732.54	256.24
732.87	255.68
733.20	255.17
733.53	254.66
733.86	254.21
734.19	253.68
734.52	253.28
734.85	253.02
735.18	252.55
735.51	252.18
735.84	251.70
736.17	251.31
736.50	250.82
736.83	250.68
737.16	250.28
737.49	249.88
737.82	249.45
738.15	249.03
738.48	248.64
738.81	248.27
739.14	247.90
739.47	247.54
739.80	247.17
740.13	246.79
740.46	246.38
740.79	245.98
741.12	245.64
741.45	245.23
741.78	244.75
742.11	244.46
742.44	244.04
742.77	243.75
743.10	243.38
743.43	243.00
743.75	242.38
744.08	242.33
744.41	241.94
744.74	241.62
745.07	241.28
745.40	240.98
745.73	240.72
746.06	240.37
746.39	240.03
746.71	239.70
747.04	239.37
747.37	239.06
747.70	238.76
748.03	238.44
748.36	238.18
748.68	237.86
749.01	237.51
749.34	237.21
749.67	236.90
750.00	236.65
750.33	236.52
750.65	236.27
750.98	235.71
751.31	235.52
751.64	235.27
751.97	235.17
752.29	234.87
752.62	234.51
752.95	234.26
753.28	234.02
753.60	233.78
753.93	233.57
754.26	233.35
754.59	233.10
754.91	232.85
755.24	232.59
755.57	232.35
755.90	232.12
756.22	231.91
756.55	231.66
756.88	231.39
757.20	231.02
757.53	230.78
757.86	230.60
758.19	230.32
758.51	230.10
758.84	229.76
759.17	229.55
759.49	229.40
759.82	229.30
760.15	229.16
760.47	228.98
760.80	228.76
761.13	228.61
761.45	228.38
761.78	228.19
762.11	228.01
762.43	227.89
762.76	227.69
763.08	227.53
763.41	227.39
763.74	227.25
764.06	227.09
764.39	226.90
764.71	226.73
765.04	226.63
765.37	226.46
765.69	226.33
766.02	226.19
766.34	226.03
766.67	225.78
767.00	225.64
767.32	225.62
767.65	225.59
767.97	225.44
768.30	225.33
768.62	225.21
768.95	225.06
769.27	224.88
769.60	224.80
769.92	224.66
770.25	224.49
770.57	224.31
770.90	224.22
771.22	224.08
771.55	223.97
771.87	223.83
772.20	223.73
772.52	223.82
772.85	223.93
773.17	223.81
773.50	223.71
773.82	223.58
774.15	223.36
774.47	223.14
774.80	223.03
775.12	222.93
775.45	222.80
775.77	222.72
776.09	222.62
776.42	222.51
776.74	222.48
777.07	222.38
777.39	222.30
777.72	222.20
778.04	222.18
778.36	222.06
778.69	222.01
779.01	221.93
779.33	221.62
779.66	221.33
779.98	221.23
780.31	221.17
780.63	221.17
780.95	221.14
781.28	221.05
781.60	220.99
781.92	220.91
782.25	220.87
782.57	220.81
782.89	220.73
783.22	220.65
783.54	220.54
783.86	220.46
784.19	220.41
784.51	220.38
784.83	220.27
785.16	220.20
785.48	220.10
785.80	220.03
786.12	219.99
786.45	219.91
786.77	219.90
787.09	219.80
787.42	219.65
787.74	219.57
788.06	219.56
788.38	219.45
788.71	219.39
789.03	219.33
789.35	219.27
789.67	219.22
789.99	219.22
790.32	219.16
790.64	219.15
790.96	219.25
791.28	219.15
791.61	219.11
791.93	219.06
792.25	219.02
792.57	219.16
792.89	219.04
793.21	219.02
793.54	218.96
793.86	218.94
794.18	218.89
794.50	218.84
794.82	218.77
795.14	218.77
795.47	218.77
795.79	218.74
796.11	218.66
796.43	218.63
796.75	218.55
797.07	218.48
797.39	218.42
797.71	218.22
798.04	218.22
798.36	218.20
798.68	218.17
799.00	218.13
799.32	217.95
799.64	218.01
799.96	217.96
800.28	217.95
800.60	217.88
800.92	217.88
801.24	217.84
801.56	217.83
801.89	217.77
802.21	217.75
802.53	217.69
802.85	217.71
803.17	217.78
803.49	217.72
803.81	217.68
804.13	217.65
804.45	217.62
804.77	217.59
805.09	217.54
805.41	217.47
805.73	217.42
806.05	217.34
806.37	217.26
806.69	217.24
807.01	217.18
807.33	217.19
807.65	217.06
807.97	217.15
808.28	217.09
808.60	217.04
808.92	216.97
809.24	217.07
809.56	216.98
809.88	216.88
810.20	216.84
810.52	216.85
810.84	216.77
811.16	216.73
811.48	216.66
811.80	216.71
812.12	216.68
812.43	216.70
812.75	216.68
813.07	216.62
813.39	216.59
813.71	216.51
814.03	216.47
814.35	216.50
814.67	216.39
814.98	216.37
815.30	216.37
815.62	216.31
815.94	216.14
816.26	216.12
816.58	216.06
816.89	216.08
817.21	216.04
817.53	216.05
817.85	216.04
818.17	216.04
818.48	215.95
818.80	215.99
819.12	215.90
819.44	215.89
819.76	215.87
820.07	215.88
820.39	215.85
820.71	215.84
821.03	215.81
821.34	215.76
821.66	215.78
821.98	215.80
822.30	215.80
822.61	215.93
822.93	215.91
823.25	215.90
823.57	215.85
823.88	215.87
824.20	215.86
824.52	215.88
824.83	215.86
825.15	215.83
825.47	215.80
825.79	215.81
826.10	215.80
826.42	215.77
826.74	215.75
827.05	215.76
827.37	215.76
827.69	215.73
828.00	215.69
828.32	215.67
828.64	215.60
828.95	215.68
829.27	215.58
829.58	215.60
829.90	215.62
830.22	215.62
830.53	215.58
830.85	215.55
831.17	215.48
831.48	215.46
831.80	215.46
832.11	215.40
832.43	215.38
832.75	215.31
833.06	215.45
833.38	215.36
833.69	215.34
834.01	215.34
834.32	215.32
834.64	215.31
834.96	215.29
835.27	215.32
835.59	215.25
835.90	215.23
836.22	215.19
836.53	215.11
836.85	215.09
837.16	215.28
837.48	215.28
837.79	215.34
838.11	215.35
838.42	215.34
838.74	215.39
839.05	215.34
839.37	215.37
839.68	215.23
840.00	215.26
840.31	215.26
840.63	215.22
840.94	215.19
841.26	215.20
841.57	215.15
841.88	215.14
842.20	215.10
842.51	215.08
842.83	215.09
843.14	215.29
843.46	215.29
843.77	215.15
844.08	215.14
844.40	215.09
844.71	215.03
845.03	214.97
845.34	214.96
845.65	214.98
845.97	214.93
846.28	214.93
846.60	214.94
846.91	214.93
847.22	214.92
847.54	214.97
847.85	214.94
848.16	214.97
848.48	214.93
848.79	215.01
849.10	214.99
849.42	214.99
849.73	214.81
850.04	214.79
850.36	214.74
850.67	214.73
850.98	214.70
851.30	214.73
851.61	214.74
851.92	214.72
852.23	214.81
852.55	214.81
852.86	214.82
853.17	214.81
853.49	214.82
853.80	214.86
854.11	214.88
854.42	214.93
854.74	214.89
855.05	214.91
855.36	214.79
855.67	214.81
855.99	214.77
856.30	215.01
856.61	215.01
856.92	214.98
857.23	214.97
857.55	214.95
857.86	214.95
858.17	214.98
858.48	214.93
858.79	214.84
859.11	214.91
859.42	214.88
859.73	214.85
860.04	214.84
860.35	214.79
860.66	214.68
860.98	214.64
861.29	214.67
861.60	214.64
861.91	214.69
862.22	214.67
862.53	214.63
862.84	214.38
863.16	214.43
863.47	214.39
863.78	214.41
864.09	214.41
864.40	214.41
864.71	214.41
865.02	214.42
865.33	214.42
865.64	214.34
865.95	214.34
866.27	214.49
866.58	214.44
866.89	214.47
867.20	214.51
867.51	214.48
867.82	214.46
868.13	214.51
868.44	214.45
868.75	214.47
869.06	214.48
869.37	214.49
869.68	214.43
869.99	214.46
870.30	214.47
870.61	214.52
870.92	214.49
871.23	214.47
871.54	214.52
871.85	214.56
872.16	214.59
872.47	214.61
872.78	214.48
873.09	214.53
873.40	214.48
873.71	214.49
874.02	214.54
874.33	214.52
874.64	214.49
874.95	214.57
875.26	214.56
875.56	214.59
875.87	214.57
876.18	214.57
876.49	214.79
876.80	214.76
877.11	214.70
877.42	214.70
877.73	214.71
878.04	214.65
878.35	214.64
878.66	214.62
878.96	214.54
879.27	214.53
879.58	214.54
879.89	214.55
880.20	214.62
880.51	214.60
880.82	214.61
881.12	214.62
881.43	214.53
881.74	214.49
882.05	214.46
882.36	214.49
882.67	214.50
882.97	214.29
883.28	214.27
883.59	214.25
883.90	214.29
884.21	214.31
884.51	214.33
884.82	214.30
885.13	214.32
885.44	214.37
885.74	214.36
886.05	214.33
886.36	214.30
886.67	214.22
886.98	214.31
887.28	214.32
887.59	214.32
887.90	214.33
888.20	214.33
888.51	214.37
888.82	214.33
889.13	214.29
889.43	214.43
889.74	214.45
890.05	214.45
890.35	214.42
890.66	214.41
890.97	214.38
891.28	214.38
891.58	214.37
891.89	214.37
892.20	214.34
892.50	214.32
892.81	214.33
893.12	214.30
893.42	214.19
893.73	214.17
894.04	214.17
894.34	214.18
894.65	214.17
894.95	214.13
895.26	214.13
895.57	214.23
895.87	214.08
896.18	214.07
896.48	214.08
896.79	214.08
897.10	214.08
897.40	214.10
897.71	214.13
898.01	214.13
898.32	214.13
898.63	214.17
898.93	214.18
899.24	214.21
899.54	214.21
899.85	214.21
900.15	214.22
900.46	214.22
900.76	214.23
901.07	214.22
901.38	214.23
901.68	214.24
901.99	214.16
902.29	214.17
902.60	214.18
902.90	214.19
903.21	214.19
903.51	214.17
903.82	214.23
904.12	214.20
904.43	214.19
904.73	214.19
905.03	214.18
905.34	214.41
905.64	214.35
905.95	214.37
906.25	214.35
906.56	214.32
906.86	214.32
907.17	214.32
907.47	214.33
907.77	214.33
908.08	214.31
908.38	214.32
908.69	214.34
908.99	214.36
909.30	214.37
909.60	214.36
909.90	214.38
910.21	214.29
910.51	214.26
910.81	214.28
911.12	214.29
911.42	214.27
911.73	214.03
912.03	214.05
912.33	214.09
912.64	214.10
912.94	214.10
913.24	214.05
913.55	214.01
913.85	214.00
914.15	214.05
914.46	214.10
914.76	214.10
915.06	214.07
915.37	214.03
915.67	214.03
915.97	214.04
916.27	213.99
916.58	214.05
916.88	214.05
917.18	214.03
917.49	214.16
917.79	214.18
918.09	214.25
918.39	214.31
918.70	214.32
919.00	214.31
919.30	214.43
919.60	214.40
919.91	214.40
920.21	214.39
920.51	214.32
920.81	214.30
921.12	214.33
921.42	214.34
921.72	214.37
922.02	214.34
922.32	214.35
922.63	214.37
922.93	214.46
923.23	214.48
923.53	214.45
923.83	214.32
924.13	214.34
924.44	214.31
924.74	214.36
925.04	214.40
925.34	214.42
925.64	214.33
925.94	214.35
926.24	214.47
926.55	214.49
926.85	214.53
927.15	214.51
927.45	214.47
927.75	214.46
928.05	214.45
928.35	214.44
928.65	214.51
928.95	214.50
929.26	214.40
929.56	214.44
929.86	214.48
930.16	214.44
930.46	214.40
930.76	214.40
931.06	214.26
931.36	214.18
931.66	214.22
931.96	214.23
932.26	214.24
932.56	214.18
932.86	214.16
933.16	214.15
933.46	214.11
933.76	214.08
934.06	214.12
934.36	214.19
934.66	214.18
934.96	214.15
935.26	214.13
935.56	214.13
935.86	214.07
936.16	214.05
936.46	214.04
936.76	214.04
937.06	214.00
937.36	214.04
937.66	214.03
937.96	213.99
938.26	213.96
938.56	213.93
938.86	213.94
939.16	214.00
939.46	214.01
939.76	214.04
940.06	214.05
940.35	214.02
940.65	213.94
940.95	213.95
941.25	213.87
941.55	213.86
941.85	213.86
942.15	213.90
942.45	213.96
942.75	214.01
943.04	214.01
943.34	214.04
943.64	214.01
943.94	213.98
944.24	213.98
944.54	213.99
944.84	214.01
945.13	213.95
945.43	213.89
945.73	213.91
946.03	213.91
946.33	213.88
946.62	213.86
946.92	213.83
947.22	213.85
947.52	213.88
947.82	213.92
948.11	213.90
948.41	213.85
948.71	213.78
949.01	213.74
949.31	213.70
949.60	213.70
949.90	213.78
950.20	213.77
950.50	213.77
950.79	213.78
951.09	213.79
951.39	213.82
951.69	213.82
951.98	213.84
952.28	213.83
952.58	213.88
952.87	213.88
953.17	213.97
953.47	213.94
953.76	213.94
954.06	213.89
954.36	213.87
954.66	213.89
954.95	213.96
955.25	213.98
955.55	214.03
955.84	213.99
956.14	213.96
956.44	214.01
956.73	213.98
957.03	213.96
957.32	213.98
957.62	213.96
957.92	214.02
958.21	213.99
958.51	214.22
958.81	214.24
959.10	214.25
959.40	214.25
959.69	214.25
959.99	214.28
960.29	214.31
960.58	214.32
960.88	214.40
961.17	214.38
961.47	214.40
961.76	214.37
962.06	214.43
962.36	214.42
962.65	214.42
962.95	214.45
963.24	214.42
963.54	214.42
963.83	214.44
964.13	214.42
964.42	214.38
964.72	214.19
965.01	214.17
965.31	214.15
965.60	214.08
965.90	214.23
966.19	214.20
966.49	214.22
966.78	214.20
967.08	214.16
967.37	214.14
967.67	214.09
967.96	214.13
968.26	214.10
968.55	214.15
968.85	214.12
969.14	214.09
969.43	214.11
969.73	214.08
970.02	214.07
970.32	214.04
970.61	214.04
970.91	214.00
971.20	213.97
971.49	213.95
971.79	214.02
972.08	213.86
972.38	213.85
972.67	213.80
972.96	213.86
973.26	213.83
973.55	213.91
973.85	213.94
974.14	213.92
974.43	213.92
974.73	213.88
975.02	213.87
975.31	213.88
975.61	213.89
975.90	213.88
976.19	213.87
976.49	213.89
976.78	213.91
977.07	213.91
977.37	213.91
977.66	213.93
977.95	213.86
978.24	213.92
978.54	213.97
978.83	214.00
979.12	213.96
979.42	213.97
979.71	213.95
980.00	213.91
980.29	213.92
980.59	213.91
980.88	213.98
981.17	213.99
981.46	213.99
981.76	213.97
982.05	214.07
982.34	214.07
982.63	214.05
982.93	214.08
983.22	214.16
983.51	214.18
983.80	214.21
984.09	214.24
984.39	214.16
984.68	214.16
984.97	214.15
985.26	214.15
985.55	214.17
985.85	214.12
986.14	214.15
986.43	214.19
986.72	214.17
987.01	214.06
987.30	214.04
987.59	214.03
987.89	214.03
988.18	213.92
988.47	213.89
988.76	213.84
989.05	213.80
989.34	213.73
989.63	213.78
989.92	213.72
990.22	213.71
990.51	213.73
990.80	213.68
991.09	213.70
991.38	213.76
991.67	213.71
991.96	213.68
992.25	213.72
992.54	213.67
992.83	213.67
993.12	213.67
993.41	213.72
993.70	213.78
993.99	213.82
994.28	213.85
994.58	213.89
994.87	213.88
995.16	213.88
995.45	213.89
995.74	213.83
996.03	213.91
996.32	213.95
996.61	213.99
996.90	214.00
997.19	213.98
997.48	213.96
997.77	213.94
998.06	213.93
998.34	213.92
998.63	213.92
998.92	213.95
999.21	213.99
999.50	214.00
999.79	213.94
1000.08	213.93
1000.37	213.96
1000.66	213.95
1000.95	214.04
1001.24	214.02
1001.53	214.05
1001.82	213.99
1002.11	213.89
1002.40	213.89
1002.68	213.95
1002.97	214.09
1003.26	214.06
1003.55	214.02
1003.84	214.05
1004.13	214.17
1004.42	214.15
1004.71	214.15
1004.99	214.08
1005.28	214.11
1005.57	214.09
1005.86	214.09
1006.15	214.09
1006.44	214.05
1006.72	214.06
1007.01	214.01
1007.30	214.05
1007.59	214.01
1007.88	214.03
1008.17	214.07
1008.45	214.07
1008.74	213.95
1009.03	213.87
1009.32	213.88
1009.60	213.90
1009.89	213.86
1010.18	213.73
1010.47	213.73
1010.76	213.70
1011.04	213.73
1011.33	213.74
1011.62	213.74
1011.91	213.74
1012.19	213.72
1012.48	213.73
1012.77	213.72
1013.05	213.82
1013.34	213.81
1013.63	213.84
1013.92	213.88
1014.20	213.90
1014.49	213.87
1014.78	213.92
1015.06	213.85
1015.35	213.83
1015.64	213.83
1015.92	213.88
1016.21	213.90
1016.50	213.87
1016.78	213.92
1017.07	213.93
1017.36	213.89
1017.64	213.85
1017.93	213.89
1018.22	213.88
1018.50	213.88
1018.79	213.85
1019.08	213.73
1019.36	213.74
1019.65	213.71
1019.93	213.75
1020.22	213.74
1020.51	213.86
1020.79	213.82
1021.08	213.52
1021.36	213.58
1021.65	213.30
1021.94	213.33
1022.22	213.99
1022.51	213.78
1022.79	214.65
1023.08	213.94
1023.36	216.35
1023.65	213.16
>>>>>End Processed Spectral Data<<<<<
