SpectraSuite Data File
++++++++++++++++++++++++++++++++++++
Date: Tue Jan 29 16:02:47 EST 2013
User: group
Dark Spectrum Present: No
Reference Spectrum Present: No
Number of Sampled Component Spectra: 1
Spectrometers: USB2E7196
Integration Time (usec): 65000 (USB2E7196)
Spectra Averaged: 100 (USB2E7196)
Boxcar Smoothing: 10 (USB2E7196)
Correct for Electrical Dark: No (USB2E7196)
Strobe/Lamp Enabled: No (USB2E7196)
Correct for Detector Non-linearity: No (USB2E7196)
Correct for Stray Light: No (USB2E7196)
Number of Pixels in Processed Spectrum: 2048
>>>>>Begin Processed Spectral Data<<<<<
339.09	0.00
339.48	202.16
339.86	204.63
340.24	205.70
340.63	206.64
341.01	210.82
341.39	210.26
341.78	211.02
342.16	212.91
342.54	212.30
342.93	201.85
343.31	212.02
343.69	212.58
344.07	213.02
344.46	213.46
344.84	213.87
345.22	214.07
345.60	214.30
345.99	214.50
346.37	214.60
346.75	214.74
347.13	214.79
347.52	214.89
347.90	215.01
348.28	215.05
348.66	215.15
349.05	215.07
349.43	215.13
349.81	215.23
350.19	215.27
350.57	215.29
350.96	215.39
351.34	215.52
351.72	215.62
352.10	215.72
352.48	215.76
352.87	215.82
353.25	215.89
353.63	215.95
354.01	216.03
354.39	216.11
354.77	216.17
355.15	216.32
355.54	216.35
355.92	216.37
356.30	216.45
356.68	216.64
357.06	216.75
357.44	216.77
357.82	216.80
358.20	216.87
358.58	216.93
358.97	216.98
359.35	217.09
359.73	217.21
360.11	217.27
360.49	217.37
360.87	217.40
361.25	217.45
361.63	217.57
362.01	217.61
362.39	217.63
362.77	217.69
363.15	217.70
363.53	217.76
363.91	217.81
364.29	217.83
364.67	217.65
365.05	217.70
365.43	217.76
365.81	217.82
366.19	217.91
366.57	218.01
366.95	217.99
367.33	217.93
367.71	217.91
368.09	217.98
368.47	217.98
368.85	217.98
369.23	218.04
369.61	217.95
369.99	218.01
370.37	218.01
370.75	218.07
371.13	218.02
371.51	217.96
371.89	217.95
372.27	217.96
372.65	217.97
373.03	217.92
373.41	217.91
373.78	217.83
374.16	217.72
374.54	217.63
374.92	217.60
375.30	217.59
375.68	217.52
376.06	217.48
376.44	217.40
376.82	217.38
377.19	217.31
377.57	217.25
377.95	217.15
378.33	217.11
378.71	216.98
379.09	216.97
379.47	216.94
379.84	216.88
380.22	216.81
380.60	216.72
380.98	216.66
381.36	216.61
381.73	216.54
382.11	216.54
382.49	216.51
382.87	216.46
383.25	216.39
383.62	216.58
384.00	216.48
384.38	216.47
384.76	216.46
385.13	216.51
385.51	216.47
385.89	216.41
386.27	216.39
386.64	216.40
387.02	216.32
387.40	216.29
387.78	216.24
388.15	216.22
388.53	216.19
388.91	216.19
389.29	216.16
389.66	216.19
390.04	216.17
390.42	216.17
390.79	216.16
391.17	216.16
391.55	215.92
391.92	215.91
392.30	215.91
392.68	215.88
393.05	215.83
393.43	215.83
393.81	215.83
394.18	215.80
394.56	215.77
394.94	215.84
395.31	215.80
395.69	215.88
396.06	215.92
396.44	215.97
396.82	215.96
397.19	216.08
397.57	216.08
397.95	216.14
398.32	216.12
398.70	216.18
399.07	216.24
399.45	216.26
399.82	216.32
400.20	216.35
400.58	216.39
400.95	216.38
401.33	216.51
401.70	216.72
402.08	216.80
402.45	216.91
402.83	217.04
403.20	217.20
403.58	217.26
403.95	217.36
404.33	217.47
404.71	217.60
405.08	217.86
405.46	218.01
405.83	218.18
406.21	218.38
406.58	218.58
406.96	218.81
407.33	219.07
407.70	219.35
408.08	219.80
408.45	220.12
408.83	220.50
409.20	220.82
409.58	221.06
409.95	221.53
410.33	221.97
410.70	222.38
411.08	222.90
411.45	223.47
411.82	224.02
412.20	224.71
412.57	225.55
412.95	226.08
413.32	226.92
413.69	227.72
414.07	228.59
414.44	229.56
414.82	230.55
415.19	231.71
415.56	232.85
415.94	233.98
416.31	235.34
416.68	236.70
417.06	238.25
417.43	239.77
417.81	241.45
418.18	243.17
418.55	245.03
418.93	246.98
419.30	249.01
419.67	251.21
420.04	253.39
420.42	255.69
420.79	258.39
421.16	261.04
421.54	263.83
421.91	266.72
422.28	269.70
422.66	272.85
423.03	275.98
423.40	279.22
423.77	282.71
424.15	286.26
424.52	289.98
424.89	294.00
425.26	297.94
425.64	301.68
426.01	305.83
426.38	310.17
426.75	314.53
427.13	319.10
427.50	323.89
427.87	328.92
428.24	333.93
428.61	338.75
428.99	344.10
429.36	349.90
429.73	355.58
430.10	361.28
430.47	367.15
430.85	373.26
431.22	379.70
431.59	386.57
431.96	393.15
432.33	400.39
432.70	407.40
433.08	415.65
433.45	423.46
433.82	431.24
434.19	439.77
434.56	448.23
434.93	456.29
435.30	464.25
435.68	473.10
436.05	481.79
436.42	490.37
436.79	498.18
437.16	506.63
437.53	515.57
437.90	524.42
438.27	533.06
438.64	542.03
439.01	550.31
439.38	557.63
439.75	564.65
440.13	572.77
440.50	580.41
440.87	586.55
441.24	592.87
441.61	599.90
441.98	605.05
442.35	611.15
442.72	617.20
443.09	623.05
443.46	626.53
443.83	628.93
444.20	631.08
444.57	634.15
444.94	635.53
445.31	636.92
445.68	638.17
446.05	638.70
446.42	637.80
446.79	636.85
447.16	635.71
447.53	634.92
447.90	631.70
448.27	628.49
448.64	623.97
449.01	620.78
449.37	615.05
449.74	609.62
450.11	602.93
450.48	595.76
450.85	588.51
451.22	582.30
451.59	576.39
451.96	570.73
452.33	563.09
452.70	556.27
453.07	548.07
453.43	539.80
453.80	531.83
454.17	524.13
454.54	516.87
454.91	509.08
455.28	501.49
455.65	494.36
456.02	487.18
456.38	481.15
456.75	473.64
457.12	467.37
457.49	461.11
457.86	455.20
458.23	450.12
458.59	444.50
458.96	438.75
459.33	433.63
459.70	428.51
460.07	424.45
460.43	419.70
460.80	415.31
461.17	411.50
461.54	407.49
461.91	403.64
462.27	399.68
462.64	396.35
463.01	392.72
463.38	389.14
463.74	385.58
464.11	382.44
464.48	379.66
464.85	376.66
465.21	374.32
465.58	371.78
465.95	368.72
466.32	366.19
466.68	363.71
467.05	361.22
467.42	358.76
467.78	356.17
468.15	353.78
468.52	351.96
468.88	349.55
469.25	347.43
469.62	345.74
469.98	343.91
470.35	342.22
470.72	340.59
471.08	338.87
471.45	337.47
471.82	336.04
472.18	334.49
472.55	333.34
472.92	332.05
473.28	330.86
473.65	329.76
474.02	328.68
474.38	327.80
474.75	327.09
475.11	326.34
475.48	325.81
475.85	325.37
476.21	324.93
476.58	324.64
476.94	324.45
477.31	324.18
477.67	323.94
478.04	323.80
478.41	323.78
478.77	323.97
479.14	323.89
479.50	323.99
479.87	324.26
480.23	324.60
480.60	324.84
480.96	325.18
481.33	325.77
481.69	326.34
482.06	326.91
482.42	327.39
482.79	327.99
483.15	328.79
483.52	329.74
483.88	330.65
484.25	331.57
484.61	332.60
484.98	333.60
485.34	334.94
485.71	336.29
486.07	337.73
486.44	339.03
486.80	340.70
487.17	342.38
487.53	344.22
487.90	346.12
488.26	348.16
488.62	350.29
488.99	352.36
489.35	354.54
489.72	356.95
490.08	359.47
490.44	361.99
490.81	364.71
491.17	367.41
491.54	370.41
491.90	373.50
492.26	376.72
492.63	380.17
492.99	383.61
493.36	387.27
493.72	391.13
494.08	395.14
494.45	399.34
494.81	403.72
495.17	408.17
495.54	412.91
495.90	417.68
496.26	422.60
496.63	427.84
496.99	433.26
497.35	438.80
497.72	444.62
498.08	450.57
498.44	456.64
498.80	462.95
499.17	469.40
499.53	476.01
499.89	482.89
500.26	489.89
500.62	496.98
500.98	504.47
501.34	511.92
501.71	519.65
502.07	527.38
502.43	535.42
502.79	543.56
503.16	551.82
503.52	560.36
503.88	568.98
504.24	577.94
504.60	586.93
504.97	596.09
505.33	605.34
505.69	615.15
506.05	625.04
506.41	634.97
506.78	645.01
507.14	655.28
507.50	665.69
507.86	676.31
508.22	687.07
508.59	697.61
508.95	708.67
509.31	719.94
509.67	731.44
510.03	742.83
510.39	754.57
510.75	766.45
511.12	778.36
511.48	790.45
511.84	802.58
512.20	814.87
512.56	827.46
512.92	840.24
513.28	852.79
513.64	865.42
514.00	878.22
514.37	891.06
514.73	904.07
515.09	916.95
515.45	929.69
515.81	942.55
516.17	955.80
516.53	968.87
516.89	981.89
517.25	994.90
517.61	1008.14
517.97	1021.32
518.33	1034.18
518.69	1047.61
519.05	1061.15
519.41	1074.63
519.77	1088.28
520.13	1101.40
520.49	1114.31
520.85	1127.54
521.21	1140.74
521.57	1154.15
521.93	1167.14
522.29	1180.72
522.65	1194.19
523.01	1207.62
523.37	1220.56
523.73	1233.51
524.09	1246.33
524.45	1259.51
524.81	1272.78
525.17	1286.02
525.53	1298.87
525.89	1311.92
526.25	1324.74
526.61	1337.29
526.97	1350.06
527.33	1362.76
527.68	1375.96
528.04	1389.18
528.40	1402.07
528.76	1415.14
529.12	1427.66
529.48	1440.70
529.84	1452.60
530.20	1464.96
530.56	1477.32
530.91	1490.27
531.27	1502.88
531.63	1515.51
531.99	1527.87
532.35	1539.76
532.71	1551.76
533.07	1564.35
533.42	1576.35
533.78	1588.09
534.14	1599.98
534.50	1610.93
534.86	1622.29
535.21	1632.86
535.57	1644.06
535.93	1655.04
536.29	1665.85
536.65	1677.08
537.00	1687.72
537.36	1698.80
537.72	1709.56
538.08	1720.62
538.44	1731.46
538.79	1742.36
539.15	1752.88
539.51	1763.32
539.87	1774.37
540.22	1784.90
540.58	1795.47
540.94	1806.11
541.29	1816.09
541.65	1825.48
542.01	1835.73
542.37	1845.53
542.72	1855.43
543.08	1864.86
543.44	1874.95
543.79	1883.99
544.15	1893.19
544.51	1902.86
544.87	1912.46
545.22	1921.29
545.58	1929.86
545.94	1938.28
546.29	1946.44
546.65	1954.43
547.01	1962.39
547.36	1969.72
547.72	1977.26
548.07	1984.78
548.43	1992.25
548.79	1999.97
549.14	2007.85
549.50	2016.05
549.86	2023.57
550.21	2030.73
550.57	2038.24
550.92	2044.83
551.28	2052.06
551.64	2059.04
551.99	2066.42
552.35	2073.33
552.70	2080.09
553.06	2086.60
553.41	2092.76
553.77	2099.20
554.13	2105.58
554.48	2112.49
554.84	2119.46
555.19	2125.77
555.55	2132.09
555.90	2138.13
556.26	2144.71
556.61	2150.54
556.97	2155.36
557.32	2161.20
557.68	2167.57
558.03	2173.12
558.39	2178.25
558.74	2184.22
559.10	2189.82
559.45	2195.25
559.81	2200.81
560.16	2206.33
560.52	2212.22
560.87	2218.64
561.23	2224.64
561.58	2231.25
561.94	2236.40
562.29	2241.20
562.64	2247.56
563.00	2253.15
563.35	2258.90
563.71	2264.75
564.06	2270.50
564.42	2276.36
564.77	2281.42
565.12	2286.54
565.48	2291.98
565.83	2297.72
566.19	2303.29
566.54	2308.74
566.89	2313.46
567.25	2318.08
567.60	2323.81
567.96	2329.09
568.31	2333.68
568.66	2337.74
569.02	2341.62
569.37	2345.42
569.72	2349.94
570.08	2353.37
570.43	2356.47
570.78	2359.54
571.14	2362.40
571.49	2365.58
571.84	2369.15
572.20	2371.98
572.55	2375.25
572.90	2377.39
573.26	2380.33
573.61	2382.78
573.96	2385.04
574.31	2387.17
574.67	2389.25
575.02	2390.43
575.37	2391.95
575.72	2392.97
576.08	2394.76
576.43	2395.30
576.78	2396.33
577.13	2398.20
577.49	2399.51
577.84	2401.03
578.19	2402.70
578.54	2403.30
578.90	2404.70
579.25	2404.92
579.60	2405.35
579.95	2404.79
580.30	2405.47
580.66	2405.06
581.01	2403.67
581.36	2401.83
581.71	2400.59
582.06	2399.83
582.42	2399.11
582.77	2397.06
583.12	2395.71
583.47	2394.72
583.82	2394.21
584.17	2393.02
584.53	2391.00
584.88	2389.07
585.23	2387.22
585.58	2385.12
585.93	2383.24
586.28	2381.00
586.63	2378.80
586.98	2376.78
587.34	2375.03
587.69	2372.74
588.04	2370.83
588.39	2369.50
588.74	2367.03
589.09	2364.62
589.44	2361.60
589.79	2359.28
590.14	2357.64
590.49	2354.86
590.84	2351.20
591.19	2348.39
591.54	2345.24
591.89	2341.32
592.25	2338.35
592.60	2334.43
592.95	2330.39
593.30	2326.37
593.65	2322.13
594.00	2318.00
594.35	2314.90
594.70	2310.50
595.05	2306.01
595.40	2300.80
595.75	2295.32
596.10	2291.78
596.45	2286.97
596.80	2282.51
597.15	2277.42
597.50	2271.62
597.85	2266.88
598.19	2261.68
598.54	2256.07
598.89	2251.08
599.24	2246.71
599.59	2240.60
599.94	2235.03
600.29	2229.49
600.64	2223.59
600.99	2217.15
601.34	2211.73
601.69	2205.01
602.04	2198.58
602.39	2192.22
602.74	2186.29
603.08	2180.76
603.43	2174.44
603.78	2167.82
604.13	2160.70
604.48	2153.51
604.83	2147.48
605.18	2141.03
605.53	2134.19
605.87	2127.22
606.22	2120.54
606.57	2112.67
606.92	2105.00
607.27	2098.01
607.62	2091.26
607.96	2084.39
608.31	2077.73
608.66	2069.99
609.01	2062.48
609.36	2055.47
609.70	2047.69
610.05	2039.99
610.40	2031.86
610.75	2023.57
611.10	2016.02
611.44	2007.44
611.79	1998.78
612.14	1988.79
612.49	1978.44
612.83	1969.35
613.18	1960.22
613.53	1950.87
613.88	1941.39
614.22	1932.72
614.57	1922.80
614.92	1912.32
615.27	1902.37
615.61	1892.45
615.96	1882.75
616.31	1873.09
616.65	1863.75
617.00	1853.80
617.35	1844.07
617.70	1834.31
618.04	1824.20
618.39	1813.64
618.74	1803.88
619.08	1794.33
619.43	1785.71
619.78	1777.49
620.12	1768.68
620.47	1758.71
620.82	1748.42
621.16	1738.65
621.51	1728.65
621.85	1718.74
622.20	1708.19
622.55	1697.55
622.89	1687.73
623.24	1677.98
623.59	1668.20
623.93	1658.04
624.28	1648.40
624.62	1638.25
624.97	1627.88
625.32	1618.22
625.66	1609.66
626.01	1600.84
626.35	1591.39
626.70	1581.30
627.04	1571.18
627.39	1561.11
627.73	1551.90
628.08	1542.84
628.43	1533.20
628.77	1524.02
629.12	1515.10
629.46	1507.26
629.81	1498.77
630.15	1489.03
630.50	1479.27
630.84	1468.85
631.19	1458.90
631.53	1449.42
631.88	1439.19
632.22	1429.19
632.57	1419.71
632.91	1409.36
633.26	1399.46
633.60	1389.94
633.95	1380.52
634.29	1371.10
634.64	1361.75
634.98	1352.00
635.32	1342.66
635.67	1334.05
636.01	1324.86
636.36	1314.97
636.70	1305.47
637.05	1296.16
637.39	1287.31
637.73	1278.60
638.08	1271.02
638.42	1262.77
638.77	1254.01
639.11	1245.81
639.45	1237.98
639.80	1229.30
640.14	1220.65
640.49	1211.76
640.83	1202.80
641.17	1194.77
641.52	1186.48
641.86	1177.81
642.20	1169.80
642.55	1161.22
642.89	1152.35
643.23	1143.62
643.58	1135.72
643.92	1126.67
644.26	1117.88
644.61	1109.30
644.95	1100.57
645.29	1091.28
645.64	1082.04
645.98	1073.72
646.32	1065.65
646.66	1057.06
647.01	1048.66
647.35	1040.51
647.69	1032.03
648.04	1023.70
648.38	1014.64
648.72	1005.82
649.06	997.40
649.41	989.21
649.75	981.21
650.09	973.36
650.43	965.15
650.78	956.91
651.12	949.25
651.46	941.96
651.80	934.70
652.14	927.35
652.49	919.84
652.83	912.58
653.17	904.75
653.51	897.19
653.85	890.00
654.20	882.74
654.54	875.23
654.88	868.19
655.22	861.08
655.56	854.25
655.90	847.47
656.25	840.78
656.59	833.77
656.93	826.76
657.27	819.70
657.61	812.91
657.95	806.82
658.29	801.02
658.64	794.80
658.98	788.40
659.32	781.91
659.66	775.73
660.00	769.47
660.34	763.57
660.68	757.50
661.02	751.20
661.36	745.44
661.70	739.67
662.05	734.00
662.39	728.62
662.73	723.26
663.07	718.03
663.41	712.46
663.75	706.91
664.09	701.43
664.43	696.05
664.77	690.68
665.11	684.91
665.45	679.04
665.79	673.39
666.13	667.75
666.47	662.32
666.81	656.93
667.15	651.60
667.49	646.41
667.83	641.19
668.17	636.05
668.51	630.95
668.85	626.16
669.19	621.34
669.53	616.31
669.87	611.23
670.21	606.48
670.55	601.80
670.89	597.44
671.23	593.15
671.57	588.79
671.91	584.60
672.25	580.47
672.58	576.34
672.92	572.24
673.26	568.35
673.60	564.53
673.94	560.77
674.28	557.18
674.62	553.45
674.96	549.83
675.30	546.36
675.64	542.76
675.97	539.17
676.31	535.66
676.65	532.07
676.99	528.66
677.33	524.84
677.67	521.28
678.01	517.49
678.34	513.84
678.68	510.40
679.02	506.81
679.36	503.17
679.70	499.61
680.04	496.18
680.37	492.79
680.71	489.50
681.05	486.34
681.39	483.15
681.73	480.08
682.06	477.06
682.40	474.04
682.74	470.85
683.08	467.69
683.42	464.51
683.75	461.65
684.09	458.68
684.43	455.95
684.77	453.04
685.10	450.26
685.44	447.35
685.78	444.47
686.12	441.78
686.45	439.13
686.79	436.50
687.13	433.99
687.46	431.41
687.80	428.75
688.14	425.99
688.48	423.45
688.81	420.79
689.15	418.24
689.49	415.68
689.82	413.22
690.16	410.63
690.50	408.21
690.83	405.73
691.17	403.27
691.51	400.86
691.84	398.73
692.18	396.50
692.52	394.41
692.85	392.31
693.19	390.24
693.52	388.10
693.86	385.93
694.20	383.79
694.53	381.70
694.87	379.58
695.21	377.47
695.54	375.38
695.88	373.23
696.21	371.04
696.55	368.96
696.88	366.96
697.22	365.13
697.56	363.31
697.89	361.46
698.23	359.76
698.56	358.00
698.90	356.20
699.23	354.37
699.57	352.56
699.90	350.72
700.24	348.93
700.58	347.24
700.91	345.65
701.25	344.12
701.58	342.59
701.92	341.03
702.25	339.50
702.59	337.91
702.92	336.48
703.26	335.06
703.59	333.63
703.93	332.37
704.26	330.97
704.60	329.48
704.93	328.00
705.26	326.52
705.60	325.10
705.93	323.68
706.27	322.35
706.60	321.10
706.94	319.90
707.27	318.51
707.61	317.17
707.94	315.84
708.27	314.32
708.61	312.88
708.94	311.56
709.28	310.32
709.61	309.08
709.94	307.88
710.28	306.66
710.61	305.50
710.95	304.15
711.28	303.06
711.61	301.91
711.95	300.80
712.28	299.61
712.61	298.46
712.95	297.39
713.28	296.39
713.61	295.28
713.95	294.15
714.28	293.16
714.61	292.16
714.95	291.20
715.28	290.27
715.61	289.31
715.95	288.37
716.28	287.40
716.61	286.46
716.95	285.50
717.28	284.61
717.61	283.66
717.94	282.77
718.28	281.80
718.61	280.94
718.94	280.06
719.27	279.28
719.61	278.48
719.94	277.62
720.27	276.72
720.60	275.86
720.94	275.11
721.27	274.39
721.60	273.73
721.93	272.99
722.27	272.36
722.60	271.67
722.93	271.00
723.26	270.36
723.59	269.73
723.93	269.13
724.26	268.49
724.59	267.89
724.92	267.35
725.25	266.84
725.59	266.28
725.92	265.78
726.25	265.19
726.58	264.62
726.91	264.10
727.24	263.56
727.57	263.05
727.91	262.46
728.24	261.88
728.57	261.31
728.90	260.77
729.23	260.16
729.56	259.75
729.89	259.20
730.22	258.64
730.55	258.08
730.89	257.56
731.22	257.01
731.55	256.55
731.88	256.02
732.21	255.45
732.54	254.94
732.87	254.45
733.20	253.99
733.53	253.53
733.86	253.04
734.19	252.56
734.52	252.17
734.85	251.88
735.18	251.45
735.51	251.04
735.84	250.62
736.17	250.27
736.50	249.74
736.83	249.60
737.16	249.24
737.49	248.90
737.82	248.47
738.15	248.13
738.48	247.73
738.81	247.31
739.14	246.90
739.47	246.51
739.80	246.18
740.13	245.84
740.46	245.45
740.79	245.09
741.12	244.79
741.45	244.40
741.78	243.98
742.11	243.70
742.44	243.36
742.77	243.08
743.10	242.72
743.43	242.38
743.75	241.86
744.08	241.79
744.41	241.44
744.74	241.11
745.07	240.75
745.40	240.44
745.73	240.23
746.06	240.00
746.39	239.72
746.71	239.37
747.04	239.02
747.37	238.68
747.70	238.42
748.03	238.13
748.36	237.91
748.68	237.60
749.01	237.23
749.34	236.92
749.67	236.65
750.00	236.40
750.33	236.31
750.65	236.07
750.98	235.56
751.31	235.32
751.64	235.10
751.97	235.01
752.29	234.77
752.62	234.42
752.95	234.11
753.28	233.87
753.60	233.62
753.93	233.48
754.26	233.32
754.59	233.02
754.91	232.74
755.24	232.47
755.57	232.26
755.90	232.09
756.22	231.88
756.55	231.63
756.88	231.39
757.20	231.07
757.53	230.79
757.86	230.59
758.19	230.38
758.51	230.21
758.84	229.88
759.17	229.67
759.49	229.54
759.82	229.47
760.15	229.30
760.47	229.12
760.80	228.84
761.13	228.69
761.45	228.51
761.78	228.37
762.11	228.17
762.43	227.97
762.76	227.77
763.08	227.61
763.41	227.46
763.74	227.29
764.06	227.12
764.39	226.99
764.71	226.79
765.04	226.62
765.37	226.45
765.69	226.32
766.02	226.15
766.34	225.98
766.67	225.77
767.00	225.67
767.32	225.66
767.65	225.67
767.97	225.50
768.30	225.41
768.62	225.29
768.95	225.16
769.27	225.05
769.60	225.01
769.92	224.88
770.25	224.74
770.57	224.61
770.90	224.48
771.22	224.36
771.55	224.27
771.87	224.22
772.20	224.09
772.52	224.18
772.85	224.36
773.17	224.27
773.50	224.17
773.82	224.03
774.15	223.83
774.47	223.60
774.80	223.53
775.12	223.42
775.45	223.30
775.77	223.25
776.09	223.19
776.42	223.07
776.74	223.04
777.07	222.96
777.39	222.89
777.72	222.81
778.04	222.77
778.36	222.69
778.69	222.58
779.01	222.54
779.33	222.25
779.66	221.93
779.98	221.82
780.31	221.76
780.63	221.79
780.95	221.78
781.28	221.75
781.60	221.65
781.92	221.62
782.25	221.60
782.57	221.50
782.89	221.41
783.22	221.35
783.54	221.20
783.86	221.11
784.19	221.02
784.51	221.02
784.83	220.94
785.16	220.87
785.48	220.84
785.80	220.77
786.12	220.74
786.45	220.68
786.77	220.68
787.09	220.61
787.42	220.47
787.74	220.40
788.06	220.32
788.38	220.27
788.71	220.16
789.03	220.10
789.35	220.10
789.67	220.05
789.99	220.00
790.32	219.97
790.64	219.98
790.96	220.10
791.28	219.99
791.61	219.94
791.93	219.91
792.25	219.85
792.57	219.94
792.89	219.87
793.21	219.82
793.54	219.76
793.86	219.64
794.18	219.62
794.50	219.53
794.82	219.49
795.14	219.49
795.47	219.51
795.79	219.46
796.11	219.38
796.43	219.33
796.75	219.27
797.07	219.24
797.39	219.17
797.71	219.00
798.04	218.95
798.36	218.90
798.68	218.87
799.00	218.86
799.32	218.69
799.64	218.71
799.96	218.69
800.28	218.67
800.60	218.68
800.92	218.65
801.24	218.59
801.56	218.59
801.89	218.50
802.21	218.50
802.53	218.45
802.85	218.45
803.17	218.52
803.49	218.49
803.81	218.44
804.13	218.40
804.45	218.35
804.77	218.35
805.09	218.34
805.41	218.29
805.73	218.23
806.05	218.18
806.37	218.16
806.69	218.09
807.01	218.04
807.33	218.04
807.65	217.95
807.97	218.03
808.28	217.97
808.60	217.98
808.92	217.89
809.24	218.00
809.56	217.94
809.88	217.82
810.20	217.79
810.52	217.83
810.84	217.76
811.16	217.69
811.48	217.68
811.80	217.72
812.12	217.67
812.43	217.69
812.75	217.65
813.07	217.59
813.39	217.60
813.71	217.57
814.03	217.51
814.35	217.48
814.67	217.40
814.98	217.33
815.30	217.31
815.62	217.25
815.94	217.09
816.26	217.06
816.58	217.03
816.89	217.03
817.21	216.94
817.53	216.96
817.85	216.99
818.17	216.94
818.48	216.83
818.80	216.89
819.12	216.85
819.44	216.83
819.76	216.76
820.07	216.73
820.39	216.72
820.71	216.72
821.03	216.72
821.34	216.69
821.66	216.72
821.98	216.71
822.30	216.73
822.61	216.84
822.93	216.83
823.25	216.80
823.57	216.76
823.88	216.79
824.20	216.79
824.52	216.82
824.83	216.82
825.15	216.79
825.47	216.75
825.79	216.71
826.10	216.71
826.42	216.71
826.74	216.70
827.05	216.68
827.37	216.68
827.69	216.65
828.00	216.61
828.32	216.60
828.64	216.56
828.95	216.63
829.27	216.55
829.58	216.53
829.90	216.55
830.22	216.57
830.53	216.49
830.85	216.44
831.17	216.36
831.48	216.36
831.80	216.36
832.11	216.31
832.43	216.30
832.75	216.27
833.06	216.40
833.38	216.37
833.69	216.38
834.01	216.39
834.32	216.37
834.64	216.37
834.96	216.38
835.27	216.38
835.59	216.30
835.90	216.29
836.22	216.27
836.53	216.22
836.85	216.18
837.16	216.42
837.48	216.41
837.79	216.44
838.11	216.41
838.42	216.45
838.74	216.47
839.05	216.46
839.37	216.48
839.68	216.36
840.00	216.32
840.31	216.32
840.63	216.29
840.94	216.27
841.26	216.26
841.57	216.24
841.88	216.24
842.20	216.20
842.51	216.16
842.83	216.17
843.14	216.35
843.46	216.38
843.77	216.24
844.08	216.22
844.40	216.15
844.71	216.15
845.03	216.10
845.34	216.08
845.65	216.04
845.97	216.00
846.28	215.99
846.60	216.01
846.91	215.99
847.22	215.95
847.54	216.00
847.85	216.02
848.16	215.99
848.48	215.95
848.79	216.03
849.10	216.07
849.42	216.07
849.73	215.89
850.04	215.88
850.36	215.79
850.67	215.85
850.98	215.86
851.30	215.87
851.61	215.85
851.92	215.86
852.23	215.93
852.55	215.93
852.86	215.92
853.17	215.90
853.49	215.91
853.80	215.95
854.11	215.95
854.42	215.96
854.74	215.91
855.05	215.92
855.36	215.81
855.67	215.78
855.99	215.74
856.30	215.96
856.61	215.97
856.92	215.99
857.23	215.95
857.55	215.93
857.86	215.90
858.17	215.94
858.48	215.87
858.79	215.82
859.11	215.87
859.42	215.89
859.73	215.87
860.04	215.88
860.35	215.82
860.66	215.76
860.98	215.73
861.29	215.79
861.60	215.74
861.91	215.81
862.22	215.77
862.53	215.77
862.84	215.55
863.16	215.57
863.47	215.51
863.78	215.53
864.09	215.53
864.40	215.53
864.71	215.51
865.02	215.56
865.33	215.52
865.64	215.46
865.95	215.45
866.27	215.57
866.58	215.52
866.89	215.54
867.20	215.54
867.51	215.52
867.82	215.49
868.13	215.56
868.44	215.50
868.75	215.52
869.06	215.52
869.37	215.48
869.68	215.38
869.99	215.41
870.30	215.40
870.61	215.41
870.92	215.37
871.23	215.36
871.54	215.36
871.85	215.41
872.16	215.41
872.47	215.41
872.78	215.29
873.09	215.32
873.40	215.30
873.71	215.33
874.02	215.35
874.33	215.31
874.64	215.27
874.95	215.30
875.26	215.27
875.56	215.26
875.87	215.29
876.18	215.29
876.49	215.50
876.80	215.44
877.11	215.40
877.42	215.39
877.73	215.39
878.04	215.38
878.35	215.39
878.66	215.40
878.96	215.38
879.27	215.36
879.58	215.34
879.89	215.34
880.20	215.37
880.51	215.34
880.82	215.35
881.12	215.38
881.43	215.34
881.74	215.32
882.05	215.32
882.36	215.31
882.67	215.32
882.97	215.08
883.28	215.10
883.59	215.08
883.90	215.15
884.21	215.21
884.51	215.20
884.82	215.16
885.13	215.16
885.44	215.17
885.74	215.20
886.05	215.19
886.36	215.16
886.67	215.07
886.98	215.16
887.28	215.17
887.59	215.16
887.90	215.19
888.20	215.15
888.51	215.19
888.82	215.18
889.13	215.22
889.43	215.42
889.74	215.42
890.05	215.43
890.35	215.39
890.66	215.32
890.97	215.29
891.28	215.28
891.58	215.27
891.89	215.26
892.20	215.23
892.50	215.21
892.81	215.21
893.12	215.23
893.42	215.13
893.73	215.14
894.04	215.14
894.34	215.14
894.65	215.17
894.95	215.14
895.26	215.13
895.57	215.21
895.87	215.01
896.18	215.03
896.48	215.06
896.79	215.08
897.10	215.11
897.40	215.14
897.71	215.15
898.01	215.13
898.32	215.15
898.63	215.12
898.93	215.16
899.24	215.17
899.54	215.15
899.85	215.18
900.15	215.16
900.46	215.15
900.76	215.18
901.07	215.19
901.38	215.19
901.68	215.21
901.99	215.09
902.29	215.11
902.60	215.09
902.90	215.06
903.21	215.04
903.51	215.02
903.82	215.07
904.12	215.11
904.43	215.12
904.73	215.14
905.03	215.15
905.34	215.34
905.64	215.34
905.95	215.34
906.25	215.30
906.56	215.31
906.86	215.32
907.17	215.26
907.47	215.26
907.77	215.26
908.08	215.22
908.38	215.26
908.69	215.28
908.99	215.33
909.30	215.39
909.60	215.36
909.90	215.35
910.21	215.30
910.51	215.24
910.81	215.23
911.12	215.24
911.42	215.25
911.73	215.05
912.03	215.08
912.33	215.14
912.64	215.13
912.94	215.13
913.24	215.08
913.55	215.12
913.85	215.10
914.15	215.13
914.46	215.14
914.76	215.15
915.06	215.11
915.37	215.06
915.67	215.02
915.97	215.03
916.27	214.98
916.58	215.00
916.88	215.00
917.18	214.98
917.49	215.09
917.79	215.07
918.09	215.08
918.39	215.08
918.70	215.06
919.00	215.05
919.30	215.13
919.60	215.15
919.91	215.09
920.21	215.12
920.51	215.10
920.81	215.09
921.12	215.11
921.42	215.12
921.72	215.11
922.02	215.10
922.32	215.12
922.63	215.14
922.93	215.22
923.23	215.22
923.53	215.23
923.83	215.09
924.13	215.11
924.44	215.13
924.74	215.18
925.04	215.24
925.34	215.25
925.64	215.17
925.94	215.14
926.24	215.29
926.55	215.25
926.85	215.27
927.15	215.30
927.45	215.28
927.75	215.26
928.05	215.29
928.35	215.30
928.65	215.38
928.95	215.41
929.26	215.31
929.56	215.39
929.86	215.40
930.16	215.42
930.46	215.43
930.76	215.41
931.06	215.33
931.36	215.27
931.66	215.27
931.96	215.32
932.26	215.33
932.56	215.22
932.86	215.22
933.16	215.21
933.46	215.19
933.76	215.17
934.06	215.24
934.36	215.34
934.66	215.32
934.96	215.24
935.26	215.28
935.56	215.30
935.86	215.23
936.16	215.18
936.46	215.15
936.76	215.10
937.06	215.09
937.36	215.08
937.66	215.06
937.96	215.08
938.26	215.04
938.56	215.05
938.86	215.08
939.16	215.14
939.46	215.13
939.76	215.13
940.06	215.10
940.35	215.03
940.65	214.91
940.95	214.89
941.25	214.84
941.55	214.79
941.85	214.79
942.15	214.82
942.45	214.90
942.75	214.88
943.04	214.91
943.34	214.93
943.64	214.92
943.94	214.90
944.24	214.89
944.54	214.90
944.84	214.90
945.13	214.87
945.43	214.79
945.73	214.80
946.03	214.78
946.33	214.78
946.62	214.78
946.92	214.79
947.22	214.81
947.52	214.83
947.82	214.85
948.11	214.82
948.41	214.74
948.71	214.70
949.01	214.70
949.31	214.66
949.60	214.65
949.90	214.69
950.20	214.70
950.50	214.70
950.79	214.67
951.09	214.70
951.39	214.68
951.69	214.69
951.98	214.71
952.28	214.72
952.58	214.73
952.87	214.73
953.17	214.71
953.47	214.69
953.76	214.69
954.06	214.66
954.36	214.62
954.66	214.66
954.95	214.72
955.25	214.74
955.55	214.76
955.84	214.71
956.14	214.72
956.44	214.73
956.73	214.69
957.03	214.72
957.32	214.69
957.62	214.69
957.92	214.72
958.21	214.71
958.51	214.93
958.81	214.97
959.10	214.95
959.40	215.04
959.69	215.06
959.99	215.07
960.29	215.05
960.58	215.06
960.88	215.11
961.17	215.07
961.47	215.09
961.76	215.07
962.06	215.14
962.36	215.11
962.65	215.14
962.95	215.18
963.24	215.16
963.54	215.17
963.83	215.16
964.13	215.15
964.42	215.11
964.72	214.98
965.01	214.98
965.31	215.00
965.60	214.91
965.90	215.06
966.19	215.01
966.49	215.06
966.78	215.07
967.08	215.07
967.37	215.07
967.67	215.02
967.96	215.04
968.26	215.01
968.55	215.05
968.85	215.04
969.14	215.05
969.43	215.04
969.73	214.99
970.02	215.03
970.32	215.02
970.61	215.00
970.91	214.91
971.20	214.86
971.49	214.84
971.79	214.91
972.08	214.77
972.38	214.80
972.67	214.74
972.96	214.76
973.26	214.70
973.55	214.75
973.85	214.76
974.14	214.76
974.43	214.78
974.73	214.74
975.02	214.71
975.31	214.70
975.61	214.70
975.90	214.73
976.19	214.70
976.49	214.72
976.78	214.74
977.07	214.75
977.37	214.78
977.66	214.80
977.95	214.73
978.24	214.74
978.54	214.79
978.83	214.80
979.12	214.79
979.42	214.77
979.71	214.72
980.00	214.72
980.29	214.72
980.59	214.68
980.88	214.72
981.17	214.70
981.46	214.70
981.76	214.69
982.05	214.76
982.34	214.80
982.63	214.81
982.93	214.85
983.22	214.87
983.51	214.90
983.80	214.94
984.09	214.99
984.39	215.00
984.68	214.98
984.97	215.00
985.26	215.01
985.55	215.08
985.85	215.03
986.14	215.05
986.43	215.11
986.72	215.13
987.01	215.09
987.30	215.11
987.59	215.10
987.89	215.11
988.18	215.05
988.47	215.04
988.76	215.03
989.05	214.99
989.34	215.00
989.63	215.02
989.92	214.98
990.22	214.93
990.51	214.94
990.80	214.89
991.09	214.91
991.38	214.93
991.67	214.89
991.96	214.93
992.25	214.92
992.54	214.85
992.83	214.87
993.12	214.85
993.41	214.86
993.70	214.95
993.99	214.98
994.28	214.98
994.58	214.97
994.87	214.91
995.16	214.90
995.45	214.87
995.74	214.81
996.03	214.83
996.32	214.88
996.61	214.89
996.90	214.91
997.19	214.87
997.48	214.90
997.77	214.88
998.06	214.86
998.34	214.84
998.63	214.89
998.92	214.87
999.21	214.91
999.50	214.93
999.79	214.84
1000.08	214.85
1000.37	214.83
1000.66	214.81
1000.95	214.87
1001.24	214.87
1001.53	214.90
1001.82	214.91
1002.11	214.88
1002.40	214.90
1002.68	214.97
1002.97	215.09
1003.26	215.06
1003.55	215.00
1003.84	215.04
1004.13	215.11
1004.42	215.13
1004.71	215.11
1004.99	215.08
1005.28	215.11
1005.57	215.08
1005.86	215.06
1006.15	215.04
1006.44	215.03
1006.72	215.06
1007.01	215.03
1007.30	215.04
1007.59	215.01
1007.88	214.99
1008.17	215.00
1008.45	214.93
1008.74	214.81
1009.03	214.73
1009.32	214.72
1009.60	214.71
1009.89	214.67
1010.18	214.58
1010.47	214.58
1010.76	214.54
1011.04	214.53
1011.33	214.51
1011.62	214.54
1011.91	214.58
1012.19	214.57
1012.48	214.59
1012.77	214.62
1013.05	214.73
1013.34	214.73
1013.63	214.72
1013.92	214.72
1014.20	214.72
1014.49	214.74
1014.78	214.77
1015.06	214.72
1015.35	214.75
1015.64	214.77
1015.92	214.79
1016.21	214.82
1016.50	214.80
1016.78	214.86
1017.07	214.91
1017.36	214.91
1017.64	214.88
1017.93	214.88
1018.22	214.87
1018.50	214.84
1018.79	214.81
1019.08	214.69
1019.36	214.69
1019.65	214.70
1019.93	214.78
1020.22	214.80
1020.51	214.92
1020.79	214.90
1021.08	214.43
1021.36	214.13
1021.65	214.94
1021.94	214.26
1022.22	214.75
1022.51	214.83
1022.79	216.01
1023.08	215.13
1023.36	217.55
1023.65	214.31
>>>>>End Processed Spectral Data<<<<<
