SpectraSuite Data File
++++++++++++++++++++++++++++++++++++
Date: Tue Jan 29 16:17:31 EST 2013
User: group
Dark Spectrum Present: No
Reference Spectrum Present: No
Number of Sampled Component Spectra: 1
Spectrometers: USB2E7196
Integration Time (usec): 65000 (USB2E7196)
Spectra Averaged: 100 (USB2E7196)
Boxcar Smoothing: 10 (USB2E7196)
Correct for Electrical Dark: No (USB2E7196)
Strobe/Lamp Enabled: No (USB2E7196)
Correct for Detector Non-linearity: No (USB2E7196)
Correct for Stray Light: No (USB2E7196)
Number of Pixels in Processed Spectrum: 2048
>>>>>Begin Processed Spectral Data<<<<<
339.09	0.00
339.48	202.85
339.86	204.27
340.24	205.79
340.63	206.68
341.01	212.22
341.39	209.70
341.78	211.57
342.16	212.61
342.54	212.74
342.93	201.91
343.31	212.08
343.69	212.63
344.07	213.07
344.46	213.50
344.84	213.89
345.22	213.99
345.60	214.24
345.99	214.40
346.37	214.53
346.75	214.62
347.13	214.68
347.52	214.75
347.90	214.82
348.28	214.85
348.66	214.92
349.05	214.90
349.43	214.95
349.81	215.01
350.19	215.06
350.57	215.12
350.96	215.20
351.34	215.30
351.72	215.39
352.10	215.49
352.48	215.53
352.87	215.57
353.25	215.66
353.63	215.68
354.01	215.78
354.39	215.82
354.77	215.90
355.15	216.05
355.54	216.08
355.92	216.07
356.30	216.15
356.68	216.33
357.06	216.39
357.44	216.41
357.82	216.42
358.20	216.53
358.58	216.61
358.97	216.65
359.35	216.76
359.73	216.82
360.11	216.88
360.49	216.93
360.87	216.99
361.25	217.08
361.63	217.22
362.01	217.24
362.39	217.27
362.77	217.28
363.15	217.26
363.53	217.31
363.91	217.41
364.29	217.44
364.67	217.27
365.05	217.33
365.43	217.39
365.81	217.45
366.19	217.52
366.57	217.61
366.95	217.62
367.33	217.55
367.71	217.54
368.09	217.55
368.47	217.57
368.85	217.54
369.23	217.56
369.61	217.49
369.99	217.54
370.37	217.58
370.75	217.72
371.13	217.68
371.51	217.65
371.89	217.62
372.27	217.62
372.65	217.66
373.03	217.62
373.41	217.59
373.78	217.54
374.16	217.40
374.54	217.30
374.92	217.25
375.30	217.28
375.68	217.22
376.06	217.20
376.44	217.17
376.82	217.19
377.19	217.14
377.57	217.10
377.95	217.00
378.33	216.92
378.71	216.78
379.09	216.76
379.47	216.73
379.84	216.66
380.22	216.58
380.60	216.48
380.98	216.45
381.36	216.39
381.73	216.34
382.11	216.38
382.49	216.34
382.87	216.25
383.25	216.17
383.62	216.35
384.00	216.34
384.38	216.33
384.76	216.33
385.13	216.37
385.51	216.36
385.89	216.28
386.27	216.25
386.64	216.22
387.02	216.20
387.40	216.17
387.78	216.16
388.15	216.16
388.53	216.11
388.91	216.06
389.29	216.06
389.66	216.05
390.04	216.00
390.42	216.02
390.79	216.05
391.17	216.06
391.55	215.83
391.92	215.77
392.30	215.76
392.68	215.68
393.05	215.64
393.43	215.62
393.81	215.67
394.18	215.64
394.56	215.63
394.94	215.65
395.31	215.64
395.69	215.71
396.06	215.74
396.44	215.76
396.82	215.77
397.19	215.87
397.57	215.88
397.95	215.91
398.32	215.89
398.70	215.93
399.07	216.01
399.45	216.04
399.82	216.12
400.20	216.16
400.58	216.21
400.95	216.19
401.33	216.27
401.70	216.45
402.08	216.57
402.45	216.67
402.83	216.81
403.20	216.93
403.58	216.98
403.95	217.12
404.33	217.29
404.71	217.42
405.08	217.67
405.46	217.86
405.83	218.03
406.21	218.24
406.58	218.48
406.96	218.68
407.33	218.94
407.70	219.23
408.08	219.69
408.45	220.05
408.83	220.44
409.20	220.77
409.58	221.06
409.95	221.51
410.33	221.96
410.70	222.37
411.08	222.93
411.45	223.48
411.82	224.01
412.20	224.66
412.57	225.50
412.95	226.04
413.32	226.85
413.69	227.67
414.07	228.55
414.44	229.50
414.82	230.47
415.19	231.63
415.56	232.75
415.94	233.87
416.31	235.20
416.68	236.54
417.06	238.08
417.43	239.59
417.81	241.26
418.18	243.02
418.55	244.90
418.93	246.83
419.30	248.89
419.67	251.07
420.04	253.31
420.42	255.56
420.79	258.27
421.16	260.93
421.54	263.73
421.91	266.62
422.28	269.56
422.66	272.79
423.03	275.91
423.40	279.17
423.77	282.63
424.15	286.21
424.52	289.89
424.89	293.95
425.26	297.86
425.64	301.60
426.01	305.69
426.38	310.02
426.75	314.37
427.13	318.91
427.50	323.69
427.87	328.74
428.24	333.83
428.61	338.67
428.99	344.07
429.36	349.88
429.73	355.63
430.10	361.33
430.47	367.12
430.85	373.18
431.22	379.64
431.59	386.55
431.96	393.16
432.33	400.44
432.70	407.39
433.08	415.56
433.45	423.33
433.82	431.13
434.19	439.70
434.56	448.19
434.93	456.25
435.30	464.25
435.68	473.00
436.05	481.61
436.42	490.19
436.79	498.02
437.16	506.52
437.53	515.40
437.90	524.22
438.27	532.93
438.64	541.86
439.01	550.17
439.38	557.48
439.75	564.49
440.13	572.63
440.50	580.38
440.87	586.61
441.24	593.04
441.61	600.16
441.98	605.38
442.35	611.43
442.72	617.51
443.09	623.39
443.46	626.99
443.83	629.40
444.20	631.52
444.57	634.54
444.94	635.89
445.31	637.27
445.68	638.59
446.05	639.20
446.42	638.44
446.79	637.42
447.16	636.36
447.53	635.63
447.90	632.41
448.27	629.23
448.64	624.75
449.01	621.60
449.37	615.83
449.74	610.32
450.11	603.63
450.48	596.51
450.85	589.26
451.22	582.96
451.59	577.12
451.96	571.52
452.33	563.94
452.70	557.06
453.07	548.93
453.43	540.67
453.80	532.63
454.17	524.97
454.54	517.72
454.91	509.80
455.28	502.11
455.65	494.96
456.02	487.72
456.38	481.63
456.75	473.99
457.12	467.71
457.49	461.52
457.86	455.59
458.23	450.47
458.59	444.77
458.96	439.06
459.33	433.95
459.70	428.76
460.07	424.73
460.43	420.03
460.80	415.58
461.17	411.73
461.54	407.69
461.91	403.79
462.27	399.80
462.64	396.51
463.01	392.85
463.38	389.25
463.74	385.69
464.11	382.60
464.48	379.87
464.85	376.84
465.21	374.46
465.58	371.97
465.95	368.91
466.32	366.37
466.68	363.85
467.05	361.34
467.42	358.87
467.78	356.21
468.15	353.80
468.52	351.97
468.88	349.55
469.25	347.42
469.62	345.70
469.98	343.84
470.35	342.11
470.72	340.52
471.08	338.87
471.45	337.45
471.82	335.98
472.18	334.38
472.55	333.21
472.92	331.85
473.28	330.64
473.65	329.55
474.02	328.53
474.38	327.73
474.75	327.06
475.11	326.32
475.48	325.80
475.85	325.37
476.21	324.94
476.58	324.60
476.94	324.39
477.31	324.09
477.67	323.86
478.04	323.76
478.41	323.72
478.77	323.87
479.14	323.81
479.50	323.93
479.87	324.29
480.23	324.65
480.60	324.91
480.96	325.27
481.33	325.89
481.69	326.45
482.06	326.95
482.42	327.41
482.79	327.94
483.15	328.70
483.52	329.65
483.88	330.52
484.25	331.49
484.61	332.49
484.98	333.59
485.34	334.94
485.71	336.28
486.07	337.70
486.44	339.04
486.80	340.68
487.17	342.34
487.53	344.14
487.90	345.99
488.26	348.00
488.62	350.15
488.99	352.21
489.35	354.38
489.72	356.77
490.08	359.27
490.44	361.86
490.81	364.59
491.17	367.25
491.54	370.23
491.90	373.28
492.26	376.54
492.63	379.94
492.99	383.34
493.36	386.99
493.72	390.90
494.08	394.85
494.45	399.00
494.81	403.35
495.17	407.79
495.54	412.47
495.90	417.28
496.26	422.14
496.63	427.29
496.99	432.63
497.35	438.13
497.72	443.91
498.08	449.84
498.44	455.92
498.80	462.34
499.17	468.77
499.53	475.44
499.89	482.33
500.26	489.27
500.62	496.36
500.98	503.78
501.34	511.14
501.71	518.86
502.07	526.63
502.43	534.64
502.79	542.73
503.16	551.05
503.52	559.56
503.88	568.21
504.24	577.10
504.60	586.11
504.97	595.30
505.33	604.49
505.69	614.29
506.05	624.12
506.41	633.93
506.78	643.93
507.14	654.12
507.50	664.51
507.86	675.04
508.22	685.65
508.59	696.19
508.95	707.15
509.31	718.30
509.67	729.72
510.03	740.99
510.39	752.70
510.75	764.50
511.12	776.35
511.48	788.34
511.84	800.41
512.20	812.66
512.56	825.19
512.92	837.84
513.28	850.31
513.64	862.82
514.00	875.49
514.37	888.35
514.73	901.22
515.09	914.04
515.45	926.77
515.81	939.70
516.17	952.94
516.53	966.03
516.89	979.08
517.25	991.99
517.61	1005.27
517.97	1018.31
518.33	1031.20
518.69	1044.53
519.05	1058.09
519.41	1071.59
519.77	1085.17
520.13	1098.16
520.49	1111.03
520.85	1124.22
521.21	1137.40
521.57	1150.80
521.93	1163.54
522.29	1177.04
522.65	1190.33
523.01	1203.73
523.37	1216.70
523.73	1229.63
524.09	1242.53
524.45	1255.49
524.81	1268.80
525.17	1281.88
525.53	1294.83
525.89	1307.81
526.25	1320.56
526.61	1332.97
526.97	1345.69
527.33	1358.30
527.68	1371.54
528.04	1384.69
528.40	1397.49
528.76	1410.40
529.12	1422.91
529.48	1435.87
529.84	1447.79
530.20	1460.16
530.56	1472.49
530.91	1485.34
531.27	1497.93
531.63	1510.40
531.99	1522.94
532.35	1534.81
532.71	1546.91
533.07	1559.33
533.42	1571.19
533.78	1582.98
534.14	1594.83
534.50	1605.80
534.86	1617.05
535.21	1627.57
535.57	1638.85
535.93	1649.67
536.29	1660.43
536.65	1671.54
537.00	1682.29
537.36	1693.42
537.72	1704.07
538.08	1715.01
538.44	1725.66
538.79	1736.35
539.15	1746.80
539.51	1757.08
539.87	1768.03
540.22	1778.46
540.58	1789.07
540.94	1799.60
541.29	1809.50
541.65	1818.88
542.01	1829.02
542.37	1838.70
542.72	1848.64
543.08	1858.10
543.44	1868.26
543.79	1877.31
544.15	1886.40
544.51	1896.01
544.87	1905.51
545.22	1914.36
545.58	1922.96
545.94	1931.52
546.29	1939.74
546.65	1947.96
547.01	1956.13
547.36	1963.50
547.72	1971.07
548.07	1978.57
548.43	1986.19
548.79	1993.84
549.14	2001.69
549.50	2009.92
549.86	2017.58
550.21	2024.71
550.57	2032.08
550.92	2038.81
551.28	2046.09
551.64	2053.22
551.99	2060.46
552.35	2067.50
552.70	2074.31
553.06	2080.79
553.41	2086.87
553.77	2093.25
554.13	2099.24
554.48	2105.94
554.84	2112.86
555.19	2119.14
555.55	2125.41
555.90	2131.53
556.26	2138.01
556.61	2143.89
556.97	2148.59
557.32	2154.24
557.68	2160.46
558.03	2166.20
558.39	2171.28
558.74	2177.18
559.10	2182.63
559.45	2188.19
559.81	2193.57
560.16	2199.04
560.52	2205.00
560.87	2211.32
561.23	2217.16
561.58	2223.99
561.94	2229.07
562.29	2233.74
562.64	2239.72
563.00	2245.15
563.35	2250.66
563.71	2256.70
564.06	2262.39
564.42	2268.28
564.77	2273.54
565.12	2278.62
565.48	2283.82
565.83	2289.51
566.19	2294.97
566.54	2300.46
566.89	2304.97
567.25	2309.50
567.60	2315.18
567.96	2320.22
568.31	2324.81
568.66	2329.11
569.02	2333.04
569.37	2336.97
569.72	2341.46
570.08	2345.26
570.43	2348.37
570.78	2351.55
571.14	2353.96
571.49	2357.11
571.84	2360.75
572.20	2363.56
572.55	2366.74
572.90	2368.89
573.26	2371.71
573.61	2374.22
573.96	2376.38
574.31	2378.52
574.67	2380.56
575.02	2381.49
575.37	2383.10
575.72	2383.90
576.08	2385.52
576.43	2385.81
576.78	2386.59
577.13	2388.44
577.49	2389.47
577.84	2390.90
578.19	2392.47
578.54	2393.35
578.90	2394.30
579.25	2394.28
579.60	2394.60
579.95	2394.20
580.30	2394.57
580.66	2394.05
581.01	2392.40
581.36	2390.15
581.71	2388.92
582.06	2388.14
582.42	2387.39
582.77	2385.27
583.12	2383.79
583.47	2382.57
583.82	2382.04
584.17	2380.78
584.53	2378.70
584.88	2376.93
585.23	2375.08
585.58	2372.77
585.93	2370.79
586.28	2368.78
586.63	2366.65
586.98	2364.43
587.34	2362.55
587.69	2360.47
588.04	2358.61
588.39	2357.42
588.74	2355.31
589.09	2352.93
589.44	2349.86
589.79	2347.77
590.14	2346.09
590.49	2343.56
590.84	2340.02
591.19	2337.18
591.54	2334.13
591.89	2330.23
592.25	2327.09
592.60	2323.00
592.95	2319.06
593.30	2315.06
593.65	2310.87
594.00	2306.61
594.35	2303.77
594.70	2299.26
595.05	2294.63
595.40	2289.19
595.75	2283.66
596.10	2280.05
596.45	2275.25
596.80	2270.84
597.15	2265.42
597.50	2259.62
597.85	2254.82
598.19	2249.68
598.54	2243.95
598.89	2238.85
599.24	2234.40
599.59	2228.26
599.94	2222.75
600.29	2216.93
600.64	2211.06
600.99	2204.36
601.34	2198.88
601.69	2191.84
602.04	2185.50
602.39	2179.00
602.74	2173.11
603.08	2167.67
603.43	2161.21
603.78	2154.47
604.13	2147.50
604.48	2140.56
604.83	2134.50
605.18	2128.19
605.53	2121.17
605.87	2114.26
606.22	2107.61
606.57	2099.80
606.92	2092.18
607.27	2085.18
607.62	2078.69
607.96	2071.75
608.31	2065.33
608.66	2057.74
609.01	2050.41
609.36	2043.37
609.70	2035.78
610.05	2028.10
610.40	2019.94
610.75	2011.78
611.10	2004.21
611.44	1995.44
611.79	1986.82
612.14	1976.83
612.49	1966.48
612.83	1957.44
613.18	1948.24
613.53	1938.94
613.88	1929.59
614.22	1920.93
614.57	1911.21
614.92	1900.75
615.27	1890.94
615.61	1881.07
615.96	1871.40
616.31	1861.82
616.65	1852.52
617.00	1842.83
617.35	1833.28
617.70	1823.57
618.04	1813.60
618.39	1803.41
618.74	1793.68
619.08	1784.15
619.43	1775.55
619.78	1767.26
620.12	1758.56
620.47	1748.97
620.82	1738.72
621.16	1728.92
621.51	1719.06
621.85	1709.23
622.20	1698.82
622.55	1688.18
622.89	1678.32
623.24	1668.59
623.59	1658.93
623.93	1648.80
624.28	1639.03
624.62	1628.87
624.97	1618.61
625.32	1608.96
625.66	1600.19
626.01	1591.47
626.35	1582.06
626.70	1572.07
627.04	1562.08
627.39	1552.11
627.73	1542.81
628.08	1533.88
628.43	1524.30
628.77	1515.06
629.12	1506.19
629.46	1498.35
629.81	1489.86
630.15	1480.29
630.50	1470.62
630.84	1460.18
631.19	1450.44
631.53	1441.24
631.88	1431.19
632.22	1421.28
632.57	1411.94
632.91	1401.75
633.26	1392.01
633.60	1382.42
633.95	1373.10
634.29	1363.75
634.64	1354.44
634.98	1344.66
635.32	1335.35
635.67	1326.81
636.01	1317.65
636.36	1307.94
636.70	1298.57
637.05	1289.31
637.39	1280.46
637.73	1271.89
638.08	1264.42
638.42	1256.12
638.77	1247.29
639.11	1239.11
639.45	1231.33
639.80	1222.62
640.14	1214.02
640.49	1205.14
640.83	1196.48
641.17	1188.39
641.52	1180.21
641.86	1171.65
642.20	1163.78
642.55	1155.20
642.89	1146.41
643.23	1137.90
643.58	1129.93
643.92	1120.91
644.26	1112.36
644.61	1103.94
644.95	1095.22
645.29	1085.99
645.64	1076.91
645.98	1068.63
646.32	1060.75
646.66	1052.25
647.01	1044.07
647.35	1036.08
647.69	1027.90
648.04	1019.56
648.38	1010.70
648.72	1001.99
649.06	993.58
649.41	985.53
649.75	977.75
650.09	969.90
650.43	961.83
650.78	953.65
651.12	946.05
651.46	938.70
651.80	931.49
652.14	924.20
652.49	916.72
652.83	909.56
653.17	901.82
653.51	894.24
653.85	887.17
654.20	879.97
654.54	872.48
654.88	865.36
655.22	858.30
655.56	851.54
655.90	844.88
656.25	838.30
656.59	831.37
656.93	824.39
657.27	817.44
657.61	810.70
657.95	804.66
658.29	798.83
658.64	792.79
658.98	786.43
659.32	779.94
659.66	773.80
660.00	767.46
660.34	761.56
660.68	755.55
661.02	749.33
661.36	743.54
661.70	737.82
662.05	732.15
662.39	726.70
662.73	721.28
663.07	715.96
663.41	710.53
663.75	704.95
664.09	699.36
664.43	693.99
664.77	688.68
665.11	682.87
665.45	677.10
665.79	671.35
666.13	665.82
666.47	660.45
666.81	655.16
667.15	649.89
667.49	644.79
667.83	639.62
668.17	634.45
668.51	629.35
668.85	624.48
669.19	619.69
669.53	614.77
669.87	609.79
670.21	605.05
670.55	600.35
670.89	596.01
671.23	591.84
671.57	587.55
671.91	583.28
672.25	579.28
672.58	575.18
672.92	571.17
673.26	567.29
673.60	563.51
673.94	559.75
674.28	556.25
674.62	552.57
674.96	548.89
675.30	545.43
675.64	541.82
675.97	538.30
676.31	534.76
676.65	531.29
676.99	527.91
677.33	524.13
677.67	520.57
678.01	516.76
678.34	513.14
678.68	509.72
679.02	506.17
679.36	502.53
679.70	498.97
680.04	495.56
680.37	492.21
680.71	488.95
681.05	485.76
681.39	482.58
681.73	479.39
682.06	476.42
682.40	473.38
682.74	470.28
683.08	467.13
683.42	464.02
683.75	461.08
684.09	458.12
684.43	455.38
684.77	452.51
685.10	449.76
685.44	446.95
685.78	444.05
686.12	441.37
686.45	438.65
686.79	436.06
687.13	433.52
687.46	430.87
687.80	428.26
688.14	425.54
688.48	422.96
688.81	420.42
689.15	417.90
689.49	415.32
689.82	412.87
690.16	410.34
690.50	407.97
690.83	405.49
691.17	403.04
691.51	400.67
691.84	398.48
692.18	396.32
692.52	394.15
692.85	392.09
693.19	390.00
693.52	387.95
693.86	385.73
694.20	383.62
694.53	381.61
694.87	379.48
695.21	377.40
695.54	375.30
695.88	373.19
696.21	370.98
696.55	368.92
696.88	366.92
697.22	365.01
697.56	363.15
697.89	361.38
698.23	359.66
698.56	357.91
698.90	356.16
699.23	354.26
699.57	352.47
699.90	350.67
700.24	348.87
700.58	347.11
700.91	345.56
701.25	344.05
701.58	342.50
701.92	340.92
702.25	339.37
702.59	337.75
702.92	336.27
703.26	334.80
703.59	333.41
703.93	332.18
704.26	330.80
704.60	329.36
704.93	327.85
705.26	326.43
705.60	325.03
705.93	323.59
706.27	322.33
706.60	321.10
706.94	319.90
707.27	318.58
707.61	317.29
707.94	315.95
708.27	314.47
708.61	313.04
708.94	311.73
709.28	310.46
709.61	309.28
709.94	308.09
710.28	306.93
710.61	305.76
710.95	304.38
711.28	303.31
711.61	302.13
711.95	301.04
712.28	299.84
712.61	298.67
712.95	297.62
713.28	296.56
713.61	295.41
713.95	294.24
714.28	293.26
714.61	292.22
714.95	291.25
715.28	290.28
715.61	289.26
715.95	288.31
716.28	287.37
716.61	286.40
716.95	285.46
717.28	284.55
717.61	283.62
717.94	282.73
718.28	281.73
718.61	280.88
718.94	280.01
719.27	279.18
719.61	278.38
719.94	277.53
720.27	276.61
720.60	275.76
720.94	275.02
721.27	274.31
721.60	273.66
721.93	272.93
722.27	272.29
722.60	271.67
722.93	270.99
723.26	270.36
723.59	269.72
723.93	269.08
724.26	268.43
724.59	267.82
724.92	267.26
725.25	266.72
725.59	266.16
725.92	265.61
726.25	265.07
726.58	264.52
726.91	263.92
727.24	263.41
727.57	262.91
727.91	262.32
728.24	261.75
728.57	261.15
728.90	260.65
729.23	260.07
729.56	259.68
729.89	259.14
730.22	258.57
730.55	258.03
730.89	257.52
731.22	257.02
731.55	256.48
731.88	255.95
732.21	255.41
732.54	254.87
732.87	254.39
733.20	253.91
733.53	253.42
733.86	253.01
734.19	252.52
734.52	252.13
734.85	251.85
735.18	251.42
735.51	251.07
735.84	250.63
736.17	250.23
736.50	249.70
736.83	249.54
737.16	249.15
737.49	248.77
737.82	248.33
738.15	247.98
738.48	247.63
738.81	247.26
739.14	246.89
739.47	246.53
739.80	246.18
740.13	245.84
740.46	245.45
740.79	245.06
741.12	244.75
741.45	244.37
741.78	243.93
742.11	243.67
742.44	243.27
742.77	243.00
743.10	242.67
743.43	242.32
743.75	241.77
744.08	241.77
744.41	241.42
744.74	241.07
745.07	240.74
745.40	240.45
745.73	240.20
746.06	239.88
746.39	239.61
746.71	239.24
747.04	238.90
747.37	238.61
747.70	238.35
748.03	238.02
748.36	237.75
748.68	237.43
749.01	237.08
749.34	236.82
749.67	236.50
750.00	236.24
750.33	236.14
750.65	235.87
750.98	235.35
751.31	235.15
751.64	234.96
751.97	234.82
752.29	234.53
752.62	234.20
752.95	233.99
753.28	233.71
753.60	233.54
753.93	233.42
754.26	233.21
754.59	232.94
754.91	232.75
755.24	232.52
755.57	232.29
755.90	232.07
756.22	231.83
756.55	231.59
756.88	231.38
757.20	231.05
757.53	230.83
757.86	230.58
758.19	230.41
758.51	230.20
758.84	229.90
759.17	229.73
759.49	229.59
759.82	229.49
760.15	229.38
760.47	229.19
760.80	228.94
761.13	228.79
761.45	228.63
761.78	228.48
762.11	228.30
762.43	228.10
762.76	227.89
763.08	227.74
763.41	227.66
763.74	227.46
764.06	227.30
764.39	227.13
764.71	226.98
765.04	226.80
765.37	226.63
765.69	226.49
766.02	226.36
766.34	226.22
766.67	225.96
767.00	225.84
767.32	225.80
767.65	225.78
767.97	225.63
768.30	225.52
768.62	225.37
768.95	225.23
769.27	225.14
769.60	225.07
769.92	224.95
770.25	224.73
770.57	224.62
770.90	224.48
771.22	224.35
771.55	224.27
771.87	224.18
772.20	224.10
772.52	224.16
772.85	224.28
773.17	224.15
773.50	224.06
773.82	223.95
774.15	223.76
774.47	223.56
774.80	223.47
775.12	223.37
775.45	223.27
775.77	223.20
776.09	223.12
776.42	223.03
776.74	223.00
777.07	222.93
777.39	222.86
777.72	222.76
778.04	222.74
778.36	222.63
778.69	222.54
779.01	222.49
779.33	222.21
779.66	221.88
779.98	221.82
780.31	221.77
780.63	221.79
780.95	221.72
781.28	221.63
781.60	221.55
781.92	221.49
782.25	221.43
782.57	221.33
782.89	221.28
783.22	221.22
783.54	221.08
783.86	221.05
784.19	220.97
784.51	220.98
784.83	220.92
785.16	220.85
785.48	220.80
785.80	220.68
786.12	220.67
786.45	220.63
786.77	220.61
787.09	220.53
787.42	220.37
787.74	220.33
788.06	220.27
788.38	220.19
788.71	220.04
789.03	220.01
789.35	220.00
789.67	219.89
789.99	219.85
790.32	219.80
790.64	219.77
790.96	219.86
791.28	219.73
791.61	219.62
791.93	219.61
792.25	219.57
792.57	219.74
792.89	219.65
793.21	219.61
793.54	219.52
793.86	219.44
794.18	219.40
794.50	219.30
794.82	219.27
795.14	219.26
795.47	219.31
795.79	219.28
796.11	219.20
796.43	219.14
796.75	219.07
797.07	219.03
797.39	218.95
797.71	218.77
798.04	218.78
798.36	218.77
798.68	218.70
799.00	218.64
799.32	218.49
799.64	218.48
799.96	218.48
800.28	218.48
800.60	218.45
800.92	218.40
801.24	218.37
801.56	218.37
801.89	218.31
802.21	218.30
802.53	218.20
802.85	218.22
803.17	218.33
803.49	218.24
803.81	218.21
804.13	218.20
804.45	218.19
804.77	218.17
805.09	218.14
805.41	218.11
805.73	218.06
806.05	217.96
806.37	217.92
806.69	217.84
807.01	217.82
807.33	217.82
807.65	217.73
807.97	217.79
808.28	217.71
808.60	217.70
808.92	217.65
809.24	217.79
809.56	217.75
809.88	217.67
810.20	217.72
810.52	217.75
810.84	217.71
811.16	217.69
811.48	217.65
811.80	217.69
812.12	217.65
812.43	217.65
812.75	217.66
813.07	217.63
813.39	217.63
813.71	217.58
814.03	217.51
814.35	217.50
814.67	217.40
814.98	217.39
815.30	217.35
815.62	217.31
815.94	217.14
816.26	217.15
816.58	217.07
816.89	217.04
817.21	216.97
817.53	216.95
817.85	216.92
818.17	216.90
818.48	216.83
818.80	216.85
819.12	216.78
819.44	216.70
819.76	216.65
820.07	216.61
820.39	216.58
820.71	216.64
821.03	216.65
821.34	216.62
821.66	216.63
821.98	216.62
822.30	216.57
822.61	216.68
822.93	216.65
823.25	216.61
823.57	216.57
823.88	216.62
824.20	216.61
824.52	216.60
824.83	216.62
825.15	216.56
825.47	216.53
825.79	216.55
826.10	216.57
826.42	216.55
826.74	216.56
827.05	216.55
827.37	216.51
827.69	216.45
828.00	216.43
828.32	216.45
828.64	216.39
828.95	216.50
829.27	216.42
829.58	216.37
829.90	216.41
830.22	216.41
830.53	216.30
830.85	216.26
831.17	216.22
831.48	216.15
831.80	216.13
832.11	216.11
832.43	216.10
832.75	216.09
833.06	216.22
833.38	216.17
833.69	216.16
834.01	216.15
834.32	216.16
834.64	216.18
834.96	216.13
835.27	216.15
835.59	216.06
835.90	215.99
836.22	216.01
836.53	215.93
836.85	215.93
837.16	216.12
837.48	216.10
837.79	216.13
838.11	216.14
838.42	216.16
838.74	216.14
839.05	216.08
839.37	216.05
839.68	215.89
840.00	215.86
840.31	215.90
840.63	215.86
840.94	215.84
841.26	215.80
841.57	215.81
841.88	215.80
842.20	215.77
842.51	215.79
842.83	215.78
843.14	215.99
843.46	215.96
843.77	215.84
844.08	215.83
844.40	215.78
844.71	215.74
845.03	215.75
845.34	215.74
845.65	215.75
845.97	215.74
846.28	215.77
846.60	215.80
846.91	215.70
847.22	215.73
847.54	215.77
847.85	215.78
848.16	215.73
848.48	215.69
848.79	215.77
849.10	215.74
849.42	215.71
849.73	215.51
850.04	215.50
850.36	215.45
850.67	215.49
850.98	215.49
851.30	215.52
851.61	215.50
851.92	215.49
852.23	215.52
852.55	215.54
852.86	215.55
853.17	215.57
853.49	215.63
853.80	215.63
854.11	215.64
854.42	215.64
854.74	215.61
855.05	215.64
855.36	215.53
855.67	215.55
855.99	215.53
856.30	215.78
856.61	215.75
856.92	215.76
857.23	215.77
857.55	215.73
857.86	215.69
858.17	215.72
858.48	215.70
858.79	215.70
859.11	215.69
859.42	215.67
859.73	215.63
860.04	215.62
860.35	215.54
860.66	215.47
860.98	215.46
861.29	215.51
861.60	215.48
861.91	215.52
862.22	215.48
862.53	215.45
862.84	215.20
863.16	215.26
863.47	215.22
863.78	215.19
864.09	215.21
864.40	215.23
864.71	215.24
865.02	215.25
865.33	215.21
865.64	215.16
865.95	215.15
866.27	215.29
866.58	215.27
866.89	215.33
867.20	215.33
867.51	215.28
867.82	215.27
868.13	215.35
868.44	215.31
868.75	215.37
869.06	215.40
869.37	215.42
869.68	215.36
869.99	215.38
870.30	215.37
870.61	215.36
870.92	215.36
871.23	215.28
871.54	215.31
871.85	215.37
872.16	215.41
872.47	215.41
872.78	215.31
873.09	215.32
873.40	215.30
873.71	215.33
874.02	215.34
874.33	215.29
874.64	215.22
874.95	215.25
875.26	215.17
875.56	215.18
875.87	215.16
876.18	215.14
876.49	215.36
876.80	215.33
877.11	215.32
877.42	215.32
877.73	215.37
878.04	215.34
878.35	215.31
878.66	215.32
878.96	215.32
879.27	215.26
879.58	215.24
879.89	215.21
880.20	215.25
880.51	215.25
880.82	215.27
881.12	215.28
881.43	215.25
881.74	215.26
882.05	215.25
882.36	215.28
882.67	215.30
882.97	215.04
883.28	215.05
883.59	215.03
883.90	215.07
884.21	215.07
884.51	215.04
884.82	215.02
885.13	215.00
885.44	215.01
885.74	214.98
886.05	214.98
886.36	215.01
886.67	214.95
886.98	215.07
887.28	215.10
887.59	215.11
887.90	215.12
888.20	215.10
888.51	215.12
888.82	215.07
889.13	215.11
889.43	215.29
889.74	215.29
890.05	215.31
890.35	215.25
890.66	215.21
890.97	215.22
891.28	215.19
891.58	215.18
891.89	215.18
892.20	215.19
892.50	215.17
892.81	215.16
893.12	215.17
893.42	215.07
893.73	215.08
894.04	215.07
894.34	215.05
894.65	215.04
894.95	215.01
895.26	215.01
895.57	215.06
895.87	214.92
896.18	214.94
896.48	214.96
896.79	214.97
897.10	215.03
897.40	215.03
897.71	215.08
898.01	215.09
898.32	215.09
898.63	215.09
898.93	215.11
899.24	215.10
899.54	215.08
899.85	215.04
900.15	214.99
900.46	214.97
900.76	215.00
901.07	215.00
901.38	215.00
901.68	215.01
901.99	214.95
902.29	214.95
902.60	214.93
902.90	214.89
903.21	214.88
903.51	214.87
903.82	214.89
904.12	214.88
904.43	214.88
904.73	214.88
905.03	214.88
905.34	215.07
905.64	215.06
905.95	215.07
906.25	215.07
906.56	215.09
906.86	215.13
907.17	215.08
907.47	215.07
907.77	215.04
908.08	215.03
908.38	215.00
908.69	214.99
908.99	215.02
909.30	215.05
909.60	215.05
909.90	215.04
910.21	215.01
910.51	214.94
910.81	214.95
911.12	214.95
911.42	214.95
911.73	214.72
912.03	214.73
912.33	214.77
912.64	214.78
912.94	214.76
913.24	214.70
913.55	214.74
913.85	214.75
914.15	214.79
914.46	214.82
914.76	214.82
915.06	214.81
915.37	214.77
915.67	214.73
915.97	214.74
916.27	214.69
916.58	214.68
916.88	214.71
917.18	214.68
917.49	214.81
917.79	214.81
918.09	214.85
918.39	214.90
918.70	214.88
919.00	214.87
919.30	214.96
919.60	214.95
919.91	214.93
920.21	214.93
920.51	214.89
920.81	214.86
921.12	214.87
921.42	214.88
921.72	214.89
922.02	214.93
922.32	214.96
922.63	214.95
922.93	215.04
923.23	215.05
923.53	215.06
923.83	214.93
924.13	214.92
924.44	214.90
924.74	214.94
925.04	214.98
925.34	214.97
925.64	214.88
925.94	214.88
926.24	214.99
926.55	214.99
926.85	215.03
927.15	215.03
927.45	215.03
927.75	215.02
928.05	215.03
928.35	215.02
928.65	215.04
928.95	215.06
929.26	214.97
929.56	215.00
929.86	215.02
930.16	214.99
930.46	214.97
930.76	215.01
931.06	214.93
931.36	214.86
931.66	214.87
931.96	214.91
932.26	214.91
932.56	214.80
932.86	214.82
933.16	214.80
933.46	214.75
933.76	214.73
934.06	214.77
934.36	214.82
934.66	214.79
934.96	214.76
935.26	214.77
935.56	214.82
935.86	214.76
936.16	214.70
936.46	214.70
936.76	214.71
937.06	214.64
937.36	214.68
937.66	214.70
937.96	214.71
938.26	214.65
938.56	214.65
938.86	214.66
939.16	214.69
939.46	214.71
939.76	214.75
940.06	214.74
940.35	214.70
940.65	214.62
940.95	214.65
941.25	214.59
941.55	214.57
941.85	214.58
942.15	214.62
942.45	214.70
942.75	214.71
943.04	214.72
943.34	214.77
943.64	214.73
943.94	214.70
944.24	214.72
944.54	214.74
944.84	214.76
945.13	214.75
945.43	214.70
945.73	214.69
946.03	214.68
946.33	214.63
946.62	214.59
946.92	214.58
947.22	214.57
947.52	214.61
947.82	214.66
948.11	214.62
948.41	214.57
948.71	214.50
949.01	214.50
949.31	214.49
949.60	214.47
949.90	214.48
950.20	214.48
950.50	214.48
950.79	214.47
951.09	214.48
951.39	214.46
951.69	214.42
951.98	214.47
952.28	214.47
952.58	214.48
952.87	214.51
953.17	214.56
953.47	214.52
953.76	214.51
954.06	214.42
954.36	214.42
954.66	214.43
954.95	214.50
955.25	214.52
955.55	214.52
955.84	214.48
956.14	214.51
956.44	214.49
956.73	214.43
957.03	214.45
957.32	214.47
957.62	214.49
957.92	214.55
958.21	214.49
958.51	214.75
958.81	214.81
959.10	214.79
959.40	214.82
959.69	214.85
959.99	214.88
960.29	214.92
960.58	214.93
960.88	215.01
961.17	214.98
961.47	214.99
961.76	215.01
962.06	215.05
962.36	215.01
962.65	215.05
962.95	215.09
963.24	215.06
963.54	215.05
963.83	215.05
964.13	215.03
964.42	215.00
964.72	214.83
965.01	214.83
965.31	214.85
965.60	214.79
965.90	214.92
966.19	214.88
966.49	214.89
966.78	214.86
967.08	214.84
967.37	214.84
967.67	214.82
967.96	214.84
968.26	214.84
968.55	214.89
968.85	214.87
969.14	214.86
969.43	214.88
969.73	214.89
970.02	214.89
970.32	214.91
970.61	214.90
970.91	214.84
971.20	214.79
971.49	214.79
971.79	214.84
972.08	214.71
972.38	214.73
972.67	214.73
972.96	214.79
973.26	214.76
973.55	214.81
973.85	214.77
974.14	214.76
974.43	214.77
974.73	214.69
975.02	214.69
975.31	214.71
975.61	214.70
975.90	214.65
976.19	214.61
976.49	214.61
976.78	214.67
977.07	214.66
977.37	214.69
977.66	214.67
977.95	214.65
978.24	214.64
978.54	214.71
978.83	214.67
979.12	214.61
979.42	214.59
979.71	214.53
980.00	214.57
980.29	214.55
980.59	214.52
980.88	214.56
981.17	214.53
981.46	214.55
981.76	214.54
982.05	214.60
982.34	214.64
982.63	214.64
982.93	214.65
983.22	214.73
983.51	214.75
983.80	214.78
984.09	214.78
984.39	214.78
984.68	214.69
984.97	214.71
985.26	214.71
985.55	214.74
985.85	214.72
986.14	214.75
986.43	214.79
986.72	214.78
987.01	214.77
987.30	214.78
987.59	214.76
987.89	214.79
988.18	214.73
988.47	214.72
988.76	214.69
989.05	214.65
989.34	214.60
989.63	214.64
989.92	214.63
990.22	214.60
990.51	214.60
990.80	214.63
991.09	214.68
991.38	214.69
991.67	214.68
991.96	214.68
992.25	214.68
992.54	214.63
992.83	214.66
993.12	214.64
993.41	214.68
993.70	214.73
993.99	214.75
994.28	214.78
994.58	214.80
994.87	214.77
995.16	214.76
995.45	214.73
995.74	214.67
996.03	214.68
996.32	214.72
996.61	214.78
996.90	214.76
997.19	214.73
997.48	214.76
997.77	214.74
998.06	214.75
998.34	214.72
998.63	214.72
998.92	214.71
999.21	214.76
999.50	214.76
999.79	214.72
1000.08	214.72
1000.37	214.71
1000.66	214.69
1000.95	214.76
1001.24	214.80
1001.53	214.84
1001.82	214.84
1002.11	214.80
1002.40	214.80
1002.68	214.81
1002.97	214.93
1003.26	214.89
1003.55	214.84
1003.84	214.84
1004.13	214.92
1004.42	214.90
1004.71	214.92
1004.99	214.91
1005.28	214.95
1005.57	214.91
1005.86	214.87
1006.15	214.85
1006.44	214.83
1006.72	214.85
1007.01	214.82
1007.30	214.79
1007.59	214.79
1007.88	214.75
1008.17	214.76
1008.45	214.73
1008.74	214.67
1009.03	214.59
1009.32	214.61
1009.60	214.62
1009.89	214.62
1010.18	214.55
1010.47	214.56
1010.76	214.54
1011.04	214.50
1011.33	214.54
1011.62	214.57
1011.91	214.58
1012.19	214.56
1012.48	214.57
1012.77	214.56
1013.05	214.67
1013.34	214.67
1013.63	214.65
1013.92	214.66
1014.20	214.64
1014.49	214.61
1014.78	214.62
1015.06	214.59
1015.35	214.57
1015.64	214.59
1015.92	214.63
1016.21	214.64
1016.50	214.65
1016.78	214.70
1017.07	214.73
1017.36	214.64
1017.64	214.61
1017.93	214.62
1018.22	214.61
1018.50	214.61
1018.79	214.60
1019.08	214.49
1019.36	214.51
1019.65	214.51
1019.93	214.59
1020.22	214.64
1020.51	214.78
1020.79	214.76
1021.08	214.14
1021.36	214.41
1021.65	214.37
1021.94	214.54
1022.22	214.85
1022.51	214.32
1022.79	215.80
1023.08	215.10
1023.36	217.07
1023.65	213.92
>>>>>End Processed Spectral Data<<<<<
