SpectraSuite Data File
++++++++++++++++++++++++++++++++++++
Date: Tue Jan 29 15:56:11 EST 2013
User: group
Dark Spectrum Present: No
Reference Spectrum Present: No
Number of Sampled Component Spectra: 1
Spectrometers: USB2E7196
Integration Time (usec): 65000 (USB2E7196)
Spectra Averaged: 100 (USB2E7196)
Boxcar Smoothing: 10 (USB2E7196)
Correct for Electrical Dark: No (USB2E7196)
Strobe/Lamp Enabled: No (USB2E7196)
Correct for Detector Non-linearity: No (USB2E7196)
Correct for Stray Light: No (USB2E7196)
Number of Pixels in Processed Spectrum: 2048
>>>>>Begin Processed Spectral Data<<<<<
339.09	0.00
339.48	202.83
339.86	204.44
340.24	205.64
340.63	207.42
341.01	211.25
341.39	209.37
341.78	210.96
342.16	213.09
342.54	212.76
342.93	201.97
343.31	212.19
343.69	212.75
344.07	213.21
344.46	213.67
344.84	214.04
345.22	214.23
345.60	214.52
345.99	214.76
346.37	214.91
346.75	215.05
347.13	215.12
347.52	215.21
347.90	215.32
348.28	215.40
348.66	215.49
349.05	215.44
349.43	215.51
349.81	215.61
350.19	215.70
350.57	215.77
350.96	215.87
351.34	215.99
351.72	216.09
352.10	216.21
352.48	216.29
352.87	216.37
353.25	216.44
353.63	216.52
354.01	216.56
354.39	216.58
354.77	216.67
355.15	216.78
355.54	216.81
355.92	216.84
356.30	216.93
356.68	217.13
357.06	217.21
357.44	217.26
357.82	217.30
358.20	217.34
358.58	217.42
358.97	217.48
359.35	217.54
359.73	217.62
360.11	217.65
360.49	217.71
360.87	217.76
361.25	217.84
361.63	217.91
362.01	217.97
362.39	218.04
362.77	218.10
363.15	218.14
363.53	218.19
363.91	218.23
364.29	218.21
364.67	218.04
365.05	218.06
365.43	218.06
365.81	218.10
366.19	218.18
366.57	218.23
366.95	218.22
367.33	218.18
367.71	218.20
368.09	218.25
368.47	218.22
368.85	218.20
369.23	218.21
369.61	218.15
369.99	218.20
370.37	218.16
370.75	218.23
371.13	218.14
371.51	218.09
371.89	218.04
372.27	218.02
372.65	218.01
373.03	217.98
373.41	217.98
373.78	217.93
374.16	217.83
374.54	217.75
374.92	217.68
375.30	217.65
375.68	217.56
376.06	217.51
376.44	217.48
376.82	217.44
377.19	217.38
377.57	217.34
377.95	217.21
378.33	217.19
378.71	216.98
379.09	216.99
379.47	216.95
379.84	216.91
380.22	216.85
380.60	216.78
380.98	216.73
381.36	216.64
381.73	216.58
382.11	216.56
382.49	216.52
382.87	216.46
383.25	216.42
383.62	216.63
384.00	216.57
384.38	216.55
384.76	216.57
385.13	216.65
385.51	216.62
385.89	216.59
386.27	216.53
386.64	216.54
387.02	216.50
387.40	216.49
387.78	216.51
388.15	216.53
388.53	216.49
388.91	216.50
389.29	216.53
389.66	216.58
390.04	216.54
390.42	216.54
390.79	216.57
391.17	216.56
391.55	216.30
391.92	216.25
392.30	216.22
392.68	216.14
393.05	216.08
393.43	216.11
393.81	216.12
394.18	216.10
394.56	216.14
394.94	216.17
395.31	216.14
395.69	216.14
396.06	216.16
396.44	216.19
396.82	216.17
397.19	216.30
397.57	216.26
397.95	216.33
398.32	216.31
398.70	216.34
399.07	216.44
399.45	216.47
399.82	216.55
400.20	216.58
400.58	216.65
400.95	216.63
401.33	216.70
401.70	216.91
402.08	217.01
402.45	217.06
402.83	217.20
403.20	217.34
403.58	217.44
403.95	217.56
404.33	217.75
404.71	217.89
405.08	218.12
405.46	218.29
405.83	218.48
406.21	218.70
406.58	218.93
406.96	219.16
407.33	219.40
407.70	219.69
408.08	220.18
408.45	220.54
408.83	220.90
409.20	221.23
409.58	221.51
409.95	221.97
410.33	222.44
410.70	222.87
411.08	223.41
411.45	223.96
411.82	224.54
412.20	225.16
412.57	225.97
412.95	226.50
413.32	227.30
413.69	228.10
414.07	228.91
414.44	229.88
414.82	230.81
415.19	231.98
415.56	233.11
415.94	234.19
416.31	235.56
416.68	236.87
417.06	238.43
417.43	239.91
417.81	241.58
418.18	243.33
418.55	245.19
418.93	247.10
419.30	249.12
419.67	251.25
420.04	253.46
420.42	255.74
420.79	258.46
421.16	261.10
421.54	263.88
421.91	266.77
422.28	269.73
422.66	272.87
423.03	275.96
423.40	279.20
423.77	282.65
424.15	286.13
424.52	289.86
424.89	293.82
425.26	297.74
425.64	301.45
426.01	305.55
426.38	309.82
426.75	314.21
427.13	318.77
427.50	323.53
427.87	328.54
428.24	333.53
428.61	338.25
428.99	343.57
429.36	349.31
429.73	355.02
430.10	360.67
430.47	366.49
430.85	372.57
431.22	378.98
431.59	385.84
431.96	392.42
432.33	399.65
432.70	406.64
433.08	414.83
433.45	422.61
433.82	430.32
434.19	438.83
434.56	447.23
434.93	455.26
435.30	463.16
435.68	471.87
436.05	480.47
436.42	489.04
436.79	496.88
437.16	505.30
437.53	514.19
437.90	522.99
438.27	531.59
438.64	540.41
439.01	548.56
439.38	555.89
439.75	562.92
440.13	571.01
440.50	578.65
440.87	584.78
441.24	591.11
441.61	598.09
441.98	603.26
442.35	609.21
442.72	615.19
443.09	621.07
443.46	624.63
443.83	627.04
444.20	629.15
444.57	632.17
444.94	633.56
445.31	634.93
445.68	636.26
446.05	636.90
446.42	636.12
446.79	635.21
447.16	634.14
447.53	633.39
447.90	630.12
448.27	626.88
448.64	622.37
449.01	619.09
449.37	613.43
449.74	607.91
450.11	601.31
450.48	594.19
450.85	586.93
451.22	580.71
451.59	574.83
451.96	569.23
452.33	561.67
452.70	554.87
453.07	546.71
453.43	538.39
453.80	530.38
454.17	522.80
454.54	515.61
454.91	507.71
455.28	500.09
455.65	493.06
456.02	485.98
456.38	480.00
456.75	472.57
457.12	466.34
457.49	460.18
457.86	454.31
458.23	449.21
458.59	443.68
458.96	438.02
459.33	432.99
459.70	427.93
460.07	423.85
460.43	419.17
460.80	414.76
461.17	411.00
461.54	407.04
461.91	403.15
462.27	399.15
462.64	395.89
463.01	392.20
463.38	388.62
463.74	385.06
464.11	381.92
464.48	379.16
464.85	376.18
465.21	373.84
465.58	371.29
465.95	368.24
466.32	365.67
466.68	363.16
467.05	360.66
467.42	358.21
467.78	355.66
468.15	353.25
468.52	351.47
468.88	349.07
469.25	346.98
469.62	345.30
469.98	343.50
470.35	341.76
470.72	340.17
471.08	338.48
471.45	337.02
471.82	335.61
472.18	334.03
472.55	332.88
472.92	331.60
473.28	330.48
473.65	329.46
474.02	328.45
474.38	327.63
474.75	326.96
475.11	326.18
475.48	325.67
475.85	325.20
476.21	324.77
476.58	324.46
476.94	324.25
477.31	324.01
477.67	323.80
478.04	323.70
478.41	323.69
478.77	323.88
479.14	323.89
479.50	324.01
479.87	324.32
480.23	324.73
480.60	325.04
480.96	325.37
481.33	325.99
481.69	326.56
482.06	327.11
482.42	327.60
482.79	328.20
483.15	328.96
483.52	329.96
483.88	330.81
484.25	331.76
484.61	332.80
484.98	333.84
485.34	335.18
485.71	336.53
486.07	337.97
486.44	339.27
486.80	340.89
487.17	342.58
487.53	344.43
487.90	346.26
488.26	348.23
488.62	350.35
488.99	352.37
489.35	354.56
489.72	356.91
490.08	359.39
490.44	361.97
490.81	364.69
491.17	367.40
491.54	370.41
491.90	373.41
492.26	376.62
492.63	379.98
492.99	383.49
493.36	387.16
493.72	391.02
494.08	395.04
494.45	399.24
494.81	403.61
495.17	408.06
495.54	412.76
495.90	417.58
496.26	422.56
496.63	427.79
496.99	433.14
497.35	438.69
497.72	444.48
498.08	450.41
498.44	456.49
498.80	462.88
499.17	469.29
499.53	476.02
499.89	482.91
500.26	489.83
500.62	496.84
500.98	504.22
501.34	511.77
501.71	519.52
502.07	527.27
502.43	535.23
502.79	543.30
503.16	551.60
503.52	560.18
503.88	568.81
504.24	577.70
504.60	586.79
504.97	596.03
505.33	605.30
505.69	615.15
506.05	625.00
506.41	634.84
506.78	644.90
507.14	655.13
507.50	665.51
507.86	676.26
508.22	687.04
508.59	697.73
508.95	708.68
509.31	719.84
509.67	731.23
510.03	742.71
510.39	754.49
510.75	766.33
511.12	778.21
511.48	790.21
511.84	802.34
512.20	814.53
512.56	827.07
512.92	839.80
513.28	852.27
513.64	864.82
514.00	877.48
514.37	890.34
514.73	903.33
515.09	916.12
515.45	928.77
515.81	941.61
516.17	954.77
516.53	967.75
516.89	980.77
517.25	993.81
517.61	1007.06
517.97	1020.19
518.33	1033.10
518.69	1046.39
519.05	1059.89
519.41	1073.36
519.77	1087.00
520.13	1100.10
520.49	1113.08
520.85	1126.30
521.21	1139.45
521.57	1152.88
521.93	1165.80
522.29	1179.30
522.65	1192.83
523.01	1206.26
523.37	1219.20
523.73	1232.20
524.09	1245.11
524.45	1258.24
524.81	1271.41
525.17	1284.33
525.53	1297.10
525.89	1310.05
526.25	1322.84
526.61	1335.41
526.97	1348.21
527.33	1360.85
527.68	1373.84
528.04	1386.99
528.40	1399.72
528.76	1412.72
529.12	1425.34
529.48	1438.24
529.84	1450.07
530.20	1462.38
530.56	1474.59
530.91	1487.55
531.27	1500.08
531.63	1512.61
531.99	1524.94
532.35	1536.70
532.71	1548.76
533.07	1561.31
533.42	1573.26
533.78	1585.06
534.14	1596.85
534.50	1607.67
534.86	1618.95
535.21	1629.49
535.57	1640.62
535.93	1651.61
536.29	1662.47
536.65	1673.49
537.00	1684.17
537.36	1695.27
537.72	1705.88
538.08	1716.89
538.44	1727.42
538.79	1737.94
539.15	1748.40
539.51	1758.75
539.87	1769.95
540.22	1780.47
540.58	1791.14
540.94	1801.71
541.29	1811.57
541.65	1820.95
542.01	1831.20
542.37	1840.85
542.72	1850.69
543.08	1860.04
543.44	1870.04
543.79	1879.00
544.15	1888.16
544.51	1897.77
544.87	1907.02
545.22	1915.85
545.58	1924.41
545.94	1932.95
546.29	1941.26
546.65	1949.17
547.01	1957.18
547.36	1964.55
547.72	1971.98
548.07	1979.23
548.43	1986.64
548.79	1994.14
549.14	2002.03
549.50	2010.00
549.86	2017.52
550.21	2024.47
550.57	2031.79
550.92	2038.43
551.28	2045.56
551.64	2052.52
551.99	2059.79
552.35	2066.96
552.70	2073.64
553.06	2080.11
553.41	2086.12
553.77	2092.47
554.13	2098.84
554.48	2105.59
554.84	2112.28
555.19	2118.54
555.55	2124.86
555.90	2131.00
556.26	2137.65
556.61	2143.33
556.97	2148.17
557.32	2153.87
557.68	2160.40
558.03	2166.02
558.39	2171.05
558.74	2176.87
559.10	2182.52
559.45	2187.93
559.81	2193.25
560.16	2198.73
560.52	2204.62
560.87	2211.04
561.23	2217.08
561.58	2223.59
561.94	2228.75
562.29	2233.68
562.64	2239.89
563.00	2245.45
563.35	2251.04
563.71	2256.84
564.06	2262.42
564.42	2268.41
564.77	2273.74
565.12	2278.91
565.48	2284.28
565.83	2289.94
566.19	2295.54
566.54	2300.84
566.89	2305.46
567.25	2310.14
567.60	2315.87
567.96	2321.08
568.31	2325.57
568.66	2329.73
569.02	2333.75
569.37	2337.48
569.72	2341.88
570.08	2345.42
570.43	2348.57
570.78	2351.63
571.14	2354.37
571.49	2357.71
571.84	2361.34
572.20	2364.01
572.55	2367.17
572.90	2369.33
573.26	2372.41
573.61	2374.87
573.96	2377.11
574.31	2379.21
574.67	2381.32
575.02	2382.30
575.37	2383.85
575.72	2384.98
576.08	2386.68
576.43	2387.09
576.78	2388.05
577.13	2389.97
577.49	2391.39
577.84	2392.81
578.19	2394.46
578.54	2395.40
578.90	2396.65
579.25	2396.86
579.60	2397.21
579.95	2396.87
580.30	2397.55
580.66	2397.07
581.01	2395.78
581.36	2393.97
581.71	2393.00
582.06	2392.23
582.42	2391.62
582.77	2389.78
583.12	2388.48
583.47	2387.51
583.82	2387.25
584.17	2386.25
584.53	2384.37
584.88	2382.60
585.23	2380.93
585.58	2379.02
585.93	2377.09
586.28	2375.01
586.63	2372.95
586.98	2371.10
587.34	2369.33
587.69	2367.12
588.04	2365.32
588.39	2364.09
588.74	2361.81
589.09	2359.39
589.44	2356.59
589.79	2354.54
590.14	2352.85
590.49	2350.08
590.84	2346.40
591.19	2343.68
591.54	2340.58
591.89	2336.64
592.25	2333.55
592.60	2329.57
592.95	2325.56
593.30	2321.58
593.65	2317.36
594.00	2313.00
594.35	2310.06
594.70	2305.57
595.05	2301.07
595.40	2295.71
595.75	2290.50
596.10	2286.97
596.45	2282.38
596.80	2277.97
597.15	2272.80
597.50	2267.00
597.85	2262.32
598.19	2257.37
598.54	2251.46
598.89	2246.55
599.24	2242.27
599.59	2236.29
599.94	2230.79
600.29	2225.00
600.64	2219.25
600.99	2212.76
601.34	2207.47
601.69	2200.57
602.04	2194.32
602.39	2188.02
602.74	2182.03
603.08	2176.37
603.43	2169.97
603.78	2163.26
604.13	2156.25
604.48	2149.22
604.83	2143.33
605.18	2137.10
605.53	2130.15
605.87	2123.29
606.22	2116.52
606.57	2108.68
606.92	2100.99
607.27	2094.06
607.62	2087.49
607.96	2080.60
608.31	2074.21
608.66	2066.48
609.01	2059.12
609.36	2052.23
609.70	2044.60
610.05	2037.04
610.40	2028.88
610.75	2020.67
611.10	2012.96
611.44	2004.21
611.79	1995.43
612.14	1985.42
612.49	1974.96
612.83	1965.81
613.18	1956.65
613.53	1947.46
613.88	1937.80
614.22	1929.14
614.57	1919.31
614.92	1908.94
615.27	1898.94
615.61	1888.96
615.96	1879.27
616.31	1869.65
616.65	1860.29
617.00	1850.42
617.35	1840.79
617.70	1831.06
618.04	1820.96
618.39	1810.74
618.74	1801.06
619.08	1791.61
619.43	1782.99
619.78	1774.78
620.12	1766.15
620.47	1756.45
620.82	1746.12
621.16	1736.50
621.51	1726.56
621.85	1716.66
622.20	1706.11
622.55	1695.47
622.89	1685.71
623.24	1676.01
623.59	1666.26
623.93	1655.99
624.28	1646.27
624.62	1636.17
624.97	1625.84
625.32	1616.19
625.66	1607.35
626.01	1598.44
626.35	1588.87
626.70	1578.56
627.04	1568.35
627.39	1558.26
627.73	1549.00
628.08	1539.90
628.43	1530.26
628.77	1521.08
629.12	1512.21
629.46	1504.40
629.81	1495.92
630.15	1486.24
630.50	1476.41
630.84	1465.95
631.19	1455.99
631.53	1446.57
631.88	1436.31
632.22	1426.29
632.57	1416.77
632.91	1406.60
633.26	1396.77
633.60	1387.25
633.95	1378.04
634.29	1368.65
634.64	1359.30
634.98	1349.31
635.32	1340.13
635.67	1331.54
636.01	1322.20
636.36	1312.29
636.70	1302.70
637.05	1293.26
637.39	1284.17
637.73	1275.51
638.08	1267.90
638.42	1259.70
638.77	1250.87
639.11	1242.78
639.45	1234.95
639.80	1226.36
640.14	1217.62
640.49	1208.74
640.83	1199.90
641.17	1191.80
641.52	1183.59
641.86	1174.93
642.20	1167.08
642.55	1158.39
642.89	1149.46
643.23	1140.71
643.58	1132.71
643.92	1123.73
644.26	1115.07
644.61	1106.65
644.95	1097.83
645.29	1088.53
645.64	1079.27
645.98	1070.91
646.32	1062.85
646.66	1054.32
647.01	1045.95
647.35	1037.68
647.69	1029.27
648.04	1020.89
648.38	1011.89
648.72	1003.09
649.06	994.61
649.41	986.41
649.75	978.34
650.09	970.51
650.43	962.52
650.78	954.28
651.12	946.66
651.46	939.41
651.80	932.19
652.14	924.89
652.49	917.47
652.83	910.13
653.17	902.45
653.51	894.80
653.85	887.64
654.20	880.46
654.54	873.11
654.88	866.00
655.22	858.97
655.56	852.03
655.90	845.24
656.25	838.66
656.59	831.73
656.93	824.85
657.27	817.81
657.61	810.93
657.95	804.86
658.29	798.99
658.64	792.73
658.98	786.35
659.32	779.85
659.66	773.60
660.00	767.39
660.34	761.38
660.68	755.39
661.02	749.06
661.36	743.15
661.70	737.43
662.05	731.78
662.39	726.26
662.73	720.99
663.07	715.65
663.41	710.08
663.75	704.50
664.09	698.88
664.43	693.54
664.77	688.27
665.11	682.48
665.45	676.55
665.79	670.84
666.13	665.18
666.47	659.79
666.81	654.52
667.15	649.25
667.49	644.10
667.83	638.90
668.17	633.70
668.51	628.63
668.85	623.77
669.19	618.97
669.53	614.01
669.87	608.92
670.21	604.27
670.55	599.58
670.89	595.22
671.23	591.08
671.57	586.83
671.91	582.54
672.25	578.55
672.58	574.53
672.92	570.55
673.26	566.61
673.60	562.86
673.94	559.07
674.28	555.43
674.62	551.70
674.96	548.02
675.30	544.60
675.64	541.02
675.97	537.44
676.31	533.88
676.65	530.38
676.99	527.03
677.33	523.27
677.67	519.67
678.01	515.83
678.34	512.16
678.68	508.59
679.02	505.07
679.36	501.42
679.70	497.89
680.04	494.42
680.37	491.15
680.71	487.87
681.05	484.68
681.39	481.57
681.73	478.48
682.06	475.50
682.40	472.44
682.74	469.31
683.08	466.22
683.42	463.13
683.75	460.15
684.09	457.22
684.43	454.50
684.77	451.62
685.10	448.86
685.44	446.02
685.78	443.11
686.12	440.43
686.45	437.72
686.79	435.05
687.13	432.58
687.46	429.95
687.80	427.31
688.14	424.56
688.48	421.99
688.81	419.45
689.15	416.94
689.49	414.37
689.82	411.91
690.16	409.41
690.50	406.99
690.83	404.57
691.17	402.07
691.51	399.64
691.84	397.44
692.18	395.35
692.52	393.19
692.85	391.20
693.19	389.10
693.52	387.04
693.86	384.89
694.20	382.71
694.53	380.62
694.87	378.50
695.21	376.47
695.54	374.36
695.88	372.23
696.21	370.09
696.55	368.11
696.88	366.11
697.22	364.18
697.56	362.37
697.89	360.56
698.23	358.84
698.56	357.13
698.90	355.45
699.23	353.56
699.57	351.76
699.90	349.93
700.24	348.19
700.58	346.47
700.91	344.87
701.25	343.41
701.58	341.89
701.92	340.33
702.25	338.75
702.59	337.20
702.92	335.71
703.26	334.20
703.59	332.75
703.93	331.55
704.26	330.14
704.60	328.65
704.93	327.22
705.26	325.78
705.60	324.36
705.93	322.84
706.27	321.56
706.60	320.35
706.94	319.16
707.27	317.82
707.61	316.52
707.94	315.21
708.27	313.74
708.61	312.35
708.94	311.03
709.28	309.78
709.61	308.57
709.94	307.42
710.28	306.26
710.61	305.07
710.95	303.67
711.28	302.63
711.61	301.49
711.95	300.40
712.28	299.24
712.61	298.10
712.95	297.12
713.28	296.12
713.61	294.96
713.95	293.85
714.28	292.87
714.61	291.85
714.95	290.85
715.28	289.83
715.61	288.87
715.95	287.92
716.28	286.99
716.61	286.09
716.95	285.10
717.28	284.19
717.61	283.26
717.94	282.42
718.28	281.44
718.61	280.62
718.94	279.77
719.27	278.97
719.61	278.14
719.94	277.33
720.27	276.38
720.60	275.58
720.94	274.82
721.27	274.09
721.60	273.40
721.93	272.73
722.27	272.15
722.60	271.51
722.93	270.86
723.26	270.23
723.59	269.51
723.93	268.93
724.26	268.31
724.59	267.72
724.92	267.15
725.25	266.64
725.59	266.09
725.92	265.55
726.25	265.00
726.58	264.49
726.91	263.89
727.24	263.41
727.57	262.89
727.91	262.30
728.24	261.77
728.57	261.19
728.90	260.64
729.23	260.04
729.56	259.61
729.89	259.09
730.22	258.54
730.55	258.03
730.89	257.50
731.22	257.00
731.55	256.48
731.88	255.98
732.21	255.42
732.54	254.88
732.87	254.42
733.20	253.94
733.53	253.46
733.86	253.02
734.19	252.54
734.52	252.14
734.85	251.87
735.18	251.46
735.51	251.10
735.84	250.70
736.17	250.32
736.50	249.81
736.83	249.65
737.16	249.31
737.49	248.97
737.82	248.56
738.15	248.21
738.48	247.87
738.81	247.47
739.14	247.11
739.47	246.73
739.80	246.38
740.13	246.07
740.46	245.69
740.79	245.32
741.12	244.98
741.45	244.61
741.78	244.17
742.11	243.89
742.44	243.50
742.77	243.19
743.10	242.84
743.43	242.50
743.75	241.90
744.08	241.79
744.41	241.45
744.74	241.13
745.07	240.77
745.40	240.46
745.73	240.23
746.06	239.91
746.39	239.67
746.71	239.33
747.04	238.95
747.37	238.63
747.70	238.38
748.03	238.08
748.36	237.80
748.68	237.54
749.01	237.15
749.34	236.86
749.67	236.56
750.00	236.34
750.33	236.23
750.65	236.01
750.98	235.50
751.31	235.27
751.64	235.04
751.97	234.91
752.29	234.67
752.62	234.33
752.95	234.08
753.28	233.79
753.60	233.54
753.93	233.44
754.26	233.26
754.59	232.98
754.91	232.73
755.24	232.52
755.57	232.28
755.90	232.07
756.22	231.87
756.55	231.66
756.88	231.40
757.20	231.07
757.53	230.84
757.86	230.66
758.19	230.46
758.51	230.27
758.84	229.96
759.17	229.75
759.49	229.63
759.82	229.56
760.15	229.40
760.47	229.23
760.80	228.95
761.13	228.80
761.45	228.61
761.78	228.47
762.11	228.33
762.43	228.16
762.76	228.03
763.08	227.88
763.41	227.72
763.74	227.60
764.06	227.42
764.39	227.28
764.71	227.14
765.04	226.99
765.37	226.86
765.69	226.74
766.02	226.62
766.34	226.43
766.67	226.23
767.00	226.12
767.32	226.09
767.65	226.07
767.97	225.93
768.30	225.85
768.62	225.74
768.95	225.57
769.27	225.43
769.60	225.34
769.92	225.20
770.25	225.04
770.57	224.87
770.90	224.79
771.22	224.67
771.55	224.55
771.87	224.44
772.20	224.30
772.52	224.37
772.85	224.52
773.17	224.42
773.50	224.30
773.82	224.20
774.15	224.00
774.47	223.83
774.80	223.72
775.12	223.62
775.45	223.51
775.77	223.44
776.09	223.37
776.42	223.30
776.74	223.27
777.07	223.20
777.39	223.12
777.72	223.03
778.04	222.96
778.36	222.90
778.69	222.85
779.01	222.78
779.33	222.52
779.66	222.19
779.98	222.11
780.31	222.04
780.63	222.03
780.95	222.00
781.28	221.92
781.60	221.83
781.92	221.76
782.25	221.71
782.57	221.64
782.89	221.57
783.22	221.46
783.54	221.38
783.86	221.35
784.19	221.26
784.51	221.25
784.83	221.19
785.16	221.08
785.48	221.00
785.80	220.97
786.12	220.95
786.45	220.88
786.77	220.84
787.09	220.78
787.42	220.66
787.74	220.64
788.06	220.58
788.38	220.52
788.71	220.40
789.03	220.33
789.35	220.32
789.67	220.24
789.99	220.22
790.32	220.15
790.64	220.14
790.96	220.27
791.28	220.17
791.61	220.10
791.93	220.08
792.25	220.01
792.57	220.11
792.89	220.00
793.21	219.98
793.54	219.92
793.86	219.87
794.18	219.82
794.50	219.71
794.82	219.65
795.14	219.65
795.47	219.66
795.79	219.63
796.11	219.56
796.43	219.51
796.75	219.44
797.07	219.40
797.39	219.31
797.71	219.11
798.04	219.06
798.36	219.08
798.68	219.03
799.00	219.01
799.32	218.84
799.64	218.86
799.96	218.81
800.28	218.84
800.60	218.78
800.92	218.77
801.24	218.73
801.56	218.75
801.89	218.69
802.21	218.65
802.53	218.59
802.85	218.60
803.17	218.68
803.49	218.62
803.81	218.57
804.13	218.53
804.45	218.48
804.77	218.46
805.09	218.41
805.41	218.32
805.73	218.28
806.05	218.24
806.37	218.17
806.69	218.13
807.01	218.10
807.33	218.11
807.65	218.04
807.97	218.14
808.28	218.09
808.60	218.07
808.92	218.03
809.24	218.10
809.56	218.02
809.88	217.91
810.20	217.88
810.52	217.89
810.84	217.84
811.16	217.84
811.48	217.79
811.80	217.84
812.12	217.85
812.43	217.87
812.75	217.84
813.07	217.80
813.39	217.80
813.71	217.74
814.03	217.67
814.35	217.64
814.67	217.51
814.98	217.46
815.30	217.44
815.62	217.40
815.94	217.27
816.26	217.26
816.58	217.24
816.89	217.23
817.21	217.20
817.53	217.21
817.85	217.17
818.17	217.16
818.48	217.07
818.80	217.12
819.12	217.04
819.44	216.97
819.76	216.96
820.07	216.93
820.39	216.90
820.71	216.92
821.03	216.90
821.34	216.84
821.66	216.87
821.98	216.89
822.30	216.85
822.61	216.96
822.93	216.95
823.25	216.91
823.57	216.87
823.88	216.91
824.20	216.86
824.52	216.90
824.83	216.88
825.15	216.88
825.47	216.84
825.79	216.84
826.10	216.85
826.42	216.82
826.74	216.84
827.05	216.81
827.37	216.80
827.69	216.76
828.00	216.75
828.32	216.72
828.64	216.68
828.95	216.81
829.27	216.74
829.58	216.67
829.90	216.70
830.22	216.69
830.53	216.60
830.85	216.61
831.17	216.54
831.48	216.54
831.80	216.51
832.11	216.47
832.43	216.45
832.75	216.44
833.06	216.56
833.38	216.48
833.69	216.48
834.01	216.43
834.32	216.45
834.64	216.46
834.96	216.46
835.27	216.43
835.59	216.34
835.90	216.30
836.22	216.31
836.53	216.27
836.85	216.24
837.16	216.45
837.48	216.41
837.79	216.48
838.11	216.51
838.42	216.49
838.74	216.50
839.05	216.49
839.37	216.47
839.68	216.33
840.00	216.33
840.31	216.34
840.63	216.35
840.94	216.30
841.26	216.25
841.57	216.23
841.88	216.22
842.20	216.19
842.51	216.16
842.83	216.15
843.14	216.33
843.46	216.34
843.77	216.23
844.08	216.22
844.40	216.15
844.71	216.10
845.03	216.10
845.34	216.05
845.65	216.06
845.97	216.09
846.28	216.06
846.60	216.07
846.91	216.05
847.22	216.03
847.54	216.08
847.85	216.10
848.16	216.09
848.48	216.07
848.79	216.16
849.10	216.20
849.42	216.21
849.73	215.98
850.04	215.95
850.36	215.86
850.67	215.87
850.98	215.86
851.30	215.86
851.61	215.82
851.92	215.85
852.23	215.90
852.55	215.85
852.86	215.90
853.17	215.89
853.49	215.94
853.80	215.97
854.11	215.97
854.42	216.00
854.74	215.98
855.05	215.99
855.36	215.88
855.67	215.86
855.99	215.86
856.30	216.13
856.61	216.13
856.92	216.15
857.23	216.16
857.55	216.15
857.86	216.14
858.17	216.18
858.48	216.13
858.79	216.03
859.11	216.08
859.42	216.05
859.73	216.02
860.04	215.96
860.35	215.91
860.66	215.84
860.98	215.85
861.29	215.85
861.60	215.82
861.91	215.84
862.22	215.80
862.53	215.81
862.84	215.55
863.16	215.60
863.47	215.57
863.78	215.56
864.09	215.57
864.40	215.54
864.71	215.56
865.02	215.58
865.33	215.58
865.64	215.55
865.95	215.55
866.27	215.71
866.58	215.70
866.89	215.71
867.20	215.67
867.51	215.59
867.82	215.59
868.13	215.65
868.44	215.60
868.75	215.66
869.06	215.63
869.37	215.67
869.68	215.60
869.99	215.61
870.30	215.64
870.61	215.66
870.92	215.67
871.23	215.64
871.54	215.65
871.85	215.70
872.16	215.71
872.47	215.66
872.78	215.54
873.09	215.58
873.40	215.57
873.71	215.61
874.02	215.62
874.33	215.60
874.64	215.57
874.95	215.60
875.26	215.52
875.56	215.53
875.87	215.50
876.18	215.48
876.49	215.70
876.80	215.65
877.11	215.61
877.42	215.60
877.73	215.59
878.04	215.58
878.35	215.59
878.66	215.61
878.96	215.62
879.27	215.62
879.58	215.61
879.89	215.60
880.20	215.66
880.51	215.69
880.82	215.68
881.12	215.69
881.43	215.65
881.74	215.66
882.05	215.63
882.36	215.64
882.67	215.67
882.97	215.43
883.28	215.39
883.59	215.36
883.90	215.36
884.21	215.43
884.51	215.44
884.82	215.37
885.13	215.36
885.44	215.36
885.74	215.36
886.05	215.32
886.36	215.32
886.67	215.27
886.98	215.34
887.28	215.40
887.59	215.40
887.90	215.40
888.20	215.38
888.51	215.40
888.82	215.37
889.13	215.38
889.43	215.58
889.74	215.59
890.05	215.59
890.35	215.56
890.66	215.48
890.97	215.43
891.28	215.44
891.58	215.46
891.89	215.45
892.20	215.43
892.50	215.42
892.81	215.43
893.12	215.41
893.42	215.35
893.73	215.34
894.04	215.32
894.34	215.36
894.65	215.39
894.95	215.37
895.26	215.40
895.57	215.49
895.87	215.28
896.18	215.33
896.48	215.35
896.79	215.36
897.10	215.41
897.40	215.41
897.71	215.42
898.01	215.36
898.32	215.36
898.63	215.37
898.93	215.41
899.24	215.40
899.54	215.39
899.85	215.39
900.15	215.33
900.46	215.34
900.76	215.34
901.07	215.34
901.38	215.37
901.68	215.38
901.99	215.26
902.29	215.26
902.60	215.22
902.90	215.23
903.21	215.20
903.51	215.20
903.82	215.28
904.12	215.28
904.43	215.31
904.73	215.34
905.03	215.36
905.34	215.56
905.64	215.54
905.95	215.55
906.25	215.52
906.56	215.52
906.86	215.54
907.17	215.53
907.47	215.52
907.77	215.51
908.08	215.44
908.38	215.48
908.69	215.49
908.99	215.55
909.30	215.55
909.60	215.57
909.90	215.58
910.21	215.51
910.51	215.49
910.81	215.51
911.12	215.49
911.42	215.47
911.73	215.24
912.03	215.26
912.33	215.29
912.64	215.30
912.94	215.29
913.24	215.26
913.55	215.24
913.85	215.23
914.15	215.28
914.46	215.35
914.76	215.27
915.06	215.25
915.37	215.18
915.67	215.14
915.97	215.15
916.27	215.09
916.58	215.11
916.88	215.11
917.18	215.09
917.49	215.23
917.79	215.23
918.09	215.32
918.39	215.37
918.70	215.38
919.00	215.38
919.30	215.46
919.60	215.45
919.91	215.43
920.21	215.43
920.51	215.36
920.81	215.31
921.12	215.37
921.42	215.38
921.72	215.43
922.02	215.45
922.32	215.49
922.63	215.51
922.93	215.58
923.23	215.58
923.53	215.53
923.83	215.37
924.13	215.37
924.44	215.31
924.74	215.32
925.04	215.34
925.34	215.33
925.64	215.24
925.94	215.27
926.24	215.39
926.55	215.37
926.85	215.40
927.15	215.42
927.45	215.41
927.75	215.42
928.05	215.40
928.35	215.41
928.65	215.44
928.95	215.47
929.26	215.41
929.56	215.47
929.86	215.50
930.16	215.47
930.46	215.48
930.76	215.48
931.06	215.38
931.36	215.31
931.66	215.36
931.96	215.36
932.26	215.33
932.56	215.26
932.86	215.30
933.16	215.29
933.46	215.29
933.76	215.28
934.06	215.31
934.36	215.40
934.66	215.38
934.96	215.36
935.26	215.36
935.56	215.37
935.86	215.31
936.16	215.30
936.46	215.31
936.76	215.31
937.06	215.26
937.36	215.29
937.66	215.31
937.96	215.29
938.26	215.27
938.56	215.25
938.86	215.25
939.16	215.27
939.46	215.30
939.76	215.30
940.06	215.31
940.35	215.27
940.65	215.17
940.95	215.19
941.25	215.13
941.55	215.12
941.85	215.13
942.15	215.18
942.45	215.27
942.75	215.25
943.04	215.25
943.34	215.31
943.64	215.29
943.94	215.27
944.24	215.27
944.54	215.30
944.84	215.30
945.13	215.26
945.43	215.19
945.73	215.18
946.03	215.18
946.33	215.12
946.62	215.08
946.92	215.06
947.22	215.10
947.52	215.13
947.82	215.13
948.11	215.10
948.41	215.05
948.71	214.96
949.01	214.97
949.31	214.94
949.60	214.93
949.90	214.96
950.20	214.95
950.50	214.95
950.79	214.93
951.09	214.99
951.39	214.98
951.69	214.98
951.98	215.00
952.28	215.01
952.58	215.05
952.87	215.09
953.17	215.11
953.47	215.05
953.76	215.03
954.06	214.97
954.36	214.91
954.66	214.91
954.95	214.98
955.25	215.01
955.55	215.02
955.84	214.99
956.14	214.97
956.44	214.99
956.73	214.94
957.03	214.96
957.32	214.96
957.62	214.98
957.92	215.00
958.21	214.98
958.51	215.22
958.81	215.25
959.10	215.26
959.40	215.30
959.69	215.29
959.99	215.35
960.29	215.40
960.58	215.40
960.88	215.46
961.17	215.44
961.47	215.40
961.76	215.40
962.06	215.44
962.36	215.47
962.65	215.44
962.95	215.49
963.24	215.44
963.54	215.43
963.83	215.45
964.13	215.46
964.42	215.42
964.72	215.24
965.01	215.20
965.31	215.20
965.60	215.16
965.90	215.30
966.19	215.23
966.49	215.21
966.78	215.20
967.08	215.18
967.37	215.17
967.67	215.17
967.96	215.17
968.26	215.17
968.55	215.18
968.85	215.20
969.14	215.18
969.43	215.18
969.73	215.15
970.02	215.13
970.32	215.11
970.61	215.11
970.91	215.07
971.20	215.05
971.49	215.00
971.79	215.01
972.08	214.87
972.38	214.89
972.67	214.87
972.96	214.94
973.26	214.92
973.55	214.99
973.85	215.01
974.14	215.02
974.43	215.03
974.73	214.95
975.02	214.91
975.31	214.92
975.61	214.97
975.90	214.97
976.19	214.95
976.49	214.98
976.78	215.00
977.07	214.97
977.37	214.97
977.66	215.01
977.95	214.98
978.24	215.04
978.54	215.11
978.83	215.09
979.12	215.04
979.42	215.02
979.71	215.01
980.00	214.98
980.29	214.98
980.59	214.96
980.88	215.01
981.17	215.05
981.46	215.04
981.76	215.02
982.05	215.07
982.34	215.08
982.63	215.10
982.93	215.10
983.22	215.14
983.51	215.15
983.80	215.14
984.09	215.17
984.39	215.11
984.68	215.05
984.97	215.07
985.26	215.07
985.55	215.08
985.85	215.01
986.14	215.04
986.43	215.06
986.72	215.02
987.01	215.01
987.30	215.01
987.59	215.02
987.89	214.98
988.18	214.94
988.47	214.91
988.76	214.87
989.05	214.83
989.34	214.79
989.63	214.87
989.92	214.86
990.22	214.81
990.51	214.83
990.80	214.85
991.09	214.90
991.38	214.92
991.67	214.90
991.96	214.89
992.25	214.90
992.54	214.89
992.83	214.90
993.12	214.88
993.41	214.91
993.70	214.98
993.99	215.04
994.28	215.05
994.58	215.11
994.87	215.11
995.16	215.12
995.45	215.08
995.74	215.00
996.03	215.05
996.32	215.09
996.61	215.13
996.90	215.11
997.19	215.09
997.48	215.10
997.77	215.10
998.06	215.10
998.34	215.07
998.63	215.08
998.92	215.09
999.21	215.13
999.50	215.15
999.79	215.07
1000.08	215.06
1000.37	215.05
1000.66	214.99
1000.95	215.03
1001.24	215.06
1001.53	215.12
1001.82	215.14
1002.11	215.10
1002.40	215.16
1002.68	215.21
1002.97	215.36
1003.26	215.33
1003.55	215.31
1003.84	215.31
1004.13	215.41
1004.42	215.41
1004.71	215.42
1004.99	215.41
1005.28	215.44
1005.57	215.43
1005.86	215.41
1006.15	215.38
1006.44	215.37
1006.72	215.41
1007.01	215.37
1007.30	215.37
1007.59	215.36
1007.88	215.32
1008.17	215.32
1008.45	215.25
1008.74	215.16
1009.03	215.08
1009.32	215.03
1009.60	215.02
1009.89	215.00
1010.18	214.90
1010.47	214.89
1010.76	214.87
1011.04	214.86
1011.33	214.86
1011.62	214.87
1011.91	214.89
1012.19	214.91
1012.48	214.92
1012.77	214.92
1013.05	215.02
1013.34	215.04
1013.63	215.04
1013.92	215.09
1014.20	215.06
1014.49	215.09
1014.78	215.11
1015.06	215.02
1015.35	215.05
1015.64	215.09
1015.92	215.13
1016.21	215.17
1016.50	215.14
1016.78	215.15
1017.07	215.19
1017.36	215.16
1017.64	215.12
1017.93	215.13
1018.22	215.11
1018.50	215.12
1018.79	215.13
1019.08	215.03
1019.36	215.00
1019.65	214.95
1019.93	214.97
1020.22	215.02
1020.51	215.10
1020.79	215.09
1021.08	214.84
1021.36	215.11
1021.65	215.18
1021.94	215.13
1022.22	214.83
1022.51	214.14
1022.79	215.38
1023.08	215.43
1023.36	217.27
1023.65	214.65
>>>>>End Processed Spectral Data<<<<<
