SpectraSuite Data File
++++++++++++++++++++++++++++++++++++
Date: Tue Jan 29 16:40:17 EST 2013
User: group
Dark Spectrum Present: No
Reference Spectrum Present: No
Number of Sampled Component Spectra: 1
Spectrometers: USB2E7196
Integration Time (usec): 65000 (USB2E7196)
Spectra Averaged: 100 (USB2E7196)
Boxcar Smoothing: 10 (USB2E7196)
Correct for Electrical Dark: No (USB2E7196)
Strobe/Lamp Enabled: No (USB2E7196)
Correct for Detector Non-linearity: No (USB2E7196)
Correct for Stray Light: No (USB2E7196)
Number of Pixels in Processed Spectrum: 2048
>>>>>Begin Processed Spectral Data<<<<<
339.09	0.00
339.48	201.24
339.86	202.85
340.24	204.50
340.63	206.36
341.01	211.12
341.39	208.98
341.78	209.63
342.16	211.38
342.54	211.96
342.93	200.95
343.31	211.13
343.69	211.69
344.07	212.18
344.46	212.64
344.84	213.04
345.22	213.21
345.60	213.45
345.99	213.68
346.37	213.83
346.75	213.96
347.13	214.05
347.52	214.16
347.90	214.29
348.28	214.33
348.66	214.41
349.05	214.41
349.43	214.48
349.81	214.54
350.19	214.60
350.57	214.70
350.96	214.84
351.34	214.93
351.72	215.01
352.10	215.11
352.48	215.17
352.87	215.18
353.25	215.23
353.63	215.30
354.01	215.35
354.39	215.41
354.77	215.47
355.15	215.58
355.54	215.60
355.92	215.59
356.30	215.68
356.68	215.86
357.06	215.94
357.44	215.97
357.82	216.05
358.20	216.14
358.58	216.19
358.97	216.23
359.35	216.31
359.73	216.45
360.11	216.50
360.49	216.56
360.87	216.62
361.25	216.69
361.63	216.84
362.01	216.91
362.39	216.96
362.77	217.03
363.15	217.05
363.53	217.08
363.91	217.11
364.29	217.15
364.67	216.98
365.05	217.01
365.43	217.05
365.81	217.09
366.19	217.16
366.57	217.21
366.95	217.19
367.33	217.13
367.71	217.08
368.09	217.14
368.47	217.15
368.85	217.18
369.23	217.20
369.61	217.10
369.99	217.13
370.37	217.14
370.75	217.24
371.13	217.21
371.51	217.18
371.89	217.22
372.27	217.20
372.65	217.21
373.03	217.20
373.41	217.13
373.78	217.08
374.16	216.96
374.54	216.89
374.92	216.90
375.30	216.89
375.68	216.82
376.06	216.77
376.44	216.70
376.82	216.65
377.19	216.60
377.57	216.54
377.95	216.48
378.33	216.41
378.71	216.23
379.09	216.16
379.47	216.14
379.84	216.07
380.22	215.96
380.60	215.88
380.98	215.77
381.36	215.78
381.73	215.72
382.11	215.72
382.49	215.67
382.87	215.60
383.25	215.53
383.62	215.75
384.00	215.70
384.38	215.65
384.76	215.65
385.13	215.71
385.51	215.66
385.89	215.58
386.27	215.53
386.64	215.54
387.02	215.50
387.40	215.47
387.78	215.43
388.15	215.41
388.53	215.39
388.91	215.39
389.29	215.34
389.66	215.32
390.04	215.26
390.42	215.32
390.79	215.30
391.17	215.31
391.55	215.05
391.92	215.03
392.30	215.08
392.68	215.04
393.05	214.97
393.43	214.99
393.81	214.98
394.18	214.99
394.56	214.99
394.94	215.05
395.31	215.03
395.69	215.13
396.06	215.17
396.44	215.22
396.82	215.21
397.19	215.36
397.57	215.38
397.95	215.46
398.32	215.38
398.70	215.46
399.07	215.57
399.45	215.65
399.82	215.70
400.20	215.73
400.58	215.77
400.95	215.81
401.33	215.92
401.70	216.15
402.08	216.24
402.45	216.30
402.83	216.45
403.20	216.59
403.58	216.64
403.95	216.82
404.33	216.96
404.71	217.14
405.08	217.37
405.46	217.54
405.83	217.75
406.21	217.95
406.58	218.19
406.96	218.36
407.33	218.60
407.70	218.90
408.08	219.38
408.45	219.77
408.83	220.17
409.20	220.50
409.58	220.75
409.95	221.23
410.33	221.71
410.70	222.12
411.08	222.68
411.45	223.28
411.82	223.84
412.20	224.53
412.57	225.37
412.95	225.95
413.32	226.82
413.69	227.64
414.07	228.59
414.44	229.57
414.82	230.64
415.19	231.80
415.56	233.01
415.94	234.16
416.31	235.57
416.68	236.96
417.06	238.63
417.43	240.20
417.81	241.95
418.18	243.74
418.55	245.69
418.93	247.69
419.30	249.78
419.67	252.02
420.04	254.32
420.42	256.71
420.79	259.53
421.16	262.31
421.54	265.21
421.91	268.19
422.28	271.28
422.66	274.56
423.03	277.85
423.40	281.21
423.77	284.82
424.15	288.51
424.52	292.38
424.89	296.52
425.26	300.65
425.64	304.51
426.01	308.84
426.38	313.31
426.75	317.87
427.13	322.66
427.50	327.66
427.87	332.90
428.24	338.08
428.61	343.08
428.99	348.62
429.36	354.68
429.73	360.61
430.10	366.55
430.47	372.68
430.85	378.99
431.22	385.70
431.59	392.89
431.96	399.69
432.33	407.18
432.70	414.47
433.08	422.96
433.45	431.04
433.82	439.05
434.19	447.97
434.56	456.69
434.93	464.99
435.30	473.31
435.68	482.45
436.05	491.51
436.42	500.45
436.79	508.61
437.16	517.35
437.53	526.62
437.90	535.82
438.27	544.76
438.64	554.00
439.01	562.57
439.38	570.11
439.75	577.47
440.13	585.97
440.50	593.99
440.87	600.53
441.24	607.19
441.61	614.62
441.98	620.06
442.35	626.47
442.72	632.80
443.09	638.85
443.46	642.57
443.83	645.05
444.20	647.29
444.57	650.43
444.94	651.94
445.31	653.45
445.68	654.80
446.05	655.44
446.42	654.65
446.79	653.70
447.16	652.67
447.53	651.90
447.90	648.51
448.27	645.09
448.64	640.35
449.01	637.08
449.37	631.17
449.74	625.47
450.11	618.50
450.48	611.13
450.85	603.63
451.22	597.13
451.59	590.98
451.96	585.10
452.33	577.20
452.70	570.06
453.07	561.53
453.43	552.89
453.80	544.58
454.17	536.55
454.54	528.96
454.91	520.71
455.28	512.71
455.65	505.28
456.02	497.82
456.38	491.49
456.75	483.53
457.12	476.88
457.49	470.35
457.86	464.15
458.23	458.71
458.59	452.76
458.96	446.72
459.33	441.43
459.70	436.06
460.07	431.80
460.43	426.88
460.80	422.26
461.17	418.26
461.54	414.05
461.91	410.00
462.27	405.81
462.64	402.39
463.01	398.56
463.38	394.90
463.74	391.20
464.11	387.92
464.48	385.07
464.85	381.97
465.21	379.52
465.58	376.87
465.95	373.75
466.32	371.15
466.68	368.59
467.05	365.98
467.42	363.41
467.78	360.69
468.15	358.11
468.52	356.18
468.88	353.61
469.25	351.38
469.62	349.60
469.98	347.67
470.35	345.83
470.72	344.16
471.08	342.28
471.45	340.76
471.82	339.29
472.18	337.58
472.55	336.36
472.92	334.94
473.28	333.71
473.65	332.57
474.02	331.47
474.38	330.53
474.75	329.76
475.11	328.89
475.48	328.33
475.85	327.92
476.21	327.42
476.58	327.10
476.94	326.81
477.31	326.49
477.67	326.23
478.04	326.08
478.41	326.05
478.77	326.23
479.14	326.13
479.50	326.23
479.87	326.54
480.23	326.85
480.60	327.08
480.96	327.35
481.33	327.92
481.69	328.41
482.06	328.98
482.42	329.44
482.79	330.08
483.15	330.89
483.52	331.75
483.88	332.62
484.25	333.57
484.61	334.61
484.98	335.71
485.34	337.04
485.71	338.39
486.07	339.87
486.44	341.19
486.80	342.85
487.17	344.55
487.53	346.41
487.90	348.27
488.26	350.32
488.62	352.53
488.99	354.56
489.35	356.74
489.72	359.10
490.08	361.65
490.44	364.16
490.81	366.87
491.17	369.66
491.54	372.64
491.90	375.63
492.26	378.86
492.63	382.28
492.99	385.71
493.36	389.41
493.72	393.25
494.08	397.28
494.45	401.47
494.81	405.80
495.17	410.20
495.54	414.89
495.90	419.71
496.26	424.64
496.63	429.88
496.99	435.29
497.35	440.83
497.72	446.63
498.08	452.63
498.44	458.77
498.80	465.17
499.17	471.70
499.53	478.43
499.89	485.37
500.26	492.34
500.62	499.49
500.98	506.90
501.34	514.31
501.71	522.08
502.07	529.94
502.43	537.96
502.79	546.15
503.16	554.60
503.52	563.19
503.88	571.95
504.24	580.88
504.60	589.98
504.97	599.29
505.33	608.53
505.69	618.42
506.05	628.31
506.41	638.18
506.78	648.21
507.14	658.52
507.50	668.94
507.86	679.59
508.22	690.42
508.59	701.04
508.95	712.21
509.31	723.47
509.67	734.93
510.03	746.35
510.39	758.11
510.75	769.88
511.12	781.87
511.48	793.94
511.84	806.20
512.20	818.57
512.56	831.25
512.92	844.16
513.28	856.71
513.64	869.50
514.00	882.50
514.37	895.57
514.73	908.74
515.09	921.90
515.45	934.86
515.81	947.93
516.17	961.38
516.53	974.65
516.89	987.78
517.25	1000.99
517.61	1014.57
517.97	1028.00
518.33	1041.35
518.69	1054.98
519.05	1068.81
519.41	1082.62
519.77	1096.53
520.13	1109.90
520.49	1123.08
520.85	1136.61
521.21	1149.98
521.57	1163.66
521.93	1176.72
522.29	1190.45
522.65	1204.12
523.01	1217.84
523.37	1231.05
523.73	1244.60
524.09	1257.98
524.45	1271.59
524.81	1285.21
525.17	1298.73
525.53	1312.11
525.89	1325.47
526.25	1338.67
526.61	1351.50
526.97	1364.70
527.33	1377.81
527.68	1391.32
528.04	1404.99
528.40	1418.22
528.76	1431.67
529.12	1444.66
529.48	1458.16
529.84	1470.66
530.20	1483.46
530.56	1496.18
530.91	1509.61
531.27	1522.38
531.63	1535.14
531.99	1547.95
532.35	1560.30
532.71	1572.79
533.07	1585.72
533.42	1597.93
533.78	1610.07
534.14	1622.33
534.50	1633.66
534.86	1645.29
535.21	1656.35
535.57	1667.85
535.93	1679.15
536.29	1690.35
536.65	1701.81
537.00	1712.80
537.36	1724.14
537.72	1735.23
538.08	1746.76
538.44	1757.84
538.79	1769.16
539.15	1780.14
539.51	1791.01
539.87	1802.33
540.22	1813.28
540.58	1824.30
540.94	1835.43
541.29	1845.97
541.65	1855.83
542.01	1866.51
542.37	1876.76
542.72	1887.05
543.08	1897.01
543.44	1907.73
543.79	1917.16
544.15	1926.70
544.51	1936.93
544.87	1946.96
545.22	1956.31
545.58	1965.26
545.94	1974.26
546.29	1982.79
546.65	1991.44
547.01	1999.80
547.36	2007.66
547.72	2015.58
548.07	2023.28
548.43	2031.26
548.79	2039.13
549.14	2047.36
549.50	2055.87
549.86	2063.80
550.21	2071.20
550.57	2078.94
550.92	2085.87
551.28	2093.36
551.64	2100.73
551.99	2108.16
552.35	2115.36
552.70	2122.46
553.06	2129.08
553.41	2135.37
553.77	2141.98
554.13	2148.24
554.48	2155.37
554.84	2162.49
555.19	2169.03
555.55	2175.46
555.90	2181.61
556.26	2188.49
556.61	2194.58
556.97	2199.40
557.32	2205.11
557.68	2211.64
558.03	2217.39
558.39	2222.57
558.74	2228.61
559.10	2234.11
559.45	2239.81
559.81	2245.53
560.16	2250.88
560.52	2256.79
560.87	2263.07
561.23	2268.88
561.58	2275.66
561.94	2280.78
562.29	2285.38
562.64	2291.24
563.00	2296.82
563.35	2302.43
563.71	2308.04
564.06	2313.82
564.42	2319.83
564.77	2324.87
565.12	2330.02
565.48	2335.24
565.83	2340.77
566.19	2346.03
566.54	2351.37
566.89	2355.97
567.25	2360.31
567.60	2366.04
567.96	2371.17
568.31	2375.72
568.66	2379.90
569.02	2383.55
569.37	2387.11
569.72	2391.54
570.08	2395.15
570.43	2398.27
570.78	2401.31
571.14	2403.86
571.49	2406.78
571.84	2410.06
572.20	2413.01
572.55	2415.90
572.90	2417.95
573.26	2420.67
573.61	2423.21
573.96	2425.45
574.31	2427.19
574.67	2428.95
575.02	2429.58
575.37	2430.96
575.72	2431.64
576.08	2433.22
576.43	2433.33
576.78	2433.80
577.13	2435.26
577.49	2436.23
577.84	2437.18
578.19	2438.41
578.54	2438.78
578.90	2439.38
579.25	2439.23
579.60	2439.01
579.95	2438.14
580.30	2438.15
580.66	2437.32
581.01	2435.52
581.36	2432.76
581.71	2431.35
582.06	2430.21
582.42	2429.20
582.77	2426.80
583.12	2425.06
583.47	2423.40
583.82	2422.66
584.17	2421.33
584.53	2419.06
584.88	2416.87
585.23	2414.83
585.58	2412.45
585.93	2410.41
586.28	2408.10
586.63	2405.52
586.98	2403.27
587.34	2401.15
587.69	2398.67
588.04	2396.60
588.39	2395.14
588.74	2392.66
589.09	2389.78
589.44	2386.32
589.79	2383.72
590.14	2381.64
590.49	2378.77
590.84	2374.87
591.19	2371.61
591.54	2368.27
591.89	2364.21
592.25	2360.81
592.60	2356.46
592.95	2352.14
593.30	2347.84
593.65	2343.42
594.00	2338.80
594.35	2335.66
594.70	2330.94
595.05	2326.29
595.40	2320.79
595.75	2314.77
596.10	2311.21
596.45	2306.29
596.80	2301.68
597.15	2296.40
597.50	2290.41
597.85	2285.24
598.19	2280.03
598.54	2274.12
598.89	2268.82
599.24	2264.12
599.59	2257.89
599.94	2252.08
600.29	2246.17
600.64	2240.16
600.99	2233.12
601.34	2227.72
601.69	2220.71
602.04	2214.35
602.39	2207.64
602.74	2201.35
603.08	2195.80
603.43	2189.16
603.78	2182.38
604.13	2175.45
604.48	2168.11
604.83	2161.98
605.18	2155.78
605.53	2148.77
605.87	2141.86
606.22	2135.10
606.57	2127.19
606.92	2119.28
607.27	2112.29
607.62	2105.50
607.96	2098.56
608.31	2092.20
608.66	2084.37
609.01	2076.54
609.36	2069.32
609.70	2061.55
610.05	2053.79
610.40	2045.50
610.75	2037.05
611.10	2029.25
611.44	2020.33
611.79	2011.64
612.14	2001.70
612.49	1990.91
612.83	1981.49
613.18	1972.11
613.53	1962.70
613.88	1953.09
614.22	1944.41
614.57	1934.49
614.92	1924.02
615.27	1913.79
615.61	1903.59
615.96	1893.82
616.31	1884.30
616.65	1874.95
617.00	1865.31
617.35	1855.66
617.70	1845.95
618.04	1836.05
618.39	1825.86
618.74	1816.17
619.08	1806.50
619.43	1797.79
619.78	1789.72
620.12	1781.12
620.47	1771.61
620.82	1761.20
621.16	1751.39
621.51	1741.59
621.85	1731.84
622.20	1721.54
622.55	1710.85
622.89	1700.96
623.24	1691.21
623.59	1681.48
623.93	1671.39
624.28	1661.54
624.62	1651.43
624.97	1641.15
625.32	1631.31
625.66	1622.38
626.01	1613.61
626.35	1604.31
626.70	1594.28
627.04	1584.25
627.39	1574.20
627.73	1565.02
628.08	1556.13
628.43	1546.60
628.77	1537.34
629.12	1528.52
629.46	1520.59
629.81	1512.29
630.15	1502.80
630.50	1493.25
630.84	1482.92
631.19	1472.95
631.53	1463.70
631.88	1453.54
632.22	1443.55
632.57	1434.21
632.91	1424.19
633.26	1414.30
633.60	1404.74
633.95	1395.46
634.29	1385.91
634.64	1376.55
634.98	1366.41
635.32	1357.20
635.67	1348.74
636.01	1339.49
636.36	1329.65
636.70	1320.12
637.05	1310.87
637.39	1302.07
637.73	1293.31
638.08	1285.72
638.42	1277.58
638.77	1268.92
639.11	1260.83
639.45	1253.07
639.80	1244.54
640.14	1235.88
640.49	1227.10
640.83	1218.32
641.17	1210.12
641.52	1202.06
641.86	1193.61
642.20	1185.95
642.55	1177.43
642.89	1168.54
643.23	1159.85
643.58	1151.82
643.92	1142.89
644.26	1134.16
644.61	1125.76
644.95	1117.09
645.29	1107.86
645.64	1098.76
645.98	1090.13
646.32	1082.21
646.66	1073.72
647.01	1065.48
647.35	1057.35
647.69	1049.09
648.04	1040.78
648.38	1032.00
648.72	1023.25
649.06	1014.72
649.41	1006.37
649.75	998.39
650.09	990.55
650.43	982.53
650.78	974.21
651.12	966.46
651.46	959.09
651.80	951.76
652.14	944.40
652.49	936.80
652.83	929.46
653.17	921.79
653.51	914.11
653.85	906.87
654.20	899.52
654.54	891.99
654.88	884.73
655.22	877.57
655.56	870.56
655.90	863.70
656.25	857.02
656.59	850.19
656.93	843.10
657.27	835.95
657.61	829.02
657.95	822.86
658.29	816.87
658.64	810.75
658.98	804.26
659.32	797.74
659.66	791.55
660.00	785.17
660.34	779.15
660.68	772.95
661.02	766.55
661.36	760.56
661.70	754.71
662.05	749.04
662.39	743.47
662.73	738.04
663.07	732.65
663.41	726.98
663.75	721.34
664.09	715.62
664.43	710.22
664.77	704.82
665.11	698.97
665.45	693.04
665.79	687.16
666.13	681.48
666.47	675.91
666.81	670.51
667.15	665.06
667.49	659.76
667.83	654.50
668.17	649.20
668.51	644.10
668.85	639.23
669.19	634.23
669.53	629.17
669.87	623.98
670.21	619.20
670.55	614.52
670.89	609.97
671.23	605.70
671.57	601.24
671.91	596.95
672.25	592.77
672.58	588.70
672.92	584.61
673.26	580.62
673.60	576.75
673.94	572.86
674.28	569.28
674.62	565.56
674.96	561.86
675.30	558.41
675.64	554.74
675.97	551.09
676.31	547.48
676.65	543.86
676.99	540.42
677.33	536.50
677.67	532.80
678.01	528.87
678.34	525.16
678.68	521.61
679.02	517.97
679.36	514.22
679.70	510.47
680.04	506.90
680.37	503.40
680.71	500.01
681.05	496.72
681.39	493.36
681.73	490.14
682.06	487.06
682.40	483.87
682.74	480.65
683.08	477.38
683.42	474.20
683.75	471.19
684.09	468.13
684.43	465.34
684.77	462.38
685.10	459.54
685.44	456.56
685.78	453.61
686.12	450.83
686.45	448.09
686.79	445.41
687.13	442.86
687.46	440.27
687.80	437.57
688.14	434.72
688.48	432.07
688.81	429.34
689.15	426.67
689.49	424.00
689.82	421.44
690.16	418.87
690.50	416.35
690.83	413.76
691.17	411.19
691.51	408.65
691.84	406.33
692.18	404.09
692.52	401.88
692.85	399.72
693.19	397.52
693.52	395.35
693.86	393.08
694.20	390.80
694.53	388.56
694.87	386.32
695.21	384.16
695.54	381.97
695.88	379.78
696.21	377.60
696.55	375.50
696.88	373.40
697.22	371.36
697.56	369.44
697.89	367.48
698.23	365.71
698.56	363.92
698.90	362.16
699.23	360.27
699.57	358.36
699.90	356.44
700.24	354.59
700.58	352.77
700.91	351.09
701.25	349.49
701.58	347.88
701.92	346.28
702.25	344.66
702.59	343.01
702.92	341.45
703.26	339.84
703.59	338.30
703.93	336.98
704.26	335.49
704.60	333.96
704.93	332.51
705.26	330.93
705.60	329.42
705.93	327.83
706.27	326.43
706.60	325.12
706.94	323.91
707.27	322.51
707.61	321.17
707.94	319.83
708.27	318.30
708.61	316.84
708.94	315.44
709.28	314.12
709.61	312.83
709.94	311.59
710.28	310.35
710.61	309.17
710.95	307.78
711.28	306.67
711.61	305.44
711.95	304.31
712.28	303.13
712.61	301.91
712.95	300.86
713.28	299.81
713.61	298.64
713.95	297.43
714.28	296.42
714.61	295.35
714.95	294.31
715.28	293.25
715.61	292.23
715.95	291.25
716.28	290.28
716.61	289.34
716.95	288.35
717.28	287.39
717.61	286.40
717.94	285.45
718.28	284.43
718.61	283.59
718.94	282.70
719.27	281.86
719.61	281.06
719.94	280.20
720.27	279.22
720.60	278.37
720.94	277.57
721.27	276.78
721.60	276.07
721.93	275.30
722.27	274.68
722.60	273.99
722.93	273.24
723.26	272.56
723.59	271.84
723.93	271.16
724.26	270.55
724.59	269.89
724.92	269.34
725.25	268.78
725.59	268.19
725.92	267.63
726.25	267.01
726.58	266.45
726.91	265.81
727.24	265.25
727.57	264.71
727.91	264.09
728.24	263.56
728.57	262.97
728.90	262.42
729.23	261.76
729.56	261.34
729.89	260.81
730.22	260.21
730.55	259.65
730.89	259.13
731.22	258.57
731.55	258.05
731.88	257.49
732.21	256.93
732.54	256.34
732.87	255.82
733.20	255.35
733.53	254.85
733.86	254.47
734.19	253.95
734.52	253.51
734.85	253.21
735.18	252.68
735.51	252.27
735.84	251.85
736.17	251.50
736.50	250.95
736.83	250.77
737.16	250.42
737.49	250.00
737.82	249.60
738.15	249.22
738.48	248.80
738.81	248.42
739.14	248.03
739.47	247.63
739.80	247.23
740.13	246.90
740.46	246.48
740.79	246.03
741.12	245.69
741.45	245.32
741.78	244.88
742.11	244.60
742.44	244.22
742.77	243.92
743.10	243.54
743.43	243.20
743.75	242.61
744.08	242.53
744.41	242.20
744.74	241.82
745.07	241.43
745.40	241.16
745.73	240.86
746.06	240.52
746.39	240.23
746.71	239.88
747.04	239.51
747.37	239.18
747.70	238.90
748.03	238.58
748.36	238.31
748.68	237.99
749.01	237.63
749.34	237.37
749.67	237.03
750.00	236.77
750.33	236.62
750.65	236.37
750.98	235.84
751.31	235.59
751.64	235.35
751.97	235.21
752.29	234.95
752.62	234.63
752.95	234.38
753.28	234.13
753.60	233.86
753.93	233.68
754.26	233.48
754.59	233.17
754.91	232.91
755.24	232.63
755.57	232.42
755.90	232.17
756.22	231.91
756.55	231.66
756.88	231.38
757.20	231.06
757.53	230.80
757.86	230.57
758.19	230.37
758.51	230.16
758.84	229.88
759.17	229.64
759.49	229.48
759.82	229.38
760.15	229.19
760.47	229.01
760.80	228.72
761.13	228.51
761.45	228.34
761.78	228.21
762.11	228.02
762.43	227.81
762.76	227.64
763.08	227.49
763.41	227.34
763.74	227.19
764.06	227.05
764.39	226.89
764.71	226.75
765.04	226.56
765.37	226.37
765.69	226.21
766.02	226.11
766.34	225.94
766.67	225.72
767.00	225.65
767.32	225.64
767.65	225.67
767.97	225.53
768.30	225.42
768.62	225.25
768.95	225.15
769.27	225.01
769.60	224.91
769.92	224.74
770.25	224.56
770.57	224.42
770.90	224.26
771.22	224.16
771.55	224.03
771.87	223.96
772.20	223.87
772.52	223.91
772.85	224.01
773.17	223.89
773.50	223.78
773.82	223.63
774.15	223.42
774.47	223.15
774.80	223.05
775.12	222.98
775.45	222.90
775.77	222.81
776.09	222.74
776.42	222.67
776.74	222.73
777.07	222.66
777.39	222.60
777.72	222.50
778.04	222.47
778.36	222.35
778.69	222.27
779.01	222.23
779.33	222.00
779.66	221.68
779.98	221.61
780.31	221.55
780.63	221.57
780.95	221.52
781.28	221.49
781.60	221.39
781.92	221.29
782.25	221.22
782.57	221.11
782.89	221.01
783.22	220.92
783.54	220.76
783.86	220.70
784.19	220.60
784.51	220.63
784.83	220.52
785.16	220.47
785.48	220.40
785.80	220.32
786.12	220.27
786.45	220.22
786.77	220.18
787.09	220.11
787.42	219.97
787.74	219.91
788.06	219.83
788.38	219.80
788.71	219.74
789.03	219.68
789.35	219.67
789.67	219.62
789.99	219.54
790.32	219.45
790.64	219.42
790.96	219.55
791.28	219.40
791.61	219.33
791.93	219.30
792.25	219.26
792.57	219.35
792.89	219.24
793.21	219.24
793.54	219.17
793.86	219.09
794.18	219.04
794.50	218.94
794.82	218.92
795.14	218.90
795.47	218.88
795.79	218.85
796.11	218.72
796.43	218.67
796.75	218.66
797.07	218.62
797.39	218.58
797.71	218.37
798.04	218.34
798.36	218.31
798.68	218.26
799.00	218.24
799.32	218.09
799.64	218.10
799.96	218.03
800.28	218.03
800.60	217.97
800.92	217.97
801.24	217.95
801.56	217.93
801.89	217.87
802.21	217.84
802.53	217.75
802.85	217.79
803.17	217.83
803.49	217.77
803.81	217.71
804.13	217.64
804.45	217.59
804.77	217.57
805.09	217.54
805.41	217.50
805.73	217.39
806.05	217.30
806.37	217.28
806.69	217.21
807.01	217.17
807.33	217.15
807.65	217.03
807.97	217.10
808.28	217.06
808.60	217.01
808.92	216.96
809.24	217.07
809.56	217.04
809.88	216.92
810.20	216.92
810.52	216.96
810.84	216.95
811.16	216.92
811.48	216.87
811.80	216.92
812.12	216.89
812.43	216.94
812.75	216.95
813.07	216.88
813.39	216.85
813.71	216.79
814.03	216.73
814.35	216.75
814.67	216.67
814.98	216.63
815.30	216.60
815.62	216.53
815.94	216.37
816.26	216.36
816.58	216.35
816.89	216.33
817.21	216.24
817.53	216.20
817.85	216.21
818.17	216.22
818.48	216.13
818.80	216.14
819.12	216.07
819.44	216.00
819.76	215.97
820.07	215.94
820.39	215.94
820.71	215.98
821.03	215.96
821.34	215.89
821.66	215.90
821.98	215.90
822.30	215.92
822.61	216.02
822.93	215.96
823.25	215.95
823.57	215.91
823.88	215.96
824.20	215.97
824.52	215.96
824.83	215.93
825.15	215.88
825.47	215.87
825.79	215.88
826.10	215.86
826.42	215.87
826.74	215.91
827.05	215.89
827.37	215.87
827.69	215.86
828.00	215.85
828.32	215.83
828.64	215.79
828.95	215.88
829.27	215.83
829.58	215.80
829.90	215.83
830.22	215.85
830.53	215.78
830.85	215.74
831.17	215.68
831.48	215.65
831.80	215.66
832.11	215.64
832.43	215.57
832.75	215.58
833.06	215.68
833.38	215.60
833.69	215.57
834.01	215.58
834.32	215.55
834.64	215.54
834.96	215.54
835.27	215.53
835.59	215.42
835.90	215.33
836.22	215.35
836.53	215.27
836.85	215.19
837.16	215.37
837.48	215.36
837.79	215.42
838.11	215.43
838.42	215.43
838.74	215.45
839.05	215.43
839.37	215.42
839.68	215.27
840.00	215.26
840.31	215.25
840.63	215.22
840.94	215.21
841.26	215.19
841.57	215.13
841.88	215.17
842.20	215.17
842.51	215.20
842.83	215.19
843.14	215.35
843.46	215.41
843.77	215.29
844.08	215.28
844.40	215.20
844.71	215.15
845.03	215.10
845.34	215.04
845.65	215.03
845.97	215.03
846.28	215.06
846.60	215.06
846.91	215.03
847.22	215.00
847.54	215.01
847.85	215.01
848.16	214.99
848.48	214.93
848.79	214.99
849.10	215.03
849.42	215.01
849.73	214.83
850.04	214.80
850.36	214.73
850.67	214.75
850.98	214.77
851.30	214.81
851.61	214.82
851.92	214.85
852.23	214.90
852.55	214.89
852.86	214.88
853.17	214.90
853.49	214.93
853.80	215.00
854.11	215.02
854.42	215.07
854.74	215.05
855.05	215.08
855.36	214.97
855.67	214.92
855.99	214.91
856.30	215.18
856.61	215.16
856.92	215.17
857.23	215.18
857.55	215.16
857.86	215.15
858.17	215.16
858.48	215.12
858.79	215.11
859.11	215.13
859.42	215.13
859.73	215.07
860.04	215.09
860.35	214.99
860.66	214.93
860.98	214.88
861.29	214.92
861.60	214.84
861.91	214.89
862.22	214.85
862.53	214.85
862.84	214.59
863.16	214.61
863.47	214.58
863.78	214.55
864.09	214.57
864.40	214.59
864.71	214.61
865.02	214.62
865.33	214.57
865.64	214.52
865.95	214.50
866.27	214.69
866.58	214.65
866.89	214.70
867.20	214.72
867.51	214.72
867.82	214.69
868.13	214.78
868.44	214.76
868.75	214.82
869.06	214.80
869.37	214.79
869.68	214.73
869.99	214.75
870.30	214.76
870.61	214.75
870.92	214.71
871.23	214.65
871.54	214.69
871.85	214.79
872.16	214.81
872.47	214.80
872.78	214.60
873.09	214.63
873.40	214.60
873.71	214.61
874.02	214.60
874.33	214.59
874.64	214.58
874.95	214.58
875.26	214.52
875.56	214.54
875.87	214.57
876.18	214.58
876.49	214.81
876.80	214.76
877.11	214.74
877.42	214.76
877.73	214.78
878.04	214.74
878.35	214.66
878.66	214.69
878.96	214.68
879.27	214.69
879.58	214.67
879.89	214.65
880.20	214.68
880.51	214.68
880.82	214.66
881.12	214.65
881.43	214.61
881.74	214.63
882.05	214.62
882.36	214.60
882.67	214.61
882.97	214.39
883.28	214.39
883.59	214.39
883.90	214.41
884.21	214.46
884.51	214.44
884.82	214.42
885.13	214.39
885.44	214.40
885.74	214.40
886.05	214.39
886.36	214.37
886.67	214.31
886.98	214.40
887.28	214.45
887.59	214.47
887.90	214.48
888.20	214.45
888.51	214.49
888.82	214.43
889.13	214.42
889.43	214.58
889.74	214.58
890.05	214.57
890.35	214.54
890.66	214.46
890.97	214.45
891.28	214.46
891.58	214.46
891.89	214.45
892.20	214.45
892.50	214.42
892.81	214.43
893.12	214.41
893.42	214.32
893.73	214.31
894.04	214.27
894.34	214.31
894.65	214.31
894.95	214.25
895.26	214.27
895.57	214.37
895.87	214.15
896.18	214.19
896.48	214.21
896.79	214.19
897.10	214.24
897.40	214.24
897.71	214.26
898.01	214.24
898.32	214.27
898.63	214.28
898.93	214.34
899.24	214.35
899.54	214.35
899.85	214.33
900.15	214.30
900.46	214.29
900.76	214.28
901.07	214.26
901.38	214.26
901.68	214.30
901.99	214.20
902.29	214.19
902.60	214.17
902.90	214.16
903.21	214.14
903.51	214.13
903.82	214.18
904.12	214.15
904.43	214.17
904.73	214.17
905.03	214.14
905.34	214.33
905.64	214.32
905.95	214.30
906.25	214.35
906.56	214.34
906.86	214.39
907.17	214.40
907.47	214.42
907.77	214.41
908.08	214.40
908.38	214.42
908.69	214.49
908.99	214.52
909.30	214.54
909.60	214.53
909.90	214.55
910.21	214.46
910.51	214.46
910.81	214.45
911.12	214.44
911.42	214.46
911.73	214.22
912.03	214.23
912.33	214.28
912.64	214.27
912.94	214.25
913.24	214.19
913.55	214.16
913.85	214.13
914.15	214.19
914.46	214.20
914.76	214.16
915.06	214.12
915.37	214.08
915.67	214.07
915.97	214.08
916.27	214.02
916.58	214.05
916.88	214.05
917.18	214.04
917.49	214.17
917.79	214.16
918.09	214.22
918.39	214.26
918.70	214.25
919.00	214.22
919.30	214.31
919.60	214.33
919.91	214.30
920.21	214.33
920.51	214.29
920.81	214.28
921.12	214.33
921.42	214.30
921.72	214.35
922.02	214.38
922.32	214.45
922.63	214.46
922.93	214.57
923.23	214.58
923.53	214.55
923.83	214.40
924.13	214.41
924.44	214.39
924.74	214.43
925.04	214.50
925.34	214.52
925.64	214.45
925.94	214.42
926.24	214.56
926.55	214.56
926.85	214.61
927.15	214.59
927.45	214.57
927.75	214.59
928.05	214.56
928.35	214.53
928.65	214.52
928.95	214.54
929.26	214.49
929.56	214.55
929.86	214.62
930.16	214.66
930.46	214.66
930.76	214.68
931.06	214.59
931.36	214.53
931.66	214.54
931.96	214.54
932.26	214.55
932.56	214.44
932.86	214.44
933.16	214.42
933.46	214.39
933.76	214.37
934.06	214.42
934.36	214.47
934.66	214.49
934.96	214.48
935.26	214.46
935.56	214.46
935.86	214.39
936.16	214.33
936.46	214.30
936.76	214.25
937.06	214.21
937.36	214.21
937.66	214.22
937.96	214.22
938.26	214.20
938.56	214.19
938.86	214.20
939.16	214.24
939.46	214.23
939.76	214.24
940.06	214.26
940.35	214.22
940.65	214.10
940.95	214.08
941.25	214.00
941.55	214.01
941.85	214.00
942.15	214.03
942.45	214.08
942.75	214.05
943.04	214.07
943.34	214.11
943.64	214.09
943.94	214.04
944.24	214.04
944.54	214.04
944.84	214.02
945.13	213.98
945.43	213.94
945.73	213.95
946.03	213.98
946.33	213.94
946.62	213.94
946.92	213.99
947.22	213.99
947.52	214.04
947.82	214.05
948.11	214.00
948.41	214.01
948.71	213.93
949.01	213.94
949.31	213.94
949.60	213.87
949.90	213.93
950.20	213.93
950.50	213.93
950.79	213.92
951.09	213.97
951.39	213.96
951.69	213.94
951.98	213.99
952.28	213.98
952.58	213.99
952.87	213.97
953.17	213.97
953.47	213.97
953.76	213.97
954.06	213.94
954.36	213.93
954.66	213.88
954.95	213.94
955.25	213.95
955.55	213.98
955.84	213.96
956.14	213.97
956.44	213.98
956.73	213.93
957.03	213.93
957.32	213.92
957.62	213.94
957.92	213.97
958.21	213.93
958.51	214.15
958.81	214.16
959.10	214.17
959.40	214.21
959.69	214.21
959.99	214.23
960.29	214.24
960.58	214.25
960.88	214.33
961.17	214.33
961.47	214.35
961.76	214.30
962.06	214.35
962.36	214.28
962.65	214.28
962.95	214.29
963.24	214.26
963.54	214.27
963.83	214.28
964.13	214.27
964.42	214.22
964.72	214.04
965.01	214.07
965.31	214.05
965.60	214.02
965.90	214.13
966.19	214.07
966.49	214.04
966.78	214.01
967.08	214.00
967.37	214.00
967.67	213.97
967.96	214.04
968.26	214.03
968.55	214.07
968.85	214.07
969.14	214.07
969.43	214.08
969.73	214.07
970.02	214.05
970.32	214.03
970.61	214.05
970.91	214.01
971.20	213.96
971.49	213.95
971.79	213.96
972.08	213.83
972.38	213.86
972.67	213.90
972.96	213.93
973.26	213.87
973.55	213.93
973.85	213.92
974.14	213.89
974.43	213.91
974.73	213.89
975.02	213.88
975.31	213.89
975.61	213.89
975.90	213.87
976.19	213.87
976.49	213.89
976.78	213.87
977.07	213.85
977.37	213.87
977.66	213.89
977.95	213.80
978.24	213.84
978.54	213.88
978.83	213.84
979.12	213.83
979.42	213.84
979.71	213.82
980.00	213.81
980.29	213.81
980.59	213.73
980.88	213.78
981.17	213.78
981.46	213.78
981.76	213.79
982.05	213.87
982.34	213.89
982.63	213.90
982.93	213.93
983.22	213.98
983.51	213.99
983.80	214.05
984.09	214.12
984.39	214.11
984.68	214.07
984.97	214.09
985.26	214.06
985.55	214.06
985.85	214.00
986.14	214.03
986.43	214.06
986.72	214.08
987.01	214.01
987.30	214.01
987.59	213.99
987.89	214.02
988.18	213.93
988.47	213.90
988.76	213.86
989.05	213.85
989.34	213.80
989.63	213.85
989.92	213.81
990.22	213.78
990.51	213.77
990.80	213.80
991.09	213.83
991.38	213.87
991.67	213.85
991.96	213.83
992.25	213.84
992.54	213.80
992.83	213.79
993.12	213.81
993.41	213.84
993.70	213.93
993.99	213.96
994.28	214.00
994.58	214.06
994.87	214.06
995.16	214.05
995.45	214.08
995.74	214.00
996.03	214.04
996.32	214.09
996.61	214.14
996.90	214.12
997.19	214.09
997.48	214.09
997.77	214.12
998.06	214.14
998.34	214.13
998.63	214.14
998.92	214.18
999.21	214.20
999.50	214.20
999.79	214.11
1000.08	214.09
1000.37	214.11
1000.66	214.04
1000.95	214.10
1001.24	214.11
1001.53	214.11
1001.82	214.11
1002.11	214.06
1002.40	214.07
1002.68	214.08
1002.97	214.22
1003.26	214.24
1003.55	214.22
1003.84	214.21
1004.13	214.29
1004.42	214.28
1004.71	214.30
1004.99	214.27
1005.28	214.30
1005.57	214.28
1005.86	214.28
1006.15	214.25
1006.44	214.22
1006.72	214.28
1007.01	214.22
1007.30	214.20
1007.59	214.17
1007.88	214.16
1008.17	214.18
1008.45	214.13
1008.74	214.06
1009.03	213.96
1009.32	213.94
1009.60	213.92
1009.89	213.89
1010.18	213.78
1010.47	213.78
1010.76	213.77
1011.04	213.76
1011.33	213.77
1011.62	213.80
1011.91	213.83
1012.19	213.85
1012.48	213.87
1012.77	213.84
1013.05	213.96
1013.34	213.98
1013.63	214.00
1013.92	214.01
1014.20	214.00
1014.49	213.98
1014.78	214.01
1015.06	213.95
1015.35	213.94
1015.64	213.98
1015.92	214.04
1016.21	214.06
1016.50	214.06
1016.78	214.10
1017.07	214.15
1017.36	214.10
1017.64	214.05
1017.93	214.06
1018.22	214.03
1018.50	214.01
1018.79	213.99
1019.08	213.88
1019.36	213.90
1019.65	213.88
1019.93	213.94
1020.22	213.99
1020.51	214.14
1020.79	214.13
1021.08	213.53
1021.36	213.62
1021.65	213.60
1021.94	213.88
1022.22	214.13
1022.51	213.58
1022.79	215.18
1023.08	214.55
1023.36	217.00
1023.65	213.76
>>>>>End Processed Spectral Data<<<<<
