SpectraSuite Data File
++++++++++++++++++++++++++++++++++++
Date: Tue Jan 29 16:15:11 EST 2013
User: group
Dark Spectrum Present: No
Reference Spectrum Present: No
Number of Sampled Component Spectra: 1
Spectrometers: USB2E7196
Integration Time (usec): 65000 (USB2E7196)
Spectra Averaged: 100 (USB2E7196)
Boxcar Smoothing: 10 (USB2E7196)
Correct for Electrical Dark: No (USB2E7196)
Strobe/Lamp Enabled: No (USB2E7196)
Correct for Detector Non-linearity: No (USB2E7196)
Correct for Stray Light: No (USB2E7196)
Number of Pixels in Processed Spectrum: 2048
>>>>>Begin Processed Spectral Data<<<<<
339.09	0.00
339.48	202.16
339.86	203.24
340.24	205.14
340.63	205.99
341.01	210.70
341.39	209.15
341.78	210.84
342.16	211.93
342.54	212.08
342.93	201.35
343.31	211.52
343.69	212.06
344.07	212.54
344.46	213.00
344.84	213.42
345.22	213.63
345.60	213.92
345.99	214.13
346.37	214.28
346.75	214.41
347.13	214.48
347.52	214.57
347.90	214.73
348.28	214.80
348.66	214.90
349.05	214.90
349.43	215.00
349.81	215.10
350.19	215.14
350.57	215.24
350.96	215.36
351.34	215.48
351.72	215.61
352.10	215.74
352.48	215.79
352.87	215.86
353.25	215.93
353.63	216.00
354.01	216.07
354.39	216.18
354.77	216.27
355.15	216.38
355.54	216.44
355.92	216.43
356.30	216.52
356.68	216.75
357.06	216.82
357.44	216.88
357.82	216.94
358.20	217.05
358.58	217.12
358.97	217.19
359.35	217.29
359.73	217.40
360.11	217.45
360.49	217.56
360.87	217.61
361.25	217.66
361.63	217.77
362.01	217.81
362.39	217.83
362.77	217.88
363.15	217.92
363.53	217.97
363.91	218.02
364.29	218.03
364.67	217.86
365.05	217.91
365.43	217.92
365.81	217.96
366.19	218.05
366.57	218.10
366.95	218.09
367.33	218.07
367.71	218.04
368.09	218.08
368.47	218.03
368.85	218.00
369.23	218.04
369.61	217.95
369.99	218.00
370.37	218.00
370.75	218.06
371.13	218.00
371.51	217.93
371.89	217.90
372.27	217.89
372.65	217.85
373.03	217.81
373.41	217.75
373.78	217.69
374.16	217.53
374.54	217.45
374.92	217.40
375.30	217.33
375.68	217.25
376.06	217.20
376.44	217.18
376.82	217.18
377.19	217.11
377.57	217.04
377.95	216.90
378.33	216.84
378.71	216.67
379.09	216.66
379.47	216.63
379.84	216.57
380.22	216.50
380.60	216.42
380.98	216.34
381.36	216.30
381.73	216.25
382.11	216.27
382.49	216.21
382.87	216.14
383.25	216.05
383.62	216.26
384.00	216.17
384.38	216.12
384.76	216.12
385.13	216.16
385.51	216.15
385.89	216.13
386.27	216.09
386.64	216.11
387.02	216.03
387.40	215.99
387.78	215.96
388.15	215.93
388.53	215.92
388.91	215.91
389.29	215.88
389.66	215.88
390.04	215.80
390.42	215.82
390.79	215.80
391.17	215.85
391.55	215.59
391.92	215.57
392.30	215.61
392.68	215.54
393.05	215.51
393.43	215.50
393.81	215.49
394.18	215.46
394.56	215.44
394.94	215.51
395.31	215.52
395.69	215.58
396.06	215.62
396.44	215.64
396.82	215.66
397.19	215.77
397.57	215.76
397.95	215.84
398.32	215.79
398.70	215.90
399.07	215.92
399.45	215.95
399.82	216.04
400.20	216.04
400.58	216.10
400.95	216.09
401.33	216.20
401.70	216.42
402.08	216.51
402.45	216.60
402.83	216.71
403.20	216.80
403.58	216.89
403.95	217.08
404.33	217.25
404.71	217.40
405.08	217.65
405.46	217.85
405.83	218.03
406.21	218.25
406.58	218.40
406.96	218.65
407.33	218.92
407.70	219.21
408.08	219.67
408.45	220.02
408.83	220.41
409.20	220.73
409.58	220.98
409.95	221.40
410.33	221.88
410.70	222.30
411.08	222.84
411.45	223.39
411.82	223.90
412.20	224.54
412.57	225.34
412.95	225.89
413.32	226.68
413.69	227.51
414.07	228.36
414.44	229.36
414.82	230.34
415.19	231.51
415.56	232.64
415.94	233.77
416.31	235.13
416.68	236.47
417.06	238.03
417.43	239.51
417.81	241.21
418.18	242.93
418.55	244.80
418.93	246.75
419.30	248.77
419.67	250.94
420.04	253.14
420.42	255.40
420.79	258.14
421.16	260.81
421.54	263.61
421.91	266.50
422.28	269.51
422.66	272.73
423.03	275.87
423.40	279.11
423.77	282.58
424.15	286.14
424.52	289.86
424.89	293.85
425.26	297.81
425.64	301.56
426.01	305.73
426.38	310.03
426.75	314.46
427.13	319.03
427.50	323.83
427.87	328.88
428.24	333.93
428.61	338.70
428.99	344.07
429.36	349.86
429.73	355.55
430.10	361.21
430.47	367.00
430.85	373.10
431.22	379.55
431.59	386.44
431.96	392.99
432.33	400.29
432.70	407.34
433.08	415.57
433.45	423.39
433.82	431.13
434.19	439.70
434.56	448.16
434.93	456.24
435.30	464.25
435.68	473.02
436.05	481.68
436.42	490.30
436.79	498.14
437.16	506.56
437.53	515.54
437.90	524.36
438.27	533.04
438.64	541.90
439.01	550.13
439.38	557.41
439.75	564.49
440.13	572.57
440.50	580.24
440.87	586.44
441.24	592.84
441.61	599.86
441.98	605.07
442.35	611.06
442.72	617.12
443.09	623.03
443.46	626.57
443.83	628.98
444.20	631.10
444.57	634.11
444.94	635.51
445.31	636.86
445.68	638.24
446.05	638.75
446.42	638.00
446.79	637.13
447.16	636.06
447.53	635.29
447.90	632.03
448.27	628.81
448.64	624.31
449.01	621.13
449.37	615.45
449.74	610.04
450.11	603.41
450.48	596.30
450.85	589.02
451.22	582.85
451.59	576.94
451.96	571.34
452.33	563.78
452.70	556.95
453.07	548.83
453.43	540.52
453.80	532.57
454.17	524.85
454.54	517.51
454.91	509.62
455.28	501.98
455.65	494.89
456.02	487.68
456.38	481.62
456.75	474.07
457.12	467.73
457.49	461.44
457.86	455.46
458.23	450.27
458.59	444.56
458.96	438.81
459.33	433.73
459.70	428.55
460.07	424.49
460.43	419.83
460.80	415.39
461.17	411.53
461.54	407.55
461.91	403.72
462.27	399.79
462.64	396.55
463.01	392.89
463.38	389.33
463.74	385.83
464.11	382.69
464.48	379.86
464.85	376.89
465.21	374.52
465.58	372.01
465.95	368.95
466.32	366.47
466.68	363.93
467.05	361.41
467.42	358.95
467.78	356.31
468.15	353.84
468.52	352.03
468.88	349.66
469.25	347.48
469.62	345.77
469.98	343.95
470.35	342.17
470.72	340.57
471.08	338.81
471.45	337.37
471.82	335.89
472.18	334.37
472.55	333.21
472.92	331.90
473.28	330.77
473.65	329.73
474.02	328.64
474.38	327.79
474.75	327.09
475.11	326.34
475.48	325.83
475.85	325.42
476.21	324.94
476.58	324.62
476.94	324.38
477.31	324.09
477.67	323.86
478.04	323.74
478.41	323.71
478.77	323.91
479.14	323.87
479.50	324.04
479.87	324.31
480.23	324.70
480.60	324.95
480.96	325.22
481.33	325.83
481.69	326.41
482.06	326.97
482.42	327.49
482.79	328.11
483.15	328.89
483.52	329.83
483.88	330.73
484.25	331.64
484.61	332.64
484.98	333.71
485.34	335.05
485.71	336.42
486.07	337.84
486.44	339.15
486.80	340.76
487.17	342.43
487.53	344.23
487.90	346.07
488.26	348.12
488.62	350.30
488.99	352.32
489.35	354.53
489.72	356.91
490.08	359.43
490.44	361.97
490.81	364.67
491.17	367.38
491.54	370.36
491.90	373.41
492.26	376.71
492.63	380.04
492.99	383.49
493.36	387.18
493.72	391.03
494.08	395.01
494.45	399.16
494.81	403.50
495.17	407.90
495.54	412.60
495.90	417.37
496.26	422.32
496.63	427.57
496.99	432.89
497.35	438.45
497.72	444.22
498.08	450.10
498.44	456.21
498.80	462.58
499.17	469.06
499.53	475.74
499.89	482.62
500.26	489.57
500.62	496.61
500.98	503.91
501.34	511.33
501.71	519.11
502.07	526.90
502.43	534.81
502.79	542.96
503.16	551.30
503.52	559.79
503.88	568.34
504.24	577.18
504.60	586.22
504.97	595.39
505.33	604.57
505.69	614.42
506.05	624.15
506.41	633.95
506.78	643.87
507.14	654.04
507.50	664.39
507.86	675.01
508.22	685.66
508.59	696.20
508.95	707.19
509.31	718.31
509.67	729.67
510.03	741.07
510.39	752.76
510.75	764.41
511.12	776.20
511.48	788.22
511.84	800.34
512.20	812.58
512.56	825.09
512.92	837.86
513.28	850.32
513.64	863.00
514.00	875.65
514.37	888.49
514.73	901.41
515.09	914.19
515.45	926.95
515.81	939.88
516.17	953.19
516.53	966.18
516.89	979.08
517.25	992.07
517.61	1005.37
517.97	1018.54
518.33	1031.53
518.69	1044.91
519.05	1058.46
519.41	1071.92
519.77	1085.44
520.13	1098.47
520.49	1111.29
520.85	1124.34
521.21	1137.42
521.57	1150.81
521.93	1163.65
522.29	1177.09
522.65	1190.51
523.01	1203.87
523.37	1216.76
523.73	1229.80
524.09	1242.70
524.45	1255.99
524.81	1269.18
525.17	1282.37
525.53	1295.25
525.89	1308.37
526.25	1321.26
526.61	1333.74
526.97	1346.51
527.33	1359.14
527.68	1372.19
528.04	1385.45
528.40	1398.29
528.76	1411.33
529.12	1423.85
529.48	1436.80
529.84	1448.73
530.20	1461.21
530.56	1473.50
530.91	1486.52
531.27	1499.05
531.63	1511.60
531.99	1523.94
532.35	1535.94
532.71	1547.90
533.07	1560.39
533.42	1572.29
533.78	1584.06
534.14	1595.89
534.50	1606.85
534.86	1618.20
535.21	1628.86
535.57	1640.05
535.93	1651.14
536.29	1661.85
536.65	1673.02
537.00	1683.71
537.36	1694.82
537.72	1705.42
538.08	1716.50
538.44	1727.06
538.79	1737.81
539.15	1748.25
539.51	1758.60
539.87	1769.56
540.22	1780.06
540.58	1790.54
540.94	1800.97
541.29	1810.85
541.65	1820.35
542.01	1830.63
542.37	1840.34
542.72	1850.28
543.08	1859.61
543.44	1869.69
543.79	1878.62
544.15	1887.78
544.51	1897.39
544.87	1906.94
545.22	1915.84
545.58	1924.41
545.94	1933.00
546.29	1941.34
546.65	1949.50
547.01	1957.51
547.36	1964.94
547.72	1972.37
548.07	1979.88
548.43	1987.42
548.79	1995.05
549.14	2002.87
549.50	2010.88
549.86	2018.41
550.21	2025.41
550.57	2032.96
550.92	2039.46
551.28	2046.88
551.64	2054.05
551.99	2061.39
552.35	2068.58
552.70	2075.27
553.06	2081.70
553.41	2087.71
553.77	2093.92
554.13	2100.12
554.48	2107.04
554.84	2113.96
555.19	2120.25
555.55	2126.61
555.90	2132.74
556.26	2139.33
556.61	2145.10
556.97	2149.85
557.32	2155.51
557.68	2161.83
558.03	2167.46
558.39	2172.74
558.74	2178.56
559.10	2184.03
559.45	2189.66
559.81	2194.90
560.16	2200.35
560.52	2206.17
560.87	2212.57
561.23	2218.52
561.58	2225.11
561.94	2230.20
562.29	2234.89
562.64	2241.12
563.00	2246.64
563.35	2252.13
563.71	2258.05
564.06	2263.62
564.42	2269.64
564.77	2274.91
565.12	2280.21
565.48	2285.33
565.83	2290.78
566.19	2296.30
566.54	2301.67
566.89	2306.13
567.25	2310.74
567.60	2316.54
567.96	2321.72
568.31	2326.29
568.66	2330.43
569.02	2334.23
569.37	2338.05
569.72	2342.44
570.08	2346.05
570.43	2349.15
570.78	2352.41
571.14	2354.88
571.49	2358.30
571.84	2361.88
572.20	2364.69
572.55	2367.83
572.90	2370.21
573.26	2373.31
573.61	2375.78
573.96	2377.88
574.31	2380.00
574.67	2382.05
575.02	2383.01
575.37	2384.49
575.72	2385.33
576.08	2387.00
576.43	2387.59
576.78	2388.36
577.13	2390.17
577.49	2391.40
577.84	2392.69
578.19	2394.25
578.54	2395.07
578.90	2396.02
579.25	2396.09
579.60	2396.33
579.95	2395.82
580.30	2396.12
580.66	2395.47
581.01	2394.04
581.36	2392.12
581.71	2390.85
582.06	2389.89
582.42	2389.10
582.77	2387.21
583.12	2385.86
583.47	2384.87
583.82	2384.24
584.17	2383.15
584.53	2381.07
584.88	2379.12
585.23	2377.26
585.58	2375.03
585.93	2373.06
586.28	2370.98
586.63	2368.79
586.98	2366.68
587.34	2364.71
587.69	2362.56
588.04	2360.75
588.39	2359.53
588.74	2357.10
589.09	2354.79
589.44	2351.84
589.79	2349.59
590.14	2347.72
590.49	2345.16
590.84	2341.38
591.19	2338.58
591.54	2335.37
591.89	2331.52
592.25	2328.49
592.60	2324.49
592.95	2320.59
593.30	2316.62
593.65	2312.47
594.00	2308.18
594.35	2305.48
594.70	2301.09
595.05	2296.56
595.40	2291.30
595.75	2285.59
596.10	2282.15
596.45	2277.28
596.80	2272.82
597.15	2267.58
597.50	2261.85
597.85	2256.89
598.19	2251.81
598.54	2246.10
598.89	2241.08
599.24	2236.57
599.59	2230.50
599.94	2224.96
600.29	2219.13
600.64	2213.33
600.99	2206.71
601.34	2201.32
601.69	2194.24
602.04	2188.04
602.39	2181.58
602.74	2175.64
603.08	2170.32
603.43	2163.83
603.78	2157.29
604.13	2150.43
604.48	2143.41
604.83	2137.46
605.18	2131.28
605.53	2124.30
605.87	2117.27
606.22	2110.54
606.57	2102.89
606.92	2094.97
607.27	2088.17
607.62	2081.60
607.96	2074.79
608.31	2068.24
608.66	2060.65
609.01	2053.25
609.36	2046.13
609.70	2038.50
610.05	2030.91
610.40	2022.65
610.75	2014.36
611.10	2006.65
611.44	1997.90
611.79	1989.21
612.14	1979.25
612.49	1968.73
612.83	1959.67
613.18	1950.67
613.53	1941.37
613.88	1931.85
614.22	1923.40
614.57	1913.47
614.92	1903.12
615.27	1893.08
615.61	1883.07
615.96	1873.33
616.31	1863.74
616.65	1854.32
617.00	1844.49
617.35	1834.74
617.70	1825.09
618.04	1815.21
618.39	1805.01
618.74	1795.36
619.08	1785.82
619.43	1777.23
619.78	1769.01
620.12	1760.29
620.47	1750.58
620.82	1740.32
621.16	1730.64
621.51	1720.70
621.85	1710.97
622.20	1700.43
622.55	1689.70
622.89	1680.02
623.24	1670.36
623.59	1660.67
623.93	1650.57
624.28	1640.90
624.62	1630.78
624.97	1620.47
625.32	1610.75
625.66	1601.92
626.01	1593.10
626.35	1583.75
626.70	1573.64
627.04	1563.54
627.39	1553.49
627.73	1544.33
628.08	1535.46
628.43	1525.78
628.77	1516.64
629.12	1507.77
629.46	1499.97
629.81	1491.62
630.15	1481.95
630.50	1472.19
630.84	1461.67
631.19	1451.87
631.53	1442.50
631.88	1432.46
632.22	1422.57
632.57	1413.18
632.91	1402.99
633.26	1393.12
633.60	1383.59
633.95	1374.34
634.29	1365.05
634.64	1355.79
634.98	1345.88
635.32	1336.54
635.67	1328.08
636.01	1318.85
636.36	1309.04
636.70	1299.50
637.05	1290.29
637.39	1281.46
637.73	1272.87
638.08	1265.31
638.42	1257.08
638.77	1248.36
639.11	1240.04
639.45	1232.18
639.80	1223.64
640.14	1215.10
640.49	1206.30
640.83	1197.52
641.17	1189.46
641.52	1181.25
641.86	1172.66
642.20	1164.79
642.55	1156.28
642.89	1147.51
643.23	1138.90
643.58	1130.86
643.92	1121.92
644.26	1113.22
644.61	1104.79
644.95	1096.16
645.29	1087.00
645.64	1077.99
645.98	1069.65
646.32	1061.82
646.66	1053.41
647.01	1045.15
647.35	1037.06
647.69	1028.73
648.04	1020.51
648.38	1011.65
648.72	1002.94
649.06	994.56
649.41	986.44
649.75	978.44
650.09	970.57
650.43	962.53
650.78	954.39
651.12	946.83
651.46	939.50
651.80	932.29
652.14	924.92
652.49	917.60
652.83	910.26
653.17	902.66
653.51	895.14
653.85	887.97
654.20	880.76
654.54	873.20
654.88	866.14
655.22	858.97
655.56	852.05
655.90	845.30
656.25	838.69
656.59	831.77
656.93	824.82
657.27	817.77
657.61	810.94
657.95	804.87
658.29	799.01
658.64	792.90
658.98	786.53
659.32	780.01
659.66	773.72
660.00	767.46
660.34	761.43
660.68	755.35
661.02	749.08
661.36	743.24
661.70	737.63
662.05	732.01
662.39	726.63
662.73	721.34
663.07	716.05
663.41	710.52
663.75	704.99
664.09	699.50
664.43	694.23
664.77	688.95
665.11	683.10
665.45	677.30
665.79	671.61
666.13	665.99
666.47	660.63
666.81	655.34
667.15	650.11
667.49	644.96
667.83	639.75
668.17	634.66
668.51	629.61
668.85	624.76
669.19	619.96
669.53	614.96
669.87	609.96
670.21	605.27
670.55	600.63
670.89	596.23
671.23	592.04
671.57	587.73
671.91	583.54
672.25	579.63
672.58	575.51
672.92	571.50
673.26	567.67
673.60	563.86
673.94	560.09
674.28	556.45
674.62	552.80
674.96	549.16
675.30	545.60
675.64	541.98
675.97	538.41
676.31	534.87
676.65	531.36
676.99	527.92
677.33	524.14
677.67	520.59
678.01	516.82
678.34	513.18
678.68	509.73
679.02	506.16
679.36	502.47
679.70	498.92
680.04	495.46
680.37	492.09
680.71	488.87
681.05	485.73
681.39	482.60
681.73	479.54
682.06	476.60
682.40	473.58
682.74	470.49
683.08	467.34
683.42	464.18
683.75	461.26
684.09	458.28
684.43	455.58
684.77	452.67
685.10	449.88
685.44	447.03
685.78	444.15
686.12	441.44
686.45	438.76
686.79	436.19
687.13	433.72
687.46	431.11
687.80	428.43
688.14	425.67
688.48	423.10
688.81	420.44
689.15	417.88
689.49	415.33
689.82	412.83
690.16	410.33
690.50	407.94
690.83	405.47
691.17	403.00
691.51	400.56
691.84	398.39
692.18	396.23
692.52	394.04
692.85	391.97
693.19	389.85
693.52	387.74
693.86	385.61
694.20	383.49
694.53	381.47
694.87	379.34
695.21	377.25
695.54	375.13
695.88	372.98
696.21	370.83
696.55	368.75
696.88	366.78
697.22	364.82
697.56	362.99
697.89	361.17
698.23	359.51
698.56	357.75
698.90	356.00
699.23	354.13
699.57	352.31
699.90	350.42
700.24	348.70
700.58	346.99
700.91	345.32
701.25	343.77
701.58	342.16
701.92	340.60
702.25	339.05
702.59	337.48
702.92	336.03
703.26	334.53
703.59	333.12
703.93	331.90
704.26	330.56
704.60	329.06
704.93	327.57
705.26	326.09
705.60	324.65
705.93	323.22
706.27	321.97
706.60	320.79
706.94	319.64
707.27	318.29
707.61	316.97
707.94	315.66
708.27	314.20
708.61	312.82
708.94	311.49
709.28	310.22
709.61	309.01
709.94	307.80
710.28	306.64
710.61	305.49
710.95	304.09
711.28	303.03
711.61	301.87
711.95	300.80
712.28	299.62
712.61	298.49
712.95	297.45
713.28	296.39
713.61	295.24
713.95	294.09
714.28	293.08
714.61	292.05
714.95	291.04
715.28	290.02
715.61	289.01
715.95	288.09
716.28	287.17
716.61	286.27
716.95	285.30
717.28	284.36
717.61	283.44
717.94	282.58
718.28	281.55
718.61	280.72
718.94	279.85
719.27	279.07
719.61	278.27
719.94	277.43
720.27	276.47
720.60	275.67
720.94	274.94
721.27	274.22
721.60	273.56
721.93	272.87
722.27	272.31
722.60	271.63
722.93	270.95
723.26	270.33
723.59	269.64
723.93	269.05
724.26	268.43
724.59	267.78
724.92	267.20
725.25	266.68
725.59	266.11
725.92	265.56
726.25	264.99
726.58	264.39
726.91	263.79
727.24	263.33
727.57	262.76
727.91	262.16
728.24	261.65
728.57	261.07
728.90	260.54
729.23	259.90
729.56	259.52
729.89	258.99
730.22	258.40
730.55	257.87
730.89	257.36
731.22	256.86
731.55	256.36
731.88	255.85
732.21	255.29
732.54	254.77
732.87	254.32
733.20	253.85
733.53	253.40
733.86	252.99
734.19	252.51
734.52	252.12
734.85	251.84
735.18	251.35
735.51	251.02
735.84	250.60
736.17	250.26
736.50	249.73
736.83	249.56
737.16	249.22
737.49	248.88
737.82	248.50
738.15	248.18
738.48	247.82
738.81	247.42
739.14	247.07
739.47	246.69
739.80	246.32
740.13	245.99
740.46	245.60
740.79	245.19
741.12	244.87
741.45	244.48
741.78	244.05
742.11	243.76
742.44	243.33
742.77	243.05
743.10	242.69
743.43	242.37
743.75	241.84
744.08	241.77
744.41	241.38
744.74	241.03
745.07	240.65
745.40	240.35
745.73	240.11
746.06	239.82
746.39	239.54
746.71	239.20
747.04	238.84
747.37	238.57
747.70	238.31
748.03	237.99
748.36	237.75
748.68	237.44
749.01	237.15
749.34	236.89
749.67	236.56
750.00	236.25
750.33	236.10
750.65	235.85
750.98	235.30
751.31	235.08
751.64	234.86
751.97	234.72
752.29	234.44
752.62	234.13
752.95	233.86
753.28	233.61
753.60	233.38
753.93	233.24
754.26	233.04
754.59	232.78
754.91	232.56
755.24	232.32
755.57	232.11
755.90	231.88
756.22	231.67
756.55	231.48
756.88	231.26
757.20	230.93
757.53	230.69
757.86	230.48
758.19	230.28
758.51	230.06
758.84	229.76
759.17	229.57
759.49	229.37
759.82	229.29
760.15	229.12
760.47	228.93
760.80	228.66
761.13	228.50
761.45	228.30
761.78	228.12
762.11	227.96
762.43	227.78
762.76	227.59
763.08	227.45
763.41	227.29
763.74	227.15
764.06	227.00
764.39	226.87
764.71	226.73
765.04	226.59
765.37	226.44
765.69	226.31
766.02	226.17
766.34	226.03
766.67	225.81
767.00	225.72
767.32	225.71
767.65	225.71
767.97	225.56
768.30	225.46
768.62	225.34
768.95	225.21
769.27	225.09
769.60	225.01
769.92	224.85
770.25	224.68
770.57	224.54
770.90	224.46
771.22	224.32
771.55	224.24
771.87	224.12
772.20	224.02
772.52	224.07
772.85	224.18
773.17	224.08
773.50	224.00
773.82	223.86
774.15	223.62
774.47	223.40
774.80	223.30
775.12	223.18
775.45	223.09
775.77	223.00
776.09	222.92
776.42	222.82
776.74	222.81
777.07	222.76
777.39	222.69
777.72	222.55
778.04	222.52
778.36	222.43
778.69	222.34
779.01	222.24
779.33	222.00
779.66	221.70
779.98	221.63
780.31	221.53
780.63	221.55
780.95	221.54
781.28	221.47
781.60	221.36
781.92	221.32
782.25	221.26
782.57	221.20
782.89	221.15
783.22	221.05
783.54	220.95
783.86	220.87
784.19	220.81
784.51	220.81
784.83	220.68
785.16	220.61
785.48	220.58
785.80	220.54
786.12	220.50
786.45	220.45
786.77	220.38
787.09	220.36
787.42	220.22
787.74	220.16
788.06	220.12
788.38	220.06
788.71	219.97
789.03	219.90
789.35	219.87
789.67	219.80
789.99	219.77
790.32	219.69
790.64	219.70
790.96	219.80
791.28	219.67
791.61	219.63
791.93	219.62
792.25	219.56
792.57	219.65
792.89	219.56
793.21	219.54
793.54	219.50
793.86	219.42
794.18	219.41
794.50	219.32
794.82	219.27
795.14	219.25
795.47	219.27
795.79	219.21
796.11	219.10
796.43	219.05
796.75	219.04
797.07	219.03
797.39	218.94
797.71	218.76
798.04	218.77
798.36	218.74
798.68	218.65
799.00	218.62
799.32	218.49
799.64	218.48
799.96	218.43
800.28	218.42
800.60	218.39
800.92	218.35
801.24	218.31
801.56	218.30
801.89	218.22
802.21	218.15
802.53	218.09
802.85	218.13
803.17	218.21
803.49	218.09
803.81	218.02
804.13	217.99
804.45	217.94
804.77	217.92
805.09	217.89
805.41	217.87
805.73	217.81
806.05	217.74
806.37	217.73
806.69	217.68
807.01	217.63
807.33	217.58
807.65	217.49
807.97	217.58
808.28	217.53
808.60	217.52
808.92	217.50
809.24	217.61
809.56	217.53
809.88	217.42
810.20	217.44
810.52	217.47
810.84	217.42
811.16	217.38
811.48	217.32
811.80	217.40
812.12	217.37
812.43	217.39
812.75	217.37
813.07	217.32
813.39	217.30
813.71	217.24
814.03	217.25
814.35	217.25
814.67	217.13
814.98	217.08
815.30	217.07
815.62	217.01
815.94	216.85
816.26	216.86
816.58	216.78
816.89	216.78
817.21	216.71
817.53	216.72
817.85	216.69
818.17	216.65
818.48	216.56
818.80	216.57
819.12	216.49
819.44	216.44
819.76	216.43
820.07	216.42
820.39	216.40
820.71	216.37
821.03	216.35
821.34	216.33
821.66	216.37
821.98	216.38
822.30	216.37
822.61	216.47
822.93	216.43
823.25	216.41
823.57	216.34
823.88	216.38
824.20	216.37
824.52	216.40
824.83	216.39
825.15	216.33
825.47	216.31
825.79	216.33
826.10	216.31
826.42	216.27
826.74	216.29
827.05	216.29
827.37	216.31
827.69	216.29
828.00	216.28
828.32	216.27
828.64	216.23
828.95	216.34
829.27	216.27
829.58	216.23
829.90	216.27
830.22	216.28
830.53	216.19
830.85	216.12
831.17	216.06
831.48	216.06
831.80	216.09
832.11	216.04
832.43	216.00
832.75	216.00
833.06	216.11
833.38	216.02
833.69	216.00
834.01	215.97
834.32	215.95
834.64	215.94
834.96	215.92
835.27	215.92
835.59	215.84
835.90	215.81
836.22	215.84
836.53	215.81
836.85	215.78
837.16	216.00
837.48	216.05
837.79	216.08
838.11	216.08
838.42	216.05
838.74	216.08
839.05	216.10
839.37	216.05
839.68	215.95
840.00	215.95
840.31	215.97
840.63	215.95
840.94	215.96
841.26	215.90
841.57	215.89
841.88	215.89
842.20	215.85
842.51	215.83
842.83	215.81
843.14	215.99
843.46	216.02
843.77	215.86
844.08	215.87
844.40	215.80
844.71	215.76
845.03	215.76
845.34	215.74
845.65	215.71
845.97	215.74
846.28	215.71
846.60	215.75
846.91	215.71
847.22	215.69
847.54	215.73
847.85	215.76
848.16	215.75
848.48	215.70
848.79	215.75
849.10	215.78
849.42	215.75
849.73	215.52
850.04	215.49
850.36	215.45
850.67	215.47
850.98	215.50
851.30	215.53
851.61	215.52
851.92	215.51
852.23	215.58
852.55	215.58
852.86	215.62
853.17	215.62
853.49	215.64
853.80	215.67
854.11	215.66
854.42	215.71
854.74	215.69
855.05	215.72
855.36	215.63
855.67	215.64
855.99	215.63
856.30	215.89
856.61	215.88
856.92	215.86
857.23	215.79
857.55	215.75
857.86	215.71
858.17	215.73
858.48	215.70
858.79	215.65
859.11	215.68
859.42	215.62
859.73	215.59
860.04	215.58
860.35	215.53
860.66	215.45
860.98	215.39
861.29	215.40
861.60	215.35
861.91	215.40
862.22	215.36
862.53	215.35
862.84	215.14
863.16	215.22
863.47	215.17
863.78	215.16
864.09	215.20
864.40	215.23
864.71	215.21
865.02	215.24
865.33	215.20
865.64	215.15
865.95	215.17
866.27	215.31
866.58	215.30
866.89	215.31
867.20	215.32
867.51	215.29
867.82	215.27
868.13	215.34
868.44	215.30
868.75	215.35
869.06	215.34
869.37	215.33
869.68	215.23
869.99	215.28
870.30	215.31
870.61	215.31
870.92	215.25
871.23	215.25
871.54	215.28
871.85	215.35
872.16	215.37
872.47	215.37
872.78	215.22
873.09	215.24
873.40	215.22
873.71	215.22
874.02	215.21
874.33	215.21
874.64	215.16
874.95	215.19
875.26	215.12
875.56	215.13
875.87	215.13
876.18	215.14
876.49	215.35
876.80	215.32
877.11	215.29
877.42	215.32
877.73	215.34
878.04	215.29
878.35	215.25
878.66	215.25
878.96	215.26
879.27	215.25
879.58	215.26
879.89	215.23
880.20	215.32
880.51	215.32
880.82	215.30
881.12	215.30
881.43	215.28
881.74	215.25
882.05	215.23
882.36	215.23
882.67	215.22
882.97	214.99
883.28	214.93
883.59	214.94
883.90	214.95
884.21	214.98
884.51	214.97
884.82	214.97
885.13	215.00
885.44	214.96
885.74	214.94
886.05	214.90
886.36	214.94
886.67	214.85
886.98	214.98
887.28	215.01
887.59	215.03
887.90	215.03
888.20	215.01
888.51	215.07
888.82	215.03
889.13	215.02
889.43	215.20
889.74	215.20
890.05	215.17
890.35	215.15
890.66	215.08
890.97	215.06
891.28	215.03
891.58	214.97
891.89	214.99
892.20	215.02
892.50	215.02
892.81	215.01
893.12	215.01
893.42	214.93
893.73	214.92
894.04	214.89
894.34	214.93
894.65	214.95
894.95	214.92
895.26	214.93
895.57	215.05
895.87	214.87
896.18	214.95
896.48	214.94
896.79	214.93
897.10	214.94
897.40	215.00
897.71	215.06
898.01	215.04
898.32	215.08
898.63	215.04
898.93	215.02
899.24	215.00
899.54	214.96
899.85	214.93
900.15	214.92
900.46	214.94
900.76	214.93
901.07	214.93
901.38	214.91
901.68	214.96
901.99	214.86
902.29	214.86
902.60	214.85
902.90	214.85
903.21	214.85
903.51	214.85
903.82	214.85
904.12	214.82
904.43	214.83
904.73	214.80
905.03	214.83
905.34	215.04
905.64	215.04
905.95	215.06
906.25	215.07
906.56	215.09
906.86	215.06
907.17	215.02
907.47	215.02
907.77	214.99
908.08	214.94
908.38	214.96
908.69	214.95
908.99	214.99
909.30	215.03
909.60	215.05
909.90	215.08
910.21	215.05
910.51	215.00
910.81	215.02
911.12	215.04
911.42	215.04
911.73	214.82
912.03	214.86
912.33	214.90
912.64	214.89
912.94	214.84
913.24	214.79
913.55	214.76
913.85	214.76
914.15	214.84
914.46	214.86
914.76	214.82
915.06	214.84
915.37	214.81
915.67	214.77
915.97	214.74
916.27	214.72
916.58	214.70
916.88	214.72
917.18	214.69
917.49	214.80
917.79	214.82
918.09	214.83
918.39	214.88
918.70	214.85
919.00	214.84
919.30	214.95
919.60	214.97
919.91	214.97
920.21	215.01
920.51	214.92
920.81	214.89
921.12	214.93
921.42	214.92
921.72	214.92
922.02	214.94
922.32	214.97
922.63	214.97
922.93	215.10
923.23	215.13
923.53	215.13
923.83	215.02
924.13	215.02
924.44	215.03
924.74	215.08
925.04	215.14
925.34	215.15
925.64	215.07
925.94	215.09
926.24	215.22
926.55	215.20
926.85	215.25
927.15	215.25
927.45	215.21
927.75	215.18
928.05	215.18
928.35	215.18
928.65	215.21
928.95	215.22
929.26	215.13
929.56	215.16
929.86	215.15
930.16	215.13
930.46	215.13
930.76	215.15
931.06	215.06
931.36	215.01
931.66	215.06
931.96	215.09
932.26	215.09
932.56	215.01
932.86	215.02
933.16	215.00
933.46	215.03
933.76	215.02
934.06	215.08
934.36	215.12
934.66	215.11
934.96	215.06
935.26	215.05
935.56	215.05
935.86	214.95
936.16	214.94
936.46	214.90
936.76	214.87
937.06	214.83
937.36	214.78
937.66	214.75
937.96	214.71
938.26	214.65
938.56	214.64
938.86	214.65
939.16	214.68
939.46	214.69
939.76	214.67
940.06	214.69
940.35	214.64
940.65	214.56
940.95	214.58
941.25	214.57
941.55	214.54
941.85	214.54
942.15	214.63
942.45	214.69
942.75	214.71
943.04	214.72
943.34	214.76
943.64	214.74
943.94	214.74
944.24	214.73
944.54	214.73
944.84	214.73
945.13	214.66
945.43	214.65
945.73	214.65
946.03	214.62
946.33	214.60
946.62	214.59
946.92	214.58
947.22	214.60
947.52	214.58
947.82	214.61
948.11	214.57
948.41	214.50
948.71	214.46
949.01	214.47
949.31	214.44
949.60	214.41
949.90	214.46
950.20	214.45
950.50	214.46
950.79	214.44
951.09	214.44
951.39	214.44
951.69	214.41
951.98	214.46
952.28	214.47
952.58	214.45
952.87	214.47
953.17	214.49
953.47	214.46
953.76	214.44
954.06	214.40
954.36	214.39
954.66	214.38
954.95	214.45
955.25	214.45
955.55	214.46
955.84	214.48
956.14	214.50
956.44	214.50
956.73	214.46
957.03	214.50
957.32	214.49
957.62	214.49
957.92	214.53
958.21	214.49
958.51	214.74
958.81	214.77
959.10	214.78
959.40	214.83
959.69	214.84
959.99	214.89
960.29	214.91
960.58	214.91
960.88	215.00
961.17	214.95
961.47	214.99
961.76	214.98
962.06	214.98
962.36	214.97
962.65	214.99
962.95	215.06
963.24	215.07
963.54	215.09
963.83	215.09
964.13	215.09
964.42	215.05
964.72	214.86
965.01	214.86
965.31	214.84
965.60	214.75
965.90	214.87
966.19	214.81
966.49	214.82
966.78	214.80
967.08	214.79
967.37	214.78
967.67	214.71
967.96	214.78
968.26	214.78
968.55	214.77
968.85	214.76
969.14	214.72
969.43	214.66
969.73	214.66
970.02	214.67
970.32	214.63
970.61	214.61
970.91	214.56
971.20	214.58
971.49	214.56
971.79	214.63
972.08	214.48
972.38	214.51
972.67	214.49
972.96	214.54
973.26	214.49
973.55	214.55
973.85	214.56
974.14	214.52
974.43	214.54
974.73	214.52
975.02	214.51
975.31	214.51
975.61	214.53
975.90	214.48
976.19	214.48
976.49	214.48
976.78	214.51
977.07	214.53
977.37	214.52
977.66	214.58
977.95	214.53
978.24	214.54
978.54	214.59
978.83	214.57
979.12	214.54
979.42	214.55
979.71	214.50
980.00	214.49
980.29	214.48
980.59	214.40
980.88	214.47
981.17	214.46
981.46	214.47
981.76	214.46
982.05	214.55
982.34	214.55
982.63	214.58
982.93	214.56
983.22	214.61
983.51	214.61
983.80	214.60
984.09	214.62
984.39	214.64
984.68	214.61
984.97	214.65
985.26	214.64
985.55	214.66
985.85	214.60
986.14	214.65
986.43	214.68
986.72	214.70
987.01	214.61
987.30	214.63
987.59	214.60
987.89	214.62
988.18	214.57
988.47	214.56
988.76	214.52
989.05	214.51
989.34	214.47
989.63	214.53
989.92	214.49
990.22	214.43
990.51	214.41
990.80	214.40
991.09	214.42
991.38	214.45
991.67	214.44
991.96	214.42
992.25	214.41
992.54	214.38
992.83	214.39
993.12	214.40
993.41	214.42
993.70	214.52
993.99	214.58
994.28	214.58
994.58	214.61
994.87	214.59
995.16	214.59
995.45	214.55
995.74	214.47
996.03	214.51
996.32	214.59
996.61	214.62
996.90	214.63
997.19	214.61
997.48	214.59
997.77	214.56
998.06	214.61
998.34	214.59
998.63	214.60
998.92	214.59
999.21	214.65
999.50	214.65
999.79	214.58
1000.08	214.55
1000.37	214.58
1000.66	214.56
1000.95	214.61
1001.24	214.63
1001.53	214.65
1001.82	214.62
1002.11	214.58
1002.40	214.59
1002.68	214.63
1002.97	214.76
1003.26	214.72
1003.55	214.68
1003.84	214.71
1004.13	214.75
1004.42	214.72
1004.71	214.69
1004.99	214.67
1005.28	214.69
1005.57	214.67
1005.86	214.66
1006.15	214.64
1006.44	214.59
1006.72	214.60
1007.01	214.53
1007.30	214.53
1007.59	214.52
1007.88	214.56
1008.17	214.59
1008.45	214.57
1008.74	214.46
1009.03	214.36
1009.32	214.40
1009.60	214.42
1009.89	214.39
1010.18	214.30
1010.47	214.32
1010.76	214.34
1011.04	214.34
1011.33	214.35
1011.62	214.35
1011.91	214.35
1012.19	214.34
1012.48	214.34
1012.77	214.33
1013.05	214.47
1013.34	214.46
1013.63	214.47
1013.92	214.46
1014.20	214.43
1014.49	214.41
1014.78	214.48
1015.06	214.42
1015.35	214.42
1015.64	214.46
1015.92	214.50
1016.21	214.52
1016.50	214.50
1016.78	214.50
1017.07	214.52
1017.36	214.45
1017.64	214.42
1017.93	214.43
1018.22	214.43
1018.50	214.44
1018.79	214.44
1019.08	214.34
1019.36	214.35
1019.65	214.32
1019.93	214.38
1020.22	214.41
1020.51	214.51
1020.79	214.47
1021.08	213.91
1021.36	214.29
1021.65	214.49
1021.94	214.40
1022.22	214.34
1022.51	213.98
1022.79	215.53
1023.08	214.71
1023.36	216.73
1023.65	214.10
>>>>>End Processed Spectral Data<<<<<
