SpectraSuite Data File
++++++++++++++++++++++++++++++++++++
Date: Tue Jan 29 16:27:34 EST 2013
User: group
Dark Spectrum Present: No
Reference Spectrum Present: No
Number of Sampled Component Spectra: 1
Spectrometers: USB2E7196
Integration Time (usec): 65000 (USB2E7196)
Spectra Averaged: 100 (USB2E7196)
Boxcar Smoothing: 10 (USB2E7196)
Correct for Electrical Dark: No (USB2E7196)
Strobe/Lamp Enabled: No (USB2E7196)
Correct for Detector Non-linearity: No (USB2E7196)
Correct for Stray Light: No (USB2E7196)
Number of Pixels in Processed Spectrum: 2048
>>>>>Begin Processed Spectral Data<<<<<
339.09	0.00
339.48	201.95
339.86	203.29
340.24	205.20
340.63	206.05
341.01	210.88
341.39	208.88
341.78	210.84
342.16	211.91
342.54	212.60
342.93	201.22
343.31	211.38
343.69	211.95
344.07	212.43
344.46	212.85
344.84	213.26
345.22	213.44
345.60	213.73
345.99	213.92
346.37	214.04
346.75	214.13
347.13	214.23
347.52	214.30
347.90	214.43
348.28	214.50
348.66	214.60
349.05	214.56
349.43	214.64
349.81	214.73
350.19	214.78
350.57	214.85
350.96	214.94
351.34	215.03
351.72	215.09
352.10	215.20
352.48	215.29
352.87	215.35
353.25	215.42
353.63	215.50
354.01	215.53
354.39	215.61
354.77	215.71
355.15	215.85
355.54	215.88
355.92	215.91
356.30	215.95
356.68	216.15
357.06	216.23
357.44	216.26
357.82	216.33
358.20	216.43
358.58	216.49
358.97	216.56
359.35	216.70
359.73	216.84
360.11	216.91
360.49	216.97
360.87	217.02
361.25	217.12
361.63	217.21
362.01	217.31
362.39	217.34
362.77	217.40
363.15	217.41
363.53	217.49
363.91	217.49
364.29	217.56
364.67	217.39
365.05	217.43
365.43	217.51
365.81	217.56
366.19	217.68
366.57	217.79
366.95	217.78
367.33	217.69
367.71	217.65
368.09	217.69
368.47	217.67
368.85	217.67
369.23	217.66
369.61	217.58
369.99	217.61
370.37	217.63
370.75	217.71
371.13	217.65
371.51	217.63
371.89	217.64
372.27	217.61
372.65	217.60
373.03	217.58
373.41	217.49
373.78	217.41
374.16	217.27
374.54	217.16
374.92	217.09
375.30	217.10
375.68	217.04
376.06	217.02
376.44	216.98
376.82	216.95
377.19	216.87
377.57	216.82
377.95	216.71
378.33	216.65
378.71	216.48
379.09	216.48
379.47	216.43
379.84	216.34
380.22	216.29
380.60	216.20
380.98	216.15
381.36	216.08
381.73	216.04
382.11	216.03
382.49	215.98
382.87	215.92
383.25	215.87
383.62	216.07
384.00	215.96
384.38	215.92
384.76	215.91
385.13	215.94
385.51	215.92
385.89	215.86
386.27	215.81
386.64	215.79
387.02	215.75
387.40	215.73
387.78	215.73
388.15	215.70
388.53	215.67
388.91	215.62
389.29	215.64
389.66	215.63
390.04	215.61
390.42	215.61
390.79	215.61
391.17	215.60
391.55	215.36
391.92	215.36
392.30	215.40
392.68	215.33
393.05	215.32
393.43	215.32
393.81	215.31
394.18	215.33
394.56	215.34
394.94	215.39
395.31	215.32
395.69	215.41
396.06	215.45
396.44	215.48
396.82	215.47
397.19	215.58
397.57	215.60
397.95	215.63
398.32	215.64
398.70	215.70
399.07	215.79
399.45	215.79
399.82	215.83
400.20	215.84
400.58	215.92
400.95	215.90
401.33	216.02
401.70	216.24
402.08	216.33
402.45	216.41
402.83	216.51
403.20	216.66
403.58	216.73
403.95	216.88
404.33	217.05
404.71	217.23
405.08	217.47
405.46	217.65
405.83	217.83
406.21	218.02
406.58	218.25
406.96	218.48
407.33	218.77
407.70	219.10
408.08	219.57
408.45	219.92
408.83	220.36
409.20	220.68
409.58	221.00
409.95	221.47
410.33	221.95
410.70	222.40
411.08	222.98
411.45	223.54
411.82	224.09
412.20	224.80
412.57	225.62
412.95	226.20
413.32	227.01
413.69	227.87
414.07	228.82
414.44	229.81
414.82	230.81
415.19	232.00
415.56	233.17
415.94	234.33
416.31	235.73
416.68	237.11
417.06	238.74
417.43	240.29
417.81	242.04
418.18	243.86
418.55	245.80
418.93	247.80
419.30	249.90
419.67	252.13
420.04	254.40
420.42	256.76
420.79	259.59
421.16	262.35
421.54	265.27
421.91	268.22
422.28	271.34
422.66	274.61
423.03	277.87
423.40	281.23
423.77	284.89
424.15	288.57
424.52	292.38
424.89	296.58
425.26	300.68
425.64	304.51
426.01	308.78
426.38	313.25
426.75	317.85
427.13	322.59
427.50	327.56
427.87	332.78
428.24	338.02
428.61	343.03
428.99	348.57
429.36	354.57
429.73	360.44
430.10	366.32
430.47	372.42
430.85	378.75
431.22	385.49
431.59	392.60
431.96	399.44
432.33	406.96
432.70	414.18
433.08	422.68
433.45	430.74
433.82	438.73
434.19	447.60
434.56	456.30
434.93	464.69
435.30	473.01
435.68	482.14
436.05	491.14
436.42	500.03
436.79	508.16
437.16	516.84
437.53	526.23
437.90	535.35
438.27	544.30
438.64	553.46
439.01	561.96
439.38	569.51
439.75	576.79
440.13	585.19
440.50	593.20
440.87	599.60
441.24	606.27
441.61	613.72
441.98	619.15
442.35	625.38
442.72	631.71
443.09	637.75
443.46	641.49
443.83	643.93
444.20	646.16
444.57	649.37
444.94	650.88
445.31	652.26
445.68	653.66
446.05	654.37
446.42	653.67
446.79	652.75
447.16	651.69
447.53	650.94
447.90	647.63
448.27	644.28
448.64	639.64
449.01	636.28
449.37	630.35
449.74	624.64
450.11	617.81
450.48	610.40
450.85	602.88
451.22	596.33
451.59	590.20
451.96	584.36
452.33	576.44
452.70	569.34
453.07	560.84
453.43	552.24
453.80	543.87
454.17	535.84
454.54	528.28
454.91	520.05
455.28	512.05
455.65	504.64
456.02	497.17
456.38	490.82
456.75	483.03
457.12	476.43
457.49	469.91
457.86	463.73
458.23	458.35
458.59	452.52
458.96	446.59
459.33	441.33
459.70	435.96
460.07	431.70
460.43	426.78
460.80	422.21
461.17	418.21
461.54	413.99
461.91	409.95
462.27	405.85
462.64	402.45
463.01	398.68
463.38	394.97
463.74	391.23
464.11	388.00
464.48	385.11
464.85	382.03
465.21	379.62
465.58	376.98
465.95	373.81
466.32	371.09
466.68	368.49
467.05	365.90
467.42	363.36
467.78	360.69
468.15	358.14
468.52	356.23
468.88	353.72
469.25	351.49
469.62	349.71
469.98	347.74
470.35	345.92
470.72	344.20
471.08	342.42
471.45	340.94
471.82	339.43
472.18	337.75
472.55	336.47
472.92	335.10
473.28	333.88
473.65	332.72
474.02	331.65
474.38	330.73
474.75	330.00
475.11	329.18
475.48	328.56
475.85	328.12
476.21	327.62
476.58	327.23
476.94	327.03
477.31	326.73
477.67	326.46
478.04	326.29
478.41	326.27
478.77	326.42
479.14	326.33
479.50	326.41
479.87	326.70
480.23	327.08
480.60	327.30
480.96	327.57
481.33	328.18
481.69	328.74
482.06	329.25
482.42	329.65
482.79	330.24
483.15	331.08
483.52	332.04
483.88	332.90
484.25	333.90
484.61	334.93
484.98	335.98
485.34	337.33
485.71	338.71
486.07	340.17
486.44	341.50
486.80	343.20
487.17	344.97
487.53	346.84
487.90	348.69
488.26	350.74
488.62	352.91
488.99	354.98
489.35	357.21
489.72	359.62
490.08	362.19
490.44	364.79
490.81	367.47
491.17	370.20
491.54	373.22
491.90	376.28
492.26	379.52
492.63	382.93
492.99	386.44
493.36	390.15
493.72	394.00
494.08	398.09
494.45	402.27
494.81	406.70
495.17	411.12
495.54	415.86
495.90	420.63
496.26	425.58
496.63	430.76
496.99	436.13
497.35	441.82
497.72	447.71
498.08	453.67
498.44	459.88
498.80	466.35
499.17	472.85
499.53	479.53
499.89	486.47
500.26	493.48
500.62	500.60
500.98	508.04
501.34	515.59
501.71	523.35
502.07	531.21
502.43	539.18
502.79	547.44
503.16	555.91
503.52	564.65
503.88	573.48
504.24	582.54
504.60	591.71
504.97	600.94
505.33	610.27
505.69	620.23
506.05	630.17
506.41	640.12
506.78	650.30
507.14	660.65
507.50	671.20
507.86	682.05
508.22	692.92
508.59	703.70
508.95	714.83
509.31	726.17
509.67	737.73
510.03	749.28
510.39	761.17
510.75	773.09
511.12	785.06
511.48	797.25
511.84	809.57
512.20	822.03
512.56	834.80
512.92	847.75
513.28	860.46
513.64	873.33
514.00	886.30
514.37	899.40
514.73	912.71
515.09	925.76
515.45	938.76
515.81	952.03
516.17	965.52
516.53	978.90
516.89	992.07
517.25	1005.33
517.61	1018.94
517.97	1032.35
518.33	1045.63
518.69	1059.34
519.05	1073.22
519.41	1087.07
519.77	1101.09
520.13	1114.55
520.49	1127.85
520.85	1141.40
521.21	1154.89
521.57	1168.82
521.93	1182.07
522.29	1195.87
522.65	1209.73
523.01	1223.49
523.37	1236.81
523.73	1250.22
524.09	1263.50
524.45	1277.14
524.81	1290.74
525.17	1304.33
525.53	1317.72
525.89	1331.10
526.25	1344.37
526.61	1357.35
526.97	1370.62
527.33	1383.63
527.68	1397.16
528.04	1410.74
528.40	1423.89
528.76	1437.28
529.12	1450.18
529.48	1463.58
529.84	1475.94
530.20	1488.80
530.56	1501.45
530.91	1514.80
531.27	1527.81
531.63	1540.73
531.99	1553.68
532.35	1566.00
532.71	1578.38
533.07	1591.41
533.42	1603.85
533.78	1616.01
534.14	1628.12
534.50	1639.43
534.86	1651.20
535.21	1662.23
535.57	1673.91
535.93	1685.41
536.29	1696.53
536.65	1708.06
537.00	1719.14
537.36	1730.68
537.72	1741.77
538.08	1753.19
538.44	1764.19
538.79	1775.36
539.15	1786.35
539.51	1797.11
539.87	1808.73
540.22	1819.67
540.58	1830.62
540.94	1841.65
541.29	1852.19
541.65	1862.12
542.01	1872.72
542.37	1882.77
542.72	1893.09
543.08	1902.95
543.44	1913.58
543.79	1923.10
544.15	1932.64
544.51	1942.74
544.87	1952.70
545.22	1961.97
545.58	1970.99
545.94	1979.98
546.29	1988.59
546.65	1997.07
547.01	2005.45
547.36	2013.13
547.72	2021.09
548.07	2028.76
548.43	2036.50
548.79	2044.39
549.14	2052.52
549.50	2061.09
549.86	2069.08
550.21	2076.59
550.57	2084.30
550.92	2091.10
551.28	2098.70
551.64	2106.09
551.99	2113.71
552.35	2120.98
552.70	2127.93
553.06	2134.74
553.41	2141.06
553.77	2147.67
554.13	2154.11
554.48	2161.18
554.84	2168.27
555.19	2174.82
555.55	2181.33
555.90	2187.68
556.26	2194.47
556.61	2200.68
556.97	2205.53
557.32	2211.37
557.68	2217.67
558.03	2223.39
558.39	2228.75
558.74	2234.72
559.10	2240.31
559.45	2245.79
559.81	2251.31
560.16	2256.88
560.52	2262.84
560.87	2269.30
561.23	2275.15
561.58	2281.86
561.94	2287.08
562.29	2291.94
562.64	2298.14
563.00	2303.76
563.35	2309.42
563.71	2315.20
564.06	2320.98
564.42	2326.99
564.77	2332.10
565.12	2337.50
565.48	2342.69
565.83	2348.23
566.19	2353.67
566.54	2358.99
566.89	2363.77
567.25	2368.51
567.60	2374.25
567.96	2379.39
568.31	2383.98
568.66	2388.31
569.02	2392.15
569.37	2396.02
569.72	2400.53
570.08	2403.90
570.43	2407.16
570.78	2410.31
571.14	2412.97
571.49	2416.12
571.84	2419.67
572.20	2422.66
572.55	2425.69
572.90	2428.04
573.26	2430.86
573.61	2433.48
573.96	2435.67
574.31	2437.60
574.67	2439.53
575.02	2440.30
575.37	2441.67
575.72	2442.41
576.08	2443.95
576.43	2444.20
576.78	2444.49
577.13	2445.98
577.49	2447.20
577.84	2448.27
578.19	2449.61
578.54	2450.15
578.90	2450.78
579.25	2450.67
579.60	2450.57
579.95	2449.73
580.30	2449.89
580.66	2449.27
581.01	2447.59
581.36	2445.19
581.71	2443.92
582.06	2442.66
582.42	2441.80
582.77	2439.58
583.12	2437.96
583.47	2436.56
583.82	2436.07
584.17	2434.99
584.53	2432.82
584.88	2430.68
585.23	2428.75
585.58	2426.47
585.93	2424.38
586.28	2422.29
586.63	2419.82
586.98	2417.75
587.34	2415.87
587.69	2413.39
588.04	2411.32
588.39	2409.86
588.74	2407.44
589.09	2404.60
589.44	2401.54
589.79	2399.05
590.14	2397.02
590.49	2394.22
590.84	2390.32
591.19	2387.05
591.54	2383.63
591.89	2379.59
592.25	2376.32
592.60	2372.00
592.95	2367.63
593.30	2363.51
593.65	2359.02
594.00	2354.53
594.35	2351.44
594.70	2346.75
595.05	2342.30
595.40	2336.83
595.75	2331.05
596.10	2327.34
596.45	2322.44
596.80	2317.78
597.15	2312.47
597.50	2306.68
597.85	2301.50
598.19	2296.19
598.54	2290.38
598.89	2285.20
599.24	2280.64
599.59	2274.48
599.94	2268.71
600.29	2262.91
600.64	2256.94
600.99	2250.03
601.34	2244.50
601.69	2237.34
602.04	2230.79
602.39	2223.96
602.74	2217.73
603.08	2212.18
603.43	2205.61
603.78	2198.66
604.13	2191.52
604.48	2184.27
604.83	2178.04
605.18	2171.76
605.53	2164.83
605.87	2157.64
606.22	2150.92
606.57	2142.88
606.92	2134.77
607.27	2127.84
607.62	2121.00
607.96	2113.83
608.31	2107.40
608.66	2099.68
609.01	2092.02
609.36	2084.90
609.70	2077.19
610.05	2069.38
610.40	2060.93
610.75	2052.58
611.10	2044.83
611.44	2035.83
611.79	2027.04
612.14	2016.97
612.49	2006.32
612.83	1996.96
613.18	1987.75
613.53	1978.35
613.88	1968.79
614.22	1960.19
614.57	1950.30
614.92	1939.66
615.27	1929.47
615.61	1919.22
615.96	1909.37
616.31	1899.73
616.65	1890.32
617.00	1880.37
617.35	1870.59
617.70	1860.79
618.04	1850.67
618.39	1840.44
618.74	1830.71
619.08	1820.98
619.43	1812.12
619.78	1803.86
620.12	1795.09
620.47	1785.49
620.82	1775.07
621.16	1765.11
621.51	1755.17
621.85	1745.10
622.20	1734.69
622.55	1723.97
622.89	1714.02
623.24	1704.14
623.59	1694.11
623.93	1683.79
624.28	1673.92
624.62	1663.74
624.97	1653.39
625.32	1643.46
625.66	1634.55
626.01	1625.76
626.35	1616.26
626.70	1606.20
627.04	1596.04
627.39	1585.88
627.73	1576.35
628.08	1567.33
628.43	1557.74
628.77	1548.38
629.12	1539.48
629.46	1531.56
629.81	1523.16
630.15	1513.48
630.50	1503.81
630.84	1493.44
631.19	1483.49
631.53	1474.17
631.88	1463.90
632.22	1453.83
632.57	1444.33
632.91	1434.02
633.26	1424.12
633.60	1414.49
633.95	1405.12
634.29	1395.50
634.64	1386.06
634.98	1376.00
635.32	1366.56
635.67	1357.97
636.01	1348.55
636.36	1338.67
636.70	1329.03
637.05	1319.57
637.39	1310.67
637.73	1301.83
638.08	1294.15
638.42	1285.96
638.77	1277.07
639.11	1268.80
639.45	1260.90
639.80	1252.31
640.14	1243.54
640.49	1234.52
640.83	1225.67
641.17	1217.39
641.52	1209.30
641.86	1200.68
642.20	1192.75
642.55	1184.10
642.89	1175.09
643.23	1166.36
643.58	1158.20
643.92	1149.14
644.26	1140.42
644.61	1131.79
644.95	1122.89
645.29	1113.51
645.64	1104.19
645.98	1095.56
646.32	1087.52
646.66	1078.85
647.01	1070.47
647.35	1062.18
647.69	1053.82
648.04	1045.41
648.38	1036.46
648.72	1027.49
649.06	1018.94
649.41	1010.66
649.75	1002.58
650.09	994.65
650.43	986.46
650.78	978.07
651.12	970.20
651.46	962.65
651.80	955.35
652.14	947.96
652.49	940.36
652.83	932.93
653.17	925.19
653.51	917.51
653.85	910.19
654.20	902.85
654.54	895.32
654.88	887.85
655.22	880.59
655.56	873.47
655.90	866.60
656.25	859.84
656.59	852.85
656.93	845.71
657.27	838.45
657.61	831.48
657.95	825.21
658.29	819.21
658.64	812.88
658.98	806.28
659.32	799.67
659.66	793.35
660.00	786.90
660.34	780.78
660.68	774.59
661.02	768.17
661.36	762.13
661.70	756.26
662.05	750.66
662.39	745.13
662.73	739.66
663.07	734.14
663.41	728.46
663.75	722.65
664.09	716.89
664.43	711.43
664.77	706.03
665.11	700.17
665.45	694.25
665.79	688.48
666.13	682.79
666.47	677.21
666.81	671.74
667.15	666.31
667.49	660.99
667.83	655.65
668.17	650.30
668.51	645.10
668.85	640.12
669.19	635.15
669.53	630.03
669.87	624.91
670.21	620.17
670.55	615.41
670.89	610.88
671.23	606.52
671.57	602.03
671.91	597.69
672.25	593.51
672.58	589.37
672.92	585.31
673.26	581.31
673.60	577.46
673.94	573.56
674.28	569.86
674.62	566.08
674.96	562.30
675.30	558.82
675.64	555.16
675.97	551.58
676.31	547.84
676.65	544.22
676.99	540.72
677.33	536.79
677.67	533.07
678.01	529.18
678.34	525.49
678.68	521.92
679.02	518.25
679.36	514.48
679.70	510.74
680.04	507.02
680.37	503.48
680.71	500.03
681.05	496.83
681.39	493.53
681.73	490.33
682.06	487.24
682.40	484.03
682.74	480.76
683.08	477.44
683.42	474.20
683.75	471.14
684.09	468.06
684.43	465.20
684.77	462.22
685.10	459.41
685.44	456.48
685.78	453.55
686.12	450.73
686.45	448.03
686.79	445.29
687.13	442.76
687.46	440.14
687.80	437.44
688.14	434.54
688.48	431.84
688.81	429.12
689.15	426.50
689.49	423.87
689.82	421.28
690.16	418.62
690.50	416.20
690.83	413.64
691.17	411.05
691.51	408.55
691.84	406.29
692.18	404.01
692.52	401.73
692.85	399.56
693.19	397.42
693.52	395.19
693.86	392.98
694.20	390.76
694.53	388.58
694.87	386.33
695.21	384.17
695.54	381.99
695.88	379.83
696.21	377.64
696.55	375.49
696.88	373.47
697.22	371.48
697.56	369.51
697.89	367.64
698.23	365.87
698.56	364.04
698.90	362.26
699.23	360.35
699.57	358.47
699.90	356.57
700.24	354.68
700.58	352.91
700.91	351.17
701.25	349.58
701.58	347.97
701.92	346.37
702.25	344.74
702.59	343.11
702.92	341.57
703.26	339.95
703.59	338.46
703.93	337.13
704.26	335.67
704.60	334.21
704.93	332.69
705.26	331.15
705.60	329.65
705.93	328.12
706.27	326.73
706.60	325.46
706.94	324.22
707.27	322.83
707.61	321.48
707.94	320.15
708.27	318.59
708.61	317.09
708.94	315.72
709.28	314.43
709.61	313.16
709.94	311.90
710.28	310.65
710.61	309.47
710.95	308.06
711.28	306.96
711.61	305.69
711.95	304.54
712.28	303.37
712.61	302.19
712.95	301.11
713.28	300.10
713.61	298.92
713.95	297.74
714.28	296.68
714.61	295.60
714.95	294.57
715.28	293.53
715.61	292.51
715.95	291.53
716.28	290.57
716.61	289.61
716.95	288.60
717.28	287.68
717.61	286.68
717.94	285.76
718.28	284.73
718.61	283.84
718.94	282.91
719.27	282.02
719.61	281.21
719.94	280.31
720.27	279.29
720.60	278.42
720.94	277.59
721.27	276.82
721.60	276.12
721.93	275.37
722.27	274.74
722.60	274.07
722.93	273.35
723.26	272.66
723.59	271.92
723.93	271.30
724.26	270.65
724.59	270.00
724.92	269.38
725.25	268.85
725.59	268.27
725.92	267.74
726.25	267.14
726.58	266.54
726.91	265.92
727.24	265.38
727.57	264.82
727.91	264.22
728.24	263.68
728.57	263.06
728.90	262.48
729.23	261.83
729.56	261.40
729.89	260.82
730.22	260.24
730.55	259.70
730.89	259.17
731.22	258.60
731.55	258.08
731.88	257.55
732.21	256.98
732.54	256.45
732.87	255.91
733.20	255.42
733.53	254.95
733.86	254.47
734.19	253.97
734.52	253.57
734.85	253.24
735.18	252.72
735.51	252.33
735.84	251.91
736.17	251.54
736.50	251.03
736.83	250.90
737.16	250.46
737.49	250.09
737.82	249.65
738.15	249.28
738.48	248.89
738.81	248.48
739.14	248.04
739.47	247.66
739.80	247.30
740.13	246.98
740.46	246.58
740.79	246.19
741.12	245.86
741.45	245.47
741.78	245.05
742.11	244.81
742.44	244.44
742.77	244.15
743.10	243.78
743.43	243.40
743.75	242.77
744.08	242.72
744.41	242.33
744.74	241.98
745.07	241.63
745.40	241.32
745.73	241.11
746.06	240.80
746.39	240.50
746.71	240.16
747.04	239.76
747.37	239.42
747.70	239.18
748.03	238.85
748.36	238.57
748.68	238.26
749.01	237.88
749.34	237.58
749.67	237.24
750.00	237.00
750.33	236.86
750.65	236.65
750.98	236.12
751.31	235.90
751.64	235.68
751.97	235.53
752.29	235.24
752.62	234.87
752.95	234.63
753.28	234.33
753.60	234.06
753.93	233.89
754.26	233.70
754.59	233.38
754.91	233.13
755.24	232.89
755.57	232.66
755.90	232.42
756.22	232.21
756.55	231.96
756.88	231.68
757.20	231.33
757.53	231.07
757.86	230.85
758.19	230.65
758.51	230.43
758.84	230.11
759.17	229.92
759.49	229.76
759.82	229.66
760.15	229.53
760.47	229.33
760.80	229.07
761.13	228.90
761.45	228.69
761.78	228.54
762.11	228.37
762.43	228.15
762.76	227.98
763.08	227.80
763.41	227.64
763.74	227.50
764.06	227.35
764.39	227.20
764.71	227.06
765.04	226.88
765.37	226.71
765.69	226.55
766.02	226.43
766.34	226.24
766.67	226.03
767.00	225.89
767.32	225.90
767.65	225.91
767.97	225.76
768.30	225.65
768.62	225.52
768.95	225.35
769.27	225.25
769.60	225.17
769.92	225.02
770.25	224.90
770.57	224.74
770.90	224.59
771.22	224.49
771.55	224.36
771.87	224.25
772.20	224.11
772.52	224.20
772.85	224.31
773.17	224.22
773.50	224.09
773.82	223.97
774.15	223.73
774.47	223.49
774.80	223.37
775.12	223.28
775.45	223.19
775.77	223.09
776.09	223.01
776.42	222.87
776.74	222.86
777.07	222.79
777.39	222.71
777.72	222.63
778.04	222.53
778.36	222.43
778.69	222.38
779.01	222.32
779.33	222.05
779.66	221.73
779.98	221.61
780.31	221.55
780.63	221.52
780.95	221.50
781.28	221.43
781.60	221.33
781.92	221.24
782.25	221.18
782.57	221.11
782.89	221.01
783.22	220.95
783.54	220.83
783.86	220.73
784.19	220.64
784.51	220.63
784.83	220.57
785.16	220.48
785.48	220.40
785.80	220.34
786.12	220.30
786.45	220.25
786.77	220.23
787.09	220.15
787.42	220.05
787.74	219.99
788.06	219.95
788.38	219.93
788.71	219.88
789.03	219.78
789.35	219.77
789.67	219.69
789.99	219.66
790.32	219.56
790.64	219.58
790.96	219.69
791.28	219.56
791.61	219.50
791.93	219.47
792.25	219.42
792.57	219.52
792.89	219.43
793.21	219.40
793.54	219.31
793.86	219.26
794.18	219.23
794.50	219.17
794.82	219.09
795.14	219.04
795.47	219.03
795.79	218.96
796.11	218.88
796.43	218.82
796.75	218.76
797.07	218.73
797.39	218.63
797.71	218.45
798.04	218.42
798.36	218.38
798.68	218.32
799.00	218.28
799.32	218.16
799.64	218.16
799.96	218.11
800.28	218.13
800.60	218.07
800.92	218.01
801.24	217.95
801.56	217.93
801.89	217.89
802.21	217.84
802.53	217.83
802.85	217.84
803.17	217.91
803.49	217.85
803.81	217.82
804.13	217.78
804.45	217.74
804.77	217.70
805.09	217.68
805.41	217.64
805.73	217.60
806.05	217.49
806.37	217.42
806.69	217.37
807.01	217.30
807.33	217.31
807.65	217.25
807.97	217.29
808.28	217.26
808.60	217.21
808.92	217.17
809.24	217.26
809.56	217.22
809.88	217.11
810.20	217.08
810.52	217.06
810.84	217.02
811.16	216.98
811.48	216.94
811.80	216.99
812.12	216.99
812.43	216.99
812.75	217.02
813.07	217.00
813.39	216.97
813.71	216.92
814.03	216.86
814.35	216.83
814.67	216.72
814.98	216.66
815.30	216.66
815.62	216.61
815.94	216.47
816.26	216.41
816.58	216.38
816.89	216.42
817.21	216.38
817.53	216.39
817.85	216.37
818.17	216.38
818.48	216.26
818.80	216.26
819.12	216.20
819.44	216.09
819.76	216.06
820.07	216.04
820.39	216.08
820.71	216.09
821.03	216.06
821.34	216.06
821.66	216.09
821.98	216.05
822.30	216.06
822.61	216.17
822.93	216.17
823.25	216.13
823.57	216.08
823.88	216.11
824.20	216.08
824.52	216.10
824.83	216.07
825.15	216.06
825.47	216.08
825.79	216.12
826.10	216.13
826.42	216.09
826.74	216.11
827.05	216.04
827.37	216.01
827.69	215.96
828.00	215.96
828.32	215.91
828.64	215.89
828.95	215.96
829.27	215.88
829.58	215.85
829.90	215.89
830.22	215.91
830.53	215.86
830.85	215.83
831.17	215.76
831.48	215.76
831.80	215.74
832.11	215.67
832.43	215.59
832.75	215.56
833.06	215.70
833.38	215.61
833.69	215.62
834.01	215.61
834.32	215.62
834.64	215.60
834.96	215.62
835.27	215.63
835.59	215.58
835.90	215.52
836.22	215.50
836.53	215.41
836.85	215.33
837.16	215.54
837.48	215.53
837.79	215.63
838.11	215.62
838.42	215.62
838.74	215.66
839.05	215.64
839.37	215.64
839.68	215.51
840.00	215.54
840.31	215.54
840.63	215.54
840.94	215.51
841.26	215.47
841.57	215.46
841.88	215.45
842.20	215.40
842.51	215.39
842.83	215.40
843.14	215.60
843.46	215.65
843.77	215.51
844.08	215.50
844.40	215.41
844.71	215.38
845.03	215.33
845.34	215.29
845.65	215.29
845.97	215.29
846.28	215.27
846.60	215.27
846.91	215.26
847.22	215.27
847.54	215.34
847.85	215.35
848.16	215.33
848.48	215.32
848.79	215.38
849.10	215.42
849.42	215.42
849.73	215.24
850.04	215.17
850.36	215.09
850.67	215.12
850.98	215.11
851.30	215.13
851.61	215.14
851.92	215.15
852.23	215.19
852.55	215.21
852.86	215.25
853.17	215.28
853.49	215.30
853.80	215.30
854.11	215.28
854.42	215.31
854.74	215.30
855.05	215.30
855.36	215.17
855.67	215.15
855.99	215.15
856.30	215.41
856.61	215.43
856.92	215.39
857.23	215.41
857.55	215.40
857.86	215.37
858.17	215.41
858.48	215.39
858.79	215.36
859.11	215.36
859.42	215.32
859.73	215.27
860.04	215.26
860.35	215.19
860.66	215.12
860.98	215.10
861.29	215.09
861.60	215.05
861.91	215.12
862.22	215.07
862.53	215.04
862.84	214.78
863.16	214.81
863.47	214.83
863.78	214.76
864.09	214.77
864.40	214.77
864.71	214.78
865.02	214.79
865.33	214.75
865.64	214.71
865.95	214.69
866.27	214.81
866.58	214.79
866.89	214.81
867.20	214.86
867.51	214.81
867.82	214.83
868.13	214.90
868.44	214.85
868.75	214.93
869.06	214.93
869.37	214.93
869.68	214.89
869.99	214.92
870.30	214.94
870.61	214.95
870.92	214.93
871.23	214.93
871.54	214.93
871.85	215.00
872.16	215.02
872.47	215.00
872.78	214.89
873.09	214.91
873.40	214.92
873.71	214.92
874.02	214.96
874.33	214.94
874.64	214.91
874.95	214.95
875.26	214.88
875.56	214.88
875.87	214.90
876.18	214.90
876.49	215.09
876.80	215.06
877.11	215.02
877.42	215.02
877.73	214.99
878.04	214.97
878.35	214.93
878.66	214.94
878.96	214.97
879.27	214.94
879.58	214.93
879.89	214.92
880.20	214.98
880.51	214.96
880.82	214.94
881.12	214.96
881.43	214.91
881.74	214.87
882.05	214.86
882.36	214.85
882.67	214.88
882.97	214.62
883.28	214.60
883.59	214.62
883.90	214.62
884.21	214.68
884.51	214.67
884.82	214.66
885.13	214.64
885.44	214.61
885.74	214.63
886.05	214.63
886.36	214.63
886.67	214.54
886.98	214.65
887.28	214.69
887.59	214.66
887.90	214.65
888.20	214.65
888.51	214.70
888.82	214.65
889.13	214.63
889.43	214.84
889.74	214.86
890.05	214.87
890.35	214.85
890.66	214.80
890.97	214.79
891.28	214.78
891.58	214.79
891.89	214.80
892.20	214.75
892.50	214.68
892.81	214.68
893.12	214.68
893.42	214.58
893.73	214.58
894.04	214.58
894.34	214.61
894.65	214.63
894.95	214.58
895.26	214.63
895.57	214.72
895.87	214.51
896.18	214.53
896.48	214.54
896.79	214.53
897.10	214.56
897.40	214.58
897.71	214.60
898.01	214.56
898.32	214.60
898.63	214.59
898.93	214.63
899.24	214.64
899.54	214.63
899.85	214.61
900.15	214.56
900.46	214.58
900.76	214.59
901.07	214.59
901.38	214.59
901.68	214.59
901.99	214.50
902.29	214.52
902.60	214.49
902.90	214.47
903.21	214.45
903.51	214.43
903.82	214.45
904.12	214.41
904.43	214.45
904.73	214.43
905.03	214.46
905.34	214.63
905.64	214.58
905.95	214.58
906.25	214.57
906.56	214.60
906.86	214.58
907.17	214.57
907.47	214.55
907.77	214.52
908.08	214.48
908.38	214.50
908.69	214.54
908.99	214.59
909.30	214.57
909.60	214.58
909.90	214.59
910.21	214.52
910.51	214.50
910.81	214.49
911.12	214.52
911.42	214.51
911.73	214.31
912.03	214.36
912.33	214.40
912.64	214.40
912.94	214.38
913.24	214.35
913.55	214.30
913.85	214.30
914.15	214.36
914.46	214.40
914.76	214.35
915.06	214.29
915.37	214.24
915.67	214.24
915.97	214.27
916.27	214.24
916.58	214.27
916.88	214.31
917.18	214.29
917.49	214.41
917.79	214.41
918.09	214.48
918.39	214.50
918.70	214.50
919.00	214.50
919.30	214.62
919.60	214.64
919.91	214.65
920.21	214.67
920.51	214.61
920.81	214.63
921.12	214.68
921.42	214.69
921.72	214.71
922.02	214.73
922.32	214.73
922.63	214.73
922.93	214.84
923.23	214.82
923.53	214.83
923.83	214.68
924.13	214.73
924.44	214.75
924.74	214.77
925.04	214.83
925.34	214.85
925.64	214.74
925.94	214.73
926.24	214.84
926.55	214.83
926.85	214.87
927.15	214.86
927.45	214.84
927.75	214.84
928.05	214.84
928.35	214.81
928.65	214.87
928.95	214.88
929.26	214.82
929.56	214.86
929.86	214.87
930.16	214.86
930.46	214.83
930.76	214.78
931.06	214.71
931.36	214.62
931.66	214.63
931.96	214.66
932.26	214.64
932.56	214.53
932.86	214.51
933.16	214.49
933.46	214.46
933.76	214.46
934.06	214.51
934.36	214.61
934.66	214.61
934.96	214.57
935.26	214.59
935.56	214.58
935.86	214.51
936.16	214.47
936.46	214.47
936.76	214.48
937.06	214.45
937.36	214.45
937.66	214.44
937.96	214.43
938.26	214.37
938.56	214.41
938.86	214.44
939.16	214.54
939.46	214.55
939.76	214.57
940.06	214.57
940.35	214.53
940.65	214.41
940.95	214.43
941.25	214.37
941.55	214.35
941.85	214.34
942.15	214.39
942.45	214.46
942.75	214.44
943.04	214.43
943.34	214.48
943.64	214.47
943.94	214.42
944.24	214.42
944.54	214.44
944.84	214.42
945.13	214.40
945.43	214.34
945.73	214.33
946.03	214.31
946.33	214.24
946.62	214.21
946.92	214.19
947.22	214.20
947.52	214.25
947.82	214.27
948.11	214.28
948.41	214.23
948.71	214.17
949.01	214.22
949.31	214.20
949.60	214.19
949.90	214.23
950.20	214.27
950.50	214.30
950.79	214.29
951.09	214.33
951.39	214.34
951.69	214.31
951.98	214.32
952.28	214.33
952.58	214.34
952.87	214.35
953.17	214.41
953.47	214.37
953.76	214.35
954.06	214.29
954.36	214.21
954.66	214.23
954.95	214.29
955.25	214.28
955.55	214.30
955.84	214.28
956.14	214.26
956.44	214.26
956.73	214.20
957.03	214.19
957.32	214.21
957.62	214.18
957.92	214.25
958.21	214.23
958.51	214.49
958.81	214.52
959.10	214.55
959.40	214.57
959.69	214.59
959.99	214.63
960.29	214.67
960.58	214.70
960.88	214.79
961.17	214.74
961.47	214.73
961.76	214.70
962.06	214.72
962.36	214.70
962.65	214.71
962.95	214.72
963.24	214.71
963.54	214.68
963.83	214.71
964.13	214.65
964.42	214.62
964.72	214.44
965.01	214.44
965.31	214.42
965.60	214.39
965.90	214.53
966.19	214.44
966.49	214.44
966.78	214.42
967.08	214.40
967.37	214.41
967.67	214.39
967.96	214.46
968.26	214.46
968.55	214.47
968.85	214.47
969.14	214.48
969.43	214.48
969.73	214.42
970.02	214.38
970.32	214.42
970.61	214.41
970.91	214.33
971.20	214.33
971.49	214.32
971.79	214.33
972.08	214.17
972.38	214.21
972.67	214.21
972.96	214.26
973.26	214.20
973.55	214.25
973.85	214.25
974.14	214.24
974.43	214.25
974.73	214.21
975.02	214.20
975.31	214.17
975.61	214.18
975.90	214.20
976.19	214.18
976.49	214.18
976.78	214.18
977.07	214.19
977.37	214.19
977.66	214.21
977.95	214.18
978.24	214.20
978.54	214.22
978.83	214.20
979.12	214.15
979.42	214.17
979.71	214.13
980.00	214.09
980.29	214.06
980.59	214.02
980.88	214.09
981.17	214.09
981.46	214.13
981.76	214.13
982.05	214.20
982.34	214.25
982.63	214.23
982.93	214.25
983.22	214.31
983.51	214.35
983.80	214.37
984.09	214.40
984.39	214.37
984.68	214.37
984.97	214.40
985.26	214.40
985.55	214.40
985.85	214.36
986.14	214.42
986.43	214.50
986.72	214.45
987.01	214.41
987.30	214.41
987.59	214.38
987.89	214.36
988.18	214.30
988.47	214.24
988.76	214.26
989.05	214.26
989.34	214.20
989.63	214.21
989.92	214.15
990.22	214.12
990.51	214.14
990.80	214.14
991.09	214.18
991.38	214.18
991.67	214.17
991.96	214.16
992.25	214.17
992.54	214.12
992.83	214.16
993.12	214.13
993.41	214.17
993.70	214.27
993.99	214.32
994.28	214.37
994.58	214.45
994.87	214.40
995.16	214.37
995.45	214.35
995.74	214.28
996.03	214.34
996.32	214.40
996.61	214.41
996.90	214.39
997.19	214.33
997.48	214.35
997.77	214.33
998.06	214.37
998.34	214.35
998.63	214.36
998.92	214.36
999.21	214.39
999.50	214.39
999.79	214.31
1000.08	214.30
1000.37	214.28
1000.66	214.23
1000.95	214.28
1001.24	214.30
1001.53	214.34
1001.82	214.34
1002.11	214.26
1002.40	214.25
1002.68	214.32
1002.97	214.46
1003.26	214.47
1003.55	214.43
1003.84	214.45
1004.13	214.50
1004.42	214.48
1004.71	214.48
1004.99	214.45
1005.28	214.51
1005.57	214.48
1005.86	214.49
1006.15	214.48
1006.44	214.42
1006.72	214.46
1007.01	214.44
1007.30	214.43
1007.59	214.42
1007.88	214.43
1008.17	214.46
1008.45	214.42
1008.74	214.31
1009.03	214.22
1009.32	214.21
1009.60	214.21
1009.89	214.20
1010.18	214.11
1010.47	214.11
1010.76	214.07
1011.04	214.07
1011.33	214.05
1011.62	214.07
1011.91	214.06
1012.19	214.05
1012.48	214.07
1012.77	214.04
1013.05	214.15
1013.34	214.15
1013.63	214.13
1013.92	214.16
1014.20	214.16
1014.49	214.13
1014.78	214.16
1015.06	214.10
1015.35	214.09
1015.64	214.13
1015.92	214.17
1016.21	214.18
1016.50	214.16
1016.78	214.21
1017.07	214.23
1017.36	214.22
1017.64	214.18
1017.93	214.21
1018.22	214.19
1018.50	214.18
1018.79	214.19
1019.08	214.09
1019.36	214.10
1019.65	214.11
1019.93	214.15
1020.22	214.20
1020.51	214.35
1020.79	214.34
1021.08	213.89
1021.36	213.40
1021.65	214.45
1021.94	214.13
1022.22	214.16
1022.51	214.17
1022.79	215.24
1023.08	214.85
1023.36	216.78
1023.65	213.99
>>>>>End Processed Spectral Data<<<<<
