SpectraSuite Data File
++++++++++++++++++++++++++++++++++++
Date: Tue Jan 29 16:47:12 EST 2013
User: group
Dark Spectrum Present: No
Reference Spectrum Present: No
Number of Sampled Component Spectra: 1
Spectrometers: USB2E7196
Integration Time (usec): 65000 (USB2E7196)
Spectra Averaged: 100 (USB2E7196)
Boxcar Smoothing: 10 (USB2E7196)
Correct for Electrical Dark: No (USB2E7196)
Strobe/Lamp Enabled: No (USB2E7196)
Correct for Detector Non-linearity: No (USB2E7196)
Correct for Stray Light: No (USB2E7196)
Number of Pixels in Processed Spectrum: 2048
>>>>>Begin Processed Spectral Data<<<<<
339.09	0.00
339.48	201.39
339.86	203.38
340.24	203.93
340.63	206.34
341.01	210.35
341.39	208.09
341.78	210.68
342.16	211.71
342.54	211.24
342.93	200.82
343.31	210.98
343.69	211.54
344.07	212.00
344.46	212.47
344.84	212.85
345.22	213.03
345.60	213.32
345.99	213.48
346.37	213.62
346.75	213.75
347.13	213.82
347.52	213.90
347.90	214.05
348.28	214.10
348.66	214.19
349.05	214.16
349.43	214.26
349.81	214.32
350.19	214.36
350.57	214.44
350.96	214.54
351.34	214.64
351.72	214.73
352.10	214.83
352.48	214.89
352.87	214.92
353.25	214.97
353.63	215.02
354.01	215.11
354.39	215.18
354.77	215.26
355.15	215.40
355.54	215.46
355.92	215.42
356.30	215.50
356.68	215.68
357.06	215.79
357.44	215.81
357.82	215.88
358.20	215.99
358.58	216.00
358.97	216.02
359.35	216.09
359.73	216.17
360.11	216.22
360.49	216.31
360.87	216.39
361.25	216.49
361.63	216.63
362.01	216.67
362.39	216.68
362.77	216.71
363.15	216.72
363.53	216.75
363.91	216.83
364.29	216.86
364.67	216.70
365.05	216.70
365.43	216.74
365.81	216.77
366.19	216.88
366.57	217.00
366.95	217.01
367.33	217.00
367.71	216.98
368.09	217.04
368.47	217.02
368.85	216.98
369.23	216.99
369.61	216.87
369.99	216.93
370.37	216.96
370.75	217.09
371.13	217.03
371.51	216.94
371.89	216.94
372.27	216.92
372.65	216.90
373.03	216.88
373.41	216.82
373.78	216.77
374.16	216.60
374.54	216.49
374.92	216.43
375.30	216.42
375.68	216.36
376.06	216.32
376.44	216.26
376.82	216.22
377.19	216.17
377.57	216.13
377.95	216.04
378.33	215.95
378.71	215.76
379.09	215.77
379.47	215.81
379.84	215.75
380.22	215.69
380.60	215.61
380.98	215.56
381.36	215.52
381.73	215.47
382.11	215.48
382.49	215.47
382.87	215.41
383.25	215.35
383.62	215.56
384.00	215.50
384.38	215.50
384.76	215.52
385.13	215.59
385.51	215.57
385.89	215.47
386.27	215.46
386.64	215.45
387.02	215.37
387.40	215.31
387.78	215.28
388.15	215.25
388.53	215.25
388.91	215.24
389.29	215.20
389.66	215.22
390.04	215.16
390.42	215.19
390.79	215.21
391.17	215.19
391.55	214.95
391.92	214.95
392.30	214.94
392.68	214.87
393.05	214.81
393.43	214.82
393.81	214.87
394.18	214.85
394.56	214.85
394.94	214.93
395.31	214.93
395.69	215.00
396.06	215.07
396.44	215.09
396.82	215.08
397.19	215.24
397.57	215.22
397.95	215.30
398.32	215.27
398.70	215.34
399.07	215.43
399.45	215.44
399.82	215.49
400.20	215.51
400.58	215.61
400.95	215.59
401.33	215.71
401.70	215.93
402.08	216.03
402.45	216.14
402.83	216.26
403.20	216.34
403.58	216.43
403.95	216.54
404.33	216.71
404.71	216.87
405.08	217.08
405.46	217.27
405.83	217.48
406.21	217.65
406.58	217.88
406.96	218.07
407.33	218.36
407.70	218.65
408.08	219.09
408.45	219.47
408.83	219.88
409.20	220.20
409.58	220.48
409.95	220.96
410.33	221.44
410.70	221.86
411.08	222.44
411.45	223.01
411.82	223.60
412.20	224.28
412.57	225.11
412.95	225.70
413.32	226.52
413.69	227.36
414.07	228.28
414.44	229.30
414.82	230.35
415.19	231.53
415.56	232.73
415.94	233.92
416.31	235.32
416.68	236.73
417.06	238.34
417.43	239.88
417.81	241.62
418.18	243.40
418.55	245.33
418.93	247.37
419.30	249.48
419.67	251.73
420.04	254.07
420.42	256.45
420.79	259.32
421.16	262.12
421.54	265.02
421.91	268.03
422.28	271.13
422.66	274.42
423.03	277.70
423.40	281.07
423.77	284.70
424.15	288.32
424.52	292.21
424.89	296.41
425.26	300.49
425.64	304.39
426.01	308.72
426.38	313.25
426.75	317.81
427.13	322.56
427.50	327.56
427.87	332.76
428.24	337.96
428.61	342.95
428.99	348.54
429.36	354.56
429.73	360.50
430.10	366.40
430.47	372.50
430.85	378.89
431.22	385.61
431.59	392.83
431.96	399.70
432.33	407.16
432.70	414.45
433.08	422.98
433.45	431.03
433.82	439.12
434.19	448.01
434.56	456.68
434.93	465.08
435.30	473.36
435.68	482.43
436.05	491.51
436.42	500.47
436.79	508.65
437.16	517.50
437.53	526.78
437.90	535.97
438.27	544.95
438.64	554.12
439.01	562.74
439.38	570.27
439.75	577.64
440.13	586.12
440.50	594.10
440.87	600.64
441.24	607.32
441.61	614.68
441.98	620.08
442.35	626.52
442.72	632.90
443.09	639.04
443.46	642.86
443.83	645.45
444.20	647.68
444.57	650.81
444.94	652.24
445.31	653.71
445.68	655.14
446.05	655.85
446.42	655.11
446.79	654.15
447.16	653.06
447.53	652.30
447.90	649.06
448.27	645.81
448.64	641.12
449.01	637.85
449.37	631.94
449.74	626.25
450.11	619.29
450.48	611.80
450.85	604.34
451.22	597.88
451.59	591.65
451.96	585.75
452.33	577.87
452.70	570.79
453.07	562.27
453.43	553.54
453.80	545.09
454.17	537.04
454.54	529.44
454.91	521.24
455.28	513.25
455.65	505.80
456.02	498.20
456.38	491.80
456.75	483.87
457.12	477.16
457.49	470.65
457.86	464.44
458.23	459.07
458.59	453.06
458.96	446.97
459.33	441.61
459.70	436.24
460.07	431.97
460.43	427.02
460.80	422.45
461.17	418.46
461.54	414.32
461.91	410.30
462.27	406.16
462.64	402.69
463.01	398.85
463.38	395.11
463.74	391.39
464.11	388.13
464.48	385.28
464.85	382.23
465.21	379.78
465.58	377.16
465.95	373.98
466.32	371.36
466.68	368.78
467.05	366.15
467.42	363.58
467.78	360.82
468.15	358.26
468.52	356.27
468.88	353.74
469.25	351.48
469.62	349.66
469.98	347.72
470.35	345.90
470.72	344.17
471.08	342.30
471.45	340.79
471.82	339.26
472.18	337.57
472.55	336.33
472.92	334.87
473.28	333.65
473.65	332.51
474.02	331.39
474.38	330.46
474.75	329.71
475.11	328.88
475.48	328.30
475.85	327.82
476.21	327.36
476.58	327.02
476.94	326.75
477.31	326.43
477.67	326.14
478.04	325.98
478.41	325.94
478.77	326.11
479.14	326.03
479.50	326.17
479.87	326.44
480.23	326.74
480.60	327.00
480.96	327.23
481.33	327.83
481.69	328.35
482.06	328.89
482.42	329.35
482.79	329.91
483.15	330.72
483.52	331.68
483.88	332.53
484.25	333.47
484.61	334.45
484.98	335.52
485.34	336.85
485.71	338.19
486.07	339.66
486.44	340.97
486.80	342.58
487.17	344.27
487.53	346.13
487.90	348.01
488.26	350.06
488.62	352.28
488.99	354.32
489.35	356.47
489.72	358.79
490.08	361.32
490.44	363.86
490.81	366.63
491.17	369.29
491.54	372.29
491.90	375.30
492.26	378.62
492.63	382.01
492.99	385.48
493.36	389.20
493.72	393.08
494.08	397.11
494.45	401.36
494.81	405.66
495.17	410.08
495.54	414.76
495.90	419.56
496.26	424.42
496.63	429.58
496.99	435.04
497.35	440.67
497.72	446.52
498.08	452.48
498.44	458.53
498.80	464.92
499.17	471.44
499.53	478.18
499.89	485.04
500.26	491.95
500.62	498.98
500.98	506.30
501.34	513.71
501.71	521.51
502.07	529.29
502.43	537.35
502.79	545.50
503.16	553.90
503.52	562.51
503.88	571.24
504.24	580.21
504.60	589.23
504.97	598.43
505.33	607.68
505.69	617.50
506.05	627.29
506.41	637.19
506.78	647.24
507.14	657.41
507.50	667.84
507.86	678.61
508.22	689.47
508.59	700.13
508.95	711.12
509.31	722.27
509.67	733.78
510.03	745.18
510.39	756.82
510.75	768.70
511.12	780.58
511.48	792.62
511.84	804.92
512.20	817.24
512.56	829.87
512.92	842.71
513.28	855.31
513.64	868.14
514.00	881.00
514.37	893.94
514.73	907.08
515.09	920.15
515.45	933.02
515.81	946.05
516.17	959.43
516.53	972.78
516.89	985.96
517.25	999.12
517.61	1012.63
517.97	1026.13
518.33	1039.27
518.69	1052.86
519.05	1066.62
519.41	1080.24
519.77	1094.15
520.13	1107.61
520.49	1120.80
520.85	1134.27
521.21	1147.58
521.57	1161.18
521.93	1174.26
522.29	1187.95
522.65	1201.65
523.01	1215.38
523.37	1228.57
523.73	1242.00
524.09	1255.27
524.45	1268.80
524.81	1282.31
525.17	1295.82
525.53	1309.13
525.89	1322.53
526.25	1335.66
526.61	1348.59
526.97	1361.82
527.33	1374.87
527.68	1388.27
528.04	1401.78
528.40	1414.96
528.76	1428.45
529.12	1441.48
529.48	1454.91
529.84	1467.44
530.20	1480.24
530.56	1492.86
530.91	1506.24
531.27	1519.08
531.63	1531.85
531.99	1544.57
532.35	1556.75
532.71	1569.16
533.07	1582.07
533.42	1594.14
533.78	1606.34
534.14	1618.42
534.50	1629.72
534.86	1641.30
535.21	1652.12
535.57	1663.73
535.93	1675.26
536.29	1686.45
536.65	1697.96
537.00	1709.03
537.36	1720.41
537.72	1731.46
538.08	1742.98
538.44	1754.06
538.79	1765.36
539.15	1776.35
539.51	1787.28
539.87	1798.78
540.22	1809.63
540.58	1820.63
540.94	1831.90
541.29	1842.39
541.65	1852.40
542.01	1863.01
542.37	1873.18
542.72	1883.63
543.08	1893.44
543.44	1903.82
543.79	1913.20
544.15	1922.76
544.51	1932.77
544.87	1942.81
545.22	1952.17
545.58	1961.10
545.94	1970.10
546.29	1978.66
546.65	1987.01
547.01	1995.34
547.36	2003.07
547.72	2010.95
548.07	2018.67
548.43	2026.36
548.79	2034.21
549.14	2042.39
549.50	2050.83
549.86	2058.78
550.21	2066.27
550.57	2074.02
550.92	2081.00
551.28	2088.49
551.64	2095.83
551.99	2103.29
552.35	2110.38
552.70	2117.36
553.06	2124.04
553.41	2130.24
553.77	2136.81
554.13	2143.34
554.48	2150.41
554.84	2157.70
555.19	2164.13
555.55	2170.43
555.90	2176.76
556.26	2183.70
556.61	2189.89
556.97	2194.70
557.32	2200.41
557.68	2206.83
558.03	2212.68
558.39	2217.93
558.74	2223.85
559.10	2229.33
559.45	2234.90
559.81	2240.42
560.16	2245.81
560.52	2251.60
560.87	2257.93
561.23	2263.80
561.58	2270.32
561.94	2275.44
562.29	2280.03
562.64	2286.09
563.00	2291.76
563.35	2297.38
563.71	2302.90
564.06	2308.31
564.42	2314.26
564.77	2319.30
565.12	2324.41
565.48	2329.32
565.83	2334.70
566.19	2339.86
566.54	2345.20
566.89	2349.65
567.25	2354.28
567.60	2359.94
567.96	2365.04
568.31	2369.48
568.66	2373.60
569.02	2377.53
569.37	2381.14
569.72	2385.47
570.08	2388.91
570.43	2391.93
570.78	2394.87
571.14	2397.22
571.49	2400.33
571.84	2403.85
572.20	2406.78
572.55	2409.64
572.90	2412.01
573.26	2414.70
573.61	2417.36
573.96	2419.48
574.31	2421.47
574.67	2423.29
575.02	2423.85
575.37	2425.18
575.72	2425.84
576.08	2427.30
576.43	2427.23
576.78	2427.55
577.13	2428.83
577.49	2430.05
577.84	2430.93
578.19	2432.05
578.54	2432.67
578.90	2433.14
579.25	2432.73
579.60	2432.48
579.95	2431.55
580.30	2431.29
580.66	2430.58
581.01	2428.65
581.36	2425.91
581.71	2424.43
582.06	2422.97
582.42	2421.97
582.77	2419.45
583.12	2417.56
583.47	2415.75
583.82	2415.06
584.17	2413.73
584.53	2411.48
584.88	2409.05
585.23	2407.04
585.58	2404.52
585.93	2402.32
586.28	2400.12
586.63	2397.54
586.98	2395.22
587.34	2393.10
587.69	2390.49
588.04	2388.08
588.39	2386.58
588.74	2384.22
589.09	2381.16
589.44	2377.82
589.79	2375.19
590.14	2373.10
590.49	2370.30
590.84	2366.38
591.19	2363.03
591.54	2359.54
591.89	2355.47
592.25	2351.96
592.60	2347.64
592.95	2343.35
593.30	2339.11
593.65	2334.54
594.00	2329.97
594.35	2326.88
594.70	2322.23
595.05	2317.68
595.40	2312.29
595.75	2306.34
596.10	2302.53
596.45	2297.81
596.80	2293.19
597.15	2287.92
597.50	2281.96
597.85	2276.93
598.19	2271.75
598.54	2266.02
598.89	2260.69
599.24	2256.02
599.59	2250.03
599.94	2244.01
600.29	2238.00
600.64	2232.00
600.99	2225.03
601.34	2219.49
601.69	2212.31
602.04	2205.82
602.39	2199.13
602.74	2192.98
603.08	2187.43
603.43	2180.80
603.78	2173.81
604.13	2166.62
604.48	2159.20
604.83	2153.17
605.18	2146.82
605.53	2139.91
605.87	2132.76
606.22	2126.15
606.57	2118.15
606.92	2110.08
607.27	2103.29
607.62	2096.74
607.96	2089.65
608.31	2083.46
608.66	2075.79
609.01	2068.25
609.36	2061.10
609.70	2053.32
610.05	2045.39
610.40	2037.04
610.75	2028.68
611.10	2020.96
611.44	2012.02
611.79	2003.38
612.14	1993.33
612.49	1982.67
612.83	1973.20
613.18	1963.92
613.53	1954.39
613.88	1944.91
614.22	1936.16
614.57	1926.33
614.92	1915.79
615.27	1905.59
615.61	1895.26
615.96	1885.62
616.31	1876.09
616.65	1866.68
617.00	1857.18
617.35	1847.66
617.70	1838.04
618.04	1828.19
618.39	1818.11
618.74	1808.65
619.08	1798.95
619.43	1790.29
619.78	1782.14
620.12	1773.60
620.47	1764.22
620.82	1754.06
621.16	1744.32
621.51	1734.75
621.85	1724.89
622.20	1714.62
622.55	1704.22
622.89	1694.31
623.24	1684.63
623.59	1674.82
623.93	1664.80
624.28	1654.88
624.62	1644.86
624.97	1634.67
625.32	1624.91
625.66	1616.03
626.01	1607.29
626.35	1598.14
626.70	1588.17
627.04	1578.22
627.39	1568.19
627.73	1558.94
628.08	1550.16
628.43	1540.74
628.77	1531.48
629.12	1522.61
629.46	1514.89
629.81	1506.63
630.15	1497.34
630.50	1487.51
630.84	1477.12
631.19	1467.25
631.53	1458.20
631.88	1448.13
632.22	1438.26
632.57	1428.95
632.91	1419.05
633.26	1409.31
633.60	1399.82
633.95	1390.65
634.29	1381.18
634.64	1371.99
634.98	1362.09
635.32	1352.87
635.67	1344.49
636.01	1335.33
636.36	1325.82
636.70	1316.37
637.05	1307.03
637.39	1298.17
637.73	1289.75
638.08	1282.27
638.42	1274.20
638.77	1265.37
639.11	1257.27
639.45	1249.46
639.80	1241.00
640.14	1232.28
640.49	1223.42
640.83	1214.63
641.17	1206.41
641.52	1198.31
641.86	1189.78
642.20	1181.98
642.55	1173.35
642.89	1164.45
643.23	1155.83
643.58	1147.72
643.92	1138.68
644.26	1130.00
644.61	1121.59
644.95	1112.78
645.29	1103.68
645.64	1094.54
645.98	1086.07
646.32	1078.15
646.66	1069.71
647.01	1061.52
647.35	1053.46
647.69	1045.20
648.04	1036.96
648.38	1028.29
648.72	1019.65
649.06	1011.29
649.41	1003.17
649.75	995.30
650.09	987.47
650.43	979.49
650.78	971.18
651.12	963.60
651.46	956.20
651.80	949.08
652.14	941.80
652.49	934.31
652.83	927.07
653.17	919.50
653.51	911.87
653.85	904.69
654.20	897.40
654.54	889.95
654.88	882.83
655.22	875.71
655.56	868.78
655.90	862.02
656.25	855.40
656.59	848.48
656.93	841.49
657.27	834.43
657.61	827.41
657.95	821.33
658.29	815.35
658.64	809.32
658.98	802.85
659.32	796.41
659.66	790.14
660.00	783.82
660.34	777.80
660.68	771.67
661.02	765.30
661.36	759.37
661.70	753.60
662.05	747.87
662.39	742.38
662.73	736.92
663.07	731.50
663.41	725.89
663.75	720.21
664.09	714.50
664.43	709.05
664.77	703.74
665.11	697.95
665.45	692.12
665.79	686.20
666.13	680.48
666.47	674.91
666.81	669.46
667.15	664.06
667.49	658.85
667.83	653.60
668.17	648.34
668.51	643.19
668.85	638.28
669.19	633.42
669.53	628.30
669.87	623.09
670.21	618.35
670.55	613.58
670.89	609.07
671.23	604.78
671.57	600.39
671.91	596.11
672.25	591.95
672.58	587.80
672.92	583.72
673.26	579.83
673.60	575.94
673.94	572.14
674.28	568.48
674.62	564.71
674.96	560.98
675.30	557.55
675.64	553.90
675.97	550.24
676.31	546.67
676.65	543.05
676.99	539.71
677.33	535.82
677.67	532.21
678.01	528.41
678.34	524.70
678.68	521.15
679.02	517.54
679.36	513.79
679.70	510.05
680.04	506.58
680.37	503.06
680.71	499.70
681.05	496.42
681.39	493.10
681.73	489.87
682.06	486.80
682.40	483.63
682.74	480.33
683.08	477.07
683.42	473.77
683.75	470.77
684.09	467.65
684.43	464.85
684.77	461.87
685.10	458.93
685.44	456.06
685.78	453.08
686.12	450.28
686.45	447.53
686.79	444.91
687.13	442.30
687.46	439.63
687.80	436.89
688.14	434.08
688.48	431.42
688.81	428.73
689.15	426.11
689.49	423.46
689.82	420.95
690.16	418.35
690.50	415.89
690.83	413.43
691.17	410.88
691.51	408.33
691.84	406.03
692.18	403.82
692.52	401.60
692.85	399.49
693.19	397.32
693.52	395.15
693.86	392.90
694.20	390.69
694.53	388.59
694.87	386.42
695.21	384.22
695.54	382.04
695.88	379.85
696.21	377.61
696.55	375.45
696.88	373.34
697.22	371.35
697.56	369.44
697.89	367.47
698.23	365.70
698.56	363.87
698.90	362.01
699.23	360.10
699.57	358.19
699.90	356.26
700.24	354.37
700.58	352.60
700.91	350.87
701.25	349.21
701.58	347.54
701.92	345.90
702.25	344.30
702.59	342.65
702.92	341.09
703.26	339.53
703.59	338.05
703.93	336.76
704.26	335.31
704.60	333.79
704.93	332.28
705.26	330.74
705.60	329.26
705.93	327.75
706.27	326.38
706.60	325.08
706.94	323.85
707.27	322.46
707.61	321.09
707.94	319.74
708.27	318.25
708.61	316.76
708.94	315.41
709.28	314.12
709.61	312.87
709.94	311.64
710.28	310.42
710.61	309.25
710.95	307.85
711.28	306.75
711.61	305.55
711.95	304.44
712.28	303.26
712.61	302.05
712.95	301.02
713.28	299.96
713.61	298.73
713.95	297.55
714.28	296.48
714.61	295.43
714.95	294.42
715.28	293.36
715.61	292.32
715.95	291.32
716.28	290.28
716.61	289.29
716.95	288.27
717.28	287.33
717.61	286.36
717.94	285.40
718.28	284.35
718.61	283.44
718.94	282.50
719.27	281.63
719.61	280.79
719.94	279.86
720.27	278.90
720.60	278.04
720.94	277.21
721.27	276.49
721.60	275.79
721.93	275.05
722.27	274.40
722.60	273.76
722.93	273.05
723.26	272.46
723.59	271.75
723.93	271.11
724.26	270.44
724.59	269.77
724.92	269.17
725.25	268.59
725.59	268.04
725.92	267.53
726.25	266.92
726.58	266.38
726.91	265.78
727.24	265.22
727.57	264.71
727.91	264.11
728.24	263.53
728.57	262.92
728.90	262.34
729.23	261.71
729.56	261.22
729.89	260.62
730.22	259.99
730.55	259.44
730.89	258.90
731.22	258.36
731.55	257.78
731.88	257.23
732.21	256.67
732.54	256.10
732.87	255.51
733.20	255.03
733.53	254.54
733.86	254.07
734.19	253.56
734.52	253.10
734.85	252.77
735.18	252.29
735.51	251.90
735.84	251.47
736.17	251.10
736.50	250.58
736.83	250.45
737.16	250.06
737.49	249.66
737.82	249.27
738.15	248.92
738.48	248.55
738.81	248.16
739.14	247.76
739.47	247.37
739.80	246.99
740.13	246.64
740.46	246.22
740.79	245.86
741.12	245.50
741.45	245.10
741.78	244.66
742.11	244.38
742.44	243.99
742.77	243.65
743.10	243.30
743.43	242.92
743.75	242.33
744.08	242.25
744.41	241.90
744.74	241.50
745.07	241.10
745.40	240.81
745.73	240.56
746.06	240.25
746.39	239.95
746.71	239.62
747.04	239.25
747.37	238.95
747.70	238.65
748.03	238.36
748.36	238.07
748.68	237.75
749.01	237.36
749.34	237.09
749.67	236.79
750.00	236.49
750.33	236.36
750.65	236.12
750.98	235.62
751.31	235.37
751.64	235.15
751.97	234.98
752.29	234.72
752.62	234.34
752.95	234.06
753.28	233.78
753.60	233.55
753.93	233.42
754.26	233.20
754.59	232.88
754.91	232.62
755.24	232.41
755.57	232.18
755.90	231.98
756.22	231.71
756.55	231.46
756.88	231.21
757.20	230.88
757.53	230.60
757.86	230.42
758.19	230.25
758.51	230.02
758.84	229.71
759.17	229.51
759.49	229.37
759.82	229.27
760.15	229.13
760.47	228.95
760.80	228.65
761.13	228.51
761.45	228.37
761.78	228.23
762.11	228.03
762.43	227.83
762.76	227.63
763.08	227.51
763.41	227.38
763.74	227.26
764.06	227.08
764.39	226.93
764.71	226.71
765.04	226.52
765.37	226.39
765.69	226.24
766.02	226.09
766.34	225.93
766.67	225.73
767.00	225.62
767.32	225.57
767.65	225.55
767.97	225.38
768.30	225.24
768.62	225.06
768.95	224.93
769.27	224.80
769.60	224.74
769.92	224.55
770.25	224.41
770.57	224.23
770.90	224.11
771.22	223.97
771.55	223.88
771.87	223.78
772.20	223.61
772.52	223.69
772.85	223.81
773.17	223.68
773.50	223.57
773.82	223.44
774.15	223.26
774.47	223.05
774.80	222.93
775.12	222.80
775.45	222.74
775.77	222.63
776.09	222.55
776.42	222.45
776.74	222.46
777.07	222.36
777.39	222.24
777.72	222.15
778.04	222.11
778.36	222.03
778.69	221.94
779.01	221.91
779.33	221.65
779.66	221.33
779.98	221.25
780.31	221.16
780.63	221.14
780.95	221.09
781.28	221.00
781.60	220.92
781.92	220.87
782.25	220.80
782.57	220.71
782.89	220.65
783.22	220.54
783.54	220.39
783.86	220.36
784.19	220.31
784.51	220.31
784.83	220.18
785.16	220.08
785.48	220.04
785.80	219.99
786.12	219.96
786.45	219.89
786.77	219.87
787.09	219.78
787.42	219.67
787.74	219.63
788.06	219.56
788.38	219.51
788.71	219.42
789.03	219.33
789.35	219.34
789.67	219.24
789.99	219.20
790.32	219.12
790.64	219.07
790.96	219.19
791.28	219.08
791.61	219.05
791.93	219.03
792.25	218.93
792.57	219.02
792.89	218.93
793.21	218.91
793.54	218.80
793.86	218.77
794.18	218.72
794.50	218.63
794.82	218.63
795.14	218.61
795.47	218.64
795.79	218.62
796.11	218.52
796.43	218.49
796.75	218.47
797.07	218.46
797.39	218.41
797.71	218.23
798.04	218.22
798.36	218.19
798.68	218.15
799.00	218.15
799.32	218.00
799.64	218.01
799.96	217.96
800.28	217.96
800.60	217.92
800.92	217.90
801.24	217.86
801.56	217.85
801.89	217.81
802.21	217.76
802.53	217.68
802.85	217.70
803.17	217.78
803.49	217.64
803.81	217.59
804.13	217.54
804.45	217.50
804.77	217.47
805.09	217.44
805.41	217.41
805.73	217.37
806.05	217.25
806.37	217.21
806.69	217.15
807.01	217.13
807.33	217.12
807.65	217.03
807.97	217.09
808.28	217.00
808.60	216.98
808.92	216.91
809.24	217.03
809.56	216.96
809.88	216.84
810.20	216.87
810.52	216.91
810.84	216.85
811.16	216.79
811.48	216.73
811.80	216.79
812.12	216.75
812.43	216.75
812.75	216.76
813.07	216.71
813.39	216.72
813.71	216.66
814.03	216.59
814.35	216.56
814.67	216.41
814.98	216.38
815.30	216.33
815.62	216.29
815.94	216.12
816.26	216.13
816.58	216.08
816.89	216.08
817.21	215.98
817.53	215.97
817.85	215.95
818.17	215.93
818.48	215.80
818.80	215.84
819.12	215.76
819.44	215.71
819.76	215.67
820.07	215.63
820.39	215.62
820.71	215.63
821.03	215.63
821.34	215.64
821.66	215.65
821.98	215.65
822.30	215.62
822.61	215.74
822.93	215.69
823.25	215.68
823.57	215.67
823.88	215.70
824.20	215.69
824.52	215.72
824.83	215.70
825.15	215.67
825.47	215.63
825.79	215.66
826.10	215.64
826.42	215.66
826.74	215.69
827.05	215.65
827.37	215.62
827.69	215.61
828.00	215.61
828.32	215.61
828.64	215.58
828.95	215.71
829.27	215.65
829.58	215.60
829.90	215.63
830.22	215.61
830.53	215.52
830.85	215.47
831.17	215.39
831.48	215.39
831.80	215.37
832.11	215.36
832.43	215.31
832.75	215.30
833.06	215.38
833.38	215.29
833.69	215.27
834.01	215.27
834.32	215.25
834.64	215.23
834.96	215.20
835.27	215.22
835.59	215.11
835.90	215.06
836.22	215.06
836.53	215.00
836.85	214.96
837.16	215.21
837.48	215.23
837.79	215.28
838.11	215.27
838.42	215.27
838.74	215.25
839.05	215.23
839.37	215.21
839.68	215.09
840.00	215.09
840.31	215.14
840.63	215.15
840.94	215.12
841.26	215.09
841.57	215.11
841.88	215.06
842.20	215.02
842.51	214.97
842.83	214.99
843.14	215.17
843.46	215.15
843.77	215.01
844.08	215.02
844.40	214.98
844.71	214.97
845.03	214.96
845.34	214.96
845.65	214.95
845.97	214.96
846.28	214.96
846.60	214.99
846.91	214.96
847.22	214.91
847.54	214.96
847.85	214.96
848.16	214.91
848.48	214.88
848.79	214.98
849.10	215.03
849.42	215.01
849.73	214.84
850.04	214.83
850.36	214.74
850.67	214.73
850.98	214.73
851.30	214.77
851.61	214.74
851.92	214.73
852.23	214.81
852.55	214.83
852.86	214.85
853.17	214.82
853.49	214.88
853.80	214.93
854.11	214.91
854.42	214.96
854.74	214.93
855.05	214.96
855.36	214.82
855.67	214.81
855.99	214.83
856.30	215.08
856.61	215.10
856.92	215.11
857.23	215.10
857.55	215.07
857.86	215.04
858.17	215.09
858.48	215.06
858.79	214.99
859.11	215.01
859.42	214.98
859.73	214.94
860.04	214.88
860.35	214.83
860.66	214.80
860.98	214.76
861.29	214.79
861.60	214.76
861.91	214.83
862.22	214.80
862.53	214.73
862.84	214.47
863.16	214.53
863.47	214.49
863.78	214.47
864.09	214.49
864.40	214.48
864.71	214.47
865.02	214.48
865.33	214.48
865.64	214.43
865.95	214.41
866.27	214.56
866.58	214.55
866.89	214.57
867.20	214.54
867.51	214.54
867.82	214.55
868.13	214.62
868.44	214.57
868.75	214.60
869.06	214.64
869.37	214.66
869.68	214.56
869.99	214.63
870.30	214.66
870.61	214.66
870.92	214.64
871.23	214.60
871.54	214.63
871.85	214.67
872.16	214.68
872.47	214.67
872.78	214.53
873.09	214.55
873.40	214.48
873.71	214.52
874.02	214.49
874.33	214.48
874.64	214.42
874.95	214.47
875.26	214.43
875.56	214.44
875.87	214.42
876.18	214.42
876.49	214.60
876.80	214.55
877.11	214.53
877.42	214.54
877.73	214.56
878.04	214.51
878.35	214.51
878.66	214.50
878.96	214.52
879.27	214.54
879.58	214.52
879.89	214.52
880.20	214.56
880.51	214.58
880.82	214.58
881.12	214.55
881.43	214.48
881.74	214.43
882.05	214.37
882.36	214.38
882.67	214.39
882.97	214.16
883.28	214.15
883.59	214.15
883.90	214.15
884.21	214.17
884.51	214.16
884.82	214.08
885.13	214.11
885.44	214.07
885.74	214.04
886.05	214.04
886.36	214.04
886.67	214.01
886.98	214.09
887.28	214.09
887.59	214.11
887.90	214.11
888.20	214.09
888.51	214.14
888.82	214.11
889.13	214.14
889.43	214.29
889.74	214.31
890.05	214.30
890.35	214.26
890.66	214.22
890.97	214.21
891.28	214.20
891.58	214.17
891.89	214.18
892.20	214.19
892.50	214.16
892.81	214.15
893.12	214.12
893.42	214.04
893.73	214.03
894.04	214.02
894.34	214.05
894.65	214.09
894.95	214.05
895.26	214.05
895.57	214.12
895.87	213.92
896.18	213.92
896.48	213.93
896.79	213.94
897.10	214.00
897.40	214.00
897.71	214.05
898.01	214.03
898.32	214.07
898.63	214.07
898.93	214.11
899.24	214.10
899.54	214.08
899.85	214.05
900.15	214.03
900.46	214.02
900.76	214.04
901.07	214.05
901.38	214.07
901.68	214.09
901.99	213.98
902.29	214.02
902.60	214.02
902.90	213.99
903.21	213.98
903.51	213.95
903.82	213.99
904.12	213.97
904.43	214.00
904.73	213.99
905.03	213.98
905.34	214.18
905.64	214.19
905.95	214.22
906.25	214.22
906.56	214.23
906.86	214.24
907.17	214.21
907.47	214.22
907.77	214.19
908.08	214.18
908.38	214.21
908.69	214.24
908.99	214.29
909.30	214.31
909.60	214.35
909.90	214.34
910.21	214.29
910.51	214.25
910.81	214.24
911.12	214.21
911.42	214.23
911.73	214.01
912.03	214.00
912.33	214.02
912.64	214.02
912.94	214.02
913.24	214.00
913.55	213.99
913.85	213.97
914.15	214.01
914.46	214.02
914.76	214.01
915.06	213.97
915.37	213.93
915.67	213.90
915.97	213.88
916.27	213.83
916.58	213.87
916.88	213.89
917.18	213.86
917.49	214.02
917.79	214.01
918.09	214.03
918.39	214.10
918.70	214.08
919.00	214.08
919.30	214.17
919.60	214.17
919.91	214.13
920.21	214.13
920.51	214.08
920.81	214.07
921.12	214.10
921.42	214.08
921.72	214.08
922.02	214.12
922.32	214.17
922.63	214.19
922.93	214.30
923.23	214.29
923.53	214.30
923.83	214.16
924.13	214.15
924.44	214.17
924.74	214.23
925.04	214.23
925.34	214.24
925.64	214.17
925.94	214.16
926.24	214.26
926.55	214.26
926.85	214.31
927.15	214.32
927.45	214.30
927.75	214.29
928.05	214.30
928.35	214.28
928.65	214.31
928.95	214.30
929.26	214.21
929.56	214.25
929.86	214.28
930.16	214.24
930.46	214.24
930.76	214.23
931.06	214.11
931.36	214.06
931.66	214.08
931.96	214.11
932.26	214.14
932.56	214.04
932.86	214.06
933.16	214.03
933.46	214.01
933.76	213.96
934.06	214.03
934.36	214.09
934.66	214.05
934.96	214.00
935.26	214.00
935.56	214.02
935.86	213.98
936.16	213.95
936.46	213.97
936.76	213.94
937.06	213.93
937.36	213.95
937.66	213.99
937.96	213.97
938.26	213.92
938.56	213.87
938.86	213.91
939.16	213.93
939.46	213.94
939.76	213.94
940.06	213.94
940.35	213.88
940.65	213.77
940.95	213.81
941.25	213.77
941.55	213.71
941.85	213.71
942.15	213.73
942.45	213.79
942.75	213.79
943.04	213.80
943.34	213.80
943.64	213.75
943.94	213.71
944.24	213.70
944.54	213.71
944.84	213.73
945.13	213.71
945.43	213.70
945.73	213.68
946.03	213.68
946.33	213.66
946.62	213.66
946.92	213.64
947.22	213.68
947.52	213.68
947.82	213.76
948.11	213.74
948.41	213.69
948.71	213.61
949.01	213.61
949.31	213.60
949.60	213.60
949.90	213.67
950.20	213.63
950.50	213.62
950.79	213.63
951.09	213.65
951.39	213.65
951.69	213.60
951.98	213.64
952.28	213.65
952.58	213.68
952.87	213.68
953.17	213.77
953.47	213.70
953.76	213.75
954.06	213.71
954.36	213.68
954.66	213.73
954.95	213.80
955.25	213.82
955.55	213.81
955.84	213.80
956.14	213.80
956.44	213.87
956.73	213.87
957.03	213.86
957.32	213.86
957.62	213.85
957.92	213.93
958.21	213.90
958.51	214.17
958.81	214.18
959.10	214.24
959.40	214.22
959.69	214.26
959.99	214.26
960.29	214.27
960.58	214.24
960.88	214.30
961.17	214.29
961.47	214.30
961.76	214.29
962.06	214.34
962.36	214.30
962.65	214.29
962.95	214.29
963.24	214.28
963.54	214.29
963.83	214.33
964.13	214.27
964.42	214.24
964.72	214.02
965.01	213.99
965.31	213.96
965.60	213.92
965.90	214.04
966.19	214.02
966.49	214.03
966.78	214.03
967.08	213.99
967.37	214.00
967.67	213.98
967.96	214.02
968.26	214.01
968.55	214.04
968.85	213.99
969.14	213.97
969.43	213.98
969.73	213.95
970.02	213.94
970.32	213.93
970.61	213.93
970.91	213.92
971.20	213.90
971.49	213.86
971.79	213.89
972.08	213.71
972.38	213.73
972.67	213.70
972.96	213.75
973.26	213.71
973.55	213.75
973.85	213.73
974.14	213.73
974.43	213.72
974.73	213.68
975.02	213.68
975.31	213.68
975.61	213.67
975.90	213.66
976.19	213.61
976.49	213.65
976.78	213.69
977.07	213.64
977.37	213.68
977.66	213.71
977.95	213.68
978.24	213.73
978.54	213.75
978.83	213.76
979.12	213.71
979.42	213.72
979.71	213.67
980.00	213.70
980.29	213.70
980.59	213.70
980.88	213.76
981.17	213.75
981.46	213.77
981.76	213.80
982.05	213.87
982.34	213.91
982.63	213.89
982.93	213.86
983.22	213.89
983.51	213.90
983.80	213.91
984.09	213.95
984.39	213.94
984.68	213.94
984.97	213.96
985.26	213.97
985.55	213.98
985.85	213.94
986.14	213.93
986.43	213.94
986.72	213.91
987.01	213.84
987.30	213.87
987.59	213.81
987.89	213.80
988.18	213.73
988.47	213.71
988.76	213.71
989.05	213.73
989.34	213.72
989.63	213.76
989.92	213.76
990.22	213.71
990.51	213.70
990.80	213.67
991.09	213.65
991.38	213.69
991.67	213.67
991.96	213.66
992.25	213.66
992.54	213.63
992.83	213.63
993.12	213.63
993.41	213.65
993.70	213.75
993.99	213.79
994.28	213.83
994.58	213.84
994.87	213.83
995.16	213.82
995.45	213.81
995.74	213.72
996.03	213.74
996.32	213.79
996.61	213.83
996.90	213.82
997.19	213.82
997.48	213.79
997.77	213.76
998.06	213.79
998.34	213.82
998.63	213.83
998.92	213.83
999.21	213.89
999.50	213.90
999.79	213.86
1000.08	213.85
1000.37	213.85
1000.66	213.81
1000.95	213.86
1001.24	213.87
1001.53	213.90
1001.82	213.93
1002.11	213.88
1002.40	213.89
1002.68	213.94
1002.97	214.06
1003.26	214.04
1003.55	214.01
1003.84	214.04
1004.13	214.10
1004.42	214.05
1004.71	214.05
1004.99	214.02
1005.28	214.07
1005.57	214.02
1005.86	214.00
1006.15	213.98
1006.44	213.97
1006.72	214.01
1007.01	213.97
1007.30	213.97
1007.59	213.93
1007.88	213.94
1008.17	213.95
1008.45	213.92
1008.74	213.80
1009.03	213.73
1009.32	213.73
1009.60	213.73
1009.89	213.73
1010.18	213.62
1010.47	213.61
1010.76	213.60
1011.04	213.63
1011.33	213.65
1011.62	213.67
1011.91	213.68
1012.19	213.68
1012.48	213.67
1012.77	213.67
1013.05	213.77
1013.34	213.74
1013.63	213.77
1013.92	213.73
1014.20	213.73
1014.49	213.75
1014.78	213.79
1015.06	213.73
1015.35	213.73
1015.64	213.75
1015.92	213.77
1016.21	213.80
1016.50	213.84
1016.78	213.91
1017.07	213.92
1017.36	213.87
1017.64	213.86
1017.93	213.86
1018.22	213.83
1018.50	213.82
1018.79	213.82
1019.08	213.71
1019.36	213.73
1019.65	213.68
1019.93	213.75
1020.22	213.76
1020.51	213.88
1020.79	213.86
1021.08	213.17
1021.36	213.35
1021.65	213.91
1021.94	213.57
1022.22	213.60
1022.51	213.07
1022.79	214.41
1023.08	213.86
1023.36	216.73
1023.65	213.24
>>>>>End Processed Spectral Data<<<<<
