SpectraSuite Data File
++++++++++++++++++++++++++++++++++++
Date: Tue Jan 29 16:15:24 EST 2013
User: group
Dark Spectrum Present: No
Reference Spectrum Present: No
Number of Sampled Component Spectra: 1
Spectrometers: USB2E7196
Integration Time (usec): 65000 (USB2E7196)
Spectra Averaged: 100 (USB2E7196)
Boxcar Smoothing: 10 (USB2E7196)
Correct for Electrical Dark: No (USB2E7196)
Strobe/Lamp Enabled: No (USB2E7196)
Correct for Detector Non-linearity: No (USB2E7196)
Correct for Stray Light: No (USB2E7196)
Number of Pixels in Processed Spectrum: 2048
>>>>>Begin Processed Spectral Data<<<<<
339.09	0.00
339.48	202.01
339.86	203.92
340.24	204.80
340.63	206.11
341.01	211.24
341.39	208.86
341.78	211.05
342.16	212.35
342.54	212.00
342.93	201.48
343.31	211.66
343.69	212.24
344.07	212.70
344.46	213.18
344.84	213.62
345.22	213.77
345.60	214.05
345.99	214.27
346.37	214.39
346.75	214.54
347.13	214.61
347.52	214.71
347.90	214.84
348.28	214.91
348.66	215.02
349.05	215.01
349.43	215.14
349.81	215.17
350.19	215.23
350.57	215.30
350.96	215.38
351.34	215.52
351.72	215.63
352.10	215.75
352.48	215.83
352.87	215.88
353.25	216.01
353.63	216.10
354.01	216.14
354.39	216.21
354.77	216.29
355.15	216.45
355.54	216.50
355.92	216.53
356.30	216.62
356.68	216.81
357.06	216.90
357.44	216.90
357.82	216.95
358.20	217.04
358.58	217.11
358.97	217.19
359.35	217.27
359.73	217.35
360.11	217.39
360.49	217.46
360.87	217.54
361.25	217.60
361.63	217.71
362.01	217.79
362.39	217.84
362.77	217.88
363.15	217.89
363.53	217.94
363.91	217.96
364.29	217.99
364.67	217.81
365.05	217.86
365.43	217.93
365.81	217.99
366.19	218.08
366.57	218.15
366.95	218.15
367.33	218.13
367.71	218.10
368.09	218.15
368.47	218.15
368.85	218.10
369.23	218.11
369.61	218.01
369.99	218.05
370.37	218.06
370.75	218.14
371.13	218.05
371.51	217.97
371.89	217.98
372.27	217.95
372.65	217.94
373.03	217.91
373.41	217.83
373.78	217.75
374.16	217.62
374.54	217.50
374.92	217.43
375.30	217.34
375.68	217.28
376.06	217.24
376.44	217.18
376.82	217.17
377.19	217.09
377.57	217.06
377.95	216.93
378.33	216.84
378.71	216.67
379.09	216.70
379.47	216.69
379.84	216.61
380.22	216.55
380.60	216.50
380.98	216.42
381.36	216.35
381.73	216.29
382.11	216.27
382.49	216.24
382.87	216.20
383.25	216.17
383.62	216.36
384.00	216.28
384.38	216.21
384.76	216.21
385.13	216.25
385.51	216.18
385.89	216.11
386.27	216.12
386.64	216.10
387.02	216.02
387.40	215.97
387.78	215.93
388.15	215.91
388.53	215.84
388.91	215.79
389.29	215.78
389.66	215.80
390.04	215.76
390.42	215.79
390.79	215.77
391.17	215.72
391.55	215.48
391.92	215.46
392.30	215.52
392.68	215.45
393.05	215.42
393.43	215.45
393.81	215.46
394.18	215.46
394.56	215.49
394.94	215.55
395.31	215.52
395.69	215.59
396.06	215.63
396.44	215.69
396.82	215.71
397.19	215.84
397.57	215.81
397.95	215.85
398.32	215.80
398.70	215.85
399.07	215.96
399.45	216.00
399.82	216.07
400.20	216.09
400.58	216.11
400.95	216.12
401.33	216.22
401.70	216.44
402.08	216.52
402.45	216.62
402.83	216.75
403.20	216.90
403.58	217.00
403.95	217.12
404.33	217.26
404.71	217.43
405.08	217.66
405.46	217.84
405.83	218.05
406.21	218.25
406.58	218.46
406.96	218.71
407.33	218.96
407.70	219.22
408.08	219.67
408.45	220.04
408.83	220.40
409.20	220.74
409.58	220.99
409.95	221.43
410.33	221.89
410.70	222.30
411.08	222.81
411.45	223.38
411.82	223.94
412.20	224.59
412.57	225.38
412.95	225.93
413.32	226.72
413.69	227.54
414.07	228.45
414.44	229.39
414.82	230.35
415.19	231.49
415.56	232.65
415.94	233.76
416.31	235.13
416.68	236.50
417.06	238.05
417.43	239.54
417.81	241.22
418.18	242.98
418.55	244.83
418.93	246.85
419.30	248.83
419.67	250.99
420.04	253.23
420.42	255.52
420.79	258.28
421.16	260.96
421.54	263.74
421.91	266.60
422.28	269.60
422.66	272.77
423.03	275.91
423.40	279.13
423.77	282.66
424.15	286.17
424.52	289.83
424.89	293.85
425.26	297.79
425.64	301.56
426.01	305.65
426.38	309.95
426.75	314.28
427.13	318.93
427.50	323.68
427.87	328.74
428.24	333.77
428.61	338.59
428.99	343.94
429.36	349.73
429.73	355.44
430.10	361.13
430.47	367.02
430.85	373.11
431.22	379.63
431.59	386.45
431.96	393.03
432.33	400.32
432.70	407.30
433.08	415.51
433.45	423.24
433.82	430.92
434.19	439.51
434.56	447.94
434.93	455.88
435.30	463.92
435.68	472.66
436.05	481.36
436.42	489.91
436.79	497.75
437.16	506.22
437.53	515.16
437.90	523.96
438.27	532.61
438.64	541.55
439.01	549.76
439.38	557.14
439.75	564.26
440.13	572.30
440.50	579.93
440.87	586.19
441.24	592.63
441.61	599.72
441.98	604.98
442.35	611.05
442.72	617.14
443.09	622.92
443.46	626.53
443.83	628.88
444.20	631.00
444.57	634.01
444.94	635.45
445.31	636.82
445.68	638.16
446.05	638.71
446.42	637.92
446.79	636.95
447.16	635.83
447.53	635.08
447.90	631.87
448.27	628.76
448.64	624.29
449.01	621.05
449.37	615.38
449.74	609.84
450.11	603.21
450.48	596.16
450.85	589.05
451.22	582.82
451.59	576.96
451.96	571.36
452.33	563.80
452.70	556.91
453.07	548.69
453.43	540.37
453.80	532.40
454.17	524.68
454.54	517.44
454.91	509.57
455.28	501.88
455.65	494.80
456.02	487.58
456.38	481.42
456.75	473.87
457.12	467.62
457.49	461.37
457.86	455.42
458.23	450.21
458.59	444.52
458.96	438.71
459.33	433.57
459.70	428.42
460.07	424.37
460.43	419.63
460.80	415.28
461.17	411.46
461.54	407.40
461.91	403.58
462.27	399.66
462.64	396.38
463.01	392.67
463.38	389.06
463.74	385.48
464.11	382.37
464.48	379.62
464.85	376.58
465.21	374.23
465.58	371.69
465.95	368.67
466.32	366.12
466.68	363.64
467.05	361.20
467.42	358.73
467.78	356.12
468.15	353.74
468.52	351.88
468.88	349.49
469.25	347.37
469.62	345.62
469.98	343.73
470.35	341.97
470.72	340.39
471.08	338.69
471.45	337.27
471.82	335.78
472.18	334.16
472.55	333.01
472.92	331.70
473.28	330.56
473.65	329.53
474.02	328.49
474.38	327.63
474.75	326.89
475.11	326.10
475.48	325.53
475.85	325.10
476.21	324.69
476.58	324.37
476.94	324.16
477.31	323.90
477.67	323.67
478.04	323.58
478.41	323.59
478.77	323.79
479.14	323.76
479.50	323.95
479.87	324.28
480.23	324.62
480.60	324.89
480.96	325.20
481.33	325.77
481.69	326.35
482.06	326.89
482.42	327.38
482.79	328.01
483.15	328.87
483.52	329.81
483.88	330.73
484.25	331.71
484.61	332.74
484.98	333.79
485.34	335.11
485.71	336.47
486.07	337.90
486.44	339.22
486.80	340.86
487.17	342.48
487.53	344.34
487.90	346.20
488.26	348.20
488.62	350.30
488.99	352.33
489.35	354.45
489.72	356.84
490.08	359.39
490.44	361.91
490.81	364.55
491.17	367.24
491.54	370.10
491.90	373.07
492.26	376.27
492.63	379.69
492.99	383.11
493.36	386.74
493.72	390.57
494.08	394.59
494.45	398.76
494.81	403.15
495.17	407.57
495.54	412.27
495.90	417.09
496.26	421.97
496.63	427.14
496.99	432.53
497.35	438.07
497.72	443.87
498.08	449.82
498.44	455.89
498.80	462.32
499.17	468.87
499.53	475.58
499.89	482.46
500.26	489.28
500.62	496.36
500.98	503.69
501.34	511.11
501.71	518.77
502.07	526.46
502.43	534.40
502.79	542.47
503.16	550.82
503.52	559.33
503.88	568.06
504.24	576.95
504.60	585.94
504.97	595.12
505.33	604.29
505.69	614.09
506.05	623.87
506.41	633.64
506.78	643.68
507.14	653.87
507.50	664.21
507.86	674.88
508.22	685.57
508.59	696.17
508.95	707.18
509.31	718.36
509.67	729.80
510.03	741.16
510.39	752.75
510.75	764.41
511.12	776.29
511.48	788.26
511.84	800.43
512.20	812.59
512.56	825.07
512.92	837.73
513.28	850.23
513.64	862.91
514.00	875.58
514.37	888.33
514.73	901.27
515.09	914.09
515.45	926.89
515.81	939.75
516.17	953.01
516.53	966.03
516.89	979.02
517.25	992.02
517.61	1005.34
517.97	1018.59
518.33	1031.55
518.69	1044.83
519.05	1058.31
519.41	1071.65
519.77	1085.42
520.13	1098.51
520.49	1111.47
520.85	1124.52
521.21	1137.61
521.57	1150.98
521.93	1163.84
522.29	1177.31
522.65	1190.68
523.01	1203.98
523.37	1216.88
523.73	1229.86
524.09	1242.86
524.45	1255.89
524.81	1269.22
525.17	1282.30
525.53	1295.14
525.89	1308.20
526.25	1320.93
526.61	1333.45
526.97	1346.27
527.33	1358.81
527.68	1371.85
528.04	1385.08
528.40	1397.98
528.76	1411.03
529.12	1423.60
529.48	1436.61
529.84	1448.49
530.20	1460.93
530.56	1473.21
530.91	1486.21
531.27	1498.76
531.63	1511.10
531.99	1523.69
532.35	1535.52
532.71	1547.60
533.07	1560.15
533.42	1571.99
533.78	1583.86
534.14	1595.71
534.50	1606.68
534.86	1617.95
535.21	1628.61
535.57	1639.72
535.93	1650.74
536.29	1661.49
536.65	1672.64
537.00	1683.30
537.36	1694.42
537.72	1705.06
538.08	1716.06
538.44	1726.54
538.79	1737.29
539.15	1747.82
539.51	1758.13
539.87	1769.18
540.22	1779.57
540.58	1790.11
540.94	1800.69
541.29	1810.60
541.65	1819.97
542.01	1830.15
542.37	1839.88
542.72	1849.76
543.08	1859.28
543.44	1869.33
543.79	1878.32
544.15	1887.51
544.51	1897.20
544.87	1906.86
545.22	1915.78
545.58	1924.43
545.94	1933.08
546.29	1941.46
546.65	1949.60
547.01	1957.54
547.36	1964.92
547.72	1972.49
548.07	1979.83
548.43	1987.39
548.79	1995.03
549.14	2003.06
549.50	2011.16
549.86	2018.78
550.21	2025.87
550.57	2033.25
550.92	2039.89
551.28	2047.26
551.64	2054.30
551.99	2061.49
552.35	2068.41
552.70	2075.06
553.06	2081.46
553.41	2087.57
553.77	2093.85
554.13	2100.07
554.48	2106.88
554.84	2113.61
555.19	2119.96
555.55	2126.38
555.90	2132.47
556.26	2139.10
556.61	2144.87
556.97	2149.59
557.32	2155.36
557.68	2161.70
558.03	2167.31
558.39	2172.44
558.74	2178.20
559.10	2183.67
559.45	2189.23
559.81	2194.49
560.16	2200.08
560.52	2205.91
560.87	2212.09
561.23	2217.93
561.58	2224.49
561.94	2229.68
562.29	2234.60
562.64	2240.77
563.00	2246.42
563.35	2251.99
563.71	2257.84
564.06	2263.37
564.42	2269.56
564.77	2274.66
565.12	2279.76
565.48	2285.00
565.83	2290.62
566.19	2296.04
566.54	2301.52
566.89	2306.06
567.25	2310.73
567.60	2316.38
567.96	2321.68
568.31	2326.51
568.66	2330.87
569.02	2334.76
569.37	2338.62
569.72	2343.21
570.08	2346.68
570.43	2349.70
570.78	2352.81
571.14	2355.48
571.49	2358.74
571.84	2362.09
572.20	2364.97
572.55	2368.11
572.90	2370.33
573.26	2373.31
573.61	2375.79
573.96	2377.93
574.31	2380.07
574.67	2382.14
575.02	2383.11
575.37	2384.59
575.72	2385.49
576.08	2386.97
576.43	2387.35
576.78	2388.15
577.13	2389.78
577.49	2390.89
577.84	2392.26
578.19	2393.90
578.54	2394.62
578.90	2395.75
579.25	2395.77
579.60	2396.02
579.95	2395.54
580.30	2396.00
580.66	2395.36
581.01	2394.08
581.36	2392.02
581.71	2390.73
582.06	2389.82
582.42	2389.05
582.77	2387.11
583.12	2385.60
583.47	2384.56
583.82	2384.08
584.17	2382.73
584.53	2380.70
584.88	2379.01
585.23	2377.34
585.58	2374.99
585.93	2373.01
586.28	2370.82
586.63	2368.62
586.98	2366.49
587.34	2364.69
587.69	2362.49
588.04	2360.56
588.39	2359.22
588.74	2356.84
589.09	2354.53
589.44	2351.60
589.79	2349.44
590.14	2347.70
590.49	2344.96
590.84	2341.26
591.19	2338.44
591.54	2335.29
591.89	2331.32
592.25	2328.14
592.60	2323.89
592.95	2320.08
593.30	2316.07
593.65	2311.80
594.00	2307.68
594.35	2304.74
594.70	2300.25
595.05	2295.56
595.40	2290.35
595.75	2284.80
596.10	2281.28
596.45	2276.41
596.80	2271.87
597.15	2266.69
597.50	2260.89
597.85	2256.22
598.19	2250.99
598.54	2245.26
598.89	2240.46
599.24	2236.03
599.59	2229.91
599.94	2224.34
600.29	2218.56
600.64	2212.71
600.99	2206.27
601.34	2200.85
601.69	2193.92
602.04	2187.58
602.39	2181.30
602.74	2175.31
603.08	2169.83
603.43	2163.54
603.78	2156.84
604.13	2149.99
604.48	2142.87
604.83	2136.81
605.18	2130.51
605.53	2123.62
605.87	2116.72
606.22	2109.89
606.57	2102.20
606.92	2094.55
607.27	2087.79
607.62	2081.10
607.96	2074.23
608.31	2067.67
608.66	2059.96
609.01	2052.50
609.36	2045.45
609.70	2037.70
610.05	2030.06
610.40	2021.73
610.75	2013.40
611.10	2005.81
611.44	1996.98
611.79	1988.27
612.14	1978.26
612.49	1967.85
612.83	1958.87
613.18	1949.74
613.53	1940.51
613.88	1930.89
614.22	1922.36
614.57	1912.48
614.92	1902.13
615.27	1892.02
615.61	1882.23
615.96	1872.65
616.31	1863.22
616.65	1854.05
617.00	1844.30
617.35	1834.70
617.70	1825.15
618.04	1815.18
618.39	1804.85
618.74	1795.16
619.08	1785.66
619.43	1777.19
619.78	1768.92
620.12	1760.19
620.47	1750.49
620.82	1740.16
621.16	1730.49
621.51	1720.49
621.85	1710.69
622.20	1700.11
622.55	1689.55
622.89	1679.59
623.24	1669.85
623.59	1660.07
623.93	1649.90
624.28	1640.32
624.62	1630.24
624.97	1620.01
625.32	1610.36
625.66	1601.71
626.01	1593.00
626.35	1583.53
626.70	1573.32
627.04	1563.27
627.39	1553.27
627.73	1544.09
628.08	1535.12
628.43	1525.54
628.77	1516.40
629.12	1507.56
629.46	1499.94
629.81	1491.56
630.15	1482.03
630.50	1472.35
630.84	1461.80
631.19	1451.96
631.53	1442.42
631.88	1432.28
632.22	1422.34
632.57	1412.99
632.91	1402.81
633.26	1392.94
633.60	1383.54
633.95	1374.33
634.29	1364.95
634.64	1355.65
634.98	1345.70
635.32	1336.46
635.67	1327.90
636.01	1318.69
636.36	1308.91
636.70	1299.35
637.05	1290.05
637.39	1281.15
637.73	1272.45
638.08	1265.06
638.42	1256.88
638.77	1248.28
639.11	1240.08
639.45	1232.20
639.80	1223.65
640.14	1215.01
640.49	1206.21
640.83	1197.35
641.17	1189.30
641.52	1181.11
641.86	1172.38
642.20	1164.66
642.55	1156.15
642.89	1147.39
643.23	1138.73
643.58	1130.69
643.92	1121.69
644.26	1113.10
644.61	1104.69
644.95	1096.07
645.29	1086.83
645.64	1077.70
645.98	1069.36
646.32	1061.45
646.66	1052.99
647.01	1044.73
647.35	1036.64
647.69	1028.42
648.04	1020.18
648.38	1011.34
648.72	1002.61
649.06	994.25
649.41	986.10
649.75	978.20
650.09	970.40
650.43	962.47
650.78	954.35
651.12	946.84
651.46	939.55
651.80	932.28
652.14	924.93
652.49	917.51
652.83	910.25
653.17	902.56
653.51	894.98
653.85	887.77
654.20	880.52
654.54	873.06
654.88	865.92
655.22	858.83
655.56	851.84
655.90	845.15
656.25	838.62
656.59	831.68
656.93	824.72
657.27	817.66
657.61	810.83
657.95	804.71
658.29	798.84
658.64	792.73
658.98	786.41
659.32	779.95
659.66	773.80
660.00	767.47
660.34	761.50
660.68	755.52
661.02	749.35
661.36	743.54
661.70	737.84
662.05	732.17
662.39	726.76
662.73	721.54
663.07	716.23
663.41	710.74
663.75	705.24
664.09	699.68
664.43	694.36
664.77	689.09
665.11	683.35
665.45	677.47
665.79	671.72
666.13	666.05
666.47	660.66
666.81	655.41
667.15	650.15
667.49	645.10
667.83	639.94
668.17	634.80
668.51	629.76
668.85	624.86
669.19	620.09
669.53	615.14
669.87	610.10
670.21	605.39
670.55	600.72
670.89	596.35
671.23	592.10
671.57	587.80
671.91	583.52
672.25	579.47
672.58	575.48
672.92	571.50
673.26	567.68
673.60	563.89
673.94	560.00
674.28	556.46
674.62	552.74
674.96	549.03
675.30	545.52
675.64	541.86
675.97	538.44
676.31	534.92
676.65	531.35
676.99	527.98
677.33	524.21
677.67	520.63
678.01	516.78
678.34	513.20
678.68	509.73
679.02	506.19
679.36	502.52
679.70	498.93
680.04	495.46
680.37	492.08
680.71	488.82
681.05	485.67
681.39	482.48
681.73	479.37
682.06	476.41
682.40	473.42
682.74	470.27
683.08	467.06
683.42	463.93
683.75	461.02
684.09	457.98
684.43	455.26
684.77	452.43
685.10	449.70
685.44	446.84
685.78	443.95
686.12	441.23
686.45	438.54
686.79	435.92
687.13	433.45
687.46	430.87
687.80	428.28
688.14	425.53
688.48	422.97
688.81	420.37
689.15	417.85
689.49	415.30
689.82	412.83
690.16	410.32
690.50	407.91
690.83	405.52
691.17	403.09
691.51	400.68
691.84	398.47
692.18	396.28
692.52	394.14
692.85	392.06
693.19	389.95
693.52	387.83
693.86	385.65
694.20	383.52
694.53	381.44
694.87	379.29
695.21	377.21
695.54	375.10
695.88	372.99
696.21	370.82
696.55	368.74
696.88	366.73
697.22	364.81
697.56	362.98
697.89	361.10
698.23	359.40
698.56	357.67
698.90	355.93
699.23	354.03
699.57	352.20
699.90	350.42
700.24	348.70
700.58	347.00
700.91	345.45
701.25	343.92
701.58	342.37
701.92	340.82
702.25	339.29
702.59	337.70
702.92	336.21
703.26	334.69
703.59	333.24
703.93	332.06
704.26	330.71
704.60	329.23
704.93	327.84
705.26	326.31
705.60	324.83
705.93	323.39
706.27	322.15
706.60	320.91
706.94	319.69
707.27	318.35
707.61	317.06
707.94	315.71
708.27	314.23
708.61	312.82
708.94	311.47
709.28	310.21
709.61	309.03
709.94	307.87
710.28	306.72
710.61	305.59
710.95	304.14
711.28	303.06
711.61	301.93
711.95	300.81
712.28	299.71
712.61	298.57
712.95	297.52
713.28	296.51
713.61	295.42
713.95	294.31
714.28	293.33
714.61	292.31
714.95	291.32
715.28	290.33
715.61	289.33
715.95	288.43
716.28	287.52
716.61	286.58
716.95	285.57
717.28	284.66
717.61	283.70
717.94	282.89
718.28	281.86
718.61	281.01
718.94	280.12
719.27	279.30
719.61	278.50
719.94	277.62
720.27	276.65
720.60	275.78
720.94	275.00
721.27	274.26
721.60	273.56
721.93	272.85
722.27	272.23
722.60	271.62
722.93	270.87
723.26	270.22
723.59	269.54
723.93	268.93
724.26	268.28
724.59	267.68
724.92	267.07
725.25	266.58
725.59	265.97
725.92	265.45
726.25	264.90
726.58	264.34
726.91	263.79
727.24	263.30
727.57	262.80
727.91	262.19
728.24	261.64
728.57	261.06
728.90	260.54
729.23	259.93
729.56	259.47
729.89	259.02
730.22	258.45
730.55	257.90
730.89	257.38
731.22	256.86
731.55	256.32
731.88	255.84
732.21	255.30
732.54	254.79
732.87	254.27
733.20	253.77
733.53	253.33
733.86	252.89
734.19	252.42
734.52	252.00
734.85	251.76
735.18	251.29
735.51	250.95
735.84	250.54
736.17	250.19
736.50	249.68
736.83	249.50
737.16	249.13
737.49	248.79
737.82	248.41
738.15	248.06
738.48	247.75
738.81	247.34
739.14	246.93
739.47	246.54
739.80	246.18
740.13	245.86
740.46	245.48
740.79	245.10
741.12	244.76
741.45	244.39
741.78	243.95
742.11	243.70
742.44	243.32
742.77	243.02
743.10	242.68
743.43	242.35
743.75	241.76
744.08	241.68
744.41	241.33
744.74	240.99
745.07	240.65
745.40	240.32
745.73	240.13
746.06	239.84
746.39	239.60
746.71	239.24
747.04	238.90
747.37	238.57
747.70	238.28
748.03	238.00
748.36	237.74
748.68	237.43
749.01	237.07
749.34	236.79
749.67	236.50
750.00	236.26
750.33	236.13
750.65	235.91
750.98	235.41
751.31	235.18
751.64	234.95
751.97	234.81
752.29	234.59
752.62	234.22
752.95	234.00
753.28	233.72
753.60	233.51
753.93	233.35
754.26	233.16
754.59	232.88
754.91	232.65
755.24	232.43
755.57	232.20
755.90	232.00
756.22	231.76
756.55	231.52
756.88	231.28
757.20	230.95
757.53	230.68
757.86	230.47
758.19	230.27
758.51	230.07
758.84	229.78
759.17	229.53
759.49	229.35
759.82	229.26
760.15	229.12
760.47	228.94
760.80	228.70
761.13	228.55
761.45	228.39
761.78	228.18
762.11	228.01
762.43	227.84
762.76	227.67
763.08	227.53
763.41	227.37
763.74	227.20
764.06	227.04
764.39	226.94
764.71	226.76
765.04	226.61
765.37	226.45
765.69	226.30
766.02	226.17
766.34	226.05
766.67	225.84
767.00	225.74
767.32	225.72
767.65	225.70
767.97	225.58
768.30	225.50
768.62	225.38
768.95	225.19
769.27	225.07
769.60	224.92
769.92	224.79
770.25	224.68
770.57	224.51
770.90	224.42
771.22	224.28
771.55	224.20
771.87	224.09
772.20	223.96
772.52	224.04
772.85	224.22
773.17	224.11
773.50	224.00
773.82	223.86
774.15	223.66
774.47	223.46
774.80	223.32
775.12	223.20
775.45	223.14
775.77	223.09
776.09	222.99
776.42	222.94
776.74	222.88
777.07	222.76
777.39	222.71
777.72	222.59
778.04	222.54
778.36	222.43
778.69	222.34
779.01	222.32
779.33	222.06
779.66	221.71
779.98	221.61
780.31	221.53
780.63	221.54
780.95	221.53
781.28	221.47
781.60	221.40
781.92	221.34
782.25	221.25
782.57	221.21
782.89	221.16
783.22	221.07
783.54	220.97
783.86	220.92
784.19	220.85
784.51	220.91
784.83	220.80
785.16	220.75
785.48	220.71
785.80	220.66
786.12	220.64
786.45	220.59
786.77	220.57
787.09	220.48
787.42	220.35
787.74	220.29
788.06	220.22
788.38	220.14
788.71	220.06
789.03	220.02
789.35	219.97
789.67	219.90
789.99	219.85
790.32	219.79
790.64	219.79
790.96	219.90
791.28	219.70
791.61	219.66
791.93	219.63
792.25	219.58
792.57	219.63
792.89	219.51
793.21	219.49
793.54	219.39
793.86	219.33
794.18	219.30
794.50	219.18
794.82	219.16
795.14	219.17
795.47	219.15
795.79	219.10
796.11	219.01
796.43	219.00
796.75	218.97
797.07	218.98
797.39	218.91
797.71	218.75
798.04	218.73
798.36	218.72
798.68	218.67
799.00	218.63
799.32	218.52
799.64	218.53
799.96	218.49
800.28	218.53
800.60	218.52
800.92	218.48
801.24	218.45
801.56	218.41
801.89	218.36
802.21	218.37
802.53	218.29
802.85	218.31
803.17	218.36
803.49	218.31
803.81	218.21
804.13	218.18
804.45	218.10
804.77	218.12
805.09	218.08
805.41	218.03
805.73	217.99
806.05	217.92
806.37	217.89
806.69	217.81
807.01	217.75
807.33	217.73
807.65	217.63
807.97	217.69
808.28	217.66
808.60	217.66
808.92	217.56
809.24	217.69
809.56	217.64
809.88	217.55
810.20	217.50
810.52	217.52
810.84	217.47
811.16	217.47
811.48	217.44
811.80	217.48
812.12	217.45
812.43	217.44
812.75	217.41
813.07	217.36
813.39	217.39
813.71	217.35
814.03	217.33
814.35	217.34
814.67	217.25
814.98	217.20
815.30	217.14
815.62	217.10
815.94	216.94
816.26	216.90
816.58	216.85
816.89	216.88
817.21	216.80
817.53	216.80
817.85	216.76
818.17	216.73
818.48	216.61
818.80	216.64
819.12	216.60
819.44	216.54
819.76	216.50
820.07	216.49
820.39	216.50
820.71	216.47
821.03	216.47
821.34	216.43
821.66	216.44
821.98	216.47
822.30	216.47
822.61	216.60
822.93	216.57
823.25	216.56
823.57	216.51
823.88	216.58
824.20	216.57
824.52	216.59
824.83	216.55
825.15	216.51
825.47	216.51
825.79	216.54
826.10	216.55
826.42	216.53
826.74	216.55
827.05	216.49
827.37	216.50
827.69	216.46
828.00	216.46
828.32	216.47
828.64	216.40
828.95	216.47
829.27	216.37
829.58	216.38
829.90	216.37
830.22	216.37
830.53	216.28
830.85	216.24
831.17	216.18
831.48	216.21
831.80	216.22
832.11	216.18
832.43	216.12
832.75	216.07
833.06	216.22
833.38	216.14
833.69	216.14
834.01	216.13
834.32	216.14
834.64	216.09
834.96	216.06
835.27	216.05
835.59	215.99
835.90	215.96
836.22	215.94
836.53	215.90
836.85	215.91
837.16	216.12
837.48	216.13
837.79	216.19
838.11	216.14
838.42	216.14
838.74	216.14
839.05	216.11
839.37	216.12
839.68	215.95
840.00	215.92
840.31	215.92
840.63	215.90
840.94	215.87
841.26	215.88
841.57	215.89
841.88	215.92
842.20	215.88
842.51	215.87
842.83	215.87
843.14	216.03
843.46	216.02
843.77	215.86
844.08	215.83
844.40	215.78
844.71	215.80
845.03	215.77
845.34	215.75
845.65	215.75
845.97	215.75
846.28	215.75
846.60	215.76
846.91	215.74
847.22	215.70
847.54	215.75
847.85	215.73
848.16	215.67
848.48	215.65
848.79	215.76
849.10	215.78
849.42	215.78
849.73	215.61
850.04	215.58
850.36	215.55
850.67	215.58
850.98	215.56
851.30	215.56
851.61	215.55
851.92	215.53
852.23	215.62
852.55	215.63
852.86	215.62
853.17	215.65
853.49	215.71
853.80	215.76
854.11	215.74
854.42	215.78
854.74	215.76
855.05	215.75
855.36	215.61
855.67	215.60
855.99	215.56
856.30	215.79
856.61	215.79
856.92	215.76
857.23	215.74
857.55	215.75
857.86	215.75
858.17	215.78
858.48	215.76
858.79	215.69
859.11	215.68
859.42	215.66
859.73	215.61
860.04	215.57
860.35	215.50
860.66	215.46
860.98	215.41
861.29	215.45
861.60	215.45
861.91	215.46
862.22	215.41
862.53	215.39
862.84	215.13
863.16	215.17
863.47	215.14
863.78	215.12
864.09	215.09
864.40	215.12
864.71	215.12
865.02	215.12
865.33	215.10
865.64	215.07
865.95	215.06
866.27	215.23
866.58	215.23
866.89	215.24
867.20	215.25
867.51	215.20
867.82	215.17
868.13	215.21
868.44	215.16
868.75	215.23
869.06	215.22
869.37	215.26
869.68	215.19
869.99	215.23
870.30	215.26
870.61	215.29
870.92	215.20
871.23	215.16
871.54	215.18
871.85	215.25
872.16	215.28
872.47	215.26
872.78	215.08
873.09	215.09
873.40	215.07
873.71	215.07
874.02	215.12
874.33	215.12
874.64	215.08
874.95	215.13
875.26	215.07
875.56	215.07
875.87	215.06
876.18	215.04
876.49	215.25
876.80	215.25
877.11	215.19
877.42	215.22
877.73	215.22
878.04	215.18
878.35	215.13
878.66	215.11
878.96	215.13
879.27	215.14
879.58	215.14
879.89	215.13
880.20	215.17
880.51	215.18
880.82	215.19
881.12	215.20
881.43	215.13
881.74	215.10
882.05	215.11
882.36	215.14
882.67	215.17
882.97	214.94
883.28	214.90
883.59	214.92
883.90	214.93
884.21	214.97
884.51	214.98
884.82	214.95
885.13	214.96
885.44	214.93
885.74	214.94
886.05	214.91
886.36	214.90
886.67	214.85
886.98	214.93
887.28	214.94
887.59	214.89
887.90	214.94
888.20	214.95
888.51	215.00
888.82	214.92
889.13	214.94
889.43	215.10
889.74	215.08
890.05	215.05
890.35	215.06
890.66	215.04
890.97	215.00
891.28	215.01
891.58	215.02
891.89	215.02
892.20	215.00
892.50	214.99
892.81	214.98
893.12	214.95
893.42	214.84
893.73	214.83
894.04	214.88
894.34	214.89
894.65	214.90
894.95	214.85
895.26	214.88
895.57	214.95
895.87	214.76
896.18	214.78
896.48	214.81
896.79	214.81
897.10	214.83
897.40	214.87
897.71	214.88
898.01	214.83
898.32	214.88
898.63	214.87
898.93	214.90
899.24	214.90
899.54	214.89
899.85	214.88
900.15	214.89
900.46	214.88
900.76	214.88
901.07	214.89
901.38	214.90
901.68	214.93
901.99	214.84
902.29	214.87
902.60	214.90
902.90	214.93
903.21	214.91
903.51	214.91
903.82	214.95
904.12	214.96
904.43	214.99
904.73	214.99
905.03	215.00
905.34	215.19
905.64	215.20
905.95	215.19
906.25	215.19
906.56	215.17
906.86	215.15
907.17	215.11
907.47	215.12
907.77	215.12
908.08	215.07
908.38	215.08
908.69	215.09
908.99	215.11
909.30	215.09
909.60	215.09
909.90	215.08
910.21	215.00
910.51	214.97
910.81	214.98
911.12	214.98
911.42	214.99
911.73	214.80
912.03	214.78
912.33	214.82
912.64	214.79
912.94	214.79
913.24	214.77
913.55	214.76
913.85	214.75
914.15	214.76
914.46	214.79
914.76	214.77
915.06	214.74
915.37	214.67
915.67	214.65
915.97	214.67
916.27	214.63
916.58	214.68
916.88	214.66
917.18	214.64
917.49	214.75
917.79	214.74
918.09	214.74
918.39	214.81
918.70	214.81
919.00	214.86
919.30	214.93
919.60	214.93
919.91	214.92
920.21	214.89
920.51	214.87
920.81	214.87
921.12	214.89
921.42	214.88
921.72	214.89
922.02	214.91
922.32	214.91
922.63	214.92
922.93	215.01
923.23	215.05
923.53	215.07
923.83	214.94
924.13	214.98
924.44	214.97
924.74	215.00
925.04	215.09
925.34	215.03
925.64	214.95
925.94	214.94
926.24	215.03
926.55	215.04
926.85	215.05
927.15	215.05
927.45	215.06
927.75	215.07
928.05	215.06
928.35	215.02
928.65	215.04
928.95	215.04
929.26	214.97
929.56	214.99
929.86	214.99
930.16	214.99
930.46	214.98
930.76	214.99
931.06	214.90
931.36	214.85
931.66	214.90
931.96	214.95
932.26	214.98
932.56	214.91
932.86	214.92
933.16	214.93
933.46	214.90
933.76	214.89
934.06	214.94
934.36	215.00
934.66	215.01
934.96	214.98
935.26	214.97
935.56	214.97
935.86	214.89
936.16	214.84
936.46	214.83
936.76	214.81
937.06	214.79
937.36	214.80
937.66	214.79
937.96	214.78
938.26	214.74
938.56	214.72
938.86	214.77
939.16	214.80
939.46	214.80
939.76	214.82
940.06	214.79
940.35	214.73
940.65	214.64
940.95	214.66
941.25	214.64
941.55	214.63
941.85	214.62
942.15	214.67
942.45	214.73
942.75	214.72
943.04	214.72
943.34	214.76
943.64	214.74
943.94	214.73
944.24	214.76
944.54	214.75
944.84	214.74
945.13	214.70
945.43	214.70
945.73	214.69
946.03	214.67
946.33	214.64
946.62	214.65
946.92	214.67
947.22	214.68
947.52	214.69
947.82	214.74
948.11	214.70
948.41	214.66
948.71	214.61
949.01	214.60
949.31	214.58
949.60	214.53
949.90	214.54
950.20	214.52
950.50	214.49
950.79	214.47
951.09	214.50
951.39	214.45
951.69	214.41
951.98	214.43
952.28	214.47
952.58	214.48
952.87	214.45
953.17	214.46
953.47	214.42
953.76	214.43
954.06	214.38
954.36	214.35
954.66	214.37
954.95	214.45
955.25	214.47
955.55	214.50
955.84	214.48
956.14	214.51
956.44	214.53
956.73	214.49
957.03	214.51
957.32	214.52
957.62	214.53
957.92	214.58
958.21	214.54
958.51	214.77
958.81	214.81
959.10	214.83
959.40	214.88
959.69	214.89
959.99	214.89
960.29	214.88
960.58	214.90
960.88	214.97
961.17	214.90
961.47	214.92
961.76	214.90
962.06	214.94
962.36	214.89
962.65	214.88
962.95	214.91
963.24	214.93
963.54	214.89
963.83	214.91
964.13	214.93
964.42	214.90
964.72	214.72
965.01	214.69
965.31	214.68
965.60	214.64
965.90	214.76
966.19	214.74
966.49	214.75
966.78	214.72
967.08	214.69
967.37	214.70
967.67	214.67
967.96	214.69
968.26	214.67
968.55	214.69
968.85	214.69
969.14	214.68
969.43	214.67
969.73	214.66
970.02	214.65
970.32	214.62
970.61	214.59
970.91	214.54
971.20	214.51
971.49	214.49
971.79	214.51
972.08	214.39
972.38	214.38
972.67	214.36
972.96	214.43
973.26	214.38
973.55	214.44
973.85	214.42
974.14	214.44
974.43	214.50
974.73	214.47
975.02	214.44
975.31	214.43
975.61	214.41
975.90	214.39
976.19	214.35
976.49	214.35
976.78	214.39
977.07	214.39
977.37	214.43
977.66	214.44
977.95	214.42
978.24	214.41
978.54	214.47
978.83	214.47
979.12	214.43
979.42	214.46
979.71	214.39
980.00	214.40
980.29	214.42
980.59	214.36
980.88	214.42
981.17	214.41
981.46	214.44
981.76	214.44
982.05	214.55
982.34	214.54
982.63	214.57
982.93	214.59
983.22	214.64
983.51	214.61
983.80	214.68
984.09	214.69
984.39	214.72
984.68	214.68
984.97	214.73
985.26	214.74
985.55	214.76
985.85	214.77
986.14	214.82
986.43	214.80
986.72	214.79
987.01	214.74
987.30	214.76
987.59	214.75
987.89	214.78
988.18	214.69
988.47	214.72
988.76	214.70
989.05	214.65
989.34	214.60
989.63	214.67
989.92	214.58
990.22	214.59
990.51	214.55
990.80	214.54
991.09	214.50
991.38	214.52
991.67	214.48
991.96	214.45
992.25	214.43
992.54	214.40
992.83	214.41
993.12	214.40
993.41	214.44
993.70	214.50
993.99	214.49
994.28	214.52
994.58	214.55
994.87	214.53
995.16	214.55
995.45	214.59
995.74	214.53
996.03	214.61
996.32	214.62
996.61	214.65
996.90	214.64
997.19	214.63
997.48	214.63
997.77	214.65
998.06	214.67
998.34	214.65
998.63	214.67
998.92	214.70
999.21	214.71
999.50	214.70
999.79	214.68
1000.08	214.69
1000.37	214.68
1000.66	214.64
1000.95	214.72
1001.24	214.73
1001.53	214.73
1001.82	214.71
1002.11	214.67
1002.40	214.71
1002.68	214.76
1002.97	214.89
1003.26	214.88
1003.55	214.86
1003.84	214.87
1004.13	214.91
1004.42	214.89
1004.71	214.88
1004.99	214.84
1005.28	214.89
1005.57	214.87
1005.86	214.83
1006.15	214.81
1006.44	214.80
1006.72	214.87
1007.01	214.79
1007.30	214.77
1007.59	214.73
1007.88	214.73
1008.17	214.75
1008.45	214.69
1008.74	214.60
1009.03	214.55
1009.32	214.55
1009.60	214.56
1009.89	214.54
1010.18	214.45
1010.47	214.44
1010.76	214.43
1011.04	214.43
1011.33	214.46
1011.62	214.47
1011.91	214.49
1012.19	214.50
1012.48	214.48
1012.77	214.46
1013.05	214.60
1013.34	214.59
1013.63	214.57
1013.92	214.57
1014.20	214.56
1014.49	214.58
1014.78	214.61
1015.06	214.55
1015.35	214.54
1015.64	214.55
1015.92	214.56
1016.21	214.58
1016.50	214.61
1016.78	214.63
1017.07	214.64
1017.36	214.58
1017.64	214.56
1017.93	214.56
1018.22	214.55
1018.50	214.54
1018.79	214.54
1019.08	214.42
1019.36	214.43
1019.65	214.45
1019.93	214.50
1020.22	214.51
1020.51	214.60
1020.79	214.61
1021.08	214.32
1021.36	213.96
1021.65	214.71
1021.94	214.47
1022.22	214.57
1022.51	214.17
1022.79	215.26
1023.08	214.59
1023.36	216.92
1023.65	214.58
>>>>>End Processed Spectral Data<<<<<
