SpectraSuite Data File
++++++++++++++++++++++++++++++++++++
Date: Tue Jan 29 16:48:39 EST 2013
User: group
Dark Spectrum Present: No
Reference Spectrum Present: No
Number of Sampled Component Spectra: 1
Spectrometers: USB2E7196
Integration Time (usec): 65000 (USB2E7196)
Spectra Averaged: 100 (USB2E7196)
Boxcar Smoothing: 10 (USB2E7196)
Correct for Electrical Dark: No (USB2E7196)
Strobe/Lamp Enabled: No (USB2E7196)
Correct for Detector Non-linearity: No (USB2E7196)
Correct for Stray Light: No (USB2E7196)
Number of Pixels in Processed Spectrum: 2048
>>>>>Begin Processed Spectral Data<<<<<
339.09	0.00
339.48	201.34
339.86	202.99
340.24	203.92
340.63	205.81
341.01	209.98
341.39	208.32
341.78	209.82
342.16	210.94
342.54	211.84
342.93	200.59
343.31	210.73
343.69	211.30
344.07	211.75
344.46	212.21
344.84	212.60
345.22	212.78
345.60	213.08
345.99	213.31
346.37	213.47
346.75	213.58
347.13	213.69
347.52	213.78
347.90	213.88
348.28	213.96
348.66	214.04
349.05	213.99
349.43	214.08
349.81	214.22
350.19	214.26
350.57	214.33
350.96	214.45
351.34	214.57
351.72	214.66
352.10	214.80
352.48	214.84
352.87	214.91
353.25	214.97
353.63	215.01
354.01	215.05
354.39	215.11
354.77	215.18
355.15	215.31
355.54	215.36
355.92	215.34
356.30	215.42
356.68	215.63
357.06	215.74
357.44	215.72
357.82	215.72
358.20	215.81
358.58	215.89
358.97	215.95
359.35	216.03
359.73	216.12
360.11	216.15
360.49	216.26
360.87	216.33
361.25	216.42
361.63	216.55
362.01	216.60
362.39	216.62
362.77	216.68
363.15	216.68
363.53	216.71
363.91	216.78
364.29	216.83
364.67	216.66
365.05	216.70
365.43	216.78
365.81	216.83
366.19	216.93
366.57	217.00
366.95	217.03
367.33	217.00
367.71	216.97
368.09	217.03
368.47	216.98
368.85	216.94
369.23	216.96
369.61	216.85
369.99	216.91
370.37	216.97
370.75	217.06
371.13	217.03
371.51	216.97
371.89	216.95
372.27	216.92
372.65	216.90
373.03	216.86
373.41	216.83
373.78	216.76
374.16	216.60
374.54	216.52
374.92	216.45
375.30	216.40
375.68	216.32
376.06	216.27
376.44	216.23
376.82	216.22
377.19	216.21
377.57	216.18
377.95	216.09
378.33	215.97
378.71	215.78
379.09	215.75
379.47	215.76
379.84	215.67
380.22	215.60
380.60	215.52
380.98	215.47
381.36	215.39
381.73	215.36
382.11	215.36
382.49	215.30
382.87	215.23
383.25	215.22
383.62	215.43
384.00	215.37
384.38	215.33
384.76	215.36
385.13	215.36
385.51	215.31
385.89	215.24
386.27	215.25
386.64	215.26
387.02	215.21
387.40	215.14
387.78	215.16
388.15	215.16
388.53	215.14
388.91	215.12
389.29	215.09
389.66	215.10
390.04	215.06
390.42	215.07
390.79	215.06
391.17	215.03
391.55	214.79
391.92	214.76
392.30	214.76
392.68	214.69
393.05	214.67
393.43	214.69
393.81	214.70
394.18	214.66
394.56	214.65
394.94	214.69
395.31	214.70
395.69	214.77
396.06	214.80
396.44	214.82
396.82	214.83
397.19	214.94
397.57	214.93
397.95	214.99
398.32	214.98
398.70	215.05
399.07	215.12
399.45	215.16
399.82	215.22
400.20	215.29
400.58	215.35
400.95	215.31
401.33	215.41
401.70	215.64
402.08	215.76
402.45	215.85
402.83	216.02
403.20	216.16
403.58	216.22
403.95	216.36
404.33	216.55
404.71	216.70
405.08	216.99
405.46	217.19
405.83	217.41
406.21	217.59
406.58	217.82
406.96	218.05
407.33	218.33
407.70	218.65
408.08	219.12
408.45	219.49
408.83	219.90
409.20	220.25
409.58	220.53
409.95	220.95
410.33	221.42
410.70	221.84
411.08	222.38
411.45	222.98
411.82	223.56
412.20	224.20
412.57	225.02
412.95	225.60
413.32	226.41
413.69	227.23
414.07	228.17
414.44	229.19
414.82	230.23
415.19	231.41
415.56	232.60
415.94	233.78
416.31	235.13
416.68	236.54
417.06	238.14
417.43	239.69
417.81	241.46
418.18	243.27
418.55	245.18
418.93	247.17
419.30	249.27
419.67	251.50
420.04	253.83
420.42	256.28
420.79	259.14
421.16	261.98
421.54	264.90
421.91	267.87
422.28	270.96
422.66	274.27
423.03	277.54
423.40	280.90
423.77	284.54
424.15	288.26
424.52	292.11
424.89	296.32
425.26	300.41
425.64	304.31
426.01	308.63
426.38	313.16
426.75	317.77
427.13	322.54
427.50	327.60
427.87	332.83
428.24	337.97
428.61	342.92
428.99	348.44
429.36	354.53
429.73	360.52
430.10	366.45
430.47	372.54
430.85	378.90
431.22	385.65
431.59	392.77
431.96	399.60
432.33	407.17
432.70	414.44
433.08	423.00
433.45	431.10
433.82	439.18
434.19	448.13
434.56	456.86
434.93	465.17
435.30	473.48
435.68	482.56
436.05	491.62
436.42	500.62
436.79	508.77
437.16	517.53
437.53	526.80
437.90	536.01
438.27	544.99
438.64	554.19
439.01	562.78
439.38	570.34
439.75	577.68
440.13	586.11
440.50	594.14
440.87	600.55
441.24	607.22
441.61	614.51
441.98	619.86
442.35	626.19
442.72	632.62
443.09	638.67
443.46	642.47
443.83	645.02
444.20	647.23
444.57	650.39
444.94	651.85
445.31	653.28
445.68	654.61
446.05	655.28
446.42	654.53
446.79	653.60
447.16	652.62
447.53	651.88
447.90	648.56
448.27	645.27
448.64	640.66
449.01	637.42
449.37	631.58
449.74	625.91
450.11	619.02
450.48	611.60
450.85	604.10
451.22	597.66
451.59	591.48
451.96	585.63
452.33	577.83
452.70	570.70
453.07	562.22
453.43	553.62
453.80	545.29
454.17	537.30
454.54	529.63
454.91	521.39
455.28	513.36
455.65	505.92
456.02	498.36
456.38	491.95
456.75	483.94
457.12	477.27
457.49	470.74
457.86	464.58
458.23	459.19
458.59	453.26
458.96	447.21
459.33	441.89
459.70	436.47
460.07	432.12
460.43	427.15
460.80	422.54
461.17	418.50
461.54	414.25
461.91	410.24
462.27	406.12
462.64	402.68
463.01	398.89
463.38	395.15
463.74	391.38
464.11	388.18
464.48	385.35
464.85	382.28
465.21	379.84
465.58	377.14
465.95	373.92
466.32	371.29
466.68	368.64
467.05	366.04
467.42	363.48
467.78	360.79
468.15	358.26
468.52	356.33
468.88	353.84
469.25	351.61
469.62	349.72
469.98	347.76
470.35	345.93
470.72	344.23
471.08	342.43
471.45	340.91
471.82	339.31
472.18	337.62
472.55	336.40
472.92	334.95
473.28	333.72
473.65	332.57
474.02	331.42
474.38	330.51
474.75	329.74
475.11	328.83
475.48	328.20
475.85	327.71
476.21	327.18
476.58	326.81
476.94	326.55
477.31	326.28
477.67	326.03
478.04	325.83
478.41	325.79
478.77	325.93
479.14	325.92
479.50	326.08
479.87	326.39
480.23	326.69
480.60	326.91
480.96	327.13
481.33	327.71
481.69	328.26
482.06	328.80
482.42	329.24
482.79	329.89
483.15	330.70
483.52	331.67
483.88	332.53
484.25	333.43
484.61	334.47
484.98	335.49
485.34	336.82
485.71	338.14
486.07	339.55
486.44	340.90
486.80	342.51
487.17	344.17
487.53	346.03
487.90	347.90
488.26	349.98
488.62	352.18
488.99	354.20
489.35	356.42
489.72	358.80
490.08	361.33
490.44	363.93
490.81	366.64
491.17	369.35
491.54	372.37
491.90	375.43
492.26	378.68
492.63	382.09
492.99	385.52
493.36	389.20
493.72	393.05
494.08	397.09
494.45	401.25
494.81	405.58
495.17	409.97
495.54	414.71
495.90	419.53
496.26	424.47
496.63	429.67
496.99	435.04
497.35	440.60
497.72	446.43
498.08	452.30
498.44	458.38
498.80	464.74
499.17	471.26
499.53	477.90
499.89	484.77
500.26	491.72
500.62	498.85
500.98	506.26
501.34	513.76
501.71	521.50
502.07	529.31
502.43	537.27
502.79	545.43
503.16	553.76
503.52	562.28
503.88	570.98
504.24	579.93
504.60	588.91
504.97	598.17
505.33	607.42
505.69	617.21
506.05	627.08
506.41	636.86
506.78	646.84
507.14	657.13
507.50	667.63
507.86	678.29
508.22	689.01
508.59	699.64
508.95	710.72
509.31	721.85
509.67	733.34
510.03	744.74
510.39	756.37
510.75	768.17
511.12	780.13
511.48	792.16
511.84	804.46
512.20	816.78
512.56	829.38
512.92	842.17
513.28	854.88
513.64	867.56
514.00	880.46
514.37	893.44
514.73	906.46
515.09	919.42
515.45	932.36
515.81	945.47
516.17	958.96
516.53	972.15
516.89	985.33
517.25	998.51
517.61	1012.03
517.97	1025.53
518.33	1038.80
518.69	1052.44
519.05	1066.12
519.41	1079.82
519.77	1093.81
520.13	1107.16
520.49	1120.28
520.85	1133.64
521.21	1147.02
521.57	1160.65
521.93	1173.78
522.29	1187.68
522.65	1201.29
523.01	1214.93
523.37	1228.12
523.73	1241.37
524.09	1254.58
524.45	1268.05
524.81	1281.54
525.17	1295.04
525.53	1308.27
525.89	1321.62
526.25	1334.69
526.61	1347.70
526.97	1360.86
527.33	1373.81
527.68	1387.30
528.04	1401.02
528.40	1414.25
528.76	1427.80
529.12	1440.82
529.48	1454.18
529.84	1466.40
530.20	1479.21
530.56	1491.86
530.91	1505.18
531.27	1518.13
531.63	1530.96
531.99	1543.79
532.35	1556.09
532.71	1568.48
533.07	1581.38
533.42	1593.62
533.78	1605.79
534.14	1617.91
534.50	1629.17
534.86	1640.78
535.21	1651.73
535.57	1663.20
535.93	1674.51
536.29	1685.52
536.65	1697.08
537.00	1708.14
537.36	1719.67
537.72	1730.69
538.08	1742.23
538.44	1753.23
538.79	1764.42
539.15	1775.49
539.51	1786.22
539.87	1797.78
540.22	1808.77
540.58	1819.83
540.94	1830.79
541.29	1841.14
541.65	1850.96
542.01	1861.52
542.37	1871.80
542.72	1881.96
543.08	1891.80
543.44	1902.30
543.79	1911.76
544.15	1921.31
544.51	1931.30
544.87	1941.33
545.22	1950.75
545.58	1959.66
545.94	1968.58
546.29	1977.10
546.65	1985.30
547.01	1993.56
547.36	2001.21
547.72	2008.95
548.07	2016.59
548.43	2024.37
548.79	2032.35
549.14	2040.59
549.50	2049.16
549.86	2056.95
550.21	2064.67
550.57	2072.54
550.92	2079.52
551.28	2087.04
551.64	2094.22
551.99	2101.66
552.35	2108.71
552.70	2115.61
553.06	2122.35
553.41	2128.71
553.77	2135.24
554.13	2141.87
554.48	2149.03
554.84	2156.14
555.19	2162.68
555.55	2169.23
555.90	2175.75
556.26	2182.56
556.61	2188.68
556.97	2193.50
557.32	2199.46
557.68	2205.75
558.03	2211.52
558.39	2216.96
558.74	2222.91
559.10	2228.57
559.45	2234.30
559.81	2239.87
560.16	2245.40
560.52	2251.24
560.87	2257.71
561.23	2263.49
561.58	2269.97
561.94	2275.09
562.29	2279.76
562.64	2285.82
563.00	2291.24
563.35	2296.61
563.71	2302.27
564.06	2307.84
564.42	2313.82
564.77	2318.60
565.12	2323.70
565.48	2328.60
565.83	2333.82
566.19	2339.08
566.54	2344.26
566.89	2348.70
567.25	2353.27
567.60	2358.89
567.96	2363.78
568.31	2368.00
568.66	2372.41
569.02	2376.26
569.37	2380.03
569.72	2384.27
570.08	2387.54
570.43	2390.54
570.78	2393.58
571.14	2395.93
571.49	2398.93
571.84	2402.25
572.20	2405.12
572.55	2408.06
572.90	2410.22
573.26	2412.92
573.61	2415.45
573.96	2417.69
574.31	2419.68
574.67	2421.39
575.02	2421.96
575.37	2423.33
575.72	2423.95
576.08	2425.17
576.43	2425.30
576.78	2425.46
577.13	2426.87
577.49	2428.00
577.84	2428.92
578.19	2430.03
578.54	2430.47
578.90	2430.98
579.25	2430.62
579.60	2430.36
579.95	2429.37
580.30	2429.35
580.66	2428.50
581.01	2426.70
581.36	2424.00
581.71	2422.35
582.06	2420.91
582.42	2419.97
582.77	2417.74
583.12	2416.01
583.47	2414.47
583.82	2413.58
584.17	2412.24
584.53	2410.00
584.88	2407.78
585.23	2405.67
585.58	2403.14
585.93	2401.08
586.28	2398.84
586.63	2396.23
586.98	2393.92
587.34	2391.90
587.69	2389.25
588.04	2387.07
588.39	2385.49
588.74	2382.90
589.09	2379.97
589.44	2376.73
589.79	2374.05
590.14	2371.70
590.49	2368.85
590.84	2364.78
591.19	2361.58
591.54	2358.12
591.89	2353.98
592.25	2350.48
592.60	2346.23
592.95	2342.02
593.30	2337.63
593.65	2333.07
594.00	2328.58
594.35	2325.57
594.70	2320.72
595.05	2316.11
595.40	2310.47
595.75	2304.51
596.10	2300.71
596.45	2295.80
596.80	2291.19
597.15	2285.97
597.50	2280.09
597.85	2274.97
598.19	2269.76
598.54	2263.85
598.89	2258.64
599.24	2253.81
599.59	2247.68
599.94	2241.68
600.29	2235.75
600.64	2229.85
600.99	2222.90
601.34	2217.35
601.69	2210.15
602.04	2203.71
602.39	2196.92
602.74	2190.85
603.08	2185.31
603.43	2178.73
603.78	2171.92
604.13	2164.75
604.48	2157.28
604.83	2151.09
605.18	2144.87
605.53	2137.93
605.87	2130.92
606.22	2124.15
606.57	2116.43
606.92	2108.36
607.27	2101.55
607.62	2094.87
607.96	2087.77
608.31	2081.49
608.66	2073.75
609.01	2066.12
609.36	2059.08
609.70	2051.49
610.05	2043.63
610.40	2035.30
610.75	2027.05
611.10	2019.17
611.44	2010.21
611.79	2001.61
612.14	1991.74
612.49	1981.02
612.83	1971.67
613.18	1962.38
613.53	1953.02
613.88	1943.40
614.22	1934.97
614.57	1924.97
614.92	1914.33
615.27	1904.14
615.61	1893.87
615.96	1884.17
616.31	1874.63
616.65	1865.13
617.00	1855.47
617.35	1845.80
617.70	1836.16
618.04	1826.24
618.39	1816.35
618.74	1806.83
619.08	1797.20
619.43	1788.58
619.78	1780.49
620.12	1771.99
620.47	1762.52
620.82	1752.25
621.16	1742.64
621.51	1732.77
621.85	1723.19
622.20	1712.92
622.55	1702.68
622.89	1692.93
623.24	1683.34
623.59	1673.61
623.93	1663.64
624.28	1653.90
624.62	1644.12
624.97	1633.94
625.32	1624.12
625.66	1615.16
626.01	1606.44
626.35	1597.23
626.70	1587.18
627.04	1577.17
627.39	1567.09
627.73	1557.86
628.08	1549.15
628.43	1539.52
628.77	1530.39
629.12	1521.64
629.46	1513.97
629.81	1505.52
630.15	1496.10
630.50	1486.44
630.84	1476.04
631.19	1466.20
631.53	1457.03
631.88	1446.89
632.22	1436.94
632.57	1427.83
632.91	1417.93
633.26	1408.19
633.60	1398.67
633.95	1389.50
634.29	1380.06
634.64	1370.80
634.98	1361.00
635.32	1351.68
635.67	1343.29
636.01	1334.05
636.36	1324.36
636.70	1314.78
637.05	1305.52
637.39	1296.77
637.73	1288.18
638.08	1280.71
638.42	1272.60
638.77	1263.82
639.11	1255.69
639.45	1247.91
639.80	1239.41
640.14	1230.72
640.49	1222.10
640.83	1213.26
641.17	1205.20
641.52	1197.16
641.86	1188.65
642.20	1180.76
642.55	1172.28
642.89	1163.58
643.23	1155.08
643.58	1147.05
643.92	1138.24
644.26	1129.58
644.61	1121.13
644.95	1112.46
645.29	1103.38
645.64	1094.29
645.98	1085.90
646.32	1078.02
646.66	1069.53
647.01	1061.31
647.35	1053.24
647.69	1044.90
648.04	1036.85
648.38	1028.01
648.72	1019.33
649.06	1010.96
649.41	1002.90
649.75	995.00
650.09	987.12
650.43	979.14
650.78	970.75
651.12	963.02
651.46	955.67
651.80	948.45
652.14	941.13
652.49	933.65
652.83	926.45
653.17	918.79
653.51	911.11
653.85	903.98
654.20	896.71
654.54	889.31
654.88	882.11
655.22	874.82
655.56	867.83
655.90	861.02
656.25	854.47
656.59	847.56
656.93	840.53
657.27	833.48
657.61	826.42
657.95	820.37
658.29	814.50
658.64	808.38
658.98	801.94
659.32	795.44
659.66	789.23
660.00	782.85
660.34	776.84
660.68	770.82
661.02	764.48
661.36	758.48
661.70	752.66
662.05	747.03
662.39	741.50
662.73	736.10
663.07	730.76
663.41	725.16
663.75	719.45
664.09	713.77
664.43	708.34
664.77	703.08
665.11	697.35
665.45	691.41
665.79	685.63
666.13	679.98
666.47	674.47
666.81	669.07
667.15	663.67
667.49	658.48
667.83	653.22
668.17	647.96
668.51	642.92
668.85	638.05
669.19	633.18
669.53	628.24
669.87	623.09
670.21	618.32
670.55	613.53
670.89	609.06
671.23	604.77
671.57	600.29
671.91	595.94
672.25	591.76
672.58	587.61
672.92	583.51
673.26	579.50
673.60	575.60
673.94	571.72
674.28	568.10
674.62	564.37
674.96	560.57
675.30	557.12
675.64	553.38
675.97	549.81
676.31	546.13
676.65	542.46
676.99	539.11
677.33	535.29
677.67	531.65
678.01	527.88
678.34	524.20
678.68	520.67
679.02	517.06
679.36	513.32
679.70	509.67
680.04	506.14
680.37	502.76
680.71	499.40
681.05	496.22
681.39	492.93
681.73	489.70
682.06	486.68
682.40	483.54
682.74	480.37
683.08	477.04
683.42	473.84
683.75	470.83
684.09	467.76
684.43	464.86
684.77	461.86
685.10	458.93
685.44	456.02
685.78	453.16
686.12	450.37
686.45	447.65
686.79	445.00
687.13	442.44
687.46	439.81
687.80	437.09
688.14	434.18
688.48	431.56
688.81	428.84
689.15	426.19
689.49	423.55
689.82	420.96
690.16	418.34
690.50	415.86
690.83	413.38
691.17	410.77
691.51	408.30
691.84	406.06
692.18	403.80
692.52	401.57
692.85	399.36
693.19	397.20
693.52	395.03
693.86	392.73
694.20	390.56
694.53	388.36
694.87	386.18
695.21	384.04
695.54	381.80
695.88	379.65
696.21	377.44
696.55	375.25
696.88	373.18
697.22	371.22
697.56	369.27
697.89	367.29
698.23	365.55
698.56	363.71
698.90	361.83
699.23	359.90
699.57	358.01
699.90	356.12
700.24	354.26
700.58	352.44
700.91	350.76
701.25	349.09
701.58	347.47
701.92	345.85
702.25	344.21
702.59	342.62
702.92	341.05
703.26	339.47
703.59	337.98
703.93	336.72
704.26	335.23
704.60	333.72
704.93	332.23
705.26	330.69
705.60	329.24
705.93	327.76
706.27	326.44
706.60	325.11
706.94	323.89
707.27	322.47
707.61	321.08
707.94	319.71
708.27	318.22
708.61	316.74
708.94	315.35
709.28	314.05
709.61	312.77
709.94	311.52
710.28	310.31
710.61	309.12
710.95	307.63
711.28	306.55
711.61	305.35
711.95	304.23
712.28	303.02
712.61	301.78
712.95	300.68
713.28	299.59
713.61	298.45
713.95	297.26
714.28	296.27
714.61	295.26
714.95	294.24
715.28	293.16
715.61	292.16
715.95	291.15
716.28	290.17
716.61	289.16
716.95	288.15
717.28	287.19
717.61	286.21
717.94	285.28
718.28	284.22
718.61	283.32
718.94	282.40
719.27	281.53
719.61	280.70
719.94	279.85
720.27	278.89
720.60	278.01
720.94	277.21
721.27	276.43
721.60	275.73
721.93	275.01
722.27	274.37
722.60	273.63
722.93	272.92
723.26	272.26
723.59	271.57
723.93	270.92
724.26	270.25
724.59	269.62
724.92	269.02
725.25	268.46
725.59	267.90
725.92	267.35
726.25	266.77
726.58	266.22
726.91	265.59
727.24	265.02
727.57	264.46
727.91	263.86
728.24	263.26
728.57	262.66
728.90	262.08
729.23	261.44
729.56	261.04
729.89	260.49
730.22	259.91
730.55	259.36
730.89	258.86
731.22	258.31
731.55	257.74
731.88	257.20
732.21	256.67
732.54	256.13
732.87	255.59
733.20	255.11
733.53	254.60
733.86	254.15
734.19	253.67
734.52	253.26
734.85	252.95
735.18	252.48
735.51	252.14
735.84	251.69
736.17	251.29
736.50	250.80
736.83	250.63
737.16	250.26
737.49	249.88
737.82	249.41
738.15	249.03
738.48	248.66
738.81	248.24
739.14	247.83
739.47	247.43
739.80	247.02
740.13	246.65
740.46	246.23
740.79	245.81
741.12	245.45
741.45	245.05
741.78	244.58
742.11	244.32
742.44	243.89
742.77	243.56
743.10	243.18
743.43	242.79
743.75	242.23
744.08	242.11
744.41	241.73
744.74	241.43
745.07	241.08
745.40	240.75
745.73	240.52
746.06	240.19
746.39	239.88
746.71	239.55
747.04	239.19
747.37	238.89
747.70	238.59
748.03	238.27
748.36	237.98
748.68	237.68
749.01	237.27
749.34	236.97
749.67	236.67
750.00	236.45
750.33	236.32
750.65	236.04
750.98	235.51
751.31	235.29
751.64	235.01
751.97	234.89
752.29	234.63
752.62	234.29
752.95	234.05
753.28	233.76
753.60	233.53
753.93	233.39
754.26	233.18
754.59	232.93
754.91	232.70
755.24	232.43
755.57	232.17
755.90	231.97
756.22	231.70
756.55	231.49
756.88	231.20
757.20	230.84
757.53	230.56
757.86	230.38
758.19	230.15
758.51	229.93
758.84	229.58
759.17	229.38
759.49	229.21
759.82	229.09
760.15	228.96
760.47	228.76
760.80	228.49
761.13	228.32
761.45	228.14
761.78	227.97
762.11	227.82
762.43	227.65
762.76	227.45
763.08	227.33
763.41	227.15
763.74	226.99
764.06	226.81
764.39	226.66
764.71	226.50
765.04	226.32
765.37	226.17
765.69	226.05
766.02	225.92
766.34	225.76
766.67	225.52
767.00	225.40
767.32	225.39
767.65	225.38
767.97	225.21
768.30	225.09
768.62	224.93
768.95	224.78
769.27	224.65
769.60	224.58
769.92	224.41
770.25	224.26
770.57	224.10
770.90	224.00
771.22	223.86
771.55	223.74
771.87	223.65
772.20	223.52
772.52	223.59
772.85	223.66
773.17	223.56
773.50	223.47
773.82	223.34
774.15	223.12
774.47	222.89
774.80	222.80
775.12	222.68
775.45	222.61
775.77	222.49
776.09	222.43
776.42	222.32
776.74	222.30
777.07	222.21
777.39	222.17
777.72	222.04
778.04	221.96
778.36	221.83
778.69	221.76
779.01	221.68
779.33	221.38
779.66	221.11
779.98	220.99
780.31	220.91
780.63	220.88
780.95	220.82
781.28	220.76
781.60	220.68
781.92	220.59
782.25	220.51
782.57	220.45
782.89	220.38
783.22	220.29
783.54	220.18
783.86	220.10
784.19	220.02
784.51	220.03
784.83	219.98
785.16	219.93
785.48	219.87
785.80	219.88
786.12	219.82
786.45	219.78
786.77	219.73
787.09	219.62
787.42	219.49
787.74	219.45
788.06	219.40
788.38	219.32
788.71	219.24
789.03	219.20
789.35	219.14
789.67	219.03
789.99	219.00
790.32	218.92
790.64	218.91
790.96	219.02
791.28	218.89
791.61	218.81
791.93	218.76
792.25	218.69
792.57	218.75
792.89	218.67
793.21	218.61
793.54	218.61
793.86	218.56
794.18	218.57
794.50	218.48
794.82	218.41
795.14	218.42
795.47	218.43
795.79	218.37
796.11	218.30
796.43	218.28
796.75	218.25
797.07	218.24
797.39	218.19
797.71	218.01
798.04	217.98
798.36	217.96
798.68	217.92
799.00	217.92
799.32	217.77
799.64	217.79
799.96	217.75
800.28	217.71
800.60	217.67
800.92	217.60
801.24	217.54
801.56	217.54
801.89	217.47
802.21	217.42
802.53	217.35
802.85	217.36
803.17	217.41
803.49	217.34
803.81	217.29
804.13	217.21
804.45	217.16
804.77	217.15
805.09	217.12
805.41	217.06
805.73	217.00
806.05	216.92
806.37	216.87
806.69	216.84
807.01	216.79
807.33	216.78
807.65	216.68
807.97	216.77
808.28	216.72
808.60	216.70
808.92	216.66
809.24	216.80
809.56	216.76
809.88	216.67
810.20	216.66
810.52	216.64
810.84	216.64
811.16	216.55
811.48	216.56
811.80	216.61
812.12	216.58
812.43	216.58
812.75	216.57
813.07	216.52
813.39	216.48
813.71	216.42
814.03	216.39
814.35	216.40
814.67	216.29
814.98	216.22
815.30	216.17
815.62	216.13
815.94	215.93
816.26	215.93
816.58	215.85
816.89	215.84
817.21	215.81
817.53	215.80
817.85	215.86
818.17	215.80
818.48	215.71
818.80	215.74
819.12	215.69
819.44	215.63
819.76	215.58
820.07	215.59
820.39	215.56
820.71	215.57
821.03	215.54
821.34	215.51
821.66	215.58
821.98	215.61
822.30	215.56
822.61	215.73
822.93	215.71
823.25	215.68
823.57	215.60
823.88	215.61
824.20	215.60
824.52	215.58
824.83	215.58
825.15	215.53
825.47	215.51
825.79	215.53
826.10	215.53
826.42	215.55
826.74	215.53
827.05	215.55
827.37	215.55
827.69	215.51
828.00	215.47
828.32	215.46
828.64	215.41
828.95	215.51
829.27	215.40
829.58	215.37
829.90	215.38
830.22	215.41
830.53	215.36
830.85	215.33
831.17	215.31
831.48	215.29
831.80	215.30
832.11	215.29
832.43	215.23
832.75	215.20
833.06	215.28
833.38	215.25
833.69	215.22
834.01	215.21
834.32	215.19
834.64	215.17
834.96	215.16
835.27	215.17
835.59	215.10
835.90	215.03
836.22	215.00
836.53	214.99
836.85	214.97
837.16	215.18
837.48	215.14
837.79	215.20
838.11	215.19
838.42	215.15
838.74	215.16
839.05	215.10
839.37	215.12
839.68	215.00
840.00	214.96
840.31	214.98
840.63	214.93
840.94	214.93
841.26	214.93
841.57	214.92
841.88	214.91
842.20	214.86
842.51	214.85
842.83	214.87
843.14	215.03
843.46	215.06
843.77	214.91
844.08	214.93
844.40	214.85
844.71	214.82
845.03	214.79
845.34	214.74
845.65	214.76
845.97	214.76
846.28	214.75
846.60	214.75
846.91	214.74
847.22	214.75
847.54	214.80
847.85	214.78
848.16	214.74
848.48	214.67
848.79	214.74
849.10	214.75
849.42	214.74
849.73	214.55
850.04	214.49
850.36	214.42
850.67	214.44
850.98	214.43
851.30	214.45
851.61	214.47
851.92	214.50
852.23	214.57
852.55	214.59
852.86	214.62
853.17	214.64
853.49	214.68
853.80	214.74
854.11	214.71
854.42	214.75
854.74	214.76
855.05	214.78
855.36	214.67
855.67	214.66
855.99	214.68
856.30	214.89
856.61	214.89
856.92	214.89
857.23	214.86
857.55	214.84
857.86	214.80
858.17	214.83
858.48	214.76
858.79	214.70
859.11	214.68
859.42	214.64
859.73	214.61
860.04	214.57
860.35	214.46
860.66	214.41
860.98	214.40
861.29	214.41
861.60	214.36
861.91	214.43
862.22	214.38
862.53	214.31
862.84	214.09
863.16	214.13
863.47	214.09
863.78	214.08
864.09	214.11
864.40	214.12
864.71	214.10
865.02	214.13
865.33	214.12
865.64	214.09
865.95	214.08
866.27	214.22
866.58	214.20
866.89	214.23
867.20	214.24
867.51	214.20
867.82	214.18
868.13	214.26
868.44	214.22
868.75	214.30
869.06	214.31
869.37	214.33
869.68	214.30
869.99	214.32
870.30	214.33
870.61	214.34
870.92	214.33
871.23	214.30
871.54	214.32
871.85	214.36
872.16	214.41
872.47	214.40
872.78	214.29
873.09	214.32
873.40	214.32
873.71	214.33
874.02	214.34
874.33	214.33
874.64	214.30
874.95	214.33
875.26	214.26
875.56	214.31
875.87	214.30
876.18	214.28
876.49	214.50
876.80	214.49
877.11	214.44
877.42	214.47
877.73	214.47
878.04	214.47
878.35	214.46
878.66	214.47
878.96	214.44
879.27	214.41
879.58	214.38
879.89	214.38
880.20	214.41
880.51	214.41
880.82	214.39
881.12	214.37
881.43	214.36
881.74	214.36
882.05	214.30
882.36	214.30
882.67	214.31
882.97	214.06
883.28	214.04
883.59	214.05
883.90	214.05
884.21	214.10
884.51	214.08
884.82	214.06
885.13	214.04
885.44	214.06
885.74	214.07
886.05	214.04
886.36	214.03
886.67	213.96
886.98	214.04
887.28	214.08
887.59	214.09
887.90	214.07
888.20	214.06
888.51	214.14
888.82	214.09
889.13	214.10
889.43	214.29
889.74	214.29
890.05	214.33
890.35	214.28
890.66	214.23
890.97	214.19
891.28	214.19
891.58	214.19
891.89	214.20
892.20	214.19
892.50	214.18
892.81	214.16
893.12	214.19
893.42	214.09
893.73	214.08
894.04	214.08
894.34	214.08
894.65	214.06
894.95	213.99
895.26	214.02
895.57	214.11
895.87	213.91
896.18	213.92
896.48	213.91
896.79	213.92
897.10	213.93
897.40	213.96
897.71	213.95
898.01	213.92
898.32	213.92
898.63	213.93
898.93	213.95
899.24	213.98
899.54	213.94
899.85	213.97
900.15	213.97
900.46	213.96
900.76	214.01
901.07	214.02
901.38	214.02
901.68	214.01
901.99	213.92
902.29	213.92
902.60	213.92
902.90	213.89
903.21	213.86
903.51	213.85
903.82	213.87
904.12	213.86
904.43	213.88
904.73	213.87
905.03	213.86
905.34	214.07
905.64	214.06
905.95	214.10
906.25	214.10
906.56	214.08
906.86	214.08
907.17	214.04
907.47	214.07
907.77	214.07
908.08	214.06
908.38	214.06
908.69	214.11
908.99	214.15
909.30	214.17
909.60	214.20
909.90	214.21
910.21	214.19
910.51	214.17
910.81	214.17
911.12	214.17
911.42	214.17
911.73	213.94
912.03	213.91
912.33	213.91
912.64	213.90
912.94	213.87
913.24	213.82
913.55	213.81
913.85	213.75
914.15	213.80
914.46	213.81
914.76	213.77
915.06	213.74
915.37	213.67
915.67	213.65
915.97	213.64
916.27	213.61
916.58	213.59
916.88	213.63
917.18	213.60
917.49	213.74
917.79	213.76
918.09	213.82
918.39	213.90
918.70	213.90
919.00	213.92
919.30	214.00
919.60	214.03
919.91	214.01
920.21	214.05
920.51	214.01
920.81	214.00
921.12	214.02
921.42	214.02
921.72	214.02
922.02	214.05
922.32	214.10
922.63	214.10
922.93	214.21
923.23	214.22
923.53	214.22
923.83	214.10
924.13	214.08
924.44	214.06
924.74	214.08
925.04	214.14
925.34	214.13
925.64	214.03
925.94	214.03
926.24	214.13
926.55	214.11
926.85	214.11
927.15	214.11
927.45	214.13
927.75	214.10
928.05	214.13
928.35	214.08
928.65	214.06
928.95	214.10
929.26	214.00
929.56	214.02
929.86	214.06
930.16	214.02
930.46	214.00
930.76	214.03
931.06	213.93
931.36	213.86
931.66	213.92
931.96	213.96
932.26	213.97
932.56	213.91
932.86	213.92
933.16	213.92
933.46	213.92
933.76	213.87
934.06	213.94
934.36	214.01
934.66	214.02
934.96	214.01
935.26	213.99
935.56	214.03
935.86	213.95
936.16	213.92
936.46	213.94
936.76	213.97
937.06	213.90
937.36	213.93
937.66	213.92
937.96	213.89
938.26	213.90
938.56	213.87
938.86	213.86
939.16	213.89
939.46	213.93
939.76	213.93
940.06	213.95
940.35	213.90
940.65	213.81
940.95	213.82
941.25	213.80
941.55	213.78
941.85	213.75
942.15	213.82
942.45	213.85
942.75	213.83
943.04	213.82
943.34	213.87
943.64	213.80
943.94	213.80
944.24	213.80
944.54	213.80
944.84	213.79
945.13	213.76
945.43	213.73
945.73	213.72
946.03	213.67
946.33	213.65
946.62	213.62
946.92	213.64
947.22	213.63
947.52	213.64
947.82	213.69
948.11	213.69
948.41	213.66
948.71	213.59
949.01	213.57
949.31	213.57
949.60	213.55
949.90	213.61
950.20	213.59
950.50	213.58
950.79	213.55
951.09	213.60
951.39	213.59
951.69	213.57
951.98	213.61
952.28	213.64
952.58	213.64
952.87	213.65
953.17	213.69
953.47	213.69
953.76	213.66
954.06	213.62
954.36	213.59
954.66	213.57
954.95	213.67
955.25	213.69
955.55	213.70
955.84	213.68
956.14	213.70
956.44	213.73
956.73	213.68
957.03	213.70
957.32	213.68
957.62	213.71
957.92	213.76
958.21	213.72
958.51	213.98
958.81	214.01
959.10	214.04
959.40	214.06
959.69	214.09
959.99	214.15
960.29	214.14
960.58	214.16
960.88	214.23
961.17	214.19
961.47	214.22
961.76	214.19
962.06	214.25
962.36	214.23
962.65	214.23
962.95	214.29
963.24	214.26
963.54	214.25
963.83	214.26
964.13	214.22
964.42	214.17
964.72	213.98
965.01	213.97
965.31	213.96
965.60	213.90
965.90	214.01
966.19	213.95
966.49	213.97
966.78	213.94
967.08	213.92
967.37	213.91
967.67	213.87
967.96	213.91
968.26	213.87
968.55	213.88
968.85	213.86
969.14	213.83
969.43	213.88
969.73	213.88
970.02	213.87
970.32	213.90
970.61	213.92
970.91	213.87
971.20	213.83
971.49	213.81
971.79	213.80
972.08	213.66
972.38	213.66
972.67	213.65
972.96	213.68
973.26	213.68
973.55	213.75
973.85	213.73
974.14	213.73
974.43	213.75
974.73	213.72
975.02	213.71
975.31	213.70
975.61	213.68
975.90	213.65
976.19	213.61
976.49	213.60
976.78	213.61
977.07	213.60
977.37	213.64
977.66	213.66
977.95	213.64
978.24	213.68
978.54	213.72
978.83	213.71
979.12	213.71
979.42	213.69
979.71	213.67
980.00	213.68
980.29	213.67
980.59	213.62
980.88	213.67
981.17	213.67
981.46	213.68
981.76	213.67
982.05	213.74
982.34	213.76
982.63	213.77
982.93	213.77
983.22	213.82
983.51	213.79
983.80	213.83
984.09	213.85
984.39	213.82
984.68	213.78
984.97	213.77
985.26	213.77
985.55	213.78
985.85	213.73
986.14	213.76
986.43	213.78
986.72	213.78
987.01	213.70
987.30	213.69
987.59	213.67
987.89	213.69
988.18	213.63
988.47	213.62
988.76	213.59
989.05	213.58
989.34	213.53
989.63	213.59
989.92	213.55
990.22	213.51
990.51	213.53
990.80	213.51
991.09	213.54
991.38	213.56
991.67	213.56
991.96	213.54
992.25	213.50
992.54	213.47
992.83	213.47
993.12	213.47
993.41	213.49
993.70	213.57
993.99	213.62
994.28	213.65
994.58	213.69
994.87	213.66
995.16	213.64
995.45	213.60
995.74	213.51
996.03	213.56
996.32	213.61
996.61	213.66
996.90	213.69
997.19	213.68
997.48	213.64
997.77	213.56
998.06	213.57
998.34	213.57
998.63	213.58
998.92	213.59
999.21	213.65
999.50	213.67
999.79	213.63
1000.08	213.59
1000.37	213.62
1000.66	213.58
1000.95	213.64
1001.24	213.67
1001.53	213.73
1001.82	213.75
1002.11	213.68
1002.40	213.70
1002.68	213.70
1002.97	213.82
1003.26	213.78
1003.55	213.77
1003.84	213.87
1004.13	213.95
1004.42	213.96
1004.71	213.94
1004.99	213.94
1005.28	213.96
1005.57	213.93
1005.86	213.87
1006.15	213.88
1006.44	213.83
1006.72	213.85
1007.01	213.82
1007.30	213.83
1007.59	213.79
1007.88	213.81
1008.17	213.83
1008.45	213.77
1008.74	213.68
1009.03	213.62
1009.32	213.62
1009.60	213.64
1009.89	213.56
1010.18	213.48
1010.47	213.49
1010.76	213.48
1011.04	213.46
1011.33	213.46
1011.62	213.50
1011.91	213.54
1012.19	213.55
1012.48	213.55
1012.77	213.55
1013.05	213.65
1013.34	213.64
1013.63	213.68
1013.92	213.65
1014.20	213.64
1014.49	213.69
1014.78	213.76
1015.06	213.68
1015.35	213.68
1015.64	213.72
1015.92	213.77
1016.21	213.76
1016.50	213.77
1016.78	213.80
1017.07	213.86
1017.36	213.81
1017.64	213.77
1017.93	213.77
1018.22	213.73
1018.50	213.76
1018.79	213.77
1019.08	213.67
1019.36	213.68
1019.65	213.62
1019.93	213.70
1020.22	213.76
1020.51	213.85
1020.79	213.82
1021.08	213.35
1021.36	213.80
1021.65	214.09
1021.94	213.49
1022.22	213.70
1022.51	212.89
1022.79	214.78
1023.08	214.24
1023.36	216.39
1023.65	213.42
>>>>>End Processed Spectral Data<<<<<
