SpectraSuite Data File
++++++++++++++++++++++++++++++++++++
Date: Tue Jan 29 16:31:35 EST 2013
User: group
Dark Spectrum Present: No
Reference Spectrum Present: No
Number of Sampled Component Spectra: 1
Spectrometers: USB2E7196
Integration Time (usec): 65000 (USB2E7196)
Spectra Averaged: 100 (USB2E7196)
Boxcar Smoothing: 10 (USB2E7196)
Correct for Electrical Dark: No (USB2E7196)
Strobe/Lamp Enabled: No (USB2E7196)
Correct for Detector Non-linearity: No (USB2E7196)
Correct for Stray Light: No (USB2E7196)
Number of Pixels in Processed Spectrum: 2048
>>>>>Begin Processed Spectral Data<<<<<
339.09	0.00
339.48	202.20
339.86	203.51
340.24	204.15
340.63	206.67
341.01	211.29
341.39	208.62
341.78	210.48
342.16	211.37
342.54	211.98
342.93	201.07
343.31	211.24
343.69	211.77
344.07	212.22
344.46	212.70
344.84	213.09
345.22	213.24
345.60	213.55
345.99	213.78
346.37	213.92
346.75	214.04
347.13	214.16
347.52	214.24
347.90	214.37
348.28	214.39
348.66	214.53
349.05	214.54
349.43	214.64
349.81	214.72
350.19	214.77
350.57	214.85
350.96	214.96
351.34	215.05
351.72	215.16
352.10	215.28
352.48	215.34
352.87	215.39
353.25	215.44
353.63	215.48
354.01	215.51
354.39	215.62
354.77	215.65
355.15	215.79
355.54	215.86
355.92	215.86
356.30	215.95
356.68	216.10
357.06	216.15
357.44	216.20
357.82	216.27
358.20	216.39
358.58	216.44
358.97	216.51
359.35	216.63
359.73	216.74
360.11	216.80
360.49	216.87
360.87	216.95
361.25	217.05
361.63	217.14
362.01	217.23
362.39	217.29
362.77	217.37
363.15	217.36
363.53	217.40
363.91	217.42
364.29	217.48
364.67	217.34
365.05	217.38
365.43	217.40
365.81	217.46
366.19	217.52
366.57	217.62
366.95	217.65
367.33	217.60
367.71	217.59
368.09	217.65
368.47	217.65
368.85	217.64
369.23	217.68
369.61	217.62
369.99	217.63
370.37	217.60
370.75	217.70
371.13	217.68
371.51	217.62
371.89	217.61
372.27	217.58
372.65	217.57
373.03	217.52
373.41	217.46
373.78	217.39
374.16	217.28
374.54	217.15
374.92	217.07
375.30	217.00
375.68	216.94
376.06	216.89
376.44	216.86
376.82	216.83
377.19	216.72
377.57	216.67
377.95	216.58
378.33	216.52
378.71	216.36
379.09	216.33
379.47	216.33
379.84	216.28
380.22	216.22
380.60	216.15
380.98	216.11
381.36	216.07
381.73	215.99
382.11	215.99
382.49	216.00
382.87	215.94
383.25	215.92
383.62	216.11
384.00	216.00
384.38	215.94
384.76	215.91
385.13	215.97
385.51	215.93
385.89	215.85
386.27	215.83
386.64	215.84
387.02	215.78
387.40	215.74
387.78	215.71
388.15	215.67
388.53	215.63
388.91	215.61
389.29	215.58
389.66	215.60
390.04	215.55
390.42	215.55
390.79	215.55
391.17	215.54
391.55	215.29
391.92	215.29
392.30	215.30
392.68	215.25
393.05	215.25
393.43	215.25
393.81	215.27
394.18	215.23
394.56	215.22
394.94	215.27
395.31	215.26
395.69	215.32
396.06	215.37
396.44	215.43
396.82	215.41
397.19	215.54
397.57	215.55
397.95	215.64
398.32	215.62
398.70	215.67
399.07	215.72
399.45	215.75
399.82	215.83
400.20	215.88
400.58	215.96
400.95	215.94
401.33	216.05
401.70	216.29
402.08	216.39
402.45	216.48
402.83	216.62
403.20	216.73
403.58	216.81
403.95	216.97
404.33	217.13
404.71	217.28
405.08	217.52
405.46	217.68
405.83	217.82
406.21	218.04
406.58	218.28
406.96	218.53
407.33	218.83
407.70	219.11
408.08	219.55
408.45	219.92
408.83	220.31
409.20	220.64
409.58	220.92
409.95	221.40
410.33	221.87
410.70	222.28
411.08	222.86
411.45	223.45
411.82	223.99
412.20	224.65
412.57	225.55
412.95	226.09
413.32	226.95
413.69	227.82
414.07	228.70
414.44	229.67
414.82	230.70
415.19	231.87
415.56	233.05
415.94	234.23
416.31	235.59
416.68	237.00
417.06	238.63
417.43	240.16
417.81	241.87
418.18	243.68
418.55	245.65
418.93	247.67
419.30	249.77
419.67	252.02
420.04	254.26
420.42	256.59
420.79	259.43
421.16	262.19
421.54	265.10
421.91	268.10
422.28	271.18
422.66	274.47
423.03	277.71
423.40	281.07
423.77	284.67
424.15	288.37
424.52	292.18
424.89	296.36
425.26	300.48
425.64	304.39
426.01	308.66
426.38	313.12
426.75	317.68
427.13	322.42
427.50	327.33
427.87	332.60
428.24	337.82
428.61	342.79
428.99	348.35
429.36	354.37
429.73	360.27
430.10	366.15
430.47	372.22
430.85	378.55
431.22	385.29
431.59	392.42
431.96	399.23
432.33	406.74
432.70	413.98
433.08	422.45
433.45	430.51
433.82	438.50
434.19	447.33
434.56	456.02
434.93	464.35
435.30	472.73
435.68	481.79
436.05	490.72
436.42	499.62
436.79	507.75
437.16	516.46
437.53	525.69
437.90	534.82
438.27	543.72
438.64	552.89
439.01	561.34
439.38	568.91
439.75	576.21
440.13	584.63
440.50	592.59
440.87	599.03
441.24	605.70
441.61	613.06
441.98	618.44
442.35	624.79
442.72	631.06
443.09	637.02
443.46	640.80
443.83	643.38
444.20	645.62
444.57	648.75
444.94	650.25
445.31	651.72
445.68	653.13
446.05	653.78
446.42	653.03
446.79	652.17
447.16	651.14
447.53	650.39
447.90	647.10
448.27	643.78
448.64	639.15
449.01	635.76
449.37	629.85
449.74	624.24
450.11	617.32
450.48	609.98
450.85	602.58
451.22	596.10
451.59	589.98
451.96	584.09
452.33	576.20
452.70	569.10
453.07	560.58
453.43	551.94
453.80	543.62
454.17	535.65
454.54	528.03
454.91	519.82
455.28	511.82
455.65	504.32
456.02	496.83
456.38	490.50
456.75	482.71
457.12	476.14
457.49	469.59
457.86	463.40
458.23	457.97
458.59	452.04
458.96	446.00
459.33	440.71
459.70	435.37
460.07	431.16
460.43	426.28
460.80	421.73
461.17	417.77
461.54	413.62
461.91	409.61
462.27	405.51
462.64	402.03
463.01	398.25
463.38	394.59
463.74	390.88
464.11	387.60
464.48	384.72
464.85	381.63
465.21	379.20
465.58	376.57
465.95	373.47
466.32	370.84
466.68	368.28
467.05	365.64
467.42	363.09
467.78	360.36
468.15	357.79
468.52	355.86
468.88	353.36
469.25	351.10
469.62	349.29
469.98	347.33
470.35	345.53
470.72	343.81
471.08	342.02
471.45	340.56
471.82	339.00
472.18	337.34
472.55	336.12
472.92	334.73
473.28	333.54
473.65	332.38
474.02	331.28
474.38	330.39
474.75	329.66
475.11	328.83
475.48	328.25
475.85	327.74
476.21	327.23
476.58	326.89
476.94	326.69
477.31	326.33
477.67	326.09
478.04	325.93
478.41	325.92
478.77	326.14
479.14	326.00
479.50	326.13
479.87	326.42
480.23	326.76
480.60	327.01
480.96	327.24
481.33	327.84
481.69	328.38
482.06	328.88
482.42	329.34
482.79	329.94
483.15	330.76
483.52	331.73
483.88	332.65
484.25	333.60
484.61	334.64
484.98	335.75
485.34	337.04
485.71	338.41
486.07	339.88
486.44	341.10
486.80	342.74
487.17	344.42
487.53	346.29
487.90	348.16
488.26	350.20
488.62	352.39
488.99	354.39
489.35	356.55
489.72	358.95
490.08	361.48
490.44	364.07
490.81	366.82
491.17	369.53
491.54	372.49
491.90	375.53
492.26	378.77
492.63	382.19
492.99	385.67
493.36	389.34
493.72	393.20
494.08	397.29
494.45	401.51
494.81	405.93
495.17	410.36
495.54	415.11
495.90	419.90
496.26	424.85
496.63	430.15
496.99	435.58
497.35	441.18
497.72	446.99
498.08	452.97
498.44	459.07
498.80	465.56
499.17	472.15
499.53	478.87
499.89	485.80
500.26	492.80
500.62	499.95
500.98	507.36
501.34	514.84
501.71	522.63
502.07	530.45
502.43	538.48
502.79	546.66
503.16	555.05
503.52	563.71
503.88	572.41
504.24	581.37
504.60	590.42
504.97	599.65
505.33	608.97
505.69	618.86
506.05	628.72
506.41	638.54
506.78	648.64
507.14	658.93
507.50	669.40
507.86	680.12
508.22	690.90
508.59	701.63
508.95	712.77
509.31	724.03
509.67	735.67
510.03	747.13
510.39	758.97
510.75	770.83
511.12	782.78
511.48	794.97
511.84	807.36
512.20	819.82
512.56	832.65
512.92	845.57
513.28	858.30
513.64	871.14
514.00	884.12
514.37	897.08
514.73	910.25
515.09	923.38
515.45	936.35
515.81	949.60
516.17	963.17
516.53	976.40
516.89	989.73
517.25	1002.93
517.61	1016.57
517.97	1029.98
518.33	1043.19
518.69	1056.93
519.05	1070.76
519.41	1084.44
519.77	1098.46
520.13	1111.81
520.49	1125.10
520.85	1138.59
521.21	1152.09
521.57	1165.83
521.93	1179.11
522.29	1192.91
522.65	1206.56
523.01	1220.39
523.37	1233.68
523.73	1247.10
524.09	1260.49
524.45	1274.01
524.81	1287.61
525.17	1301.19
525.53	1314.49
525.89	1328.02
526.25	1341.17
526.61	1354.08
526.97	1367.34
527.33	1380.37
527.68	1393.92
528.04	1407.48
528.40	1420.73
528.76	1434.23
529.12	1447.20
529.48	1460.65
529.84	1473.15
530.20	1486.02
530.56	1498.72
530.91	1512.08
531.27	1525.04
531.63	1537.89
531.99	1550.74
532.35	1563.05
532.71	1575.48
533.07	1588.52
533.42	1600.91
533.78	1613.16
534.14	1625.48
534.50	1636.83
534.86	1648.56
535.21	1659.63
535.57	1671.35
535.93	1682.79
536.29	1693.87
536.65	1705.60
537.00	1716.55
537.36	1728.09
537.72	1739.26
538.08	1750.86
538.44	1761.87
538.79	1772.99
539.15	1784.04
539.51	1794.92
539.87	1806.39
540.22	1817.31
540.58	1828.46
540.94	1839.46
541.29	1849.88
541.65	1859.63
542.01	1870.27
542.37	1880.50
542.72	1890.72
543.08	1900.57
543.44	1911.10
543.79	1920.59
544.15	1930.10
544.51	1940.29
544.87	1950.27
545.22	1959.49
545.58	1968.30
545.94	1977.27
546.29	1985.91
546.65	1994.39
547.01	2002.78
547.36	2010.50
547.72	2018.42
548.07	2025.86
548.43	2033.73
548.79	2041.60
549.14	2049.93
549.50	2058.59
549.86	2066.52
550.21	2073.99
550.57	2081.76
550.92	2088.57
551.28	2096.22
551.64	2103.51
551.99	2111.13
552.35	2118.23
552.70	2125.18
553.06	2132.00
553.41	2138.41
553.77	2145.01
554.13	2151.33
554.48	2158.44
554.84	2165.71
555.19	2172.22
555.55	2178.89
555.90	2185.19
556.26	2192.12
556.61	2198.25
556.97	2202.99
557.32	2208.87
557.68	2215.45
558.03	2221.22
558.39	2226.75
558.74	2232.65
559.10	2238.20
559.45	2243.83
559.81	2249.42
560.16	2255.10
560.52	2261.04
560.87	2267.27
561.23	2273.30
561.58	2280.07
561.94	2285.25
562.29	2290.11
562.64	2296.11
563.00	2301.64
563.35	2307.13
563.71	2312.96
564.06	2318.71
564.42	2324.65
564.77	2329.69
565.12	2334.93
565.48	2340.08
565.83	2345.39
566.19	2350.79
566.54	2356.21
566.89	2360.72
567.25	2365.36
567.60	2371.16
567.96	2376.28
568.31	2380.95
568.66	2385.22
569.02	2389.14
569.37	2392.65
569.72	2396.81
570.08	2400.37
570.43	2403.55
570.78	2406.60
571.14	2409.06
571.49	2412.09
571.84	2415.63
572.20	2418.54
572.55	2421.51
572.90	2423.68
573.26	2426.53
573.61	2429.17
573.96	2431.42
574.31	2433.45
574.67	2435.33
575.02	2435.92
575.37	2437.28
575.72	2438.08
576.08	2439.46
576.43	2439.51
576.78	2440.13
577.13	2441.80
577.49	2442.98
577.84	2444.07
578.19	2445.54
578.54	2446.06
578.90	2446.78
579.25	2446.59
579.60	2446.42
579.95	2445.54
580.30	2445.71
580.66	2444.93
581.01	2443.22
581.36	2440.76
581.71	2439.13
582.06	2437.88
582.42	2437.03
582.77	2434.78
583.12	2433.09
583.47	2431.63
583.82	2431.03
584.17	2429.87
584.53	2427.75
584.88	2425.76
585.23	2423.81
585.58	2421.53
585.93	2419.50
586.28	2417.27
586.63	2414.81
586.98	2412.72
587.34	2410.78
587.69	2408.18
588.04	2406.17
588.39	2404.53
588.74	2402.00
589.09	2399.39
589.44	2396.15
589.79	2393.74
590.14	2391.64
590.49	2388.65
590.84	2384.75
591.19	2381.61
591.54	2378.18
591.89	2373.99
592.25	2370.60
592.60	2366.28
592.95	2361.98
593.30	2357.65
593.65	2353.14
594.00	2348.61
594.35	2345.48
594.70	2340.68
595.05	2336.14
595.40	2330.50
595.75	2324.77
596.10	2321.08
596.45	2316.08
596.80	2311.42
597.15	2306.00
597.50	2300.10
597.85	2295.24
598.19	2289.98
598.54	2284.16
598.89	2278.97
599.24	2274.32
599.59	2267.89
599.94	2261.91
600.29	2255.86
600.64	2249.99
600.99	2243.21
601.34	2237.65
601.69	2230.63
602.04	2224.21
602.39	2217.54
602.74	2211.50
603.08	2205.84
603.43	2199.28
603.78	2192.30
604.13	2185.33
604.48	2178.03
604.83	2171.84
605.18	2165.43
605.53	2158.35
605.87	2151.20
606.22	2144.27
606.57	2136.39
606.92	2128.56
607.27	2121.71
607.62	2115.11
607.96	2108.06
608.31	2101.54
608.66	2093.76
609.01	2085.98
609.36	2078.80
609.70	2071.07
610.05	2063.26
610.40	2054.96
610.75	2046.46
611.10	2038.90
611.44	2029.87
611.79	2021.13
612.14	2011.09
612.49	2000.27
612.83	1990.94
613.18	1981.68
613.53	1972.28
613.88	1962.62
614.22	1953.97
614.57	1944.08
614.92	1933.38
615.27	1923.15
615.61	1912.96
615.96	1903.24
616.31	1893.54
616.65	1884.09
617.00	1874.30
617.35	1864.59
617.70	1854.94
618.04	1844.99
618.39	1834.78
618.74	1825.07
619.08	1815.36
619.43	1806.71
619.78	1798.64
620.12	1789.97
620.47	1780.24
620.82	1769.88
621.16	1759.99
621.51	1749.92
621.85	1739.98
622.20	1729.60
622.55	1718.91
622.89	1708.98
623.24	1699.16
623.59	1689.38
623.93	1679.17
624.28	1669.29
624.62	1659.18
624.97	1648.75
625.32	1638.83
625.66	1630.02
626.01	1621.28
626.35	1611.87
626.70	1601.68
627.04	1591.55
627.39	1581.39
627.73	1572.08
628.08	1563.20
628.43	1553.65
628.77	1544.49
629.12	1535.56
629.46	1527.67
629.81	1519.38
630.15	1509.80
630.50	1500.08
630.84	1489.66
631.19	1479.75
631.53	1470.41
631.88	1460.25
632.22	1450.15
632.57	1440.84
632.91	1430.55
633.26	1420.63
633.60	1410.98
633.95	1401.68
634.29	1392.16
634.64	1382.91
634.98	1373.02
635.32	1363.66
635.67	1355.07
636.01	1345.74
636.36	1335.97
636.70	1326.40
637.05	1316.89
637.39	1308.01
637.73	1299.29
638.08	1291.60
638.42	1283.40
638.77	1274.61
639.11	1266.16
639.45	1258.31
639.80	1249.70
640.14	1240.93
640.49	1231.96
640.83	1223.14
641.17	1214.95
641.52	1206.78
641.86	1198.14
642.20	1190.20
642.55	1181.46
642.89	1172.56
643.23	1163.86
643.58	1155.58
643.92	1146.45
644.26	1137.67
644.61	1129.09
644.95	1120.37
645.29	1111.07
645.64	1101.87
645.98	1093.27
646.32	1085.38
646.66	1076.87
647.01	1068.51
647.35	1060.29
647.69	1052.03
648.04	1043.67
648.38	1034.74
648.72	1025.89
649.06	1017.29
649.41	1009.01
649.75	1001.07
650.09	993.16
650.43	985.06
650.78	976.81
651.12	969.10
651.46	961.67
651.80	954.43
652.14	946.99
652.49	939.36
652.83	931.93
653.17	924.17
653.51	916.47
653.85	909.14
654.20	901.77
654.54	894.25
654.88	886.85
655.22	879.54
655.56	872.48
655.90	865.57
656.25	858.89
656.59	851.88
656.93	844.75
657.27	837.62
657.61	830.57
657.95	824.42
658.29	818.45
658.64	812.33
658.98	805.79
659.32	799.14
659.66	792.94
660.00	786.55
660.34	780.47
660.68	774.27
661.02	767.86
661.36	761.88
661.70	755.98
662.05	750.31
662.39	744.79
662.73	739.33
663.07	733.98
663.41	728.32
663.75	722.57
664.09	716.82
664.43	711.28
664.77	705.85
665.11	699.96
665.45	693.92
665.79	687.96
666.13	682.25
666.47	676.71
666.81	671.19
667.15	665.71
667.49	660.49
667.83	655.24
668.17	649.95
668.51	644.76
668.85	639.85
669.19	634.93
669.53	629.86
669.87	624.67
670.21	619.78
670.55	615.02
670.89	610.56
671.23	606.22
671.57	601.84
671.91	597.59
672.25	593.37
672.58	589.25
672.92	585.22
673.26	581.17
673.60	577.21
673.94	573.34
674.28	569.77
674.62	565.93
674.96	562.15
675.30	558.66
675.64	554.93
675.97	551.28
676.31	547.63
676.65	544.03
676.99	540.56
677.33	536.69
677.67	532.98
678.01	529.06
678.34	525.34
678.68	521.77
679.02	518.07
679.36	514.35
679.70	510.66
680.04	507.09
680.37	503.56
680.71	500.24
681.05	497.03
681.39	493.65
681.73	490.47
682.06	487.43
682.40	484.25
682.74	481.01
683.08	477.80
683.42	474.48
683.75	471.44
684.09	468.39
684.43	465.53
684.77	462.62
685.10	459.79
685.44	456.84
685.78	453.84
686.12	451.02
686.45	448.31
686.79	445.58
687.13	442.96
687.46	440.34
687.80	437.63
688.14	434.73
688.48	432.09
688.81	429.36
689.15	426.71
689.49	424.04
689.82	421.45
690.16	418.78
690.50	416.37
690.83	413.85
691.17	411.24
691.51	408.69
691.84	406.34
692.18	404.05
692.52	401.83
692.85	399.66
693.19	397.50
693.52	395.24
693.86	393.03
694.20	390.80
694.53	388.59
694.87	386.35
695.21	384.22
695.54	382.00
695.88	379.78
696.21	377.54
696.55	375.41
696.88	373.36
697.22	371.34
697.56	369.39
697.89	367.43
698.23	365.64
698.56	363.88
698.90	362.06
699.23	360.13
699.57	358.20
699.90	356.29
700.24	354.46
700.58	352.64
700.91	350.92
701.25	349.35
701.58	347.78
701.92	346.18
702.25	344.54
702.59	342.90
702.92	341.36
703.26	339.79
703.59	338.26
703.93	336.96
704.26	335.53
704.60	334.02
704.93	332.56
705.26	331.06
705.60	329.54
705.93	328.04
706.27	326.76
706.60	325.49
706.94	324.23
707.27	322.79
707.61	321.47
707.94	320.11
708.27	318.58
708.61	317.08
708.94	315.70
709.28	314.38
709.61	313.14
709.94	311.88
710.28	310.67
710.61	309.49
710.95	308.03
711.28	306.91
711.61	305.66
711.95	304.51
712.28	303.33
712.61	302.14
712.95	301.06
713.28	299.94
713.61	298.78
713.95	297.61
714.28	296.58
714.61	295.51
714.95	294.44
715.28	293.43
715.61	292.41
715.95	291.41
716.28	290.43
716.61	289.46
716.95	288.47
717.28	287.46
717.61	286.49
717.94	285.61
718.28	284.58
718.61	283.70
718.94	282.74
719.27	281.87
719.61	281.05
719.94	280.15
720.27	279.16
720.60	278.28
720.94	277.48
721.27	276.68
721.60	276.01
721.93	275.29
722.27	274.62
722.60	273.91
722.93	273.21
723.26	272.52
723.59	271.82
723.93	271.20
724.26	270.56
724.59	269.90
724.92	269.29
725.25	268.75
725.59	268.17
725.92	267.67
726.25	267.06
726.58	266.46
726.91	265.86
727.24	265.33
727.57	264.80
727.91	264.18
728.24	263.61
728.57	263.01
728.90	262.43
729.23	261.78
729.56	261.36
729.89	260.80
730.22	260.24
730.55	259.69
730.89	259.12
731.22	258.55
731.55	258.03
731.88	257.46
732.21	256.89
732.54	256.34
732.87	255.82
733.20	255.31
733.53	254.83
733.86	254.40
734.19	253.90
734.52	253.43
734.85	253.14
735.18	252.69
735.51	252.30
735.84	251.93
736.17	251.56
736.50	250.98
736.83	250.83
737.16	250.43
737.49	250.00
737.82	249.59
738.15	249.22
738.48	248.83
738.81	248.46
739.14	248.03
739.47	247.64
739.80	247.20
740.13	246.86
740.46	246.47
740.79	246.04
741.12	245.67
741.45	245.34
741.78	244.86
742.11	244.57
742.44	244.18
742.77	243.85
743.10	243.52
743.43	243.17
743.75	242.58
744.08	242.51
744.41	242.14
744.74	241.78
745.07	241.38
745.40	241.10
745.73	240.83
746.06	240.50
746.39	240.21
746.71	239.90
747.04	239.51
747.37	239.17
747.70	238.91
748.03	238.59
748.36	238.30
748.68	238.01
749.01	237.64
749.34	237.33
749.67	237.03
750.00	236.74
750.33	236.60
750.65	236.36
750.98	235.84
751.31	235.63
751.64	235.41
751.97	235.31
752.29	235.03
752.62	234.68
752.95	234.46
753.28	234.19
753.60	233.94
753.93	233.79
754.26	233.54
754.59	233.22
754.91	232.98
755.24	232.75
755.57	232.49
755.90	232.28
756.22	232.01
756.55	231.75
756.88	231.49
757.20	231.14
757.53	230.90
757.86	230.64
758.19	230.46
758.51	230.28
758.84	229.97
759.17	229.76
759.49	229.60
759.82	229.48
760.15	229.32
760.47	229.14
760.80	228.92
761.13	228.81
761.45	228.65
761.78	228.47
762.11	228.25
762.43	228.06
762.76	227.90
763.08	227.75
763.41	227.60
763.74	227.46
764.06	227.30
764.39	227.09
764.71	226.93
765.04	226.74
765.37	226.55
765.69	226.40
766.02	226.22
766.34	226.06
766.67	225.86
767.00	225.74
767.32	225.74
767.65	225.73
767.97	225.51
768.30	225.39
768.62	225.29
768.95	225.17
769.27	225.07
769.60	224.98
769.92	224.83
770.25	224.65
770.57	224.47
770.90	224.37
771.22	224.27
771.55	224.18
771.87	224.07
772.20	223.94
772.52	224.00
772.85	224.17
773.17	224.06
773.50	223.96
773.82	223.81
774.15	223.59
774.47	223.35
774.80	223.31
775.12	223.22
775.45	223.12
775.77	222.99
776.09	222.92
776.42	222.80
776.74	222.80
777.07	222.74
777.39	222.65
777.72	222.55
778.04	222.52
778.36	222.43
778.69	222.36
779.01	222.27
779.33	222.01
779.66	221.68
779.98	221.58
780.31	221.48
780.63	221.51
780.95	221.47
781.28	221.41
781.60	221.29
781.92	221.21
782.25	221.14
782.57	221.07
782.89	220.96
783.22	220.88
783.54	220.73
783.86	220.68
784.19	220.66
784.51	220.66
784.83	220.58
785.16	220.50
785.48	220.45
785.80	220.41
786.12	220.39
786.45	220.30
786.77	220.27
787.09	220.22
787.42	220.05
787.74	219.98
788.06	219.92
788.38	219.85
788.71	219.78
789.03	219.72
789.35	219.67
789.67	219.61
789.99	219.56
790.32	219.49
790.64	219.45
790.96	219.54
791.28	219.42
791.61	219.32
791.93	219.28
792.25	219.21
792.57	219.31
792.89	219.21
793.21	219.20
793.54	219.14
793.86	219.05
794.18	219.05
794.50	218.99
794.82	218.95
795.14	218.95
795.47	218.95
795.79	218.91
796.11	218.85
796.43	218.82
796.75	218.80
797.07	218.79
797.39	218.73
797.71	218.52
798.04	218.50
798.36	218.49
798.68	218.46
799.00	218.44
799.32	218.29
799.64	218.31
799.96	218.26
800.28	218.28
800.60	218.28
800.92	218.23
801.24	218.18
801.56	218.16
801.89	218.13
802.21	218.12
802.53	218.06
802.85	218.09
803.17	218.20
803.49	218.10
803.81	218.09
804.13	218.02
804.45	217.96
804.77	217.97
805.09	217.96
805.41	217.93
805.73	217.87
806.05	217.79
806.37	217.73
806.69	217.71
807.01	217.63
807.33	217.60
807.65	217.51
807.97	217.61
808.28	217.53
808.60	217.46
808.92	217.40
809.24	217.48
809.56	217.40
809.88	217.27
810.20	217.26
810.52	217.26
810.84	217.21
811.16	217.18
811.48	217.11
811.80	217.13
812.12	217.10
812.43	217.09
812.75	217.05
813.07	217.02
813.39	216.98
813.71	216.94
814.03	216.90
814.35	216.86
814.67	216.73
814.98	216.72
815.30	216.72
815.62	216.65
815.94	216.49
816.26	216.46
816.58	216.43
816.89	216.45
817.21	216.36
817.53	216.36
817.85	216.36
818.17	216.32
818.48	216.23
818.80	216.22
819.12	216.19
819.44	216.17
819.76	216.11
820.07	216.10
820.39	216.05
820.71	216.07
821.03	216.08
821.34	216.02
821.66	216.03
821.98	216.02
822.30	216.01
822.61	216.15
822.93	216.13
823.25	216.11
823.57	216.08
823.88	216.10
824.20	216.10
824.52	216.14
824.83	216.15
825.15	216.13
825.47	216.09
825.79	216.09
826.10	216.06
826.42	216.06
826.74	216.06
827.05	216.08
827.37	216.04
827.69	216.00
828.00	216.03
828.32	215.97
828.64	215.94
828.95	216.04
829.27	215.96
829.58	215.94
829.90	215.93
830.22	215.91
830.53	215.88
830.85	215.84
831.17	215.77
831.48	215.72
831.80	215.70
832.11	215.70
832.43	215.66
832.75	215.69
833.06	215.80
833.38	215.73
833.69	215.70
834.01	215.73
834.32	215.72
834.64	215.71
834.96	215.72
835.27	215.69
835.59	215.60
835.90	215.56
836.22	215.57
836.53	215.55
836.85	215.53
837.16	215.72
837.48	215.71
837.79	215.78
838.11	215.80
838.42	215.80
838.74	215.84
839.05	215.83
839.37	215.79
839.68	215.65
840.00	215.64
840.31	215.66
840.63	215.61
840.94	215.61
841.26	215.57
841.57	215.55
841.88	215.57
842.20	215.53
842.51	215.52
842.83	215.48
843.14	215.63
843.46	215.62
843.77	215.46
844.08	215.47
844.40	215.38
844.71	215.34
845.03	215.28
845.34	215.24
845.65	215.21
845.97	215.22
846.28	215.23
846.60	215.27
846.91	215.23
847.22	215.21
847.54	215.22
847.85	215.26
848.16	215.22
848.48	215.15
848.79	215.24
849.10	215.23
849.42	215.24
849.73	215.05
850.04	215.05
850.36	214.99
850.67	214.99
850.98	215.03
851.30	215.07
851.61	215.12
851.92	215.13
852.23	215.21
852.55	215.19
852.86	215.21
853.17	215.18
853.49	215.24
853.80	215.28
854.11	215.29
854.42	215.30
854.74	215.29
855.05	215.32
855.36	215.23
855.67	215.24
855.99	215.26
856.30	215.52
856.61	215.53
856.92	215.52
857.23	215.53
857.55	215.46
857.86	215.43
858.17	215.41
858.48	215.35
858.79	215.29
859.11	215.31
859.42	215.29
859.73	215.29
860.04	215.26
860.35	215.20
860.66	215.14
860.98	215.08
861.29	215.08
861.60	215.07
861.91	215.07
862.22	215.07
862.53	215.03
862.84	214.77
863.16	214.80
863.47	214.75
863.78	214.72
864.09	214.77
864.40	214.77
864.71	214.77
865.02	214.81
865.33	214.80
865.64	214.75
865.95	214.75
866.27	214.88
866.58	214.86
866.89	214.89
867.20	214.89
867.51	214.87
867.82	214.89
868.13	214.94
868.44	214.92
868.75	214.94
869.06	214.93
869.37	214.94
869.68	214.86
869.99	214.92
870.30	214.94
870.61	214.94
870.92	214.92
871.23	214.91
871.54	214.93
871.85	214.98
872.16	214.98
872.47	214.95
872.78	214.84
873.09	214.83
873.40	214.82
873.71	214.84
874.02	214.85
874.33	214.87
874.64	214.81
874.95	214.84
875.26	214.80
875.56	214.80
875.87	214.79
876.18	214.80
876.49	215.00
876.80	214.98
877.11	214.90
877.42	214.93
877.73	214.95
878.04	214.91
878.35	214.87
878.66	214.87
878.96	214.87
879.27	214.86
879.58	214.86
879.89	214.84
880.20	214.90
880.51	214.89
880.82	214.84
881.12	214.88
881.43	214.84
881.74	214.82
882.05	214.83
882.36	214.83
882.67	214.84
882.97	214.58
883.28	214.58
883.59	214.62
883.90	214.59
884.21	214.59
884.51	214.60
884.82	214.58
885.13	214.59
885.44	214.59
885.74	214.55
886.05	214.56
886.36	214.56
886.67	214.48
886.98	214.59
887.28	214.65
887.59	214.62
887.90	214.63
888.20	214.63
888.51	214.65
888.82	214.62
889.13	214.65
889.43	214.86
889.74	214.82
890.05	214.81
890.35	214.83
890.66	214.79
890.97	214.73
891.28	214.70
891.58	214.72
891.89	214.70
892.20	214.71
892.50	214.66
892.81	214.65
893.12	214.66
893.42	214.54
893.73	214.50
894.04	214.52
894.34	214.52
894.65	214.50
894.95	214.49
895.26	214.47
895.57	214.57
895.87	214.37
896.18	214.41
896.48	214.44
896.79	214.43
897.10	214.48
897.40	214.48
897.71	214.54
898.01	214.52
898.32	214.56
898.63	214.57
898.93	214.61
899.24	214.63
899.54	214.61
899.85	214.63
900.15	214.64
900.46	214.63
900.76	214.67
901.07	214.67
901.38	214.68
901.68	214.74
901.99	214.63
902.29	214.63
902.60	214.61
902.90	214.59
903.21	214.58
903.51	214.56
903.82	214.64
904.12	214.61
904.43	214.64
904.73	214.59
905.03	214.59
905.34	214.78
905.64	214.78
905.95	214.79
906.25	214.76
906.56	214.76
906.86	214.76
907.17	214.71
907.47	214.74
907.77	214.69
908.08	214.63
908.38	214.63
908.69	214.66
908.99	214.70
909.30	214.70
909.60	214.72
909.90	214.74
910.21	214.67
910.51	214.65
910.81	214.65
911.12	214.71
911.42	214.72
911.73	214.49
912.03	214.50
912.33	214.55
912.64	214.55
912.94	214.51
913.24	214.46
913.55	214.48
913.85	214.43
914.15	214.50
914.46	214.52
914.76	214.50
915.06	214.46
915.37	214.43
915.67	214.39
915.97	214.38
916.27	214.34
916.58	214.36
916.88	214.34
917.18	214.30
917.49	214.41
917.79	214.43
918.09	214.45
918.39	214.45
918.70	214.40
919.00	214.36
919.30	214.47
919.60	214.47
919.91	214.45
920.21	214.50
920.51	214.41
920.81	214.40
921.12	214.46
921.42	214.47
921.72	214.47
922.02	214.50
922.32	214.50
922.63	214.49
922.93	214.60
923.23	214.63
923.53	214.63
923.83	214.47
924.13	214.44
924.44	214.44
924.74	214.49
925.04	214.53
925.34	214.55
925.64	214.44
925.94	214.48
926.24	214.59
926.55	214.55
926.85	214.59
927.15	214.62
927.45	214.60
927.75	214.59
928.05	214.61
928.35	214.60
928.65	214.64
928.95	214.66
929.26	214.58
929.56	214.61
929.86	214.64
930.16	214.62
930.46	214.59
930.76	214.59
931.06	214.49
931.36	214.48
931.66	214.52
931.96	214.57
932.26	214.54
932.56	214.43
932.86	214.42
933.16	214.43
933.46	214.36
933.76	214.32
934.06	214.39
934.36	214.46
934.66	214.47
934.96	214.45
935.26	214.45
935.56	214.45
935.86	214.41
936.16	214.35
936.46	214.32
936.76	214.32
937.06	214.29
937.36	214.34
937.66	214.32
937.96	214.31
938.26	214.25
938.56	214.25
938.86	214.25
939.16	214.28
939.46	214.27
939.76	214.30
940.06	214.29
940.35	214.22
940.65	214.08
940.95	214.09
941.25	214.05
941.55	214.04
941.85	214.06
942.15	214.07
942.45	214.15
942.75	214.16
943.04	214.17
943.34	214.22
943.64	214.20
943.94	214.18
944.24	214.18
944.54	214.20
944.84	214.21
945.13	214.21
945.43	214.20
945.73	214.19
946.03	214.17
946.33	214.14
946.62	214.11
946.92	214.12
947.22	214.14
947.52	214.18
947.82	214.17
948.11	214.13
948.41	214.09
948.71	214.01
949.01	214.05
949.31	214.05
949.60	214.01
949.90	214.04
950.20	214.03
950.50	214.05
950.79	214.02
951.09	214.04
951.39	214.05
951.69	214.03
951.98	214.08
952.28	214.12
952.58	214.11
952.87	214.13
953.17	214.19
953.47	214.14
953.76	214.11
954.06	214.11
954.36	214.06
954.66	214.06
954.95	214.11
955.25	214.13
955.55	214.14
955.84	214.12
956.14	214.11
956.44	214.14
956.73	214.08
957.03	214.10
957.32	214.11
957.62	214.11
957.92	214.13
958.21	214.11
958.51	214.35
958.81	214.39
959.10	214.39
959.40	214.41
959.69	214.46
959.99	214.49
960.29	214.49
960.58	214.53
960.88	214.60
961.17	214.60
961.47	214.59
961.76	214.54
962.06	214.58
962.36	214.53
962.65	214.55
962.95	214.54
963.24	214.54
963.54	214.55
963.83	214.56
964.13	214.57
964.42	214.53
964.72	214.34
965.01	214.36
965.31	214.38
965.60	214.32
965.90	214.44
966.19	214.39
966.49	214.38
966.78	214.37
967.08	214.37
967.37	214.40
967.67	214.35
967.96	214.39
968.26	214.38
968.55	214.46
968.85	214.44
969.14	214.47
969.43	214.45
969.73	214.39
970.02	214.36
970.32	214.34
970.61	214.33
970.91	214.28
971.20	214.23
971.49	214.21
971.79	214.24
972.08	214.09
972.38	214.13
972.67	214.15
972.96	214.15
973.26	214.12
973.55	214.15
973.85	214.13
974.14	214.14
974.43	214.14
974.73	214.10
975.02	214.08
975.31	214.05
975.61	214.05
975.90	214.05
976.19	214.03
976.49	214.05
976.78	214.06
977.07	214.03
977.37	214.05
977.66	214.05
977.95	214.02
978.24	214.04
978.54	214.09
978.83	214.06
979.12	214.05
979.42	214.01
979.71	214.00
980.00	214.06
980.29	214.04
980.59	214.03
980.88	214.08
981.17	214.10
981.46	214.11
981.76	214.16
982.05	214.24
982.34	214.28
982.63	214.28
982.93	214.28
983.22	214.33
983.51	214.32
983.80	214.35
984.09	214.41
984.39	214.40
984.68	214.38
984.97	214.39
985.26	214.40
985.55	214.44
985.85	214.38
986.14	214.41
986.43	214.44
986.72	214.43
987.01	214.37
987.30	214.35
987.59	214.35
987.89	214.32
988.18	214.29
988.47	214.27
988.76	214.23
989.05	214.25
989.34	214.27
989.63	214.34
989.92	214.34
990.22	214.28
990.51	214.28
990.80	214.23
991.09	214.27
991.38	214.30
991.67	214.30
991.96	214.27
992.25	214.26
992.54	214.22
992.83	214.23
993.12	214.23
993.41	214.27
993.70	214.35
993.99	214.39
994.28	214.41
994.58	214.41
994.87	214.43
995.16	214.38
995.45	214.34
995.74	214.25
996.03	214.24
996.32	214.28
996.61	214.30
996.90	214.29
997.19	214.23
997.48	214.25
997.77	214.21
998.06	214.22
998.34	214.18
998.63	214.17
998.92	214.15
999.21	214.14
999.50	214.11
999.79	214.05
1000.08	214.03
1000.37	214.02
1000.66	214.01
1000.95	214.03
1001.24	214.06
1001.53	214.13
1001.82	214.14
1002.11	214.11
1002.40	214.17
1002.68	214.20
1002.97	214.35
1003.26	214.34
1003.55	214.28
1003.84	214.32
1004.13	214.39
1004.42	214.40
1004.71	214.41
1004.99	214.43
1005.28	214.53
1005.57	214.52
1005.86	214.48
1006.15	214.48
1006.44	214.46
1006.72	214.48
1007.01	214.45
1007.30	214.42
1007.59	214.37
1007.88	214.36
1008.17	214.35
1008.45	214.28
1008.74	214.20
1009.03	214.13
1009.32	214.13
1009.60	214.16
1009.89	214.14
1010.18	214.05
1010.47	214.01
1010.76	214.01
1011.04	214.00
1011.33	213.99
1011.62	213.99
1011.91	214.02
1012.19	214.01
1012.48	214.00
1012.77	214.00
1013.05	214.14
1013.34	214.16
1013.63	214.13
1013.92	214.16
1014.20	214.15
1014.49	214.16
1014.78	214.17
1015.06	214.09
1015.35	214.10
1015.64	214.09
1015.92	214.10
1016.21	214.12
1016.50	214.14
1016.78	214.16
1017.07	214.19
1017.36	214.12
1017.64	214.12
1017.93	214.11
1018.22	214.12
1018.50	214.12
1018.79	214.14
1019.08	214.00
1019.36	214.01
1019.65	214.00
1019.93	214.03
1020.22	214.09
1020.51	214.20
1020.79	214.17
1021.08	214.12
1021.36	213.75
1021.65	214.67
1021.94	213.99
1022.22	214.09
1022.51	213.36
1022.79	214.92
1023.08	214.85
1023.36	216.70
1023.65	213.37
>>>>>End Processed Spectral Data<<<<<
