SpectraSuite Data File
++++++++++++++++++++++++++++++++++++
Date: Tue Jan 29 16:36:56 EST 2013
User: group
Dark Spectrum Present: No
Reference Spectrum Present: No
Number of Sampled Component Spectra: 1
Spectrometers: USB2E7196
Integration Time (usec): 65000 (USB2E7196)
Spectra Averaged: 100 (USB2E7196)
Boxcar Smoothing: 10 (USB2E7196)
Correct for Electrical Dark: No (USB2E7196)
Strobe/Lamp Enabled: No (USB2E7196)
Correct for Detector Non-linearity: No (USB2E7196)
Correct for Stray Light: No (USB2E7196)
Number of Pixels in Processed Spectrum: 2048
>>>>>Begin Processed Spectral Data<<<<<
339.09	0.00
339.48	201.66
339.86	202.92
340.24	204.12
340.63	206.40
341.01	210.08
341.39	208.84
341.78	210.31
342.16	211.71
342.54	211.48
342.93	200.94
343.31	211.06
343.69	211.61
344.07	212.08
344.46	212.55
344.84	212.92
345.22	213.09
345.60	213.38
345.99	213.60
346.37	213.75
346.75	213.87
347.13	213.99
347.52	214.09
347.90	214.19
348.28	214.23
348.66	214.33
349.05	214.30
349.43	214.35
349.81	214.42
350.19	214.48
350.57	214.56
350.96	214.66
351.34	214.80
351.72	214.92
352.10	215.03
352.48	215.09
352.87	215.17
353.25	215.24
353.63	215.28
354.01	215.31
354.39	215.39
354.77	215.48
355.15	215.59
355.54	215.65
355.92	215.63
356.30	215.71
356.68	215.95
357.06	216.06
357.44	216.09
357.82	216.17
358.20	216.27
358.58	216.34
358.97	216.41
359.35	216.51
359.73	216.61
360.11	216.67
360.49	216.73
360.87	216.80
361.25	216.91
361.63	217.04
362.01	217.14
362.39	217.17
362.77	217.22
363.15	217.22
363.53	217.24
363.91	217.31
364.29	217.31
364.67	217.08
365.05	217.10
365.43	217.16
365.81	217.16
366.19	217.24
366.57	217.30
366.95	217.28
367.33	217.26
367.71	217.24
368.09	217.29
368.47	217.27
368.85	217.25
369.23	217.27
369.61	217.20
369.99	217.18
370.37	217.20
370.75	217.26
371.13	217.18
371.51	217.14
371.89	217.14
372.27	217.12
372.65	217.15
373.03	217.12
373.41	217.05
373.78	217.03
374.16	216.92
374.54	216.86
374.92	216.79
375.30	216.74
375.68	216.65
376.06	216.61
376.44	216.59
376.82	216.57
377.19	216.48
377.57	216.39
377.95	216.31
378.33	216.23
378.71	216.05
379.09	216.09
379.47	216.06
379.84	216.01
380.22	215.95
380.60	215.88
380.98	215.84
381.36	215.81
381.73	215.72
382.11	215.69
382.49	215.64
382.87	215.59
383.25	215.54
383.62	215.75
384.00	215.71
384.38	215.66
384.76	215.68
385.13	215.76
385.51	215.74
385.89	215.68
386.27	215.65
386.64	215.69
387.02	215.63
387.40	215.63
387.78	215.61
388.15	215.62
388.53	215.57
388.91	215.56
389.29	215.53
389.66	215.59
390.04	215.53
390.42	215.55
390.79	215.58
391.17	215.58
391.55	215.32
391.92	215.30
392.30	215.34
392.68	215.26
393.05	215.23
393.43	215.23
393.81	215.26
394.18	215.24
394.56	215.24
394.94	215.27
395.31	215.26
395.69	215.31
396.06	215.33
396.44	215.39
396.82	215.39
397.19	215.51
397.57	215.47
397.95	215.56
398.32	215.49
398.70	215.53
399.07	215.61
399.45	215.65
399.82	215.68
400.20	215.67
400.58	215.74
400.95	215.71
401.33	215.81
401.70	216.02
402.08	216.11
402.45	216.20
402.83	216.33
403.20	216.44
403.58	216.53
403.95	216.69
404.33	216.83
404.71	216.99
405.08	217.23
405.46	217.42
405.83	217.60
406.21	217.82
406.58	218.07
406.96	218.29
407.33	218.53
407.70	218.85
408.08	219.34
408.45	219.70
408.83	220.13
409.20	220.45
409.58	220.73
409.95	221.18
410.33	221.65
410.70	222.12
411.08	222.68
411.45	223.26
411.82	223.78
412.20	224.51
412.57	225.31
412.95	225.87
413.32	226.68
413.69	227.52
414.07	228.45
414.44	229.41
414.82	230.41
415.19	231.67
415.56	232.83
415.94	234.05
416.31	235.45
416.68	236.82
417.06	238.43
417.43	239.99
417.81	241.74
418.18	243.52
418.55	245.48
418.93	247.47
419.30	249.61
419.67	251.86
420.04	254.11
420.42	256.54
420.79	259.37
421.16	262.16
421.54	265.04
421.91	268.03
422.28	271.16
422.66	274.48
423.03	277.68
423.40	281.04
423.77	284.58
424.15	288.23
424.52	292.07
424.89	296.26
425.26	300.36
425.64	304.24
426.01	308.56
426.38	313.04
426.75	317.60
427.13	322.32
427.50	327.32
427.87	332.58
428.24	337.77
428.61	342.78
428.99	348.33
429.36	354.32
429.73	360.18
430.10	366.07
430.47	372.14
430.85	378.48
431.22	385.26
431.59	392.38
431.96	399.22
432.33	406.75
432.70	414.00
433.08	422.51
433.45	430.65
433.82	438.73
434.19	447.59
434.56	456.30
434.93	464.68
435.30	472.99
435.68	482.08
436.05	491.12
436.42	500.04
436.79	508.19
437.16	517.03
437.53	526.37
437.90	535.49
438.27	544.51
438.64	553.76
439.01	562.26
439.38	569.88
439.75	577.24
440.13	585.70
440.50	593.72
440.87	600.15
441.24	606.77
441.61	614.07
441.98	619.54
442.35	625.94
442.72	632.24
443.09	638.31
443.46	642.07
443.83	644.61
444.20	646.84
444.57	650.03
444.94	651.50
445.31	652.97
445.68	654.38
446.05	654.93
446.42	654.18
446.79	653.28
447.16	652.27
447.53	651.49
447.90	648.13
448.27	644.76
448.64	640.17
449.01	636.84
449.37	630.94
449.74	625.18
450.11	618.23
450.48	610.84
450.85	603.34
451.22	596.89
451.59	590.72
451.96	584.85
452.33	576.94
452.70	569.82
453.07	561.27
453.43	552.67
453.80	544.38
454.17	536.34
454.54	528.73
454.91	520.49
455.28	512.54
455.65	505.10
456.02	497.63
456.38	491.28
456.75	483.36
457.12	476.79
457.49	470.26
457.86	464.04
458.23	458.64
458.59	452.70
458.96	446.63
459.33	441.29
459.70	435.86
460.07	431.62
460.43	426.73
460.80	422.17
461.17	418.16
461.54	413.97
461.91	409.91
462.27	405.74
462.64	402.31
463.01	398.43
463.38	394.73
463.74	391.00
464.11	387.71
464.48	384.89
464.85	381.77
465.21	379.30
465.58	376.67
465.95	373.51
466.32	370.89
466.68	368.35
467.05	365.71
467.42	363.21
467.78	360.50
468.15	357.93
468.52	356.02
468.88	353.48
469.25	351.24
469.62	349.44
469.98	347.52
470.35	345.71
470.72	344.06
471.08	342.24
471.45	340.76
471.82	339.21
472.18	337.55
472.55	336.37
472.92	334.98
473.28	333.76
473.65	332.62
474.02	331.46
474.38	330.49
474.75	329.76
475.11	328.94
475.48	328.40
475.85	327.89
476.21	327.39
476.58	327.05
476.94	326.88
477.31	326.56
477.67	326.30
478.04	326.11
478.41	326.02
478.77	326.22
479.14	326.16
479.50	326.30
479.87	326.58
480.23	326.82
480.60	327.09
480.96	327.40
481.33	327.99
481.69	328.60
482.06	329.16
482.42	329.64
482.79	330.22
483.15	330.90
483.52	331.87
483.88	332.76
484.25	333.73
484.61	334.70
484.98	335.74
485.34	337.07
485.71	338.42
486.07	339.87
486.44	341.22
486.80	342.81
487.17	344.49
487.53	346.31
487.90	348.22
488.26	350.24
488.62	352.39
488.99	354.44
489.35	356.60
489.72	358.93
490.08	361.40
490.44	363.99
490.81	366.79
491.17	369.47
491.54	372.48
491.90	375.48
492.26	378.72
492.63	382.12
492.99	385.65
493.36	389.34
493.72	393.23
494.08	397.20
494.45	401.43
494.81	405.74
495.17	410.18
495.54	414.90
495.90	419.76
496.26	424.71
496.63	429.87
496.99	435.28
497.35	440.91
497.72	446.77
498.08	452.71
498.44	458.82
498.80	465.25
499.17	471.76
499.53	478.47
499.89	485.44
500.26	492.43
500.62	499.53
500.98	506.95
501.34	514.42
501.71	522.25
502.07	530.10
502.43	538.15
502.79	546.35
503.16	554.71
503.52	563.27
503.88	571.96
504.24	580.91
504.60	589.99
504.97	599.17
505.33	608.44
505.69	618.29
506.05	628.20
506.41	638.16
506.78	648.20
507.14	658.47
507.50	668.92
507.86	679.67
508.22	690.46
508.59	701.04
508.95	712.10
509.31	723.37
509.67	734.86
510.03	746.36
510.39	758.11
510.75	770.05
511.12	782.11
511.48	794.29
511.84	806.68
512.20	819.08
512.56	831.81
512.92	844.71
513.28	857.47
513.64	870.22
514.00	883.04
514.37	896.04
514.73	909.32
515.09	922.46
515.45	935.44
515.81	948.61
516.17	962.17
516.53	975.60
516.89	988.77
517.25	1001.95
517.61	1015.56
517.97	1028.95
518.33	1042.10
518.69	1055.63
519.05	1069.46
519.41	1083.17
519.77	1097.14
520.13	1110.52
520.49	1123.79
520.85	1137.14
521.21	1150.58
521.57	1164.44
521.93	1177.63
522.29	1191.37
522.65	1205.05
523.01	1218.68
523.37	1231.88
523.73	1245.29
524.09	1258.63
524.45	1272.08
524.81	1285.84
525.17	1299.26
525.53	1312.80
525.89	1326.31
526.25	1339.59
526.61	1352.41
526.97	1365.68
527.33	1378.71
527.68	1392.32
528.04	1405.93
528.40	1419.28
528.76	1432.78
529.12	1445.73
529.48	1459.20
529.84	1471.60
530.20	1484.31
530.56	1497.09
530.91	1510.51
531.27	1523.47
531.63	1536.25
531.99	1549.12
532.35	1561.41
532.71	1573.91
533.07	1586.77
533.42	1599.11
533.78	1611.42
534.14	1623.70
534.50	1634.90
534.86	1646.69
535.21	1657.73
535.57	1669.35
535.93	1680.74
536.29	1691.89
536.65	1703.48
537.00	1714.64
537.36	1726.19
537.72	1737.42
538.08	1749.02
538.44	1760.19
538.79	1771.40
539.15	1782.36
539.51	1793.39
539.87	1804.80
540.22	1815.74
540.58	1826.65
540.94	1837.74
541.29	1848.08
541.65	1857.96
542.01	1868.60
542.37	1878.75
542.72	1888.94
543.08	1898.71
543.44	1909.26
543.79	1918.66
544.15	1928.18
544.51	1938.15
544.87	1948.05
545.22	1957.43
545.58	1966.29
545.94	1975.21
546.29	1983.82
546.65	1992.26
547.01	2000.45
547.36	2008.26
547.72	2016.10
548.07	2023.80
548.43	2031.44
548.79	2039.43
549.14	2047.56
549.50	2056.23
549.86	2064.11
550.21	2071.61
550.57	2079.40
550.92	2086.22
551.28	2093.92
551.64	2101.23
551.99	2108.80
552.35	2116.15
552.70	2123.06
553.06	2129.74
553.41	2136.05
553.77	2142.69
554.13	2149.15
554.48	2156.27
554.84	2163.37
555.19	2170.06
555.55	2176.57
555.90	2182.96
556.26	2189.87
556.61	2196.05
556.97	2200.90
557.32	2206.67
557.68	2213.23
558.03	2218.93
558.39	2224.24
558.74	2230.06
559.10	2235.55
559.45	2241.05
559.81	2246.48
560.16	2251.92
560.52	2257.89
560.87	2264.23
561.23	2270.03
561.58	2276.67
561.94	2281.83
562.29	2286.51
562.64	2292.51
563.00	2298.31
563.35	2303.82
563.71	2309.48
564.06	2315.24
564.42	2321.15
564.77	2326.33
565.12	2331.57
565.48	2336.80
565.83	2342.48
566.19	2347.96
566.54	2353.35
566.89	2358.06
567.25	2362.58
567.60	2368.44
567.96	2373.49
568.31	2378.05
568.66	2382.47
569.02	2386.36
569.37	2390.12
569.72	2394.40
570.08	2397.81
570.43	2400.84
570.78	2404.02
571.14	2406.37
571.49	2409.46
571.84	2412.98
572.20	2415.85
572.55	2418.70
572.90	2420.95
573.26	2423.60
573.61	2426.07
573.96	2428.17
574.31	2430.14
574.67	2432.02
575.02	2432.57
575.37	2434.06
575.72	2434.58
576.08	2435.80
576.43	2435.82
576.78	2436.24
577.13	2437.84
577.49	2438.97
577.84	2439.89
578.19	2441.07
578.54	2441.56
578.90	2442.16
579.25	2441.97
579.60	2441.78
579.95	2440.96
580.30	2441.02
580.66	2440.21
581.01	2438.41
581.36	2435.96
581.71	2434.41
582.06	2433.20
582.42	2432.18
582.77	2429.94
583.12	2428.38
583.47	2427.07
583.82	2426.49
584.17	2425.17
584.53	2423.02
584.88	2420.77
585.23	2418.76
585.58	2416.41
585.93	2414.25
586.28	2411.82
586.63	2409.16
586.98	2406.84
587.34	2404.72
587.69	2402.17
588.04	2400.01
588.39	2398.55
588.74	2396.14
589.09	2393.34
589.44	2390.01
589.79	2387.46
590.14	2385.35
590.49	2382.47
590.84	2378.29
591.19	2374.97
591.54	2371.66
591.89	2367.56
592.25	2364.32
592.60	2360.13
592.95	2355.88
593.30	2351.68
593.65	2347.33
594.00	2342.91
594.35	2339.75
594.70	2335.09
595.05	2330.46
595.40	2324.83
595.75	2318.87
596.10	2315.01
596.45	2310.12
596.80	2305.57
597.15	2300.35
597.50	2294.17
597.85	2289.12
598.19	2283.91
598.54	2278.07
598.89	2272.80
599.24	2268.09
599.59	2261.98
599.94	2256.03
600.29	2249.99
600.64	2244.02
600.99	2237.18
601.34	2231.61
601.69	2224.55
602.04	2218.10
602.39	2211.37
602.74	2205.24
603.08	2199.79
603.43	2193.19
603.78	2186.26
604.13	2179.02
604.48	2171.66
604.83	2165.70
605.18	2159.30
605.53	2152.30
605.87	2145.36
606.22	2138.50
606.57	2130.53
606.92	2122.36
607.27	2115.35
607.62	2108.68
607.96	2101.67
608.31	2095.13
608.66	2087.42
609.01	2079.70
609.36	2072.58
609.70	2064.86
610.05	2057.17
610.40	2048.81
610.75	2040.45
611.10	2032.66
611.44	2023.76
611.79	2015.10
612.14	2004.95
612.49	1994.30
612.83	1985.03
613.18	1975.70
613.53	1966.26
613.88	1956.66
614.22	1947.91
614.57	1938.04
614.92	1927.43
615.27	1917.25
615.61	1907.07
615.96	1897.29
616.31	1887.80
616.65	1878.28
617.00	1868.47
617.35	1858.76
617.70	1849.02
618.04	1839.07
618.39	1828.97
618.74	1819.37
619.08	1809.64
619.43	1801.03
619.78	1792.87
620.12	1784.29
620.47	1774.57
620.82	1764.24
621.16	1754.55
621.51	1744.74
621.85	1734.89
622.20	1724.52
622.55	1713.95
622.89	1704.05
623.24	1694.26
623.59	1684.48
623.93	1674.32
624.28	1664.54
624.62	1654.47
624.97	1644.16
625.32	1634.24
625.66	1625.35
626.01	1616.56
626.35	1607.22
626.70	1597.11
627.04	1587.02
627.39	1576.84
627.73	1567.69
628.08	1558.89
628.43	1549.30
628.77	1540.11
629.12	1531.27
629.46	1523.46
629.81	1515.06
630.15	1505.62
630.50	1495.87
630.84	1485.37
631.19	1475.62
631.53	1466.34
631.88	1456.17
632.22	1446.23
632.57	1437.04
632.91	1426.87
633.26	1417.03
633.60	1407.55
633.95	1398.32
634.29	1388.80
634.64	1379.54
634.98	1369.56
635.32	1360.10
635.67	1351.56
636.01	1342.32
636.36	1332.56
636.70	1323.02
637.05	1313.63
637.39	1304.64
637.73	1296.08
638.08	1288.61
638.42	1280.42
638.77	1271.63
639.11	1263.47
639.45	1255.57
639.80	1246.96
640.14	1238.28
640.49	1229.39
640.83	1220.52
641.17	1212.31
641.52	1204.25
641.86	1195.67
642.20	1187.71
642.55	1179.18
642.89	1170.34
643.23	1161.64
643.58	1153.53
643.92	1144.50
644.26	1135.84
644.61	1127.41
644.95	1118.49
645.29	1109.17
645.64	1099.90
645.98	1091.40
646.32	1083.38
646.66	1074.78
647.01	1066.48
647.35	1058.25
647.69	1049.86
648.04	1041.53
648.38	1032.56
648.72	1023.69
649.06	1015.12
649.41	1006.87
649.75	998.91
650.09	990.96
650.43	982.92
650.78	974.55
651.12	966.87
651.46	959.37
651.80	952.09
652.14	944.90
652.49	937.34
652.83	930.00
653.17	922.27
653.51	914.58
653.85	907.37
654.20	900.06
654.54	892.65
654.88	885.44
655.22	878.23
655.56	871.29
655.90	864.50
656.25	857.83
656.59	850.98
656.93	843.82
657.27	836.67
657.61	829.66
657.95	823.42
658.29	817.39
658.64	811.29
658.98	804.74
659.32	798.13
659.66	791.85
660.00	785.51
660.34	779.39
660.68	773.26
661.02	766.93
661.36	760.95
661.70	755.05
662.05	749.36
662.39	743.81
662.73	738.32
663.07	732.88
663.41	727.24
663.75	721.47
664.09	715.88
664.43	710.39
664.77	704.96
665.11	699.15
665.45	693.24
665.79	687.42
666.13	681.77
666.47	676.20
666.81	670.72
667.15	665.28
667.49	660.08
667.83	654.87
668.17	649.51
668.51	644.37
668.85	639.48
669.19	634.54
669.53	629.51
669.87	624.35
670.21	619.55
670.55	614.76
670.89	610.27
671.23	605.85
671.57	601.46
671.91	597.16
672.25	593.06
672.58	588.90
672.92	584.79
673.26	580.81
673.60	576.95
673.94	573.11
674.28	569.48
674.62	565.66
674.96	561.83
675.30	558.29
675.64	554.58
675.97	550.91
676.31	547.25
676.65	543.65
676.99	540.23
677.33	536.30
677.67	532.66
678.01	528.79
678.34	525.13
678.68	521.56
679.02	517.93
679.36	514.19
679.70	510.52
680.04	506.91
680.37	503.42
680.71	500.02
681.05	496.80
681.39	493.48
681.73	490.26
682.06	487.15
682.40	484.09
682.74	480.77
683.08	477.54
683.42	474.35
683.75	471.31
684.09	468.25
684.43	465.48
684.77	462.55
685.10	459.70
685.44	456.76
685.78	453.80
686.12	450.98
686.45	448.21
686.79	445.49
687.13	443.04
687.46	440.33
687.80	437.65
688.14	434.78
688.48	432.13
688.81	429.46
689.15	426.85
689.49	424.19
689.82	421.70
690.16	419.07
690.50	416.55
690.83	413.96
691.17	411.40
691.51	408.85
691.84	406.53
692.18	404.25
692.52	402.00
692.85	399.85
693.19	397.65
693.52	395.45
693.86	393.19
694.20	390.85
694.53	388.71
694.87	386.44
695.21	384.26
695.54	382.06
695.88	379.86
696.21	377.66
696.55	375.50
696.88	373.38
697.22	371.40
697.56	369.48
697.89	367.53
698.23	365.72
698.56	363.92
698.90	362.11
699.23	360.22
699.57	358.32
699.90	356.38
700.24	354.54
700.58	352.78
700.91	351.09
701.25	349.53
701.58	347.91
701.92	346.30
702.25	344.70
702.59	343.02
702.92	341.46
703.26	339.87
703.59	338.36
703.93	337.08
704.26	335.61
704.60	334.08
704.93	332.56
705.26	331.03
705.60	329.56
705.93	328.05
706.27	326.64
706.60	325.37
706.94	324.16
707.27	322.81
707.61	321.41
707.94	320.00
708.27	318.42
708.61	316.94
708.94	315.54
709.28	314.20
709.61	312.94
709.94	311.72
710.28	310.49
710.61	309.30
710.95	307.86
711.28	306.74
711.61	305.54
711.95	304.46
712.28	303.28
712.61	302.05
712.95	300.97
713.28	299.96
713.61	298.78
713.95	297.62
714.28	296.54
714.61	295.51
714.95	294.51
715.28	293.47
715.61	292.41
715.95	291.47
716.28	290.52
716.61	289.57
716.95	288.56
717.28	287.62
717.61	286.64
717.94	285.69
718.28	284.68
718.61	283.78
718.94	282.79
719.27	281.90
719.61	281.07
719.94	280.16
720.27	279.15
720.60	278.23
720.94	277.43
721.27	276.66
721.60	275.95
721.93	275.24
722.27	274.59
722.60	273.95
722.93	273.21
723.26	272.53
723.59	271.82
723.93	271.18
724.26	270.50
724.59	269.82
724.92	269.26
725.25	268.68
725.59	268.08
725.92	267.55
726.25	267.02
726.58	266.44
726.91	265.83
727.24	265.27
727.57	264.74
727.91	264.11
728.24	263.56
728.57	262.96
728.90	262.37
729.23	261.76
729.56	261.32
729.89	260.75
730.22	260.19
730.55	259.64
730.89	259.07
731.22	258.58
731.55	258.07
731.88	257.52
732.21	256.91
732.54	256.36
732.87	255.85
733.20	255.31
733.53	254.80
733.86	254.36
734.19	253.84
734.52	253.42
734.85	253.12
735.18	252.62
735.51	252.24
735.84	251.81
736.17	251.42
736.50	250.85
736.83	250.72
737.16	250.29
737.49	249.90
737.82	249.51
738.15	249.10
738.48	248.70
738.81	248.30
739.14	247.92
739.47	247.56
739.80	247.18
740.13	246.82
740.46	246.43
740.79	246.02
741.12	245.66
741.45	245.32
741.78	244.85
742.11	244.57
742.44	244.13
742.77	243.80
743.10	243.42
743.43	243.10
743.75	242.49
744.08	242.44
744.41	242.05
744.74	241.67
745.07	241.25
745.40	240.95
745.73	240.71
746.06	240.40
746.39	240.07
746.71	239.72
747.04	239.34
747.37	239.00
747.70	238.71
748.03	238.41
748.36	238.11
748.68	237.80
749.01	237.43
749.34	237.14
749.67	236.86
750.00	236.60
750.33	236.47
750.65	236.18
750.98	235.63
751.31	235.40
751.64	235.17
751.97	235.07
752.29	234.78
752.62	234.41
752.95	234.17
753.28	233.93
753.60	233.71
753.93	233.56
754.26	233.36
754.59	233.11
754.91	232.88
755.24	232.61
755.57	232.36
755.90	232.15
756.22	231.91
756.55	231.65
756.88	231.37
757.20	231.00
757.53	230.77
757.86	230.58
758.19	230.41
758.51	230.16
758.84	229.88
759.17	229.69
759.49	229.53
759.82	229.41
760.15	229.23
760.47	229.02
760.80	228.73
761.13	228.56
761.45	228.37
761.78	228.20
762.11	228.03
762.43	227.85
762.76	227.68
763.08	227.54
763.41	227.36
763.74	227.24
764.06	227.07
764.39	226.92
764.71	226.75
765.04	226.56
765.37	226.46
765.69	226.30
766.02	226.15
766.34	226.02
766.67	225.80
767.00	225.69
767.32	225.67
767.65	225.68
767.97	225.53
768.30	225.42
768.62	225.27
768.95	225.09
769.27	224.99
769.60	224.89
769.92	224.77
770.25	224.66
770.57	224.45
770.90	224.35
771.22	224.22
771.55	224.11
771.87	224.00
772.20	223.86
772.52	223.88
772.85	224.00
773.17	223.88
773.50	223.77
773.82	223.63
774.15	223.43
774.47	223.22
774.80	223.11
775.12	223.01
775.45	222.93
775.77	222.89
776.09	222.76
776.42	222.67
776.74	222.59
777.07	222.47
777.39	222.45
777.72	222.34
778.04	222.28
778.36	222.18
778.69	222.11
779.01	222.05
779.33	221.78
779.66	221.48
779.98	221.39
780.31	221.36
780.63	221.37
780.95	221.31
781.28	221.23
781.60	221.14
781.92	221.09
782.25	221.01
782.57	220.91
782.89	220.87
783.22	220.79
783.54	220.72
783.86	220.69
784.19	220.59
784.51	220.55
784.83	220.47
785.16	220.39
785.48	220.31
785.80	220.21
786.12	220.16
786.45	220.08
786.77	220.03
787.09	219.95
787.42	219.81
787.74	219.75
788.06	219.70
788.38	219.63
788.71	219.55
789.03	219.52
789.35	219.48
789.67	219.39
789.99	219.34
790.32	219.24
790.64	219.20
790.96	219.33
791.28	219.24
791.61	219.16
791.93	219.14
792.25	219.12
792.57	219.24
792.89	219.18
793.21	219.15
793.54	219.10
793.86	219.00
794.18	218.96
794.50	218.90
794.82	218.87
795.14	218.86
795.47	218.83
795.79	218.76
796.11	218.68
796.43	218.61
796.75	218.55
797.07	218.54
797.39	218.48
797.71	218.27
798.04	218.23
798.36	218.21
798.68	218.17
799.00	218.14
799.32	217.98
799.64	218.02
799.96	217.99
800.28	217.98
800.60	217.97
800.92	217.96
801.24	217.88
801.56	217.86
801.89	217.80
802.21	217.77
802.53	217.72
802.85	217.76
803.17	217.85
803.49	217.82
803.81	217.77
804.13	217.76
804.45	217.72
804.77	217.72
805.09	217.72
805.41	217.65
805.73	217.59
806.05	217.52
806.37	217.45
806.69	217.41
807.01	217.39
807.33	217.36
807.65	217.25
807.97	217.34
808.28	217.27
808.60	217.26
808.92	217.22
809.24	217.31
809.56	217.25
809.88	217.15
810.20	217.11
810.52	217.12
810.84	217.06
811.16	216.99
811.48	216.94
811.80	216.98
812.12	216.98
812.43	216.99
812.75	217.00
813.07	216.95
813.39	216.92
813.71	216.86
814.03	216.82
814.35	216.85
814.67	216.75
814.98	216.71
815.30	216.66
815.62	216.60
815.94	216.45
816.26	216.42
816.58	216.39
816.89	216.40
817.21	216.33
817.53	216.33
817.85	216.31
818.17	216.29
818.48	216.17
818.80	216.16
819.12	216.14
819.44	216.04
819.76	216.05
820.07	216.05
820.39	216.03
820.71	216.06
821.03	216.02
821.34	215.96
821.66	215.96
821.98	215.97
822.30	215.95
822.61	216.03
822.93	216.01
823.25	215.99
823.57	215.93
823.88	215.97
824.20	215.96
824.52	216.00
824.83	215.99
825.15	215.94
825.47	215.93
825.79	215.89
826.10	215.88
826.42	215.85
826.74	215.84
827.05	215.81
827.37	215.79
827.69	215.77
828.00	215.78
828.32	215.79
828.64	215.78
828.95	215.90
829.27	215.81
829.58	215.76
829.90	215.77
830.22	215.77
830.53	215.70
830.85	215.64
831.17	215.59
831.48	215.55
831.80	215.53
832.11	215.50
832.43	215.48
832.75	215.46
833.06	215.55
833.38	215.45
833.69	215.43
834.01	215.40
834.32	215.38
834.64	215.34
834.96	215.27
835.27	215.24
835.59	215.15
835.90	215.13
836.22	215.12
836.53	215.06
836.85	215.05
837.16	215.22
837.48	215.23
837.79	215.30
838.11	215.28
838.42	215.28
838.74	215.31
839.05	215.29
839.37	215.25
839.68	215.14
840.00	215.16
840.31	215.19
840.63	215.16
840.94	215.14
841.26	215.11
841.57	215.15
841.88	215.14
842.20	215.10
842.51	215.07
842.83	215.11
843.14	215.28
843.46	215.24
843.77	215.16
844.08	215.17
844.40	215.07
844.71	215.08
845.03	215.06
845.34	215.00
845.65	215.00
845.97	215.04
846.28	215.03
846.60	215.05
846.91	214.99
847.22	214.97
847.54	215.01
847.85	215.05
848.16	215.02
848.48	215.01
848.79	215.08
849.10	215.09
849.42	215.08
849.73	214.90
850.04	214.94
850.36	214.83
850.67	214.83
850.98	214.84
851.30	214.84
851.61	214.84
851.92	214.87
852.23	214.90
852.55	214.90
852.86	214.90
853.17	214.90
853.49	214.96
853.80	214.99
854.11	215.03
854.42	215.04
854.74	215.02
855.05	215.00
855.36	214.89
855.67	214.92
855.99	214.91
856.30	215.17
856.61	215.13
856.92	215.15
857.23	215.16
857.55	215.13
857.86	215.14
858.17	215.20
858.48	215.10
858.79	215.08
859.11	215.10
859.42	215.11
859.73	215.08
860.04	215.07
860.35	215.05
860.66	214.96
860.98	214.93
861.29	214.96
861.60	214.94
861.91	214.99
862.22	214.92
862.53	214.89
862.84	214.62
863.16	214.66
863.47	214.59
863.78	214.54
864.09	214.57
864.40	214.57
864.71	214.53
865.02	214.62
865.33	214.60
865.64	214.60
865.95	214.58
866.27	214.70
866.58	214.62
866.89	214.63
867.20	214.63
867.51	214.63
867.82	214.62
868.13	214.69
868.44	214.65
868.75	214.71
869.06	214.72
869.37	214.74
869.68	214.66
869.99	214.73
870.30	214.75
870.61	214.77
870.92	214.76
871.23	214.72
871.54	214.72
871.85	214.76
872.16	214.74
872.47	214.71
872.78	214.61
873.09	214.63
873.40	214.61
873.71	214.61
874.02	214.60
874.33	214.54
874.64	214.49
874.95	214.50
875.26	214.47
875.56	214.48
875.87	214.46
876.18	214.45
876.49	214.66
876.80	214.64
877.11	214.59
877.42	214.57
877.73	214.60
878.04	214.55
878.35	214.54
878.66	214.56
878.96	214.57
879.27	214.54
879.58	214.56
879.89	214.53
880.20	214.60
880.51	214.61
880.82	214.63
881.12	214.64
881.43	214.59
881.74	214.54
882.05	214.50
882.36	214.52
882.67	214.55
882.97	214.32
883.28	214.29
883.59	214.30
883.90	214.35
884.21	214.38
884.51	214.39
884.82	214.33
885.13	214.30
885.44	214.30
885.74	214.28
886.05	214.27
886.36	214.26
886.67	214.17
886.98	214.29
887.28	214.28
887.59	214.30
887.90	214.31
888.20	214.30
888.51	214.33
888.82	214.31
889.13	214.33
889.43	214.50
889.74	214.46
890.05	214.45
890.35	214.43
890.66	214.39
890.97	214.41
891.28	214.40
891.58	214.41
891.89	214.40
892.20	214.39
892.50	214.39
892.81	214.39
893.12	214.40
893.42	214.27
893.73	214.29
894.04	214.27
894.34	214.28
894.65	214.30
894.95	214.30
895.26	214.29
895.57	214.34
895.87	214.16
896.18	214.21
896.48	214.22
896.79	214.21
897.10	214.24
897.40	214.23
897.71	214.26
898.01	214.26
898.32	214.27
898.63	214.28
898.93	214.24
899.24	214.27
899.54	214.24
899.85	214.23
900.15	214.26
900.46	214.27
900.76	214.31
901.07	214.30
901.38	214.29
901.68	214.31
901.99	214.23
902.29	214.23
902.60	214.23
902.90	214.23
903.21	214.22
903.51	214.21
903.82	214.25
904.12	214.24
904.43	214.25
904.73	214.26
905.03	214.28
905.34	214.54
905.64	214.51
905.95	214.52
906.25	214.53
906.56	214.47
906.86	214.46
907.17	214.44
907.47	214.46
907.77	214.45
908.08	214.44
908.38	214.48
908.69	214.49
908.99	214.54
909.30	214.56
909.60	214.54
909.90	214.55
910.21	214.48
910.51	214.46
910.81	214.47
911.12	214.48
911.42	214.48
911.73	214.24
912.03	214.25
912.33	214.33
912.64	214.33
912.94	214.35
913.24	214.33
913.55	214.33
913.85	214.32
914.15	214.36
914.46	214.36
914.76	214.30
915.06	214.30
915.37	214.24
915.67	214.23
915.97	214.24
916.27	214.19
916.58	214.20
916.88	214.19
917.18	214.16
917.49	214.26
917.79	214.24
918.09	214.26
918.39	214.31
918.70	214.24
919.00	214.23
919.30	214.33
919.60	214.33
919.91	214.30
920.21	214.30
920.51	214.23
920.81	214.19
921.12	214.25
921.42	214.25
921.72	214.26
922.02	214.27
922.32	214.31
922.63	214.31
922.93	214.40
923.23	214.45
923.53	214.43
923.83	214.30
924.13	214.33
924.44	214.35
924.74	214.40
925.04	214.47
925.34	214.48
925.64	214.40
925.94	214.38
926.24	214.49
926.55	214.49
926.85	214.54
927.15	214.57
927.45	214.57
927.75	214.57
928.05	214.55
928.35	214.52
928.65	214.54
928.95	214.59
929.26	214.51
929.56	214.52
929.86	214.56
930.16	214.56
930.46	214.54
930.76	214.55
931.06	214.42
931.36	214.35
931.66	214.36
931.96	214.39
932.26	214.39
932.56	214.31
932.86	214.32
933.16	214.33
933.46	214.28
933.76	214.24
934.06	214.29
934.36	214.36
934.66	214.35
934.96	214.29
935.26	214.31
935.56	214.33
935.86	214.26
936.16	214.25
936.46	214.25
936.76	214.23
937.06	214.17
937.36	214.23
937.66	214.26
937.96	214.27
938.26	214.22
938.56	214.21
938.86	214.21
939.16	214.26
939.46	214.29
939.76	214.31
940.06	214.35
940.35	214.25
940.65	214.15
940.95	214.19
941.25	214.19
941.55	214.11
941.85	214.08
942.15	214.15
942.45	214.17
942.75	214.15
943.04	214.15
943.34	214.24
943.64	214.18
943.94	214.16
944.24	214.15
944.54	214.16
944.84	214.16
945.13	214.15
945.43	214.11
945.73	214.06
946.03	214.07
946.33	214.02
946.62	214.02
946.92	214.05
947.22	214.04
947.52	214.03
947.82	214.08
948.11	214.04
948.41	213.98
948.71	213.95
949.01	213.99
949.31	213.98
949.60	213.94
949.90	213.99
950.20	213.98
950.50	213.95
950.79	213.95
951.09	214.00
951.39	214.02
951.69	213.98
951.98	214.04
952.28	214.06
952.58	214.07
952.87	214.09
953.17	214.10
953.47	214.07
953.76	214.10
954.06	214.07
954.36	214.06
954.66	214.07
954.95	214.12
955.25	214.11
955.55	214.11
955.84	214.09
956.14	214.09
956.44	214.08
956.73	214.06
957.03	214.06
957.32	214.03
957.62	213.96
957.92	214.01
958.21	214.01
958.51	214.24
958.81	214.27
959.10	214.28
959.40	214.36
959.69	214.36
959.99	214.36
960.29	214.37
960.58	214.37
960.88	214.43
961.17	214.37
961.47	214.38
961.76	214.41
962.06	214.44
962.36	214.42
962.65	214.45
962.95	214.46
963.24	214.42
963.54	214.43
963.83	214.46
964.13	214.47
964.42	214.38
964.72	214.19
965.01	214.19
965.31	214.21
965.60	214.13
965.90	214.30
966.19	214.25
966.49	214.25
966.78	214.25
967.08	214.23
967.37	214.25
967.67	214.21
967.96	214.20
968.26	214.22
968.55	214.25
968.85	214.23
969.14	214.21
969.43	214.20
969.73	214.19
970.02	214.17
970.32	214.14
970.61	214.16
970.91	214.13
971.20	214.07
971.49	214.03
971.79	214.06
972.08	213.88
972.38	213.90
972.67	213.89
972.96	213.93
973.26	213.91
973.55	213.99
973.85	213.99
974.14	213.98
974.43	213.96
974.73	213.86
975.02	213.86
975.31	213.88
975.61	213.91
975.90	213.90
976.19	213.89
976.49	213.91
976.78	213.94
977.07	213.90
977.37	213.91
977.66	213.93
977.95	213.90
978.24	213.90
978.54	213.94
978.83	213.94
979.12	213.93
979.42	213.93
979.71	213.88
980.00	213.85
980.29	213.85
980.59	213.80
980.88	213.88
981.17	213.86
981.46	213.87
981.76	213.86
982.05	213.94
982.34	213.94
982.63	213.91
982.93	213.88
983.22	213.97
983.51	214.00
983.80	214.02
984.09	214.03
984.39	214.05
984.68	214.00
984.97	214.03
985.26	213.99
985.55	214.03
985.85	213.99
986.14	214.05
986.43	214.09
986.72	214.08
987.01	214.04
987.30	214.04
987.59	214.03
987.89	214.05
988.18	213.96
988.47	213.98
988.76	213.95
989.05	213.95
989.34	213.88
989.63	213.93
989.92	213.91
990.22	213.87
990.51	213.90
990.80	213.90
991.09	213.88
991.38	213.93
991.67	213.88
991.96	213.86
992.25	213.87
992.54	213.83
992.83	213.85
993.12	213.85
993.41	213.90
993.70	213.98
993.99	214.00
994.28	214.06
994.58	214.10
994.87	214.10
995.16	214.08
995.45	214.08
995.74	213.97
996.03	214.02
996.32	214.07
996.61	214.09
996.90	214.11
997.19	214.11
997.48	214.13
997.77	214.13
998.06	214.14
998.34	214.11
998.63	214.12
998.92	214.15
999.21	214.18
999.50	214.18
999.79	214.10
1000.08	214.10
1000.37	214.10
1000.66	214.05
1000.95	214.14
1001.24	214.17
1001.53	214.19
1001.82	214.19
1002.11	214.10
1002.40	214.11
1002.68	214.15
1002.97	214.28
1003.26	214.23
1003.55	214.21
1003.84	214.23
1004.13	214.28
1004.42	214.27
1004.71	214.24
1004.99	214.22
1005.28	214.25
1005.57	214.21
1005.86	214.20
1006.15	214.17
1006.44	214.11
1006.72	214.12
1007.01	214.06
1007.30	214.06
1007.59	214.05
1007.88	214.07
1008.17	214.11
1008.45	214.05
1008.74	213.93
1009.03	213.86
1009.32	213.86
1009.60	213.84
1009.89	213.83
1010.18	213.74
1010.47	213.76
1010.76	213.78
1011.04	213.78
1011.33	213.80
1011.62	213.84
1011.91	213.85
1012.19	213.87
1012.48	213.87
1012.77	213.87
1013.05	213.95
1013.34	213.94
1013.63	213.94
1013.92	213.95
1014.20	213.94
1014.49	213.97
1014.78	214.02
1015.06	213.95
1015.35	213.97
1015.64	214.01
1015.92	214.02
1016.21	214.04
1016.50	214.05
1016.78	214.06
1017.07	214.07
1017.36	214.01
1017.64	213.97
1017.93	213.97
1018.22	213.94
1018.50	213.94
1018.79	213.96
1019.08	213.87
1019.36	213.92
1019.65	213.92
1019.93	213.94
1020.22	213.97
1020.51	214.07
1020.79	214.05
1021.08	213.34
1021.36	213.48
1021.65	213.87
1021.94	213.89
1022.22	214.71
1022.51	213.95
1022.79	214.38
1023.08	214.13
1023.36	216.52
1023.65	213.45
>>>>>End Processed Spectral Data<<<<<
