SpectraSuite Data File
++++++++++++++++++++++++++++++++++++
Date: Tue Jan 29 16:00:05 EST 2013
User: group
Dark Spectrum Present: No
Reference Spectrum Present: No
Number of Sampled Component Spectra: 1
Spectrometers: USB2E7196
Integration Time (usec): 65000 (USB2E7196)
Spectra Averaged: 100 (USB2E7196)
Boxcar Smoothing: 10 (USB2E7196)
Correct for Electrical Dark: No (USB2E7196)
Strobe/Lamp Enabled: No (USB2E7196)
Correct for Detector Non-linearity: No (USB2E7196)
Correct for Stray Light: No (USB2E7196)
Number of Pixels in Processed Spectrum: 2048
>>>>>Begin Processed Spectral Data<<<<<
339.09	0.00
339.48	203.38
339.86	204.90
340.24	206.50
340.63	207.48
341.01	211.45
341.39	209.93
341.78	211.81
342.16	212.77
342.54	212.85
342.93	202.25
343.31	212.46
343.69	212.97
344.07	213.40
344.46	213.80
344.84	214.19
345.22	214.38
345.60	214.65
345.99	214.84
346.37	214.96
346.75	215.09
347.13	215.16
347.52	215.18
347.90	215.34
348.28	215.33
348.66	215.41
349.05	215.34
349.43	215.40
349.81	215.43
350.19	215.48
350.57	215.57
350.96	215.63
351.34	215.71
351.72	215.81
352.10	215.96
352.48	216.02
352.87	216.05
353.25	216.10
353.63	216.15
354.01	216.19
354.39	216.26
354.77	216.31
355.15	216.42
355.54	216.48
355.92	216.44
356.30	216.52
356.68	216.74
357.06	216.82
357.44	216.84
357.82	216.89
358.20	216.96
358.58	216.98
358.97	217.02
359.35	217.11
359.73	217.19
360.11	217.20
360.49	217.26
360.87	217.36
361.25	217.44
361.63	217.54
362.01	217.58
362.39	217.64
362.77	217.72
363.15	217.75
363.53	217.77
363.91	217.84
364.29	217.88
364.67	217.66
365.05	217.69
365.43	217.76
365.81	217.82
366.19	217.91
366.57	217.99
366.95	218.04
367.33	218.01
367.71	218.02
368.09	218.07
368.47	218.08
368.85	218.05
369.23	218.06
369.61	217.97
369.99	218.05
370.37	218.05
370.75	218.13
371.13	218.08
371.51	218.07
371.89	218.07
372.27	218.04
372.65	218.02
373.03	217.99
373.41	217.93
373.78	217.88
374.16	217.77
374.54	217.69
374.92	217.62
375.30	217.57
375.68	217.47
376.06	217.41
376.44	217.35
376.82	217.30
377.19	217.24
377.57	217.23
377.95	217.11
378.33	217.05
378.71	216.85
379.09	216.86
379.47	216.81
379.84	216.75
380.22	216.72
380.60	216.66
380.98	216.66
381.36	216.62
381.73	216.55
382.11	216.52
382.49	216.49
382.87	216.45
383.25	216.48
383.62	216.70
384.00	216.65
384.38	216.63
384.76	216.64
385.13	216.70
385.51	216.64
385.89	216.58
386.27	216.53
386.64	216.54
387.02	216.48
387.40	216.45
387.78	216.45
388.15	216.41
388.53	216.41
388.91	216.35
389.29	216.29
389.66	216.32
390.04	216.32
390.42	216.36
390.79	216.36
391.17	216.29
391.55	216.05
391.92	216.04
392.30	216.06
392.68	216.01
393.05	215.98
393.43	216.00
393.81	216.03
394.18	216.02
394.56	216.05
394.94	216.09
395.31	216.07
395.69	216.11
396.06	216.17
396.44	216.20
396.82	216.21
397.19	216.36
397.57	216.32
397.95	216.33
398.32	216.25
398.70	216.31
399.07	216.39
399.45	216.42
399.82	216.45
400.20	216.46
400.58	216.50
400.95	216.46
401.33	216.56
401.70	216.76
402.08	216.84
402.45	216.92
402.83	217.05
403.20	217.15
403.58	217.21
403.95	217.32
404.33	217.43
404.71	217.58
405.08	217.83
405.46	218.02
405.83	218.17
406.21	218.38
406.58	218.57
406.96	218.79
407.33	219.08
407.70	219.37
408.08	219.82
408.45	220.20
408.83	220.61
409.20	220.95
409.58	221.23
409.95	221.65
410.33	222.12
410.70	222.54
411.08	223.11
411.45	223.66
411.82	224.25
412.20	224.92
412.57	225.70
412.95	226.22
413.32	227.03
413.69	227.87
414.07	228.74
414.44	229.73
414.82	230.73
415.19	231.84
415.56	232.98
415.94	234.10
416.31	235.46
416.68	236.77
417.06	238.29
417.43	239.82
417.81	241.52
418.18	243.20
418.55	245.07
418.93	247.03
419.30	249.09
419.67	251.23
420.04	253.43
420.42	255.71
420.79	258.43
421.16	261.12
421.54	263.91
421.91	266.79
422.28	269.74
422.66	272.91
423.03	276.04
423.40	279.27
423.77	282.78
424.15	286.25
424.52	289.98
424.89	293.98
425.26	297.89
425.64	301.60
426.01	305.78
426.38	310.06
426.75	314.42
427.13	318.96
427.50	323.80
427.87	328.82
428.24	333.85
428.61	338.65
428.99	343.98
429.36	349.78
429.73	355.48
430.10	361.13
430.47	367.00
430.85	373.07
431.22	379.50
431.59	386.32
431.96	392.90
432.33	400.14
432.70	407.09
433.08	415.25
433.45	423.02
433.82	430.65
434.19	439.24
434.56	447.64
434.93	455.64
435.30	463.58
435.68	472.32
436.05	480.93
436.42	489.52
436.79	497.37
437.16	505.80
437.53	514.75
437.90	523.51
438.27	532.03
438.64	540.84
439.01	549.11
439.38	556.44
439.75	563.52
440.13	571.58
440.50	579.27
440.87	585.44
441.24	591.87
441.61	598.97
441.98	604.13
442.35	610.21
442.72	616.22
443.09	622.02
443.46	625.61
443.83	627.99
444.20	630.05
444.57	633.02
444.94	634.37
445.31	635.73
445.68	637.03
446.05	637.69
446.42	636.96
446.79	636.11
447.16	635.03
447.53	634.24
447.90	631.03
448.27	627.90
448.64	623.42
449.01	620.20
449.37	614.47
449.74	608.96
450.11	602.26
450.48	595.20
450.85	588.01
451.22	581.81
451.59	575.98
451.96	570.39
452.33	562.79
452.70	555.97
453.07	547.78
453.43	539.55
453.80	531.53
454.17	523.88
454.54	516.59
454.91	508.68
455.28	501.02
455.65	493.92
456.02	486.68
456.38	480.63
456.75	473.09
457.12	466.83
457.49	460.63
457.86	454.75
458.23	449.63
458.59	443.99
458.96	438.25
459.33	433.18
459.70	427.98
460.07	423.98
460.43	419.30
460.80	414.93
461.17	411.15
461.54	407.17
461.91	403.28
462.27	399.26
462.64	395.98
463.01	392.34
463.38	388.79
463.74	385.24
464.11	382.14
464.48	379.38
464.85	376.42
465.21	374.09
465.58	371.56
465.95	368.54
466.32	366.03
466.68	363.50
467.05	361.04
467.42	358.64
467.78	356.06
468.15	353.68
468.52	351.84
468.88	349.42
469.25	347.33
469.62	345.61
469.98	343.79
470.35	342.11
470.72	340.53
471.08	338.86
471.45	337.43
471.82	336.00
472.18	334.44
472.55	333.31
472.92	332.01
473.28	330.83
473.65	329.77
474.02	328.70
474.38	327.90
474.75	327.16
475.11	326.43
475.48	325.87
475.85	325.37
476.21	324.95
476.58	324.66
476.94	324.45
477.31	324.20
477.67	323.98
478.04	323.83
478.41	323.83
478.77	323.99
479.14	323.93
479.50	324.06
479.87	324.40
480.23	324.73
480.60	325.05
480.96	325.39
481.33	325.99
481.69	326.56
482.06	327.05
482.42	327.52
482.79	328.14
483.15	328.93
483.52	329.91
483.88	330.78
484.25	331.71
484.61	332.73
484.98	333.80
485.34	335.10
485.71	336.52
486.07	338.00
486.44	339.28
486.80	340.96
487.17	342.61
487.53	344.48
487.90	346.32
488.26	348.26
488.62	350.34
488.99	352.38
489.35	354.57
489.72	357.00
490.08	359.53
490.44	362.08
490.81	364.82
491.17	367.55
491.54	370.54
491.90	373.56
492.26	376.79
492.63	380.25
492.99	383.68
493.36	387.28
493.72	391.10
494.08	395.14
494.45	399.35
494.81	403.75
495.17	408.14
495.54	412.88
495.90	417.69
496.26	422.70
496.63	427.89
496.99	433.27
497.35	438.85
497.72	444.66
498.08	450.64
498.44	456.68
498.80	463.07
499.17	469.54
499.53	476.22
499.89	483.08
500.26	489.94
500.62	497.06
500.98	504.53
501.34	511.98
501.71	519.74
502.07	527.48
502.43	535.38
502.79	543.48
503.16	551.77
503.52	560.34
503.88	568.97
504.24	577.91
504.60	586.94
504.97	596.08
505.33	605.35
505.69	615.13
506.05	624.96
506.41	634.78
506.78	644.77
507.14	655.04
507.50	665.55
507.86	676.20
508.22	687.00
508.59	697.63
508.95	708.68
509.31	719.78
509.67	731.31
510.03	742.72
510.39	754.43
510.75	766.27
511.12	778.16
511.48	790.20
511.84	802.30
512.20	814.59
512.56	827.16
512.92	839.80
513.28	852.35
513.64	865.06
514.00	877.77
514.37	890.61
514.73	903.59
515.09	916.22
515.45	929.06
515.81	941.86
516.17	955.04
516.53	968.04
516.89	981.14
517.25	994.05
517.61	1007.36
517.97	1020.60
518.33	1033.57
518.69	1046.92
519.05	1060.53
519.41	1074.05
519.77	1087.71
520.13	1100.88
520.49	1113.75
520.85	1126.95
521.21	1140.02
521.57	1153.64
521.93	1166.53
522.29	1180.06
522.65	1193.65
523.01	1207.03
523.37	1220.07
523.73	1233.06
524.09	1246.03
524.45	1259.14
524.81	1272.45
525.17	1285.65
525.53	1298.52
525.89	1311.53
526.25	1324.39
526.61	1336.92
526.97	1349.69
527.33	1362.22
527.68	1375.37
528.04	1388.78
528.40	1401.62
528.76	1414.64
529.12	1427.06
529.48	1440.20
529.84	1452.14
530.20	1464.66
530.56	1476.98
530.91	1489.88
531.27	1502.43
531.63	1515.01
531.99	1527.41
532.35	1539.32
532.71	1551.38
533.07	1563.81
533.42	1575.72
533.78	1587.59
534.14	1599.25
534.50	1610.34
534.86	1621.73
535.21	1632.27
535.57	1643.28
535.93	1654.33
536.29	1665.18
536.65	1676.32
537.00	1686.90
537.36	1698.02
537.72	1708.58
538.08	1719.64
538.44	1730.16
538.79	1740.91
539.15	1751.31
539.51	1761.67
539.87	1772.64
540.22	1783.07
540.58	1793.76
540.94	1804.44
541.29	1814.32
541.65	1823.83
542.01	1834.02
542.37	1843.79
542.72	1853.78
543.08	1863.33
543.44	1873.44
543.79	1882.62
544.15	1891.77
544.51	1901.55
544.87	1911.00
545.22	1919.89
545.58	1928.38
545.94	1937.04
546.29	1945.39
546.65	1953.55
547.01	1961.68
547.36	1969.20
547.72	1976.75
548.07	1984.15
548.43	1991.46
548.79	1999.03
549.14	2006.93
549.50	2014.86
549.86	2022.40
550.21	2029.47
550.57	2036.87
550.92	2043.39
551.28	2050.47
551.64	2057.57
551.99	2064.81
552.35	2071.89
552.70	2078.56
553.06	2085.09
553.41	2091.27
553.77	2097.60
554.13	2103.78
554.48	2110.58
554.84	2117.31
555.19	2123.70
555.55	2130.11
555.90	2136.42
556.26	2143.05
556.61	2148.79
556.97	2153.66
557.32	2159.50
557.68	2165.84
558.03	2171.56
558.39	2176.68
558.74	2182.58
559.10	2188.06
559.45	2193.55
559.81	2198.95
560.16	2204.62
560.52	2210.46
560.87	2216.79
561.23	2222.96
561.58	2229.57
561.94	2234.78
562.29	2239.61
562.64	2245.69
563.00	2251.07
563.35	2256.72
563.71	2262.58
564.06	2268.32
564.42	2274.38
564.77	2279.50
565.12	2284.61
565.48	2289.86
565.83	2295.49
566.19	2301.00
566.54	2306.47
566.89	2311.22
567.25	2315.85
567.60	2321.57
567.96	2326.85
568.31	2331.50
568.66	2335.48
569.02	2339.47
569.37	2343.17
569.72	2347.68
570.08	2351.22
570.43	2354.38
570.78	2357.39
571.14	2360.06
571.49	2363.44
571.84	2367.00
572.20	2369.83
572.55	2373.10
572.90	2375.37
573.26	2378.41
573.61	2380.95
573.96	2383.23
574.31	2385.18
574.67	2387.37
575.02	2388.37
575.37	2389.98
575.72	2390.93
576.08	2392.59
576.43	2393.01
576.78	2394.15
577.13	2396.08
577.49	2397.49
577.84	2399.29
578.19	2400.95
578.54	2401.93
578.90	2403.03
579.25	2403.24
579.60	2403.64
579.95	2403.13
580.30	2403.70
580.66	2403.11
581.01	2401.73
581.36	2399.72
581.71	2398.64
582.06	2397.92
582.42	2397.20
582.77	2395.29
583.12	2393.98
583.47	2393.08
583.82	2392.71
584.17	2391.53
584.53	2389.54
584.88	2387.83
585.23	2385.82
585.58	2383.72
585.93	2381.73
586.28	2379.64
586.63	2377.44
586.98	2375.41
587.34	2373.73
587.69	2371.51
588.04	2369.88
588.39	2368.62
588.74	2366.31
589.09	2363.96
589.44	2361.06
589.79	2358.79
590.14	2357.09
590.49	2354.36
590.84	2350.76
591.19	2348.00
591.54	2344.72
591.89	2340.77
592.25	2337.59
592.60	2333.61
592.95	2329.67
593.30	2325.70
593.65	2321.42
594.00	2317.16
594.35	2314.27
594.70	2309.68
595.05	2305.25
595.40	2300.00
595.75	2294.65
596.10	2291.25
596.45	2286.43
596.80	2281.91
597.15	2276.87
597.50	2271.08
597.85	2266.19
598.19	2261.01
598.54	2255.25
598.89	2250.50
599.24	2246.14
599.59	2240.23
599.94	2234.67
600.29	2228.91
600.64	2223.21
600.99	2216.85
601.34	2211.46
601.69	2204.49
602.04	2198.31
602.39	2191.72
602.74	2185.65
603.08	2180.17
603.43	2173.65
603.78	2166.93
604.13	2159.92
604.48	2152.77
604.83	2146.80
605.18	2140.65
605.53	2133.76
605.87	2126.77
606.22	2119.96
606.57	2112.15
606.92	2104.31
607.27	2097.49
607.62	2091.07
607.96	2084.02
608.31	2077.47
608.66	2069.81
609.01	2062.26
609.36	2055.09
609.70	2047.51
610.05	2039.87
610.40	2031.60
610.75	2023.50
611.10	2015.98
611.44	2007.26
611.79	1998.55
612.14	1988.52
612.49	1978.17
612.83	1968.97
613.18	1959.98
613.53	1950.50
613.88	1940.96
614.22	1932.42
614.57	1922.46
614.92	1911.81
615.27	1901.72
615.61	1891.73
615.96	1882.11
616.31	1872.69
616.65	1863.55
617.00	1853.65
617.35	1844.01
617.70	1834.25
618.04	1824.06
618.39	1813.65
618.74	1803.84
619.08	1794.35
619.43	1785.66
619.78	1777.36
620.12	1768.60
620.47	1758.66
620.82	1748.55
621.16	1738.84
621.51	1728.78
621.85	1718.90
622.20	1708.52
622.55	1697.98
622.89	1688.04
623.24	1678.36
623.59	1668.58
623.93	1658.25
624.28	1648.72
624.62	1638.58
624.97	1628.34
625.32	1618.69
625.66	1610.06
626.01	1601.19
626.35	1591.58
626.70	1581.39
627.04	1571.18
627.39	1561.20
627.73	1551.97
628.08	1542.78
628.43	1533.06
628.77	1523.90
629.12	1514.92
629.46	1506.92
629.81	1498.42
630.15	1488.86
630.50	1478.93
630.84	1468.51
631.19	1458.66
631.53	1449.06
631.88	1438.81
632.22	1428.71
632.57	1419.19
632.91	1408.90
633.26	1399.11
633.60	1389.59
633.95	1380.28
634.29	1370.93
634.64	1361.36
634.98	1351.44
635.32	1342.21
635.67	1333.63
636.01	1324.40
636.36	1314.57
636.70	1305.11
637.05	1295.72
637.39	1286.65
637.73	1277.91
638.08	1270.28
638.42	1261.94
638.77	1253.24
639.11	1245.06
639.45	1237.26
639.80	1228.68
640.14	1219.98
640.49	1211.05
640.83	1202.28
641.17	1194.20
641.52	1185.93
641.86	1177.46
642.20	1169.60
642.55	1161.00
642.89	1152.26
643.23	1143.42
643.58	1135.42
643.92	1126.37
644.26	1117.72
644.61	1109.34
644.95	1100.61
645.29	1091.17
645.64	1082.03
645.98	1073.67
646.32	1065.65
646.66	1057.13
647.01	1048.69
647.35	1040.57
647.69	1032.11
648.04	1023.67
648.38	1014.66
648.72	1005.88
649.06	997.42
649.41	989.21
649.75	981.15
650.09	973.22
650.43	965.17
650.78	956.94
651.12	949.21
651.46	941.80
651.80	934.54
652.14	927.19
652.49	919.70
652.83	912.34
653.17	904.56
653.51	896.95
653.85	889.62
654.20	882.39
654.54	874.77
654.88	867.71
655.22	860.63
655.56	853.68
655.90	846.90
656.25	840.34
656.59	833.34
656.93	826.37
657.27	819.24
657.61	812.40
657.95	806.30
658.29	800.48
658.64	794.36
658.98	787.94
659.32	781.51
659.66	775.29
660.00	768.99
660.34	763.00
660.68	756.95
661.02	750.71
661.36	744.89
661.70	739.19
662.05	733.53
662.39	728.12
662.73	722.87
663.07	717.52
663.41	711.89
663.75	706.37
664.09	700.82
664.43	695.43
664.77	690.12
665.11	684.34
665.45	678.50
665.79	672.75
666.13	667.07
666.47	661.62
666.81	656.32
667.15	651.01
667.49	645.89
667.83	640.68
668.17	635.52
668.51	630.38
668.85	625.57
669.19	620.73
669.53	615.73
669.87	610.63
670.21	605.92
670.55	601.25
670.89	596.89
671.23	592.66
671.57	588.38
671.91	584.08
672.25	580.05
672.58	575.93
672.92	571.93
673.26	568.05
673.60	564.27
673.94	560.50
674.28	556.98
674.62	553.25
674.96	549.55
675.30	546.11
675.64	542.53
675.97	539.03
676.31	535.46
676.65	531.87
676.99	528.42
677.33	524.63
677.67	520.96
678.01	517.11
678.34	513.49
678.68	510.01
679.02	506.43
679.36	502.70
679.70	499.13
680.04	495.68
680.37	492.27
680.71	488.99
681.05	485.81
681.39	482.58
681.73	479.40
682.06	476.41
682.40	473.36
682.74	470.20
683.08	466.97
683.42	463.87
683.75	460.94
684.09	458.01
684.43	455.20
684.77	452.36
685.10	449.59
685.44	446.75
685.78	443.86
686.12	441.18
686.45	438.50
686.79	435.85
687.13	433.34
687.46	430.86
687.80	428.21
688.14	425.45
688.48	422.92
688.81	420.37
689.15	417.87
689.49	415.29
689.82	412.84
690.16	410.34
690.50	407.95
690.83	405.51
691.17	403.05
691.51	400.73
691.84	398.55
692.18	396.37
692.52	394.18
692.85	392.14
693.19	390.10
693.52	387.98
693.86	385.87
694.20	383.73
694.53	381.59
694.87	379.47
695.21	377.42
695.54	375.28
695.88	373.16
696.21	370.94
696.55	368.84
696.88	366.79
697.22	364.89
697.56	363.04
697.89	361.23
698.23	359.56
698.56	357.77
698.90	356.07
699.23	354.22
699.57	352.40
699.90	350.59
700.24	348.79
700.58	347.09
700.91	345.50
701.25	343.99
701.58	342.42
701.92	340.85
702.25	339.30
702.59	337.76
702.92	336.27
703.26	334.80
703.59	333.40
703.93	332.22
704.26	330.80
704.60	329.35
704.93	327.88
705.26	326.39
705.60	325.00
705.93	323.51
706.27	322.22
706.60	321.03
706.94	319.81
707.27	318.45
707.61	317.17
707.94	315.80
708.27	314.31
708.61	312.90
708.94	311.59
709.28	310.31
709.61	309.10
709.94	307.91
710.28	306.74
710.61	305.53
710.95	304.15
711.28	303.09
711.61	301.88
711.95	300.79
712.28	299.63
712.61	298.46
712.95	297.45
713.28	296.47
713.61	295.33
713.95	294.20
714.28	293.22
714.61	292.22
714.95	291.27
715.28	290.31
715.61	289.32
715.95	288.39
716.28	287.48
716.61	286.54
716.95	285.60
717.28	284.71
717.61	283.77
717.94	282.89
718.28	281.91
718.61	281.10
718.94	280.22
719.27	279.39
719.61	278.58
719.94	277.73
720.27	276.78
720.60	275.94
720.94	275.21
721.27	274.48
721.60	273.78
721.93	273.02
722.27	272.39
722.60	271.73
722.93	271.05
723.26	270.41
723.59	269.74
723.93	269.09
724.26	268.46
724.59	267.89
724.92	267.29
725.25	266.81
725.59	266.20
725.92	265.65
726.25	265.10
726.58	264.57
726.91	263.96
727.24	263.44
727.57	262.90
727.91	262.27
728.24	261.72
728.57	261.12
728.90	260.63
729.23	260.05
729.56	259.64
729.89	259.12
730.22	258.56
730.55	258.03
730.89	257.54
731.22	256.99
731.55	256.45
731.88	255.97
732.21	255.39
732.54	254.91
732.87	254.45
733.20	253.97
733.53	253.52
733.86	253.09
734.19	252.62
734.52	252.20
734.85	251.96
735.18	251.48
735.51	251.15
735.84	250.75
736.17	250.35
736.50	249.87
736.83	249.70
737.16	249.34
737.49	248.96
737.82	248.57
738.15	248.23
738.48	247.89
738.81	247.52
739.14	247.12
739.47	246.72
739.80	246.36
740.13	246.02
740.46	245.62
740.79	245.26
741.12	244.88
741.45	244.50
741.78	244.04
742.11	243.80
742.44	243.38
742.77	243.08
743.10	242.75
743.43	242.40
743.75	241.86
744.08	241.78
744.41	241.44
744.74	241.08
745.07	240.71
745.40	240.44
745.73	240.19
746.06	239.92
746.39	239.68
746.71	239.34
747.04	239.02
747.37	238.72
747.70	238.44
748.03	238.17
748.36	237.96
748.68	237.68
749.01	237.36
749.34	237.13
749.67	236.82
750.00	236.59
750.33	236.47
750.65	236.21
750.98	235.69
751.31	235.47
751.64	235.29
751.97	235.19
752.29	234.91
752.62	234.61
752.95	234.32
753.28	234.05
753.60	233.84
753.93	233.69
754.26	233.48
754.59	233.23
754.91	232.98
755.24	232.74
755.57	232.52
755.90	232.27
756.22	232.00
756.55	231.75
756.88	231.49
757.20	231.11
757.53	230.89
757.86	230.68
758.19	230.49
758.51	230.30
758.84	230.02
759.17	229.83
759.49	229.64
759.82	229.59
760.15	229.45
760.47	229.25
760.80	229.03
761.13	228.88
761.45	228.69
761.78	228.53
762.11	228.37
762.43	228.17
762.76	228.00
763.08	227.90
763.41	227.78
763.74	227.65
764.06	227.52
764.39	227.35
764.71	227.20
765.04	227.00
765.37	226.81
765.69	226.70
766.02	226.55
766.34	226.40
766.67	226.18
767.00	226.10
767.32	226.08
767.65	226.03
767.97	225.89
768.30	225.78
768.62	225.65
768.95	225.50
769.27	225.40
769.60	225.31
769.92	225.15
770.25	224.99
770.57	224.82
770.90	224.72
771.22	224.59
771.55	224.51
771.87	224.44
772.20	224.34
772.52	224.37
772.85	224.53
773.17	224.43
773.50	224.32
773.82	224.15
774.15	223.92
774.47	223.69
774.80	223.61
775.12	223.52
775.45	223.46
775.77	223.35
776.09	223.29
776.42	223.24
776.74	223.22
777.07	223.10
777.39	223.03
777.72	222.94
778.04	222.93
778.36	222.82
778.69	222.74
779.01	222.67
779.33	222.41
779.66	222.07
779.98	221.99
780.31	221.93
780.63	221.95
780.95	221.94
781.28	221.87
781.60	221.80
781.92	221.73
782.25	221.67
782.57	221.62
782.89	221.55
783.22	221.44
783.54	221.32
783.86	221.30
784.19	221.22
784.51	221.21
784.83	221.12
785.16	221.08
785.48	221.03
785.80	220.95
786.12	220.93
786.45	220.86
786.77	220.82
787.09	220.76
787.42	220.62
787.74	220.58
788.06	220.58
788.38	220.47
788.71	220.39
789.03	220.33
789.35	220.30
789.67	220.20
789.99	220.16
790.32	220.11
790.64	220.09
790.96	220.20
791.28	220.09
791.61	220.00
791.93	219.98
792.25	219.94
792.57	220.03
792.89	219.95
793.21	219.94
793.54	219.85
793.86	219.77
794.18	219.76
794.50	219.66
794.82	219.57
795.14	219.59
795.47	219.61
795.79	219.59
796.11	219.53
796.43	219.49
796.75	219.47
797.07	219.41
797.39	219.36
797.71	219.21
798.04	219.19
798.36	219.18
798.68	219.09
799.00	219.08
799.32	218.94
799.64	218.93
799.96	218.91
800.28	218.93
800.60	218.88
800.92	218.84
801.24	218.82
801.56	218.83
801.89	218.74
802.21	218.68
802.53	218.63
802.85	218.63
803.17	218.70
803.49	218.57
803.81	218.54
804.13	218.46
804.45	218.40
804.77	218.40
805.09	218.37
805.41	218.35
805.73	218.28
806.05	218.21
806.37	218.18
806.69	218.12
807.01	218.06
807.33	218.05
807.65	217.95
807.97	217.99
808.28	217.94
808.60	217.94
808.92	217.89
809.24	217.93
809.56	217.86
809.88	217.75
810.20	217.77
810.52	217.80
810.84	217.80
811.16	217.73
811.48	217.66
811.80	217.69
812.12	217.65
812.43	217.64
812.75	217.61
813.07	217.55
813.39	217.57
813.71	217.53
814.03	217.45
814.35	217.43
814.67	217.34
814.98	217.30
815.30	217.27
815.62	217.24
815.94	217.11
816.26	217.10
816.58	217.05
816.89	217.03
817.21	216.93
817.53	216.94
817.85	216.94
818.17	216.92
818.48	216.85
818.80	216.88
819.12	216.83
819.44	216.80
819.76	216.77
820.07	216.72
820.39	216.69
820.71	216.70
821.03	216.67
821.34	216.64
821.66	216.64
821.98	216.63
822.30	216.60
822.61	216.73
822.93	216.66
823.25	216.66
823.57	216.63
823.88	216.68
824.20	216.64
824.52	216.66
824.83	216.63
825.15	216.57
825.47	216.51
825.79	216.53
826.10	216.48
826.42	216.48
826.74	216.48
827.05	216.47
827.37	216.49
827.69	216.52
828.00	216.49
828.32	216.46
828.64	216.45
828.95	216.57
829.27	216.47
829.58	216.47
829.90	216.49
830.22	216.50
830.53	216.43
830.85	216.40
831.17	216.36
831.48	216.36
831.80	216.38
832.11	216.37
832.43	216.35
832.75	216.33
833.06	216.46
833.38	216.37
833.69	216.35
834.01	216.38
834.32	216.36
834.64	216.37
834.96	216.38
835.27	216.38
835.59	216.23
835.90	216.20
836.22	216.19
836.53	216.14
836.85	216.14
837.16	216.32
837.48	216.32
837.79	216.40
838.11	216.42
838.42	216.42
838.74	216.45
839.05	216.40
839.37	216.43
839.68	216.27
840.00	216.29
840.31	216.32
840.63	216.27
840.94	216.25
841.26	216.20
841.57	216.17
841.88	216.19
842.20	216.18
842.51	216.17
842.83	216.18
843.14	216.34
843.46	216.35
843.77	216.24
844.08	216.22
844.40	216.13
844.71	216.11
845.03	216.08
845.34	216.05
845.65	216.07
845.97	216.06
846.28	216.09
846.60	216.11
846.91	216.09
847.22	216.06
847.54	216.09
847.85	216.07
848.16	216.10
848.48	216.06
848.79	216.15
849.10	216.17
849.42	216.16
849.73	215.99
850.04	215.96
850.36	215.88
850.67	215.90
850.98	215.91
851.30	215.91
851.61	215.91
851.92	215.93
852.23	215.99
852.55	216.00
852.86	215.99
853.17	215.98
853.49	215.99
853.80	216.03
854.11	216.01
854.42	216.08
854.74	216.03
855.05	216.02
855.36	215.88
855.67	215.86
855.99	215.86
856.30	216.08
856.61	216.06
856.92	216.04
857.23	216.04
857.55	216.01
857.86	215.96
858.17	215.97
858.48	215.93
858.79	215.87
859.11	215.86
859.42	215.85
859.73	215.84
860.04	215.84
860.35	215.77
860.66	215.73
860.98	215.69
861.29	215.69
861.60	215.68
861.91	215.75
862.22	215.69
862.53	215.68
862.84	215.45
863.16	215.52
863.47	215.48
863.78	215.50
864.09	215.51
864.40	215.51
864.71	215.50
865.02	215.54
865.33	215.52
865.64	215.48
865.95	215.47
866.27	215.59
866.58	215.56
866.89	215.59
867.20	215.58
867.51	215.57
867.82	215.58
868.13	215.63
868.44	215.59
868.75	215.66
869.06	215.68
869.37	215.68
869.68	215.58
869.99	215.64
870.30	215.62
870.61	215.63
870.92	215.60
871.23	215.59
871.54	215.61
871.85	215.66
872.16	215.71
872.47	215.65
872.78	215.52
873.09	215.58
873.40	215.54
873.71	215.57
874.02	215.57
874.33	215.56
874.64	215.53
874.95	215.54
875.26	215.49
875.56	215.45
875.87	215.46
876.18	215.47
876.49	215.66
876.80	215.63
877.11	215.61
877.42	215.63
877.73	215.62
878.04	215.57
878.35	215.57
878.66	215.58
878.96	215.64
879.27	215.63
879.58	215.59
879.89	215.61
880.20	215.65
880.51	215.67
880.82	215.66
881.12	215.67
881.43	215.65
881.74	215.63
882.05	215.64
882.36	215.65
882.67	215.64
882.97	215.44
883.28	215.41
883.59	215.41
883.90	215.44
884.21	215.46
884.51	215.47
884.82	215.44
885.13	215.43
885.44	215.41
885.74	215.40
886.05	215.38
886.36	215.37
886.67	215.32
886.98	215.39
887.28	215.43
887.59	215.40
887.90	215.43
888.20	215.41
888.51	215.47
888.82	215.44
889.13	215.48
889.43	215.68
889.74	215.69
890.05	215.64
890.35	215.63
890.66	215.60
890.97	215.58
891.28	215.53
891.58	215.52
891.89	215.54
892.20	215.51
892.50	215.51
892.81	215.49
893.12	215.50
893.42	215.41
893.73	215.40
894.04	215.43
894.34	215.39
894.65	215.41
894.95	215.38
895.26	215.38
895.57	215.45
895.87	215.25
896.18	215.28
896.48	215.34
896.79	215.34
897.10	215.37
897.40	215.37
897.71	215.42
898.01	215.41
898.32	215.43
898.63	215.42
898.93	215.45
899.24	215.47
899.54	215.45
899.85	215.41
900.15	215.41
900.46	215.37
900.76	215.38
901.07	215.38
901.38	215.36
901.68	215.37
901.99	215.29
902.29	215.27
902.60	215.26
902.90	215.21
903.21	215.18
903.51	215.16
903.82	215.21
904.12	215.19
904.43	215.21
904.73	215.18
905.03	215.21
905.34	215.40
905.64	215.37
905.95	215.38
906.25	215.42
906.56	215.41
906.86	215.43
907.17	215.45
907.47	215.47
907.77	215.46
908.08	215.44
908.38	215.44
908.69	215.46
908.99	215.49
909.30	215.51
909.60	215.51
909.90	215.51
910.21	215.44
910.51	215.41
910.81	215.42
911.12	215.44
911.42	215.44
911.73	215.19
912.03	215.21
912.33	215.24
912.64	215.22
912.94	215.16
913.24	215.12
913.55	215.11
913.85	215.07
914.15	215.13
914.46	215.13
914.76	215.11
915.06	215.08
915.37	215.06
915.67	215.05
915.97	215.06
916.27	215.03
916.58	215.07
916.88	215.06
917.18	215.02
917.49	215.15
917.79	215.13
918.09	215.18
918.39	215.22
918.70	215.18
919.00	215.17
919.30	215.29
919.60	215.28
919.91	215.23
920.21	215.27
920.51	215.20
920.81	215.19
921.12	215.22
921.42	215.24
921.72	215.25
922.02	215.27
922.32	215.27
922.63	215.27
922.93	215.36
923.23	215.34
923.53	215.32
923.83	215.18
924.13	215.19
924.44	215.21
924.74	215.24
925.04	215.34
925.34	215.34
925.64	215.24
925.94	215.22
926.24	215.33
926.55	215.28
926.85	215.31
927.15	215.30
927.45	215.31
927.75	215.33
928.05	215.29
928.35	215.27
928.65	215.32
928.95	215.32
929.26	215.25
929.56	215.29
929.86	215.31
930.16	215.30
930.46	215.28
930.76	215.30
931.06	215.20
931.36	215.11
931.66	215.17
931.96	215.21
932.26	215.26
932.56	215.19
932.86	215.19
933.16	215.19
933.46	215.19
933.76	215.15
934.06	215.16
934.36	215.25
934.66	215.23
934.96	215.22
935.26	215.25
935.56	215.26
935.86	215.23
936.16	215.22
936.46	215.19
936.76	215.19
937.06	215.12
937.36	215.17
937.66	215.18
937.96	215.15
938.26	215.09
938.56	215.06
938.86	215.06
939.16	215.13
939.46	215.16
939.76	215.19
940.06	215.18
940.35	215.13
940.65	215.01
940.95	215.05
941.25	215.01
941.55	214.97
941.85	214.95
942.15	215.02
942.45	215.08
942.75	215.05
943.04	215.07
943.34	215.09
943.64	215.06
943.94	215.02
944.24	215.01
944.54	215.02
944.84	215.04
945.13	215.02
945.43	214.95
945.73	214.96
946.03	214.93
946.33	214.90
946.62	214.89
946.92	214.92
947.22	214.90
947.52	214.90
947.82	214.94
948.11	214.90
948.41	214.84
948.71	214.78
949.01	214.83
949.31	214.81
949.60	214.81
949.90	214.84
950.20	214.82
950.50	214.85
950.79	214.82
951.09	214.84
951.39	214.84
951.69	214.85
951.98	214.86
952.28	214.87
952.58	214.90
952.87	214.90
953.17	214.94
953.47	214.93
953.76	214.97
954.06	214.92
954.36	214.90
954.66	214.92
954.95	214.98
955.25	215.03
955.55	215.03
955.84	215.00
956.14	215.03
956.44	215.06
956.73	215.02
957.03	215.05
957.32	215.04
957.62	215.05
957.92	215.09
958.21	215.07
958.51	215.33
958.81	215.36
959.10	215.36
959.40	215.42
959.69	215.42
959.99	215.40
960.29	215.42
960.58	215.45
960.88	215.49
961.17	215.45
961.47	215.45
961.76	215.41
962.06	215.48
962.36	215.46
962.65	215.44
962.95	215.48
963.24	215.42
963.54	215.45
963.83	215.43
964.13	215.41
964.42	215.35
964.72	215.17
965.01	215.18
965.31	215.16
965.60	215.07
965.90	215.22
966.19	215.19
966.49	215.20
966.78	215.20
967.08	215.18
967.37	215.18
967.67	215.16
967.96	215.21
968.26	215.18
968.55	215.19
968.85	215.21
969.14	215.17
969.43	215.18
969.73	215.14
970.02	215.17
970.32	215.19
970.61	215.20
970.91	215.12
971.20	215.08
971.49	215.06
971.79	215.07
972.08	214.91
972.38	214.94
972.67	214.92
972.96	214.94
973.26	214.91
973.55	214.95
973.85	214.93
974.14	214.90
974.43	214.91
974.73	214.91
975.02	214.89
975.31	214.91
975.61	214.92
975.90	214.91
976.19	214.86
976.49	214.84
976.78	214.83
977.07	214.82
977.37	214.86
977.66	214.93
977.95	214.94
978.24	214.98
978.54	215.01
978.83	214.99
979.12	214.97
979.42	214.95
979.71	214.90
980.00	214.91
980.29	214.93
980.59	214.87
980.88	214.90
981.17	214.88
981.46	214.90
981.76	214.93
982.05	214.98
982.34	215.00
982.63	215.02
982.93	215.06
983.22	215.15
983.51	215.13
983.80	215.12
984.09	215.13
984.39	215.11
984.68	215.08
984.97	215.12
985.26	215.12
985.55	215.18
985.85	215.16
986.14	215.20
986.43	215.24
986.72	215.24
987.01	215.16
987.30	215.19
987.59	215.15
987.89	215.16
988.18	215.09
988.47	215.08
988.76	215.09
989.05	215.08
989.34	215.00
989.63	215.07
989.92	215.04
990.22	215.01
990.51	215.00
990.80	214.98
991.09	214.99
991.38	214.99
991.67	214.94
991.96	214.91
992.25	214.89
992.54	214.83
992.83	214.82
993.12	214.82
993.41	214.86
993.70	214.95
993.99	214.95
994.28	215.01
994.58	215.01
994.87	214.98
995.16	214.97
995.45	214.98
995.74	214.88
996.03	214.92
996.32	214.92
996.61	214.97
996.90	214.96
997.19	214.95
997.48	214.96
997.77	214.95
998.06	214.97
998.34	214.97
998.63	214.97
998.92	214.99
999.21	215.04
999.50	215.04
999.79	214.95
1000.08	214.96
1000.37	214.95
1000.66	214.93
1000.95	214.97
1001.24	214.94
1001.53	214.99
1001.82	214.98
1002.11	214.91
1002.40	214.98
1002.68	215.02
1002.97	215.19
1003.26	215.14
1003.55	215.12
1003.84	215.11
1004.13	215.21
1004.42	215.19
1004.71	215.20
1004.99	215.21
1005.28	215.25
1005.57	215.24
1005.86	215.22
1006.15	215.20
1006.44	215.17
1006.72	215.24
1007.01	215.22
1007.30	215.26
1007.59	215.21
1007.88	215.24
1008.17	215.29
1008.45	215.25
1008.74	215.16
1009.03	215.05
1009.32	215.07
1009.60	215.07
1009.89	215.08
1010.18	214.98
1010.47	214.98
1010.76	214.96
1011.04	214.97
1011.33	214.98
1011.62	215.00
1011.91	215.05
1012.19	215.05
1012.48	215.08
1012.77	215.07
1013.05	215.20
1013.34	215.18
1013.63	215.19
1013.92	215.20
1014.20	215.16
1014.49	215.13
1014.78	215.14
1015.06	215.09
1015.35	215.10
1015.64	215.11
1015.92	215.14
1016.21	215.13
1016.50	215.14
1016.78	215.15
1017.07	215.16
1017.36	215.10
1017.64	215.05
1017.93	215.09
1018.22	215.07
1018.50	215.02
1018.79	214.98
1019.08	214.83
1019.36	214.85
1019.65	214.84
1019.93	214.88
1020.22	214.91
1020.51	215.05
1020.79	215.05
1021.08	214.46
1021.36	214.29
1021.65	214.42
1021.94	214.68
1022.22	215.30
1022.51	214.86
1022.79	215.73
1023.08	215.34
1023.36	217.67
1023.65	214.58
>>>>>End Processed Spectral Data<<<<<
