SpectraSuite Data File
++++++++++++++++++++++++++++++++++++
Date: Tue Jan 29 16:56:55 EST 2013
User: group
Dark Spectrum Present: No
Reference Spectrum Present: No
Number of Sampled Component Spectra: 1
Spectrometers: USB2E7196
Integration Time (usec): 65000 (USB2E7196)
Spectra Averaged: 100 (USB2E7196)
Boxcar Smoothing: 10 (USB2E7196)
Correct for Electrical Dark: No (USB2E7196)
Strobe/Lamp Enabled: No (USB2E7196)
Correct for Detector Non-linearity: No (USB2E7196)
Correct for Stray Light: No (USB2E7196)
Number of Pixels in Processed Spectrum: 2048
>>>>>Begin Processed Spectral Data<<<<<
339.09	0.00
339.48	201.12
339.86	202.35
340.24	204.14
340.63	205.21
341.01	210.56
341.39	208.46
341.78	209.76
342.16	211.29
342.54	211.48
342.93	200.64
343.31	210.78
343.69	211.36
344.07	211.86
344.46	212.32
344.84	212.74
345.22	212.91
345.60	213.20
345.99	213.42
346.37	213.56
346.75	213.69
347.13	213.75
347.52	213.83
347.90	213.97
348.28	214.01
348.66	214.11
349.05	214.07
349.43	214.14
349.81	214.21
350.19	214.29
350.57	214.41
350.96	214.49
351.34	214.59
351.72	214.69
352.10	214.82
352.48	214.88
352.87	214.95
353.25	214.99
353.63	215.03
354.01	215.12
354.39	215.20
354.77	215.26
355.15	215.39
355.54	215.43
355.92	215.40
356.30	215.51
356.68	215.71
357.06	215.80
357.44	215.83
357.82	215.90
358.20	215.99
358.58	216.02
358.97	216.09
359.35	216.23
359.73	216.30
360.11	216.36
360.49	216.40
360.87	216.43
361.25	216.51
361.63	216.63
362.01	216.66
362.39	216.68
362.77	216.74
363.15	216.76
363.53	216.78
363.91	216.86
364.29	216.85
364.67	216.69
365.05	216.74
365.43	216.78
365.81	216.80
366.19	216.87
366.57	216.96
366.95	216.93
367.33	216.86
367.71	216.87
368.09	216.88
368.47	216.90
368.85	216.88
369.23	216.91
369.61	216.83
369.99	216.87
370.37	216.91
370.75	217.00
371.13	216.94
371.51	216.90
371.89	216.90
372.27	216.88
372.65	216.90
373.03	216.88
373.41	216.82
373.78	216.76
374.16	216.62
374.54	216.49
374.92	216.46
375.30	216.42
375.68	216.33
376.06	216.31
376.44	216.23
376.82	216.23
377.19	216.18
377.57	216.14
377.95	216.01
378.33	215.93
378.71	215.77
379.09	215.75
379.47	215.74
379.84	215.65
380.22	215.58
380.60	215.46
380.98	215.39
381.36	215.35
381.73	215.30
382.11	215.33
382.49	215.32
382.87	215.25
383.25	215.20
383.62	215.42
384.00	215.29
384.38	215.28
384.76	215.26
385.13	215.31
385.51	215.27
385.89	215.21
386.27	215.18
386.64	215.15
387.02	215.08
387.40	215.04
387.78	215.03
388.15	215.04
388.53	215.01
388.91	214.96
389.29	214.91
389.66	214.91
390.04	214.85
390.42	214.89
390.79	214.88
391.17	214.91
391.55	214.66
391.92	214.67
392.30	214.68
392.68	214.64
393.05	214.61
393.43	214.60
393.81	214.62
394.18	214.59
394.56	214.58
394.94	214.65
395.31	214.65
395.69	214.68
396.06	214.72
396.44	214.74
396.82	214.79
397.19	214.93
397.57	214.97
397.95	215.03
398.32	214.98
398.70	215.00
399.07	215.04
399.45	215.09
399.82	215.15
400.20	215.18
400.58	215.25
400.95	215.25
401.33	215.34
401.70	215.53
402.08	215.62
402.45	215.72
402.83	215.86
403.20	215.96
403.58	216.09
403.95	216.22
404.33	216.40
404.71	216.55
405.08	216.80
405.46	216.97
405.83	217.15
406.21	217.36
406.58	217.63
406.96	217.83
407.33	218.09
407.70	218.36
408.08	218.87
408.45	219.19
408.83	219.60
409.20	219.97
409.58	220.27
409.95	220.71
410.33	221.22
410.70	221.65
411.08	222.23
411.45	222.78
411.82	223.36
412.20	224.01
412.57	224.81
412.95	225.36
413.32	226.17
413.69	227.01
414.07	227.91
414.44	228.93
414.82	229.96
415.19	231.16
415.56	232.34
415.94	233.52
416.31	234.97
416.68	236.37
417.06	237.96
417.43	239.53
417.81	241.33
418.18	243.10
418.55	245.08
418.93	247.12
419.30	249.26
419.67	251.51
420.04	253.79
420.42	256.22
420.79	259.10
421.16	261.89
421.54	264.81
421.91	267.84
422.28	270.93
422.66	274.29
423.03	277.55
423.40	280.99
423.77	284.61
424.15	288.29
424.52	292.16
424.89	296.36
425.26	300.42
425.64	304.33
426.01	308.68
426.38	313.16
426.75	317.74
427.13	322.50
427.50	327.50
427.87	332.77
428.24	337.97
428.61	342.96
428.99	348.53
429.36	354.59
429.73	360.50
430.10	366.37
430.47	372.43
430.85	378.75
431.22	385.48
431.59	392.61
431.96	399.48
432.33	407.02
432.70	414.34
433.08	422.91
433.45	430.98
433.82	439.03
434.19	448.04
434.56	456.80
434.93	465.17
435.30	473.50
435.68	482.64
436.05	491.71
436.42	500.71
436.79	508.93
437.16	517.78
437.53	527.14
437.90	536.43
438.27	545.44
438.64	554.75
439.01	563.32
439.38	570.95
439.75	578.31
440.13	586.74
440.50	594.70
440.87	601.16
441.24	607.91
441.61	615.26
441.98	620.58
442.35	626.95
442.72	633.30
443.09	639.40
443.46	643.21
443.83	645.76
444.20	647.96
444.57	651.18
444.94	652.62
445.31	654.09
445.68	655.51
446.05	656.13
446.42	655.39
446.79	654.51
447.16	653.43
447.53	652.75
447.90	649.50
448.27	646.29
448.64	641.67
449.01	638.38
449.37	632.51
449.74	626.84
450.11	619.92
450.48	612.52
450.85	605.00
451.22	598.46
451.59	592.28
451.96	586.42
452.33	578.47
452.70	571.35
453.07	562.80
453.43	554.12
453.80	545.83
454.17	537.71
454.54	530.02
454.91	521.81
455.28	513.67
455.65	506.14
456.02	498.55
456.38	492.19
456.75	484.19
457.12	477.48
457.49	470.88
457.86	464.62
458.23	459.19
458.59	453.23
458.96	447.12
459.33	441.78
459.70	436.33
460.07	432.02
460.43	427.07
460.80	422.45
461.17	418.40
461.54	414.15
461.91	410.11
462.27	406.01
462.64	402.54
463.01	398.72
463.38	395.00
463.74	391.26
464.11	388.00
464.48	385.15
464.85	382.09
465.21	379.67
465.58	377.03
465.95	373.87
466.32	371.25
466.68	368.73
467.05	366.09
467.42	363.54
467.78	360.80
468.15	358.23
468.52	356.30
468.88	353.77
469.25	351.52
469.62	349.74
469.98	347.75
470.35	345.90
470.72	344.20
471.08	342.41
471.45	340.88
471.82	339.30
472.18	337.58
472.55	336.34
472.92	334.91
473.28	333.65
473.65	332.49
474.02	331.34
474.38	330.41
474.75	329.65
475.11	328.81
475.48	328.21
475.85	327.73
476.21	327.23
476.58	326.89
476.94	326.63
477.31	326.28
477.67	326.02
478.04	325.84
478.41	325.78
478.77	325.90
479.14	325.78
479.50	325.87
479.87	326.15
480.23	326.42
480.60	326.68
480.96	326.95
481.33	327.54
481.69	328.13
482.06	328.60
482.42	329.09
482.79	329.71
483.15	330.53
483.52	331.46
483.88	332.33
484.25	333.25
484.61	334.28
484.98	335.35
485.34	336.69
485.71	338.05
486.07	339.51
486.44	340.82
486.80	342.49
487.17	344.19
487.53	346.03
487.90	347.93
488.26	349.92
488.62	352.08
488.99	354.12
489.35	356.29
489.72	358.69
490.08	361.22
490.44	363.75
490.81	366.42
491.17	369.11
491.54	372.09
491.90	375.13
492.26	378.39
492.63	381.81
492.99	385.27
493.36	388.93
493.72	392.80
494.08	396.80
494.45	400.98
494.81	405.27
495.17	409.67
495.54	414.35
495.90	419.17
496.26	424.08
496.63	429.19
496.99	434.54
497.35	440.10
497.72	445.89
498.08	451.80
498.44	457.90
498.80	464.30
499.17	470.81
499.53	477.49
499.89	484.33
500.26	491.27
500.62	498.33
500.98	505.69
501.34	513.13
501.71	520.81
502.07	528.59
502.43	536.59
502.79	544.71
503.16	553.09
503.52	561.69
503.88	570.39
504.24	579.41
504.60	588.43
504.97	597.68
505.33	606.88
505.69	616.72
506.05	626.56
506.41	636.43
506.78	646.38
507.14	656.52
507.50	666.91
507.86	677.53
508.22	688.23
508.59	698.85
508.95	709.91
509.31	721.11
509.67	732.52
510.03	743.95
510.39	755.61
510.75	767.34
511.12	779.13
511.48	791.16
511.84	803.32
512.20	815.63
512.56	828.18
512.92	840.99
513.28	853.60
513.64	866.22
514.00	878.94
514.37	891.94
514.73	905.07
515.09	918.00
515.45	930.92
515.81	943.98
516.17	957.38
516.53	970.51
516.89	983.55
517.25	996.79
517.61	1010.27
517.97	1023.75
518.33	1036.89
518.69	1050.50
519.05	1064.19
519.41	1077.93
519.77	1091.82
520.13	1105.10
520.49	1118.22
520.85	1131.58
521.21	1144.96
521.57	1158.66
521.93	1171.68
522.29	1185.35
522.65	1199.03
523.01	1212.65
523.37	1225.88
523.73	1239.25
524.09	1252.53
524.45	1266.07
524.81	1279.56
525.17	1293.04
525.53	1306.24
525.89	1319.62
526.25	1332.81
526.61	1345.79
526.97	1358.79
527.33	1371.81
527.68	1385.28
528.04	1398.83
528.40	1412.10
528.76	1425.60
529.12	1438.57
529.48	1452.00
529.84	1464.37
530.20	1477.17
530.56	1489.82
530.91	1503.12
531.27	1515.98
531.63	1528.53
531.99	1541.32
532.35	1553.57
532.71	1565.90
533.07	1578.77
533.42	1591.07
533.78	1603.28
534.14	1615.20
534.50	1626.60
534.86	1638.20
535.21	1649.07
535.57	1660.71
535.93	1672.02
536.29	1683.02
536.65	1694.57
537.00	1705.63
537.36	1717.12
537.72	1728.21
538.08	1739.70
538.44	1750.59
538.79	1761.64
539.15	1772.91
539.51	1783.78
539.87	1795.23
540.22	1806.03
540.58	1817.08
540.94	1828.12
541.29	1838.34
541.65	1848.32
542.01	1858.77
542.37	1868.97
542.72	1879.17
543.08	1888.88
543.44	1899.17
543.79	1908.63
544.15	1918.02
544.51	1927.93
544.87	1937.89
545.22	1947.09
545.58	1955.94
545.94	1965.02
546.29	1973.61
546.65	1982.11
547.01	1990.33
547.36	1997.92
547.72	2005.70
548.07	2013.21
548.43	2020.89
548.79	2028.83
549.14	2037.05
549.50	2045.63
549.86	2053.49
550.21	2060.96
550.57	2068.91
550.92	2075.95
551.28	2083.49
551.64	2090.76
551.99	2098.22
552.35	2105.22
552.70	2112.22
553.06	2119.10
553.41	2125.40
553.77	2131.86
554.13	2138.09
554.48	2145.05
554.84	2152.29
555.19	2159.02
555.55	2165.45
555.90	2171.68
556.26	2178.58
556.61	2184.78
556.97	2189.57
557.32	2195.24
557.68	2201.81
558.03	2207.41
558.39	2212.75
558.74	2218.60
559.10	2224.21
559.45	2229.77
559.81	2235.46
560.16	2241.02
560.52	2246.65
560.87	2252.78
561.23	2258.63
561.58	2265.27
561.94	2270.64
562.29	2275.15
562.64	2280.94
563.00	2286.58
563.35	2292.14
563.71	2297.61
564.06	2303.26
564.42	2309.07
564.77	2314.14
565.12	2319.24
565.48	2324.14
565.83	2329.36
566.19	2334.65
566.54	2339.82
566.89	2344.42
567.25	2348.70
567.60	2354.27
567.96	2359.29
568.31	2363.92
568.66	2368.32
569.02	2372.05
569.37	2375.71
569.72	2379.97
570.08	2383.39
570.43	2386.42
570.78	2389.51
571.14	2391.83
571.49	2394.66
571.84	2397.98
572.20	2400.74
572.55	2403.47
572.90	2405.77
573.26	2408.38
573.61	2410.92
573.96	2413.03
574.31	2414.83
574.67	2416.70
575.02	2417.08
575.37	2418.40
575.72	2418.88
576.08	2420.02
576.43	2420.01
576.78	2420.00
577.13	2421.31
577.49	2422.34
577.84	2423.07
578.19	2423.84
578.54	2424.32
578.90	2424.54
579.25	2424.44
579.60	2424.14
579.95	2423.37
580.30	2423.02
580.66	2422.30
581.01	2420.47
581.36	2417.74
581.71	2416.14
582.06	2414.76
582.42	2413.63
582.77	2411.10
583.12	2409.34
583.47	2407.68
583.82	2406.96
584.17	2405.73
584.53	2403.47
584.88	2401.07
585.23	2399.01
585.58	2396.72
585.93	2394.56
586.28	2392.40
586.63	2389.50
586.98	2387.09
587.34	2384.76
587.69	2382.20
588.04	2379.88
588.39	2378.22
588.74	2375.59
589.09	2372.63
589.44	2369.13
589.79	2366.48
590.14	2364.21
590.49	2361.21
590.84	2357.19
591.19	2353.73
591.54	2350.46
591.89	2346.35
592.25	2343.02
592.60	2338.88
592.95	2334.68
593.30	2330.48
593.65	2325.85
594.00	2321.49
594.35	2318.46
594.70	2313.80
595.05	2309.29
595.40	2303.83
595.75	2297.91
596.10	2294.24
596.45	2289.33
596.80	2284.70
597.15	2279.48
597.50	2273.70
597.85	2268.62
598.19	2263.51
598.54	2257.60
598.89	2252.02
599.24	2247.34
599.59	2241.36
599.94	2235.27
600.29	2229.12
600.64	2222.95
600.99	2216.14
601.34	2210.50
601.69	2203.40
602.04	2196.97
602.39	2190.14
602.74	2183.89
603.08	2178.34
603.43	2171.86
603.78	2165.05
604.13	2158.16
604.48	2150.85
604.83	2144.71
605.18	2138.64
605.53	2131.87
605.87	2124.96
606.22	2118.27
606.57	2110.43
606.92	2102.20
607.27	2095.36
607.62	2088.93
607.96	2082.13
608.31	2075.92
608.66	2068.25
609.01	2060.66
609.36	2053.57
609.70	2046.00
610.05	2038.21
610.40	2029.82
610.75	2021.29
611.10	2013.56
611.44	2004.60
611.79	1996.09
612.14	1986.25
612.49	1975.42
612.83	1965.74
613.18	1956.39
613.53	1947.10
613.88	1937.54
614.22	1929.03
614.57	1919.21
614.92	1908.59
615.27	1898.29
615.61	1887.87
615.96	1878.20
616.31	1868.65
616.65	1859.05
617.00	1849.56
617.35	1840.04
617.70	1830.37
618.04	1820.72
618.39	1810.65
618.74	1801.09
619.08	1791.46
619.43	1782.87
619.78	1774.75
620.12	1766.43
620.47	1757.07
620.82	1746.80
621.16	1737.16
621.51	1727.46
621.85	1717.76
622.20	1707.56
622.55	1697.23
622.89	1687.42
623.24	1677.89
623.59	1668.13
623.93	1658.35
624.28	1648.61
624.62	1638.68
624.97	1628.63
625.32	1618.79
625.66	1609.84
626.01	1601.25
626.35	1592.10
626.70	1582.05
627.04	1572.25
627.39	1562.08
627.73	1552.98
628.08	1544.32
628.43	1534.85
628.77	1525.67
629.12	1516.82
629.46	1509.11
629.81	1500.93
630.15	1491.74
630.50	1482.16
630.84	1471.89
631.19	1462.06
631.53	1452.90
631.88	1442.91
632.22	1432.96
632.57	1423.62
632.91	1413.95
633.26	1404.10
633.60	1394.61
633.95	1385.49
634.29	1375.96
634.64	1366.91
634.98	1357.05
635.32	1347.89
635.67	1339.56
636.01	1330.37
636.36	1320.85
636.70	1311.48
637.05	1302.17
637.39	1293.50
637.73	1284.93
638.08	1277.46
638.42	1269.38
638.77	1260.65
639.11	1252.52
639.45	1245.00
639.80	1236.86
640.14	1228.05
640.49	1219.41
640.83	1210.63
641.17	1202.50
641.52	1194.46
641.86	1185.99
642.20	1178.20
642.55	1169.54
642.89	1160.81
643.23	1152.30
643.58	1144.21
643.92	1135.26
644.26	1126.70
644.61	1118.26
644.95	1109.50
645.29	1100.44
645.64	1091.35
645.98	1082.94
646.32	1075.04
646.66	1066.57
647.01	1058.29
647.35	1050.35
647.69	1042.16
648.04	1034.14
648.38	1025.38
648.72	1016.79
649.06	1008.44
649.41	1000.31
649.75	992.52
650.09	984.64
650.43	976.77
650.78	968.60
651.12	960.92
651.46	953.52
651.80	946.36
652.14	939.18
652.49	931.71
652.83	924.57
653.17	916.95
653.51	909.40
653.85	902.19
654.20	895.03
654.54	887.75
654.88	880.54
655.22	873.26
655.56	866.39
655.90	859.64
656.25	852.99
656.59	846.29
656.93	839.33
657.27	832.39
657.61	825.34
657.95	819.24
658.29	813.31
658.64	807.30
658.98	800.82
659.32	794.33
659.66	788.11
660.00	781.88
660.34	775.83
660.68	769.80
661.02	763.46
661.36	757.37
661.70	751.53
662.05	745.95
662.39	740.54
662.73	735.15
663.07	729.80
663.41	724.23
663.75	718.40
664.09	712.67
664.43	707.11
664.77	701.91
665.11	696.20
665.45	690.36
665.79	684.54
666.13	678.92
666.47	673.47
666.81	668.04
667.15	662.63
667.49	657.43
667.83	652.15
668.17	646.94
668.51	641.93
668.85	637.01
669.19	632.10
669.53	627.09
669.87	621.97
670.21	617.16
670.55	612.46
670.89	608.03
671.23	603.77
671.57	599.38
671.91	595.12
672.25	590.88
672.58	586.78
672.92	582.67
673.26	578.74
673.60	574.83
673.94	571.06
674.28	567.51
674.62	563.83
674.96	560.09
675.30	556.57
675.64	552.81
675.97	549.14
676.31	545.51
676.65	541.93
676.99	538.56
677.33	534.76
677.67	531.16
678.01	527.42
678.34	523.78
678.68	520.34
679.02	516.71
679.36	513.07
679.70	509.46
680.04	505.99
680.37	502.51
680.71	499.15
681.05	495.92
681.39	492.53
681.73	489.32
682.06	486.26
682.40	483.22
682.74	480.13
683.08	476.97
683.42	473.73
683.75	470.66
684.09	467.56
684.43	464.75
684.77	461.83
685.10	458.90
685.44	455.95
685.78	453.00
686.12	450.15
686.45	447.41
686.79	444.70
687.13	442.07
687.46	439.52
687.80	436.81
688.14	433.96
688.48	431.30
688.81	428.56
689.15	425.96
689.49	423.27
689.82	420.67
690.16	418.03
690.50	415.53
690.83	413.02
691.17	410.43
691.51	407.90
691.84	405.52
692.18	403.17
692.52	400.92
692.85	398.73
693.19	396.58
693.52	394.39
693.86	392.11
694.20	389.89
694.53	387.67
694.87	385.48
695.21	383.36
695.54	381.15
695.88	378.99
696.21	376.78
696.55	374.67
696.88	372.60
697.22	370.57
697.56	368.71
697.89	366.79
698.23	365.03
698.56	363.24
698.90	361.50
699.23	359.67
699.57	357.81
699.90	355.97
700.24	354.11
700.58	352.37
700.91	350.72
701.25	349.09
701.58	347.45
701.92	345.84
702.25	344.23
702.59	342.61
702.92	341.05
703.26	339.44
703.59	337.88
703.93	336.58
704.26	335.17
704.60	333.64
704.93	332.09
705.26	330.54
705.60	329.02
705.93	327.44
706.27	326.09
706.60	324.81
706.94	323.58
707.27	322.18
707.61	320.79
707.94	319.39
708.27	317.93
708.61	316.49
708.94	315.09
709.28	313.76
709.61	312.53
709.94	311.34
710.28	310.13
710.61	308.98
710.95	307.55
711.28	306.51
711.61	305.35
711.95	304.28
712.28	303.07
712.61	301.90
712.95	300.89
713.28	299.83
713.61	298.65
713.95	297.45
714.28	296.45
714.61	295.42
714.95	294.42
715.28	293.37
715.61	292.31
715.95	291.34
716.28	290.35
716.61	289.38
716.95	288.31
717.28	287.37
717.61	286.34
717.94	285.41
718.28	284.30
718.61	283.39
718.94	282.49
719.27	281.62
719.61	280.79
719.94	279.91
720.27	278.92
720.60	278.07
720.94	277.25
721.27	276.43
721.60	275.69
721.93	274.94
722.27	274.27
722.60	273.59
722.93	272.88
723.26	272.19
723.59	271.47
723.93	270.83
724.26	270.16
724.59	269.58
724.92	268.96
725.25	268.44
725.59	267.83
725.92	267.26
726.25	266.71
726.58	266.11
726.91	265.47
727.24	264.92
727.57	264.35
727.91	263.73
728.24	263.17
728.57	262.59
728.90	262.07
729.23	261.41
729.56	261.02
729.89	260.45
730.22	259.88
730.55	259.31
730.89	258.80
731.22	258.32
731.55	257.75
731.88	257.23
732.21	256.61
732.54	256.04
732.87	255.52
733.20	254.97
733.53	254.48
733.86	254.01
734.19	253.54
734.52	253.08
734.85	252.78
735.18	252.27
735.51	251.87
735.84	251.41
736.17	251.06
736.50	250.49
736.83	250.36
737.16	249.98
737.49	249.57
737.82	249.14
738.15	248.72
738.48	248.33
738.81	247.91
739.14	247.54
739.47	247.13
739.80	246.73
740.13	246.42
740.46	246.00
740.79	245.60
741.12	245.18
741.45	244.81
741.78	244.37
742.11	244.10
742.44	243.71
742.77	243.37
743.10	242.97
743.43	242.60
743.75	242.02
744.08	241.92
744.41	241.58
744.74	241.23
745.07	240.83
745.40	240.49
745.73	240.20
746.06	239.84
746.39	239.57
746.71	239.23
747.04	238.84
747.37	238.52
747.70	238.25
748.03	237.98
748.36	237.72
748.68	237.42
749.01	237.09
749.34	236.80
749.67	236.53
750.00	236.27
750.33	236.16
750.65	235.88
750.98	235.34
751.31	235.08
751.64	234.84
751.97	234.74
752.29	234.52
752.62	234.23
752.95	233.99
753.28	233.70
753.60	233.43
753.93	233.25
754.26	233.02
754.59	232.73
754.91	232.44
755.24	232.21
755.57	231.94
755.90	231.70
756.22	231.47
756.55	231.23
756.88	230.99
757.20	230.65
757.53	230.39
757.86	230.18
758.19	229.99
758.51	229.79
758.84	229.47
759.17	229.24
759.49	229.06
759.82	228.98
760.15	228.83
760.47	228.66
760.80	228.44
761.13	228.31
761.45	228.11
761.78	227.95
762.11	227.77
762.43	227.58
762.76	227.37
763.08	227.22
763.41	227.06
763.74	226.90
764.06	226.73
764.39	226.52
764.71	226.36
765.04	226.17
765.37	226.02
765.69	225.88
766.02	225.75
766.34	225.62
766.67	225.37
767.00	225.25
767.32	225.24
767.65	225.23
767.97	225.10
768.30	224.99
768.62	224.87
768.95	224.71
769.27	224.58
769.60	224.51
769.92	224.34
770.25	224.17
770.57	224.02
770.90	223.90
771.22	223.81
771.55	223.73
771.87	223.61
772.20	223.45
772.52	223.51
772.85	223.64
773.17	223.48
773.50	223.41
773.82	223.27
774.15	223.05
774.47	222.84
774.80	222.70
775.12	222.64
775.45	222.54
775.77	222.48
776.09	222.38
776.42	222.30
776.74	222.28
777.07	222.17
777.39	222.09
777.72	221.98
778.04	221.92
778.36	221.79
778.69	221.75
779.01	221.69
779.33	221.41
779.66	221.09
779.98	221.00
780.31	220.91
780.63	220.91
780.95	220.86
781.28	220.77
781.60	220.68
781.92	220.58
782.25	220.49
782.57	220.40
782.89	220.34
783.22	220.21
783.54	220.10
783.86	220.07
784.19	220.00
784.51	220.00
784.83	219.90
785.16	219.82
785.48	219.76
785.80	219.68
786.12	219.67
786.45	219.61
786.77	219.54
787.09	219.50
787.42	219.37
787.74	219.33
788.06	219.28
788.38	219.20
788.71	219.12
789.03	219.09
789.35	219.03
789.67	218.94
789.99	218.91
790.32	218.84
790.64	218.79
790.96	218.92
791.28	218.80
791.61	218.77
791.93	218.75
792.25	218.68
792.57	218.83
792.89	218.71
793.21	218.67
793.54	218.66
793.86	218.57
794.18	218.51
794.50	218.40
794.82	218.36
795.14	218.39
795.47	218.36
795.79	218.32
796.11	218.25
796.43	218.18
796.75	218.14
797.07	218.09
797.39	218.03
797.71	217.83
798.04	217.80
798.36	217.77
798.68	217.73
799.00	217.73
799.32	217.55
799.64	217.58
799.96	217.56
800.28	217.54
800.60	217.52
800.92	217.55
801.24	217.54
801.56	217.55
801.89	217.45
802.21	217.42
802.53	217.32
802.85	217.36
803.17	217.43
803.49	217.39
803.81	217.32
804.13	217.29
804.45	217.22
804.77	217.18
805.09	217.12
805.41	217.07
805.73	216.96
806.05	216.91
806.37	216.84
806.69	216.79
807.01	216.72
807.33	216.71
807.65	216.59
807.97	216.65
808.28	216.55
808.60	216.56
808.92	216.54
809.24	216.69
809.56	216.61
809.88	216.53
810.20	216.52
810.52	216.54
810.84	216.47
811.16	216.43
811.48	216.39
811.80	216.49
812.12	216.45
812.43	216.46
812.75	216.42
813.07	216.38
813.39	216.38
813.71	216.33
814.03	216.27
814.35	216.25
814.67	216.13
814.98	216.10
815.30	216.06
815.62	216.00
815.94	215.85
816.26	215.85
816.58	215.78
816.89	215.80
817.21	215.73
817.53	215.76
817.85	215.77
818.17	215.76
818.48	215.64
818.80	215.68
819.12	215.63
819.44	215.59
819.76	215.55
820.07	215.52
820.39	215.50
820.71	215.49
821.03	215.45
821.34	215.44
821.66	215.46
821.98	215.44
822.30	215.43
822.61	215.53
822.93	215.46
823.25	215.45
823.57	215.39
823.88	215.44
824.20	215.39
824.52	215.43
824.83	215.40
825.15	215.35
825.47	215.33
825.79	215.32
826.10	215.29
826.42	215.26
826.74	215.27
827.05	215.25
827.37	215.25
827.69	215.23
828.00	215.23
828.32	215.21
828.64	215.16
828.95	215.25
829.27	215.17
829.58	215.17
829.90	215.21
830.22	215.21
830.53	215.12
830.85	215.09
831.17	214.99
831.48	214.98
831.80	214.97
832.11	214.94
832.43	214.92
832.75	214.88
833.06	215.02
833.38	214.94
833.69	214.94
834.01	214.96
834.32	214.97
834.64	214.92
834.96	214.92
835.27	214.89
835.59	214.80
835.90	214.77
836.22	214.76
836.53	214.71
836.85	214.71
837.16	214.91
837.48	214.92
837.79	215.01
838.11	215.02
838.42	215.01
838.74	215.02
839.05	215.00
839.37	215.04
839.68	214.90
840.00	214.90
840.31	214.92
840.63	214.85
840.94	214.83
841.26	214.80
841.57	214.79
841.88	214.82
842.20	214.79
842.51	214.72
842.83	214.72
843.14	214.90
843.46	214.87
843.77	214.76
844.08	214.73
844.40	214.63
844.71	214.61
845.03	214.61
845.34	214.59
845.65	214.55
845.97	214.48
846.28	214.50
846.60	214.49
846.91	214.46
847.22	214.50
847.54	214.51
847.85	214.52
848.16	214.46
848.48	214.42
848.79	214.50
849.10	214.54
849.42	214.52
849.73	214.32
850.04	214.33
850.36	214.25
850.67	214.30
850.98	214.32
851.30	214.32
851.61	214.30
851.92	214.29
852.23	214.37
852.55	214.42
852.86	214.41
853.17	214.43
853.49	214.47
853.80	214.46
854.11	214.49
854.42	214.52
854.74	214.52
855.05	214.54
855.36	214.44
855.67	214.43
855.99	214.44
856.30	214.69
856.61	214.67
856.92	214.66
857.23	214.62
857.55	214.59
857.86	214.56
858.17	214.59
858.48	214.58
858.79	214.55
859.11	214.57
859.42	214.57
859.73	214.51
860.04	214.49
860.35	214.45
860.66	214.39
860.98	214.38
861.29	214.40
861.60	214.39
861.91	214.41
862.22	214.39
862.53	214.37
862.84	214.11
863.16	214.18
863.47	214.16
863.78	214.15
864.09	214.18
864.40	214.23
864.71	214.21
865.02	214.22
865.33	214.22
865.64	214.18
865.95	214.18
866.27	214.35
866.58	214.33
866.89	214.33
867.20	214.33
867.51	214.29
867.82	214.29
868.13	214.36
868.44	214.32
868.75	214.37
869.06	214.37
869.37	214.39
869.68	214.31
869.99	214.34
870.30	214.35
870.61	214.34
870.92	214.28
871.23	214.28
871.54	214.29
871.85	214.29
872.16	214.31
872.47	214.30
872.78	214.14
873.09	214.16
873.40	214.15
873.71	214.18
874.02	214.22
874.33	214.19
874.64	214.12
874.95	214.16
875.26	214.09
875.56	214.06
875.87	214.05
876.18	214.05
876.49	214.22
876.80	214.21
877.11	214.21
877.42	214.24
877.73	214.24
878.04	214.21
878.35	214.22
878.66	214.21
878.96	214.20
879.27	214.22
879.58	214.20
879.89	214.17
880.20	214.20
880.51	214.16
880.82	214.16
881.12	214.17
881.43	214.14
881.74	214.11
882.05	214.09
882.36	214.07
882.67	214.07
882.97	213.87
883.28	213.83
883.59	213.79
883.90	213.79
884.21	213.81
884.51	213.81
884.82	213.78
885.13	213.74
885.44	213.74
885.74	213.72
886.05	213.71
886.36	213.73
886.67	213.66
886.98	213.73
887.28	213.75
887.59	213.75
887.90	213.76
888.20	213.75
888.51	213.82
888.82	213.79
889.13	213.81
889.43	214.01
889.74	214.02
890.05	214.02
890.35	213.96
890.66	213.95
890.97	213.96
891.28	213.94
891.58	213.98
891.89	213.96
892.20	213.95
892.50	213.93
892.81	213.92
893.12	213.93
893.42	213.86
893.73	213.87
894.04	213.81
894.34	213.85
894.65	213.86
894.95	213.85
895.26	213.88
895.57	213.97
895.87	213.76
896.18	213.79
896.48	213.80
896.79	213.82
897.10	213.84
897.40	213.83
897.71	213.86
898.01	213.80
898.32	213.81
898.63	213.79
898.93	213.81
899.24	213.81
899.54	213.80
899.85	213.79
900.15	213.75
900.46	213.80
900.76	213.79
901.07	213.78
901.38	213.73
901.68	213.77
901.99	213.65
902.29	213.66
902.60	213.65
902.90	213.65
903.21	213.64
903.51	213.63
903.82	213.69
904.12	213.69
904.43	213.77
904.73	213.74
905.03	213.80
905.34	213.99
905.64	213.95
905.95	213.92
906.25	213.94
906.56	213.94
906.86	213.92
907.17	213.90
907.47	213.91
907.77	213.92
908.08	213.85
908.38	213.90
908.69	213.93
908.99	213.94
909.30	213.97
909.60	213.98
909.90	214.00
910.21	213.91
910.51	213.90
910.81	213.87
911.12	213.91
911.42	213.89
911.73	213.69
912.03	213.72
912.33	213.78
912.64	213.79
912.94	213.79
913.24	213.74
913.55	213.75
913.85	213.76
914.15	213.80
914.46	213.84
914.76	213.78
915.06	213.73
915.37	213.70
915.67	213.68
915.97	213.69
916.27	213.63
916.58	213.65
916.88	213.64
917.18	213.63
917.49	213.78
917.79	213.76
918.09	213.82
918.39	213.87
918.70	213.89
919.00	213.85
919.30	213.97
919.60	214.01
919.91	213.98
920.21	213.98
920.51	213.95
920.81	213.93
921.12	213.98
921.42	213.98
921.72	214.03
922.02	214.05
922.32	214.06
922.63	214.07
922.93	214.20
923.23	214.20
923.53	214.17
923.83	214.01
924.13	214.03
924.44	213.98
924.74	214.03
925.04	214.05
925.34	214.08
925.64	213.96
925.94	213.95
926.24	214.07
926.55	214.03
926.85	214.03
927.15	214.03
927.45	214.03
927.75	214.06
928.05	214.03
928.35	214.05
928.65	214.09
928.95	214.09
929.26	213.97
929.56	214.02
929.86	214.08
930.16	214.07
930.46	214.03
930.76	214.06
931.06	213.95
931.36	213.89
931.66	213.91
931.96	213.94
932.26	213.96
932.56	213.88
932.86	213.93
933.16	213.92
933.46	213.88
933.76	213.85
934.06	213.89
934.36	213.96
934.66	213.89
934.96	213.87
935.26	213.89
935.56	213.90
935.86	213.83
936.16	213.77
936.46	213.78
936.76	213.77
937.06	213.72
937.36	213.74
937.66	213.76
937.96	213.73
938.26	213.69
938.56	213.64
938.86	213.65
939.16	213.69
939.46	213.73
939.76	213.75
940.06	213.73
940.35	213.71
940.65	213.59
940.95	213.64
941.25	213.58
941.55	213.56
941.85	213.61
942.15	213.63
942.45	213.71
942.75	213.72
943.04	213.75
943.34	213.86
943.64	213.84
943.94	213.79
944.24	213.80
944.54	213.80
944.84	213.83
945.13	213.77
945.43	213.70
945.73	213.65
946.03	213.64
946.33	213.62
946.62	213.56
946.92	213.55
947.22	213.56
947.52	213.57
947.82	213.57
948.11	213.51
948.41	213.51
948.71	213.42
949.01	213.43
949.31	213.41
949.60	213.33
949.90	213.37
950.20	213.38
950.50	213.39
950.79	213.37
951.09	213.41
951.39	213.45
951.69	213.44
951.98	213.53
952.28	213.56
952.58	213.58
952.87	213.59
953.17	213.64
953.47	213.62
953.76	213.62
954.06	213.59
954.36	213.57
954.66	213.57
954.95	213.65
955.25	213.63
955.55	213.65
955.84	213.64
956.14	213.66
956.44	213.68
956.73	213.66
957.03	213.69
957.32	213.68
957.62	213.69
957.92	213.72
958.21	213.66
958.51	213.88
958.81	213.92
959.10	213.97
959.40	214.00
959.69	214.00
959.99	214.02
960.29	214.02
960.58	214.00
960.88	214.06
961.17	214.01
961.47	214.04
961.76	213.99
962.06	214.02
962.36	213.96
962.65	213.96
962.95	213.98
963.24	213.94
963.54	213.93
963.83	213.91
964.13	213.91
964.42	213.86
964.72	213.72
965.01	213.69
965.31	213.66
965.60	213.63
965.90	213.75
966.19	213.70
966.49	213.73
966.78	213.75
967.08	213.71
967.37	213.76
967.67	213.73
967.96	213.80
968.26	213.77
968.55	213.83
968.85	213.81
969.14	213.81
969.43	213.80
969.73	213.80
970.02	213.80
970.32	213.77
970.61	213.79
970.91	213.71
971.20	213.69
971.49	213.68
971.79	213.68
972.08	213.55
972.38	213.56
972.67	213.54
972.96	213.53
973.26	213.51
973.55	213.52
973.85	213.50
974.14	213.47
974.43	213.48
974.73	213.43
975.02	213.41
975.31	213.44
975.61	213.46
975.90	213.43
976.19	213.41
976.49	213.43
976.78	213.43
977.07	213.42
977.37	213.43
977.66	213.45
977.95	213.40
978.24	213.44
978.54	213.49
978.83	213.49
979.12	213.51
979.42	213.49
979.71	213.47
980.00	213.46
980.29	213.51
980.59	213.47
980.88	213.54
981.17	213.54
981.46	213.51
981.76	213.50
982.05	213.59
982.34	213.60
982.63	213.59
982.93	213.61
983.22	213.66
983.51	213.69
983.80	213.72
984.09	213.75
984.39	213.70
984.68	213.68
984.97	213.68
985.26	213.68
985.55	213.69
985.85	213.67
986.14	213.71
986.43	213.72
986.72	213.73
987.01	213.67
987.30	213.69
987.59	213.68
987.89	213.69
988.18	213.63
988.47	213.59
988.76	213.60
989.05	213.60
989.34	213.57
989.63	213.60
989.92	213.58
990.22	213.54
990.51	213.58
990.80	213.56
991.09	213.59
991.38	213.60
991.67	213.63
991.96	213.56
992.25	213.57
992.54	213.52
992.83	213.50
993.12	213.50
993.41	213.48
993.70	213.57
993.99	213.59
994.28	213.62
994.58	213.69
994.87	213.65
995.16	213.64
995.45	213.59
995.74	213.51
996.03	213.52
996.32	213.58
996.61	213.60
996.90	213.62
997.19	213.58
997.48	213.61
997.77	213.58
998.06	213.63
998.34	213.60
998.63	213.59
998.92	213.61
999.21	213.66
999.50	213.65
999.79	213.56
1000.08	213.60
1000.37	213.57
1000.66	213.53
1000.95	213.61
1001.24	213.62
1001.53	213.65
1001.82	213.64
1002.11	213.59
1002.40	213.58
1002.68	213.64
1002.97	213.77
1003.26	213.76
1003.55	213.69
1003.84	213.69
1004.13	213.76
1004.42	213.75
1004.71	213.77
1004.99	213.76
1005.28	213.78
1005.57	213.79
1005.86	213.82
1006.15	213.74
1006.44	213.71
1006.72	213.72
1007.01	213.67
1007.30	213.67
1007.59	213.66
1007.88	213.68
1008.17	213.71
1008.45	213.66
1008.74	213.56
1009.03	213.47
1009.32	213.49
1009.60	213.49
1009.89	213.47
1010.18	213.37
1010.47	213.36
1010.76	213.34
1011.04	213.37
1011.33	213.37
1011.62	213.40
1011.91	213.37
1012.19	213.41
1012.48	213.40
1012.77	213.43
1013.05	213.55
1013.34	213.54
1013.63	213.51
1013.92	213.53
1014.20	213.50
1014.49	213.49
1014.78	213.53
1015.06	213.44
1015.35	213.42
1015.64	213.45
1015.92	213.48
1016.21	213.51
1016.50	213.51
1016.78	213.50
1017.07	213.49
1017.36	213.45
1017.64	213.41
1017.93	213.46
1018.22	213.44
1018.50	213.45
1018.79	213.43
1019.08	213.29
1019.36	213.32
1019.65	213.30
1019.93	213.37
1020.22	213.39
1020.51	213.52
1020.79	213.50
1021.08	213.38
1021.36	213.13
1021.65	213.71
1021.94	212.96
1022.22	213.80
1022.51	212.67
1022.79	214.61
1023.08	213.37
1023.36	215.89
1023.65	213.22
>>>>>End Processed Spectral Data<<<<<
