SpectraSuite Data File
++++++++++++++++++++++++++++++++++++
Date: Tue Jan 29 16:12:10 EST 2013
User: group
Dark Spectrum Present: No
Reference Spectrum Present: No
Number of Sampled Component Spectra: 1
Spectrometers: USB2E7196
Integration Time (usec): 65000 (USB2E7196)
Spectra Averaged: 100 (USB2E7196)
Boxcar Smoothing: 10 (USB2E7196)
Correct for Electrical Dark: No (USB2E7196)
Strobe/Lamp Enabled: No (USB2E7196)
Correct for Detector Non-linearity: No (USB2E7196)
Correct for Stray Light: No (USB2E7196)
Number of Pixels in Processed Spectrum: 2048
>>>>>Begin Processed Spectral Data<<<<<
339.09	0.00
339.48	201.79
339.86	203.34
340.24	205.25
340.63	206.51
341.01	210.61
341.39	209.31
341.78	210.44
342.16	212.42
342.54	211.78
342.93	201.24
343.31	211.43
343.69	211.96
344.07	212.44
344.46	212.87
344.84	213.28
345.22	213.45
345.60	213.72
345.99	213.93
346.37	214.04
346.75	214.16
347.13	214.23
347.52	214.33
347.90	214.46
348.28	214.54
348.66	214.60
349.05	214.60
349.43	214.68
349.81	214.75
350.19	214.80
350.57	214.90
350.96	215.03
351.34	215.11
351.72	215.26
352.10	215.37
352.48	215.49
352.87	215.52
353.25	215.65
353.63	215.75
354.01	215.80
354.39	215.93
354.77	216.03
355.15	216.21
355.54	216.26
355.92	216.29
356.30	216.38
356.68	216.64
357.06	216.72
357.44	216.76
357.82	216.85
358.20	216.97
358.58	217.05
358.97	217.12
359.35	217.27
359.73	217.39
360.11	217.45
360.49	217.51
360.87	217.58
361.25	217.66
361.63	217.80
362.01	217.89
362.39	217.93
362.77	217.99
363.15	217.98
363.53	218.04
363.91	218.10
364.29	218.14
364.67	217.97
365.05	218.00
365.43	218.06
365.81	218.13
366.19	218.23
366.57	218.34
366.95	218.33
367.33	218.29
367.71	218.30
368.09	218.36
368.47	218.35
368.85	218.36
369.23	218.39
369.61	218.28
369.99	218.34
370.37	218.35
370.75	218.46
371.13	218.44
371.51	218.40
371.89	218.39
372.27	218.37
372.65	218.34
373.03	218.31
373.41	218.26
373.78	218.21
374.16	218.07
374.54	217.95
374.92	217.89
375.30	217.86
375.68	217.75
376.06	217.69
376.44	217.65
376.82	217.63
377.19	217.57
377.57	217.49
377.95	217.38
378.33	217.28
378.71	217.10
379.09	217.12
379.47	217.08
379.84	217.01
380.22	216.95
380.60	216.89
380.98	216.81
381.36	216.76
381.73	216.66
382.11	216.67
382.49	216.63
382.87	216.56
383.25	216.51
383.62	216.72
384.00	216.68
384.38	216.59
384.76	216.58
385.13	216.58
385.51	216.56
385.89	216.46
386.27	216.44
386.64	216.43
387.02	216.35
387.40	216.32
387.78	216.30
388.15	216.28
388.53	216.26
388.91	216.26
389.29	216.21
389.66	216.25
390.04	216.18
390.42	216.18
390.79	216.15
391.17	216.16
391.55	215.87
391.92	215.84
392.30	215.88
392.68	215.83
393.05	215.81
393.43	215.84
393.81	215.87
394.18	215.85
394.56	215.84
394.94	215.87
395.31	215.87
395.69	215.94
396.06	215.96
396.44	215.98
396.82	215.96
397.19	216.07
397.57	216.02
397.95	216.08
398.32	216.05
398.70	216.12
399.07	216.14
399.45	216.20
399.82	216.26
400.20	216.28
400.58	216.32
400.95	216.30
401.33	216.36
401.70	216.59
402.08	216.71
402.45	216.77
402.83	216.92
403.20	217.01
403.58	217.08
403.95	217.21
404.33	217.35
404.71	217.52
405.08	217.77
405.46	217.99
405.83	218.15
406.21	218.33
406.58	218.55
406.96	218.77
407.33	219.05
407.70	219.33
408.08	219.78
408.45	220.13
408.83	220.51
409.20	220.87
409.58	221.12
409.95	221.52
410.33	222.01
410.70	222.41
411.08	222.94
411.45	223.52
411.82	224.07
412.20	224.75
412.57	225.52
412.95	226.09
413.32	226.87
413.69	227.69
414.07	228.61
414.44	229.56
414.82	230.55
415.19	231.68
415.56	232.82
415.94	233.94
416.31	235.29
416.68	236.67
417.06	238.22
417.43	239.69
417.81	241.42
418.18	243.16
418.55	245.01
418.93	246.98
419.30	248.99
419.67	251.16
420.04	253.35
420.42	255.65
420.79	258.38
421.16	261.05
421.54	263.87
421.91	266.75
422.28	269.71
422.66	272.91
423.03	276.04
423.40	279.28
423.77	282.77
424.15	286.33
424.52	290.07
424.89	294.10
425.26	298.03
425.64	301.76
426.01	305.88
426.38	310.22
426.75	314.64
427.13	319.22
427.50	324.04
427.87	329.06
428.24	334.12
428.61	338.90
428.99	344.25
429.36	350.05
429.73	355.74
430.10	361.45
430.47	367.31
430.85	373.42
431.22	379.85
431.59	386.76
431.96	393.33
432.33	400.55
432.70	407.51
433.08	415.78
433.45	423.58
433.82	431.37
434.19	439.97
434.56	448.39
434.93	456.43
435.30	464.43
435.68	473.24
436.05	481.91
436.42	490.50
436.79	498.37
437.16	506.87
437.53	515.82
437.90	524.68
438.27	533.30
438.64	542.19
439.01	550.50
439.38	557.75
439.75	564.85
440.13	572.93
440.50	580.59
440.87	586.78
441.24	593.14
441.61	600.18
441.98	605.31
442.35	611.36
442.72	617.40
443.09	623.14
443.46	626.72
443.83	629.11
444.20	631.27
444.57	634.31
444.94	635.66
445.31	637.04
445.68	638.36
446.05	638.93
446.42	638.10
446.79	637.11
447.16	636.12
447.53	635.38
447.90	632.18
448.27	629.01
448.64	624.47
449.01	621.28
449.37	615.60
449.74	610.13
450.11	603.53
450.48	596.44
450.85	589.34
451.22	583.11
451.59	577.14
451.96	571.48
452.33	563.90
452.70	557.03
453.07	548.78
453.43	540.44
453.80	532.48
454.17	524.83
454.54	517.61
454.91	509.66
455.28	501.96
455.65	494.83
456.02	487.64
456.38	481.57
456.75	474.03
457.12	467.70
457.49	461.50
457.86	455.51
458.23	450.33
458.59	444.58
458.96	438.79
459.33	433.73
459.70	428.61
460.07	424.49
460.43	419.81
460.80	415.49
461.17	411.69
461.54	407.64
461.91	403.78
462.27	399.80
462.64	396.54
463.01	392.90
463.38	389.33
463.74	385.77
464.11	382.65
464.48	379.89
464.85	376.89
465.21	374.55
465.58	372.00
465.95	368.99
466.32	366.50
466.68	363.99
467.05	361.52
467.42	359.00
467.78	356.44
468.15	353.97
468.52	352.11
468.88	349.69
469.25	347.60
469.62	345.88
469.98	343.97
470.35	342.23
470.72	340.59
471.08	338.91
471.45	337.48
471.82	336.01
472.18	334.42
472.55	333.27
472.92	331.91
473.28	330.74
473.65	329.66
474.02	328.63
474.38	327.86
474.75	327.17
475.11	326.45
475.48	325.88
475.85	325.45
476.21	325.02
476.58	324.66
476.94	324.43
477.31	324.19
477.67	324.00
478.04	323.84
478.41	323.83
478.77	323.95
479.14	323.92
479.50	324.08
479.87	324.37
480.23	324.70
480.60	324.93
480.96	325.23
481.33	325.89
481.69	326.45
482.06	326.94
482.42	327.40
482.79	328.00
483.15	328.80
483.52	329.72
483.88	330.54
484.25	331.53
484.61	332.54
484.98	333.59
485.34	334.91
485.71	336.31
486.07	337.74
486.44	339.08
486.80	340.68
487.17	342.31
487.53	344.15
487.90	346.00
488.26	348.03
488.62	350.15
488.99	352.14
489.35	354.28
489.72	356.65
490.08	359.15
490.44	361.68
490.81	364.39
491.17	367.12
491.54	370.16
491.90	373.16
492.26	376.45
492.63	379.84
492.99	383.27
493.36	386.90
493.72	390.73
494.08	394.74
494.45	398.99
494.81	403.39
495.17	407.80
495.54	412.52
495.90	417.33
496.26	422.34
496.63	427.48
496.99	432.89
497.35	438.47
497.72	444.27
498.08	450.18
498.44	456.23
498.80	462.61
499.17	469.11
499.53	475.80
499.89	482.63
500.26	489.51
500.62	496.53
500.98	503.94
501.34	511.41
501.71	519.13
502.07	526.88
502.43	534.83
502.79	542.91
503.16	551.25
503.52	559.78
503.88	568.30
504.24	577.27
504.60	586.19
504.97	595.31
505.33	604.47
505.69	614.31
506.05	624.13
506.41	633.94
506.78	643.91
507.14	654.09
507.50	664.44
507.86	675.11
508.22	685.86
508.59	696.40
508.95	707.38
509.31	718.56
509.67	729.91
510.03	741.26
510.39	753.00
510.75	764.73
511.12	776.63
511.48	788.68
511.84	800.76
512.20	813.14
512.56	825.74
512.92	838.47
513.28	850.97
513.64	863.55
514.00	876.29
514.37	889.11
514.73	902.05
515.09	914.89
515.45	927.63
515.81	940.50
516.17	953.70
516.53	966.74
516.89	979.62
517.25	992.66
517.61	1005.98
517.97	1019.12
518.33	1032.10
518.69	1045.48
519.05	1059.04
519.41	1072.58
519.77	1086.15
520.13	1099.13
520.49	1112.11
520.85	1125.32
521.21	1138.47
521.57	1151.88
521.93	1164.85
522.29	1178.38
522.65	1191.84
523.01	1205.18
523.37	1218.19
523.73	1231.19
524.09	1244.12
524.45	1257.31
524.81	1270.55
525.17	1283.60
525.53	1296.46
525.89	1309.46
526.25	1322.18
526.61	1334.69
526.97	1347.38
527.33	1359.95
527.68	1373.14
528.04	1386.34
528.40	1399.12
528.76	1412.08
529.12	1424.67
529.48	1437.63
529.84	1449.59
530.20	1461.99
530.56	1474.38
530.91	1487.23
531.27	1499.92
531.63	1512.42
531.99	1524.88
532.35	1536.87
532.71	1548.91
533.07	1561.54
533.42	1573.45
533.78	1585.30
534.14	1597.02
534.50	1608.02
534.86	1619.45
535.21	1630.12
535.57	1641.29
535.93	1652.33
536.29	1663.29
536.65	1674.42
537.00	1684.98
537.36	1696.07
537.72	1706.74
538.08	1717.65
538.44	1728.27
538.79	1738.96
539.15	1749.38
539.51	1759.79
539.87	1770.52
540.22	1781.09
540.58	1791.59
540.94	1802.20
541.29	1812.17
541.65	1821.80
542.01	1832.18
542.37	1841.94
542.72	1851.78
543.08	1861.31
543.44	1871.42
543.79	1880.36
544.15	1889.44
544.51	1899.17
544.87	1908.79
545.22	1917.66
545.58	1926.23
545.94	1934.93
546.29	1943.23
546.65	1951.45
547.01	1959.40
547.36	1966.98
547.72	1974.50
548.07	1981.92
548.43	1989.46
548.79	1997.06
549.14	2004.83
549.50	2012.82
549.86	2020.27
550.21	2027.39
550.57	2034.78
550.92	2041.37
551.28	2048.64
551.64	2055.68
551.99	2062.93
552.35	2069.92
552.70	2076.60
553.06	2083.30
553.41	2089.33
553.77	2095.48
554.13	2101.66
554.48	2108.62
554.84	2115.55
555.19	2121.88
555.55	2128.30
555.90	2134.36
556.26	2141.00
556.61	2146.84
556.97	2151.67
557.32	2157.47
557.68	2163.79
558.03	2169.34
558.39	2174.44
558.74	2180.26
559.10	2185.94
559.45	2191.34
559.81	2196.85
560.16	2202.36
560.52	2208.11
560.87	2214.49
561.23	2220.58
561.58	2227.25
561.94	2232.31
562.29	2237.12
562.64	2243.38
563.00	2248.81
563.35	2254.48
563.71	2260.24
564.06	2266.02
564.42	2271.90
564.77	2276.97
565.12	2282.28
565.48	2287.63
565.83	2293.31
566.19	2298.89
566.54	2304.20
566.89	2308.82
567.25	2313.30
567.60	2318.90
567.96	2324.03
568.31	2328.66
568.66	2332.90
569.02	2336.75
569.37	2340.64
569.72	2345.09
570.08	2348.46
570.43	2351.72
570.78	2354.80
571.14	2357.44
571.49	2360.55
571.84	2364.20
572.20	2367.14
572.55	2370.10
572.90	2372.28
573.26	2375.07
573.61	2377.47
573.96	2379.70
574.31	2381.83
574.67	2383.84
575.02	2384.99
575.37	2386.50
575.72	2387.39
576.08	2389.04
576.43	2389.47
576.78	2390.18
577.13	2391.95
577.49	2393.19
577.84	2394.58
578.19	2395.93
578.54	2396.84
578.90	2398.06
579.25	2397.97
579.60	2398.33
579.95	2397.77
580.30	2398.31
580.66	2397.80
581.01	2396.41
581.36	2394.32
581.71	2393.20
582.06	2392.41
582.42	2391.67
582.77	2389.64
583.12	2388.22
583.47	2387.06
583.82	2386.61
584.17	2385.56
584.53	2383.47
584.88	2381.61
585.23	2379.72
585.58	2377.83
585.93	2375.77
586.28	2373.48
586.63	2371.32
586.98	2369.22
587.34	2367.65
587.69	2365.48
588.04	2363.77
588.39	2362.47
588.74	2360.11
589.09	2357.70
589.44	2354.79
589.79	2352.44
590.14	2350.74
590.49	2348.02
590.84	2344.35
591.19	2341.53
591.54	2338.27
591.89	2334.44
592.25	2331.36
592.60	2327.42
592.95	2323.39
593.30	2319.24
593.65	2315.03
594.00	2310.95
594.35	2307.87
594.70	2303.17
595.05	2298.51
595.40	2293.05
595.75	2287.63
596.10	2284.15
596.45	2279.28
596.80	2274.78
597.15	2269.70
597.50	2263.90
597.85	2259.07
598.19	2253.99
598.54	2248.13
598.89	2243.31
599.24	2238.83
599.59	2232.77
599.94	2227.08
600.29	2221.40
600.64	2215.66
600.99	2209.06
601.34	2203.54
601.69	2196.68
602.04	2190.46
602.39	2184.08
602.74	2178.34
603.08	2172.86
603.43	2166.38
603.78	2159.75
604.13	2152.64
604.48	2145.52
604.83	2139.60
605.18	2133.40
605.53	2126.51
605.87	2119.60
606.22	2112.80
606.57	2104.99
606.92	2097.31
607.27	2090.47
607.62	2083.72
607.96	2076.88
608.31	2070.43
608.66	2062.92
609.01	2055.48
609.36	2048.39
609.70	2040.74
610.05	2032.87
610.40	2024.64
610.75	2016.60
611.10	2009.16
611.44	2000.52
611.79	1991.91
612.14	1981.96
612.49	1971.59
612.83	1962.52
613.18	1953.46
613.53	1944.05
613.88	1934.58
614.22	1925.96
614.57	1916.09
614.92	1905.72
615.27	1895.78
615.61	1885.92
615.96	1876.22
616.31	1866.64
616.65	1857.45
617.00	1847.62
617.35	1838.09
617.70	1828.44
618.04	1818.27
618.39	1807.83
618.74	1798.18
619.08	1788.59
619.43	1779.96
619.78	1771.75
620.12	1762.96
620.47	1753.18
620.82	1743.06
621.16	1733.31
621.51	1723.35
621.85	1713.41
622.20	1703.02
622.55	1692.34
622.89	1682.38
623.24	1672.71
623.59	1662.98
623.93	1652.69
624.28	1643.00
624.62	1632.80
624.97	1622.54
625.32	1612.86
625.66	1603.99
626.01	1595.14
626.35	1585.74
626.70	1575.55
627.04	1565.29
627.39	1555.23
627.73	1546.07
628.08	1537.05
628.43	1527.54
628.77	1518.34
629.12	1509.55
629.46	1501.64
629.81	1493.24
630.15	1483.72
630.50	1473.83
630.84	1463.34
631.19	1453.56
631.53	1444.15
631.88	1434.04
632.22	1424.11
632.57	1414.74
632.91	1404.65
633.26	1394.88
633.60	1385.35
633.95	1376.07
634.29	1366.68
634.64	1357.35
634.98	1347.47
635.32	1338.25
635.67	1329.68
636.01	1320.40
636.36	1310.67
636.70	1301.13
637.05	1291.81
637.39	1282.75
637.73	1274.26
638.08	1266.82
638.42	1258.53
638.77	1249.84
639.11	1241.56
639.45	1233.65
639.80	1225.07
640.14	1216.45
640.49	1207.57
640.83	1198.73
641.17	1190.69
641.52	1182.60
641.86	1174.03
642.20	1166.14
642.55	1157.48
642.89	1148.69
643.23	1140.12
643.58	1132.06
643.92	1123.09
644.26	1114.45
644.61	1106.13
644.95	1097.27
645.29	1088.02
645.64	1078.93
645.98	1070.54
646.32	1062.78
646.66	1054.28
647.01	1045.93
647.35	1037.89
647.69	1029.58
648.04	1021.34
648.38	1012.55
648.72	1003.77
649.06	995.37
649.41	987.24
649.75	979.34
650.09	971.63
650.43	963.60
650.78	955.41
651.12	947.87
651.46	940.52
651.80	933.36
652.14	926.07
652.49	918.58
652.83	911.30
653.17	903.65
653.51	896.00
653.85	888.76
654.20	881.56
654.54	874.02
654.88	866.87
655.22	859.77
655.56	852.81
655.90	846.12
656.25	839.55
656.59	832.59
656.93	825.65
657.27	818.36
657.61	811.51
657.95	805.45
658.29	799.57
658.64	793.49
658.98	787.08
659.32	780.60
659.66	774.42
660.00	768.08
660.34	762.08
660.68	756.04
661.02	749.83
661.36	744.03
661.70	738.30
662.05	732.78
662.39	727.32
662.73	721.99
663.07	716.73
663.41	711.24
663.75	705.71
664.09	700.12
664.43	694.83
664.77	689.55
665.11	683.82
665.45	677.91
665.79	672.17
666.13	666.52
666.47	661.10
666.81	655.77
667.15	650.59
667.49	645.46
667.83	640.28
668.17	635.16
668.51	630.10
668.85	625.33
669.19	620.39
669.53	615.43
669.87	610.36
670.21	605.63
670.55	600.90
670.89	596.49
671.23	592.29
671.57	587.97
671.91	583.75
672.25	579.70
672.58	575.72
672.92	571.69
673.26	567.83
673.60	564.11
673.94	560.32
674.28	556.73
674.62	553.06
674.96	549.42
675.30	545.96
675.64	542.37
675.97	538.83
676.31	535.32
676.65	531.75
676.99	528.39
677.33	524.60
677.67	521.02
678.01	517.27
678.34	513.64
678.68	510.24
679.02	506.66
679.36	502.99
679.70	499.40
680.04	495.93
680.37	492.55
680.71	489.27
681.05	486.20
681.39	483.04
681.73	479.94
682.06	476.90
682.40	473.85
682.74	470.72
683.08	467.52
683.42	464.41
683.75	461.51
684.09	458.56
684.43	455.82
684.77	452.95
685.10	450.18
685.44	447.27
685.78	444.39
686.12	441.72
686.45	439.02
686.79	436.39
687.13	433.92
687.46	431.35
687.80	428.76
688.14	425.87
688.48	423.30
688.81	420.67
689.15	418.18
689.49	415.62
689.82	413.12
690.16	410.58
690.50	408.17
690.83	405.71
691.17	403.19
691.51	400.79
691.84	398.64
692.18	396.45
692.52	394.35
692.85	392.26
693.19	390.17
693.52	388.11
693.86	385.95
694.20	383.82
694.53	381.72
694.87	379.56
695.21	377.59
695.54	375.47
695.88	373.34
696.21	371.16
696.55	369.07
696.88	367.08
697.22	365.18
697.56	363.37
697.89	361.54
698.23	359.84
698.56	358.07
698.90	356.28
699.23	354.40
699.57	352.58
699.90	350.78
700.24	349.03
700.58	347.28
700.91	345.65
701.25	344.10
701.58	342.56
701.92	340.99
702.25	339.38
702.59	337.80
702.92	336.31
703.26	334.84
703.59	333.45
703.93	332.20
704.26	330.81
704.60	329.29
704.93	327.86
705.26	326.43
705.60	324.98
705.93	323.49
706.27	322.22
706.60	320.96
706.94	319.77
707.27	318.37
707.61	317.04
707.94	315.75
708.27	314.29
708.61	312.87
708.94	311.53
709.28	310.28
709.61	309.08
709.94	307.91
710.28	306.74
710.61	305.52
710.95	304.15
711.28	303.07
711.61	301.96
711.95	300.85
712.28	299.67
712.61	298.54
712.95	297.54
713.28	296.54
713.61	295.43
713.95	294.24
714.28	293.26
714.61	292.25
714.95	291.25
715.28	290.30
715.61	289.31
715.95	288.38
716.28	287.45
716.61	286.50
716.95	285.54
717.28	284.60
717.61	283.70
717.94	282.85
718.28	281.86
718.61	280.99
718.94	280.10
719.27	279.29
719.61	278.44
719.94	277.54
720.27	276.61
720.60	275.77
720.94	275.02
721.27	274.23
721.60	273.57
721.93	272.84
722.27	272.20
722.60	271.57
722.93	270.88
723.26	270.23
723.59	269.57
723.93	268.98
724.26	268.37
724.59	267.75
724.92	267.15
725.25	266.65
725.59	266.12
725.92	265.61
726.25	265.07
726.58	264.54
726.91	264.02
727.24	263.51
727.57	262.99
727.91	262.39
728.24	261.87
728.57	261.31
728.90	260.77
729.23	260.16
729.56	259.75
729.89	259.21
730.22	258.67
730.55	258.14
730.89	257.59
731.22	257.06
731.55	256.56
731.88	256.05
732.21	255.48
732.54	254.92
732.87	254.40
733.20	253.94
733.53	253.47
733.86	253.01
734.19	252.51
734.52	252.13
734.85	251.85
735.18	251.43
735.51	251.05
735.84	250.67
736.17	250.30
736.50	249.79
736.83	249.66
737.16	249.31
737.49	248.93
737.82	248.54
738.15	248.20
738.48	247.80
738.81	247.44
739.14	247.03
739.47	246.70
739.80	246.33
740.13	245.98
740.46	245.60
740.79	245.24
741.12	244.89
741.45	244.52
741.78	244.10
742.11	243.83
742.44	243.47
742.77	243.18
743.10	242.80
743.43	242.46
743.75	241.90
744.08	241.82
744.41	241.48
744.74	241.15
745.07	240.79
745.40	240.53
745.73	240.26
746.06	239.96
746.39	239.68
746.71	239.36
747.04	238.99
747.37	238.68
747.70	238.41
748.03	238.10
748.36	237.83
748.68	237.53
749.01	237.17
749.34	236.90
749.67	236.57
750.00	236.37
750.33	236.22
750.65	235.99
750.98	235.47
751.31	235.23
751.64	235.05
751.97	234.91
752.29	234.65
752.62	234.34
752.95	234.10
753.28	233.80
753.60	233.60
753.93	233.48
754.26	233.31
754.59	233.03
754.91	232.80
755.24	232.55
755.57	232.36
755.90	232.13
756.22	231.90
756.55	231.67
756.88	231.41
757.20	231.09
757.53	230.82
757.86	230.58
758.19	230.43
758.51	230.21
758.84	229.90
759.17	229.67
759.49	229.53
759.82	229.47
760.15	229.31
760.47	229.16
760.80	228.92
761.13	228.75
761.45	228.60
761.78	228.41
762.11	228.25
762.43	228.03
762.76	227.89
763.08	227.73
763.41	227.60
763.74	227.45
764.06	227.30
764.39	227.17
764.71	227.04
765.04	226.85
765.37	226.67
765.69	226.54
766.02	226.41
766.34	226.22
766.67	225.99
767.00	225.90
767.32	225.86
767.65	225.85
767.97	225.71
768.30	225.59
768.62	225.49
768.95	225.36
769.27	225.23
769.60	225.13
769.92	224.99
770.25	224.80
770.57	224.64
770.90	224.48
771.22	224.33
771.55	224.23
771.87	224.13
772.20	224.00
772.52	224.05
772.85	224.20
773.17	224.15
773.50	224.02
773.82	223.91
774.15	223.69
774.47	223.46
774.80	223.33
775.12	223.22
775.45	223.12
775.77	223.03
776.09	222.97
776.42	222.87
776.74	222.85
777.07	222.76
777.39	222.71
777.72	222.64
778.04	222.64
778.36	222.52
778.69	222.48
779.01	222.43
779.33	222.19
779.66	221.85
779.98	221.74
780.31	221.69
780.63	221.67
780.95	221.63
781.28	221.54
781.60	221.45
781.92	221.38
782.25	221.32
782.57	221.28
782.89	221.19
783.22	221.10
783.54	221.01
783.86	220.96
784.19	220.92
784.51	220.93
784.83	220.80
785.16	220.78
785.48	220.71
785.80	220.65
786.12	220.60
786.45	220.55
786.77	220.54
787.09	220.50
787.42	220.35
787.74	220.30
788.06	220.28
788.38	220.24
788.71	220.17
789.03	220.13
789.35	220.13
789.67	220.02
789.99	220.01
790.32	219.91
790.64	219.89
790.96	220.00
791.28	219.89
791.61	219.85
791.93	219.76
792.25	219.67
792.57	219.78
792.89	219.70
793.21	219.67
793.54	219.59
793.86	219.49
794.18	219.46
794.50	219.38
794.82	219.34
795.14	219.32
795.47	219.36
795.79	219.30
796.11	219.18
796.43	219.20
796.75	219.17
797.07	219.15
797.39	219.10
797.71	218.91
798.04	218.88
798.36	218.84
798.68	218.84
799.00	218.83
799.32	218.69
799.64	218.69
799.96	218.65
800.28	218.66
800.60	218.63
800.92	218.65
801.24	218.57
801.56	218.55
801.89	218.48
802.21	218.45
802.53	218.41
802.85	218.43
803.17	218.45
803.49	218.35
803.81	218.33
804.13	218.25
804.45	218.19
804.77	218.16
805.09	218.13
805.41	218.06
805.73	217.99
806.05	217.91
806.37	217.89
806.69	217.82
807.01	217.76
807.33	217.77
807.65	217.65
807.97	217.75
808.28	217.68
808.60	217.64
808.92	217.56
809.24	217.64
809.56	217.57
809.88	217.49
810.20	217.47
810.52	217.49
810.84	217.46
811.16	217.42
811.48	217.37
811.80	217.40
812.12	217.39
812.43	217.46
812.75	217.43
813.07	217.37
813.39	217.37
813.71	217.30
814.03	217.24
814.35	217.22
814.67	217.14
814.98	217.13
815.30	217.13
815.62	217.08
815.94	216.94
816.26	216.93
816.58	216.87
816.89	216.89
817.21	216.80
817.53	216.81
817.85	216.81
818.17	216.81
818.48	216.71
818.80	216.70
819.12	216.60
819.44	216.53
819.76	216.49
820.07	216.47
820.39	216.48
820.71	216.48
821.03	216.47
821.34	216.41
821.66	216.37
821.98	216.37
822.30	216.35
822.61	216.49
822.93	216.45
823.25	216.41
823.57	216.37
823.88	216.41
824.20	216.38
824.52	216.42
824.83	216.36
825.15	216.35
825.47	216.35
825.79	216.35
826.10	216.36
826.42	216.39
826.74	216.41
827.05	216.41
827.37	216.40
827.69	216.35
828.00	216.35
828.32	216.30
828.64	216.26
828.95	216.38
829.27	216.26
829.58	216.28
829.90	216.30
830.22	216.30
830.53	216.23
830.85	216.20
831.17	216.13
831.48	216.13
831.80	216.11
832.11	216.08
832.43	216.06
832.75	216.02
833.06	216.12
833.38	216.04
833.69	216.02
834.01	216.03
834.32	216.04
834.64	216.02
834.96	216.07
835.27	216.06
835.59	215.97
835.90	215.94
836.22	215.88
836.53	215.85
836.85	215.82
837.16	216.01
837.48	215.99
837.79	216.06
838.11	216.06
838.42	216.05
838.74	216.06
839.05	216.04
839.37	216.05
839.68	215.89
840.00	215.89
840.31	215.90
840.63	215.85
840.94	215.83
841.26	215.81
841.57	215.79
841.88	215.82
842.20	215.79
842.51	215.76
842.83	215.80
843.14	215.98
843.46	216.00
843.77	215.86
844.08	215.87
844.40	215.82
844.71	215.82
845.03	215.78
845.34	215.78
845.65	215.79
845.97	215.79
846.28	215.81
846.60	215.82
846.91	215.80
847.22	215.79
847.54	215.82
847.85	215.82
848.16	215.79
848.48	215.74
848.79	215.81
849.10	215.86
849.42	215.84
849.73	215.65
850.04	215.61
850.36	215.55
850.67	215.56
850.98	215.54
851.30	215.54
851.61	215.55
851.92	215.55
852.23	215.61
852.55	215.60
852.86	215.61
853.17	215.61
853.49	215.64
853.80	215.69
854.11	215.72
854.42	215.75
854.74	215.72
855.05	215.76
855.36	215.62
855.67	215.59
855.99	215.59
856.30	215.83
856.61	215.82
856.92	215.82
857.23	215.81
857.55	215.78
857.86	215.78
858.17	215.83
858.48	215.79
858.79	215.73
859.11	215.78
859.42	215.77
859.73	215.74
860.04	215.71
860.35	215.65
860.66	215.59
860.98	215.56
861.29	215.61
861.60	215.57
861.91	215.62
862.22	215.58
862.53	215.54
862.84	215.33
863.16	215.39
863.47	215.33
863.78	215.33
864.09	215.36
864.40	215.35
864.71	215.32
865.02	215.32
865.33	215.32
865.64	215.24
865.95	215.22
866.27	215.37
866.58	215.36
866.89	215.37
867.20	215.37
867.51	215.33
867.82	215.31
868.13	215.38
868.44	215.34
868.75	215.39
869.06	215.40
869.37	215.38
869.68	215.31
869.99	215.37
870.30	215.35
870.61	215.41
870.92	215.41
871.23	215.39
871.54	215.42
871.85	215.47
872.16	215.53
872.47	215.54
872.78	215.41
873.09	215.44
873.40	215.42
873.71	215.46
874.02	215.50
874.33	215.47
874.64	215.41
874.95	215.50
875.26	215.47
875.56	215.46
875.87	215.47
876.18	215.48
876.49	215.68
876.80	215.65
877.11	215.58
877.42	215.59
877.73	215.57
878.04	215.54
878.35	215.51
878.66	215.52
878.96	215.52
879.27	215.47
879.58	215.43
879.89	215.39
880.20	215.45
880.51	215.45
880.82	215.45
881.12	215.47
881.43	215.37
881.74	215.35
882.05	215.37
882.36	215.36
882.67	215.40
882.97	215.17
883.28	215.20
883.59	215.19
883.90	215.21
884.21	215.27
884.51	215.23
884.82	215.19
885.13	215.18
885.44	215.16
885.74	215.20
886.05	215.23
886.36	215.23
886.67	215.12
886.98	215.21
887.28	215.21
887.59	215.21
887.90	215.24
888.20	215.23
888.51	215.26
888.82	215.23
889.13	215.20
889.43	215.35
889.74	215.32
890.05	215.31
890.35	215.27
890.66	215.24
890.97	215.27
891.28	215.25
891.58	215.23
891.89	215.24
892.20	215.20
892.50	215.15
892.81	215.17
893.12	215.17
893.42	215.05
893.73	215.07
894.04	215.08
894.34	215.08
894.65	215.06
894.95	215.03
895.26	215.05
895.57	215.15
895.87	214.98
896.18	215.00
896.48	215.02
896.79	215.03
897.10	215.03
897.40	215.04
897.71	215.09
898.01	215.08
898.32	215.07
898.63	215.06
898.93	215.08
899.24	215.10
899.54	215.08
899.85	215.11
900.15	215.10
900.46	215.08
900.76	215.08
901.07	215.08
901.38	215.05
901.68	215.06
901.99	214.95
902.29	214.97
902.60	214.95
902.90	214.94
903.21	214.92
903.51	214.93
903.82	214.95
904.12	214.92
904.43	214.94
904.73	214.94
905.03	214.94
905.34	215.13
905.64	215.09
905.95	215.12
906.25	215.09
906.56	215.07
906.86	215.10
907.17	215.08
907.47	215.09
907.77	215.08
908.08	215.05
908.38	215.06
908.69	215.08
908.99	215.12
909.30	215.12
909.60	215.10
909.90	215.07
910.21	215.01
910.51	215.00
910.81	215.01
911.12	215.04
911.42	215.07
911.73	214.86
912.03	214.85
912.33	214.88
912.64	214.89
912.94	214.91
913.24	214.85
913.55	214.87
913.85	214.83
914.15	214.88
914.46	214.93
914.76	214.90
915.06	214.89
915.37	214.87
915.67	214.83
915.97	214.82
916.27	214.82
916.58	214.81
916.88	214.80
917.18	214.76
917.49	214.87
917.79	214.83
918.09	214.89
918.39	214.95
918.70	214.95
919.00	214.96
919.30	215.01
919.60	214.99
919.91	214.91
920.21	214.97
920.51	214.92
920.81	214.92
921.12	214.98
921.42	214.96
921.72	214.95
922.02	214.99
922.32	215.04
922.63	215.04
922.93	215.17
923.23	215.19
923.53	215.17
923.83	215.04
924.13	215.07
924.44	215.04
924.74	215.06
925.04	215.09
925.34	215.04
925.64	214.99
925.94	215.02
926.24	215.15
926.55	215.11
926.85	215.15
927.15	215.12
927.45	215.05
927.75	215.07
928.05	215.09
928.35	215.10
928.65	215.12
928.95	215.12
929.26	215.02
929.56	215.07
929.86	215.10
930.16	215.11
930.46	215.09
930.76	215.10
931.06	215.02
931.36	214.97
931.66	215.02
931.96	215.06
932.26	215.07
932.56	214.97
932.86	215.00
933.16	214.96
933.46	214.92
933.76	214.92
934.06	214.96
934.36	214.99
934.66	214.98
934.96	214.94
935.26	214.93
935.56	214.96
935.86	214.88
936.16	214.86
936.46	214.85
936.76	214.86
937.06	214.83
937.36	214.87
937.66	214.87
937.96	214.85
938.26	214.79
938.56	214.78
938.86	214.79
939.16	214.81
939.46	214.86
939.76	214.91
940.06	214.93
940.35	214.88
940.65	214.76
940.95	214.77
941.25	214.71
941.55	214.71
941.85	214.70
942.15	214.76
942.45	214.80
942.75	214.81
943.04	214.79
943.34	214.85
943.64	214.80
943.94	214.79
944.24	214.79
944.54	214.76
944.84	214.78
945.13	214.75
945.43	214.71
945.73	214.69
946.03	214.65
946.33	214.61
946.62	214.60
946.92	214.64
947.22	214.66
947.52	214.70
947.82	214.73
948.11	214.69
948.41	214.65
948.71	214.58
949.01	214.60
949.31	214.59
949.60	214.55
949.90	214.60
950.20	214.58
950.50	214.61
950.79	214.60
951.09	214.63
951.39	214.63
951.69	214.61
951.98	214.67
952.28	214.69
952.58	214.68
952.87	214.67
953.17	214.71
953.47	214.67
953.76	214.66
954.06	214.63
954.36	214.64
954.66	214.57
954.95	214.64
955.25	214.60
955.55	214.63
955.84	214.61
956.14	214.64
956.44	214.64
956.73	214.58
957.03	214.64
957.32	214.63
957.62	214.63
957.92	214.70
958.21	214.63
958.51	214.85
958.81	214.91
959.10	214.93
959.40	214.96
959.69	215.00
959.99	215.04
960.29	215.02
960.58	214.98
960.88	215.13
961.17	215.12
961.47	215.18
961.76	215.19
962.06	215.22
962.36	215.17
962.65	215.20
962.95	215.24
963.24	215.19
963.54	215.17
963.83	215.20
964.13	215.18
964.42	215.17
964.72	215.02
965.01	215.04
965.31	215.04
965.60	215.00
965.90	215.14
966.19	215.05
966.49	215.07
966.78	215.09
967.08	215.04
967.37	215.05
967.67	214.98
967.96	215.00
968.26	214.97
968.55	215.01
968.85	215.04
969.14	215.02
969.43	215.02
969.73	215.02
970.02	214.99
970.32	214.97
970.61	214.96
970.91	214.88
971.20	214.82
971.49	214.79
971.79	214.81
972.08	214.64
972.38	214.69
972.67	214.70
972.96	214.73
973.26	214.67
973.55	214.72
973.85	214.72
974.14	214.69
974.43	214.73
974.73	214.68
975.02	214.63
975.31	214.62
975.61	214.64
975.90	214.62
976.19	214.60
976.49	214.63
976.78	214.63
977.07	214.62
977.37	214.65
977.66	214.68
977.95	214.63
978.24	214.63
978.54	214.66
978.83	214.64
979.12	214.61
979.42	214.61
979.71	214.52
980.00	214.55
980.29	214.54
980.59	214.46
980.88	214.53
981.17	214.50
981.46	214.50
981.76	214.49
982.05	214.59
982.34	214.62
982.63	214.61
982.93	214.64
983.22	214.68
983.51	214.69
983.80	214.70
984.09	214.73
984.39	214.72
984.68	214.69
984.97	214.68
985.26	214.65
985.55	214.68
985.85	214.65
986.14	214.63
986.43	214.65
986.72	214.67
987.01	214.60
987.30	214.61
987.59	214.62
987.89	214.62
988.18	214.52
988.47	214.48
988.76	214.49
989.05	214.44
989.34	214.42
989.63	214.49
989.92	214.49
990.22	214.46
990.51	214.43
990.80	214.44
991.09	214.46
991.38	214.51
991.67	214.49
991.96	214.53
992.25	214.54
992.54	214.51
992.83	214.50
993.12	214.48
993.41	214.51
993.70	214.61
993.99	214.68
994.28	214.70
994.58	214.75
994.87	214.72
995.16	214.72
995.45	214.71
995.74	214.62
996.03	214.63
996.32	214.67
996.61	214.73
996.90	214.74
997.19	214.75
997.48	214.74
997.77	214.73
998.06	214.71
998.34	214.71
998.63	214.70
998.92	214.73
999.21	214.76
999.50	214.78
999.79	214.65
1000.08	214.61
1000.37	214.63
1000.66	214.59
1000.95	214.62
1001.24	214.66
1001.53	214.67
1001.82	214.67
1002.11	214.60
1002.40	214.63
1002.68	214.68
1002.97	214.81
1003.26	214.79
1003.55	214.78
1003.84	214.81
1004.13	214.91
1004.42	214.93
1004.71	214.95
1004.99	214.92
1005.28	215.01
1005.57	215.01
1005.86	214.99
1006.15	215.00
1006.44	214.95
1006.72	214.96
1007.01	214.95
1007.30	214.93
1007.59	214.90
1007.88	214.91
1008.17	214.95
1008.45	214.92
1008.74	214.86
1009.03	214.77
1009.32	214.77
1009.60	214.75
1009.89	214.73
1010.18	214.63
1010.47	214.59
1010.76	214.60
1011.04	214.61
1011.33	214.57
1011.62	214.55
1011.91	214.57
1012.19	214.57
1012.48	214.60
1012.77	214.60
1013.05	214.72
1013.34	214.75
1013.63	214.78
1013.92	214.78
1014.20	214.78
1014.49	214.81
1014.78	214.80
1015.06	214.70
1015.35	214.69
1015.64	214.75
1015.92	214.79
1016.21	214.80
1016.50	214.81
1016.78	214.81
1017.07	214.83
1017.36	214.79
1017.64	214.76
1017.93	214.79
1018.22	214.77
1018.50	214.77
1018.79	214.78
1019.08	214.63
1019.36	214.60
1019.65	214.58
1019.93	214.66
1020.22	214.70
1020.51	214.77
1020.79	214.77
1021.08	214.42
1021.36	214.52
1021.65	214.74
1021.94	214.19
1022.22	214.28
1022.51	214.35
1022.79	216.20
1023.08	215.49
1023.36	217.09
1023.65	214.38
>>>>>End Processed Spectral Data<<<<<
