SpectraSuite Data File
++++++++++++++++++++++++++++++++++++
Date: Tue Jan 29 16:38:10 EST 2013
User: group
Dark Spectrum Present: No
Reference Spectrum Present: No
Number of Sampled Component Spectra: 1
Spectrometers: USB2E7196
Integration Time (usec): 65000 (USB2E7196)
Spectra Averaged: 100 (USB2E7196)
Boxcar Smoothing: 10 (USB2E7196)
Correct for Electrical Dark: No (USB2E7196)
Strobe/Lamp Enabled: No (USB2E7196)
Correct for Detector Non-linearity: No (USB2E7196)
Correct for Stray Light: No (USB2E7196)
Number of Pixels in Processed Spectrum: 2048
>>>>>Begin Processed Spectral Data<<<<<
339.09	0.00
339.48	201.79
339.86	203.51
340.24	204.80
340.63	206.15
341.01	210.22
341.39	209.00
341.78	211.25
342.16	211.77
342.54	211.69
342.93	201.13
343.31	211.30
343.69	211.84
344.07	212.31
344.46	212.78
344.84	213.19
345.22	213.40
345.60	213.66
345.99	213.83
346.37	213.96
346.75	214.10
347.13	214.18
347.52	214.27
347.90	214.35
348.28	214.40
348.66	214.47
349.05	214.45
349.43	214.52
349.81	214.58
350.19	214.61
350.57	214.71
350.96	214.80
351.34	214.90
351.72	214.98
352.10	215.07
352.48	215.11
352.87	215.14
353.25	215.16
353.63	215.19
354.01	215.24
354.39	215.29
354.77	215.36
355.15	215.51
355.54	215.54
355.92	215.56
356.30	215.62
356.68	215.83
357.06	215.93
357.44	215.95
357.82	215.99
358.20	216.08
358.58	216.16
358.97	216.21
359.35	216.30
359.73	216.43
360.11	216.47
360.49	216.54
360.87	216.61
361.25	216.73
361.63	216.86
362.01	216.93
362.39	216.97
362.77	217.01
363.15	217.02
363.53	217.04
363.91	217.10
364.29	217.12
364.67	216.94
365.05	216.92
365.43	216.98
365.81	216.99
366.19	217.07
366.57	217.15
366.95	217.17
367.33	217.12
367.71	217.12
368.09	217.17
368.47	217.15
368.85	217.13
369.23	217.16
369.61	217.07
369.99	217.14
370.37	217.17
370.75	217.26
371.13	217.19
371.51	217.17
371.89	217.17
372.27	217.16
372.65	217.17
373.03	217.16
373.41	217.11
373.78	217.08
374.16	216.95
374.54	216.86
374.92	216.80
375.30	216.79
375.68	216.71
376.06	216.66
376.44	216.60
376.82	216.58
377.19	216.48
377.57	216.45
377.95	216.30
378.33	216.24
378.71	216.06
379.09	216.08
379.47	216.04
379.84	215.95
380.22	215.90
380.60	215.84
380.98	215.79
381.36	215.77
381.73	215.71
382.11	215.75
382.49	215.70
382.87	215.66
383.25	215.59
383.62	215.77
384.00	215.71
384.38	215.67
384.76	215.66
385.13	215.72
385.51	215.68
385.89	215.64
386.27	215.60
386.64	215.60
387.02	215.53
387.40	215.46
387.78	215.43
388.15	215.40
388.53	215.35
388.91	215.35
389.29	215.31
389.66	215.31
390.04	215.25
390.42	215.26
390.79	215.25
391.17	215.26
391.55	215.03
391.92	215.03
392.30	215.09
392.68	215.03
393.05	215.05
393.43	215.04
393.81	215.08
394.18	215.06
394.56	215.09
394.94	215.13
395.31	215.12
395.69	215.20
396.06	215.22
396.44	215.27
396.82	215.27
397.19	215.39
397.57	215.41
397.95	215.49
398.32	215.44
398.70	215.48
399.07	215.56
399.45	215.59
399.82	215.62
400.20	215.62
400.58	215.70
400.95	215.64
401.33	215.76
401.70	215.98
402.08	216.07
402.45	216.16
402.83	216.30
403.20	216.48
403.58	216.56
403.95	216.75
404.33	216.90
404.71	217.02
405.08	217.28
405.46	217.46
405.83	217.65
406.21	217.87
406.58	218.12
406.96	218.35
407.33	218.60
407.70	218.90
408.08	219.37
408.45	219.73
408.83	220.17
409.20	220.52
409.58	220.75
409.95	221.23
410.33	221.68
410.70	222.11
411.08	222.60
411.45	223.18
411.82	223.76
412.20	224.43
412.57	225.29
412.95	225.85
413.32	226.68
413.69	227.47
414.07	228.38
414.44	229.38
414.82	230.38
415.19	231.58
415.56	232.81
415.94	233.98
416.31	235.39
416.68	236.75
417.06	238.36
417.43	239.90
417.81	241.64
418.18	243.43
418.55	245.37
418.93	247.42
419.30	249.54
419.67	251.78
420.04	254.08
420.42	256.44
420.79	259.29
421.16	262.11
421.54	265.06
421.91	268.06
422.28	271.14
422.66	274.46
423.03	277.72
423.40	281.05
423.77	284.70
424.15	288.38
424.52	292.24
424.89	296.43
425.26	300.56
425.64	304.47
426.01	308.81
426.38	313.29
426.75	317.86
427.13	322.59
427.50	327.56
427.87	332.77
428.24	338.05
428.61	343.07
428.99	348.60
429.36	354.63
429.73	360.58
430.10	366.49
430.47	372.54
430.85	378.86
431.22	385.61
431.59	392.74
431.96	399.59
432.33	407.12
432.70	414.37
433.08	422.93
433.45	430.97
433.82	439.06
434.19	448.00
434.56	456.74
434.93	465.10
435.30	473.36
435.68	482.51
436.05	491.49
436.42	500.36
436.79	508.50
437.16	517.28
437.53	526.60
437.90	535.73
438.27	544.76
438.64	553.98
439.01	562.54
439.38	570.09
439.75	577.48
440.13	585.87
440.50	593.80
440.87	600.17
441.24	606.91
441.61	614.27
441.98	619.62
442.35	625.95
442.72	632.33
443.09	638.46
443.46	642.21
443.83	644.77
444.20	647.03
444.57	650.24
444.94	651.69
445.31	653.07
445.68	654.52
446.05	655.15
446.42	654.40
446.79	653.45
447.16	652.33
447.53	651.56
447.90	648.28
448.27	645.07
448.64	640.45
449.01	637.11
449.37	631.14
449.74	625.51
450.11	618.56
450.48	611.13
450.85	603.67
451.22	597.15
451.59	590.99
451.96	585.14
452.33	577.21
452.70	570.09
453.07	561.57
453.43	552.91
453.80	544.55
454.17	536.53
454.54	528.94
454.91	520.78
455.28	512.79
455.65	505.34
456.02	497.81
456.38	491.46
456.75	483.48
457.12	476.89
457.49	470.35
457.86	464.18
458.23	458.81
458.59	452.80
458.96	446.84
459.33	441.50
459.70	436.09
460.07	431.87
460.43	426.95
460.80	422.39
461.17	418.40
461.54	414.21
461.91	410.20
462.27	406.06
462.64	402.69
463.01	398.81
463.38	395.08
463.74	391.32
464.11	388.09
464.48	385.28
464.85	382.15
465.21	379.71
465.58	377.12
465.95	373.94
466.32	371.33
466.68	368.72
467.05	366.11
467.42	363.57
467.78	360.81
468.15	358.23
468.52	356.33
468.88	353.80
469.25	351.57
469.62	349.76
469.98	347.81
470.35	345.93
470.72	344.25
471.08	342.46
471.45	340.96
471.82	339.39
472.18	337.70
472.55	336.49
472.92	335.07
473.28	333.77
473.65	332.65
474.02	331.50
474.38	330.57
474.75	329.80
475.11	328.93
475.48	328.39
475.85	327.94
476.21	327.44
476.58	327.08
476.94	326.84
477.31	326.51
477.67	326.23
478.04	326.09
478.41	326.06
478.77	326.22
479.14	326.15
479.50	326.29
479.87	326.57
480.23	326.88
480.60	327.10
480.96	327.36
481.33	327.91
481.69	328.50
482.06	329.05
482.42	329.52
482.79	330.11
483.15	330.89
483.52	331.81
483.88	332.69
484.25	333.61
484.61	334.58
484.98	335.65
485.34	336.98
485.71	338.35
486.07	339.73
486.44	341.03
486.80	342.71
487.17	344.37
487.53	346.21
487.90	348.10
488.26	350.16
488.62	352.37
488.99	354.42
489.35	356.61
489.72	359.05
490.08	361.60
490.44	364.21
490.81	366.89
491.17	369.62
491.54	372.58
491.90	375.67
492.26	378.91
492.63	382.29
492.99	385.76
493.36	389.40
493.72	393.30
494.08	397.36
494.45	401.55
494.81	405.96
495.17	410.42
495.54	415.15
495.90	419.95
496.26	424.88
496.63	430.08
496.99	435.46
497.35	441.00
497.72	446.76
498.08	452.72
498.44	458.86
498.80	465.26
499.17	471.75
499.53	478.50
499.89	485.42
500.26	492.42
500.62	499.60
500.98	507.01
501.34	514.49
501.71	522.26
502.07	530.12
502.43	538.09
502.79	546.27
503.16	554.63
503.52	563.30
503.88	571.99
504.24	581.01
504.60	590.12
504.97	599.36
505.33	608.66
505.69	618.53
506.05	628.45
506.41	638.38
506.78	648.54
507.14	658.80
507.50	669.28
507.86	680.02
508.22	690.81
508.59	701.53
508.95	712.66
509.31	723.95
509.67	735.40
510.03	746.88
510.39	758.61
510.75	770.49
511.12	782.42
511.48	794.49
511.84	806.78
512.20	819.18
512.56	831.91
512.92	844.86
513.28	857.53
513.64	870.34
514.00	883.25
514.37	896.31
514.73	909.40
515.09	922.44
515.45	935.43
515.81	948.51
516.17	962.03
516.53	975.35
516.89	988.52
517.25	1001.86
517.61	1015.45
517.97	1028.90
518.33	1042.06
518.69	1055.69
519.05	1069.64
519.41	1083.35
519.77	1097.18
520.13	1110.37
520.49	1123.56
520.85	1136.96
521.21	1150.37
521.57	1164.15
521.93	1177.29
522.29	1191.20
522.65	1204.91
523.01	1218.53
523.37	1231.81
523.73	1245.15
524.09	1258.46
524.45	1271.97
524.81	1285.50
525.17	1298.87
525.53	1312.23
525.89	1325.77
526.25	1339.02
526.61	1351.97
526.97	1365.21
527.33	1378.34
527.68	1391.96
528.04	1405.63
528.40	1418.92
528.76	1432.28
529.12	1445.15
529.48	1458.60
529.84	1470.97
530.20	1483.83
530.56	1496.61
530.91	1509.94
531.27	1522.96
531.63	1535.72
531.99	1548.57
532.35	1560.90
532.71	1573.46
533.07	1586.40
533.42	1598.77
533.78	1611.01
534.14	1623.18
534.50	1634.59
534.86	1646.31
535.21	1657.33
535.57	1668.86
535.93	1680.26
536.29	1691.62
536.65	1703.27
537.00	1714.21
537.36	1725.72
537.72	1736.84
538.08	1748.29
538.44	1759.26
538.79	1770.45
539.15	1781.53
539.51	1792.54
539.87	1803.92
540.22	1814.94
540.58	1825.97
540.94	1836.91
541.29	1847.19
541.65	1857.10
542.01	1867.58
542.37	1877.77
542.72	1888.04
543.08	1897.91
543.44	1908.51
543.79	1917.84
544.15	1927.40
544.51	1937.62
544.87	1947.51
545.22	1956.85
545.58	1965.86
545.94	1974.99
546.29	1983.67
546.65	1992.15
547.01	2000.32
547.36	2008.26
547.72	2016.03
548.07	2023.78
548.43	2031.59
548.79	2039.59
549.14	2047.76
549.50	2056.34
549.86	2064.28
550.21	2071.77
550.57	2079.47
550.92	2086.31
551.28	2093.86
551.64	2101.21
551.99	2108.69
552.35	2115.92
552.70	2122.83
553.06	2129.48
553.41	2135.69
553.77	2142.21
554.13	2148.63
554.48	2155.72
554.84	2162.75
555.19	2169.44
555.55	2175.87
555.90	2182.20
556.26	2189.12
556.61	2195.30
556.97	2200.13
557.32	2205.96
557.68	2212.49
558.03	2218.35
558.39	2223.71
558.74	2229.73
559.10	2235.16
559.45	2240.79
559.81	2246.40
560.16	2252.03
560.52	2257.91
560.87	2264.42
561.23	2270.16
561.58	2276.80
561.94	2282.01
562.29	2286.64
562.64	2292.49
563.00	2298.09
563.35	2303.66
563.71	2309.30
564.06	2314.80
564.42	2320.81
564.77	2325.82
565.12	2330.97
565.48	2336.16
565.83	2341.63
566.19	2346.91
566.54	2352.27
566.89	2356.87
567.25	2361.27
567.60	2366.96
567.96	2372.10
568.31	2376.57
568.66	2381.00
569.02	2384.88
569.37	2388.64
569.72	2393.13
570.08	2396.71
570.43	2399.73
570.78	2402.84
571.14	2405.33
571.49	2408.47
571.84	2411.95
572.20	2414.82
572.55	2417.72
572.90	2419.83
573.26	2422.50
573.61	2425.07
573.96	2427.24
574.31	2429.19
574.67	2431.08
575.02	2431.67
575.37	2433.08
575.72	2433.70
576.08	2435.10
576.43	2435.25
576.78	2435.61
577.13	2437.08
577.49	2438.29
577.84	2439.36
578.19	2440.52
578.54	2441.01
578.90	2441.58
579.25	2441.30
579.60	2441.08
579.95	2440.27
580.30	2440.41
580.66	2439.66
581.01	2437.81
581.36	2435.36
581.71	2433.80
582.06	2432.64
582.42	2431.77
582.77	2429.38
583.12	2427.75
583.47	2426.25
583.82	2425.52
584.17	2424.14
584.53	2421.92
584.88	2419.57
585.23	2417.51
585.58	2415.18
585.93	2413.09
586.28	2410.75
586.63	2408.23
586.98	2406.05
587.34	2403.98
587.69	2401.21
588.04	2399.03
588.39	2397.47
588.74	2394.89
589.09	2392.02
589.44	2388.81
589.79	2386.16
590.14	2384.23
590.49	2381.17
590.84	2377.16
591.19	2373.74
591.54	2370.43
591.89	2366.33
592.25	2362.86
592.60	2358.59
592.95	2354.24
593.30	2349.92
593.65	2345.55
594.00	2340.99
594.35	2337.87
594.70	2333.21
595.05	2328.79
595.40	2323.27
595.75	2317.54
596.10	2313.87
596.45	2309.03
596.80	2304.26
597.15	2299.00
597.50	2293.00
597.85	2287.99
598.19	2282.74
598.54	2277.01
598.89	2271.75
599.24	2267.11
599.59	2260.92
599.94	2254.91
600.29	2249.00
600.64	2243.09
600.99	2236.25
601.34	2230.76
601.69	2223.62
602.04	2217.20
602.39	2210.51
602.74	2204.51
603.08	2198.99
603.43	2192.31
603.78	2185.28
604.13	2178.13
604.48	2170.76
604.83	2164.57
605.18	2158.49
605.53	2151.53
605.87	2144.41
606.22	2137.55
606.57	2129.48
606.92	2121.62
607.27	2114.73
607.62	2108.03
607.96	2101.07
608.31	2094.59
608.66	2086.81
609.01	2079.24
609.36	2071.91
609.70	2064.12
610.05	2056.18
610.40	2047.66
610.75	2039.32
611.10	2031.72
611.44	2022.82
611.79	2014.10
612.14	2004.12
612.49	1993.26
612.83	1983.83
613.18	1974.61
613.53	1965.24
613.88	1955.67
614.22	1946.92
614.57	1937.03
614.92	1926.40
615.27	1915.96
615.61	1905.78
615.96	1896.09
616.31	1886.44
616.65	1877.21
617.00	1867.31
617.35	1857.68
617.70	1847.97
618.04	1837.90
618.39	1827.68
618.74	1818.09
619.08	1808.51
619.43	1799.71
619.78	1791.58
620.12	1782.93
620.47	1773.18
620.82	1762.89
621.16	1753.12
621.51	1743.34
621.85	1733.56
622.20	1723.20
622.55	1712.64
622.89	1702.67
623.24	1692.98
623.59	1683.16
623.93	1672.94
624.28	1663.22
624.62	1653.08
624.97	1642.87
625.32	1633.16
625.66	1624.30
626.01	1615.52
626.35	1606.17
626.70	1596.22
627.04	1586.03
627.39	1575.92
627.73	1566.78
628.08	1557.84
628.43	1548.41
628.77	1539.15
629.12	1530.28
629.46	1522.50
629.81	1514.30
630.15	1504.84
630.50	1495.10
630.84	1484.69
631.19	1474.82
631.53	1465.61
631.88	1455.50
632.22	1445.45
632.57	1436.09
632.91	1426.04
633.26	1416.16
633.60	1406.56
633.95	1397.18
634.29	1387.82
634.64	1378.59
634.98	1368.62
635.32	1359.30
635.67	1350.76
636.01	1341.59
636.36	1331.84
636.70	1322.34
637.05	1312.94
637.39	1303.95
637.73	1295.28
638.08	1287.69
638.42	1279.47
638.77	1270.62
639.11	1262.39
639.45	1254.62
639.80	1246.12
640.14	1237.27
640.49	1228.47
640.83	1219.66
641.17	1211.55
641.52	1203.37
641.86	1194.72
642.20	1186.98
642.55	1178.38
642.89	1169.47
643.23	1160.75
643.58	1152.67
643.92	1143.61
644.26	1134.85
644.61	1126.46
644.95	1117.58
645.29	1108.42
645.64	1099.30
645.98	1090.74
646.32	1082.80
646.66	1074.34
647.01	1066.06
647.35	1058.02
647.69	1049.72
648.04	1041.40
648.38	1032.47
648.72	1023.74
649.06	1015.23
649.41	1006.89
649.75	998.88
650.09	990.95
650.43	982.87
650.78	974.47
651.12	966.75
651.46	959.35
651.80	952.10
652.14	944.79
652.49	937.20
652.83	929.82
653.17	922.21
653.51	914.58
653.85	907.27
654.20	899.83
654.54	892.31
654.88	885.05
655.22	877.77
655.56	870.76
655.90	863.89
656.25	857.29
656.59	850.39
656.93	843.36
657.27	836.26
657.61	829.24
657.95	823.19
658.29	817.22
658.64	811.13
658.98	804.63
659.32	798.11
659.66	791.84
660.00	785.52
660.34	779.41
660.68	773.24
661.02	766.86
661.36	760.99
661.70	755.14
662.05	749.46
662.39	743.97
662.73	738.57
663.07	733.16
663.41	727.52
663.75	721.84
664.09	716.13
664.43	710.61
664.77	705.23
665.11	699.37
665.45	693.52
665.79	687.65
666.13	681.93
666.47	676.37
666.81	670.89
667.15	665.44
667.49	660.25
667.83	654.94
668.17	649.71
668.51	644.55
668.85	639.62
669.19	634.59
669.53	629.55
669.87	624.42
670.21	619.58
670.55	614.77
670.89	610.23
671.23	605.95
671.57	601.59
671.91	597.28
672.25	593.09
672.58	588.87
672.92	584.84
673.26	580.94
673.60	577.01
673.94	573.14
674.28	569.54
674.62	565.73
674.96	561.99
675.30	558.38
675.64	554.67
675.97	551.02
676.31	547.43
676.65	543.80
676.99	540.31
677.33	536.50
677.67	532.87
678.01	529.02
678.34	525.24
678.68	521.64
679.02	518.05
679.36	514.29
679.70	510.57
680.04	506.87
680.37	503.34
680.71	499.99
681.05	496.81
681.39	493.46
681.73	490.25
682.06	487.20
682.40	484.13
682.74	480.93
683.08	477.72
683.42	474.51
683.75	471.48
684.09	468.40
684.43	465.56
684.77	462.58
685.10	459.70
685.44	456.82
685.78	453.92
686.12	451.08
686.45	448.38
686.79	445.67
687.13	443.14
687.46	440.45
687.80	437.79
688.14	434.89
688.48	432.22
688.81	429.49
689.15	426.86
689.49	424.19
689.82	421.60
690.16	418.92
690.50	416.41
690.83	413.91
691.17	411.32
691.51	408.79
691.84	406.48
692.18	404.20
692.52	401.97
692.85	399.77
693.19	397.57
693.52	395.31
693.86	393.07
694.20	390.86
694.53	388.70
694.87	386.45
695.21	384.30
695.54	382.11
695.88	379.92
696.21	377.63
696.55	375.50
696.88	373.37
697.22	371.34
697.56	369.44
697.89	367.49
698.23	365.74
698.56	363.92
698.90	362.14
699.23	360.24
699.57	358.32
699.90	356.40
700.24	354.57
700.58	352.79
700.91	351.14
701.25	349.52
701.58	347.89
701.92	346.30
702.25	344.68
702.59	343.05
702.92	341.51
703.26	339.94
703.59	338.43
703.93	337.15
704.26	335.70
704.60	334.15
704.93	332.66
705.26	331.17
705.60	329.65
705.93	328.09
706.27	326.73
706.60	325.42
706.94	324.19
707.27	322.81
707.61	321.44
707.94	320.07
708.27	318.53
708.61	317.08
708.94	315.63
709.28	314.30
709.61	313.03
709.94	311.80
710.28	310.58
710.61	309.36
710.95	307.93
711.28	306.87
711.61	305.66
711.95	304.49
712.28	303.22
712.61	302.02
712.95	300.97
713.28	299.91
713.61	298.75
713.95	297.57
714.28	296.53
714.61	295.46
714.95	294.42
715.28	293.39
715.61	292.35
715.95	291.41
716.28	290.45
716.61	289.47
716.95	288.42
717.28	287.45
717.61	286.50
717.94	285.62
718.28	284.51
718.61	283.63
718.94	282.71
719.27	281.86
719.61	281.03
719.94	280.16
720.27	279.15
720.60	278.32
720.94	277.49
721.27	276.74
721.60	276.01
721.93	275.25
722.27	274.55
722.60	273.87
722.93	273.14
723.26	272.45
723.59	271.74
723.93	271.10
724.26	270.47
724.59	269.78
724.92	269.15
725.25	268.62
725.59	268.02
725.92	267.48
726.25	266.89
726.58	266.31
726.91	265.67
727.24	265.14
727.57	264.58
727.91	263.97
728.24	263.35
728.57	262.78
728.90	262.22
729.23	261.60
729.56	261.18
729.89	260.65
730.22	260.08
730.55	259.53
730.89	258.98
731.22	258.40
731.55	257.90
731.88	257.37
732.21	256.79
732.54	256.26
732.87	255.73
733.20	255.25
733.53	254.79
733.86	254.32
734.19	253.81
734.52	253.36
734.85	253.06
735.18	252.58
735.51	252.18
735.84	251.76
736.17	251.39
736.50	250.82
736.83	250.63
737.16	250.24
737.49	249.86
737.82	249.45
738.15	249.08
738.48	248.70
738.81	248.31
739.14	247.90
739.47	247.51
739.80	247.11
740.13	246.75
740.46	246.30
740.79	245.93
741.12	245.57
741.45	245.19
741.78	244.73
742.11	244.49
742.44	244.08
742.77	243.79
743.10	243.43
743.43	243.11
743.75	242.57
744.08	242.52
744.41	242.14
744.74	241.81
745.07	241.45
745.40	241.15
745.73	240.87
746.06	240.53
746.39	240.26
746.71	239.92
747.04	239.54
747.37	239.25
747.70	238.94
748.03	238.63
748.36	238.34
748.68	238.00
749.01	237.62
749.34	237.37
749.67	237.03
750.00	236.76
750.33	236.63
750.65	236.32
750.98	235.76
751.31	235.53
751.64	235.30
751.97	235.21
752.29	234.94
752.62	234.61
752.95	234.34
753.28	234.04
753.60	233.80
753.93	233.64
754.26	233.40
754.59	233.12
754.91	232.90
755.24	232.65
755.57	232.48
755.90	232.26
756.22	231.99
756.55	231.75
756.88	231.50
757.20	231.15
757.53	230.90
757.86	230.68
758.19	230.48
758.51	230.26
758.84	229.93
759.17	229.69
759.49	229.51
759.82	229.46
760.15	229.31
760.47	229.12
760.80	228.86
761.13	228.71
761.45	228.52
761.78	228.31
762.11	228.15
762.43	227.95
762.76	227.77
763.08	227.64
763.41	227.48
763.74	227.35
764.06	227.17
764.39	227.02
764.71	226.85
765.04	226.69
765.37	226.51
765.69	226.36
766.02	226.24
766.34	226.10
766.67	225.87
767.00	225.78
767.32	225.74
767.65	225.78
767.97	225.63
768.30	225.54
768.62	225.45
768.95	225.27
769.27	225.12
769.60	225.04
769.92	224.86
770.25	224.72
770.57	224.53
770.90	224.41
771.22	224.27
771.55	224.16
771.87	224.05
772.20	223.94
772.52	223.99
772.85	224.12
773.17	224.02
773.50	223.89
773.82	223.74
774.15	223.56
774.47	223.28
774.80	223.17
775.12	223.04
775.45	222.92
775.77	222.86
776.09	222.79
776.42	222.67
776.74	222.66
777.07	222.53
777.39	222.45
777.72	222.35
778.04	222.32
778.36	222.22
778.69	222.13
779.01	222.06
779.33	221.80
779.66	221.46
779.98	221.33
780.31	221.29
780.63	221.29
780.95	221.26
781.28	221.20
781.60	221.12
781.92	221.07
782.25	220.99
782.57	220.92
782.89	220.83
783.22	220.77
783.54	220.66
783.86	220.64
784.19	220.58
784.51	220.60
784.83	220.51
785.16	220.44
785.48	220.40
785.80	220.36
786.12	220.32
786.45	220.26
786.77	220.25
787.09	220.14
787.42	219.99
787.74	219.91
788.06	219.86
788.38	219.77
788.71	219.67
789.03	219.62
789.35	219.57
789.67	219.48
789.99	219.45
790.32	219.37
790.64	219.36
790.96	219.49
791.28	219.34
791.61	219.25
791.93	219.21
792.25	219.14
792.57	219.23
792.89	219.15
793.21	219.10
793.54	219.03
793.86	218.97
794.18	218.93
794.50	218.86
794.82	218.82
795.14	218.80
795.47	218.82
795.79	218.78
796.11	218.71
796.43	218.69
796.75	218.61
797.07	218.56
797.39	218.52
797.71	218.33
798.04	218.29
798.36	218.28
798.68	218.26
799.00	218.24
799.32	218.09
799.64	218.07
799.96	218.06
800.28	218.06
800.60	218.03
800.92	218.02
801.24	217.98
801.56	217.97
801.89	217.91
802.21	217.87
802.53	217.79
802.85	217.80
803.17	217.82
803.49	217.74
803.81	217.69
804.13	217.64
804.45	217.56
804.77	217.55
805.09	217.53
805.41	217.46
805.73	217.38
806.05	217.32
806.37	217.30
806.69	217.24
807.01	217.21
807.33	217.17
807.65	217.07
807.97	217.12
808.28	217.08
808.60	217.09
808.92	217.01
809.24	217.10
809.56	217.02
809.88	216.97
810.20	216.95
810.52	216.96
810.84	216.90
811.16	216.88
811.48	216.81
811.80	216.86
812.12	216.80
812.43	216.84
812.75	216.78
813.07	216.73
813.39	216.70
813.71	216.64
814.03	216.58
814.35	216.55
814.67	216.47
814.98	216.39
815.30	216.35
815.62	216.32
815.94	216.19
816.26	216.20
816.58	216.13
816.89	216.18
817.21	216.11
817.53	216.13
817.85	216.10
818.17	216.14
818.48	216.01
818.80	216.09
819.12	216.02
819.44	216.00
819.76	215.97
820.07	215.96
820.39	215.94
820.71	215.98
821.03	215.95
821.34	215.90
821.66	215.90
821.98	215.89
822.30	215.85
822.61	215.97
822.93	215.92
823.25	215.90
823.57	215.82
823.88	215.85
824.20	215.84
824.52	215.86
824.83	215.80
825.15	215.79
825.47	215.73
825.79	215.74
826.10	215.71
826.42	215.70
826.74	215.72
827.05	215.71
827.37	215.70
827.69	215.69
828.00	215.70
828.32	215.72
828.64	215.68
828.95	215.78
829.27	215.70
829.58	215.69
829.90	215.73
830.22	215.72
830.53	215.64
830.85	215.56
831.17	215.55
831.48	215.56
831.80	215.54
832.11	215.49
832.43	215.47
832.75	215.47
833.06	215.60
833.38	215.53
833.69	215.47
834.01	215.47
834.32	215.44
834.64	215.44
834.96	215.43
835.27	215.42
835.59	215.37
835.90	215.29
836.22	215.28
836.53	215.19
836.85	215.16
837.16	215.37
837.48	215.39
837.79	215.41
838.11	215.41
838.42	215.40
838.74	215.44
839.05	215.40
839.37	215.36
839.68	215.19
840.00	215.20
840.31	215.25
840.63	215.18
840.94	215.18
841.26	215.11
841.57	215.06
841.88	215.07
842.20	215.01
842.51	215.02
842.83	214.98
843.14	215.18
843.46	215.19
843.77	215.08
844.08	215.04
844.40	214.97
844.71	214.95
845.03	214.94
845.34	214.94
845.65	214.95
845.97	214.96
846.28	214.97
846.60	214.94
846.91	214.89
847.22	214.93
847.54	214.99
847.85	215.04
848.16	215.02
848.48	214.99
848.79	215.10
849.10	215.10
849.42	215.14
849.73	214.93
850.04	214.92
850.36	214.85
850.67	214.90
850.98	214.91
851.30	214.92
851.61	214.93
851.92	214.87
852.23	214.90
852.55	214.91
852.86	214.89
853.17	214.92
853.49	214.95
853.80	214.96
854.11	214.95
854.42	214.96
854.74	214.93
855.05	214.93
855.36	214.81
855.67	214.84
855.99	214.86
856.30	215.13
856.61	215.11
856.92	215.13
857.23	215.12
857.55	215.12
857.86	215.08
858.17	215.09
858.48	215.10
858.79	215.07
859.11	215.06
859.42	215.08
859.73	215.05
860.04	215.06
860.35	215.02
860.66	214.94
860.98	214.92
861.29	214.97
861.60	214.96
861.91	215.02
862.22	214.97
862.53	214.94
862.84	214.68
863.16	214.75
863.47	214.71
863.78	214.67
864.09	214.68
864.40	214.72
864.71	214.73
865.02	214.71
865.33	214.68
865.64	214.67
865.95	214.66
866.27	214.81
866.58	214.76
866.89	214.79
867.20	214.80
867.51	214.76
867.82	214.75
868.13	214.78
868.44	214.71
868.75	214.75
869.06	214.74
869.37	214.78
869.68	214.74
869.99	214.76
870.30	214.79
870.61	214.81
870.92	214.75
871.23	214.73
871.54	214.80
871.85	214.87
872.16	214.87
872.47	214.86
872.78	214.75
873.09	214.80
873.40	214.79
873.71	214.78
874.02	214.81
874.33	214.81
874.64	214.79
874.95	214.83
875.26	214.78
875.56	214.77
875.87	214.73
876.18	214.68
876.49	214.90
876.80	214.86
877.11	214.80
877.42	214.83
877.73	214.82
878.04	214.75
878.35	214.74
878.66	214.76
878.96	214.76
879.27	214.73
879.58	214.70
879.89	214.67
880.20	214.77
880.51	214.75
880.82	214.72
881.12	214.75
881.43	214.72
881.74	214.73
882.05	214.69
882.36	214.70
882.67	214.76
882.97	214.49
883.28	214.48
883.59	214.48
883.90	214.49
884.21	214.50
884.51	214.49
884.82	214.42
885.13	214.41
885.44	214.40
885.74	214.40
886.05	214.39
886.36	214.39
886.67	214.28
886.98	214.35
887.28	214.38
887.59	214.37
887.90	214.39
888.20	214.37
888.51	214.45
888.82	214.41
889.13	214.41
889.43	214.61
889.74	214.61
890.05	214.59
890.35	214.57
890.66	214.56
890.97	214.54
891.28	214.56
891.58	214.55
891.89	214.53
892.20	214.51
892.50	214.47
892.81	214.46
893.12	214.48
893.42	214.41
893.73	214.40
894.04	214.40
894.34	214.38
894.65	214.36
894.95	214.32
895.26	214.35
895.57	214.43
895.87	214.24
896.18	214.26
896.48	214.28
896.79	214.29
897.10	214.30
897.40	214.32
897.71	214.34
898.01	214.31
898.32	214.37
898.63	214.36
898.93	214.39
899.24	214.38
899.54	214.37
899.85	214.37
900.15	214.38
900.46	214.36
900.76	214.43
901.07	214.44
901.38	214.41
901.68	214.45
901.99	214.37
902.29	214.37
902.60	214.34
902.90	214.33
903.21	214.30
903.51	214.26
903.82	214.32
904.12	214.33
904.43	214.36
904.73	214.37
905.03	214.39
905.34	214.57
905.64	214.58
905.95	214.59
906.25	214.58
906.56	214.56
906.86	214.56
907.17	214.50
907.47	214.52
907.77	214.51
908.08	214.45
908.38	214.44
908.69	214.47
908.99	214.51
909.30	214.53
909.60	214.52
909.90	214.56
910.21	214.47
910.51	214.41
910.81	214.41
911.12	214.41
911.42	214.40
911.73	214.18
912.03	214.20
912.33	214.23
912.64	214.23
912.94	214.20
913.24	214.19
913.55	214.18
913.85	214.18
914.15	214.26
914.46	214.29
914.76	214.22
915.06	214.21
915.37	214.19
915.67	214.19
915.97	214.25
916.27	214.21
916.58	214.25
916.88	214.26
917.18	214.23
917.49	214.34
917.79	214.35
918.09	214.38
918.39	214.44
918.70	214.42
919.00	214.44
919.30	214.57
919.60	214.54
919.91	214.52
920.21	214.50
920.51	214.44
920.81	214.42
921.12	214.51
921.42	214.51
921.72	214.55
922.02	214.54
922.32	214.54
922.63	214.53
922.93	214.62
923.23	214.64
923.53	214.63
923.83	214.50
924.13	214.50
924.44	214.50
924.74	214.52
925.04	214.59
925.34	214.57
925.64	214.47
925.94	214.46
926.24	214.57
926.55	214.55
926.85	214.55
927.15	214.54
927.45	214.53
927.75	214.51
928.05	214.50
928.35	214.49
928.65	214.50
928.95	214.53
929.26	214.46
929.56	214.47
929.86	214.51
930.16	214.50
930.46	214.50
930.76	214.50
931.06	214.41
931.36	214.33
931.66	214.35
931.96	214.37
932.26	214.37
932.56	214.29
932.86	214.33
933.16	214.35
933.46	214.34
933.76	214.30
934.06	214.33
934.36	214.41
934.66	214.41
934.96	214.42
935.26	214.43
935.56	214.47
935.86	214.48
936.16	214.45
936.46	214.43
936.76	214.40
937.06	214.41
937.36	214.43
937.66	214.48
937.96	214.46
938.26	214.43
938.56	214.45
938.86	214.47
939.16	214.49
939.46	214.53
939.76	214.53
940.06	214.53
940.35	214.51
940.65	214.38
940.95	214.38
941.25	214.33
941.55	214.30
941.85	214.26
942.15	214.28
942.45	214.33
942.75	214.32
943.04	214.35
943.34	214.39
943.64	214.37
943.94	214.31
944.24	214.35
944.54	214.35
944.84	214.36
945.13	214.31
945.43	214.29
945.73	214.26
946.03	214.22
946.33	214.20
946.62	214.20
946.92	214.21
947.22	214.25
947.52	214.25
947.82	214.25
948.11	214.23
948.41	214.18
948.71	214.10
949.01	214.14
949.31	214.12
949.60	214.09
949.90	214.12
950.20	214.12
950.50	214.07
950.79	214.05
951.09	214.06
951.39	214.06
951.69	214.03
951.98	214.07
952.28	214.12
952.58	214.14
952.87	214.13
953.17	214.15
953.47	214.12
953.76	214.12
954.06	214.11
954.36	214.07
954.66	214.08
954.95	214.18
955.25	214.16
955.55	214.14
955.84	214.07
956.14	214.08
956.44	214.08
956.73	214.06
957.03	214.08
957.32	214.06
957.62	214.05
957.92	214.09
958.21	214.04
958.51	214.28
958.81	214.27
959.10	214.29
959.40	214.33
959.69	214.35
959.99	214.36
960.29	214.34
960.58	214.33
960.88	214.39
961.17	214.32
961.47	214.36
961.76	214.37
962.06	214.44
962.36	214.37
962.65	214.36
962.95	214.37
963.24	214.32
963.54	214.31
963.83	214.35
964.13	214.32
964.42	214.29
964.72	214.11
965.01	214.14
965.31	214.12
965.60	214.07
965.90	214.21
966.19	214.17
966.49	214.20
966.78	214.21
967.08	214.20
967.37	214.19
967.67	214.16
967.96	214.19
968.26	214.17
968.55	214.21
968.85	214.22
969.14	214.20
969.43	214.22
969.73	214.21
970.02	214.17
970.32	214.18
970.61	214.17
970.91	214.09
971.20	214.04
971.49	214.02
971.79	214.02
972.08	213.88
972.38	213.88
972.67	213.87
972.96	213.89
973.26	213.84
973.55	213.92
973.85	213.90
974.14	213.87
974.43	213.89
974.73	213.88
975.02	213.86
975.31	213.87
975.61	213.89
975.90	213.87
976.19	213.84
976.49	213.86
976.78	213.85
977.07	213.87
977.37	213.90
977.66	213.93
977.95	213.91
978.24	213.90
978.54	213.99
978.83	213.95
979.12	213.92
979.42	213.93
979.71	213.88
980.00	213.86
980.29	213.87
980.59	213.84
980.88	213.89
981.17	213.91
981.46	213.92
981.76	213.91
982.05	213.99
982.34	214.04
982.63	214.03
982.93	214.05
983.22	214.05
983.51	214.04
983.80	214.05
984.09	214.07
984.39	214.06
984.68	214.02
984.97	214.07
985.26	214.06
985.55	214.08
985.85	214.04
986.14	214.06
986.43	214.10
986.72	214.09
987.01	214.02
987.30	214.04
987.59	214.01
987.89	213.99
988.18	213.92
988.47	213.88
988.76	213.87
989.05	213.90
989.34	213.90
989.63	213.97
989.92	213.96
990.22	213.91
990.51	213.92
990.80	213.89
991.09	213.87
991.38	213.91
991.67	213.87
991.96	213.83
992.25	213.83
992.54	213.76
992.83	213.75
993.12	213.75
993.41	213.79
993.70	213.86
993.99	213.93
994.28	213.97
994.58	214.01
994.87	213.96
995.16	213.94
995.45	213.90
995.74	213.82
996.03	213.86
996.32	213.88
996.61	213.91
996.90	213.93
997.19	213.93
997.48	213.94
997.77	213.92
998.06	213.94
998.34	213.96
998.63	213.97
998.92	214.02
999.21	214.04
999.50	214.02
999.79	213.98
1000.08	213.95
1000.37	213.95
1000.66	213.92
1000.95	214.01
1001.24	214.00
1001.53	214.05
1001.82	214.01
1002.11	213.95
1002.40	214.00
1002.68	214.05
1002.97	214.17
1003.26	214.17
1003.55	214.12
1003.84	214.18
1004.13	214.27
1004.42	214.23
1004.71	214.22
1004.99	214.17
1005.28	214.26
1005.57	214.27
1005.86	214.26
1006.15	214.22
1006.44	214.17
1006.72	214.23
1007.01	214.21
1007.30	214.21
1007.59	214.18
1007.88	214.21
1008.17	214.24
1008.45	214.22
1008.74	214.13
1009.03	214.02
1009.32	213.99
1009.60	213.98
1009.89	213.93
1010.18	213.82
1010.47	213.81
1010.76	213.83
1011.04	213.84
1011.33	213.81
1011.62	213.82
1011.91	213.80
1012.19	213.85
1012.48	213.88
1012.77	213.85
1013.05	213.93
1013.34	213.95
1013.63	213.94
1013.92	213.94
1014.20	213.90
1014.49	213.88
1014.78	213.91
1015.06	213.87
1015.35	213.88
1015.64	213.92
1015.92	213.97
1016.21	213.99
1016.50	214.00
1016.78	214.03
1017.07	214.04
1017.36	213.99
1017.64	213.97
1017.93	213.98
1018.22	213.95
1018.50	213.94
1018.79	213.94
1019.08	213.83
1019.36	213.84
1019.65	213.81
1019.93	213.85
1020.22	213.91
1020.51	214.00
1020.79	214.00
1021.08	213.55
1021.36	213.81
1021.65	213.90
1021.94	213.83
1022.22	214.20
1022.51	213.26
1022.79	214.39
1023.08	214.44
1023.36	216.13
1023.65	213.83
>>>>>End Processed Spectral Data<<<<<
