SpectraSuite Data File
++++++++++++++++++++++++++++++++++++
Date: Tue Jan 29 16:33:02 EST 2013
User: group
Dark Spectrum Present: No
Reference Spectrum Present: No
Number of Sampled Component Spectra: 1
Spectrometers: USB2E7196
Integration Time (usec): 65000 (USB2E7196)
Spectra Averaged: 100 (USB2E7196)
Boxcar Smoothing: 10 (USB2E7196)
Correct for Electrical Dark: No (USB2E7196)
Strobe/Lamp Enabled: No (USB2E7196)
Correct for Detector Non-linearity: No (USB2E7196)
Correct for Stray Light: No (USB2E7196)
Number of Pixels in Processed Spectrum: 2048
>>>>>Begin Processed Spectral Data<<<<<
339.09	0.00
339.48	202.08
339.86	203.43
340.24	204.88
340.63	205.89
341.01	210.74
341.39	209.33
341.78	210.21
342.16	211.62
342.54	211.83
342.93	201.22
343.31	211.40
343.69	211.94
344.07	212.43
344.46	212.87
344.84	213.27
345.22	213.42
345.60	213.66
345.99	213.89
346.37	214.05
346.75	214.16
347.13	214.25
347.52	214.30
347.90	214.41
348.28	214.43
348.66	214.52
349.05	214.48
349.43	214.54
349.81	214.58
350.19	214.63
350.57	214.65
350.96	214.73
351.34	214.82
351.72	214.91
352.10	214.98
352.48	215.04
352.87	215.07
353.25	215.19
353.63	215.26
354.01	215.27
354.39	215.33
354.77	215.43
355.15	215.53
355.54	215.57
355.92	215.57
356.30	215.64
356.68	215.79
357.06	215.86
357.44	215.88
357.82	215.91
358.20	216.00
358.58	216.09
358.97	216.15
359.35	216.23
359.73	216.32
360.11	216.39
360.49	216.46
360.87	216.52
361.25	216.60
361.63	216.67
362.01	216.76
362.39	216.76
362.77	216.79
363.15	216.80
363.53	216.84
363.91	216.88
364.29	216.92
364.67	216.77
365.05	216.82
365.43	216.85
365.81	216.93
366.19	217.06
366.57	217.13
366.95	217.13
367.33	217.09
367.71	217.08
368.09	217.14
368.47	217.13
368.85	217.10
369.23	217.09
369.61	217.06
369.99	217.11
370.37	217.15
370.75	217.22
371.13	217.20
371.51	217.17
371.89	217.18
372.27	217.17
372.65	217.16
373.03	217.12
373.41	217.10
373.78	217.07
374.16	216.91
374.54	216.81
374.92	216.74
375.30	216.71
375.68	216.63
376.06	216.56
376.44	216.52
376.82	216.53
377.19	216.47
377.57	216.39
377.95	216.27
378.33	216.20
378.71	216.04
379.09	216.02
379.47	216.03
379.84	215.94
380.22	215.87
380.60	215.81
380.98	215.82
381.36	215.78
381.73	215.68
382.11	215.68
382.49	215.67
382.87	215.62
383.25	215.58
383.62	215.81
384.00	215.73
384.38	215.73
384.76	215.74
385.13	215.79
385.51	215.75
385.89	215.71
386.27	215.68
386.64	215.71
387.02	215.66
387.40	215.59
387.78	215.60
388.15	215.59
388.53	215.57
388.91	215.51
389.29	215.45
389.66	215.47
390.04	215.46
390.42	215.47
390.79	215.46
391.17	215.42
391.55	215.18
391.92	215.18
392.30	215.16
392.68	215.11
393.05	215.07
393.43	215.08
393.81	215.10
394.18	215.09
394.56	215.05
394.94	215.09
395.31	215.09
395.69	215.17
396.06	215.20
396.44	215.25
396.82	215.26
397.19	215.40
397.57	215.40
397.95	215.42
398.32	215.40
398.70	215.47
399.07	215.57
399.45	215.64
399.82	215.67
400.20	215.72
400.58	215.75
400.95	215.75
401.33	215.87
401.70	216.08
402.08	216.17
402.45	216.29
402.83	216.43
403.20	216.55
403.58	216.57
403.95	216.74
404.33	216.91
404.71	217.03
405.08	217.30
405.46	217.48
405.83	217.68
406.21	217.88
406.58	218.11
406.96	218.32
407.33	218.56
407.70	218.89
408.08	219.32
408.45	219.72
408.83	220.09
409.20	220.45
409.58	220.72
409.95	221.16
410.33	221.64
410.70	222.08
411.08	222.64
411.45	223.26
411.82	223.81
412.20	224.48
412.57	225.32
412.95	225.83
413.32	226.64
413.69	227.48
414.07	228.38
414.44	229.36
414.82	230.40
415.19	231.59
415.56	232.78
415.94	233.99
416.31	235.35
416.68	236.77
417.06	238.37
417.43	239.94
417.81	241.71
418.18	243.48
418.55	245.38
418.93	247.38
419.30	249.50
419.67	251.75
420.04	254.03
420.42	256.43
420.79	259.27
421.16	262.11
421.54	265.03
421.91	268.05
422.28	271.17
422.66	274.47
423.03	277.72
423.40	281.05
423.77	284.66
424.15	288.32
424.52	292.20
424.89	296.37
425.26	300.46
425.64	304.34
426.01	308.65
426.38	313.19
426.75	317.74
427.13	322.47
427.50	327.45
427.87	332.68
428.24	337.87
428.61	342.88
428.99	348.36
429.36	354.36
429.73	360.22
430.10	366.07
430.47	372.14
430.85	378.44
431.22	385.21
431.59	392.34
431.96	399.19
432.33	406.65
432.70	413.91
433.08	422.37
433.45	430.45
433.82	438.47
434.19	447.32
434.56	456.05
434.93	464.40
435.30	472.64
435.68	481.74
436.05	490.77
436.42	499.73
436.79	507.95
437.16	516.71
437.53	526.04
437.90	535.19
438.27	544.19
438.64	553.45
439.01	561.98
439.38	569.56
439.75	576.90
440.13	585.35
440.50	593.34
440.87	599.75
441.24	606.43
441.61	613.83
441.98	619.26
442.35	625.60
442.72	631.92
443.09	638.01
443.46	641.77
443.83	644.30
444.20	646.47
444.57	649.62
444.94	651.12
445.31	652.59
445.68	654.04
446.05	654.69
446.42	653.89
446.79	652.98
447.16	651.89
447.53	651.18
447.90	647.89
448.27	644.63
448.64	640.08
449.01	636.77
449.37	630.77
449.74	625.11
450.11	618.24
450.48	610.80
450.85	603.34
451.22	596.89
451.59	590.75
451.96	584.89
452.33	577.00
452.70	569.87
453.07	561.33
453.43	552.72
453.80	544.40
454.17	536.42
454.54	528.81
454.91	520.59
455.28	512.58
455.65	505.12
456.02	497.59
456.38	491.23
456.75	483.31
457.12	476.78
457.49	470.23
457.86	464.02
458.23	458.68
458.59	452.75
458.96	446.73
459.33	441.41
459.70	436.07
460.07	431.82
460.43	426.94
460.80	422.37
461.17	418.35
461.54	414.14
461.91	410.07
462.27	405.94
462.64	402.53
463.01	398.76
463.38	395.04
463.74	391.26
464.11	387.99
464.48	385.13
464.85	382.03
465.21	379.63
465.58	377.03
465.95	373.84
466.32	371.21
466.68	368.56
467.05	365.90
467.42	363.33
467.78	360.61
468.15	358.02
468.52	356.10
468.88	353.57
469.25	351.26
469.62	349.48
469.98	347.52
470.35	345.67
470.72	343.98
471.08	342.17
471.45	340.66
471.82	339.12
472.18	337.44
472.55	336.22
472.92	334.76
473.28	333.51
473.65	332.36
474.02	331.23
474.38	330.36
474.75	329.63
475.11	328.79
475.48	328.18
475.85	327.68
476.21	327.18
476.58	326.82
476.94	326.62
477.31	326.31
477.67	326.09
478.04	325.98
478.41	325.87
478.77	326.03
479.14	326.02
479.50	326.12
479.87	326.42
480.23	326.77
480.60	327.00
480.96	327.26
481.33	327.91
481.69	328.53
482.06	329.05
482.42	329.48
482.79	330.10
483.15	330.89
483.52	331.83
483.88	332.75
484.25	333.68
484.61	334.72
484.98	335.75
485.34	337.03
485.71	338.38
486.07	339.84
486.44	341.21
486.80	342.82
487.17	344.50
487.53	346.34
487.90	348.18
488.26	350.22
488.62	352.41
488.99	354.40
489.35	356.54
489.72	358.94
490.08	361.54
490.44	364.13
490.81	366.87
491.17	369.62
491.54	372.55
491.90	375.61
492.26	378.84
492.63	382.29
492.99	385.75
493.36	389.41
493.72	393.33
494.08	397.30
494.45	401.53
494.81	405.95
495.17	410.43
495.54	415.21
495.90	420.04
496.26	424.94
496.63	430.23
496.99	435.68
497.35	441.27
497.72	447.11
498.08	452.99
498.44	459.08
498.80	465.56
499.17	472.11
499.53	478.78
499.89	485.77
500.26	492.76
500.62	499.91
500.98	507.32
501.34	514.81
501.71	522.61
502.07	530.48
502.43	538.49
502.79	546.69
503.16	555.08
503.52	563.75
503.88	572.55
504.24	581.52
504.60	590.63
504.97	599.90
505.33	609.24
505.69	619.21
506.05	629.11
506.41	639.00
506.78	649.11
507.14	659.44
507.50	669.88
507.86	680.60
508.22	691.47
508.59	702.14
508.95	713.24
509.31	724.66
509.67	736.14
510.03	747.59
510.39	759.38
510.75	771.24
511.12	783.26
511.48	795.41
511.84	807.67
512.20	820.05
512.56	832.79
512.92	845.71
513.28	858.42
513.64	871.35
514.00	884.27
514.37	897.40
514.73	910.51
515.09	923.61
515.45	936.59
515.81	949.71
516.17	963.27
516.53	976.61
516.89	989.72
517.25	1003.10
517.61	1016.70
517.97	1030.15
518.33	1043.38
518.69	1056.98
519.05	1070.88
519.41	1084.66
519.77	1098.61
520.13	1111.90
520.49	1125.04
520.85	1138.61
521.21	1152.04
521.57	1165.87
521.93	1178.97
522.29	1192.87
522.65	1206.64
523.01	1220.35
523.37	1233.69
523.73	1247.12
524.09	1260.52
524.45	1274.03
524.81	1287.42
525.17	1301.03
525.53	1314.29
525.89	1327.82
526.25	1341.15
526.61	1354.05
526.97	1367.35
527.33	1380.45
527.68	1394.09
528.04	1407.73
528.40	1420.94
528.76	1434.33
529.12	1447.40
529.48	1460.94
529.84	1473.22
530.20	1486.02
530.56	1498.81
530.91	1512.12
531.27	1525.09
531.63	1537.93
531.99	1550.87
532.35	1563.37
532.71	1575.87
533.07	1589.05
533.42	1601.36
533.78	1613.61
534.14	1625.83
534.50	1637.07
534.86	1648.87
535.21	1659.91
535.57	1671.49
535.93	1682.87
536.29	1694.08
536.65	1705.59
537.00	1716.56
537.36	1728.27
537.72	1739.56
538.08	1751.07
538.44	1762.15
538.79	1773.30
539.15	1784.26
539.51	1795.11
539.87	1806.61
540.22	1817.38
540.58	1828.25
540.94	1839.29
541.29	1849.58
541.65	1859.38
542.01	1870.14
542.37	1880.24
542.72	1890.46
543.08	1900.41
543.44	1911.03
543.79	1920.49
544.15	1929.91
544.51	1939.96
544.87	1949.92
545.22	1959.15
545.58	1968.18
545.94	1977.21
546.29	1985.77
546.65	1994.28
547.01	2002.60
547.36	2010.32
547.72	2018.16
548.07	2025.87
548.43	2033.66
548.79	2041.68
549.14	2049.97
549.50	2058.46
549.86	2066.39
550.21	2073.90
550.57	2081.67
550.92	2088.42
551.28	2095.98
551.64	2103.38
551.99	2111.05
552.35	2118.24
552.70	2125.22
553.06	2131.89
553.41	2138.14
553.77	2144.75
554.13	2151.15
554.48	2158.24
554.84	2165.43
555.19	2172.08
555.55	2178.74
555.90	2185.15
556.26	2192.01
556.61	2198.11
556.97	2202.94
557.32	2208.72
557.68	2215.22
558.03	2221.04
558.39	2226.56
558.74	2232.50
559.10	2238.27
559.45	2243.85
559.81	2249.42
560.16	2254.96
560.52	2260.77
560.87	2267.39
561.23	2273.40
561.58	2279.97
561.94	2285.25
562.29	2289.83
562.64	2296.04
563.00	2301.60
563.35	2307.13
563.71	2312.87
564.06	2318.63
564.42	2324.54
564.77	2329.69
565.12	2334.84
565.48	2339.86
565.83	2345.43
566.19	2350.96
566.54	2356.24
566.89	2360.90
567.25	2365.59
567.60	2371.24
567.96	2376.44
568.31	2380.82
568.66	2385.06
569.02	2389.14
569.37	2392.90
569.72	2397.39
570.08	2400.75
570.43	2403.84
570.78	2406.88
571.14	2409.47
571.49	2412.37
571.84	2415.94
572.20	2418.87
572.55	2421.76
572.90	2424.02
573.26	2426.74
573.61	2429.20
573.96	2431.22
574.31	2433.01
574.67	2434.68
575.02	2435.46
575.37	2436.91
575.72	2437.73
576.08	2439.12
576.43	2439.13
576.78	2439.51
577.13	2441.04
577.49	2442.20
577.84	2443.18
578.19	2444.56
578.54	2444.96
578.90	2445.68
579.25	2445.46
579.60	2445.24
579.95	2444.50
580.30	2444.60
580.66	2443.71
581.01	2442.01
581.36	2439.64
581.71	2438.34
582.06	2437.28
582.42	2436.31
582.77	2434.07
583.12	2432.27
583.47	2430.92
583.82	2430.36
584.17	2429.07
584.53	2426.80
584.88	2424.65
585.23	2422.83
585.58	2420.51
585.93	2418.49
586.28	2416.32
586.63	2413.79
586.98	2411.67
587.34	2409.76
587.69	2407.25
588.04	2405.21
588.39	2403.67
588.74	2401.24
589.09	2398.30
589.44	2394.94
589.79	2392.42
590.14	2390.27
590.49	2387.44
590.84	2383.44
591.19	2380.06
591.54	2376.68
591.89	2372.59
592.25	2369.27
592.60	2364.87
592.95	2360.54
593.30	2356.23
593.65	2351.80
594.00	2347.36
594.35	2344.23
594.70	2339.54
595.05	2334.98
595.40	2329.37
595.75	2323.44
596.10	2319.63
596.45	2314.84
596.80	2310.29
597.15	2305.00
597.50	2299.03
597.85	2293.92
598.19	2288.73
598.54	2282.92
598.89	2277.70
599.24	2273.19
599.59	2266.84
599.94	2260.97
600.29	2254.84
600.64	2248.95
600.99	2242.07
601.34	2236.46
601.69	2229.31
602.04	2222.75
602.39	2216.08
602.74	2209.95
603.08	2204.53
603.43	2197.97
603.78	2191.03
604.13	2183.93
604.48	2176.53
604.83	2170.30
605.18	2163.98
605.53	2156.99
605.87	2149.89
606.22	2143.02
606.57	2135.00
606.92	2127.15
607.27	2120.14
607.62	2113.55
607.96	2106.38
608.31	2099.86
608.66	2092.03
609.01	2084.48
609.36	2077.37
609.70	2069.58
610.05	2061.65
610.40	2053.19
610.75	2044.80
611.10	2037.06
611.44	2028.12
611.79	2019.52
612.14	2009.58
612.49	1999.00
612.83	1989.50
613.18	1980.24
613.53	1970.78
613.88	1961.07
614.22	1952.40
614.57	1942.54
614.92	1932.01
615.27	1921.69
615.61	1911.60
615.96	1901.92
616.31	1892.15
616.65	1882.64
617.00	1872.82
617.35	1863.25
617.70	1853.49
618.04	1843.54
618.39	1833.34
618.74	1823.67
619.08	1813.95
619.43	1805.33
619.78	1797.12
620.12	1788.61
620.47	1778.99
620.82	1768.60
621.16	1758.86
621.51	1748.98
621.85	1739.11
622.20	1728.63
622.55	1718.11
622.89	1708.00
623.24	1698.31
623.59	1688.50
623.93	1678.24
624.28	1668.55
624.62	1658.47
624.97	1648.15
625.32	1638.14
625.66	1629.12
626.01	1620.33
626.35	1610.91
626.70	1600.67
627.04	1590.42
627.39	1580.29
627.73	1571.00
628.08	1562.13
628.43	1552.57
628.77	1543.28
629.12	1534.34
629.46	1526.51
629.81	1518.13
630.15	1508.70
630.50	1498.90
630.84	1488.43
631.19	1478.65
631.53	1469.16
631.88	1458.91
632.22	1448.86
632.57	1439.54
632.91	1429.43
633.26	1419.43
633.60	1409.87
633.95	1400.51
634.29	1391.05
634.64	1381.62
634.98	1371.69
635.32	1362.40
635.67	1353.95
636.01	1344.58
636.36	1334.79
636.70	1325.31
637.05	1316.01
637.39	1307.06
637.73	1298.42
638.08	1290.83
638.42	1282.59
638.77	1273.88
639.11	1265.68
639.45	1257.82
639.80	1249.22
640.14	1240.52
640.49	1231.63
640.83	1222.76
641.17	1214.64
641.52	1206.47
641.86	1197.84
642.20	1189.90
642.55	1181.20
642.89	1172.20
643.23	1163.42
643.58	1155.40
643.92	1146.27
644.26	1137.44
644.61	1128.93
644.95	1120.06
645.29	1110.85
645.64	1101.57
645.98	1093.01
646.32	1084.99
646.66	1076.44
647.01	1068.14
647.35	1059.93
647.69	1051.59
648.04	1043.23
648.38	1034.38
648.72	1025.58
649.06	1017.17
649.41	1008.94
649.75	1000.92
650.09	992.98
650.43	984.97
650.78	976.43
651.12	968.66
651.46	961.16
651.80	953.84
652.14	946.51
652.49	938.86
652.83	931.58
653.17	923.85
653.51	916.19
653.85	908.90
654.20	901.45
654.54	893.96
654.88	886.67
655.22	879.41
655.56	872.23
655.90	865.31
656.25	858.51
656.59	851.52
656.93	844.38
657.27	837.23
657.61	830.27
657.95	824.23
658.29	818.31
658.64	812.18
658.98	805.72
659.32	799.08
659.66	792.84
660.00	786.43
660.34	780.35
660.68	774.16
661.02	767.80
661.36	761.88
661.70	756.04
662.05	750.32
662.39	744.82
662.73	739.37
663.07	733.96
663.41	728.30
663.75	722.60
664.09	717.00
664.43	711.46
664.77	706.08
665.11	700.18
665.45	694.15
665.79	688.26
666.13	682.47
666.47	676.97
666.81	671.45
667.15	665.99
667.49	660.65
667.83	655.36
668.17	650.02
668.51	644.90
668.85	639.93
669.19	635.04
669.53	629.95
669.87	624.83
670.21	620.00
670.55	615.25
670.89	610.62
671.23	606.21
671.57	601.81
671.91	597.40
672.25	593.20
672.58	589.03
672.92	584.92
673.26	580.89
673.60	577.00
673.94	573.13
674.28	569.49
674.62	565.78
674.96	561.98
675.30	558.48
675.64	554.73
675.97	551.06
676.31	547.38
676.65	543.74
676.99	540.28
677.33	536.36
677.67	532.69
678.01	528.87
678.34	525.22
678.68	521.66
679.02	518.08
679.36	514.28
679.70	510.62
680.04	507.03
680.37	503.62
680.71	500.21
681.05	496.97
681.39	493.65
681.73	490.40
682.06	487.37
682.40	484.21
682.74	480.98
683.08	477.75
683.42	474.51
683.75	471.48
684.09	468.39
684.43	465.64
684.77	462.67
685.10	459.81
685.44	456.84
685.78	453.87
686.12	451.02
686.45	448.31
686.79	445.58
687.13	443.05
687.46	440.36
687.80	437.63
688.14	434.78
688.48	432.11
688.81	429.38
689.15	426.76
689.49	424.13
689.82	421.54
690.16	418.92
690.50	416.40
690.83	413.84
691.17	411.25
691.51	408.65
691.84	406.32
692.18	404.09
692.52	401.84
692.85	399.66
693.19	397.49
693.52	395.33
693.86	393.07
694.20	390.82
694.53	388.63
694.87	386.43
695.21	384.26
695.54	382.09
695.88	379.87
696.21	377.58
696.55	375.41
696.88	373.33
697.22	371.33
697.56	369.42
697.89	367.49
698.23	365.74
698.56	363.95
698.90	362.17
699.23	360.22
699.57	358.34
699.90	356.44
700.24	354.59
700.58	352.80
700.91	351.11
701.25	349.51
701.58	347.86
701.92	346.25
702.25	344.64
702.59	342.99
702.92	341.44
703.26	339.89
703.59	338.39
703.93	337.10
704.26	335.62
704.60	334.06
704.93	332.62
705.26	331.08
705.60	329.60
705.93	328.04
706.27	326.70
706.60	325.37
706.94	324.13
707.27	322.73
707.61	321.35
707.94	319.99
708.27	318.47
708.61	317.03
708.94	315.62
709.28	314.28
709.61	312.99
709.94	311.77
710.28	310.54
710.61	309.32
710.95	307.88
711.28	306.81
711.61	305.59
711.95	304.42
712.28	303.19
712.61	301.97
712.95	300.90
713.28	299.83
713.61	298.65
713.95	297.50
714.28	296.45
714.61	295.36
714.95	294.33
715.28	293.32
715.61	292.27
715.95	291.30
716.28	290.34
716.61	289.38
716.95	288.35
717.28	287.43
717.61	286.48
717.94	285.55
718.28	284.52
718.61	283.67
718.94	282.76
719.27	281.91
719.61	281.08
719.94	280.22
720.27	279.26
720.60	278.38
720.94	277.53
721.27	276.75
721.60	276.06
721.93	275.31
722.27	274.65
722.60	274.01
722.93	273.27
723.26	272.58
723.59	271.85
723.93	271.23
724.26	270.55
724.59	269.89
724.92	269.34
725.25	268.78
725.59	268.19
725.92	267.63
726.25	267.06
726.58	266.45
726.91	265.84
727.24	265.29
727.57	264.76
727.91	264.15
728.24	263.60
728.57	263.02
728.90	262.45
729.23	261.79
729.56	261.31
729.89	260.76
730.22	260.18
730.55	259.64
730.89	259.07
731.22	258.53
731.55	257.99
731.88	257.40
732.21	256.83
732.54	256.28
732.87	255.77
733.20	255.26
733.53	254.77
733.86	254.28
734.19	253.78
734.52	253.34
734.85	253.06
735.18	252.59
735.51	252.21
735.84	251.77
736.17	251.44
736.50	250.89
736.83	250.75
737.16	250.36
737.49	249.95
737.82	249.54
738.15	249.16
738.48	248.74
738.81	248.36
739.14	247.95
739.47	247.59
739.80	247.18
740.13	246.82
740.46	246.42
740.79	246.07
741.12	245.69
741.45	245.33
741.78	244.91
742.11	244.59
742.44	244.19
742.77	243.87
743.10	243.48
743.43	243.15
743.75	242.55
744.08	242.47
744.41	242.09
744.74	241.72
745.07	241.35
745.40	241.08
745.73	240.80
746.06	240.47
746.39	240.14
746.71	239.80
747.04	239.45
747.37	239.16
747.70	238.86
748.03	238.55
748.36	238.26
748.68	237.89
749.01	237.52
749.34	237.22
749.67	236.91
750.00	236.62
750.33	236.48
750.65	236.22
750.98	235.70
751.31	235.49
751.64	235.32
751.97	235.19
752.29	234.91
752.62	234.57
752.95	234.30
753.28	234.02
753.60	233.78
753.93	233.62
754.26	233.37
754.59	233.05
754.91	232.79
755.24	232.52
755.57	232.27
755.90	232.06
756.22	231.83
756.55	231.59
756.88	231.35
757.20	231.02
757.53	230.79
757.86	230.56
758.19	230.39
758.51	230.13
758.84	229.83
759.17	229.64
759.49	229.47
759.82	229.40
760.15	229.25
760.47	229.05
760.80	228.76
761.13	228.62
761.45	228.46
761.78	228.27
762.11	228.13
762.43	227.96
762.76	227.77
763.08	227.61
763.41	227.43
763.74	227.29
764.06	227.10
764.39	226.93
764.71	226.79
765.04	226.61
765.37	226.43
765.69	226.27
766.02	226.10
766.34	225.96
766.67	225.74
767.00	225.63
767.32	225.60
767.65	225.61
767.97	225.46
768.30	225.34
768.62	225.22
768.95	225.05
769.27	224.91
769.60	224.83
769.92	224.67
770.25	224.51
770.57	224.33
770.90	224.18
771.22	224.08
771.55	223.96
771.87	223.84
772.20	223.71
772.52	223.78
772.85	223.91
773.17	223.78
773.50	223.65
773.82	223.50
774.15	223.29
774.47	223.08
774.80	222.96
775.12	222.86
775.45	222.76
775.77	222.69
776.09	222.64
776.42	222.58
776.74	222.54
777.07	222.48
777.39	222.42
777.72	222.31
778.04	222.27
778.36	222.21
778.69	222.13
779.01	222.06
779.33	221.78
779.66	221.46
779.98	221.41
780.31	221.33
780.63	221.34
780.95	221.31
781.28	221.20
781.60	221.09
781.92	221.02
782.25	220.97
782.57	220.91
782.89	220.80
783.22	220.67
783.54	220.56
783.86	220.49
784.19	220.43
784.51	220.47
784.83	220.32
785.16	220.22
785.48	220.15
785.80	220.12
786.12	220.07
786.45	220.01
786.77	219.96
787.09	219.93
787.42	219.80
787.74	219.77
788.06	219.72
788.38	219.68
788.71	219.61
789.03	219.55
789.35	219.48
789.67	219.42
789.99	219.37
790.32	219.29
790.64	219.24
790.96	219.37
791.28	219.23
791.61	219.20
791.93	219.18
792.25	219.15
792.57	219.24
792.89	219.13
793.21	219.11
793.54	219.03
793.86	218.94
794.18	218.88
794.50	218.78
794.82	218.77
795.14	218.74
795.47	218.73
795.79	218.71
796.11	218.64
796.43	218.61
796.75	218.55
797.07	218.55
797.39	218.49
797.71	218.28
798.04	218.27
798.36	218.26
798.68	218.20
799.00	218.13
799.32	218.01
799.64	218.06
799.96	218.02
800.28	218.00
800.60	217.98
800.92	217.96
801.24	217.92
801.56	217.88
801.89	217.82
802.21	217.79
802.53	217.70
802.85	217.73
803.17	217.77
803.49	217.72
803.81	217.65
804.13	217.64
804.45	217.59
804.77	217.55
805.09	217.50
805.41	217.43
805.73	217.35
806.05	217.29
806.37	217.22
806.69	217.18
807.01	217.16
807.33	217.13
807.65	217.04
807.97	217.12
808.28	217.09
808.60	217.11
808.92	217.04
809.24	217.15
809.56	217.10
809.88	217.01
810.20	217.00
810.52	217.05
810.84	216.97
811.16	216.93
811.48	216.91
811.80	216.98
812.12	216.97
812.43	217.05
812.75	217.02
813.07	217.01
813.39	216.98
813.71	216.92
814.03	216.90
814.35	216.89
814.67	216.77
814.98	216.75
815.30	216.67
815.62	216.62
815.94	216.45
816.26	216.45
816.58	216.38
816.89	216.38
817.21	216.28
817.53	216.28
817.85	216.30
818.17	216.25
818.48	216.13
818.80	216.13
819.12	216.05
819.44	215.97
819.76	215.90
820.07	215.88
820.39	215.89
820.71	215.87
821.03	215.83
821.34	215.79
821.66	215.79
821.98	215.81
822.30	215.83
822.61	215.92
822.93	215.87
823.25	215.87
823.57	215.84
823.88	215.89
824.20	215.86
824.52	215.84
824.83	215.81
825.15	215.77
825.47	215.78
825.79	215.79
826.10	215.81
826.42	215.80
826.74	215.80
827.05	215.76
827.37	215.76
827.69	215.75
828.00	215.75
828.32	215.71
828.64	215.66
828.95	215.73
829.27	215.68
829.58	215.66
829.90	215.69
830.22	215.70
830.53	215.67
830.85	215.66
831.17	215.60
831.48	215.59
831.80	215.59
832.11	215.56
832.43	215.53
832.75	215.52
833.06	215.64
833.38	215.56
833.69	215.56
834.01	215.56
834.32	215.52
834.64	215.52
834.96	215.53
835.27	215.55
835.59	215.48
835.90	215.43
836.22	215.41
836.53	215.33
836.85	215.31
837.16	215.47
837.48	215.47
837.79	215.57
838.11	215.61
838.42	215.59
838.74	215.60
839.05	215.59
839.37	215.56
839.68	215.41
840.00	215.41
840.31	215.44
840.63	215.41
840.94	215.40
841.26	215.39
841.57	215.36
841.88	215.39
842.20	215.35
842.51	215.32
842.83	215.31
843.14	215.52
843.46	215.48
843.77	215.35
844.08	215.32
844.40	215.22
844.71	215.18
845.03	215.17
845.34	215.12
845.65	215.09
845.97	215.09
846.28	215.10
846.60	215.12
846.91	215.07
847.22	215.06
847.54	215.10
847.85	215.08
848.16	215.04
848.48	214.96
848.79	215.01
849.10	215.01
849.42	215.03
849.73	214.84
850.04	214.80
850.36	214.74
850.67	214.79
850.98	214.81
851.30	214.82
851.61	214.82
851.92	214.81
852.23	214.88
852.55	214.89
852.86	214.89
853.17	214.89
853.49	214.97
853.80	215.00
854.11	215.01
854.42	215.07
854.74	215.07
855.05	215.12
855.36	215.02
855.67	215.04
855.99	215.04
856.30	215.26
856.61	215.27
856.92	215.28
857.23	215.24
857.55	215.19
857.86	215.18
858.17	215.21
858.48	215.19
858.79	215.14
859.11	215.15
859.42	215.13
859.73	215.11
860.04	215.04
860.35	214.93
860.66	214.90
860.98	214.84
861.29	214.85
861.60	214.79
861.91	214.84
862.22	214.81
862.53	214.76
862.84	214.50
863.16	214.58
863.47	214.54
863.78	214.55
864.09	214.57
864.40	214.56
864.71	214.55
865.02	214.56
865.33	214.53
865.64	214.48
865.95	214.48
866.27	214.62
866.58	214.63
866.89	214.68
867.20	214.65
867.51	214.62
867.82	214.61
868.13	214.67
868.44	214.63
868.75	214.64
869.06	214.66
869.37	214.68
869.68	214.60
869.99	214.62
870.30	214.62
870.61	214.65
870.92	214.65
871.23	214.64
871.54	214.68
871.85	214.72
872.16	214.77
872.47	214.77
872.78	214.64
873.09	214.65
873.40	214.63
873.71	214.66
874.02	214.69
874.33	214.67
874.64	214.64
874.95	214.64
875.26	214.61
875.56	214.61
875.87	214.61
876.18	214.60
876.49	214.78
876.80	214.75
877.11	214.70
877.42	214.66
877.73	214.64
878.04	214.59
878.35	214.57
878.66	214.55
878.96	214.54
879.27	214.53
879.58	214.49
879.89	214.48
880.20	214.51
880.51	214.50
880.82	214.50
881.12	214.49
881.43	214.46
881.74	214.43
882.05	214.40
882.36	214.39
882.67	214.40
882.97	214.19
883.28	214.15
883.59	214.12
883.90	214.16
884.21	214.21
884.51	214.21
884.82	214.20
885.13	214.23
885.44	214.23
885.74	214.21
886.05	214.20
886.36	214.21
886.67	214.13
886.98	214.22
887.28	214.23
887.59	214.22
887.90	214.24
888.20	214.25
888.51	214.32
888.82	214.30
889.13	214.32
889.43	214.49
889.74	214.49
890.05	214.47
890.35	214.44
890.66	214.38
890.97	214.34
891.28	214.32
891.58	214.29
891.89	214.30
892.20	214.27
892.50	214.27
892.81	214.24
893.12	214.27
893.42	214.15
893.73	214.18
894.04	214.20
894.34	214.22
894.65	214.24
894.95	214.17
895.26	214.18
895.57	214.28
895.87	214.08
896.18	214.14
896.48	214.20
896.79	214.21
897.10	214.27
897.40	214.28
897.71	214.31
898.01	214.28
898.32	214.29
898.63	214.29
898.93	214.31
899.24	214.33
899.54	214.32
899.85	214.34
900.15	214.29
900.46	214.29
900.76	214.27
901.07	214.25
901.38	214.29
901.68	214.30
901.99	214.18
902.29	214.19
902.60	214.19
902.90	214.16
903.21	214.14
903.51	214.13
903.82	214.19
904.12	214.17
904.43	214.21
904.73	214.20
905.03	214.24
905.34	214.42
905.64	214.42
905.95	214.41
906.25	214.41
906.56	214.43
906.86	214.41
907.17	214.41
907.47	214.43
907.77	214.42
908.08	214.41
908.38	214.42
908.69	214.47
908.99	214.47
909.30	214.46
909.60	214.47
909.90	214.46
910.21	214.40
910.51	214.41
910.81	214.39
911.12	214.40
911.42	214.36
911.73	214.15
912.03	214.18
912.33	214.23
912.64	214.25
912.94	214.26
913.24	214.22
913.55	214.20
913.85	214.18
914.15	214.18
914.46	214.20
914.76	214.21
915.06	214.15
915.37	214.13
915.67	214.13
915.97	214.17
916.27	214.15
916.58	214.14
916.88	214.10
917.18	214.08
917.49	214.20
917.79	214.22
918.09	214.26
918.39	214.30
918.70	214.26
919.00	214.25
919.30	214.34
919.60	214.34
919.91	214.33
920.21	214.34
920.51	214.32
920.81	214.30
921.12	214.32
921.42	214.38
921.72	214.39
922.02	214.40
922.32	214.36
922.63	214.35
922.93	214.47
923.23	214.49
923.53	214.46
923.83	214.35
924.13	214.37
924.44	214.37
924.74	214.36
925.04	214.42
925.34	214.41
925.64	214.33
925.94	214.33
926.24	214.44
926.55	214.43
926.85	214.46
927.15	214.44
927.45	214.45
927.75	214.39
928.05	214.38
928.35	214.39
928.65	214.43
928.95	214.44
929.26	214.38
929.56	214.40
929.86	214.44
930.16	214.40
930.46	214.39
930.76	214.43
931.06	214.33
931.36	214.26
931.66	214.29
931.96	214.32
932.26	214.33
932.56	214.23
932.86	214.26
933.16	214.25
933.46	214.23
933.76	214.21
934.06	214.27
934.36	214.36
934.66	214.34
934.96	214.33
935.26	214.33
935.56	214.34
935.86	214.28
936.16	214.26
936.46	214.27
936.76	214.26
937.06	214.19
937.36	214.24
937.66	214.26
937.96	214.25
938.26	214.20
938.56	214.16
938.86	214.21
939.16	214.25
939.46	214.30
939.76	214.33
940.06	214.33
940.35	214.25
940.65	214.11
940.95	214.11
941.25	214.05
941.55	214.06
941.85	214.05
942.15	214.12
942.45	214.19
942.75	214.18
943.04	214.16
943.34	214.20
943.64	214.16
943.94	214.09
944.24	214.12
944.54	214.12
944.84	214.14
945.13	214.07
945.43	214.01
945.73	213.96
946.03	213.94
946.33	213.92
946.62	213.91
946.92	213.94
947.22	213.98
947.52	214.00
947.82	214.04
948.11	213.99
948.41	213.94
948.71	213.90
949.01	213.90
949.31	213.89
949.60	213.88
949.90	213.93
950.20	213.94
950.50	213.90
950.79	213.87
951.09	213.89
951.39	213.90
951.69	213.88
951.98	213.89
952.28	213.90
952.58	213.87
952.87	213.89
953.17	213.91
953.47	213.88
953.76	213.86
954.06	213.79
954.36	213.78
954.66	213.75
954.95	213.80
955.25	213.82
955.55	213.85
955.84	213.81
956.14	213.85
956.44	213.85
956.73	213.82
957.03	213.85
957.32	213.88
957.62	213.87
957.92	213.93
958.21	213.89
958.51	214.14
958.81	214.16
959.10	214.20
959.40	214.26
959.69	214.32
959.99	214.37
960.29	214.36
960.58	214.36
960.88	214.47
961.17	214.44
961.47	214.43
961.76	214.40
962.06	214.45
962.36	214.41
962.65	214.43
962.95	214.47
963.24	214.47
963.54	214.44
963.83	214.49
964.13	214.50
964.42	214.46
964.72	214.28
965.01	214.30
965.31	214.26
965.60	214.19
965.90	214.26
966.19	214.21
966.49	214.24
966.78	214.22
967.08	214.19
967.37	214.18
967.67	214.17
967.96	214.22
968.26	214.23
968.55	214.28
968.85	214.25
969.14	214.23
969.43	214.21
969.73	214.19
970.02	214.18
970.32	214.16
970.61	214.17
970.91	214.11
971.20	214.05
971.49	214.06
971.79	214.07
972.08	213.92
972.38	213.96
972.67	213.95
972.96	214.00
973.26	213.95
973.55	214.01
973.85	214.00
974.14	213.95
974.43	213.93
974.73	213.90
975.02	213.88
975.31	213.88
975.61	213.89
975.90	213.84
976.19	213.83
976.49	213.80
976.78	213.83
977.07	213.82
977.37	213.85
977.66	213.84
977.95	213.81
978.24	213.84
978.54	213.85
978.83	213.81
979.12	213.80
979.42	213.80
979.71	213.77
980.00	213.75
980.29	213.79
980.59	213.76
980.88	213.75
981.17	213.75
981.46	213.74
981.76	213.70
982.05	213.79
982.34	213.78
982.63	213.77
982.93	213.79
983.22	213.85
983.51	213.86
983.80	213.93
984.09	213.98
984.39	213.96
984.68	213.93
984.97	213.97
985.26	213.94
985.55	213.95
985.85	213.87
986.14	213.92
986.43	213.93
986.72	213.89
987.01	213.87
987.30	213.87
987.59	213.87
987.89	213.92
988.18	213.84
988.47	213.83
988.76	213.85
989.05	213.82
989.34	213.79
989.63	213.84
989.92	213.81
990.22	213.77
990.51	213.73
990.80	213.73
991.09	213.72
991.38	213.76
991.67	213.77
991.96	213.77
992.25	213.79
992.54	213.77
992.83	213.82
993.12	213.81
993.41	213.85
993.70	213.94
993.99	213.97
994.28	214.01
994.58	214.06
994.87	214.01
995.16	214.01
995.45	213.98
995.74	213.92
996.03	213.94
996.32	213.95
996.61	214.04
996.90	214.06
997.19	214.05
997.48	214.05
997.77	214.05
998.06	214.08
998.34	214.02
998.63	214.02
998.92	214.01
999.21	214.02
999.50	214.00
999.79	213.93
1000.08	213.91
1000.37	213.92
1000.66	213.90
1000.95	213.99
1001.24	214.04
1001.53	214.09
1001.82	214.08
1002.11	214.03
1002.40	214.06
1002.68	214.09
1002.97	214.23
1003.26	214.20
1003.55	214.15
1003.84	214.16
1004.13	214.25
1004.42	214.26
1004.71	214.27
1004.99	214.27
1005.28	214.32
1005.57	214.32
1005.86	214.33
1006.15	214.32
1006.44	214.29
1006.72	214.30
1007.01	214.26
1007.30	214.25
1007.59	214.21
1007.88	214.20
1008.17	214.23
1008.45	214.20
1008.74	214.15
1009.03	214.04
1009.32	214.06
1009.60	214.06
1009.89	214.05
1010.18	213.93
1010.47	213.92
1010.76	213.91
1011.04	213.91
1011.33	213.92
1011.62	213.96
1011.91	213.96
1012.19	213.95
1012.48	213.94
1012.77	213.96
1013.05	214.06
1013.34	214.03
1013.63	213.99
1013.92	214.02
1014.20	213.97
1014.49	213.97
1014.78	213.95
1015.06	213.88
1015.35	213.88
1015.64	213.91
1015.92	213.89
1016.21	213.93
1016.50	213.92
1016.78	213.91
1017.07	213.90
1017.36	213.86
1017.64	213.80
1017.93	213.83
1018.22	213.83
1018.50	213.83
1018.79	213.82
1019.08	213.68
1019.36	213.71
1019.65	213.69
1019.93	213.73
1020.22	213.77
1020.51	213.88
1020.79	213.88
1021.08	213.65
1021.36	213.75
1021.65	214.00
1021.94	213.16
1022.22	214.56
1022.51	212.93
1022.79	214.63
1023.08	214.06
1023.36	216.51
1023.65	213.60
>>>>>End Processed Spectral Data<<<<<
