SpectraSuite Data File
++++++++++++++++++++++++++++++++++++
Date: Tue Jan 29 15:54:03 EST 2013
User: group
Dark Spectrum Present: No
Reference Spectrum Present: No
Number of Sampled Component Spectra: 1
Spectrometers: USB2E7196
Integration Time (usec): 65000 (USB2E7196)
Spectra Averaged: 100 (USB2E7196)
Boxcar Smoothing: 10 (USB2E7196)
Correct for Electrical Dark: No (USB2E7196)
Strobe/Lamp Enabled: No (USB2E7196)
Correct for Detector Non-linearity: No (USB2E7196)
Correct for Stray Light: No (USB2E7196)
Number of Pixels in Processed Spectrum: 2048
>>>>>Begin Processed Spectral Data<<<<<
339.09	0.00
339.48	202.97
339.86	204.81
340.24	205.26
340.63	206.99
341.01	211.08
341.39	209.87
341.78	211.58
342.16	212.25
342.54	212.83
342.93	201.98
343.31	212.19
343.69	212.73
344.07	213.17
344.46	213.64
344.84	214.05
345.22	214.27
345.60	214.55
345.99	214.74
346.37	214.90
346.75	215.01
347.13	215.10
347.52	215.18
347.90	215.31
348.28	215.37
348.66	215.46
349.05	215.48
349.43	215.55
349.81	215.60
350.19	215.66
350.57	215.76
350.96	215.86
351.34	215.99
351.72	216.08
352.10	216.21
352.48	216.29
352.87	216.35
353.25	216.39
353.63	216.43
354.01	216.50
354.39	216.59
354.77	216.68
355.15	216.83
355.54	216.89
355.92	216.88
356.30	216.96
356.68	217.16
357.06	217.23
357.44	217.26
357.82	217.34
358.20	217.44
358.58	217.51
358.97	217.59
359.35	217.68
359.73	217.80
360.11	217.89
360.49	217.95
360.87	217.99
361.25	218.07
361.63	218.19
362.01	218.26
362.39	218.27
362.77	218.30
363.15	218.29
363.53	218.32
363.91	218.36
364.29	218.38
364.67	218.21
365.05	218.22
365.43	218.27
365.81	218.30
366.19	218.35
366.57	218.44
366.95	218.42
367.33	218.35
367.71	218.31
368.09	218.28
368.47	218.27
368.85	218.24
369.23	218.28
369.61	218.18
369.99	218.22
370.37	218.25
370.75	218.36
371.13	218.30
371.51	218.28
371.89	218.30
372.27	218.27
372.65	218.24
373.03	218.21
373.41	218.15
373.78	218.11
374.16	217.98
374.54	217.87
374.92	217.84
375.30	217.79
375.68	217.73
376.06	217.70
376.44	217.66
376.82	217.60
377.19	217.52
377.57	217.50
377.95	217.40
378.33	217.34
378.71	217.16
379.09	217.14
379.47	217.11
379.84	216.97
380.22	216.88
380.60	216.82
380.98	216.76
381.36	216.71
381.73	216.64
382.11	216.66
382.49	216.64
382.87	216.55
383.25	216.54
383.62	216.73
384.00	216.63
384.38	216.58
384.76	216.64
385.13	216.71
385.51	216.67
385.89	216.61
386.27	216.56
386.64	216.54
387.02	216.50
387.40	216.42
387.78	216.43
388.15	216.42
388.53	216.42
388.91	216.40
389.29	216.37
389.66	216.38
390.04	216.32
390.42	216.31
390.79	216.32
391.17	216.30
391.55	216.07
391.92	216.08
392.30	216.14
392.68	216.07
393.05	216.04
393.43	216.07
393.81	216.08
394.18	216.05
394.56	216.08
394.94	216.12
395.31	216.09
395.69	216.16
396.06	216.23
396.44	216.27
396.82	216.26
397.19	216.40
397.57	216.42
397.95	216.48
398.32	216.44
398.70	216.50
399.07	216.62
399.45	216.63
399.82	216.67
400.20	216.69
400.58	216.76
400.95	216.73
401.33	216.79
401.70	217.00
402.08	217.11
402.45	217.22
402.83	217.33
403.20	217.48
403.58	217.58
403.95	217.69
404.33	217.85
404.71	218.03
405.08	218.26
405.46	218.43
405.83	218.60
406.21	218.79
406.58	218.99
406.96	219.16
407.33	219.42
407.70	219.71
408.08	220.12
408.45	220.47
408.83	220.84
409.20	221.18
409.58	221.44
409.95	221.89
410.33	222.36
410.70	222.80
411.08	223.33
411.45	223.84
411.82	224.41
412.20	225.03
412.57	225.83
412.95	226.36
413.32	227.14
413.69	227.93
414.07	228.79
414.44	229.71
414.82	230.70
415.19	231.84
415.56	233.02
415.94	234.15
416.31	235.48
416.68	236.78
417.06	238.31
417.43	239.80
417.81	241.44
418.18	243.07
418.55	244.86
418.93	246.79
419.30	248.83
419.67	250.95
420.04	253.14
420.42	255.40
420.79	258.13
421.16	260.78
421.54	263.58
421.91	266.47
422.28	269.47
422.66	272.61
423.03	275.69
423.40	278.88
423.77	282.35
424.15	285.83
424.52	289.53
424.89	293.51
425.26	297.37
425.64	301.11
426.01	305.25
426.38	309.59
426.75	313.94
427.13	318.45
427.50	323.21
427.87	328.17
428.24	333.14
428.61	337.88
428.99	343.18
429.36	348.92
429.73	354.53
430.10	360.12
430.47	365.92
430.85	372.00
431.22	378.40
431.59	385.21
431.96	391.74
432.33	398.96
432.70	405.92
433.08	414.10
433.45	421.84
433.82	429.49
434.19	437.93
434.56	446.23
434.93	454.23
435.30	462.17
435.68	470.92
436.05	479.53
436.42	488.04
436.79	495.88
437.16	504.21
437.53	513.08
437.90	521.92
438.27	530.53
438.64	539.31
439.01	547.49
439.38	554.68
439.75	561.64
440.13	569.66
440.50	577.28
440.87	583.42
441.24	589.75
441.61	596.73
441.98	601.94
442.35	607.98
442.72	613.94
443.09	619.70
443.46	623.24
443.83	625.56
444.20	627.63
444.57	630.56
444.94	631.96
445.31	633.39
445.68	634.52
446.05	635.00
446.42	634.18
446.79	633.18
447.16	632.19
447.53	631.45
447.90	628.21
448.27	624.95
448.64	620.45
449.01	617.19
449.37	611.51
449.74	606.05
450.11	599.41
450.48	592.31
450.85	585.20
451.22	579.01
451.59	573.17
451.96	567.60
452.33	560.03
452.70	553.25
453.07	545.10
453.43	536.94
453.80	529.11
454.17	521.53
454.54	514.37
454.91	506.56
455.28	499.03
455.65	492.02
456.02	484.99
456.38	479.00
456.75	471.55
457.12	465.39
457.49	459.19
457.86	453.33
458.23	448.29
458.59	442.66
458.96	436.91
459.33	431.90
459.70	426.83
460.07	422.84
460.43	418.19
460.80	413.83
461.17	410.09
461.54	406.09
461.91	402.25
462.27	398.34
462.64	395.01
463.01	391.33
463.38	387.81
463.74	384.24
464.11	381.14
464.48	378.46
464.85	375.50
465.21	373.20
465.58	370.70
465.95	367.72
466.32	365.24
466.68	362.79
467.05	360.36
467.42	357.93
467.78	355.38
468.15	352.95
468.52	351.16
468.88	348.75
469.25	346.67
469.62	345.01
469.98	343.22
470.35	341.57
470.72	339.99
471.08	338.29
471.45	336.90
471.82	335.48
472.18	333.89
472.55	332.77
472.92	331.49
473.28	330.40
473.65	329.35
474.02	328.27
474.38	327.45
474.75	326.72
475.11	325.96
475.48	325.43
475.85	325.01
476.21	324.57
476.58	324.28
476.94	324.07
477.31	323.81
477.67	323.56
478.04	323.46
478.41	323.46
478.77	323.64
479.14	323.62
479.50	323.79
479.87	324.10
480.23	324.39
480.60	324.65
480.96	324.90
481.33	325.50
481.69	326.16
482.06	326.68
482.42	327.16
482.79	327.79
483.15	328.61
483.52	329.60
483.88	330.50
484.25	331.48
484.61	332.47
484.98	333.51
485.34	334.79
485.71	336.12
486.07	337.51
486.44	338.81
486.80	340.46
487.17	342.11
487.53	343.98
487.90	345.83
488.26	347.88
488.62	350.04
488.99	352.07
489.35	354.20
489.72	356.60
490.08	359.11
490.44	361.66
490.81	364.36
491.17	367.00
491.54	369.97
491.90	372.95
492.26	376.24
492.63	379.63
492.99	383.16
493.36	386.85
493.72	390.80
494.08	394.82
494.45	399.03
494.81	403.37
495.17	407.74
495.54	412.48
495.90	417.26
496.26	422.20
496.63	427.39
496.99	432.78
497.35	438.34
497.72	444.13
498.08	450.03
498.44	456.09
498.80	462.47
499.17	468.91
499.53	475.56
499.89	482.38
500.26	489.34
500.62	496.38
500.98	503.72
501.34	511.07
501.71	518.78
502.07	526.44
502.43	534.38
502.79	542.52
503.16	550.82
503.52	559.32
503.88	567.98
504.24	576.82
504.60	585.83
504.97	595.07
505.33	604.36
505.69	614.17
506.05	624.01
506.41	633.79
506.78	643.82
507.14	654.01
507.50	664.44
507.86	675.09
508.22	685.81
508.59	696.36
508.95	707.38
509.31	718.59
509.67	730.09
510.03	741.44
510.39	753.09
510.75	764.79
511.12	776.59
511.48	788.55
511.84	800.74
512.20	813.03
512.56	825.48
512.92	838.11
513.28	850.66
513.64	863.22
514.00	875.97
514.37	888.72
514.73	901.69
515.09	914.49
515.45	927.16
515.81	940.03
516.17	953.27
516.53	966.31
516.89	979.20
517.25	992.07
517.61	1005.41
517.97	1018.53
518.33	1031.46
518.69	1044.78
519.05	1058.25
519.41	1071.67
519.77	1085.19
520.13	1098.24
520.49	1111.16
520.85	1124.29
521.21	1137.34
521.57	1150.69
521.93	1163.64
522.29	1177.19
522.65	1190.52
523.01	1203.86
523.37	1216.71
523.73	1229.74
524.09	1242.57
524.45	1255.66
524.81	1268.80
525.17	1281.78
525.53	1294.60
525.89	1307.54
526.25	1320.30
526.61	1332.79
526.97	1345.51
527.33	1358.00
527.68	1371.15
528.04	1384.20
528.40	1396.80
528.76	1409.80
529.12	1422.30
529.48	1435.02
529.84	1446.73
530.20	1459.05
530.56	1471.23
530.91	1484.09
531.27	1496.54
531.63	1509.01
531.99	1521.27
532.35	1533.04
532.71	1545.06
533.07	1557.50
533.42	1569.36
533.78	1580.96
534.14	1592.56
534.50	1603.41
534.86	1614.54
535.21	1624.70
535.57	1635.76
535.93	1646.70
536.29	1657.34
536.65	1668.36
537.00	1678.96
537.36	1689.92
537.72	1700.47
538.08	1711.43
538.44	1721.93
538.79	1732.51
539.15	1742.88
539.51	1753.33
539.87	1764.42
540.22	1774.79
540.58	1785.34
540.94	1795.76
541.29	1805.76
541.65	1815.13
542.01	1825.32
542.37	1835.12
542.72	1845.05
543.08	1854.50
543.44	1864.55
543.79	1873.52
544.15	1882.46
544.51	1892.06
544.87	1901.55
545.22	1910.23
545.58	1918.71
545.94	1927.11
546.29	1935.23
546.65	1943.21
547.01	1950.92
547.36	1957.95
547.72	1965.17
548.07	1972.22
548.43	1979.44
548.79	1986.75
549.14	1994.48
549.50	2002.41
549.86	2009.83
550.21	2017.03
550.57	2024.25
550.92	2030.63
551.28	2037.71
551.64	2044.84
551.99	2051.96
552.35	2058.78
552.70	2065.46
553.06	2071.97
553.41	2078.00
553.77	2084.21
554.13	2090.27
554.48	2097.12
554.84	2104.06
555.19	2110.44
555.55	2116.74
555.90	2122.99
556.26	2129.68
556.61	2135.47
556.97	2140.03
557.32	2145.66
557.68	2151.72
558.03	2157.30
558.39	2162.39
558.74	2168.13
559.10	2173.50
559.45	2178.90
559.81	2184.42
560.16	2189.98
560.52	2195.57
560.87	2201.91
561.23	2207.94
561.58	2214.54
561.94	2219.67
562.29	2224.41
562.64	2230.63
563.00	2236.33
563.35	2241.98
563.71	2247.61
564.06	2253.21
564.42	2259.35
564.77	2264.42
565.12	2269.71
565.48	2274.79
565.83	2280.31
566.19	2285.87
566.54	2291.29
566.89	2295.94
567.25	2300.56
567.60	2306.26
567.96	2311.44
568.31	2315.98
568.66	2320.22
569.02	2324.13
569.37	2327.86
569.72	2332.23
570.08	2335.58
570.43	2338.62
570.78	2341.65
571.14	2344.36
571.49	2347.70
571.84	2351.30
572.20	2354.36
572.55	2357.52
572.90	2360.05
573.26	2363.38
573.61	2366.08
573.96	2368.23
574.31	2370.40
574.67	2372.33
575.02	2373.24
575.37	2374.82
575.72	2375.91
576.08	2377.45
576.43	2377.69
576.78	2378.57
577.13	2380.52
577.49	2382.02
577.84	2383.49
578.19	2385.25
578.54	2386.35
578.90	2387.51
579.25	2387.63
579.60	2388.05
579.95	2387.58
580.30	2388.11
580.66	2387.46
581.01	2386.16
581.36	2384.34
581.71	2383.57
582.06	2382.91
582.42	2382.43
582.77	2380.79
583.12	2379.46
583.47	2378.61
583.82	2378.65
584.17	2377.74
584.53	2375.91
584.88	2374.18
585.23	2372.54
585.58	2370.50
585.93	2368.54
586.28	2366.60
586.63	2364.48
586.98	2362.35
587.34	2360.86
587.69	2358.66
588.04	2357.02
588.39	2355.80
588.74	2353.62
589.09	2350.99
589.44	2348.25
589.79	2346.01
590.14	2344.19
590.49	2341.61
590.84	2337.98
591.19	2335.27
591.54	2332.30
591.89	2328.50
592.25	2325.57
592.60	2321.68
592.95	2317.83
593.30	2314.11
593.65	2309.93
594.00	2305.91
594.35	2303.19
594.70	2298.60
595.05	2294.12
595.40	2288.92
595.75	2283.37
596.10	2280.00
596.45	2275.50
596.80	2271.19
597.15	2266.08
597.50	2260.43
597.85	2255.72
598.19	2250.65
598.54	2244.79
598.89	2239.71
599.24	2235.31
599.59	2229.40
599.94	2223.85
600.29	2218.12
600.64	2212.19
600.99	2205.64
601.34	2200.25
601.69	2193.38
602.04	2187.39
602.39	2181.02
602.74	2175.01
603.08	2169.74
603.43	2163.24
603.78	2156.48
604.13	2149.23
604.48	2142.26
604.83	2136.34
605.18	2130.16
605.53	2123.38
605.87	2116.56
606.22	2109.79
606.57	2102.03
606.92	2094.00
607.27	2087.14
607.62	2080.59
607.96	2073.77
608.31	2067.42
608.66	2059.68
609.01	2052.15
609.36	2045.03
609.70	2037.53
610.05	2029.98
610.40	2021.85
610.75	2013.75
611.10	2006.13
611.44	1997.54
611.79	1988.85
612.14	1978.84
612.49	1968.30
612.83	1959.14
613.18	1949.95
613.53	1940.85
613.88	1931.45
614.22	1923.02
614.57	1913.30
614.92	1902.89
615.27	1892.86
615.61	1882.82
615.96	1873.25
616.31	1863.95
616.65	1854.53
617.00	1844.69
617.35	1834.98
617.70	1825.16
618.04	1815.11
618.39	1804.93
618.74	1795.33
619.08	1785.84
619.43	1777.29
619.78	1769.11
620.12	1760.41
620.47	1750.79
620.82	1740.51
621.16	1730.77
621.51	1720.82
621.85	1710.82
622.20	1700.37
622.55	1689.72
622.89	1679.97
623.24	1670.32
623.59	1660.38
623.93	1650.21
624.28	1640.49
624.62	1630.32
624.97	1619.94
625.32	1610.22
625.66	1601.27
626.01	1592.41
626.35	1582.99
626.70	1572.88
627.04	1562.69
627.39	1552.70
627.73	1543.45
628.08	1534.44
628.43	1524.80
628.77	1515.62
629.12	1506.73
629.46	1498.97
629.81	1490.53
630.15	1480.94
630.50	1471.06
630.84	1460.58
631.19	1450.82
631.53	1441.50
631.88	1431.42
632.22	1421.53
632.57	1412.07
632.91	1401.95
633.26	1392.18
633.60	1382.54
633.95	1373.26
634.29	1363.96
634.64	1354.59
634.98	1344.69
635.32	1335.44
635.67	1326.97
636.01	1317.70
636.36	1307.95
636.70	1298.28
637.05	1289.00
637.39	1279.95
637.73	1271.41
638.08	1263.96
638.42	1255.62
638.77	1246.84
639.11	1238.63
639.45	1230.70
639.80	1222.17
640.14	1213.44
640.49	1204.55
640.83	1195.81
641.17	1187.67
641.52	1179.52
641.86	1170.86
642.20	1162.93
642.55	1154.25
642.89	1145.29
643.23	1136.63
643.58	1128.64
643.92	1119.56
644.26	1110.94
644.61	1102.56
644.95	1093.70
645.29	1084.39
645.64	1075.26
645.98	1066.76
646.32	1058.78
646.66	1050.33
647.01	1042.00
647.35	1033.86
647.69	1025.55
648.04	1017.16
648.38	1008.26
648.72	999.43
649.06	991.08
649.41	982.93
649.75	975.04
650.09	967.34
650.43	959.34
650.78	951.08
651.12	943.55
651.46	936.19
651.80	928.95
652.14	921.69
652.49	914.25
652.83	906.95
653.17	899.36
653.51	891.75
653.85	884.52
654.20	877.33
654.54	869.95
654.88	862.73
655.22	855.69
655.56	848.78
655.90	842.12
656.25	835.52
656.59	828.62
656.93	821.67
657.27	814.50
657.61	807.70
657.95	801.72
658.29	795.76
658.64	789.60
658.98	783.20
659.32	776.69
659.66	770.52
660.00	764.25
660.34	758.30
660.68	752.29
661.02	746.11
661.36	740.30
661.70	734.64
662.05	729.10
662.39	723.63
662.73	718.31
663.07	712.95
663.41	707.39
663.75	701.83
664.09	696.22
664.43	690.92
664.77	685.62
665.11	679.82
665.45	674.09
665.79	668.45
666.13	662.86
666.47	657.54
666.81	652.20
667.15	646.95
667.49	641.82
667.83	636.73
668.17	631.55
668.51	626.46
668.85	621.62
669.19	616.80
669.53	611.95
669.87	606.97
670.21	602.30
670.55	597.64
670.89	593.29
671.23	589.09
671.57	584.80
671.91	580.53
672.25	576.40
672.58	572.31
672.92	568.34
673.26	564.46
673.60	560.70
673.94	556.88
674.28	553.34
674.62	549.67
674.96	545.94
675.30	542.53
675.64	538.96
675.97	535.46
676.31	531.92
676.65	528.37
676.99	524.95
677.33	521.15
677.67	517.62
678.01	513.83
678.34	510.24
678.68	506.81
679.02	503.32
679.36	499.76
679.70	496.30
680.04	492.82
680.37	489.50
680.71	486.21
681.05	483.19
681.39	480.00
681.73	476.89
682.06	473.98
682.40	470.88
682.74	467.72
683.08	464.60
683.42	461.52
683.75	458.60
684.09	455.64
684.43	452.91
684.77	450.03
685.10	447.30
685.44	444.44
685.78	441.54
686.12	438.86
686.45	436.21
686.79	433.58
687.13	431.12
687.46	428.58
687.80	426.01
688.14	423.25
688.48	420.70
688.81	418.10
689.15	415.62
689.49	413.14
689.82	410.74
690.16	408.26
690.50	405.83
690.83	403.42
691.17	401.01
691.51	398.67
691.84	396.51
692.18	394.35
692.52	392.22
692.85	390.19
693.19	388.13
693.52	386.01
693.86	383.83
694.20	381.68
694.53	379.61
694.87	377.47
695.21	375.38
695.54	373.34
695.88	371.27
696.21	369.11
696.55	367.09
696.88	365.15
697.22	363.24
697.56	361.46
697.89	359.63
698.23	357.97
698.56	356.21
698.90	354.49
699.23	352.69
699.57	350.92
699.90	349.11
700.24	347.34
700.58	345.65
700.91	344.06
701.25	342.54
701.58	340.99
701.92	339.45
702.25	337.92
702.59	336.28
702.92	334.87
703.26	333.36
703.59	331.96
703.93	330.70
704.26	329.30
704.60	327.85
704.93	326.48
705.26	325.00
705.60	323.60
705.93	322.14
706.27	320.87
706.60	319.62
706.94	318.44
707.27	317.05
707.61	315.76
707.94	314.46
708.27	313.00
708.61	311.64
708.94	310.35
709.28	309.09
709.61	307.91
709.94	306.69
710.28	305.53
710.61	304.34
710.95	302.98
711.28	301.94
711.61	300.78
711.95	299.69
712.28	298.53
712.61	297.42
712.95	296.44
713.28	295.41
713.61	294.36
713.95	293.29
714.28	292.36
714.61	291.38
714.95	290.44
715.28	289.47
715.61	288.50
715.95	287.56
716.28	286.67
716.61	285.79
716.95	284.85
717.28	284.01
717.61	283.08
717.94	282.22
718.28	281.25
718.61	280.45
718.94	279.56
719.27	278.77
719.61	277.99
719.94	277.18
720.27	276.24
720.60	275.36
720.94	274.59
721.27	273.89
721.60	273.20
721.93	272.51
722.27	271.96
722.60	271.33
722.93	270.64
723.26	270.01
723.59	269.34
723.93	268.76
724.26	268.12
724.59	267.52
724.92	266.94
725.25	266.42
725.59	265.84
725.92	265.34
726.25	264.81
726.58	264.26
726.91	263.68
727.24	263.22
727.57	262.74
727.91	262.15
728.24	261.61
728.57	261.05
728.90	260.53
729.23	259.92
729.56	259.49
729.89	258.98
730.22	258.43
730.55	257.93
730.89	257.41
731.22	256.88
731.55	256.38
731.88	255.87
732.21	255.35
732.54	254.80
732.87	254.29
733.20	253.80
733.53	253.34
733.86	252.89
734.19	252.39
734.52	251.99
734.85	251.69
735.18	251.25
735.51	250.88
735.84	250.46
736.17	250.07
736.50	249.53
736.83	249.41
737.16	249.06
737.49	248.67
737.82	248.26
738.15	247.95
738.48	247.64
738.81	247.26
739.14	246.88
739.47	246.58
739.80	246.23
740.13	245.88
740.46	245.47
740.79	245.09
741.12	244.72
741.45	244.34
741.78	243.96
742.11	243.71
742.44	243.37
742.77	243.10
743.10	242.77
743.43	242.44
743.75	241.86
744.08	241.79
744.41	241.47
744.74	241.18
745.07	240.79
745.40	240.48
745.73	240.29
746.06	239.98
746.39	239.66
746.71	239.34
747.04	239.02
747.37	238.73
747.70	238.47
748.03	238.23
748.36	237.97
748.68	237.67
749.01	237.29
749.34	237.00
749.67	236.71
750.00	236.46
750.33	236.38
750.65	236.17
750.98	235.65
751.31	235.40
751.64	235.16
751.97	235.05
752.29	234.76
752.62	234.42
752.95	234.18
753.28	233.96
753.60	233.72
753.93	233.59
754.26	233.39
754.59	233.10
754.91	232.89
755.24	232.67
755.57	232.43
755.90	232.26
756.22	232.01
756.55	231.75
756.88	231.52
757.20	231.15
757.53	230.86
757.86	230.65
758.19	230.46
758.51	230.25
758.84	229.97
759.17	229.76
759.49	229.58
759.82	229.51
760.15	229.34
760.47	229.15
760.80	228.87
761.13	228.71
761.45	228.53
761.78	228.32
762.11	228.15
762.43	227.97
762.76	227.80
763.08	227.67
763.41	227.56
763.74	227.44
764.06	227.30
764.39	227.15
764.71	227.01
765.04	226.88
765.37	226.73
765.69	226.56
766.02	226.47
766.34	226.34
766.67	226.12
767.00	225.99
767.32	225.98
767.65	226.01
767.97	225.88
768.30	225.80
768.62	225.71
768.95	225.55
769.27	225.48
769.60	225.40
769.92	225.25
770.25	225.07
770.57	224.88
770.90	224.77
771.22	224.66
771.55	224.55
771.87	224.44
772.20	224.32
772.52	224.42
772.85	224.56
773.17	224.44
773.50	224.32
773.82	224.19
774.15	223.98
774.47	223.75
774.80	223.62
775.12	223.53
775.45	223.40
775.77	223.31
776.09	223.19
776.42	223.09
776.74	223.09
777.07	223.02
777.39	222.98
777.72	222.88
778.04	222.83
778.36	222.73
778.69	222.66
779.01	222.59
779.33	222.32
779.66	222.01
779.98	221.93
780.31	221.90
780.63	221.92
780.95	221.91
781.28	221.85
781.60	221.77
781.92	221.70
782.25	221.67
782.57	221.62
782.89	221.57
783.22	221.47
783.54	221.35
783.86	221.30
784.19	221.22
784.51	221.23
784.83	221.16
785.16	221.10
785.48	221.01
785.80	220.94
786.12	220.91
786.45	220.85
786.77	220.80
787.09	220.70
787.42	220.57
787.74	220.50
788.06	220.44
788.38	220.41
788.71	220.32
789.03	220.25
789.35	220.23
789.67	220.13
789.99	220.12
790.32	220.03
790.64	220.03
790.96	220.15
791.28	220.02
791.61	219.95
791.93	219.93
792.25	219.88
792.57	219.98
792.89	219.89
793.21	219.84
793.54	219.80
793.86	219.76
794.18	219.74
794.50	219.67
794.82	219.63
795.14	219.61
795.47	219.62
795.79	219.56
796.11	219.48
796.43	219.46
796.75	219.43
797.07	219.41
797.39	219.36
797.71	219.17
798.04	219.16
798.36	219.13
798.68	219.05
799.00	219.06
799.32	218.92
799.64	218.93
799.96	218.88
800.28	218.85
800.60	218.81
800.92	218.79
801.24	218.74
801.56	218.72
801.89	218.68
802.21	218.67
802.53	218.63
802.85	218.64
803.17	218.72
803.49	218.63
803.81	218.60
804.13	218.52
804.45	218.48
804.77	218.46
805.09	218.43
805.41	218.42
805.73	218.33
806.05	218.29
806.37	218.25
806.69	218.20
807.01	218.18
807.33	218.16
807.65	218.06
807.97	218.15
808.28	218.06
808.60	218.01
808.92	218.01
809.24	218.11
809.56	218.05
809.88	217.93
810.20	217.92
810.52	217.90
810.84	217.87
811.16	217.83
811.48	217.80
811.80	217.84
812.12	217.79
812.43	217.83
812.75	217.82
813.07	217.78
813.39	217.78
813.71	217.71
814.03	217.67
814.35	217.68
814.67	217.57
814.98	217.59
815.30	217.59
815.62	217.52
815.94	217.36
816.26	217.37
816.58	217.32
816.89	217.34
817.21	217.31
817.53	217.31
817.85	217.29
818.17	217.23
818.48	217.13
818.80	217.15
819.12	217.09
819.44	217.02
819.76	217.01
820.07	216.99
820.39	216.98
820.71	216.98
821.03	216.95
821.34	216.92
821.66	216.94
821.98	216.91
822.30	216.85
822.61	216.98
822.93	216.89
823.25	216.87
823.57	216.84
823.88	216.84
824.20	216.82
824.52	216.86
824.83	216.86
825.15	216.82
825.47	216.81
825.79	216.82
826.10	216.80
826.42	216.75
826.74	216.75
827.05	216.75
827.37	216.72
827.69	216.71
828.00	216.70
828.32	216.65
828.64	216.62
828.95	216.75
829.27	216.67
829.58	216.72
829.90	216.75
830.22	216.70
830.53	216.65
830.85	216.61
831.17	216.52
831.48	216.49
831.80	216.52
832.11	216.47
832.43	216.44
832.75	216.42
833.06	216.55
833.38	216.48
833.69	216.46
834.01	216.48
834.32	216.48
834.64	216.43
834.96	216.44
835.27	216.48
835.59	216.37
835.90	216.31
836.22	216.30
836.53	216.25
836.85	216.30
837.16	216.52
837.48	216.51
837.79	216.60
838.11	216.62
838.42	216.57
838.74	216.63
839.05	216.63
839.37	216.64
839.68	216.52
840.00	216.48
840.31	216.52
840.63	216.49
840.94	216.46
841.26	216.44
841.57	216.43
841.88	216.41
842.20	216.38
842.51	216.35
842.83	216.33
843.14	216.48
843.46	216.46
843.77	216.33
844.08	216.32
844.40	216.22
844.71	216.21
845.03	216.23
845.34	216.19
845.65	216.17
845.97	216.17
846.28	216.18
846.60	216.22
846.91	216.18
847.22	216.18
847.54	216.21
847.85	216.27
848.16	216.26
848.48	216.20
848.79	216.29
849.10	216.30
849.42	216.30
849.73	216.12
850.04	216.06
850.36	215.98
850.67	216.00
850.98	216.00
851.30	216.01
851.61	215.99
851.92	215.96
852.23	216.00
852.55	216.00
852.86	215.97
853.17	216.00
853.49	216.02
853.80	216.04
854.11	216.05
854.42	216.04
854.74	216.02
855.05	216.05
855.36	215.91
855.67	215.95
855.99	215.94
856.30	216.19
856.61	216.16
856.92	216.13
857.23	216.14
857.55	216.12
857.86	216.08
858.17	216.12
858.48	216.07
858.79	216.05
859.11	216.09
859.42	216.05
859.73	216.01
860.04	216.01
860.35	215.93
860.66	215.85
860.98	215.82
861.29	215.85
861.60	215.83
861.91	215.90
862.22	215.83
862.53	215.81
862.84	215.57
863.16	215.66
863.47	215.63
863.78	215.61
864.09	215.62
864.40	215.67
864.71	215.66
865.02	215.66
865.33	215.64
865.64	215.57
865.95	215.58
866.27	215.74
866.58	215.70
866.89	215.71
867.20	215.71
867.51	215.69
867.82	215.66
868.13	215.72
868.44	215.71
868.75	215.74
869.06	215.74
869.37	215.75
869.68	215.67
869.99	215.71
870.30	215.76
870.61	215.76
870.92	215.72
871.23	215.70
871.54	215.78
871.85	215.80
872.16	215.81
872.47	215.81
872.78	215.66
873.09	215.66
873.40	215.71
873.71	215.76
874.02	215.79
874.33	215.77
874.64	215.72
874.95	215.70
875.26	215.64
875.56	215.65
875.87	215.65
876.18	215.66
876.49	215.87
876.80	215.83
877.11	215.80
877.42	215.80
877.73	215.79
878.04	215.71
878.35	215.68
878.66	215.74
878.96	215.75
879.27	215.75
879.58	215.74
879.89	215.70
880.20	215.75
880.51	215.74
880.82	215.72
881.12	215.72
881.43	215.69
881.74	215.70
882.05	215.66
882.36	215.67
882.67	215.68
882.97	215.43
883.28	215.41
883.59	215.42
883.90	215.41
884.21	215.45
884.51	215.48
884.82	215.47
885.13	215.46
885.44	215.46
885.74	215.48
886.05	215.48
886.36	215.48
886.67	215.39
886.98	215.46
887.28	215.48
887.59	215.50
887.90	215.52
888.20	215.50
888.51	215.56
888.82	215.51
889.13	215.55
889.43	215.75
889.74	215.71
890.05	215.71
890.35	215.71
890.66	215.66
890.97	215.64
891.28	215.63
891.58	215.62
891.89	215.62
892.20	215.57
892.50	215.55
892.81	215.54
893.12	215.53
893.42	215.46
893.73	215.48
894.04	215.46
894.34	215.47
894.65	215.48
894.95	215.44
895.26	215.47
895.57	215.55
895.87	215.36
896.18	215.40
896.48	215.39
896.79	215.39
897.10	215.41
897.40	215.42
897.71	215.43
898.01	215.43
898.32	215.43
898.63	215.43
898.93	215.47
899.24	215.46
899.54	215.48
899.85	215.48
900.15	215.46
900.46	215.48
900.76	215.49
901.07	215.47
901.38	215.49
901.68	215.50
901.99	215.41
902.29	215.44
902.60	215.44
902.90	215.44
903.21	215.46
903.51	215.47
903.82	215.52
904.12	215.51
904.43	215.51
904.73	215.49
905.03	215.50
905.34	215.67
905.64	215.66
905.95	215.63
906.25	215.58
906.56	215.57
906.86	215.56
907.17	215.56
907.47	215.58
907.77	215.51
908.08	215.47
908.38	215.48
908.69	215.49
908.99	215.52
909.30	215.53
909.60	215.51
909.90	215.52
910.21	215.46
910.51	215.45
910.81	215.44
911.12	215.43
911.42	215.43
911.73	215.20
912.03	215.21
912.33	215.27
912.64	215.32
912.94	215.31
913.24	215.27
913.55	215.23
913.85	215.20
914.15	215.29
914.46	215.31
914.76	215.29
915.06	215.26
915.37	215.22
915.67	215.24
915.97	215.24
916.27	215.18
916.58	215.16
916.88	215.13
917.18	215.12
917.49	215.30
917.79	215.26
918.09	215.32
918.39	215.37
918.70	215.32
919.00	215.30
919.30	215.40
919.60	215.41
919.91	215.44
920.21	215.44
920.51	215.40
920.81	215.39
921.12	215.41
921.42	215.39
921.72	215.43
922.02	215.41
922.32	215.43
922.63	215.45
922.93	215.58
923.23	215.60
923.53	215.58
923.83	215.44
924.13	215.47
924.44	215.48
924.74	215.49
925.04	215.55
925.34	215.53
925.64	215.46
925.94	215.45
926.24	215.53
926.55	215.55
926.85	215.56
927.15	215.55
927.45	215.56
927.75	215.57
928.05	215.54
928.35	215.53
928.65	215.55
928.95	215.55
929.26	215.47
929.56	215.53
929.86	215.54
930.16	215.51
930.46	215.48
930.76	215.49
931.06	215.40
931.36	215.34
931.66	215.40
931.96	215.38
932.26	215.38
932.56	215.29
932.86	215.27
933.16	215.28
933.46	215.27
933.76	215.20
934.06	215.25
934.36	215.32
934.66	215.32
934.96	215.31
935.26	215.28
935.56	215.32
935.86	215.24
936.16	215.21
936.46	215.22
936.76	215.21
937.06	215.16
937.36	215.19
937.66	215.22
937.96	215.20
938.26	215.17
938.56	215.17
938.86	215.19
939.16	215.24
939.46	215.24
939.76	215.27
940.06	215.29
940.35	215.23
940.65	215.13
940.95	215.14
941.25	215.10
941.55	215.13
941.85	215.08
942.15	215.13
942.45	215.21
942.75	215.20
943.04	215.24
943.34	215.27
943.64	215.22
943.94	215.19
944.24	215.18
944.54	215.19
944.84	215.19
945.13	215.15
945.43	215.13
945.73	215.09
946.03	215.07
946.33	215.06
946.62	215.04
946.92	215.02
947.22	215.06
947.52	215.05
947.82	215.09
948.11	215.06
948.41	215.05
948.71	214.99
949.01	215.01
949.31	214.97
949.60	215.00
949.90	215.06
950.20	215.06
950.50	215.04
950.79	215.05
951.09	215.08
951.39	215.06
951.69	215.04
951.98	215.11
952.28	215.12
952.58	215.11
952.87	215.11
953.17	215.13
953.47	215.12
953.76	215.15
954.06	215.09
954.36	215.12
954.66	215.10
954.95	215.13
955.25	215.13
955.55	215.16
955.84	215.08
956.14	215.08
956.44	215.07
956.73	215.04
957.03	215.06
957.32	215.06
957.62	215.07
957.92	215.11
958.21	215.09
958.51	215.32
958.81	215.37
959.10	215.40
959.40	215.44
959.69	215.41
959.99	215.40
960.29	215.41
960.58	215.34
960.88	215.40
961.17	215.38
961.47	215.39
961.76	215.35
962.06	215.43
962.36	215.42
962.65	215.43
962.95	215.47
963.24	215.44
963.54	215.43
963.83	215.44
964.13	215.42
964.42	215.39
964.72	215.23
965.01	215.21
965.31	215.20
965.60	215.14
965.90	215.30
966.19	215.28
966.49	215.30
966.78	215.30
967.08	215.28
967.37	215.27
967.67	215.24
967.96	215.27
968.26	215.24
968.55	215.27
968.85	215.25
969.14	215.25
969.43	215.25
969.73	215.23
970.02	215.22
970.32	215.20
970.61	215.17
970.91	215.11
971.20	215.07
971.49	215.03
971.79	215.08
972.08	214.94
972.38	214.96
972.67	214.95
972.96	215.00
973.26	214.93
973.55	215.03
973.85	215.01
974.14	215.01
974.43	215.02
974.73	214.97
975.02	214.97
975.31	214.96
975.61	214.96
975.90	214.98
976.19	214.98
976.49	215.00
976.78	215.01
977.07	214.97
977.37	215.00
977.66	215.03
977.95	214.97
978.24	214.97
978.54	215.04
978.83	214.99
979.12	215.00
979.42	215.02
979.71	214.95
980.00	214.99
980.29	214.96
980.59	214.93
980.88	215.00
981.17	215.00
981.46	214.98
981.76	215.00
982.05	215.01
982.34	215.01
982.63	215.02
982.93	215.02
983.22	215.10
983.51	215.10
983.80	215.15
984.09	215.19
984.39	215.15
984.68	215.09
984.97	215.13
985.26	215.10
985.55	215.14
985.85	215.14
986.14	215.17
986.43	215.23
986.72	215.18
987.01	215.12
987.30	215.12
987.59	215.11
987.89	215.12
988.18	215.08
988.47	215.06
988.76	215.02
989.05	215.00
989.34	215.00
989.63	215.06
989.92	215.01
990.22	214.99
990.51	215.03
990.80	214.99
991.09	214.98
991.38	215.03
991.67	214.96
991.96	214.93
992.25	214.91
992.54	214.85
992.83	214.90
993.12	214.93
993.41	214.96
993.70	215.08
993.99	215.10
994.28	215.10
994.58	215.16
994.87	215.14
995.16	215.14
995.45	215.10
995.74	215.04
996.03	215.07
996.32	215.07
996.61	215.09
996.90	215.12
997.19	215.13
997.48	215.13
997.77	215.13
998.06	215.14
998.34	215.12
998.63	215.14
998.92	215.14
999.21	215.14
999.50	215.14
999.79	215.04
1000.08	215.01
1000.37	215.05
1000.66	215.02
1000.95	215.07
1001.24	215.09
1001.53	215.09
1001.82	215.09
1002.11	215.04
1002.40	215.08
1002.68	215.15
1002.97	215.29
1003.26	215.23
1003.55	215.16
1003.84	215.18
1004.13	215.26
1004.42	215.27
1004.71	215.23
1004.99	215.22
1005.28	215.26
1005.57	215.24
1005.86	215.24
1006.15	215.25
1006.44	215.21
1006.72	215.22
1007.01	215.18
1007.30	215.20
1007.59	215.19
1007.88	215.21
1008.17	215.22
1008.45	215.17
1008.74	215.08
1009.03	214.97
1009.32	215.00
1009.60	215.06
1009.89	215.05
1010.18	214.96
1010.47	214.92
1010.76	214.95
1011.04	214.97
1011.33	214.96
1011.62	214.94
1011.91	214.96
1012.19	214.97
1012.48	215.00
1012.77	215.01
1013.05	215.11
1013.34	215.12
1013.63	215.11
1013.92	215.11
1014.20	215.10
1014.49	215.10
1014.78	215.12
1015.06	215.07
1015.35	215.10
1015.64	215.13
1015.92	215.18
1016.21	215.16
1016.50	215.20
1016.78	215.22
1017.07	215.23
1017.36	215.19
1017.64	215.17
1017.93	215.16
1018.22	215.12
1018.50	215.10
1018.79	215.08
1019.08	214.97
1019.36	214.95
1019.65	214.93
1019.93	214.99
1020.22	215.03
1020.51	215.14
1020.79	215.10
1021.08	214.71
1021.36	214.62
1021.65	214.91
1021.94	214.74
1022.22	214.65
1022.51	214.55
1022.79	216.16
1023.08	215.39
1023.36	217.22
1023.65	214.74
>>>>>End Processed Spectral Data<<<<<
