SpectraSuite Data File
++++++++++++++++++++++++++++++++++++
Date: Tue Jan 29 16:45:12 EST 2013
User: group
Dark Spectrum Present: No
Reference Spectrum Present: No
Number of Sampled Component Spectra: 1
Spectrometers: USB2E7196
Integration Time (usec): 65000 (USB2E7196)
Spectra Averaged: 100 (USB2E7196)
Boxcar Smoothing: 10 (USB2E7196)
Correct for Electrical Dark: No (USB2E7196)
Strobe/Lamp Enabled: No (USB2E7196)
Correct for Detector Non-linearity: No (USB2E7196)
Correct for Stray Light: No (USB2E7196)
Number of Pixels in Processed Spectrum: 2048
>>>>>Begin Processed Spectral Data<<<<<
339.09	0.00
339.48	201.24
339.86	202.82
340.24	204.52
340.63	205.92
341.01	210.48
341.39	209.11
341.78	210.10
342.16	211.49
342.54	211.63
342.93	200.83
343.31	210.96
343.69	211.53
344.07	211.99
344.46	212.45
344.84	212.86
345.22	213.02
345.60	213.27
345.99	213.47
346.37	213.60
346.75	213.71
347.13	213.82
347.52	213.94
347.90	214.06
348.28	214.10
348.66	214.17
349.05	214.15
349.43	214.21
349.81	214.27
350.19	214.34
350.57	214.40
350.96	214.51
351.34	214.63
351.72	214.73
352.10	214.86
352.48	214.93
352.87	214.95
353.25	215.01
353.63	215.06
354.01	215.11
354.39	215.20
354.77	215.29
355.15	215.43
355.54	215.47
355.92	215.49
356.30	215.53
356.68	215.74
357.06	215.80
357.44	215.87
357.82	215.92
358.20	216.02
358.58	216.11
358.97	216.18
359.35	216.27
359.73	216.35
360.11	216.45
360.49	216.49
360.87	216.55
361.25	216.64
361.63	216.76
362.01	216.85
362.39	216.90
362.77	216.96
363.15	216.95
363.53	216.98
363.91	217.03
364.29	217.07
364.67	216.92
365.05	216.96
365.43	217.02
365.81	217.07
366.19	217.14
366.57	217.19
366.95	217.19
367.33	217.16
367.71	217.16
368.09	217.16
368.47	217.16
368.85	217.17
369.23	217.23
369.61	217.11
369.99	217.15
370.37	217.15
370.75	217.20
371.13	217.15
371.51	217.08
371.89	217.09
372.27	217.11
372.65	217.06
373.03	217.02
373.41	216.97
373.78	216.93
374.16	216.80
374.54	216.71
374.92	216.66
375.30	216.62
375.68	216.56
376.06	216.51
376.44	216.44
376.82	216.39
377.19	216.33
377.57	216.32
377.95	216.21
378.33	216.14
378.71	215.98
379.09	216.01
379.47	216.02
379.84	215.92
380.22	215.84
380.60	215.81
380.98	215.75
381.36	215.68
381.73	215.59
382.11	215.58
382.49	215.54
382.87	215.47
383.25	215.43
383.62	215.63
384.00	215.57
384.38	215.55
384.76	215.59
385.13	215.62
385.51	215.60
385.89	215.54
386.27	215.50
386.64	215.52
387.02	215.46
387.40	215.42
387.78	215.43
388.15	215.42
388.53	215.39
388.91	215.34
389.29	215.34
389.66	215.35
390.04	215.31
390.42	215.34
390.79	215.36
391.17	215.36
391.55	215.13
391.92	215.14
392.30	215.17
392.68	215.11
393.05	215.08
393.43	215.06
393.81	215.10
394.18	215.08
394.56	215.06
394.94	215.08
395.31	215.06
395.69	215.13
396.06	215.16
396.44	215.15
396.82	215.17
397.19	215.27
397.57	215.28
397.95	215.32
398.32	215.28
398.70	215.32
399.07	215.43
399.45	215.44
399.82	215.49
400.20	215.50
400.58	215.54
400.95	215.50
401.33	215.64
401.70	215.83
402.08	215.90
402.45	216.00
402.83	216.13
403.20	216.25
403.58	216.31
403.95	216.43
404.33	216.62
404.71	216.79
405.08	217.04
405.46	217.22
405.83	217.42
406.21	217.64
406.58	217.85
406.96	218.03
407.33	218.28
407.70	218.58
408.08	219.03
408.45	219.37
408.83	219.77
409.20	220.06
409.58	220.33
409.95	220.81
410.33	221.29
410.70	221.75
411.08	222.32
411.45	222.89
411.82	223.47
412.20	224.16
412.57	224.99
412.95	225.60
413.32	226.44
413.69	227.27
414.07	228.18
414.44	229.18
414.82	230.22
415.19	231.40
415.56	232.60
415.94	233.79
416.31	235.24
416.68	236.63
417.06	238.28
417.43	239.85
417.81	241.63
418.18	243.45
418.55	245.40
418.93	247.44
419.30	249.57
419.67	251.83
420.04	254.13
420.42	256.50
420.79	259.33
421.16	262.14
421.54	265.08
421.91	268.10
422.28	271.23
422.66	274.57
423.03	277.88
423.40	281.29
423.77	284.94
424.15	288.59
424.52	292.49
424.89	296.64
425.26	300.75
425.64	304.63
426.01	308.90
426.38	313.40
426.75	317.98
427.13	322.75
427.50	327.78
427.87	332.95
428.24	338.22
428.61	343.20
428.99	348.72
429.36	354.74
429.73	360.59
430.10	366.43
430.47	372.47
430.85	378.73
431.22	385.39
431.59	392.47
431.96	399.37
432.33	406.88
432.70	414.17
433.08	422.74
433.45	430.82
433.82	438.88
434.19	447.83
434.56	456.53
434.93	464.88
435.30	473.13
435.68	482.38
436.05	491.32
436.42	500.23
436.79	508.35
437.16	517.13
437.53	526.48
437.90	535.70
438.27	544.70
438.64	554.00
439.01	562.59
439.38	570.19
439.75	577.50
440.13	585.98
440.50	594.02
440.87	600.42
441.24	607.09
441.61	614.42
441.98	619.81
442.35	626.26
442.72	632.60
443.09	638.75
443.46	642.45
443.83	645.06
444.20	647.34
444.57	650.56
444.94	652.03
445.31	653.51
445.68	654.92
446.05	655.62
446.42	654.88
446.79	653.87
447.16	652.79
447.53	652.03
447.90	648.69
448.27	645.41
448.64	640.83
449.01	637.52
449.37	631.68
449.74	626.03
450.11	618.98
450.48	611.59
450.85	604.11
451.22	597.59
451.59	591.44
451.96	585.59
452.33	577.72
452.70	570.60
453.07	562.08
453.43	553.47
453.80	545.09
454.17	536.97
454.54	529.46
454.91	521.32
455.28	513.31
455.65	505.84
456.02	498.25
456.38	491.86
456.75	483.97
457.12	477.33
457.49	470.72
457.86	464.54
458.23	459.10
458.59	453.09
458.96	447.09
459.33	441.70
459.70	436.29
460.07	432.05
460.43	427.13
460.80	422.50
461.17	418.46
461.54	414.23
461.91	410.28
462.27	406.16
462.64	402.68
463.01	398.84
463.38	395.13
463.74	391.40
464.11	388.11
464.48	385.23
464.85	382.12
465.21	379.71
465.58	377.08
465.95	373.97
466.32	371.36
466.68	368.73
467.05	366.18
467.42	363.62
467.78	360.91
468.15	358.35
468.52	356.42
468.88	353.91
469.25	351.71
469.62	349.87
469.98	347.90
470.35	346.03
470.72	344.33
471.08	342.50
471.45	341.01
471.82	339.49
472.18	337.79
472.55	336.58
472.92	335.19
473.28	333.96
473.65	332.74
474.02	331.62
474.38	330.72
474.75	329.93
475.11	329.07
475.48	328.46
475.85	327.99
476.21	327.48
476.58	327.12
476.94	326.86
477.31	326.54
477.67	326.29
478.04	326.20
478.41	326.20
478.77	326.36
479.14	326.29
479.50	326.41
479.87	326.72
480.23	327.02
480.60	327.22
480.96	327.45
481.33	328.06
481.69	328.62
482.06	329.11
482.42	329.56
482.79	330.11
483.15	330.90
483.52	331.87
483.88	332.80
484.25	333.70
484.61	334.70
484.98	335.77
485.34	337.10
485.71	338.41
486.07	339.84
486.44	341.21
486.80	342.84
487.17	344.49
487.53	346.34
487.90	348.20
488.26	350.24
488.62	352.43
488.99	354.46
489.35	356.62
489.72	359.03
490.08	361.55
490.44	364.10
490.81	366.75
491.17	369.40
491.54	372.34
491.90	375.40
492.26	378.66
492.63	382.07
492.99	385.51
493.36	389.18
493.72	392.99
494.08	396.98
494.45	401.15
494.81	405.54
495.17	409.96
495.54	414.62
495.90	419.41
496.26	424.30
496.63	429.52
496.99	434.93
497.35	440.49
497.72	446.29
498.08	452.26
498.44	458.34
498.80	464.73
499.17	471.24
499.53	478.01
499.89	484.87
500.26	491.77
500.62	498.92
500.98	506.30
501.34	513.82
501.71	521.56
502.07	529.33
502.43	537.29
502.79	545.46
503.16	553.93
503.52	562.53
503.88	571.20
504.24	580.19
504.60	589.25
504.97	598.51
505.33	607.83
505.69	617.71
506.05	627.70
506.41	637.57
506.78	647.73
507.14	658.02
507.50	668.50
507.86	679.21
508.22	689.96
508.59	700.64
508.95	711.72
509.31	722.95
509.67	734.57
510.03	745.94
510.39	757.69
510.75	769.45
511.12	781.35
511.48	793.49
511.84	805.69
512.20	817.97
512.56	830.60
512.92	843.46
513.28	856.12
513.64	868.82
514.00	881.74
514.37	894.64
514.73	907.68
515.09	920.62
515.45	933.61
515.81	946.68
516.17	960.17
516.53	973.46
516.89	986.63
517.25	999.81
517.61	1013.41
517.97	1026.84
518.33	1040.10
518.69	1053.74
519.05	1067.52
519.41	1081.24
519.77	1095.20
520.13	1108.51
520.49	1121.65
520.85	1135.02
521.21	1148.34
521.57	1162.02
521.93	1175.15
522.29	1188.99
522.65	1202.73
523.01	1216.33
523.37	1229.53
523.73	1242.82
524.09	1255.99
524.45	1269.50
524.81	1282.97
525.17	1296.38
525.53	1309.59
525.89	1322.91
526.25	1336.02
526.61	1348.95
526.97	1362.05
527.33	1375.21
527.68	1388.76
528.04	1402.30
528.40	1415.52
528.76	1429.06
529.12	1441.86
529.48	1455.27
529.84	1467.52
530.20	1480.33
530.56	1493.06
530.91	1506.47
531.27	1519.45
531.63	1532.24
531.99	1545.02
532.35	1557.34
532.71	1569.93
533.07	1582.91
533.42	1595.19
533.78	1607.47
534.14	1619.59
534.50	1630.99
534.86	1642.47
535.21	1653.44
535.57	1665.12
535.93	1676.47
536.29	1687.57
536.65	1699.35
537.00	1710.35
537.36	1721.86
537.72	1733.00
538.08	1744.41
538.44	1755.38
538.79	1766.47
539.15	1777.54
539.51	1788.36
539.87	1799.79
540.22	1810.63
540.58	1821.71
540.94	1832.77
541.29	1843.11
541.65	1852.91
542.01	1863.41
542.37	1873.54
542.72	1883.76
543.08	1893.62
543.44	1904.27
543.79	1913.68
544.15	1923.14
544.51	1933.22
544.87	1943.19
545.22	1952.42
545.58	1961.40
545.94	1970.41
546.29	1979.13
546.65	1987.46
547.01	1995.87
547.36	2003.67
547.72	2011.55
548.07	2019.14
548.43	2026.89
548.79	2034.73
549.14	2043.15
549.50	2051.87
549.86	2059.92
550.21	2067.42
550.57	2075.10
550.92	2081.91
551.28	2089.45
551.64	2096.72
551.99	2104.28
552.35	2111.39
552.70	2118.38
553.06	2125.23
553.41	2131.44
553.77	2138.01
554.13	2144.42
554.48	2151.57
554.84	2158.81
555.19	2165.29
555.55	2171.76
555.90	2178.07
556.26	2185.08
556.61	2191.02
556.97	2195.71
557.32	2201.53
557.68	2207.93
558.03	2213.77
558.39	2219.12
558.74	2225.18
559.10	2230.71
559.45	2236.26
559.81	2242.10
560.16	2247.53
560.52	2253.23
560.87	2259.76
561.23	2265.54
561.58	2272.21
561.94	2277.24
562.29	2281.79
562.64	2287.76
563.00	2293.37
563.35	2298.86
563.71	2304.43
564.06	2310.12
564.42	2316.03
564.77	2321.00
565.12	2326.29
565.48	2331.15
565.83	2336.50
566.19	2341.77
566.54	2347.11
566.89	2351.56
567.25	2355.75
567.60	2361.32
567.96	2366.42
568.31	2370.84
568.66	2375.09
569.02	2378.89
569.37	2382.69
569.72	2386.94
570.08	2390.29
570.43	2393.41
570.78	2396.49
571.14	2398.93
571.49	2401.91
571.84	2405.43
572.20	2408.24
572.55	2411.06
572.90	2413.34
573.26	2416.05
573.61	2418.46
573.96	2420.55
574.31	2422.52
574.67	2424.44
575.02	2425.21
575.37	2426.49
575.72	2426.94
576.08	2428.33
576.43	2428.38
576.78	2428.61
577.13	2430.17
577.49	2431.35
577.84	2432.05
578.19	2433.30
578.54	2433.78
578.90	2434.37
579.25	2433.96
579.60	2433.69
579.95	2432.76
580.30	2432.70
580.66	2432.02
581.01	2430.14
581.36	2427.42
581.71	2425.95
582.06	2424.67
582.42	2423.68
582.77	2421.42
583.12	2419.75
583.47	2418.19
583.82	2417.46
584.17	2416.03
584.53	2413.75
584.88	2411.45
585.23	2409.52
585.58	2407.04
585.93	2404.80
586.28	2402.37
586.63	2399.85
586.98	2397.61
587.34	2395.57
587.69	2393.09
588.04	2390.73
588.39	2389.22
588.74	2386.74
589.09	2383.87
589.44	2380.35
589.79	2377.70
590.14	2375.54
590.49	2372.59
590.84	2368.52
591.19	2365.25
591.54	2362.06
591.89	2357.76
592.25	2354.49
592.60	2350.19
592.95	2346.00
593.30	2341.75
593.65	2337.43
594.00	2332.87
594.35	2329.61
594.70	2324.81
595.05	2320.11
595.40	2314.63
595.75	2308.67
596.10	2305.03
596.45	2300.03
596.80	2295.47
597.15	2290.17
597.50	2284.15
597.85	2279.03
598.19	2273.88
598.54	2268.11
598.89	2262.56
599.24	2257.91
599.59	2251.69
599.94	2245.75
600.29	2239.63
600.64	2233.69
600.99	2226.71
601.34	2221.27
601.69	2214.49
602.04	2208.01
602.39	2201.24
602.74	2195.18
603.08	2189.71
603.43	2183.16
603.78	2176.28
604.13	2169.20
604.48	2161.88
604.83	2155.71
605.18	2149.65
605.53	2142.58
605.87	2135.42
606.22	2128.75
606.57	2120.83
606.92	2112.73
607.27	2105.68
607.62	2099.06
607.96	2092.11
608.31	2085.68
608.66	2077.82
609.01	2069.98
609.36	2062.90
609.70	2055.35
610.05	2047.46
610.40	2039.08
610.75	2030.65
611.10	2022.89
611.44	2013.94
611.79	2005.24
612.14	1995.27
612.49	1984.50
612.83	1975.12
613.18	1965.94
613.53	1956.59
613.88	1947.05
614.22	1938.60
614.57	1928.90
614.92	1918.25
615.27	1907.87
615.61	1897.73
615.96	1888.11
616.31	1878.49
616.65	1869.06
617.00	1859.34
617.35	1849.60
617.70	1839.83
618.04	1829.94
618.39	1819.90
618.74	1810.40
619.08	1800.76
619.43	1792.15
619.78	1783.95
620.12	1775.54
620.47	1765.96
620.82	1755.63
621.16	1745.90
621.51	1736.00
621.85	1726.13
622.20	1715.89
622.55	1705.43
622.89	1695.54
623.24	1685.93
623.59	1676.19
623.93	1666.05
624.28	1656.27
624.62	1646.31
624.97	1636.19
625.32	1626.31
625.66	1617.38
626.01	1608.71
626.35	1599.49
626.70	1589.48
627.04	1579.50
627.39	1569.26
627.73	1560.14
628.08	1551.31
628.43	1541.79
628.77	1532.66
629.12	1523.88
629.46	1516.16
629.81	1508.09
630.15	1498.78
630.50	1489.02
630.84	1478.77
631.19	1468.93
631.53	1459.73
631.88	1449.69
632.22	1439.85
632.57	1430.57
632.91	1420.58
633.26	1410.78
633.60	1401.19
633.95	1392.00
634.29	1382.51
634.64	1373.35
634.98	1363.41
635.32	1354.21
635.67	1345.90
636.01	1336.67
636.36	1327.02
636.70	1317.56
637.05	1308.10
637.39	1299.22
637.73	1290.69
638.08	1283.07
638.42	1275.17
638.77	1266.57
639.11	1258.39
639.45	1250.58
639.80	1242.24
640.14	1233.49
640.49	1224.66
640.83	1215.84
641.17	1207.71
641.52	1199.68
641.86	1191.14
642.20	1183.28
642.55	1174.69
642.89	1165.71
643.23	1157.04
643.58	1148.97
643.92	1140.00
644.26	1131.38
644.61	1122.99
644.95	1114.17
645.29	1105.08
645.64	1095.80
645.98	1087.25
646.32	1079.45
646.66	1070.98
647.01	1062.65
647.35	1054.69
647.69	1046.46
648.04	1038.34
648.38	1029.49
648.72	1020.74
649.06	1012.37
649.41	1004.26
649.75	996.40
650.09	988.66
650.43	980.70
650.78	972.41
651.12	964.67
651.46	957.25
651.80	950.02
652.14	942.81
652.49	935.24
652.83	928.02
653.17	920.27
653.51	912.60
653.85	905.47
654.20	898.22
654.54	890.73
654.88	883.51
655.22	876.28
655.56	869.30
655.90	862.53
656.25	855.78
656.59	848.88
656.93	841.80
657.27	834.67
657.61	827.69
657.95	821.59
658.29	815.66
658.64	809.47
658.98	803.00
659.32	796.40
659.66	790.15
660.00	783.80
660.34	777.71
660.68	771.55
661.02	765.06
661.36	759.08
661.70	753.34
662.05	747.70
662.39	742.19
662.73	736.81
663.07	731.42
663.41	725.91
663.75	720.21
664.09	714.56
664.43	709.09
664.77	703.73
665.11	697.89
665.45	691.99
665.79	686.22
666.13	680.53
666.47	675.07
666.81	669.65
667.15	664.26
667.49	658.99
667.83	653.69
668.17	648.50
668.51	643.37
668.85	638.36
669.19	633.40
669.53	628.34
669.87	623.17
670.21	618.35
670.55	613.61
670.89	609.07
671.23	604.70
671.57	600.33
671.91	596.00
672.25	591.86
672.58	587.69
672.92	583.63
673.26	579.66
673.60	575.81
673.94	572.00
674.28	568.36
674.62	564.73
674.96	561.02
675.30	557.48
675.64	553.77
675.97	550.17
676.31	546.55
676.65	542.97
676.99	539.60
677.33	535.78
677.67	532.04
678.01	528.28
678.34	524.67
678.68	521.10
679.02	517.46
679.36	513.75
679.70	510.08
680.04	506.50
680.37	503.04
680.71	499.66
681.05	496.36
681.39	493.05
681.73	489.86
682.06	486.75
682.40	483.67
682.74	480.47
683.08	477.26
683.42	473.97
683.75	470.96
684.09	467.82
684.43	465.00
684.77	462.11
685.10	459.17
685.44	456.22
685.78	453.30
686.12	450.56
686.45	447.81
686.79	445.17
687.13	442.59
687.46	439.93
687.80	437.21
688.14	434.42
688.48	431.76
688.81	429.01
689.15	426.44
689.49	423.73
689.82	421.18
690.16	418.52
690.50	416.12
690.83	413.54
691.17	410.99
691.51	408.48
691.84	406.14
692.18	403.89
692.52	401.60
692.85	399.40
693.19	397.24
693.52	395.08
693.86	392.82
694.20	390.58
694.53	388.40
694.87	386.15
695.21	383.97
695.54	381.79
695.88	379.56
696.21	377.30
696.55	375.19
696.88	373.13
697.22	371.14
697.56	369.24
697.89	367.35
698.23	365.59
698.56	363.77
698.90	361.96
699.23	360.06
699.57	358.21
699.90	356.35
700.24	354.45
700.58	352.63
700.91	350.94
701.25	349.35
701.58	347.74
701.92	346.14
702.25	344.51
702.59	342.87
702.92	341.31
703.26	339.76
703.59	338.23
703.93	336.96
704.26	335.51
704.60	333.93
704.93	332.41
705.26	330.88
705.60	329.42
705.93	327.89
706.27	326.53
706.60	325.24
706.94	324.00
707.27	322.62
707.61	321.26
707.94	319.87
708.27	318.35
708.61	316.88
708.94	315.46
709.28	314.13
709.61	312.86
709.94	311.63
710.28	310.41
710.61	309.21
710.95	307.77
711.28	306.67
711.61	305.48
711.95	304.37
712.28	303.18
712.61	301.98
712.95	300.91
713.28	299.85
713.61	298.69
713.95	297.50
714.28	296.47
714.61	295.43
714.95	294.43
715.28	293.40
715.61	292.38
715.95	291.42
716.28	290.47
716.61	289.51
716.95	288.49
717.28	287.59
717.61	286.67
717.94	285.73
718.28	284.67
718.61	283.78
718.94	282.83
719.27	281.94
719.61	281.11
719.94	280.19
720.27	279.23
720.60	278.34
720.94	277.48
721.27	276.75
721.60	275.97
721.93	275.25
722.27	274.59
722.60	273.91
722.93	273.20
723.26	272.52
723.59	271.79
723.93	271.17
724.26	270.46
724.59	269.76
724.92	269.12
725.25	268.60
725.59	268.00
725.92	267.46
726.25	266.86
726.58	266.24
726.91	265.66
727.24	265.12
727.57	264.57
727.91	264.00
728.24	263.42
728.57	262.85
728.90	262.27
729.23	261.62
729.56	261.13
729.89	260.60
730.22	260.02
730.55	259.43
730.89	258.85
731.22	258.31
731.55	257.80
731.88	257.26
732.21	256.66
732.54	256.09
732.87	255.53
733.20	255.05
733.53	254.57
733.86	254.14
734.19	253.65
734.52	253.22
734.85	252.92
735.18	252.40
735.51	252.01
735.84	251.60
736.17	251.23
736.50	250.72
736.83	250.53
737.16	250.12
737.49	249.78
737.82	249.40
738.15	249.04
738.48	248.68
738.81	248.30
739.14	247.89
739.47	247.52
739.80	247.17
740.13	246.80
740.46	246.39
740.79	245.93
741.12	245.55
741.45	245.16
741.78	244.71
742.11	244.44
742.44	244.05
742.77	243.70
743.10	243.33
743.43	243.01
743.75	242.44
744.08	242.37
744.41	242.01
744.74	241.63
745.07	241.23
745.40	240.89
745.73	240.64
746.06	240.31
746.39	240.02
746.71	239.66
747.04	239.31
747.37	239.03
747.70	238.80
748.03	238.46
748.36	238.20
748.68	237.89
749.01	237.54
749.34	237.26
749.67	236.95
750.00	236.71
750.33	236.52
750.65	236.29
750.98	235.77
751.31	235.53
751.64	235.29
751.97	235.18
752.29	234.92
752.62	234.61
752.95	234.36
753.28	234.09
753.60	233.88
753.93	233.72
754.26	233.49
754.59	233.17
754.91	232.95
755.24	232.67
755.57	232.41
755.90	232.18
756.22	231.91
756.55	231.65
756.88	231.38
757.20	231.03
757.53	230.73
757.86	230.48
758.19	230.31
758.51	230.10
758.84	229.78
759.17	229.54
759.49	229.31
759.82	229.24
760.15	229.08
760.47	228.86
760.80	228.60
761.13	228.42
761.45	228.23
761.78	228.02
762.11	227.82
762.43	227.64
762.76	227.44
763.08	227.34
763.41	227.19
763.74	227.05
764.06	226.91
764.39	226.78
764.71	226.63
765.04	226.43
765.37	226.29
765.69	226.11
766.02	226.00
766.34	225.88
766.67	225.64
767.00	225.50
767.32	225.49
767.65	225.51
767.97	225.38
768.30	225.26
768.62	225.15
768.95	225.07
769.27	224.94
769.60	224.88
769.92	224.68
770.25	224.56
770.57	224.36
770.90	224.23
771.22	224.09
771.55	224.02
771.87	223.92
772.20	223.75
772.52	223.81
772.85	223.98
773.17	223.85
773.50	223.74
773.82	223.59
774.15	223.37
774.47	223.09
774.80	222.97
775.12	222.86
775.45	222.75
775.77	222.60
776.09	222.53
776.42	222.41
776.74	222.39
777.07	222.28
777.39	222.24
777.72	222.14
778.04	222.09
778.36	221.97
778.69	221.89
779.01	221.86
779.33	221.63
779.66	221.28
779.98	221.23
780.31	221.17
780.63	221.20
780.95	221.16
781.28	221.10
781.60	221.03
781.92	220.99
782.25	220.95
782.57	220.92
782.89	220.83
783.22	220.75
783.54	220.62
783.86	220.55
784.19	220.47
784.51	220.47
784.83	220.36
785.16	220.29
785.48	220.23
785.80	220.17
786.12	220.13
786.45	220.09
786.77	220.04
787.09	219.96
787.42	219.83
787.74	219.81
788.06	219.76
788.38	219.69
788.71	219.63
789.03	219.58
789.35	219.56
789.67	219.46
789.99	219.44
790.32	219.35
790.64	219.34
790.96	219.46
791.28	219.32
791.61	219.24
791.93	219.20
792.25	219.11
792.57	219.21
792.89	219.11
793.21	219.03
793.54	218.95
793.86	218.86
794.18	218.83
794.50	218.74
794.82	218.71
795.14	218.70
795.47	218.66
795.79	218.65
796.11	218.53
796.43	218.52
796.75	218.48
797.07	218.48
797.39	218.41
797.71	218.21
798.04	218.19
798.36	218.17
798.68	218.15
799.00	218.16
799.32	217.99
799.64	218.00
799.96	217.97
800.28	217.96
800.60	217.92
800.92	217.85
801.24	217.79
801.56	217.76
801.89	217.70
802.21	217.67
802.53	217.55
802.85	217.57
803.17	217.61
803.49	217.53
803.81	217.46
804.13	217.42
804.45	217.36
804.77	217.35
805.09	217.33
805.41	217.28
805.73	217.20
806.05	217.14
806.37	217.10
806.69	217.05
807.01	217.03
807.33	217.04
807.65	216.94
807.97	217.04
808.28	216.98
808.60	216.93
808.92	216.86
809.24	216.97
809.56	216.90
809.88	216.81
810.20	216.81
810.52	216.85
810.84	216.82
811.16	216.80
811.48	216.79
811.80	216.82
812.12	216.78
812.43	216.80
812.75	216.78
813.07	216.75
813.39	216.75
813.71	216.66
814.03	216.63
814.35	216.63
814.67	216.48
814.98	216.46
815.30	216.41
815.62	216.38
815.94	216.22
816.26	216.24
816.58	216.17
816.89	216.17
817.21	216.10
817.53	216.12
817.85	216.07
818.17	216.02
818.48	215.93
818.80	215.96
819.12	215.89
819.44	215.85
819.76	215.81
820.07	215.79
820.39	215.82
820.71	215.82
821.03	215.82
821.34	215.84
821.66	215.83
821.98	215.86
822.30	215.82
822.61	215.92
822.93	215.85
823.25	215.83
823.57	215.76
823.88	215.77
824.20	215.74
824.52	215.77
824.83	215.76
825.15	215.72
825.47	215.69
825.79	215.74
826.10	215.72
826.42	215.71
826.74	215.72
827.05	215.65
827.37	215.61
827.69	215.58
828.00	215.55
828.32	215.55
828.64	215.55
828.95	215.65
829.27	215.58
829.58	215.56
829.90	215.61
830.22	215.65
830.53	215.59
830.85	215.56
831.17	215.48
831.48	215.45
831.80	215.46
832.11	215.42
832.43	215.36
832.75	215.34
833.06	215.42
833.38	215.35
833.69	215.36
834.01	215.37
834.32	215.33
834.64	215.32
834.96	215.28
835.27	215.22
835.59	215.15
835.90	215.13
836.22	215.13
836.53	215.06
836.85	215.00
837.16	215.19
837.48	215.16
837.79	215.22
838.11	215.24
838.42	215.27
838.74	215.30
839.05	215.27
839.37	215.23
839.68	215.10
840.00	215.10
840.31	215.10
840.63	215.09
840.94	215.09
841.26	215.08
841.57	215.07
841.88	215.11
842.20	215.09
842.51	215.05
842.83	215.04
843.14	215.25
843.46	215.25
843.77	215.13
844.08	215.12
844.40	215.11
844.71	215.09
845.03	215.04
845.34	214.98
845.65	214.99
845.97	215.01
846.28	215.03
846.60	215.01
846.91	214.99
847.22	214.96
847.54	214.99
847.85	214.98
848.16	214.96
848.48	214.91
848.79	214.98
849.10	214.99
849.42	215.03
849.73	214.82
850.04	214.81
850.36	214.75
850.67	214.79
850.98	214.78
851.30	214.77
851.61	214.79
851.92	214.80
852.23	214.86
852.55	214.88
852.86	214.90
853.17	214.90
853.49	214.96
853.80	214.98
854.11	214.97
854.42	215.02
854.74	215.02
855.05	215.01
855.36	214.91
855.67	214.92
855.99	214.90
856.30	215.14
856.61	215.13
856.92	215.14
857.23	215.12
857.55	215.06
857.86	215.07
858.17	215.07
858.48	215.04
858.79	214.98
859.11	214.99
859.42	214.95
859.73	214.93
860.04	214.89
860.35	214.84
860.66	214.78
860.98	214.76
861.29	214.77
861.60	214.78
861.91	214.82
862.22	214.76
862.53	214.71
862.84	214.44
863.16	214.46
863.47	214.39
863.78	214.39
864.09	214.41
864.40	214.40
864.71	214.38
865.02	214.39
865.33	214.37
865.64	214.33
865.95	214.30
866.27	214.43
866.58	214.42
866.89	214.46
867.20	214.48
867.51	214.44
867.82	214.42
868.13	214.46
868.44	214.39
868.75	214.44
869.06	214.44
869.37	214.48
869.68	214.41
869.99	214.47
870.30	214.46
870.61	214.49
870.92	214.46
871.23	214.45
871.54	214.48
871.85	214.52
872.16	214.54
872.47	214.55
872.78	214.42
873.09	214.48
873.40	214.43
873.71	214.44
874.02	214.45
874.33	214.43
874.64	214.40
874.95	214.47
875.26	214.45
875.56	214.46
875.87	214.43
876.18	214.45
876.49	214.65
876.80	214.61
877.11	214.58
877.42	214.59
877.73	214.59
878.04	214.57
878.35	214.56
878.66	214.56
878.96	214.55
879.27	214.53
879.58	214.49
879.89	214.50
880.20	214.55
880.51	214.51
880.82	214.52
881.12	214.50
881.43	214.44
881.74	214.40
882.05	214.41
882.36	214.49
882.67	214.49
882.97	214.30
883.28	214.30
883.59	214.33
883.90	214.33
884.21	214.38
884.51	214.36
884.82	214.34
885.13	214.36
885.44	214.39
885.74	214.39
886.05	214.34
886.36	214.35
886.67	214.27
886.98	214.40
887.28	214.41
887.59	214.41
887.90	214.43
888.20	214.41
888.51	214.44
888.82	214.37
889.13	214.38
889.43	214.52
889.74	214.50
890.05	214.46
890.35	214.44
890.66	214.40
890.97	214.37
891.28	214.35
891.58	214.34
891.89	214.33
892.20	214.28
892.50	214.30
892.81	214.28
893.12	214.29
893.42	214.19
893.73	214.20
894.04	214.19
894.34	214.20
894.65	214.21
894.95	214.16
895.26	214.16
895.57	214.23
895.87	214.03
896.18	214.05
896.48	214.08
896.79	214.05
897.10	214.05
897.40	214.07
897.71	214.08
898.01	214.07
898.32	214.09
898.63	214.12
898.93	214.11
899.24	214.13
899.54	214.12
899.85	214.13
900.15	214.12
900.46	214.12
900.76	214.14
901.07	214.14
901.38	214.15
901.68	214.21
901.99	214.11
902.29	214.10
902.60	214.11
902.90	214.08
903.21	214.10
903.51	214.09
903.82	214.13
904.12	214.13
904.43	214.13
904.73	214.12
905.03	214.13
905.34	214.32
905.64	214.28
905.95	214.27
906.25	214.25
906.56	214.25
906.86	214.25
907.17	214.24
907.47	214.25
907.77	214.22
908.08	214.16
908.38	214.16
908.69	214.23
908.99	214.24
909.30	214.24
909.60	214.27
909.90	214.28
910.21	214.21
910.51	214.18
910.81	214.20
911.12	214.19
911.42	214.23
911.73	214.01
912.03	214.03
912.33	214.08
912.64	214.06
912.94	214.05
913.24	214.03
913.55	214.01
913.85	213.98
914.15	214.03
914.46	214.06
914.76	214.02
915.06	213.98
915.37	213.98
915.67	213.98
915.97	213.96
916.27	213.95
916.58	213.97
916.88	213.98
917.18	213.95
917.49	214.10
917.79	214.10
918.09	214.15
918.39	214.19
918.70	214.16
919.00	214.16
919.30	214.25
919.60	214.22
919.91	214.17
920.21	214.22
920.51	214.20
920.81	214.17
921.12	214.23
921.42	214.23
921.72	214.22
922.02	214.19
922.32	214.24
922.63	214.22
922.93	214.30
923.23	214.29
923.53	214.26
923.83	214.15
924.13	214.15
924.44	214.16
924.74	214.20
925.04	214.30
925.34	214.32
925.64	214.20
925.94	214.23
926.24	214.38
926.55	214.36
926.85	214.39
927.15	214.40
927.45	214.39
927.75	214.41
928.05	214.37
928.35	214.38
928.65	214.36
928.95	214.38
929.26	214.30
929.56	214.35
929.86	214.36
930.16	214.35
930.46	214.32
930.76	214.33
931.06	214.22
931.36	214.14
931.66	214.18
931.96	214.22
932.26	214.22
932.56	214.13
932.86	214.11
933.16	214.07
933.46	214.08
933.76	214.05
934.06	214.07
934.36	214.19
934.66	214.17
934.96	214.13
935.26	214.14
935.56	214.15
935.86	214.11
936.16	214.10
936.46	214.03
936.76	214.01
937.06	213.94
937.36	213.97
937.66	213.98
937.96	213.96
938.26	213.89
938.56	213.88
938.86	213.88
939.16	213.92
939.46	213.95
939.76	213.95
940.06	213.92
940.35	213.87
940.65	213.70
940.95	213.76
941.25	213.74
941.55	213.72
941.85	213.72
942.15	213.76
942.45	213.84
942.75	213.84
943.04	213.87
943.34	213.92
943.64	213.89
943.94	213.84
944.24	213.83
944.54	213.86
944.84	213.88
945.13	213.87
945.43	213.83
945.73	213.82
946.03	213.81
946.33	213.82
946.62	213.86
946.92	213.91
947.22	213.92
947.52	213.92
947.82	213.96
948.11	213.92
948.41	213.87
948.71	213.82
949.01	213.84
949.31	213.80
949.60	213.77
949.90	213.81
950.20	213.80
950.50	213.79
950.79	213.79
951.09	213.80
951.39	213.78
951.69	213.76
951.98	213.81
952.28	213.82
952.58	213.81
952.87	213.77
953.17	213.80
953.47	213.78
953.76	213.79
954.06	213.75
954.36	213.74
954.66	213.76
954.95	213.82
955.25	213.85
955.55	213.87
955.84	213.84
956.14	213.85
956.44	213.86
956.73	213.85
957.03	213.87
957.32	213.89
957.62	213.89
957.92	213.93
958.21	213.89
958.51	214.12
958.81	214.16
959.10	214.19
959.40	214.21
959.69	214.21
959.99	214.22
960.29	214.22
960.58	214.23
960.88	214.31
961.17	214.25
961.47	214.24
961.76	214.20
962.06	214.29
962.36	214.27
962.65	214.29
962.95	214.31
963.24	214.27
963.54	214.25
963.83	214.26
964.13	214.24
964.42	214.22
964.72	214.03
965.01	214.02
965.31	214.00
965.60	213.96
965.90	214.10
966.19	214.05
966.49	214.07
966.78	214.07
967.08	214.03
967.37	214.04
967.67	214.04
967.96	214.11
968.26	214.09
968.55	214.11
968.85	214.12
969.14	214.12
969.43	214.14
969.73	214.14
970.02	214.14
970.32	214.16
970.61	214.14
970.91	214.13
971.20	214.10
971.49	214.11
971.79	214.11
972.08	213.95
972.38	214.04
972.67	214.01
972.96	214.05
973.26	214.00
973.55	214.06
973.85	214.03
974.14	213.99
974.43	213.99
974.73	213.96
975.02	213.94
975.31	213.95
975.61	213.91
975.90	213.87
976.19	213.87
976.49	213.87
976.78	213.87
977.07	213.89
977.37	213.89
977.66	213.92
977.95	213.89
978.24	213.90
978.54	213.91
978.83	213.89
979.12	213.88
979.42	213.90
979.71	213.84
980.00	213.82
980.29	213.84
980.59	213.76
980.88	213.79
981.17	213.79
981.46	213.77
981.76	213.81
982.05	213.90
982.34	213.91
982.63	213.90
982.93	213.94
983.22	213.94
983.51	213.95
983.80	213.97
984.09	214.02
984.39	214.03
984.68	213.99
984.97	214.01
985.26	213.99
985.55	213.99
985.85	213.98
986.14	214.05
986.43	214.05
986.72	214.08
987.01	214.03
987.30	214.01
987.59	214.01
987.89	214.00
988.18	213.93
988.47	213.91
988.76	213.88
989.05	213.84
989.34	213.79
989.63	213.84
989.92	213.79
990.22	213.78
990.51	213.77
990.80	213.76
991.09	213.79
991.38	213.79
991.67	213.78
991.96	213.79
992.25	213.77
992.54	213.73
992.83	213.76
993.12	213.74
993.41	213.80
993.70	213.89
993.99	213.93
994.28	213.93
994.58	213.97
994.87	213.94
995.16	213.97
995.45	213.97
995.74	213.91
996.03	213.98
996.32	213.98
996.61	214.00
996.90	214.01
997.19	213.99
997.48	214.02
997.77	213.98
998.06	213.94
998.34	213.93
998.63	213.95
998.92	213.93
999.21	213.99
999.50	213.97
999.79	213.87
1000.08	213.83
1000.37	213.83
1000.66	213.80
1000.95	213.84
1001.24	213.80
1001.53	213.83
1001.82	213.80
1002.11	213.73
1002.40	213.75
1002.68	213.79
1002.97	213.93
1003.26	213.93
1003.55	213.89
1003.84	213.91
1004.13	214.00
1004.42	213.97
1004.71	213.95
1004.99	213.91
1005.28	213.92
1005.57	213.91
1005.86	213.88
1006.15	213.89
1006.44	213.84
1006.72	213.88
1007.01	213.90
1007.30	213.90
1007.59	213.86
1007.88	213.87
1008.17	213.86
1008.45	213.83
1008.74	213.72
1009.03	213.61
1009.32	213.57
1009.60	213.58
1009.89	213.58
1010.18	213.48
1010.47	213.46
1010.76	213.48
1011.04	213.50
1011.33	213.54
1011.62	213.56
1011.91	213.61
1012.19	213.59
1012.48	213.64
1012.77	213.61
1013.05	213.70
1013.34	213.73
1013.63	213.74
1013.92	213.76
1014.20	213.77
1014.49	213.75
1014.78	213.76
1015.06	213.67
1015.35	213.70
1015.64	213.74
1015.92	213.77
1016.21	213.79
1016.50	213.82
1016.78	213.84
1017.07	213.86
1017.36	213.80
1017.64	213.76
1017.93	213.76
1018.22	213.77
1018.50	213.73
1018.79	213.75
1019.08	213.64
1019.36	213.63
1019.65	213.63
1019.93	213.67
1020.22	213.69
1020.51	213.79
1020.79	213.82
1021.08	213.52
1021.36	213.44
1021.65	214.02
1021.94	213.61
1022.22	213.73
1022.51	213.18
1022.79	214.70
1023.08	213.92
1023.36	215.75
1023.65	213.54
>>>>>End Processed Spectral Data<<<<<
