SpectraSuite Data File
++++++++++++++++++++++++++++++++++++
Date: Tue Jan 29 16:08:02 EST 2013
User: group
Dark Spectrum Present: No
Reference Spectrum Present: No
Number of Sampled Component Spectra: 1
Spectrometers: USB2E7196
Integration Time (usec): 65000 (USB2E7196)
Spectra Averaged: 100 (USB2E7196)
Boxcar Smoothing: 10 (USB2E7196)
Correct for Electrical Dark: No (USB2E7196)
Strobe/Lamp Enabled: No (USB2E7196)
Correct for Detector Non-linearity: No (USB2E7196)
Correct for Stray Light: No (USB2E7196)
Number of Pixels in Processed Spectrum: 2048
>>>>>Begin Processed Spectral Data<<<<<
339.09	0.00
339.48	202.61
339.86	203.70
340.24	205.75
340.63	206.97
341.01	210.70
341.39	209.59
341.78	211.54
342.16	212.61
342.54	212.44
342.93	201.81
343.31	212.01
343.69	212.55
344.07	213.03
344.46	213.47
344.84	213.87
345.22	214.11
345.60	214.39
345.99	214.58
346.37	214.73
346.75	214.89
347.13	214.97
347.52	215.04
347.90	215.15
348.28	215.20
348.66	215.28
349.05	215.25
349.43	215.31
349.81	215.37
350.19	215.39
350.57	215.47
350.96	215.58
351.34	215.68
351.72	215.79
352.10	215.91
352.48	215.99
352.87	216.02
353.25	216.08
353.63	216.15
354.01	216.20
354.39	216.27
354.77	216.33
355.15	216.43
355.54	216.51
355.92	216.53
356.30	216.60
356.68	216.80
357.06	216.86
357.44	216.90
357.82	216.96
358.20	217.06
358.58	217.11
358.97	217.16
359.35	217.25
359.73	217.36
360.11	217.40
360.49	217.44
360.87	217.49
361.25	217.57
361.63	217.67
362.01	217.75
362.39	217.76
362.77	217.79
363.15	217.83
363.53	217.87
363.91	217.93
364.29	217.95
364.67	217.80
365.05	217.85
365.43	217.91
365.81	217.99
366.19	218.09
366.57	218.19
366.95	218.21
367.33	218.17
367.71	218.17
368.09	218.21
368.47	218.22
368.85	218.21
369.23	218.22
369.61	218.15
369.99	218.20
370.37	218.21
370.75	218.29
371.13	218.23
371.51	218.17
371.89	218.16
372.27	218.15
372.65	218.18
373.03	218.16
373.41	218.11
373.78	218.05
374.16	217.91
374.54	217.82
374.92	217.73
375.30	217.69
375.68	217.59
376.06	217.54
376.44	217.50
376.82	217.48
377.19	217.44
377.57	217.36
377.95	217.24
378.33	217.19
378.71	217.04
379.09	217.04
379.47	217.05
379.84	216.95
380.22	216.89
380.60	216.76
380.98	216.71
381.36	216.67
381.73	216.59
382.11	216.59
382.49	216.54
382.87	216.47
383.25	216.41
383.62	216.63
384.00	216.59
384.38	216.55
384.76	216.53
385.13	216.54
385.51	216.51
385.89	216.45
386.27	216.41
386.64	216.40
387.02	216.35
387.40	216.27
387.78	216.27
388.15	216.24
388.53	216.22
388.91	216.16
389.29	216.11
389.66	216.12
390.04	216.08
390.42	216.07
390.79	216.08
391.17	216.10
391.55	215.85
391.92	215.79
392.30	215.80
392.68	215.74
393.05	215.74
393.43	215.73
393.81	215.76
394.18	215.73
394.56	215.74
394.94	215.78
395.31	215.79
395.69	215.84
396.06	215.88
396.44	215.93
396.82	215.96
397.19	216.07
397.57	216.09
397.95	216.13
398.32	216.12
398.70	216.16
399.07	216.23
399.45	216.27
399.82	216.34
400.20	216.34
400.58	216.42
400.95	216.38
401.33	216.52
401.70	216.70
402.08	216.77
402.45	216.88
402.83	216.98
403.20	217.10
403.58	217.20
403.95	217.34
404.33	217.49
404.71	217.62
405.08	217.88
405.46	218.04
405.83	218.20
406.21	218.41
406.58	218.63
406.96	218.85
407.33	219.10
407.70	219.39
408.08	219.88
408.45	220.24
408.83	220.61
409.20	220.91
409.58	221.18
409.95	221.65
410.33	222.11
410.70	222.53
411.08	223.06
411.45	223.62
411.82	224.19
412.20	224.82
412.57	225.64
412.95	226.15
413.32	226.95
413.69	227.78
414.07	228.64
414.44	229.58
414.82	230.56
415.19	231.70
415.56	232.85
415.94	233.96
416.31	235.30
416.68	236.68
417.06	238.25
417.43	239.75
417.81	241.41
418.18	243.12
418.55	245.01
418.93	246.96
419.30	248.99
419.67	251.13
420.04	253.35
420.42	255.58
420.79	258.35
421.16	261.06
421.54	263.84
421.91	266.74
422.28	269.76
422.66	272.89
423.03	276.03
423.40	279.25
423.77	282.75
424.15	286.31
424.52	290.00
424.89	294.01
425.26	297.94
425.64	301.72
426.01	305.84
426.38	310.13
426.75	314.56
427.13	319.12
427.50	323.95
427.87	328.96
428.24	334.04
428.61	338.85
428.99	344.17
429.36	350.03
429.73	355.68
430.10	361.36
430.47	367.25
430.85	373.40
431.22	379.92
431.59	386.74
431.96	393.29
432.33	400.52
432.70	407.55
433.08	415.80
433.45	423.59
433.82	431.35
434.19	439.93
434.56	448.31
434.93	456.35
435.30	464.34
435.68	473.11
436.05	481.77
436.42	490.34
436.79	498.19
437.16	506.62
437.53	515.58
437.90	524.35
438.27	533.02
438.64	541.86
439.01	550.13
439.38	557.55
439.75	564.66
440.13	572.79
440.50	580.42
440.87	586.61
441.24	593.01
441.61	600.04
441.98	605.21
442.35	611.29
442.72	617.41
443.09	623.20
443.46	626.83
443.83	629.25
444.20	631.36
444.57	634.38
444.94	635.73
445.31	637.12
445.68	638.53
446.05	639.08
446.42	638.35
446.79	637.36
447.16	636.26
447.53	635.50
447.90	632.23
448.27	629.04
448.64	624.51
449.01	621.27
449.37	615.65
449.74	610.21
450.11	603.57
450.48	596.34
450.85	589.13
451.22	582.89
451.59	576.94
451.96	571.28
452.33	563.72
452.70	556.87
453.07	548.70
453.43	540.30
453.80	532.26
454.17	524.55
454.54	517.26
454.91	509.34
455.28	501.62
455.65	494.54
456.02	487.37
456.38	481.34
456.75	473.80
457.12	467.43
457.49	461.17
457.86	455.25
458.23	450.15
458.59	444.50
458.96	438.75
459.33	433.75
459.70	428.66
460.07	424.58
460.43	419.90
460.80	415.50
461.17	411.74
461.54	407.75
461.91	403.85
462.27	399.88
462.64	396.61
463.01	392.96
463.38	389.41
463.74	385.82
464.11	382.65
464.48	379.89
464.85	376.89
465.21	374.51
465.58	371.94
465.95	368.89
466.32	366.36
466.68	363.86
467.05	361.32
467.42	358.84
467.78	356.24
468.15	353.78
468.52	351.95
468.88	349.54
469.25	347.45
469.62	345.71
469.98	343.87
470.35	342.13
470.72	340.54
471.08	338.76
471.45	337.32
471.82	335.85
472.18	334.26
472.55	333.14
472.92	331.81
473.28	330.66
473.65	329.57
474.02	328.55
474.38	327.69
474.75	326.96
475.11	326.17
475.48	325.60
475.85	325.17
476.21	324.71
476.58	324.38
476.94	324.17
477.31	323.94
477.67	323.74
478.04	323.62
478.41	323.63
478.77	323.85
479.14	323.85
479.50	324.03
479.87	324.40
480.23	324.74
480.60	325.01
480.96	325.30
481.33	325.98
481.69	326.55
482.06	327.08
482.42	327.58
482.79	328.23
483.15	329.07
483.52	330.07
483.88	330.96
484.25	331.96
484.61	332.98
484.98	334.00
485.34	335.27
485.71	336.67
486.07	338.08
486.44	339.41
486.80	341.02
487.17	342.68
487.53	344.50
487.90	346.34
488.26	348.38
488.62	350.54
488.99	352.55
489.35	354.69
489.72	357.12
490.08	359.69
490.44	362.23
490.81	364.92
491.17	367.64
491.54	370.66
491.90	373.65
492.26	376.92
492.63	380.31
492.99	383.80
493.36	387.44
493.72	391.36
494.08	395.37
494.45	399.60
494.81	403.94
495.17	408.33
495.54	413.08
495.90	417.90
496.26	422.85
496.63	428.05
496.99	433.40
497.35	438.92
497.72	444.64
498.08	450.55
498.44	456.62
498.80	463.06
499.17	469.50
499.53	476.23
499.89	483.06
500.26	490.02
500.62	497.10
500.98	504.52
501.34	511.93
501.71	519.59
502.07	527.35
502.43	535.32
502.79	543.44
503.16	551.76
503.52	560.31
503.88	568.91
504.24	577.77
504.60	586.79
504.97	596.00
505.33	605.33
505.69	615.22
506.05	625.06
506.41	634.75
506.78	644.72
507.14	654.89
507.50	665.30
507.86	675.92
508.22	686.61
508.59	697.19
508.95	708.12
509.31	719.40
509.67	730.75
510.03	742.07
510.39	753.77
510.75	765.60
511.12	777.46
511.48	789.55
511.84	801.75
512.20	814.02
512.56	826.57
512.92	839.21
513.28	851.63
513.64	864.23
514.00	877.02
514.37	889.94
514.73	902.95
515.09	915.80
515.45	928.52
515.81	941.45
516.17	954.73
516.53	967.85
516.89	980.70
517.25	993.73
517.61	1007.03
517.97	1020.22
518.33	1033.17
518.69	1046.48
519.05	1060.00
519.41	1073.57
519.77	1087.31
520.13	1100.31
520.49	1113.26
520.85	1126.48
521.21	1139.64
521.57	1153.07
521.93	1165.96
522.29	1179.53
522.65	1192.94
523.01	1206.42
523.37	1219.34
523.73	1232.34
524.09	1245.34
524.45	1258.58
524.81	1271.80
525.17	1285.09
525.53	1298.02
525.89	1311.08
526.25	1323.94
526.61	1336.55
526.97	1349.27
527.33	1361.88
527.68	1375.14
528.04	1388.37
528.40	1401.19
528.76	1414.23
529.12	1426.85
529.48	1439.84
529.84	1451.73
530.20	1464.27
530.56	1476.60
530.91	1489.68
531.27	1502.23
531.63	1514.70
531.99	1527.20
532.35	1539.21
532.71	1551.16
533.07	1563.71
533.42	1575.61
533.78	1587.41
534.14	1599.13
534.50	1610.10
534.86	1621.39
535.21	1631.96
535.57	1643.11
535.93	1654.33
536.29	1665.26
536.65	1676.46
537.00	1687.08
537.36	1698.23
537.72	1708.76
538.08	1719.80
538.44	1730.33
538.79	1741.03
539.15	1751.54
539.51	1761.81
539.87	1772.91
540.22	1783.48
540.58	1794.01
540.94	1804.59
541.29	1814.64
541.65	1824.08
542.01	1834.33
542.37	1844.19
542.72	1854.13
543.08	1863.71
543.44	1873.63
543.79	1882.59
544.15	1891.70
544.51	1901.55
544.87	1911.09
545.22	1920.08
545.58	1928.75
545.94	1937.32
546.29	1945.75
546.65	1953.92
547.01	1962.14
547.36	1969.54
547.72	1976.99
548.07	1984.58
548.43	1992.10
548.79	1999.67
549.14	2007.63
549.50	2015.75
549.86	2023.17
550.21	2030.31
550.57	2037.65
550.92	2044.26
551.28	2051.49
551.64	2058.52
551.99	2065.77
552.35	2072.77
552.70	2079.44
553.06	2085.92
553.41	2092.16
553.77	2098.40
554.13	2104.61
554.48	2111.30
554.84	2118.13
555.19	2124.51
555.55	2130.77
555.90	2136.95
556.26	2143.60
556.61	2149.45
556.97	2154.18
557.32	2160.04
557.68	2166.35
558.03	2172.06
558.39	2177.26
558.74	2183.21
559.10	2188.97
559.45	2194.42
559.81	2199.90
560.16	2205.41
560.52	2211.29
560.87	2217.58
561.23	2223.68
561.58	2230.33
561.94	2235.67
562.29	2240.58
562.64	2246.77
563.00	2252.34
563.35	2257.95
563.71	2263.70
564.06	2269.40
564.42	2275.27
564.77	2280.29
565.12	2285.45
565.48	2290.72
565.83	2296.32
566.19	2301.77
566.54	2306.86
566.89	2311.51
567.25	2316.13
567.60	2321.79
567.96	2327.02
568.31	2331.64
568.66	2335.75
569.02	2339.54
569.37	2343.24
569.72	2347.74
570.08	2351.24
570.43	2354.37
570.78	2357.52
571.14	2360.25
571.49	2363.55
571.84	2367.39
572.20	2370.45
572.55	2373.81
572.90	2376.16
573.26	2379.33
573.61	2381.95
573.96	2384.38
574.31	2386.35
574.67	2388.32
575.02	2389.39
575.37	2390.85
575.72	2391.85
576.08	2393.47
576.43	2393.91
576.78	2394.73
577.13	2396.39
577.49	2397.67
577.84	2399.00
578.19	2400.56
578.54	2401.49
578.90	2402.59
579.25	2402.50
579.60	2402.68
579.95	2402.13
580.30	2402.61
580.66	2401.90
581.01	2400.37
581.36	2398.32
581.71	2397.27
582.06	2396.60
582.42	2395.99
582.77	2393.96
583.12	2392.57
583.47	2391.59
583.82	2391.25
584.17	2390.19
584.53	2388.08
584.88	2386.29
585.23	2384.54
585.58	2382.33
585.93	2380.17
586.28	2378.08
586.63	2376.04
586.98	2374.02
587.34	2372.14
587.69	2369.86
588.04	2368.09
588.39	2366.91
588.74	2364.49
589.09	2362.14
589.44	2359.07
589.79	2356.79
590.14	2355.10
590.49	2352.30
590.84	2348.65
591.19	2345.76
591.54	2342.63
591.89	2338.90
592.25	2335.81
592.60	2331.70
592.95	2327.75
593.30	2323.85
593.65	2319.48
594.00	2315.12
594.35	2312.24
594.70	2307.65
595.05	2303.06
595.40	2297.64
595.75	2292.10
596.10	2288.63
596.45	2283.71
596.80	2279.22
597.15	2274.04
597.50	2268.35
597.85	2263.55
598.19	2258.27
598.54	2252.46
598.89	2247.52
599.24	2243.02
599.59	2237.01
599.94	2231.44
600.29	2225.75
600.64	2220.01
600.99	2213.46
601.34	2208.01
601.69	2201.10
602.04	2194.83
602.39	2188.41
602.74	2182.51
603.08	2176.94
603.43	2170.55
603.78	2163.95
604.13	2157.02
604.48	2149.90
604.83	2143.69
605.18	2137.40
605.53	2130.51
605.87	2123.70
606.22	2116.81
606.57	2109.21
606.92	2101.48
607.27	2094.72
607.62	2088.14
607.96	2081.06
608.31	2074.61
608.66	2066.99
609.01	2059.42
609.36	2052.27
609.70	2044.56
610.05	2036.91
610.40	2028.71
610.75	2020.46
611.10	2012.77
611.44	2004.02
611.79	1995.26
612.14	1985.28
612.49	1974.81
612.83	1965.77
613.18	1956.66
613.53	1947.37
613.88	1937.66
614.22	1929.08
614.57	1919.13
614.92	1908.58
615.27	1898.73
615.61	1888.87
615.96	1879.32
616.31	1869.89
616.65	1860.63
617.00	1850.74
617.35	1841.12
617.70	1831.42
618.04	1821.34
618.39	1811.02
618.74	1801.31
619.08	1791.80
619.43	1783.32
619.78	1775.18
620.12	1766.42
620.47	1756.58
620.82	1746.34
621.16	1736.48
621.51	1726.42
621.85	1716.51
622.20	1706.07
622.55	1695.39
622.89	1685.36
623.24	1675.57
623.59	1665.68
623.93	1655.60
624.28	1646.02
624.62	1635.88
624.97	1625.60
625.32	1616.09
625.66	1607.37
626.01	1598.47
626.35	1589.03
626.70	1578.88
627.04	1568.69
627.39	1558.60
627.73	1549.30
628.08	1540.25
628.43	1530.77
628.77	1521.71
629.12	1512.98
629.46	1505.16
629.81	1496.63
630.15	1487.09
630.50	1477.31
630.84	1466.92
631.19	1456.97
631.53	1447.50
631.88	1437.26
632.22	1427.21
632.57	1417.75
632.91	1407.50
633.26	1397.64
633.60	1388.03
633.95	1378.75
634.29	1369.40
634.64	1360.03
634.98	1350.24
635.32	1340.93
635.67	1332.39
636.01	1322.99
636.36	1313.09
636.70	1303.52
637.05	1294.20
637.39	1285.24
637.73	1276.53
638.08	1268.87
638.42	1260.63
638.77	1251.85
639.11	1243.63
639.45	1235.83
639.80	1227.10
640.14	1218.43
640.49	1209.66
640.83	1200.93
641.17	1192.75
641.52	1184.50
641.86	1175.97
642.20	1168.00
642.55	1159.45
642.89	1150.59
643.23	1141.90
643.58	1133.83
643.92	1124.74
644.26	1116.15
644.61	1107.64
644.95	1098.95
645.29	1089.70
645.64	1080.52
645.98	1072.18
646.32	1064.22
646.66	1055.66
647.01	1047.34
647.35	1039.21
647.69	1030.75
648.04	1022.38
648.38	1013.46
648.72	1004.68
649.06	996.28
649.41	988.13
649.75	980.13
650.09	972.30
650.43	964.29
650.78	956.12
651.12	948.60
651.46	941.21
651.80	933.97
652.14	926.56
652.49	919.16
652.83	911.98
653.17	904.31
653.51	896.82
653.85	889.68
654.20	882.44
654.54	874.96
654.88	867.86
655.22	860.73
655.56	853.87
655.90	847.12
656.25	840.49
656.59	833.60
656.93	826.66
657.27	819.48
657.61	812.66
657.95	806.63
658.29	800.71
658.64	794.56
658.98	788.22
659.32	781.81
659.66	775.58
660.00	769.26
660.34	763.23
660.68	757.08
661.02	750.76
661.36	744.91
661.70	739.20
662.05	733.57
662.39	728.15
662.73	722.86
663.07	717.54
663.41	711.97
663.75	706.35
664.09	700.75
664.43	695.44
664.77	690.09
665.11	684.23
665.45	678.46
665.79	672.72
666.13	667.06
666.47	661.60
666.81	656.28
667.15	651.00
667.49	645.88
667.83	640.74
668.17	635.66
668.51	630.61
668.85	625.78
669.19	620.94
669.53	616.01
669.87	610.91
670.21	606.21
670.55	601.54
670.89	597.25
671.23	593.04
671.57	588.83
671.91	584.57
672.25	580.53
672.58	576.38
672.92	572.41
673.26	568.56
673.60	564.77
673.94	560.98
674.28	557.31
674.62	553.65
674.96	549.93
675.30	546.46
675.64	542.91
675.97	539.34
676.31	535.88
676.65	532.32
676.99	528.97
677.33	525.18
677.67	521.49
678.01	517.68
678.34	514.05
678.68	510.50
679.02	506.93
679.36	503.28
679.70	499.69
680.04	496.18
680.37	492.77
680.71	489.55
681.05	486.41
681.39	483.29
681.73	480.16
682.06	477.16
682.40	474.11
682.74	470.95
683.08	467.77
683.42	464.62
683.75	461.66
684.09	458.61
684.43	455.86
684.77	453.03
685.10	450.19
685.44	447.28
685.78	444.42
686.12	441.76
686.45	439.07
686.79	436.48
687.13	433.98
687.46	431.40
687.80	428.73
688.14	425.90
688.48	423.35
688.81	420.70
689.15	418.24
689.49	415.60
689.82	413.06
690.16	410.59
690.50	408.22
690.83	405.80
691.17	403.36
691.51	400.95
691.84	398.85
692.18	396.71
692.52	394.55
692.85	392.44
693.19	390.32
693.52	388.23
693.86	386.07
694.20	383.93
694.53	381.84
694.87	379.69
695.21	377.65
695.54	375.47
695.88	373.36
696.21	371.16
696.55	369.14
696.88	367.11
697.22	365.19
697.56	363.31
697.89	361.48
698.23	359.75
698.56	358.01
698.90	356.22
699.23	354.29
699.57	352.48
699.90	350.71
700.24	348.96
700.58	347.20
700.91	345.58
701.25	344.06
701.58	342.50
701.92	340.97
702.25	339.39
702.59	337.86
702.92	336.34
703.26	334.84
703.59	333.41
703.93	332.25
704.26	330.83
704.60	329.35
704.93	327.93
705.26	326.44
705.60	325.01
705.93	323.54
706.27	322.34
706.60	321.13
706.94	319.88
707.27	318.51
707.61	317.21
707.94	315.90
708.27	314.42
708.61	313.02
708.94	311.69
709.28	310.47
709.61	309.24
709.94	308.10
710.28	306.92
710.61	305.73
710.95	304.31
711.28	303.26
711.61	302.12
711.95	300.98
712.28	299.86
712.61	298.70
712.95	297.68
713.28	296.63
713.61	295.47
713.95	294.37
714.28	293.40
714.61	292.39
714.95	291.41
715.28	290.42
715.61	289.40
715.95	288.49
716.28	287.53
716.61	286.63
716.95	285.64
717.28	284.75
717.61	283.83
717.94	282.99
718.28	281.96
718.61	281.09
718.94	280.20
719.27	279.36
719.61	278.60
719.94	277.74
720.27	276.80
720.60	276.01
720.94	275.25
721.27	274.51
721.60	273.84
721.93	273.10
722.27	272.50
722.60	271.86
722.93	271.12
723.26	270.51
723.59	269.80
723.93	269.19
724.26	268.56
724.59	267.92
724.92	267.30
725.25	266.83
725.59	266.29
725.92	265.81
726.25	265.26
726.58	264.68
726.91	264.10
727.24	263.56
727.57	262.99
727.91	262.38
728.24	261.86
728.57	261.23
728.90	260.77
729.23	260.14
729.56	259.69
729.89	259.18
730.22	258.66
730.55	258.13
730.89	257.62
731.22	257.10
731.55	256.67
731.88	256.20
732.21	255.65
732.54	255.13
732.87	254.62
733.20	254.11
733.53	253.64
733.86	253.26
734.19	252.82
734.52	252.43
734.85	252.16
735.18	251.70
735.51	251.37
735.84	250.89
736.17	250.54
736.50	250.04
736.83	249.94
737.16	249.52
737.49	249.15
737.82	248.74
738.15	248.36
738.48	247.96
738.81	247.56
739.14	247.12
739.47	246.72
739.80	246.37
740.13	246.05
740.46	245.67
740.79	245.24
741.12	244.90
741.45	244.55
741.78	244.09
742.11	243.81
742.44	243.40
742.77	243.12
743.10	242.78
743.43	242.45
743.75	241.85
744.08	241.80
744.41	241.48
744.74	241.14
745.07	240.78
745.40	240.51
745.73	240.28
746.06	239.99
746.39	239.70
746.71	239.35
747.04	239.04
747.37	238.74
747.70	238.48
748.03	238.16
748.36	237.86
748.68	237.57
749.01	237.20
749.34	236.96
749.67	236.71
750.00	236.47
750.33	236.34
750.65	236.12
750.98	235.56
751.31	235.29
751.64	235.06
751.97	234.91
752.29	234.62
752.62	234.31
752.95	234.06
753.28	233.81
753.60	233.58
753.93	233.44
754.26	233.22
754.59	232.96
754.91	232.71
755.24	232.54
755.57	232.30
755.90	232.10
756.22	231.87
756.55	231.62
756.88	231.33
757.20	231.00
757.53	230.78
757.86	230.58
758.19	230.41
758.51	230.19
758.84	229.91
759.17	229.69
759.49	229.51
759.82	229.44
760.15	229.27
760.47	229.10
760.80	228.81
761.13	228.69
761.45	228.48
761.78	228.35
762.11	228.15
762.43	227.98
762.76	227.83
763.08	227.67
763.41	227.54
763.74	227.41
764.06	227.23
764.39	227.06
764.71	226.93
765.04	226.74
765.37	226.61
765.69	226.49
766.02	226.39
766.34	226.24
766.67	226.03
767.00	225.97
767.32	225.94
767.65	225.95
767.97	225.80
768.30	225.71
768.62	225.61
768.95	225.45
769.27	225.33
769.60	225.22
769.92	225.07
770.25	224.91
770.57	224.77
770.90	224.67
771.22	224.55
771.55	224.44
771.87	224.38
772.20	224.27
772.52	224.35
772.85	224.49
773.17	224.40
773.50	224.31
773.82	224.14
774.15	223.92
774.47	223.67
774.80	223.55
775.12	223.44
775.45	223.33
775.77	223.27
776.09	223.22
776.42	223.12
776.74	223.11
777.07	222.99
777.39	222.91
777.72	222.85
778.04	222.79
778.36	222.69
778.69	222.57
779.01	222.55
779.33	222.27
779.66	221.93
779.98	221.83
780.31	221.76
780.63	221.77
780.95	221.76
781.28	221.71
781.60	221.61
781.92	221.56
782.25	221.51
782.57	221.46
782.89	221.37
783.22	221.30
783.54	221.20
783.86	221.18
784.19	221.10
784.51	221.09
784.83	221.01
785.16	220.98
785.48	220.94
785.80	220.82
786.12	220.79
786.45	220.73
786.77	220.69
787.09	220.60
787.42	220.45
787.74	220.39
788.06	220.35
788.38	220.28
788.71	220.23
789.03	220.18
789.35	220.13
789.67	220.06
789.99	220.01
790.32	219.93
790.64	219.88
790.96	220.00
791.28	219.87
791.61	219.78
791.93	219.72
792.25	219.69
792.57	219.79
792.89	219.71
793.21	219.65
793.54	219.61
793.86	219.58
794.18	219.56
794.50	219.47
794.82	219.40
795.14	219.43
795.47	219.36
795.79	219.29
796.11	219.20
796.43	219.14
796.75	219.08
797.07	219.04
797.39	219.00
797.71	218.82
798.04	218.79
798.36	218.78
798.68	218.75
799.00	218.72
799.32	218.58
799.64	218.58
799.96	218.56
800.28	218.54
800.60	218.46
800.92	218.45
801.24	218.42
801.56	218.42
801.89	218.33
802.21	218.36
802.53	218.30
802.85	218.30
803.17	218.42
803.49	218.38
803.81	218.35
804.13	218.33
804.45	218.29
804.77	218.28
805.09	218.25
805.41	218.18
805.73	218.10
806.05	218.07
806.37	218.02
806.69	217.97
807.01	217.91
807.33	217.89
807.65	217.80
807.97	217.89
808.28	217.83
808.60	217.81
808.92	217.75
809.24	217.85
809.56	217.80
809.88	217.68
810.20	217.65
810.52	217.67
810.84	217.58
811.16	217.53
811.48	217.51
811.80	217.55
812.12	217.51
812.43	217.53
812.75	217.51
813.07	217.47
813.39	217.44
813.71	217.41
814.03	217.37
814.35	217.34
814.67	217.21
814.98	217.17
815.30	217.14
815.62	217.10
815.94	216.92
816.26	216.93
816.58	216.86
816.89	216.86
817.21	216.77
817.53	216.80
817.85	216.78
818.17	216.74
818.48	216.66
818.80	216.70
819.12	216.65
819.44	216.58
819.76	216.55
820.07	216.56
820.39	216.52
820.71	216.54
821.03	216.51
821.34	216.51
821.66	216.52
821.98	216.51
822.30	216.47
822.61	216.61
822.93	216.57
823.25	216.55
823.57	216.54
823.88	216.56
824.20	216.54
824.52	216.58
824.83	216.59
825.15	216.55
825.47	216.54
825.79	216.53
826.10	216.48
826.42	216.48
826.74	216.46
827.05	216.47
827.37	216.49
827.69	216.55
828.00	216.54
828.32	216.54
828.64	216.53
828.95	216.64
829.27	216.54
829.58	216.55
829.90	216.58
830.22	216.55
830.53	216.50
830.85	216.45
831.17	216.37
831.48	216.34
831.80	216.33
832.11	216.30
832.43	216.32
832.75	216.33
833.06	216.43
833.38	216.37
833.69	216.37
834.01	216.37
834.32	216.29
834.64	216.26
834.96	216.23
835.27	216.21
835.59	216.13
835.90	216.10
836.22	216.08
836.53	216.03
836.85	216.00
837.16	216.21
837.48	216.19
837.79	216.27
838.11	216.25
838.42	216.26
838.74	216.28
839.05	216.23
839.37	216.22
839.68	216.06
840.00	216.05
840.31	216.08
840.63	216.04
840.94	216.03
841.26	215.98
841.57	216.00
841.88	216.00
842.20	215.95
842.51	215.91
842.83	215.91
843.14	216.13
843.46	216.16
843.77	216.04
844.08	216.04
844.40	215.99
844.71	215.96
845.03	215.91
845.34	215.88
845.65	215.88
845.97	215.90
846.28	215.94
846.60	215.99
846.91	215.91
847.22	215.90
847.54	215.95
847.85	215.98
848.16	215.94
848.48	215.92
848.79	216.04
849.10	216.07
849.42	216.09
849.73	215.89
850.04	215.83
850.36	215.75
850.67	215.79
850.98	215.79
851.30	215.83
851.61	215.85
851.92	215.83
852.23	215.89
852.55	215.90
852.86	215.90
853.17	215.89
853.49	215.96
853.80	215.98
854.11	215.99
854.42	216.01
854.74	215.98
855.05	215.99
855.36	215.84
855.67	215.81
855.99	215.80
856.30	216.00
856.61	216.03
856.92	216.00
857.23	215.96
857.55	215.90
857.86	215.89
858.17	215.88
858.48	215.87
858.79	215.83
859.11	215.82
859.42	215.78
859.73	215.74
860.04	215.68
860.35	215.64
860.66	215.57
860.98	215.56
861.29	215.60
861.60	215.58
861.91	215.62
862.22	215.60
862.53	215.54
862.84	215.31
863.16	215.32
863.47	215.31
863.78	215.28
864.09	215.33
864.40	215.35
864.71	215.35
865.02	215.38
865.33	215.35
865.64	215.28
865.95	215.29
866.27	215.42
866.58	215.45
866.89	215.48
867.20	215.47
867.51	215.41
867.82	215.40
868.13	215.48
868.44	215.42
868.75	215.49
869.06	215.49
869.37	215.53
869.68	215.46
869.99	215.51
870.30	215.56
870.61	215.56
870.92	215.53
871.23	215.53
871.54	215.52
871.85	215.57
872.16	215.61
872.47	215.59
872.78	215.47
873.09	215.48
873.40	215.42
873.71	215.42
874.02	215.43
874.33	215.40
874.64	215.31
874.95	215.35
875.26	215.29
875.56	215.32
875.87	215.31
876.18	215.34
876.49	215.50
876.80	215.46
877.11	215.43
877.42	215.41
877.73	215.40
878.04	215.36
878.35	215.35
878.66	215.36
878.96	215.35
879.27	215.31
879.58	215.28
879.89	215.28
880.20	215.37
880.51	215.38
880.82	215.38
881.12	215.42
881.43	215.38
881.74	215.39
882.05	215.37
882.36	215.39
882.67	215.38
882.97	215.19
883.28	215.21
883.59	215.19
883.90	215.20
884.21	215.24
884.51	215.25
884.82	215.21
885.13	215.19
885.44	215.20
885.74	215.22
886.05	215.18
886.36	215.21
886.67	215.11
886.98	215.20
887.28	215.24
887.59	215.23
887.90	215.22
888.20	215.21
888.51	215.21
888.82	215.19
889.13	215.24
889.43	215.36
889.74	215.33
890.05	215.34
890.35	215.35
890.66	215.31
890.97	215.32
891.28	215.34
891.58	215.35
891.89	215.34
892.20	215.35
892.50	215.37
892.81	215.34
893.12	215.36
893.42	215.23
893.73	215.22
894.04	215.21
894.34	215.22
894.65	215.21
894.95	215.22
895.26	215.21
895.57	215.28
895.87	215.07
896.18	215.10
896.48	215.09
896.79	215.10
897.10	215.11
897.40	215.10
897.71	215.09
898.01	215.06
898.32	215.09
898.63	215.07
898.93	215.09
899.24	215.08
899.54	215.08
899.85	215.10
900.15	215.07
900.46	215.09
900.76	215.12
901.07	215.13
901.38	215.14
901.68	215.16
901.99	215.07
902.29	215.11
902.60	215.11
902.90	215.12
903.21	215.10
903.51	215.07
903.82	215.13
904.12	215.12
904.43	215.13
904.73	215.11
905.03	215.13
905.34	215.27
905.64	215.26
905.95	215.25
906.25	215.24
906.56	215.23
906.86	215.23
907.17	215.22
907.47	215.23
907.77	215.19
908.08	215.14
908.38	215.12
908.69	215.16
908.99	215.15
909.30	215.15
909.60	215.14
909.90	215.18
910.21	215.13
910.51	215.13
910.81	215.15
911.12	215.18
911.42	215.16
911.73	214.99
912.03	215.00
912.33	215.04
912.64	215.02
912.94	215.01
913.24	214.98
913.55	214.94
913.85	214.93
914.15	214.96
914.46	215.00
914.76	215.01
915.06	215.01
915.37	214.99
915.67	214.99
915.97	214.99
916.27	214.94
916.58	214.95
916.88	214.95
917.18	214.95
917.49	215.05
917.79	215.01
918.09	215.02
918.39	215.11
918.70	215.10
919.00	215.08
919.30	215.18
919.60	215.16
919.91	215.15
920.21	215.15
920.51	215.12
920.81	215.08
921.12	215.10
921.42	215.09
921.72	215.11
922.02	215.13
922.32	215.15
922.63	215.18
922.93	215.26
923.23	215.25
923.53	215.21
923.83	215.08
924.13	215.16
924.44	215.15
924.74	215.15
925.04	215.21
925.34	215.27
925.64	215.19
925.94	215.20
926.24	215.29
926.55	215.25
926.85	215.29
927.15	215.30
927.45	215.29
927.75	215.26
928.05	215.25
928.35	215.21
928.65	215.27
928.95	215.26
929.26	215.14
929.56	215.17
929.86	215.19
930.16	215.18
930.46	215.13
930.76	215.14
931.06	215.05
931.36	214.95
931.66	214.96
931.96	214.95
932.26	214.96
932.56	214.88
932.86	214.91
933.16	214.92
933.46	214.91
933.76	214.87
934.06	214.93
934.36	215.00
934.66	214.99
934.96	214.94
935.26	214.94
935.56	214.99
935.86	214.94
936.16	214.92
936.46	214.95
936.76	214.95
937.06	214.94
937.36	214.97
937.66	214.99
937.96	214.98
938.26	214.99
938.56	214.95
938.86	214.97
939.16	215.02
939.46	215.00
939.76	215.03
940.06	214.99
940.35	214.96
940.65	214.85
940.95	214.90
941.25	214.85
941.55	214.81
941.85	214.83
942.15	214.88
942.45	214.92
942.75	214.87
943.04	214.86
943.34	214.89
943.64	214.86
943.94	214.84
944.24	214.84
944.54	214.84
944.84	214.87
945.13	214.86
945.43	214.81
945.73	214.84
946.03	214.82
946.33	214.84
946.62	214.82
946.92	214.82
947.22	214.82
947.52	214.86
947.82	214.89
948.11	214.86
948.41	214.83
948.71	214.79
949.01	214.80
949.31	214.80
949.60	214.76
949.90	214.80
950.20	214.79
950.50	214.78
950.79	214.75
951.09	214.77
951.39	214.78
951.69	214.78
951.98	214.79
952.28	214.78
952.58	214.79
952.87	214.78
953.17	214.82
953.47	214.79
953.76	214.79
954.06	214.74
954.36	214.72
954.66	214.72
954.95	214.78
955.25	214.80
955.55	214.81
955.84	214.78
956.14	214.79
956.44	214.80
956.73	214.75
957.03	214.77
957.32	214.73
957.62	214.73
957.92	214.77
958.21	214.75
958.51	215.02
958.81	215.04
959.10	215.04
959.40	215.07
959.69	215.07
959.99	215.10
960.29	215.13
960.58	215.14
960.88	215.20
961.17	215.15
961.47	215.17
961.76	215.15
962.06	215.23
962.36	215.19
962.65	215.21
962.95	215.25
963.24	215.21
963.54	215.26
963.83	215.27
964.13	215.22
964.42	215.14
964.72	214.94
965.01	214.93
965.31	214.94
965.60	214.91
965.90	215.05
966.19	215.00
966.49	214.99
966.78	214.96
967.08	214.95
967.37	214.97
967.67	214.92
967.96	215.00
968.26	214.97
968.55	215.01
968.85	215.01
969.14	215.01
969.43	215.02
969.73	214.98
970.02	214.96
970.32	214.97
970.61	215.00
970.91	214.94
971.20	214.94
971.49	214.92
971.79	214.92
972.08	214.78
972.38	214.80
972.67	214.79
972.96	214.83
973.26	214.76
973.55	214.85
973.85	214.84
974.14	214.82
974.43	214.81
974.73	214.76
975.02	214.73
975.31	214.71
975.61	214.73
975.90	214.73
976.19	214.69
976.49	214.69
976.78	214.72
977.07	214.73
977.37	214.73
977.66	214.77
977.95	214.73
978.24	214.75
978.54	214.77
978.83	214.78
979.12	214.75
979.42	214.79
979.71	214.70
980.00	214.70
980.29	214.69
980.59	214.66
980.88	214.69
981.17	214.71
981.46	214.68
981.76	214.68
982.05	214.74
982.34	214.80
982.63	214.83
982.93	214.81
983.22	214.84
983.51	214.84
983.80	214.84
984.09	214.89
984.39	214.87
984.68	214.82
984.97	214.85
985.26	214.86
985.55	214.86
985.85	214.85
986.14	214.91
986.43	214.95
986.72	214.96
987.01	214.91
987.30	214.90
987.59	214.91
987.89	214.92
988.18	214.84
988.47	214.81
988.76	214.81
989.05	214.81
989.34	214.79
989.63	214.85
989.92	214.82
990.22	214.78
990.51	214.79
990.80	214.77
991.09	214.77
991.38	214.78
991.67	214.75
991.96	214.74
992.25	214.72
992.54	214.64
992.83	214.62
993.12	214.62
993.41	214.63
993.70	214.71
993.99	214.74
994.28	214.78
994.58	214.81
994.87	214.77
995.16	214.77
995.45	214.75
995.74	214.66
996.03	214.71
996.32	214.73
996.61	214.78
996.90	214.83
997.19	214.79
997.48	214.78
997.77	214.78
998.06	214.76
998.34	214.72
998.63	214.72
998.92	214.73
999.21	214.80
999.50	214.83
999.79	214.76
1000.08	214.73
1000.37	214.74
1000.66	214.70
1000.95	214.74
1001.24	214.71
1001.53	214.72
1001.82	214.73
1002.11	214.67
1002.40	214.69
1002.68	214.71
1002.97	214.85
1003.26	214.83
1003.55	214.81
1003.84	214.83
1004.13	214.91
1004.42	214.92
1004.71	214.94
1004.99	214.96
1005.28	215.02
1005.57	215.00
1005.86	215.00
1006.15	214.98
1006.44	214.95
1006.72	214.97
1007.01	214.95
1007.30	214.99
1007.59	214.99
1007.88	214.98
1008.17	215.03
1008.45	215.01
1008.74	214.95
1009.03	214.86
1009.32	214.85
1009.60	214.85
1009.89	214.84
1010.18	214.72
1010.47	214.71
1010.76	214.71
1011.04	214.69
1011.33	214.67
1011.62	214.70
1011.91	214.71
1012.19	214.73
1012.48	214.75
1012.77	214.74
1013.05	214.84
1013.34	214.83
1013.63	214.82
1013.92	214.83
1014.20	214.78
1014.49	214.77
1014.78	214.80
1015.06	214.74
1015.35	214.79
1015.64	214.80
1015.92	214.85
1016.21	214.91
1016.50	214.93
1016.78	214.95
1017.07	214.98
1017.36	214.92
1017.64	214.86
1017.93	214.86
1018.22	214.86
1018.50	214.84
1018.79	214.83
1019.08	214.72
1019.36	214.75
1019.65	214.72
1019.93	214.78
1020.22	214.82
1020.51	214.95
1020.79	214.89
1021.08	214.64
1021.36	214.31
1021.65	214.66
1021.94	214.45
1022.22	215.05
1022.51	214.10
1022.79	215.91
1023.08	215.11
1023.36	217.52
1023.65	213.92
>>>>>End Processed Spectral Data<<<<<
