SpectraSuite Data File
++++++++++++++++++++++++++++++++++++
Date: Tue Jan 29 16:01:27 EST 2013
User: group
Dark Spectrum Present: No
Reference Spectrum Present: No
Number of Sampled Component Spectra: 1
Spectrometers: USB2E7196
Integration Time (usec): 65000 (USB2E7196)
Spectra Averaged: 100 (USB2E7196)
Boxcar Smoothing: 10 (USB2E7196)
Correct for Electrical Dark: No (USB2E7196)
Strobe/Lamp Enabled: No (USB2E7196)
Correct for Detector Non-linearity: No (USB2E7196)
Correct for Stray Light: No (USB2E7196)
Number of Pixels in Processed Spectrum: 2048
>>>>>Begin Processed Spectral Data<<<<<
339.09	0.00
339.48	202.86
339.86	203.85
340.24	205.47
340.63	207.40
341.01	211.70
341.39	210.59
341.78	211.52
342.16	213.36
342.54	213.65
342.93	202.23
343.31	212.43
343.69	212.97
344.07	213.44
344.46	213.89
344.84	214.28
345.22	214.46
345.60	214.68
345.99	214.85
346.37	214.93
346.75	215.02
347.13	215.07
347.52	215.11
347.90	215.25
348.28	215.24
348.66	215.31
349.05	215.28
349.43	215.32
349.81	215.39
350.19	215.45
350.57	215.49
350.96	215.59
351.34	215.70
351.72	215.81
352.10	215.93
352.48	215.99
352.87	216.03
353.25	216.07
353.63	216.14
354.01	216.21
354.39	216.26
354.77	216.32
355.15	216.46
355.54	216.52
355.92	216.51
356.30	216.59
356.68	216.78
357.06	216.84
357.44	216.88
357.82	216.91
358.20	216.98
358.58	217.04
358.97	217.09
359.35	217.15
359.73	217.23
360.11	217.28
360.49	217.33
360.87	217.38
361.25	217.43
361.63	217.54
362.01	217.61
362.39	217.69
362.77	217.74
363.15	217.74
363.53	217.74
363.91	217.78
364.29	217.80
364.67	217.59
365.05	217.62
365.43	217.63
365.81	217.67
366.19	217.77
366.57	217.85
366.95	217.85
367.33	217.80
367.71	217.81
368.09	217.83
368.47	217.81
368.85	217.78
369.23	217.83
369.61	217.75
369.99	217.78
370.37	217.74
370.75	217.80
371.13	217.76
371.51	217.72
371.89	217.70
372.27	217.65
372.65	217.65
373.03	217.61
373.41	217.56
373.78	217.53
374.16	217.37
374.54	217.29
374.92	217.21
375.30	217.21
375.68	217.15
376.06	217.12
376.44	217.08
376.82	217.05
377.19	216.98
377.57	216.94
377.95	216.82
378.33	216.79
378.71	216.65
379.09	216.61
379.47	216.58
379.84	216.51
380.22	216.48
380.60	216.40
380.98	216.39
381.36	216.35
381.73	216.27
382.11	216.30
382.49	216.26
382.87	216.20
383.25	216.16
383.62	216.33
384.00	216.28
384.38	216.23
384.76	216.25
385.13	216.28
385.51	216.22
385.89	216.20
386.27	216.18
386.64	216.18
387.02	216.14
387.40	216.13
387.78	216.17
388.15	216.15
388.53	216.15
388.91	216.12
389.29	216.10
389.66	216.12
390.04	216.09
390.42	216.11
390.79	216.15
391.17	216.14
391.55	215.91
391.92	215.90
392.30	215.96
392.68	215.91
393.05	215.89
393.43	215.94
393.81	215.92
394.18	215.87
394.56	215.86
394.94	215.93
395.31	215.90
395.69	215.95
396.06	216.01
396.44	216.02
396.82	216.01
397.19	216.16
397.57	216.14
397.95	216.20
398.32	216.18
398.70	216.19
399.07	216.32
399.45	216.36
399.82	216.41
400.20	216.43
400.58	216.51
400.95	216.50
401.33	216.58
401.70	216.84
402.08	216.95
402.45	217.05
402.83	217.16
403.20	217.26
403.58	217.32
403.95	217.46
404.33	217.60
404.71	217.78
405.08	218.05
405.46	218.22
405.83	218.41
406.21	218.58
406.58	218.80
406.96	218.97
407.33	219.24
407.70	219.53
408.08	219.95
408.45	220.33
408.83	220.70
409.20	221.01
409.58	221.23
409.95	221.69
410.33	222.16
410.70	222.59
411.08	223.11
411.45	223.71
411.82	224.28
412.20	224.95
412.57	225.74
412.95	226.26
413.32	227.05
413.69	227.85
414.07	228.75
414.44	229.74
414.82	230.76
415.19	231.87
415.56	233.02
415.94	234.18
416.31	235.49
416.68	236.84
417.06	238.41
417.43	239.89
417.81	241.56
418.18	243.27
418.55	245.16
418.93	247.12
419.30	249.13
419.67	251.26
420.04	253.42
420.42	255.72
420.79	258.45
421.16	261.19
421.54	263.99
421.91	266.86
422.28	269.84
422.66	273.00
423.03	276.16
423.40	279.37
423.77	282.81
424.15	286.37
424.52	290.10
424.89	294.10
425.26	298.08
425.64	301.81
426.01	305.93
426.38	310.18
426.75	314.60
427.13	319.17
427.50	323.92
427.87	328.97
428.24	333.99
428.61	338.81
428.99	344.08
429.36	349.85
429.73	355.54
430.10	361.20
430.47	367.09
430.85	373.15
431.22	379.63
431.59	386.51
431.96	393.03
432.33	400.27
432.70	407.25
433.08	415.47
433.45	423.28
433.82	430.94
434.19	439.61
434.56	448.00
434.93	456.03
435.30	464.06
435.68	472.85
436.05	481.46
436.42	490.01
436.79	497.86
437.16	506.31
437.53	515.22
437.90	524.06
438.27	532.60
438.64	541.57
439.01	549.83
439.38	557.12
439.75	564.20
440.13	572.27
440.50	579.92
440.87	586.10
441.24	592.47
441.61	599.53
441.98	604.65
442.35	610.70
442.72	616.77
443.09	622.53
443.46	626.11
443.83	628.53
444.20	630.66
444.57	633.68
444.94	635.03
445.31	636.47
445.68	637.81
446.05	638.44
446.42	637.51
446.79	636.54
447.16	635.48
447.53	634.72
447.90	631.50
448.27	628.31
448.64	623.77
449.01	620.54
449.37	614.95
449.74	609.42
450.11	602.77
450.48	595.64
450.85	588.45
451.22	582.18
451.59	576.33
451.96	570.70
452.33	563.14
452.70	556.29
453.07	548.04
453.43	539.69
453.80	531.68
454.17	524.06
454.54	516.80
454.91	508.94
455.28	501.29
455.65	494.22
456.02	487.06
456.38	481.05
456.75	473.52
457.12	467.24
457.49	461.02
457.86	455.10
458.23	449.93
458.59	444.29
458.96	438.58
459.33	433.47
459.70	428.28
460.07	424.23
460.43	419.58
460.80	415.22
461.17	411.43
461.54	407.39
461.91	403.54
462.27	399.61
462.64	396.33
463.01	392.71
463.38	389.09
463.74	385.55
464.11	382.39
464.48	379.61
464.85	376.60
465.21	374.25
465.58	371.74
465.95	368.80
466.32	366.28
466.68	363.76
467.05	361.27
467.42	358.89
467.78	356.27
468.15	353.81
468.52	351.97
468.88	349.53
469.25	347.45
469.62	345.71
469.98	343.83
470.35	342.09
470.72	340.42
471.08	338.77
471.45	337.36
471.82	335.90
472.18	334.32
472.55	333.18
472.92	331.87
473.28	330.70
473.65	329.55
474.02	328.50
474.38	327.67
474.75	326.97
475.11	326.19
475.48	325.69
475.85	325.28
476.21	324.81
476.58	324.52
476.94	324.31
477.31	324.05
477.67	323.82
478.04	323.68
478.41	323.70
478.77	323.85
479.14	323.80
479.50	324.03
479.87	324.36
480.23	324.68
480.60	324.97
480.96	325.24
481.33	325.90
481.69	326.49
482.06	327.04
482.42	327.54
482.79	328.16
483.15	328.96
483.52	329.97
483.88	330.95
484.25	331.92
484.61	332.94
484.98	333.96
485.34	335.29
485.71	336.67
486.07	338.08
486.44	339.39
486.80	340.99
487.17	342.59
487.53	344.41
487.90	346.32
488.26	348.35
488.62	350.54
488.99	352.52
489.35	354.68
489.72	357.03
490.08	359.49
490.44	362.06
490.81	364.73
491.17	367.40
491.54	370.36
491.90	373.40
492.26	376.59
492.63	380.09
492.99	383.63
493.36	387.34
493.72	391.23
494.08	395.25
494.45	399.45
494.81	403.78
495.17	408.21
495.54	412.85
495.90	417.62
496.26	422.54
496.63	427.72
496.99	433.10
497.35	438.67
497.72	444.48
498.08	450.39
498.44	456.47
498.80	462.86
499.17	469.25
499.53	475.92
499.89	482.80
500.26	489.68
500.62	496.69
500.98	504.07
501.34	511.53
501.71	519.25
502.07	527.01
502.43	535.05
502.79	543.17
503.16	551.53
503.52	560.12
503.88	568.74
504.24	577.67
504.60	586.68
504.97	595.95
505.33	605.25
505.69	615.06
506.05	624.90
506.41	634.70
506.78	644.77
507.14	654.98
507.50	665.43
507.86	676.10
508.22	686.88
508.59	697.48
508.95	708.45
509.31	719.72
509.67	731.14
510.03	742.44
510.39	754.10
510.75	765.74
511.12	777.60
511.48	789.71
511.84	801.93
512.20	814.22
512.56	826.72
512.92	839.43
513.28	851.98
513.64	864.64
514.00	877.38
514.37	890.30
514.73	903.28
515.09	916.10
515.45	928.93
515.81	941.83
516.17	955.13
516.53	968.16
516.89	981.10
517.25	994.13
517.61	1007.59
517.97	1020.91
518.33	1034.12
518.69	1047.52
519.05	1061.02
519.41	1074.43
519.77	1088.08
520.13	1101.17
520.49	1114.11
520.85	1127.31
521.21	1140.47
521.57	1153.96
521.93	1166.87
522.29	1180.56
522.65	1194.04
523.01	1207.37
523.37	1220.25
523.73	1233.28
524.09	1246.27
524.45	1259.46
524.81	1272.69
525.17	1285.76
525.53	1298.67
525.89	1311.70
526.25	1324.55
526.61	1337.08
526.97	1350.04
527.33	1362.68
527.68	1375.89
528.04	1389.05
528.40	1401.84
528.76	1414.85
529.12	1427.43
529.48	1440.36
529.84	1452.25
530.20	1464.74
530.56	1477.15
530.91	1490.07
531.27	1502.65
531.63	1515.30
531.99	1527.77
532.35	1539.83
532.71	1551.97
533.07	1564.49
533.42	1576.33
533.78	1588.11
534.14	1600.03
534.50	1610.88
534.86	1622.25
535.21	1632.87
535.57	1644.03
535.93	1655.07
536.29	1665.93
536.65	1677.14
537.00	1687.84
537.36	1698.90
537.72	1709.50
538.08	1720.37
538.44	1731.08
538.79	1741.73
539.15	1752.18
539.51	1762.58
539.87	1773.48
540.22	1784.03
540.58	1794.69
540.94	1805.23
541.29	1815.18
541.65	1824.59
542.01	1834.79
542.37	1844.52
542.72	1854.41
543.08	1863.91
543.44	1874.00
543.79	1883.04
544.15	1892.20
544.51	1901.88
544.87	1911.42
545.22	1920.32
545.58	1929.07
545.94	1937.59
546.29	1945.86
546.65	1953.98
547.01	1961.85
547.36	1969.41
547.72	1976.79
548.07	1984.12
548.43	1991.64
548.79	1999.31
549.14	2007.20
549.50	2015.35
549.86	2022.78
550.21	2030.00
550.57	2037.45
550.92	2044.23
551.28	2051.53
551.64	2058.48
551.99	2065.81
552.35	2072.88
552.70	2079.57
553.06	2086.03
553.41	2092.13
553.77	2098.46
554.13	2104.62
554.48	2111.71
554.84	2118.46
555.19	2124.84
555.55	2131.16
555.90	2137.36
556.26	2143.95
556.61	2149.73
556.97	2154.47
557.32	2160.40
557.68	2166.66
558.03	2172.39
558.39	2177.50
558.74	2183.24
559.10	2188.86
559.45	2194.41
559.81	2199.95
560.16	2205.47
560.52	2211.49
560.87	2217.95
561.23	2223.97
561.58	2230.65
561.94	2235.64
562.29	2240.51
562.64	2246.76
563.00	2252.20
563.35	2257.93
563.71	2263.94
564.06	2269.71
564.42	2275.79
564.77	2280.87
565.12	2285.97
565.48	2291.23
565.83	2296.91
566.19	2302.57
566.54	2307.99
566.89	2312.52
567.25	2317.06
567.60	2322.77
567.96	2327.89
568.31	2332.53
568.66	2336.72
569.02	2340.65
569.37	2344.52
569.72	2348.93
570.08	2352.44
570.43	2355.86
570.78	2358.87
571.14	2361.36
571.49	2364.63
571.84	2368.31
572.20	2371.26
572.55	2374.49
572.90	2376.62
573.26	2379.59
573.61	2382.09
573.96	2384.32
574.31	2386.52
574.67	2388.60
575.02	2389.73
575.37	2391.13
575.72	2392.08
576.08	2393.84
576.43	2394.29
576.78	2395.22
577.13	2397.21
577.49	2398.45
577.84	2399.89
578.19	2401.52
578.54	2402.51
578.90	2403.75
579.25	2403.64
579.60	2403.85
579.95	2403.43
580.30	2404.13
580.66	2403.48
581.01	2402.03
581.36	2400.18
581.71	2399.00
582.06	2398.12
582.42	2397.50
582.77	2395.69
583.12	2394.29
583.47	2393.21
583.82	2392.70
584.17	2391.53
584.53	2389.43
584.88	2387.52
585.23	2385.56
585.58	2383.57
585.93	2381.40
586.28	2379.35
586.63	2377.32
586.98	2375.35
587.34	2373.72
587.69	2371.50
588.04	2369.73
588.39	2368.63
588.74	2366.30
589.09	2363.94
589.44	2361.06
589.79	2358.74
590.14	2357.18
590.49	2354.51
590.84	2350.95
591.19	2348.23
591.54	2345.08
591.89	2341.26
592.25	2338.43
592.60	2334.52
592.95	2330.49
593.30	2326.59
593.65	2322.14
594.00	2318.10
594.35	2315.20
594.70	2310.54
595.05	2305.97
595.40	2300.71
595.75	2295.09
596.10	2291.53
596.45	2286.78
596.80	2282.22
597.15	2277.07
597.50	2271.26
597.85	2266.37
598.19	2261.22
598.54	2255.57
598.89	2250.66
599.24	2246.23
599.59	2240.02
599.94	2234.49
600.29	2228.82
600.64	2223.12
600.99	2216.67
601.34	2211.25
601.69	2204.34
602.04	2198.06
602.39	2191.65
602.74	2185.79
603.08	2180.44
603.43	2173.98
603.78	2167.37
604.13	2160.37
604.48	2153.16
604.83	2147.15
605.18	2140.97
605.53	2134.11
605.87	2126.99
606.22	2120.26
606.57	2112.42
606.92	2104.74
607.27	2097.74
607.62	2091.14
607.96	2084.09
608.31	2077.50
608.66	2069.76
609.01	2062.26
609.36	2055.19
609.70	2047.57
610.05	2039.94
610.40	2031.72
610.75	2023.51
611.10	2015.92
611.44	2007.34
611.79	1998.74
612.14	1988.72
612.49	1978.36
612.83	1969.16
613.18	1960.26
613.53	1950.95
613.88	1941.59
614.22	1932.98
614.57	1923.02
614.92	1912.53
615.27	1902.56
615.61	1892.75
615.96	1883.02
616.31	1873.50
616.65	1864.21
617.00	1854.22
617.35	1844.35
617.70	1834.63
618.04	1824.50
618.39	1813.91
618.74	1804.20
619.08	1794.71
619.43	1785.97
619.78	1777.64
620.12	1768.95
620.47	1758.94
620.82	1748.64
621.16	1738.70
621.51	1728.75
621.85	1718.98
622.20	1708.29
622.55	1697.55
622.89	1687.49
623.24	1677.77
623.59	1668.01
623.93	1657.84
624.28	1648.16
624.62	1637.91
624.97	1627.52
625.32	1617.98
625.66	1609.35
626.01	1600.39
626.35	1590.93
626.70	1580.67
627.04	1570.52
627.39	1560.42
627.73	1551.20
628.08	1542.15
628.43	1532.53
628.77	1523.23
629.12	1514.34
629.46	1506.56
629.81	1498.24
630.15	1488.61
630.50	1478.81
630.84	1468.31
631.19	1458.34
631.53	1448.87
631.88	1438.78
632.22	1428.78
632.57	1419.27
632.91	1409.02
633.26	1399.15
633.60	1389.54
633.95	1380.21
634.29	1370.84
634.64	1361.40
634.98	1351.54
635.32	1342.34
635.67	1333.73
636.01	1324.48
636.36	1314.70
636.70	1305.22
637.05	1295.73
637.39	1286.81
637.73	1278.09
638.08	1270.52
638.42	1262.15
638.77	1253.45
639.11	1245.11
639.45	1237.29
639.80	1228.57
640.14	1219.88
640.49	1211.09
640.83	1202.23
641.17	1194.22
641.52	1185.83
641.86	1177.26
642.20	1169.39
642.55	1160.72
642.89	1151.95
643.23	1143.22
643.58	1135.11
643.92	1126.07
644.26	1117.40
644.61	1108.94
644.95	1100.24
645.29	1090.91
645.64	1081.79
645.98	1073.41
646.32	1065.52
646.66	1056.95
647.01	1048.59
647.35	1040.35
647.69	1031.82
648.04	1023.50
648.38	1014.50
648.72	1005.85
649.06	997.41
649.41	989.19
649.75	981.13
650.09	973.16
650.43	965.14
650.78	956.87
651.12	949.19
651.46	941.83
651.80	934.62
652.14	927.18
652.49	919.70
652.83	912.45
653.17	904.69
653.51	897.12
653.85	889.86
654.20	882.68
654.54	875.20
654.88	868.15
655.22	861.02
655.56	854.12
655.90	847.31
656.25	840.68
656.59	833.75
656.93	826.77
657.27	819.70
657.61	812.87
657.95	806.84
658.29	800.96
658.64	794.86
658.98	788.41
659.32	781.92
659.66	775.76
660.00	769.47
660.34	763.54
660.68	757.46
661.02	751.21
661.36	745.29
661.70	739.58
662.05	733.94
662.39	728.45
662.73	723.16
663.07	717.89
663.41	712.33
663.75	706.69
664.09	701.15
664.43	695.81
664.77	690.43
665.11	684.61
665.45	678.76
665.79	673.00
666.13	667.45
666.47	662.04
666.81	656.77
667.15	651.44
667.49	646.26
667.83	641.01
668.17	635.86
668.51	630.87
668.85	626.06
669.19	621.21
669.53	616.27
669.87	611.23
670.21	606.48
670.55	601.74
670.89	597.42
671.23	593.16
671.57	588.82
671.91	584.54
672.25	580.53
672.58	576.41
672.92	572.37
673.26	568.44
673.60	564.62
673.94	560.69
674.28	557.09
674.62	553.37
674.96	549.79
675.30	546.28
675.64	542.56
675.97	538.98
676.31	535.41
676.65	531.84
676.99	528.37
677.33	524.62
677.67	520.99
678.01	517.14
678.34	513.49
678.68	509.99
679.02	506.40
679.36	502.71
679.70	499.19
680.04	495.75
680.37	492.33
680.71	489.06
681.05	485.95
681.39	482.81
681.73	479.70
682.06	476.69
682.40	473.59
682.74	470.49
683.08	467.34
683.42	464.30
683.75	461.36
684.09	458.41
684.43	455.63
684.77	452.76
685.10	449.96
685.44	447.14
685.78	444.37
686.12	441.74
686.45	439.06
686.79	436.40
687.13	433.91
687.46	431.34
687.80	428.71
688.14	425.93
688.48	423.37
688.81	420.73
689.15	418.22
689.49	415.65
689.82	413.15
690.16	410.61
690.50	408.12
690.83	405.66
691.17	403.12
691.51	400.70
691.84	398.57
692.18	396.44
692.52	394.27
692.85	392.12
693.19	390.04
693.52	387.89
693.86	385.74
694.20	383.60
694.53	381.52
694.87	379.33
695.21	377.28
695.54	375.16
695.88	373.08
696.21	370.92
696.55	368.87
696.88	366.87
697.22	364.90
697.56	363.13
697.89	361.33
698.23	359.63
698.56	357.90
698.90	356.16
699.23	354.20
699.57	352.35
699.90	350.51
700.24	348.77
700.58	347.07
700.91	345.43
701.25	343.87
701.58	342.31
701.92	340.75
702.25	339.17
702.59	337.61
702.92	336.10
703.26	334.54
703.59	333.14
703.93	331.92
704.26	330.57
704.60	329.02
704.93	327.53
705.26	326.12
705.60	324.69
705.93	323.23
706.27	321.97
706.60	320.75
706.94	319.59
707.27	318.23
707.61	316.95
707.94	315.70
708.27	314.23
708.61	312.81
708.94	311.52
709.28	310.28
709.61	309.01
709.94	307.84
710.28	306.72
710.61	305.55
710.95	304.14
711.28	303.08
711.61	301.92
711.95	300.82
712.28	299.65
712.61	298.49
712.95	297.44
713.28	296.47
713.61	295.35
713.95	294.21
714.28	293.18
714.61	292.14
714.95	291.13
715.28	290.15
715.61	289.18
715.95	288.24
716.28	287.29
716.61	286.37
716.95	285.43
717.28	284.50
717.61	283.56
717.94	282.72
718.28	281.71
718.61	280.89
718.94	280.00
719.27	279.19
719.61	278.42
719.94	277.57
720.27	276.62
720.60	275.81
720.94	275.04
721.27	274.31
721.60	273.64
721.93	272.92
722.27	272.29
722.60	271.63
722.93	270.96
723.26	270.34
723.59	269.67
723.93	269.00
724.26	268.36
724.59	267.81
724.92	267.23
725.25	266.73
725.59	266.16
725.92	265.65
726.25	265.07
726.58	264.48
726.91	263.92
727.24	263.40
727.57	262.87
727.91	262.27
728.24	261.73
728.57	261.15
728.90	260.61
729.23	260.02
729.56	259.60
729.89	259.03
730.22	258.48
730.55	257.97
730.89	257.49
731.22	256.98
731.55	256.42
731.88	255.91
732.21	255.37
732.54	254.83
732.87	254.37
733.20	253.87
733.53	253.44
733.86	253.00
734.19	252.54
734.52	252.11
734.85	251.87
735.18	251.43
735.51	251.10
735.84	250.70
736.17	250.34
736.50	249.80
736.83	249.71
737.16	249.34
737.49	248.97
737.82	248.58
738.15	248.24
738.48	247.89
738.81	247.50
739.14	247.08
739.47	246.73
739.80	246.32
740.13	246.01
740.46	245.58
740.79	245.21
741.12	244.87
741.45	244.55
741.78	244.08
742.11	243.83
742.44	243.46
742.77	243.15
743.10	242.82
743.43	242.49
743.75	241.94
744.08	241.87
744.41	241.53
744.74	241.17
745.07	240.78
745.40	240.49
745.73	240.25
746.06	239.97
746.39	239.67
746.71	239.36
747.04	239.04
747.37	238.78
747.70	238.49
748.03	238.19
748.36	237.93
748.68	237.63
749.01	237.24
749.34	236.94
749.67	236.64
750.00	236.40
750.33	236.27
750.65	236.03
750.98	235.49
751.31	235.24
751.64	235.06
751.97	234.98
752.29	234.71
752.62	234.40
752.95	234.14
753.28	233.91
753.60	233.69
753.93	233.51
754.26	233.28
754.59	233.03
754.91	232.80
755.24	232.52
755.57	232.30
755.90	232.10
756.22	231.86
756.55	231.61
756.88	231.35
757.20	231.06
757.53	230.77
757.86	230.61
758.19	230.45
758.51	230.21
758.84	229.91
759.17	229.71
759.49	229.55
759.82	229.49
760.15	229.32
760.47	229.13
760.80	228.90
761.13	228.77
761.45	228.57
761.78	228.38
762.11	228.24
762.43	228.08
762.76	227.88
763.08	227.75
763.41	227.66
763.74	227.53
764.06	227.34
764.39	227.23
764.71	227.05
765.04	226.89
765.37	226.74
765.69	226.55
766.02	226.44
766.34	226.29
766.67	226.08
767.00	225.97
767.32	225.96
767.65	225.93
767.97	225.78
768.30	225.71
768.62	225.58
768.95	225.43
769.27	225.28
769.60	225.21
769.92	225.05
770.25	224.88
770.57	224.72
770.90	224.63
771.22	224.51
771.55	224.40
771.87	224.29
772.20	224.19
772.52	224.28
772.85	224.39
773.17	224.31
773.50	224.19
773.82	224.06
774.15	223.88
774.47	223.69
774.80	223.59
775.12	223.48
775.45	223.42
775.77	223.33
776.09	223.28
776.42	223.19
776.74	223.20
777.07	223.13
777.39	223.04
777.72	222.95
778.04	222.88
778.36	222.80
778.69	222.72
779.01	222.64
779.33	222.40
779.66	222.10
779.98	221.98
780.31	221.92
780.63	221.93
780.95	221.89
781.28	221.80
781.60	221.69
781.92	221.62
782.25	221.57
782.57	221.50
782.89	221.43
783.22	221.34
783.54	221.21
783.86	221.14
784.19	221.10
784.51	221.10
784.83	221.03
785.16	220.98
785.48	220.93
785.80	220.87
786.12	220.83
786.45	220.77
786.77	220.75
787.09	220.68
787.42	220.56
787.74	220.48
788.06	220.46
788.38	220.40
788.71	220.34
789.03	220.29
789.35	220.24
789.67	220.17
789.99	220.13
790.32	220.07
790.64	220.05
790.96	220.15
791.28	220.02
791.61	219.93
791.93	219.89
792.25	219.87
792.57	219.98
792.89	219.89
793.21	219.87
793.54	219.81
793.86	219.76
794.18	219.70
794.50	219.64
794.82	219.60
795.14	219.59
795.47	219.59
795.79	219.52
796.11	219.49
796.43	219.45
796.75	219.42
797.07	219.37
797.39	219.31
797.71	219.16
798.04	219.16
798.36	219.18
798.68	219.12
799.00	219.08
799.32	218.92
799.64	218.95
799.96	218.92
800.28	218.95
800.60	218.91
800.92	218.90
801.24	218.84
801.56	218.83
801.89	218.78
802.21	218.75
802.53	218.67
802.85	218.66
803.17	218.70
803.49	218.64
803.81	218.59
804.13	218.54
804.45	218.48
804.77	218.45
805.09	218.42
805.41	218.40
805.73	218.33
806.05	218.24
806.37	218.17
806.69	218.10
807.01	218.03
807.33	218.01
807.65	217.92
807.97	218.01
808.28	217.94
808.60	217.94
808.92	217.86
809.24	217.97
809.56	217.90
809.88	217.83
810.20	217.85
810.52	217.89
810.84	217.83
811.16	217.80
811.48	217.78
811.80	217.82
812.12	217.77
812.43	217.80
812.75	217.81
813.07	217.78
813.39	217.76
813.71	217.71
814.03	217.68
814.35	217.66
814.67	217.55
814.98	217.48
815.30	217.45
815.62	217.41
815.94	217.26
816.26	217.26
816.58	217.16
816.89	217.15
817.21	217.05
817.53	217.06
817.85	217.03
818.17	216.98
818.48	216.85
818.80	216.89
819.12	216.81
819.44	216.73
819.76	216.68
820.07	216.66
820.39	216.62
820.71	216.60
821.03	216.59
821.34	216.54
821.66	216.57
821.98	216.57
822.30	216.56
822.61	216.67
822.93	216.63
823.25	216.62
823.57	216.58
823.88	216.64
824.20	216.61
824.52	216.63
824.83	216.62
825.15	216.60
825.47	216.56
825.79	216.56
826.10	216.58
826.42	216.54
826.74	216.53
827.05	216.51
827.37	216.49
827.69	216.45
828.00	216.48
828.32	216.48
828.64	216.46
828.95	216.56
829.27	216.46
829.58	216.46
829.90	216.47
830.22	216.45
830.53	216.37
830.85	216.34
831.17	216.28
831.48	216.27
831.80	216.25
832.11	216.23
832.43	216.19
832.75	216.18
833.06	216.31
833.38	216.26
833.69	216.27
834.01	216.29
834.32	216.28
834.64	216.23
834.96	216.21
835.27	216.21
835.59	216.12
835.90	216.07
836.22	216.04
836.53	216.00
836.85	215.98
837.16	216.19
837.48	216.20
837.79	216.27
838.11	216.26
838.42	216.27
838.74	216.28
839.05	216.29
839.37	216.28
839.68	216.13
840.00	216.13
840.31	216.14
840.63	216.12
840.94	216.12
841.26	216.13
841.57	216.11
841.88	216.10
842.20	216.06
842.51	216.03
842.83	216.03
843.14	216.22
843.46	216.23
843.77	216.09
844.08	216.09
844.40	216.01
844.71	215.98
845.03	215.96
845.34	215.95
845.65	215.90
845.97	215.88
846.28	215.88
846.60	215.86
846.91	215.82
847.22	215.82
847.54	215.85
847.85	215.85
848.16	215.80
848.48	215.80
848.79	215.90
849.10	215.93
849.42	215.93
849.73	215.74
850.04	215.69
850.36	215.62
850.67	215.64
850.98	215.65
851.30	215.68
851.61	215.67
851.92	215.65
852.23	215.76
852.55	215.80
852.86	215.80
853.17	215.87
853.49	215.88
853.80	215.91
854.11	215.91
854.42	215.94
854.74	215.93
855.05	215.90
855.36	215.78
855.67	215.80
855.99	215.79
856.30	216.01
856.61	216.02
856.92	216.03
857.23	216.01
857.55	215.98
857.86	215.94
858.17	215.97
858.48	215.92
858.79	215.86
859.11	215.89
859.42	215.90
859.73	215.82
860.04	215.83
860.35	215.75
860.66	215.67
860.98	215.62
861.29	215.63
861.60	215.61
861.91	215.65
862.22	215.59
862.53	215.54
862.84	215.32
863.16	215.37
863.47	215.31
863.78	215.29
864.09	215.30
864.40	215.32
864.71	215.31
865.02	215.35
865.33	215.31
865.64	215.24
865.95	215.21
866.27	215.38
866.58	215.40
866.89	215.41
867.20	215.41
867.51	215.40
867.82	215.40
868.13	215.46
868.44	215.39
868.75	215.44
869.06	215.47
869.37	215.46
869.68	215.39
869.99	215.44
870.30	215.47
870.61	215.51
870.92	215.47
871.23	215.46
871.54	215.50
871.85	215.55
872.16	215.57
872.47	215.57
872.78	215.40
873.09	215.38
873.40	215.35
873.71	215.37
874.02	215.42
874.33	215.38
874.64	215.35
874.95	215.39
875.26	215.37
875.56	215.35
875.87	215.41
876.18	215.41
876.49	215.61
876.80	215.59
877.11	215.57
877.42	215.57
877.73	215.56
878.04	215.54
878.35	215.52
878.66	215.53
878.96	215.53
879.27	215.54
879.58	215.52
879.89	215.52
880.20	215.56
880.51	215.53
880.82	215.55
881.12	215.51
881.43	215.52
881.74	215.50
882.05	215.52
882.36	215.49
882.67	215.49
882.97	215.26
883.28	215.25
883.59	215.22
883.90	215.26
884.21	215.26
884.51	215.23
884.82	215.22
885.13	215.20
885.44	215.22
885.74	215.20
886.05	215.16
886.36	215.14
886.67	215.10
886.98	215.22
887.28	215.24
887.59	215.30
887.90	215.27
888.20	215.27
888.51	215.32
888.82	215.28
889.13	215.31
889.43	215.47
889.74	215.46
890.05	215.45
890.35	215.42
890.66	215.40
890.97	215.36
891.28	215.33
891.58	215.34
891.89	215.30
892.20	215.30
892.50	215.33
892.81	215.34
893.12	215.31
893.42	215.19
893.73	215.17
894.04	215.15
894.34	215.17
894.65	215.15
894.95	215.09
895.26	215.11
895.57	215.16
895.87	214.99
896.18	215.03
896.48	215.07
896.79	215.08
897.10	215.11
897.40	215.14
897.71	215.17
898.01	215.14
898.32	215.17
898.63	215.17
898.93	215.17
899.24	215.16
899.54	215.14
899.85	215.14
900.15	215.14
900.46	215.15
900.76	215.14
901.07	215.14
901.38	215.15
901.68	215.18
901.99	215.12
902.29	215.13
902.60	215.10
902.90	215.06
903.21	215.04
903.51	214.99
903.82	215.05
904.12	215.07
904.43	215.09
904.73	215.10
905.03	215.15
905.34	215.37
905.64	215.38
905.95	215.40
906.25	215.39
906.56	215.38
906.86	215.35
907.17	215.37
907.47	215.37
907.77	215.38
908.08	215.30
908.38	215.30
908.69	215.30
908.99	215.35
909.30	215.36
909.60	215.38
909.90	215.40
910.21	215.32
910.51	215.26
910.81	215.25
911.12	215.26
911.42	215.23
911.73	214.98
912.03	214.99
912.33	215.04
912.64	215.02
912.94	214.99
913.24	214.95
913.55	214.93
913.85	214.93
914.15	214.98
914.46	215.00
914.76	214.98
915.06	214.97
915.37	214.92
915.67	214.89
915.97	214.88
916.27	214.85
916.58	214.89
916.88	214.91
917.18	214.91
917.49	215.03
917.79	215.05
918.09	215.07
918.39	215.11
918.70	215.11
919.00	215.11
919.30	215.21
919.60	215.22
919.91	215.22
920.21	215.24
920.51	215.18
920.81	215.18
921.12	215.20
921.42	215.17
921.72	215.17
922.02	215.22
922.32	215.24
922.63	215.24
922.93	215.31
923.23	215.32
923.53	215.26
923.83	215.12
924.13	215.12
924.44	215.13
924.74	215.19
925.04	215.22
925.34	215.23
925.64	215.17
925.94	215.19
926.24	215.27
926.55	215.21
926.85	215.24
927.15	215.22
927.45	215.22
927.75	215.24
928.05	215.26
928.35	215.24
928.65	215.28
928.95	215.29
929.26	215.22
929.56	215.27
929.86	215.29
930.16	215.29
930.46	215.27
930.76	215.29
931.06	215.18
931.36	215.11
931.66	215.13
931.96	215.13
932.26	215.14
932.56	215.05
932.86	215.08
933.16	215.06
933.46	215.09
933.76	215.07
934.06	215.12
934.36	215.18
934.66	215.16
934.96	215.14
935.26	215.15
935.56	215.17
935.86	215.13
936.16	215.13
936.46	215.11
936.76	215.14
937.06	215.11
937.36	215.14
937.66	215.16
937.96	215.15
938.26	215.11
938.56	215.08
938.86	215.10
939.16	215.15
939.46	215.18
939.76	215.17
940.06	215.17
940.35	215.14
940.65	215.06
940.95	215.08
941.25	215.01
941.55	215.01
941.85	215.00
942.15	215.04
942.45	215.08
942.75	215.07
943.04	215.06
943.34	215.10
943.64	215.06
943.94	215.05
944.24	215.07
944.54	215.07
944.84	215.04
945.13	215.00
945.43	214.95
945.73	214.92
946.03	214.90
946.33	214.89
946.62	214.83
946.92	214.81
947.22	214.84
947.52	214.84
947.82	214.87
948.11	214.85
948.41	214.78
948.71	214.76
949.01	214.76
949.31	214.74
949.60	214.73
949.90	214.77
950.20	214.74
950.50	214.73
950.79	214.74
951.09	214.78
951.39	214.81
951.69	214.79
951.98	214.84
952.28	214.85
952.58	214.87
952.87	214.87
953.17	214.87
953.47	214.86
953.76	214.90
954.06	214.82
954.36	214.78
954.66	214.80
954.95	214.82
955.25	214.84
955.55	214.87
955.84	214.82
956.14	214.83
956.44	214.85
956.73	214.81
957.03	214.83
957.32	214.84
957.62	214.84
957.92	214.88
958.21	214.84
958.51	215.06
958.81	215.06
959.10	215.12
959.40	215.20
959.69	215.19
959.99	215.17
960.29	215.22
960.58	215.22
960.88	215.29
961.17	215.27
961.47	215.31
961.76	215.24
962.06	215.26
962.36	215.23
962.65	215.21
962.95	215.24
963.24	215.23
963.54	215.24
963.83	215.26
964.13	215.27
964.42	215.26
964.72	215.11
965.01	215.14
965.31	215.06
965.60	214.97
965.90	215.10
966.19	215.10
966.49	215.09
966.78	215.13
967.08	215.11
967.37	215.11
967.67	215.08
967.96	215.16
968.26	215.19
968.55	215.24
968.85	215.24
969.14	215.24
969.43	215.22
969.73	215.19
970.02	215.16
970.32	215.15
970.61	215.12
970.91	215.05
971.20	215.02
971.49	215.03
971.79	215.11
972.08	214.95
972.38	214.93
972.67	214.93
972.96	214.91
973.26	214.85
973.55	214.93
973.85	214.90
974.14	214.87
974.43	214.87
974.73	214.81
975.02	214.81
975.31	214.81
975.61	214.80
975.90	214.79
976.19	214.77
976.49	214.78
976.78	214.80
977.07	214.82
977.37	214.82
977.66	214.87
977.95	214.81
978.24	214.81
978.54	214.86
978.83	214.83
979.12	214.85
979.42	214.86
979.71	214.78
980.00	214.77
980.29	214.78
980.59	214.77
980.88	214.82
981.17	214.79
981.46	214.79
981.76	214.82
982.05	214.90
982.34	214.92
982.63	214.91
982.93	214.93
983.22	214.97
983.51	215.00
983.80	214.99
984.09	215.03
984.39	215.05
984.68	215.02
984.97	215.04
985.26	215.03
985.55	215.01
985.85	214.98
986.14	215.04
986.43	215.06
986.72	215.05
987.01	215.00
987.30	215.05
987.59	215.03
987.89	215.03
988.18	214.96
988.47	214.91
988.76	214.89
989.05	214.85
989.34	214.80
989.63	214.86
989.92	214.81
990.22	214.80
990.51	214.80
990.80	214.79
991.09	214.81
991.38	214.82
991.67	214.80
991.96	214.80
992.25	214.79
992.54	214.75
992.83	214.73
993.12	214.69
993.41	214.72
993.70	214.81
993.99	214.83
994.28	214.88
994.58	214.89
994.87	214.88
995.16	214.90
995.45	214.90
995.74	214.80
996.03	214.84
996.32	214.87
996.61	214.90
996.90	214.89
997.19	214.89
997.48	214.91
997.77	214.92
998.06	214.93
998.34	214.89
998.63	214.92
998.92	214.94
999.21	214.99
999.50	214.94
999.79	214.82
1000.08	214.81
1000.37	214.77
1000.66	214.77
1000.95	214.83
1001.24	214.83
1001.53	214.84
1001.82	214.82
1002.11	214.80
1002.40	214.82
1002.68	214.82
1002.97	214.99
1003.26	214.95
1003.55	214.92
1003.84	214.94
1004.13	215.03
1004.42	215.04
1004.71	215.00
1004.99	214.99
1005.28	215.04
1005.57	215.02
1005.86	215.01
1006.15	215.01
1006.44	214.97
1006.72	214.99
1007.01	214.93
1007.30	214.95
1007.59	214.96
1007.88	214.96
1008.17	214.94
1008.45	214.88
1008.74	214.82
1009.03	214.69
1009.32	214.69
1009.60	214.67
1009.89	214.63
1010.18	214.54
1010.47	214.52
1010.76	214.52
1011.04	214.52
1011.33	214.52
1011.62	214.56
1011.91	214.61
1012.19	214.62
1012.48	214.64
1012.77	214.66
1013.05	214.77
1013.34	214.78
1013.63	214.77
1013.92	214.81
1014.20	214.79
1014.49	214.79
1014.78	214.82
1015.06	214.77
1015.35	214.74
1015.64	214.78
1015.92	214.84
1016.21	214.83
1016.50	214.84
1016.78	214.84
1017.07	214.87
1017.36	214.84
1017.64	214.82
1017.93	214.82
1018.22	214.82
1018.50	214.81
1018.79	214.79
1019.08	214.67
1019.36	214.65
1019.65	214.62
1019.93	214.67
1020.22	214.71
1020.51	214.85
1020.79	214.80
1021.08	214.81
1021.36	214.47
1021.65	214.41
1021.94	214.41
1022.22	214.74
1022.51	214.51
1022.79	215.93
1023.08	214.64
1023.36	217.48
1023.65	213.96
>>>>>End Processed Spectral Data<<<<<
