SpectraSuite Data File
++++++++++++++++++++++++++++++++++++
Date: Tue Jan 29 16:08:35 EST 2013
User: group
Dark Spectrum Present: No
Reference Spectrum Present: No
Number of Sampled Component Spectra: 1
Spectrometers: USB2E7196
Integration Time (usec): 65000 (USB2E7196)
Spectra Averaged: 100 (USB2E7196)
Boxcar Smoothing: 10 (USB2E7196)
Correct for Electrical Dark: No (USB2E7196)
Strobe/Lamp Enabled: No (USB2E7196)
Correct for Detector Non-linearity: No (USB2E7196)
Correct for Stray Light: No (USB2E7196)
Number of Pixels in Processed Spectrum: 2048
>>>>>Begin Processed Spectral Data<<<<<
339.09	0.00
339.48	202.92
339.86	204.55
340.24	205.68
340.63	206.89
341.01	212.02
341.39	209.26
341.78	211.48
342.16	212.61
342.54	212.95
342.93	201.89
343.31	212.07
343.69	212.59
344.07	213.02
344.46	213.46
344.84	213.86
345.22	214.01
345.60	214.30
345.99	214.49
346.37	214.65
346.75	214.75
347.13	214.83
347.52	214.93
347.90	215.05
348.28	215.08
348.66	215.13
349.05	215.11
349.43	215.16
349.81	215.25
350.19	215.32
350.57	215.37
350.96	215.46
351.34	215.56
351.72	215.67
352.10	215.79
352.48	215.87
352.87	215.92
353.25	216.00
353.63	216.04
354.01	216.07
354.39	216.13
354.77	216.18
355.15	216.31
355.54	216.29
355.92	216.29
356.30	216.35
356.68	216.55
357.06	216.63
357.44	216.68
357.82	216.73
358.20	216.82
358.58	216.93
358.97	217.00
359.35	217.11
359.73	217.22
360.11	217.28
360.49	217.31
360.87	217.35
361.25	217.45
361.63	217.57
362.01	217.67
362.39	217.67
362.77	217.75
363.15	217.77
363.53	217.84
363.91	217.86
364.29	217.88
364.67	217.72
365.05	217.72
365.43	217.77
365.81	217.85
366.19	217.93
366.57	217.96
366.95	217.96
367.33	217.92
367.71	217.92
368.09	217.95
368.47	217.98
368.85	218.00
369.23	218.01
369.61	217.96
369.99	217.99
370.37	218.00
370.75	218.07
371.13	217.99
371.51	217.98
371.89	217.98
372.27	218.02
372.65	218.01
373.03	217.99
373.41	217.94
373.78	217.87
374.16	217.73
374.54	217.66
374.92	217.61
375.30	217.57
375.68	217.48
376.06	217.46
376.44	217.38
376.82	217.36
377.19	217.27
377.57	217.17
377.95	217.08
378.33	217.01
378.71	216.84
379.09	216.85
379.47	216.81
379.84	216.78
380.22	216.69
380.60	216.63
380.98	216.58
381.36	216.52
381.73	216.46
382.11	216.45
382.49	216.42
382.87	216.35
383.25	216.31
383.62	216.50
384.00	216.43
384.38	216.42
384.76	216.42
385.13	216.49
385.51	216.46
385.89	216.42
386.27	216.42
386.64	216.44
387.02	216.39
387.40	216.36
387.78	216.30
388.15	216.29
388.53	216.25
388.91	216.26
389.29	216.25
389.66	216.28
390.04	216.24
390.42	216.24
390.79	216.23
391.17	216.22
391.55	215.98
391.92	215.96
392.30	215.94
392.68	215.89
393.05	215.86
393.43	215.86
393.81	215.89
394.18	215.85
394.56	215.84
394.94	215.88
395.31	215.83
395.69	215.93
396.06	215.95
396.44	215.99
396.82	215.94
397.19	216.08
397.57	216.08
397.95	216.13
398.32	216.12
398.70	216.20
399.07	216.29
399.45	216.33
399.82	216.40
400.20	216.45
400.58	216.48
400.95	216.47
401.33	216.59
401.70	216.77
402.08	216.90
402.45	217.00
402.83	217.13
403.20	217.29
403.58	217.37
403.95	217.54
404.33	217.68
404.71	217.86
405.08	218.09
405.46	218.24
405.83	218.42
406.21	218.63
406.58	218.83
406.96	219.05
407.33	219.32
407.70	219.58
408.08	220.02
408.45	220.38
408.83	220.77
409.20	221.09
409.58	221.35
409.95	221.75
410.33	222.23
410.70	222.65
411.08	223.17
411.45	223.73
411.82	224.27
412.20	224.93
412.57	225.75
412.95	226.29
413.32	227.10
413.69	227.90
414.07	228.77
414.44	229.73
414.82	230.73
415.19	231.84
415.56	233.01
415.94	234.12
416.31	235.47
416.68	236.79
417.06	238.35
417.43	239.85
417.81	241.49
418.18	243.17
418.55	245.01
418.93	246.96
419.30	248.96
419.67	251.10
420.04	253.36
420.42	255.64
420.79	258.39
421.16	261.09
421.54	263.86
421.91	266.70
422.28	269.68
422.66	272.84
423.03	275.95
423.40	279.15
423.77	282.62
424.15	286.14
424.52	289.87
424.89	293.87
425.26	297.82
425.64	301.62
426.01	305.77
426.38	310.11
426.75	314.51
427.13	319.12
427.50	323.91
427.87	328.90
428.24	333.92
428.61	338.71
428.99	344.03
429.36	349.87
429.73	355.59
430.10	361.26
430.47	367.12
430.85	373.27
431.22	379.73
431.59	386.66
431.96	393.24
432.33	400.45
432.70	407.43
433.08	415.64
433.45	423.40
433.82	431.21
434.19	439.77
434.56	448.20
434.93	456.17
435.30	464.17
435.68	472.99
436.05	481.63
436.42	490.19
436.79	498.05
437.16	506.52
437.53	515.47
437.90	524.32
438.27	532.98
438.64	541.90
439.01	550.13
439.38	557.45
439.75	564.55
440.13	572.72
440.50	580.43
440.87	586.67
441.24	593.07
441.61	600.07
441.98	605.29
442.35	611.34
442.72	617.45
443.09	623.35
443.46	626.90
443.83	629.31
444.20	631.45
444.57	634.41
444.94	635.78
445.31	637.21
445.68	638.55
446.05	639.10
446.42	638.28
446.79	637.37
447.16	636.25
447.53	635.47
447.90	632.15
448.27	628.88
448.64	624.38
449.01	621.15
449.37	615.45
449.74	609.91
450.11	603.30
450.48	596.17
450.85	588.85
451.22	582.62
451.59	576.81
451.96	571.14
452.33	563.63
452.70	556.82
453.07	548.59
453.43	540.25
453.80	532.26
454.17	524.55
454.54	517.29
454.91	509.46
455.28	501.79
455.65	494.67
456.02	487.51
456.38	481.44
456.75	473.93
457.12	467.67
457.49	461.47
457.86	455.52
458.23	450.39
458.59	444.74
458.96	439.00
459.33	433.83
459.70	428.73
460.07	424.63
460.43	419.91
460.80	415.53
461.17	411.70
461.54	407.67
461.91	403.81
462.27	399.80
462.64	396.48
463.01	392.87
463.38	389.38
463.74	385.83
464.11	382.66
464.48	379.89
464.85	376.89
465.21	374.51
465.58	371.92
465.95	368.84
466.32	366.33
466.68	363.81
467.05	361.32
467.42	358.85
467.78	356.27
468.15	353.84
468.52	351.95
468.88	349.59
469.25	347.48
469.62	345.75
469.98	343.95
470.35	342.24
470.72	340.62
471.08	338.89
471.45	337.48
471.82	336.02
472.18	334.42
472.55	333.25
472.92	331.94
473.28	330.84
473.65	329.77
474.02	328.74
474.38	327.88
474.75	327.21
475.11	326.46
475.48	325.94
475.85	325.45
476.21	325.04
476.58	324.73
476.94	324.50
477.31	324.30
477.67	324.02
478.04	323.92
478.41	323.84
478.77	324.05
479.14	324.00
479.50	324.16
479.87	324.49
480.23	324.88
480.60	325.16
480.96	325.46
481.33	326.10
481.69	326.63
482.06	327.18
482.42	327.68
482.79	328.25
483.15	329.06
483.52	330.06
483.88	330.92
484.25	331.86
484.61	332.94
484.98	333.91
485.34	335.26
485.71	336.60
486.07	338.07
486.44	339.39
486.80	340.98
487.17	342.66
487.53	344.45
487.90	346.27
488.26	348.24
488.62	350.37
488.99	352.39
489.35	354.58
489.72	356.92
490.08	359.42
490.44	361.99
490.81	364.66
491.17	367.35
491.54	370.34
491.90	373.40
492.26	376.63
492.63	380.09
492.99	383.59
493.36	387.21
493.72	391.09
494.08	395.08
494.45	399.29
494.81	403.66
495.17	408.11
495.54	412.81
495.90	417.69
496.26	422.60
496.63	427.77
496.99	433.15
497.35	438.73
497.72	444.54
498.08	450.47
498.44	456.52
498.80	462.95
499.17	469.44
499.53	476.06
499.89	482.96
500.26	489.91
500.62	496.94
500.98	504.34
501.34	511.76
501.71	519.56
502.07	527.37
502.43	535.38
502.79	543.49
503.16	551.80
503.52	560.29
503.88	568.98
504.24	577.88
504.60	586.84
504.97	596.00
505.33	605.25
505.69	615.07
506.05	624.89
506.41	634.64
506.78	644.67
507.14	654.88
507.50	665.21
507.86	675.82
508.22	686.55
508.59	697.15
508.95	708.13
509.31	719.24
509.67	730.59
510.03	741.91
510.39	753.54
510.75	765.40
511.12	777.30
511.48	789.28
511.84	801.47
512.20	813.79
512.56	826.37
512.92	839.08
513.28	851.56
513.64	864.17
514.00	876.88
514.37	889.59
514.73	902.67
515.09	915.49
515.45	928.21
515.81	941.08
516.17	954.33
516.53	967.49
516.89	980.57
517.25	993.64
517.61	1006.92
517.97	1020.14
518.33	1033.03
518.69	1046.33
519.05	1059.85
519.41	1073.36
519.77	1087.03
520.13	1100.09
520.49	1113.02
520.85	1126.25
521.21	1139.47
521.57	1152.91
521.93	1165.95
522.29	1179.24
522.65	1192.68
523.01	1206.01
523.37	1218.96
523.73	1232.07
524.09	1245.00
524.45	1258.01
524.81	1271.29
525.17	1284.46
525.53	1297.44
525.89	1310.48
526.25	1323.43
526.61	1336.06
526.97	1348.91
527.33	1361.55
527.68	1374.85
528.04	1388.06
528.40	1400.87
528.76	1413.96
529.12	1426.66
529.48	1439.57
529.84	1451.69
530.20	1464.12
530.56	1476.48
530.91	1489.41
531.27	1501.89
531.63	1514.42
531.99	1526.97
532.35	1538.85
532.71	1550.90
533.07	1563.37
533.42	1575.31
533.78	1587.07
534.14	1598.89
534.50	1609.76
534.86	1621.13
535.21	1631.60
535.57	1642.69
535.93	1653.71
536.29	1664.57
536.65	1675.62
537.00	1686.37
537.36	1697.47
537.72	1708.22
538.08	1719.30
538.44	1729.92
538.79	1740.74
539.15	1751.26
539.51	1761.65
539.87	1772.61
540.22	1782.98
540.58	1793.69
540.94	1804.34
541.29	1814.25
541.65	1823.62
542.01	1833.79
542.37	1843.49
542.72	1853.46
543.08	1862.96
543.44	1873.19
543.79	1882.19
544.15	1891.37
544.51	1901.14
544.87	1910.71
545.22	1919.49
545.58	1928.18
545.94	1936.83
546.29	1945.07
546.65	1953.18
547.01	1961.10
547.36	1968.49
547.72	1976.12
548.07	1983.40
548.43	1990.75
548.79	1998.54
549.14	2006.46
549.50	2014.76
549.86	2022.34
550.21	2029.44
550.57	2036.88
550.92	2043.32
551.28	2050.54
551.64	2057.71
551.99	2064.90
552.35	2071.82
552.70	2078.50
553.06	2084.88
553.41	2091.06
553.77	2097.39
554.13	2103.59
554.48	2110.52
554.84	2117.54
555.19	2123.97
555.55	2130.42
555.90	2136.71
556.26	2143.08
556.61	2148.88
556.97	2153.57
557.32	2159.24
557.68	2165.51
558.03	2170.98
558.39	2176.18
558.74	2182.02
559.10	2187.52
559.45	2192.92
559.81	2198.41
560.16	2204.09
560.52	2210.10
560.87	2216.46
561.23	2222.42
561.58	2228.92
561.94	2234.11
562.29	2238.83
562.64	2244.97
563.00	2250.43
563.35	2255.93
563.71	2261.89
564.06	2267.60
564.42	2273.58
564.77	2278.81
565.12	2283.97
565.48	2289.39
565.83	2295.06
566.19	2300.53
566.54	2305.89
566.89	2310.72
567.25	2315.36
567.60	2320.96
567.96	2326.10
568.31	2330.67
568.66	2334.94
569.02	2338.78
569.37	2342.64
569.72	2347.07
570.08	2350.53
570.43	2353.80
570.78	2357.03
571.14	2359.67
571.49	2362.91
571.84	2366.39
572.20	2369.35
572.55	2372.66
572.90	2374.96
573.26	2377.98
573.61	2380.55
573.96	2382.67
574.31	2384.66
574.67	2386.53
575.02	2387.52
575.37	2389.07
575.72	2389.98
576.08	2391.54
576.43	2392.02
576.78	2392.74
577.13	2394.70
577.49	2396.00
577.84	2397.38
578.19	2398.95
578.54	2399.76
578.90	2400.87
579.25	2401.10
579.60	2401.30
579.95	2400.65
580.30	2401.07
580.66	2400.33
581.01	2398.72
581.36	2396.82
581.71	2395.67
582.06	2394.89
582.42	2394.28
582.77	2392.27
583.12	2390.88
583.47	2389.84
583.82	2389.48
584.17	2388.43
584.53	2386.33
584.88	2384.43
585.23	2382.55
585.58	2380.37
585.93	2378.31
586.28	2376.29
586.63	2374.08
586.98	2371.97
587.34	2370.27
587.69	2368.17
588.04	2366.35
588.39	2365.31
588.74	2362.98
589.09	2360.49
589.44	2357.61
589.79	2355.39
590.14	2353.70
590.49	2351.03
590.84	2347.40
591.19	2344.51
591.54	2341.28
591.89	2337.34
592.25	2334.15
592.60	2330.20
592.95	2326.25
593.30	2322.31
593.65	2317.98
594.00	2313.70
594.35	2310.72
594.70	2306.03
595.05	2301.46
595.40	2296.17
595.75	2290.56
596.10	2286.99
596.45	2282.31
596.80	2277.79
597.15	2272.60
597.50	2266.67
597.85	2261.91
598.19	2256.73
598.54	2250.99
598.89	2246.12
599.24	2241.76
599.59	2235.96
599.94	2230.33
600.29	2224.51
600.64	2218.80
600.99	2212.27
601.34	2206.94
601.69	2200.08
602.04	2194.07
602.39	2187.60
602.74	2181.73
603.08	2176.27
603.43	2169.83
603.78	2163.10
604.13	2156.18
604.48	2149.10
604.83	2143.25
605.18	2136.91
605.53	2129.90
605.87	2123.03
606.22	2116.19
606.57	2108.34
606.92	2100.39
607.27	2093.44
607.62	2086.92
607.96	2079.93
608.31	2073.45
608.66	2065.61
609.01	2058.07
609.36	2050.94
609.70	2043.34
610.05	2035.59
610.40	2027.36
610.75	2019.25
611.10	2011.66
611.44	2002.91
611.79	1994.20
612.14	1984.24
612.49	1973.93
612.83	1964.98
613.18	1955.88
613.53	1946.52
613.88	1937.00
614.22	1928.58
614.57	1918.67
614.92	1908.05
615.27	1897.84
615.61	1887.95
615.96	1878.37
616.31	1868.99
616.65	1859.75
617.00	1849.87
617.35	1840.25
617.70	1830.68
618.04	1820.51
618.39	1810.20
618.74	1800.40
619.08	1790.81
619.43	1782.15
619.78	1773.84
620.12	1765.01
620.47	1755.14
620.82	1745.00
621.16	1735.36
621.51	1725.27
621.85	1715.52
622.20	1705.13
622.55	1694.68
622.89	1684.75
623.24	1675.03
623.59	1665.21
623.93	1655.00
624.28	1645.31
624.62	1635.26
624.97	1624.89
625.32	1615.33
625.66	1606.58
626.01	1597.87
626.35	1588.43
626.70	1578.24
627.04	1568.05
627.39	1558.13
627.73	1548.90
628.08	1539.74
628.43	1530.04
628.77	1520.89
629.12	1512.00
629.46	1504.28
629.81	1495.84
630.15	1486.26
630.50	1476.52
630.84	1466.12
631.19	1456.19
631.53	1446.80
631.88	1436.67
632.22	1426.72
632.57	1417.28
632.91	1407.18
633.26	1397.29
633.60	1387.75
633.95	1378.46
634.29	1369.08
634.64	1359.63
634.98	1349.80
635.32	1340.59
635.67	1332.03
636.01	1322.81
636.36	1312.99
636.70	1303.41
637.05	1294.06
637.39	1285.08
637.73	1276.37
638.08	1268.76
638.42	1260.52
638.77	1251.73
639.11	1243.42
639.45	1235.54
639.80	1226.81
640.14	1217.99
640.49	1209.25
640.83	1200.48
641.17	1192.42
641.52	1184.14
641.86	1175.49
642.20	1167.60
642.55	1158.96
642.89	1150.15
643.23	1141.51
643.58	1133.41
643.92	1124.44
644.26	1115.83
644.61	1107.45
644.95	1098.79
645.29	1089.47
645.64	1080.25
645.98	1071.93
646.32	1064.00
646.66	1055.47
647.01	1047.18
647.35	1039.11
647.69	1030.69
648.04	1022.28
648.38	1013.32
648.72	1004.65
649.06	996.36
649.41	988.20
649.75	980.30
650.09	972.43
650.43	964.31
650.78	956.07
651.12	948.40
651.46	941.01
651.80	933.78
652.14	926.36
652.49	918.97
652.83	911.77
653.17	904.07
653.51	896.44
653.85	889.27
654.20	882.04
654.54	874.52
654.88	867.48
655.22	860.44
655.56	853.53
655.90	846.79
656.25	840.18
656.59	833.24
656.93	826.32
657.27	819.30
657.61	812.50
657.95	806.54
658.29	800.73
658.64	794.62
658.98	788.17
659.32	781.72
659.66	775.52
660.00	769.23
660.34	763.20
660.68	757.16
661.02	750.85
661.36	745.02
661.70	739.32
662.05	733.64
662.39	728.16
662.73	722.86
663.07	717.54
663.41	711.95
663.75	706.39
664.09	700.70
664.43	695.30
664.77	689.98
665.11	684.19
665.45	678.32
665.79	672.59
666.13	666.90
666.47	661.53
666.81	656.12
667.15	650.82
667.49	645.71
667.83	640.51
668.17	635.35
668.51	630.29
668.85	625.44
669.19	620.60
669.53	615.70
669.87	610.59
670.21	605.88
670.55	601.16
670.89	596.79
671.23	592.69
671.57	588.38
671.91	584.17
672.25	580.17
672.58	576.07
672.92	572.12
673.26	568.30
673.60	564.53
673.94	560.81
674.28	557.18
674.62	553.47
674.96	549.79
675.30	546.29
675.64	542.70
675.97	539.20
676.31	535.64
676.65	532.09
676.99	528.69
677.33	524.91
677.67	521.37
678.01	517.61
678.34	513.92
678.68	510.48
679.02	506.93
679.36	503.20
679.70	499.59
680.04	496.09
680.37	492.69
680.71	489.37
681.05	486.25
681.39	483.14
681.73	480.04
682.06	477.08
682.40	474.03
682.74	470.90
683.08	467.72
683.42	464.58
683.75	461.65
684.09	458.72
684.43	455.99
684.77	453.13
685.10	450.29
685.44	447.47
685.78	444.56
686.12	441.84
686.45	439.12
686.79	436.55
687.13	434.03
687.46	431.50
687.80	428.87
688.14	426.10
688.48	423.53
688.81	420.88
689.15	418.40
689.49	415.87
689.82	413.33
690.16	410.81
690.50	408.41
690.83	405.97
691.17	403.49
691.51	401.08
691.84	398.86
692.18	396.69
692.52	394.50
692.85	392.49
693.19	390.35
693.52	388.29
693.86	386.07
694.20	383.89
694.53	381.81
694.87	379.61
695.21	377.55
695.54	375.42
695.88	373.32
696.21	371.11
696.55	369.02
696.88	367.04
697.22	365.07
697.56	363.18
697.89	361.32
698.23	359.64
698.56	357.88
698.90	356.13
699.23	354.25
699.57	352.40
699.90	350.47
700.24	348.71
700.58	346.94
700.91	345.38
701.25	343.90
701.58	342.29
701.92	340.77
702.25	339.17
702.59	337.60
702.92	336.10
703.26	334.61
703.59	333.19
703.93	331.98
704.26	330.62
704.60	329.20
704.93	327.76
705.26	326.26
705.60	324.82
705.93	323.34
706.27	322.05
706.60	320.87
706.94	319.74
707.27	318.41
707.61	317.17
707.94	315.83
708.27	314.33
708.61	312.94
708.94	311.62
709.28	310.41
709.61	309.15
709.94	308.00
710.28	306.83
710.61	305.68
710.95	304.27
711.28	303.19
711.61	302.01
711.95	300.92
712.28	299.74
712.61	298.60
712.95	297.58
713.28	296.56
713.61	295.41
713.95	294.27
714.28	293.32
714.61	292.30
714.95	291.30
715.28	290.33
715.61	289.33
715.95	288.42
716.28	287.45
716.61	286.56
716.95	285.58
717.28	284.70
717.61	283.78
717.94	282.94
718.28	281.96
718.61	281.11
718.94	280.25
719.27	279.45
719.61	278.65
719.94	277.77
720.27	276.84
720.60	276.06
720.94	275.29
721.27	274.49
721.60	273.81
721.93	273.11
722.27	272.51
722.60	271.89
722.93	271.17
723.26	270.54
723.59	269.85
723.93	269.26
724.26	268.62
724.59	267.96
724.92	267.34
725.25	266.79
725.59	266.21
725.92	265.65
726.25	265.06
726.58	264.52
726.91	264.00
727.24	263.47
727.57	262.89
727.91	262.34
728.24	261.82
728.57	261.29
728.90	260.75
729.23	260.17
729.56	259.72
729.89	259.22
730.22	258.66
730.55	258.16
730.89	257.61
731.22	257.08
731.55	256.62
731.88	256.10
732.21	255.58
732.54	255.05
732.87	254.59
733.20	254.14
733.53	253.67
733.86	253.17
734.19	252.73
734.52	252.31
734.85	251.98
735.18	251.50
735.51	251.05
735.84	250.66
736.17	250.30
736.50	249.77
736.83	249.60
737.16	249.23
737.49	248.84
737.82	248.48
738.15	248.14
738.48	247.74
738.81	247.40
739.14	247.03
739.47	246.66
739.80	246.24
740.13	245.93
740.46	245.53
740.79	245.19
741.12	244.82
741.45	244.48
741.78	244.03
742.11	243.76
742.44	243.40
742.77	243.08
743.10	242.69
743.43	242.33
743.75	241.79
744.08	241.69
744.41	241.34
744.74	241.01
745.07	240.62
745.40	240.35
745.73	240.10
746.06	239.78
746.39	239.52
746.71	239.21
747.04	238.83
747.37	238.54
747.70	238.27
748.03	237.98
748.36	237.73
748.68	237.47
749.01	237.12
749.34	236.86
749.67	236.57
750.00	236.32
750.33	236.26
750.65	236.06
750.98	235.53
751.31	235.30
751.64	235.06
751.97	234.91
752.29	234.63
752.62	234.32
752.95	234.08
753.28	233.79
753.60	233.55
753.93	233.43
754.26	233.22
754.59	232.97
754.91	232.74
755.24	232.48
755.57	232.25
755.90	232.04
756.22	231.80
756.55	231.58
756.88	231.36
757.20	230.99
757.53	230.69
757.86	230.53
758.19	230.34
758.51	230.13
758.84	229.89
759.17	229.70
759.49	229.51
759.82	229.46
760.15	229.34
760.47	229.16
760.80	228.89
761.13	228.77
761.45	228.59
761.78	228.45
762.11	228.29
762.43	228.12
762.76	227.98
763.08	227.85
763.41	227.69
763.74	227.56
764.06	227.44
764.39	227.31
764.71	227.17
765.04	227.01
765.37	226.84
765.69	226.70
766.02	226.58
766.34	226.44
766.67	226.24
767.00	226.14
767.32	226.12
767.65	226.13
767.97	225.95
768.30	225.84
768.62	225.68
768.95	225.54
769.27	225.42
769.60	225.31
769.92	225.19
770.25	225.02
770.57	224.85
770.90	224.72
771.22	224.59
771.55	224.48
771.87	224.38
772.20	224.27
772.52	224.32
772.85	224.46
773.17	224.36
773.50	224.21
773.82	224.07
774.15	223.88
774.47	223.66
774.80	223.56
775.12	223.46
775.45	223.38
775.77	223.29
776.09	223.19
776.42	223.11
776.74	223.09
777.07	223.02
777.39	222.97
777.72	222.90
778.04	222.84
778.36	222.71
778.69	222.65
779.01	222.60
779.33	222.37
779.66	222.05
779.98	221.99
780.31	221.95
780.63	221.98
780.95	221.93
781.28	221.89
781.60	221.77
781.92	221.72
782.25	221.67
782.57	221.60
782.89	221.56
783.22	221.48
783.54	221.38
783.86	221.34
784.19	221.28
784.51	221.22
784.83	221.12
785.16	221.06
785.48	220.97
785.80	220.92
786.12	220.82
786.45	220.79
786.77	220.71
787.09	220.63
787.42	220.48
787.74	220.45
788.06	220.38
788.38	220.32
788.71	220.24
789.03	220.20
789.35	220.17
789.67	220.08
789.99	220.06
790.32	219.98
790.64	219.93
790.96	220.02
791.28	219.92
791.61	219.86
791.93	219.86
792.25	219.82
792.57	219.89
792.89	219.81
793.21	219.76
793.54	219.69
793.86	219.60
794.18	219.56
794.50	219.48
794.82	219.45
795.14	219.49
795.47	219.47
795.79	219.41
796.11	219.33
796.43	219.31
796.75	219.22
797.07	219.18
797.39	219.14
797.71	218.97
798.04	218.97
798.36	218.99
798.68	218.90
799.00	218.91
799.32	218.79
799.64	218.80
799.96	218.76
800.28	218.75
800.60	218.73
800.92	218.68
801.24	218.61
801.56	218.56
801.89	218.44
802.21	218.43
802.53	218.38
802.85	218.42
803.17	218.46
803.49	218.47
803.81	218.41
804.13	218.38
804.45	218.33
804.77	218.31
805.09	218.27
805.41	218.22
805.73	218.13
806.05	218.07
806.37	218.05
806.69	218.00
807.01	217.97
807.33	217.93
807.65	217.84
807.97	217.96
808.28	217.96
808.60	217.95
808.92	217.88
809.24	217.97
809.56	217.91
809.88	217.79
810.20	217.71
810.52	217.76
810.84	217.68
811.16	217.65
811.48	217.59
811.80	217.63
812.12	217.64
812.43	217.68
812.75	217.65
813.07	217.58
813.39	217.54
813.71	217.51
814.03	217.46
814.35	217.46
814.67	217.33
814.98	217.25
815.30	217.21
815.62	217.16
815.94	217.01
816.26	216.95
816.58	216.91
816.89	216.89
817.21	216.81
817.53	216.84
817.85	216.82
818.17	216.76
818.48	216.66
818.80	216.66
819.12	216.56
819.44	216.53
819.76	216.48
820.07	216.48
820.39	216.46
820.71	216.48
821.03	216.47
821.34	216.43
821.66	216.45
821.98	216.46
822.30	216.42
822.61	216.52
822.93	216.52
823.25	216.50
823.57	216.47
823.88	216.50
824.20	216.45
824.52	216.44
824.83	216.45
825.15	216.41
825.47	216.38
825.79	216.39
826.10	216.38
826.42	216.38
826.74	216.40
827.05	216.41
827.37	216.40
827.69	216.37
828.00	216.38
828.32	216.39
828.64	216.38
828.95	216.53
829.27	216.48
829.58	216.47
829.90	216.50
830.22	216.52
830.53	216.43
830.85	216.42
831.17	216.38
831.48	216.37
831.80	216.38
832.11	216.34
832.43	216.35
832.75	216.33
833.06	216.43
833.38	216.34
833.69	216.32
834.01	216.31
834.32	216.31
834.64	216.27
834.96	216.23
835.27	216.21
835.59	216.10
835.90	216.00
836.22	215.98
836.53	215.92
836.85	215.89
837.16	216.13
837.48	216.13
837.79	216.18
838.11	216.21
838.42	216.22
838.74	216.26
839.05	216.18
839.37	216.17
839.68	216.04
840.00	216.04
840.31	216.03
840.63	216.02
840.94	215.99
841.26	215.96
841.57	215.97
841.88	215.96
842.20	215.95
842.51	215.93
842.83	215.92
843.14	216.11
843.46	216.11
843.77	215.94
844.08	215.88
844.40	215.82
844.71	215.76
845.03	215.75
845.34	215.73
845.65	215.76
845.97	215.73
846.28	215.74
846.60	215.77
846.91	215.73
847.22	215.72
847.54	215.75
847.85	215.78
848.16	215.75
848.48	215.71
848.79	215.77
849.10	215.79
849.42	215.80
849.73	215.61
850.04	215.61
850.36	215.56
850.67	215.61
850.98	215.60
851.30	215.61
851.61	215.57
851.92	215.54
852.23	215.59
852.55	215.59
852.86	215.59
853.17	215.59
853.49	215.62
853.80	215.64
854.11	215.64
854.42	215.66
854.74	215.64
855.05	215.64
855.36	215.51
855.67	215.54
855.99	215.52
856.30	215.78
856.61	215.76
856.92	215.75
857.23	215.74
857.55	215.75
857.86	215.72
858.17	215.76
858.48	215.75
858.79	215.71
859.11	215.72
859.42	215.73
859.73	215.70
860.04	215.71
860.35	215.64
860.66	215.61
860.98	215.58
861.29	215.59
861.60	215.59
861.91	215.67
862.22	215.60
862.53	215.59
862.84	215.32
863.16	215.36
863.47	215.33
863.78	215.28
864.09	215.28
864.40	215.29
864.71	215.28
865.02	215.28
865.33	215.22
865.64	215.22
865.95	215.18
866.27	215.33
866.58	215.30
866.89	215.34
867.20	215.31
867.51	215.28
867.82	215.27
868.13	215.34
868.44	215.30
868.75	215.39
869.06	215.38
869.37	215.39
869.68	215.32
869.99	215.38
870.30	215.41
870.61	215.40
870.92	215.40
871.23	215.39
871.54	215.41
871.85	215.48
872.16	215.52
872.47	215.55
872.78	215.41
873.09	215.40
873.40	215.38
873.71	215.39
874.02	215.41
874.33	215.38
874.64	215.32
874.95	215.34
875.26	215.26
875.56	215.27
875.87	215.29
876.18	215.30
876.49	215.49
876.80	215.49
877.11	215.47
877.42	215.48
877.73	215.49
878.04	215.51
878.35	215.48
878.66	215.47
878.96	215.45
879.27	215.46
879.58	215.47
879.89	215.46
880.20	215.52
880.51	215.54
880.82	215.56
881.12	215.55
881.43	215.52
881.74	215.50
882.05	215.47
882.36	215.48
882.67	215.51
882.97	215.29
883.28	215.28
883.59	215.30
883.90	215.33
884.21	215.36
884.51	215.31
884.82	215.28
885.13	215.28
885.44	215.25
885.74	215.26
886.05	215.26
886.36	215.27
886.67	215.19
886.98	215.28
887.28	215.30
887.59	215.31
887.90	215.31
888.20	215.33
888.51	215.39
888.82	215.34
889.13	215.34
889.43	215.48
889.74	215.46
890.05	215.41
890.35	215.37
890.66	215.33
890.97	215.29
891.28	215.29
891.58	215.27
891.89	215.30
892.20	215.24
892.50	215.22
892.81	215.18
893.12	215.20
893.42	215.08
893.73	215.08
894.04	215.07
894.34	215.09
894.65	215.09
894.95	215.05
895.26	215.09
895.57	215.17
895.87	214.98
896.18	215.01
896.48	215.04
896.79	215.02
897.10	215.06
897.40	215.07
897.71	215.13
898.01	215.12
898.32	215.10
898.63	215.10
898.93	215.14
899.24	215.17
899.54	215.13
899.85	215.15
900.15	215.14
900.46	215.15
900.76	215.17
901.07	215.17
901.38	215.17
901.68	215.14
901.99	215.04
902.29	215.07
902.60	215.05
902.90	215.02
903.21	215.03
903.51	215.02
903.82	215.08
904.12	215.04
904.43	215.06
904.73	215.09
905.03	215.10
905.34	215.29
905.64	215.28
905.95	215.30
906.25	215.28
906.56	215.28
906.86	215.29
907.17	215.24
907.47	215.23
907.77	215.21
908.08	215.19
908.38	215.22
908.69	215.24
908.99	215.25
909.30	215.28
909.60	215.31
909.90	215.30
910.21	215.23
910.51	215.21
910.81	215.20
911.12	215.24
911.42	215.27
911.73	215.03
912.03	215.02
912.33	215.04
912.64	215.05
912.94	215.05
913.24	214.97
913.55	214.97
913.85	214.96
914.15	215.02
914.46	215.08
914.76	215.05
915.06	215.02
915.37	214.99
915.67	214.97
915.97	214.96
916.27	214.93
916.58	214.90
916.88	214.91
917.18	214.87
917.49	214.97
917.79	214.94
918.09	214.97
918.39	215.03
918.70	215.05
919.00	215.04
919.30	215.12
919.60	215.14
919.91	215.13
920.21	215.15
920.51	215.08
920.81	215.02
921.12	215.05
921.42	215.06
921.72	215.08
922.02	215.10
922.32	215.15
922.63	215.14
922.93	215.30
923.23	215.30
923.53	215.32
923.83	215.18
924.13	215.19
924.44	215.21
924.74	215.26
925.04	215.29
925.34	215.28
925.64	215.19
925.94	215.19
926.24	215.28
926.55	215.25
926.85	215.28
927.15	215.32
927.45	215.32
927.75	215.30
928.05	215.31
928.35	215.28
928.65	215.29
928.95	215.30
929.26	215.20
929.56	215.22
929.86	215.22
930.16	215.20
930.46	215.18
930.76	215.15
931.06	215.08
931.36	215.01
931.66	215.04
931.96	215.11
932.26	215.13
932.56	215.06
932.86	215.07
933.16	215.10
933.46	215.06
933.76	215.01
934.06	215.07
934.36	215.13
934.66	215.16
934.96	215.13
935.26	215.14
935.56	215.21
935.86	215.15
936.16	215.13
936.46	215.12
936.76	215.11
937.06	215.11
937.36	215.10
937.66	215.12
937.96	215.10
938.26	214.99
938.56	214.96
938.86	214.97
939.16	215.04
939.46	215.03
939.76	215.05
940.06	215.05
940.35	214.98
940.65	214.89
940.95	214.87
941.25	214.81
941.55	214.78
941.85	214.74
942.15	214.77
942.45	214.82
942.75	214.86
943.04	214.88
943.34	214.91
943.64	214.85
943.94	214.81
944.24	214.83
944.54	214.88
944.84	214.87
945.13	214.84
945.43	214.77
945.73	214.76
946.03	214.74
946.33	214.73
946.62	214.72
946.92	214.72
947.22	214.76
947.52	214.80
947.82	214.82
948.11	214.82
948.41	214.80
948.71	214.74
949.01	214.73
949.31	214.68
949.60	214.67
949.90	214.71
950.20	214.73
950.50	214.73
950.79	214.69
951.09	214.74
951.39	214.73
951.69	214.74
951.98	214.79
952.28	214.80
952.58	214.75
952.87	214.75
953.17	214.79
953.47	214.76
953.76	214.77
954.06	214.74
954.36	214.69
954.66	214.67
954.95	214.72
955.25	214.73
955.55	214.76
955.84	214.71
956.14	214.73
956.44	214.75
956.73	214.70
957.03	214.72
957.32	214.67
957.62	214.69
957.92	214.71
958.21	214.66
958.51	214.90
958.81	214.95
959.10	214.99
959.40	215.01
959.69	214.98
959.99	214.99
960.29	214.99
960.58	214.99
960.88	215.10
961.17	215.09
961.47	215.13
961.76	215.12
962.06	215.17
962.36	215.12
962.65	215.13
962.95	215.15
963.24	215.16
963.54	215.19
963.83	215.19
964.13	215.17
964.42	215.16
964.72	215.00
965.01	215.01
965.31	214.95
965.60	214.93
965.90	215.10
966.19	215.04
966.49	215.07
966.78	215.08
967.08	215.01
967.37	215.01
967.67	214.91
967.96	214.95
968.26	214.93
968.55	214.98
968.85	214.96
969.14	214.94
969.43	214.90
969.73	214.89
970.02	214.87
970.32	214.85
970.61	214.84
970.91	214.77
971.20	214.76
971.49	214.79
971.79	214.78
972.08	214.62
972.38	214.67
972.67	214.64
972.96	214.68
973.26	214.66
973.55	214.70
973.85	214.71
974.14	214.65
974.43	214.67
974.73	214.60
975.02	214.62
975.31	214.61
975.61	214.65
975.90	214.66
976.19	214.65
976.49	214.66
976.78	214.67
977.07	214.67
977.37	214.69
977.66	214.70
977.95	214.66
978.24	214.69
978.54	214.70
978.83	214.68
979.12	214.68
979.42	214.70
979.71	214.66
980.00	214.68
980.29	214.72
980.59	214.71
980.88	214.78
981.17	214.74
981.46	214.75
981.76	214.74
982.05	214.79
982.34	214.80
982.63	214.80
982.93	214.81
983.22	214.88
983.51	214.88
983.80	214.92
984.09	214.98
984.39	214.98
984.68	214.96
984.97	214.99
985.26	214.94
985.55	214.95
985.85	214.91
986.14	214.95
986.43	214.97
986.72	214.94
987.01	214.90
987.30	214.93
987.59	214.94
987.89	214.93
988.18	214.86
988.47	214.84
988.76	214.82
989.05	214.78
989.34	214.71
989.63	214.75
989.92	214.67
990.22	214.63
990.51	214.61
990.80	214.56
991.09	214.54
991.38	214.58
991.67	214.56
991.96	214.55
992.25	214.55
992.54	214.49
992.83	214.49
993.12	214.45
993.41	214.48
993.70	214.54
993.99	214.58
994.28	214.61
994.58	214.66
994.87	214.68
995.16	214.67
995.45	214.63
995.74	214.58
996.03	214.66
996.32	214.68
996.61	214.70
996.90	214.74
997.19	214.74
997.48	214.72
997.77	214.71
998.06	214.72
998.34	214.66
998.63	214.65
998.92	214.65
999.21	214.72
999.50	214.71
999.79	214.63
1000.08	214.63
1000.37	214.63
1000.66	214.58
1000.95	214.61
1001.24	214.61
1001.53	214.64
1001.82	214.62
1002.11	214.58
1002.40	214.60
1002.68	214.64
1002.97	214.77
1003.26	214.76
1003.55	214.75
1003.84	214.76
1004.13	214.83
1004.42	214.85
1004.71	214.87
1004.99	214.85
1005.28	214.88
1005.57	214.87
1005.86	214.88
1006.15	214.87
1006.44	214.83
1006.72	214.87
1007.01	214.83
1007.30	214.86
1007.59	214.88
1007.88	214.88
1008.17	214.87
1008.45	214.85
1008.74	214.77
1009.03	214.66
1009.32	214.69
1009.60	214.70
1009.89	214.69
1010.18	214.62
1010.47	214.61
1010.76	214.61
1011.04	214.64
1011.33	214.63
1011.62	214.65
1011.91	214.63
1012.19	214.66
1012.48	214.69
1012.77	214.68
1013.05	214.82
1013.34	214.84
1013.63	214.79
1013.92	214.83
1014.20	214.82
1014.49	214.82
1014.78	214.82
1015.06	214.78
1015.35	214.78
1015.64	214.81
1015.92	214.84
1016.21	214.84
1016.50	214.84
1016.78	214.89
1017.07	214.90
1017.36	214.86
1017.64	214.83
1017.93	214.89
1018.22	214.84
1018.50	214.82
1018.79	214.81
1019.08	214.69
1019.36	214.68
1019.65	214.70
1019.93	214.73
1020.22	214.77
1020.51	214.84
1020.79	214.83
1021.08	214.08
1021.36	214.37
1021.65	214.70
1021.94	214.83
1022.22	214.70
1022.51	214.47
1022.79	215.87
1023.08	214.95
1023.36	216.47
1023.65	214.11
>>>>>End Processed Spectral Data<<<<<
