SpectraSuite Data File
++++++++++++++++++++++++++++++++++++
Date: Tue Jan 29 16:25:40 EST 2013
User: group
Dark Spectrum Present: No
Reference Spectrum Present: No
Number of Sampled Component Spectra: 1
Spectrometers: USB2E7196
Integration Time (usec): 65000 (USB2E7196)
Spectra Averaged: 100 (USB2E7196)
Boxcar Smoothing: 10 (USB2E7196)
Correct for Electrical Dark: No (USB2E7196)
Strobe/Lamp Enabled: No (USB2E7196)
Correct for Detector Non-linearity: No (USB2E7196)
Correct for Stray Light: No (USB2E7196)
Number of Pixels in Processed Spectrum: 2048
>>>>>Begin Processed Spectral Data<<<<<
339.09	0.00
339.48	202.11
339.86	203.34
340.24	205.04
340.63	206.26
341.01	210.60
341.39	208.93
341.78	210.05
342.16	212.11
342.54	211.59
342.93	201.18
343.31	211.33
343.69	211.86
344.07	212.33
344.46	212.76
344.84	213.17
345.22	213.37
345.60	213.67
345.99	213.90
346.37	214.02
346.75	214.14
347.13	214.22
347.52	214.33
347.90	214.44
348.28	214.47
348.66	214.57
349.05	214.52
349.43	214.61
349.81	214.73
350.19	214.81
350.57	214.91
350.96	215.01
351.34	215.14
351.72	215.25
352.10	215.37
352.48	215.43
352.87	215.48
353.25	215.52
353.63	215.53
354.01	215.54
354.39	215.63
354.77	215.73
355.15	215.86
355.54	215.87
355.92	215.87
356.30	215.96
356.68	216.14
357.06	216.26
357.44	216.31
357.82	216.34
358.20	216.42
358.58	216.49
358.97	216.53
359.35	216.64
359.73	216.74
360.11	216.83
360.49	216.92
360.87	216.98
361.25	217.07
361.63	217.24
362.01	217.34
362.39	217.36
362.77	217.42
363.15	217.42
363.53	217.48
363.91	217.51
364.29	217.52
364.67	217.36
365.05	217.37
365.43	217.38
365.81	217.40
366.19	217.52
366.57	217.60
366.95	217.58
367.33	217.51
367.71	217.51
368.09	217.51
368.47	217.49
368.85	217.48
369.23	217.51
369.61	217.40
369.99	217.45
370.37	217.46
370.75	217.56
371.13	217.52
371.51	217.46
371.89	217.49
372.27	217.50
372.65	217.48
373.03	217.45
373.41	217.45
373.78	217.42
374.16	217.27
374.54	217.19
374.92	217.18
375.30	217.16
375.68	217.09
376.06	217.07
376.44	217.01
376.82	216.99
377.19	216.92
377.57	216.88
377.95	216.76
378.33	216.72
378.71	216.56
379.09	216.57
379.47	216.54
379.84	216.46
380.22	216.42
380.60	216.36
380.98	216.29
381.36	216.23
381.73	216.14
382.11	216.12
382.49	216.08
382.87	216.00
383.25	215.97
383.62	216.19
384.00	216.11
384.38	216.09
384.76	216.07
385.13	216.11
385.51	216.11
385.89	216.06
386.27	216.03
386.64	215.99
387.02	215.95
387.40	215.92
387.78	215.89
388.15	215.87
388.53	215.84
388.91	215.84
389.29	215.82
389.66	215.88
390.04	215.85
390.42	215.84
390.79	215.86
391.17	215.80
391.55	215.54
391.92	215.53
392.30	215.54
392.68	215.49
393.05	215.46
393.43	215.43
393.81	215.48
394.18	215.45
394.56	215.47
394.94	215.46
395.31	215.45
395.69	215.54
396.06	215.57
396.44	215.62
396.82	215.63
397.19	215.74
397.57	215.72
397.95	215.76
398.32	215.75
398.70	215.78
399.07	215.92
399.45	215.92
399.82	215.96
400.20	216.00
400.58	216.07
400.95	216.05
401.33	216.15
401.70	216.31
402.08	216.40
402.45	216.48
402.83	216.66
403.20	216.79
403.58	216.84
403.95	216.95
404.33	217.08
404.71	217.21
405.08	217.47
405.46	217.62
405.83	217.81
406.21	218.03
406.58	218.26
406.96	218.47
407.33	218.77
407.70	219.09
408.08	219.52
408.45	219.85
408.83	220.25
409.20	220.60
409.58	220.91
409.95	221.37
410.33	221.86
410.70	222.28
411.08	222.82
411.45	223.38
411.82	223.96
412.20	224.66
412.57	225.51
412.95	226.06
413.32	226.85
413.69	227.71
414.07	228.59
414.44	229.58
414.82	230.61
415.19	231.75
415.56	232.96
415.94	234.16
416.31	235.59
416.68	236.96
417.06	238.55
417.43	240.07
417.81	241.78
418.18	243.59
418.55	245.48
418.93	247.49
419.30	249.62
419.67	251.82
420.04	254.07
420.42	256.40
420.79	259.22
421.16	262.04
421.54	264.90
421.91	267.90
422.28	270.95
422.66	274.17
423.03	277.41
423.40	280.73
423.77	284.28
424.15	287.91
424.52	291.72
424.89	295.87
425.26	299.93
425.64	303.80
426.01	308.01
426.38	312.53
426.75	317.04
427.13	321.74
427.50	326.73
427.87	331.94
428.24	337.09
428.61	342.05
428.99	347.52
429.36	353.53
429.73	359.35
430.10	365.23
430.47	371.27
430.85	377.55
431.22	384.16
431.59	391.31
431.96	398.10
432.33	405.62
432.70	412.84
433.08	421.36
433.45	429.41
433.82	437.40
434.19	446.23
434.56	454.92
434.93	463.20
435.30	471.44
435.68	480.49
436.05	489.50
436.42	498.33
436.79	506.43
437.16	515.13
437.53	524.34
437.90	533.45
438.27	542.39
438.64	551.52
439.01	560.06
439.38	567.50
439.75	574.76
440.13	583.14
440.50	591.09
440.87	597.50
441.24	604.10
441.61	611.44
441.98	616.81
442.35	623.11
442.72	629.44
443.09	635.45
443.46	639.17
443.83	641.66
444.20	643.86
444.57	646.97
444.94	648.48
445.31	649.98
445.68	651.30
446.05	651.97
446.42	651.27
446.79	650.33
447.16	649.33
447.53	648.59
447.90	645.18
448.27	641.92
448.64	637.23
449.01	633.92
449.37	628.03
449.74	622.28
450.11	615.37
450.48	607.96
450.85	600.57
451.22	594.10
451.59	587.97
451.96	582.16
452.33	574.31
452.70	567.17
453.07	558.73
453.43	550.15
453.80	541.86
454.17	533.86
454.54	526.34
454.91	518.20
455.28	510.24
455.65	502.96
456.02	495.41
456.38	489.15
456.75	481.36
457.12	474.78
457.49	468.39
457.86	462.26
458.23	456.88
458.59	450.95
458.96	445.02
459.33	439.77
459.70	434.48
460.07	430.24
460.43	425.37
460.80	420.76
461.17	416.84
461.54	412.67
461.91	408.69
462.27	404.62
462.64	401.18
463.01	397.42
463.38	393.65
463.74	389.99
464.11	386.77
464.48	383.92
464.85	380.87
465.21	378.41
465.58	375.78
465.95	372.69
466.32	370.09
466.68	367.48
467.05	364.88
467.42	362.32
467.78	359.67
468.15	357.12
468.52	355.22
468.88	352.69
469.25	350.46
469.62	348.63
469.98	346.66
470.35	344.88
470.72	343.23
471.08	341.46
471.45	339.97
471.82	338.42
472.18	336.78
472.55	335.55
472.92	334.15
473.28	332.97
473.65	331.81
474.02	330.73
474.38	329.83
474.75	329.08
475.11	328.27
475.48	327.71
475.85	327.28
476.21	326.80
476.58	326.50
476.94	326.32
477.31	326.00
477.67	325.79
478.04	325.65
478.41	325.59
478.77	325.78
479.14	325.76
479.50	325.91
479.87	326.20
480.23	326.55
480.60	326.81
480.96	327.05
481.33	327.63
481.69	328.19
482.06	328.71
482.42	329.19
482.79	329.78
483.15	330.55
483.52	331.51
483.88	332.41
484.25	333.38
484.61	334.38
484.98	335.48
485.34	336.78
485.71	338.12
486.07	339.61
486.44	340.94
486.80	342.56
487.17	344.22
487.53	346.05
487.90	347.87
488.26	349.91
488.62	352.09
488.99	354.17
489.35	356.35
489.72	358.79
490.08	361.36
490.44	363.94
490.81	366.70
491.17	369.37
491.54	372.37
491.90	375.42
492.26	378.70
492.63	382.08
492.99	385.57
493.36	389.28
493.72	393.11
494.08	397.15
494.45	401.38
494.81	405.80
495.17	410.25
495.54	415.06
495.90	419.89
496.26	424.83
496.63	430.03
496.99	435.46
497.35	441.01
497.72	446.82
498.08	452.81
498.44	458.91
498.80	465.37
499.17	471.92
499.53	478.68
499.89	485.53
500.26	492.57
500.62	499.64
500.98	507.07
501.34	514.63
501.71	522.53
502.07	530.30
502.43	538.30
502.79	546.53
503.16	554.93
503.52	563.61
503.88	572.37
504.24	581.50
504.60	590.60
504.97	599.94
505.33	609.25
505.69	619.15
506.05	629.09
506.41	638.98
506.78	649.07
507.14	659.37
507.50	669.92
507.86	680.70
508.22	691.64
508.59	702.37
508.95	713.44
509.31	724.75
509.67	736.35
510.03	747.89
510.39	759.70
510.75	771.66
511.12	783.65
511.48	795.78
511.84	808.06
512.20	820.56
512.56	833.30
512.92	846.30
513.28	859.04
513.64	871.90
514.00	884.92
514.37	898.04
514.73	911.20
515.09	924.33
515.45	937.36
515.81	950.49
516.17	963.91
516.53	977.24
516.89	990.44
517.25	1003.75
517.61	1017.41
517.97	1030.91
518.33	1044.13
518.69	1057.80
519.05	1071.75
519.41	1085.58
519.77	1099.60
520.13	1113.05
520.49	1126.29
520.85	1139.82
521.21	1153.27
521.57	1167.13
521.93	1180.20
522.29	1194.11
522.65	1207.90
523.01	1221.74
523.37	1235.13
523.73	1248.63
524.09	1261.99
524.45	1275.53
524.81	1289.17
525.17	1302.70
525.53	1316.10
525.89	1329.44
526.25	1342.71
526.61	1355.70
526.97	1368.92
527.33	1381.96
527.68	1395.62
528.04	1409.21
528.40	1422.45
528.76	1435.92
529.12	1448.80
529.48	1462.30
529.84	1474.57
530.20	1487.35
530.56	1499.89
530.91	1513.18
531.27	1526.12
531.63	1538.93
531.99	1551.77
532.35	1564.09
532.71	1576.57
533.07	1589.55
533.42	1602.04
533.78	1614.20
534.14	1626.33
534.50	1637.63
534.86	1649.32
535.21	1660.13
535.57	1671.71
535.93	1683.11
536.29	1694.31
536.65	1706.00
537.00	1717.08
537.36	1728.64
537.72	1739.69
538.08	1751.23
538.44	1762.31
538.79	1773.54
539.15	1784.60
539.51	1795.54
539.87	1806.85
540.22	1817.58
540.58	1828.53
540.94	1839.38
541.29	1849.73
541.65	1859.61
542.01	1870.14
542.37	1880.25
542.72	1890.60
543.08	1900.55
543.44	1911.14
543.79	1920.39
544.15	1929.77
544.51	1939.74
544.87	1949.80
545.22	1959.12
545.58	1968.08
545.94	1977.04
546.29	1985.53
546.65	1993.86
547.01	2002.06
547.36	2009.83
547.72	2017.87
548.07	2025.42
548.43	2033.37
548.79	2041.41
549.14	2049.70
549.50	2058.27
549.86	2066.23
550.21	2073.73
550.57	2081.37
550.92	2088.17
551.28	2095.80
551.64	2103.17
551.99	2110.72
552.35	2117.90
552.70	2124.92
553.06	2131.65
553.41	2137.92
553.77	2144.57
554.13	2150.96
554.48	2158.17
554.84	2165.34
555.19	2171.76
555.55	2178.42
555.90	2184.64
556.26	2191.49
556.61	2197.41
556.97	2202.22
557.32	2207.98
557.68	2214.43
558.03	2220.23
558.39	2225.50
558.74	2231.50
559.10	2237.31
559.45	2243.14
559.81	2248.69
560.16	2254.11
560.52	2260.01
560.87	2266.53
561.23	2272.60
561.58	2279.50
561.94	2284.65
562.29	2289.53
562.64	2295.65
563.00	2301.30
563.35	2306.94
563.71	2312.77
564.06	2318.56
564.42	2324.75
564.77	2329.78
565.12	2335.02
565.48	2340.25
565.83	2345.94
566.19	2351.52
566.54	2356.72
566.89	2361.37
567.25	2366.08
567.60	2371.97
567.96	2377.14
568.31	2381.77
568.66	2385.99
569.02	2389.95
569.37	2393.73
569.72	2398.03
570.08	2401.66
570.43	2404.66
570.78	2407.95
571.14	2410.45
571.49	2413.70
571.84	2417.18
572.20	2420.13
572.55	2423.19
572.90	2425.54
573.26	2428.31
573.61	2430.93
573.96	2433.17
574.31	2435.09
574.67	2437.02
575.02	2437.78
575.37	2439.38
575.72	2440.05
576.08	2441.66
576.43	2441.85
576.78	2442.48
577.13	2444.02
577.49	2445.25
577.84	2446.51
578.19	2447.79
578.54	2448.34
578.90	2448.99
579.25	2449.04
579.60	2449.16
579.95	2448.43
580.30	2448.53
580.66	2448.03
581.01	2446.28
581.36	2443.93
581.71	2442.62
582.06	2441.40
582.42	2440.60
582.77	2438.43
583.12	2436.98
583.47	2435.50
583.82	2434.99
584.17	2433.70
584.53	2431.79
584.88	2429.88
585.23	2428.04
585.58	2425.74
585.93	2423.88
586.28	2421.76
586.63	2419.39
586.98	2417.19
587.34	2415.31
587.69	2413.02
588.04	2410.97
588.39	2409.56
588.74	2407.18
589.09	2404.51
589.44	2401.44
589.79	2398.91
590.14	2396.97
590.49	2394.07
590.84	2390.23
591.19	2387.04
591.54	2383.78
591.89	2379.82
592.25	2376.43
592.60	2372.18
592.95	2368.12
593.30	2363.93
593.65	2359.48
594.00	2354.97
594.35	2351.96
594.70	2347.13
595.05	2342.45
595.40	2336.86
595.75	2331.17
596.10	2327.43
596.45	2322.44
596.80	2317.93
597.15	2312.77
597.50	2306.79
597.85	2301.90
598.19	2296.72
598.54	2290.91
598.89	2285.64
599.24	2280.98
599.59	2274.67
599.94	2268.84
600.29	2262.70
600.64	2256.71
600.99	2249.93
601.34	2244.36
601.69	2237.20
602.04	2230.82
602.39	2224.17
602.74	2218.06
603.08	2212.47
603.43	2205.96
603.78	2199.15
604.13	2191.86
604.48	2184.44
604.83	2178.25
605.18	2171.95
605.53	2164.94
605.87	2157.75
606.22	2150.82
606.57	2142.85
606.92	2134.83
607.27	2127.72
607.62	2121.18
607.96	2114.13
608.31	2107.66
608.66	2099.85
609.01	2092.28
609.36	2085.17
609.70	2077.35
610.05	2069.54
610.40	2060.97
610.75	2052.46
611.10	2044.53
611.44	2035.71
611.79	2026.96
612.14	2016.73
612.49	2005.85
612.83	1996.61
613.18	1987.45
613.53	1978.11
613.88	1968.39
614.22	1959.80
614.57	1949.88
614.92	1939.19
615.27	1928.86
615.61	1918.64
615.96	1908.82
616.31	1899.25
616.65	1889.77
617.00	1880.03
617.35	1870.35
617.70	1860.68
618.04	1850.61
618.39	1840.43
618.74	1830.65
619.08	1820.94
619.43	1812.27
619.78	1804.00
620.12	1795.22
620.47	1785.52
620.82	1775.07
621.16	1765.23
621.51	1755.11
621.85	1745.30
622.20	1734.78
622.55	1724.22
622.89	1714.27
623.24	1704.56
623.59	1694.62
623.93	1684.28
624.28	1674.29
624.62	1664.07
624.97	1653.65
625.32	1643.86
625.66	1634.87
626.01	1626.11
626.35	1616.72
626.70	1606.57
627.04	1596.39
627.39	1586.13
627.73	1576.70
628.08	1567.81
628.43	1558.15
628.77	1548.96
629.12	1539.94
629.46	1532.11
629.81	1523.66
630.15	1514.09
630.50	1504.16
630.84	1493.57
631.19	1483.59
631.53	1474.22
631.88	1464.05
632.22	1453.99
632.57	1444.52
632.91	1434.35
633.26	1424.31
633.60	1414.65
633.95	1405.28
634.29	1395.71
634.64	1386.35
634.98	1376.15
635.32	1366.79
635.67	1358.20
636.01	1348.84
636.36	1338.94
636.70	1329.15
637.05	1319.66
637.39	1310.59
637.73	1301.82
638.08	1294.22
638.42	1286.01
638.77	1277.23
639.11	1268.80
639.45	1260.87
639.80	1252.23
640.14	1243.39
640.49	1234.40
640.83	1225.47
641.17	1217.26
641.52	1208.99
641.86	1200.28
642.20	1192.39
642.55	1183.59
642.89	1174.62
643.23	1165.90
643.58	1157.75
643.92	1148.68
644.26	1139.82
644.61	1131.30
644.95	1122.37
645.29	1113.08
645.64	1103.74
645.98	1095.15
646.32	1087.07
646.66	1078.43
647.01	1070.03
647.35	1061.78
647.69	1053.40
648.04	1045.05
648.38	1036.00
648.72	1027.15
649.06	1018.53
649.41	1010.22
649.75	1002.20
650.09	994.21
650.43	986.08
650.78	977.64
651.12	969.90
651.46	962.44
651.80	955.02
652.14	947.63
652.49	939.90
652.83	932.46
653.17	924.60
653.51	916.84
653.85	909.56
654.20	902.15
654.54	894.62
654.88	887.27
655.22	879.98
655.56	872.82
655.90	865.98
656.25	859.27
656.59	852.32
656.93	845.17
657.27	838.02
657.61	830.92
657.95	824.74
658.29	818.69
658.64	812.50
658.98	806.00
659.32	799.46
659.66	793.18
660.00	786.79
660.34	780.64
660.68	774.51
661.02	768.15
661.36	762.15
661.70	756.35
662.05	750.70
662.39	745.06
662.73	739.69
663.07	734.23
663.41	728.52
663.75	722.78
664.09	717.00
664.43	711.45
664.77	706.05
665.11	700.23
665.45	694.33
665.79	688.38
666.13	682.69
666.47	677.09
666.81	671.59
667.15	666.19
667.49	660.99
667.83	655.59
668.17	650.21
668.51	645.01
668.85	639.99
669.19	635.02
669.53	629.99
669.87	624.83
670.21	620.06
670.55	615.31
670.89	610.77
671.23	606.47
671.57	602.04
671.91	597.67
672.25	593.35
672.58	589.12
672.92	585.04
673.26	580.97
673.60	577.03
673.94	573.19
674.28	569.49
674.62	565.62
674.96	561.92
675.30	558.36
675.64	554.63
675.97	550.94
676.31	547.24
676.65	543.59
676.99	540.06
677.33	536.12
677.67	532.41
678.01	528.49
678.34	524.74
678.68	521.13
679.02	517.51
679.36	513.78
679.70	510.07
680.04	506.46
680.37	502.97
680.71	499.56
681.05	496.28
681.39	493.02
681.73	489.85
682.06	486.73
682.40	483.61
682.74	480.37
683.08	477.14
683.42	473.82
683.75	470.75
684.09	467.67
684.43	464.84
684.77	461.85
685.10	458.98
685.44	456.07
685.78	453.15
686.12	450.36
686.45	447.66
686.79	445.00
687.13	442.48
687.46	439.82
687.80	437.12
688.14	434.25
688.48	431.52
688.81	428.75
689.15	426.17
689.49	423.54
689.82	421.05
690.16	418.40
690.50	415.98
690.83	413.43
691.17	410.85
691.51	408.36
691.84	406.05
692.18	403.83
692.52	401.58
692.85	399.42
693.19	397.21
693.52	395.03
693.86	392.76
694.20	390.48
694.53	388.33
694.87	386.09
695.21	383.93
695.54	381.79
695.88	379.63
696.21	377.35
696.55	375.15
696.88	373.03
697.22	371.03
697.56	369.09
697.89	367.19
698.23	365.44
698.56	363.60
698.90	361.83
699.23	359.94
699.57	357.98
699.90	356.06
700.24	354.20
700.58	352.36
700.91	350.64
701.25	349.06
701.58	347.35
701.92	345.76
702.25	344.14
702.59	342.49
702.92	340.95
703.26	339.42
703.59	337.93
703.93	336.62
704.26	335.16
704.60	333.65
704.93	332.13
705.26	330.62
705.60	329.10
705.93	327.57
706.27	326.23
706.60	324.98
706.94	323.77
707.27	322.38
707.61	321.02
707.94	319.67
708.27	318.16
708.61	316.79
708.94	315.40
709.28	314.09
709.61	312.83
709.94	311.59
710.28	310.36
710.61	309.16
710.95	307.75
711.28	306.66
711.61	305.46
711.95	304.36
712.28	303.14
712.61	301.94
712.95	300.85
713.28	299.77
713.61	298.61
713.95	297.41
714.28	296.39
714.61	295.32
714.95	294.29
715.28	293.25
715.61	292.19
715.95	291.19
716.28	290.20
716.61	289.21
716.95	288.23
717.28	287.25
717.61	286.29
717.94	285.39
718.28	284.34
718.61	283.47
718.94	282.53
719.27	281.68
719.61	280.90
719.94	280.02
720.27	279.03
720.60	278.16
720.94	277.35
721.27	276.56
721.60	275.91
721.93	275.16
722.27	274.53
722.60	273.83
722.93	273.07
723.26	272.37
723.59	271.64
723.93	270.98
724.26	270.35
724.59	269.71
724.92	269.09
725.25	268.57
725.59	267.98
725.92	267.44
726.25	266.83
726.58	266.24
726.91	265.63
727.24	265.12
727.57	264.55
727.91	263.94
728.24	263.41
728.57	262.77
728.90	262.19
729.23	261.52
729.56	261.07
729.89	260.55
730.22	260.00
730.55	259.48
730.89	258.94
731.22	258.41
731.55	257.87
731.88	257.34
732.21	256.78
732.54	256.24
732.87	255.72
733.20	255.25
733.53	254.76
733.86	254.32
734.19	253.77
734.52	253.34
734.85	253.08
735.18	252.57
735.51	252.23
735.84	251.81
736.17	251.45
736.50	250.95
736.83	250.78
737.16	250.44
737.49	250.08
737.82	249.65
738.15	249.27
738.48	248.89
738.81	248.47
739.14	248.06
739.47	247.67
739.80	247.27
740.13	246.91
740.46	246.49
740.79	246.07
741.12	245.74
741.45	245.37
741.78	244.88
742.11	244.59
742.44	244.19
742.77	243.91
743.10	243.53
743.43	243.16
743.75	242.59
744.08	242.50
744.41	242.12
744.74	241.78
745.07	241.41
745.40	241.10
745.73	240.86
746.06	240.51
746.39	240.18
746.71	239.84
747.04	239.49
747.37	239.20
747.70	238.94
748.03	238.62
748.36	238.33
748.68	237.99
749.01	237.64
749.34	237.35
749.67	237.05
750.00	236.79
750.33	236.68
750.65	236.41
750.98	235.88
751.31	235.60
751.64	235.40
751.97	235.26
752.29	234.98
752.62	234.63
752.95	234.39
753.28	234.13
753.60	233.88
753.93	233.72
754.26	233.46
754.59	233.18
754.91	232.92
755.24	232.69
755.57	232.48
755.90	232.28
756.22	232.00
756.55	231.75
756.88	231.52
757.20	231.16
757.53	230.93
757.86	230.71
758.19	230.51
758.51	230.27
758.84	229.96
759.17	229.77
759.49	229.60
759.82	229.52
760.15	229.34
760.47	229.15
760.80	228.90
761.13	228.79
761.45	228.60
761.78	228.45
762.11	228.24
762.43	228.02
762.76	227.84
763.08	227.69
763.41	227.51
763.74	227.33
764.06	227.16
764.39	227.01
764.71	226.85
765.04	226.68
765.37	226.52
765.69	226.38
766.02	226.26
766.34	226.13
766.67	225.91
767.00	225.83
767.32	225.82
767.65	225.81
767.97	225.66
768.30	225.54
768.62	225.39
768.95	225.27
769.27	225.22
769.60	225.10
769.92	224.96
770.25	224.83
770.57	224.68
770.90	224.57
771.22	224.44
771.55	224.34
771.87	224.26
772.20	224.15
772.52	224.19
772.85	224.28
773.17	224.16
773.50	224.03
773.82	223.88
774.15	223.66
774.47	223.46
774.80	223.33
775.12	223.25
775.45	223.19
775.77	223.11
776.09	222.99
776.42	222.92
776.74	222.91
777.07	222.82
777.39	222.74
777.72	222.65
778.04	222.59
778.36	222.50
778.69	222.40
779.01	222.31
779.33	222.07
779.66	221.76
779.98	221.65
780.31	221.60
780.63	221.62
780.95	221.57
781.28	221.50
781.60	221.42
781.92	221.32
782.25	221.21
782.57	221.16
782.89	221.12
783.22	221.03
783.54	220.94
783.86	220.89
784.19	220.80
784.51	220.81
784.83	220.74
785.16	220.65
785.48	220.61
785.80	220.58
786.12	220.52
786.45	220.47
786.77	220.46
787.09	220.38
787.42	220.26
787.74	220.20
788.06	220.16
788.38	220.07
788.71	220.01
789.03	219.97
789.35	219.91
789.67	219.81
789.99	219.78
790.32	219.69
790.64	219.66
790.96	219.80
791.28	219.66
791.61	219.59
791.93	219.55
792.25	219.47
792.57	219.55
792.89	219.48
793.21	219.46
793.54	219.37
793.86	219.30
794.18	219.23
794.50	219.19
794.82	219.12
795.14	219.12
795.47	219.13
795.79	219.10
796.11	219.00
796.43	218.97
796.75	218.93
797.07	218.88
797.39	218.79
797.71	218.59
798.04	218.56
798.36	218.53
798.68	218.49
799.00	218.48
799.32	218.33
799.64	218.34
799.96	218.31
800.28	218.29
800.60	218.27
800.92	218.27
801.24	218.17
801.56	218.14
801.89	218.06
802.21	218.03
802.53	217.98
802.85	218.00
803.17	218.06
803.49	217.98
803.81	217.94
804.13	217.92
804.45	217.87
804.77	217.85
805.09	217.79
805.41	217.74
805.73	217.65
806.05	217.57
806.37	217.53
806.69	217.46
807.01	217.43
807.33	217.40
807.65	217.28
807.97	217.38
808.28	217.31
808.60	217.29
808.92	217.26
809.24	217.34
809.56	217.27
809.88	217.17
810.20	217.15
810.52	217.16
810.84	217.12
811.16	217.05
811.48	217.02
811.80	217.11
812.12	217.09
812.43	217.14
812.75	217.17
813.07	217.12
813.39	217.10
813.71	217.02
814.03	217.01
814.35	217.02
814.67	216.91
814.98	216.91
815.30	216.91
815.62	216.84
815.94	216.67
816.26	216.68
816.58	216.61
816.89	216.60
817.21	216.55
817.53	216.55
817.85	216.58
818.17	216.54
818.48	216.43
818.80	216.43
819.12	216.37
819.44	216.31
819.76	216.25
820.07	216.24
820.39	216.25
820.71	216.22
821.03	216.20
821.34	216.16
821.66	216.16
821.98	216.13
822.30	216.09
822.61	216.21
822.93	216.17
823.25	216.15
823.57	216.09
823.88	216.11
824.20	216.10
824.52	216.10
824.83	216.10
825.15	216.07
825.47	216.07
825.79	216.05
826.10	216.01
826.42	216.00
826.74	216.02
827.05	216.02
827.37	216.03
827.69	216.00
828.00	216.00
828.32	215.98
828.64	215.94
828.95	216.06
829.27	216.02
829.58	215.98
829.90	216.01
830.22	216.06
830.53	216.00
830.85	215.97
831.17	215.91
831.48	215.88
831.80	215.86
832.11	215.83
832.43	215.82
832.75	215.83
833.06	215.94
833.38	215.85
833.69	215.82
834.01	215.80
834.32	215.79
834.64	215.79
834.96	215.76
835.27	215.76
835.59	215.67
835.90	215.60
836.22	215.60
836.53	215.57
836.85	215.52
837.16	215.75
837.48	215.73
837.79	215.78
838.11	215.77
838.42	215.79
838.74	215.81
839.05	215.79
839.37	215.75
839.68	215.63
840.00	215.61
840.31	215.63
840.63	215.64
840.94	215.59
841.26	215.56
841.57	215.58
841.88	215.62
842.20	215.58
842.51	215.54
842.83	215.57
843.14	215.74
843.46	215.76
843.77	215.60
844.08	215.56
844.40	215.51
844.71	215.52
845.03	215.47
845.34	215.47
845.65	215.44
845.97	215.48
846.28	215.48
846.60	215.49
846.91	215.49
847.22	215.44
847.54	215.51
847.85	215.49
848.16	215.47
848.48	215.40
848.79	215.47
849.10	215.51
849.42	215.50
849.73	215.32
850.04	215.30
850.36	215.20
850.67	215.28
850.98	215.26
851.30	215.27
851.61	215.27
851.92	215.23
852.23	215.30
852.55	215.31
852.86	215.33
853.17	215.33
853.49	215.33
853.80	215.35
854.11	215.35
854.42	215.40
854.74	215.36
855.05	215.39
855.36	215.28
855.67	215.26
855.99	215.24
856.30	215.48
856.61	215.46
856.92	215.49
857.23	215.43
857.55	215.42
857.86	215.40
858.17	215.47
858.48	215.47
858.79	215.41
859.11	215.39
859.42	215.35
859.73	215.36
860.04	215.36
860.35	215.29
860.66	215.24
860.98	215.22
861.29	215.26
861.60	215.25
861.91	215.30
862.22	215.27
862.53	215.24
862.84	214.97
863.16	215.01
863.47	214.98
863.78	214.98
864.09	215.00
864.40	215.02
864.71	214.99
865.02	214.95
865.33	214.96
865.64	214.97
865.95	214.98
866.27	215.12
866.58	215.07
866.89	215.15
867.20	215.13
867.51	215.10
867.82	215.08
868.13	215.12
868.44	215.06
868.75	215.10
869.06	215.10
869.37	215.15
869.68	215.11
869.99	215.13
870.30	215.15
870.61	215.17
870.92	215.12
871.23	215.08
871.54	215.15
871.85	215.16
872.16	215.15
872.47	215.13
872.78	214.99
873.09	215.03
873.40	214.98
873.71	215.00
874.02	215.01
874.33	214.99
874.64	214.95
874.95	215.00
875.26	214.96
875.56	214.97
875.87	214.92
876.18	214.91
876.49	215.09
876.80	215.06
877.11	215.02
877.42	215.03
877.73	215.06
878.04	214.99
878.35	214.99
878.66	215.01
878.96	215.00
879.27	214.97
879.58	214.96
879.89	214.97
880.20	214.99
880.51	214.96
880.82	214.96
881.12	214.96
881.43	214.90
881.74	214.88
882.05	214.87
882.36	214.90
882.67	214.92
882.97	214.72
883.28	214.70
883.59	214.71
883.90	214.71
884.21	214.73
884.51	214.74
884.82	214.72
885.13	214.70
885.44	214.72
885.74	214.72
886.05	214.69
886.36	214.63
886.67	214.57
886.98	214.67
887.28	214.67
887.59	214.69
887.90	214.68
888.20	214.66
888.51	214.69
888.82	214.64
889.13	214.64
889.43	214.79
889.74	214.79
890.05	214.76
890.35	214.76
890.66	214.70
890.97	214.68
891.28	214.67
891.58	214.66
891.89	214.63
892.20	214.61
892.50	214.60
892.81	214.63
893.12	214.66
893.42	214.56
893.73	214.62
894.04	214.59
894.34	214.63
894.65	214.65
894.95	214.61
895.26	214.63
895.57	214.71
895.87	214.54
896.18	214.58
896.48	214.58
896.79	214.59
897.10	214.60
897.40	214.60
897.71	214.63
898.01	214.60
898.32	214.63
898.63	214.63
898.93	214.65
899.24	214.66
899.54	214.65
899.85	214.61
900.15	214.55
900.46	214.54
900.76	214.56
901.07	214.54
901.38	214.55
901.68	214.55
901.99	214.44
902.29	214.47
902.60	214.43
902.90	214.43
903.21	214.42
903.51	214.43
903.82	214.46
904.12	214.45
904.43	214.46
904.73	214.44
905.03	214.48
905.34	214.67
905.64	214.64
905.95	214.64
906.25	214.65
906.56	214.65
906.86	214.65
907.17	214.60
907.47	214.62
907.77	214.63
908.08	214.59
908.38	214.60
908.69	214.60
908.99	214.66
909.30	214.68
909.60	214.67
909.90	214.69
910.21	214.64
910.51	214.61
910.81	214.60
911.12	214.60
911.42	214.61
911.73	214.39
912.03	214.41
912.33	214.49
912.64	214.50
912.94	214.48
913.24	214.46
913.55	214.48
913.85	214.45
914.15	214.46
914.46	214.52
914.76	214.54
915.06	214.54
915.37	214.45
915.67	214.43
915.97	214.44
916.27	214.39
916.58	214.36
916.88	214.36
917.18	214.38
917.49	214.50
917.79	214.45
918.09	214.50
918.39	214.57
918.70	214.50
919.00	214.49
919.30	214.61
919.60	214.58
919.91	214.52
920.21	214.55
920.51	214.50
920.81	214.49
921.12	214.49
921.42	214.46
921.72	214.48
922.02	214.47
922.32	214.51
922.63	214.53
922.93	214.65
923.23	214.67
923.53	214.67
923.83	214.55
924.13	214.61
924.44	214.58
924.74	214.60
925.04	214.65
925.34	214.64
925.64	214.56
925.94	214.58
926.24	214.71
926.55	214.69
926.85	214.73
927.15	214.69
927.45	214.66
927.75	214.67
928.05	214.69
928.35	214.70
928.65	214.72
928.95	214.70
929.26	214.63
929.56	214.66
929.86	214.67
930.16	214.67
930.46	214.62
930.76	214.62
931.06	214.54
931.36	214.49
931.66	214.51
931.96	214.50
932.26	214.52
932.56	214.47
932.86	214.48
933.16	214.48
933.46	214.49
933.76	214.48
934.06	214.52
934.36	214.59
934.66	214.58
934.96	214.54
935.26	214.57
935.56	214.61
935.86	214.54
936.16	214.48
936.46	214.45
936.76	214.45
937.06	214.43
937.36	214.43
937.66	214.42
937.96	214.44
938.26	214.41
938.56	214.40
938.86	214.38
939.16	214.43
939.46	214.45
939.76	214.48
940.06	214.51
940.35	214.48
940.65	214.38
940.95	214.37
941.25	214.35
941.55	214.32
941.85	214.33
942.15	214.38
942.45	214.46
942.75	214.46
943.04	214.49
943.34	214.55
943.64	214.54
943.94	214.54
944.24	214.53
944.54	214.55
944.84	214.54
945.13	214.52
945.43	214.50
945.73	214.51
946.03	214.48
946.33	214.44
946.62	214.44
946.92	214.40
947.22	214.45
947.52	214.48
947.82	214.52
948.11	214.46
948.41	214.41
948.71	214.37
949.01	214.38
949.31	214.34
949.60	214.33
949.90	214.34
950.20	214.31
950.50	214.31
950.79	214.30
951.09	214.32
951.39	214.33
951.69	214.28
951.98	214.29
952.28	214.33
952.58	214.31
952.87	214.30
953.17	214.38
953.47	214.33
953.76	214.31
954.06	214.26
954.36	214.26
954.66	214.28
954.95	214.30
955.25	214.32
955.55	214.34
955.84	214.29
956.14	214.34
956.44	214.38
956.73	214.34
957.03	214.37
957.32	214.37
957.62	214.35
957.92	214.43
958.21	214.41
958.51	214.59
958.81	214.66
959.10	214.66
959.40	214.68
959.69	214.70
959.99	214.71
960.29	214.70
960.58	214.70
960.88	214.77
961.17	214.75
961.47	214.77
961.76	214.77
962.06	214.83
962.36	214.78
962.65	214.79
962.95	214.82
963.24	214.81
963.54	214.82
963.83	214.86
964.13	214.80
964.42	214.77
964.72	214.59
965.01	214.54
965.31	214.53
965.60	214.49
965.90	214.62
966.19	214.59
966.49	214.61
966.78	214.61
967.08	214.58
967.37	214.57
967.67	214.53
967.96	214.54
968.26	214.51
968.55	214.55
968.85	214.53
969.14	214.53
969.43	214.47
969.73	214.47
970.02	214.45
970.32	214.42
970.61	214.39
970.91	214.37
971.20	214.36
971.49	214.35
971.79	214.37
972.08	214.23
972.38	214.26
972.67	214.25
972.96	214.25
973.26	214.20
973.55	214.29
973.85	214.27
974.14	214.26
974.43	214.27
974.73	214.23
975.02	214.23
975.31	214.22
975.61	214.26
975.90	214.21
976.19	214.21
976.49	214.24
976.78	214.30
977.07	214.30
977.37	214.31
977.66	214.35
977.95	214.32
978.24	214.31
978.54	214.33
978.83	214.33
979.12	214.30
979.42	214.31
979.71	214.26
980.00	214.24
980.29	214.30
980.59	214.25
980.88	214.30
981.17	214.29
981.46	214.28
981.76	214.27
982.05	214.35
982.34	214.37
982.63	214.36
982.93	214.35
983.22	214.40
983.51	214.41
983.80	214.44
984.09	214.46
984.39	214.47
984.68	214.44
984.97	214.45
985.26	214.49
985.55	214.53
985.85	214.48
986.14	214.52
986.43	214.51
986.72	214.49
987.01	214.44
987.30	214.44
987.59	214.44
987.89	214.45
988.18	214.37
988.47	214.30
988.76	214.26
989.05	214.22
989.34	214.18
989.63	214.23
989.92	214.15
990.22	214.15
990.51	214.12
990.80	214.07
991.09	214.10
991.38	214.10
991.67	214.05
991.96	214.04
992.25	214.04
992.54	214.01
992.83	214.03
993.12	214.01
993.41	214.04
993.70	214.09
993.99	214.13
994.28	214.19
994.58	214.26
994.87	214.26
995.16	214.28
995.45	214.26
995.74	214.17
996.03	214.22
996.32	214.24
996.61	214.31
996.90	214.36
997.19	214.31
997.48	214.31
997.77	214.30
998.06	214.35
998.34	214.34
998.63	214.36
998.92	214.34
999.21	214.39
999.50	214.40
999.79	214.35
1000.08	214.35
1000.37	214.32
1000.66	214.27
1000.95	214.33
1001.24	214.34
1001.53	214.38
1001.82	214.38
1002.11	214.34
1002.40	214.36
1002.68	214.39
1002.97	214.54
1003.26	214.52
1003.55	214.49
1003.84	214.52
1004.13	214.58
1004.42	214.56
1004.71	214.54
1004.99	214.53
1005.28	214.57
1005.57	214.54
1005.86	214.56
1006.15	214.51
1006.44	214.50
1006.72	214.52
1007.01	214.51
1007.30	214.52
1007.59	214.48
1007.88	214.50
1008.17	214.53
1008.45	214.48
1008.74	214.40
1009.03	214.30
1009.32	214.31
1009.60	214.34
1009.89	214.34
1010.18	214.25
1010.47	214.26
1010.76	214.26
1011.04	214.25
1011.33	214.24
1011.62	214.28
1011.91	214.24
1012.19	214.29
1012.48	214.29
1012.77	214.30
1013.05	214.41
1013.34	214.40
1013.63	214.40
1013.92	214.42
1014.20	214.40
1014.49	214.43
1014.78	214.46
1015.06	214.38
1015.35	214.39
1015.64	214.42
1015.92	214.41
1016.21	214.41
1016.50	214.42
1016.78	214.44
1017.07	214.47
1017.36	214.45
1017.64	214.39
1017.93	214.42
1018.22	214.39
1018.50	214.37
1018.79	214.35
1019.08	214.22
1019.36	214.20
1019.65	214.18
1019.93	214.21
1020.22	214.25
1020.51	214.36
1020.79	214.32
1021.08	214.14
1021.36	213.71
1021.65	213.99
1021.94	213.99
1022.22	213.77
1022.51	213.77
1022.79	214.98
1023.08	214.82
1023.36	217.04
1023.65	213.76
>>>>>End Processed Spectral Data<<<<<
