SpectraSuite Data File
++++++++++++++++++++++++++++++++++++
Date: Tue Jan 29 16:42:24 EST 2013
User: group
Dark Spectrum Present: No
Reference Spectrum Present: No
Number of Sampled Component Spectra: 1
Spectrometers: USB2E7196
Integration Time (usec): 65000 (USB2E7196)
Spectra Averaged: 100 (USB2E7196)
Boxcar Smoothing: 10 (USB2E7196)
Correct for Electrical Dark: No (USB2E7196)
Strobe/Lamp Enabled: No (USB2E7196)
Correct for Detector Non-linearity: No (USB2E7196)
Correct for Stray Light: No (USB2E7196)
Number of Pixels in Processed Spectrum: 2048
>>>>>Begin Processed Spectral Data<<<<<
339.09	0.00
339.48	201.43
339.86	203.29
340.24	204.97
340.63	206.37
341.01	210.51
341.39	208.84
341.78	210.27
342.16	212.01
342.54	212.27
342.93	201.21
343.31	211.39
343.69	211.97
344.07	212.44
344.46	212.88
344.84	213.28
345.22	213.47
345.60	213.75
345.99	213.96
346.37	214.09
346.75	214.17
347.13	214.24
347.52	214.31
347.90	214.40
348.28	214.44
348.66	214.52
349.05	214.48
349.43	214.54
349.81	214.61
350.19	214.68
350.57	214.76
350.96	214.83
351.34	214.94
351.72	215.05
352.10	215.16
352.48	215.22
352.87	215.26
353.25	215.32
353.63	215.37
354.01	215.43
354.39	215.50
354.77	215.59
355.15	215.70
355.54	215.70
355.92	215.74
356.30	215.84
356.68	216.05
357.06	216.15
357.44	216.20
357.82	216.27
358.20	216.36
358.58	216.42
358.97	216.51
359.35	216.59
359.73	216.70
360.11	216.74
360.49	216.81
360.87	216.83
361.25	216.92
361.63	217.03
362.01	217.10
362.39	217.14
362.77	217.20
363.15	217.21
363.53	217.29
363.91	217.32
364.29	217.30
364.67	217.10
365.05	217.14
365.43	217.18
365.81	217.21
366.19	217.29
366.57	217.37
366.95	217.35
367.33	217.32
367.71	217.30
368.09	217.38
368.47	217.38
368.85	217.41
369.23	217.41
369.61	217.32
369.99	217.37
370.37	217.38
370.75	217.44
371.13	217.39
371.51	217.34
371.89	217.32
372.27	217.35
372.65	217.35
373.03	217.29
373.41	217.25
373.78	217.18
374.16	217.03
374.54	216.96
374.92	216.90
375.30	216.84
375.68	216.75
376.06	216.67
376.44	216.62
376.82	216.58
377.19	216.52
377.57	216.49
377.95	216.38
378.33	216.32
378.71	216.21
379.09	216.19
379.47	216.18
379.84	216.12
380.22	216.04
380.60	215.97
380.98	215.91
381.36	215.82
381.73	215.78
382.11	215.79
382.49	215.73
382.87	215.66
383.25	215.62
383.62	215.80
384.00	215.74
384.38	215.68
384.76	215.67
385.13	215.68
385.51	215.63
385.89	215.53
386.27	215.49
386.64	215.48
387.02	215.40
387.40	215.36
387.78	215.37
388.15	215.35
388.53	215.31
388.91	215.31
389.29	215.32
389.66	215.32
390.04	215.25
390.42	215.26
390.79	215.28
391.17	215.27
391.55	215.05
391.92	215.03
392.30	215.06
392.68	214.99
393.05	214.98
393.43	214.99
393.81	215.02
394.18	214.98
394.56	214.96
394.94	215.00
395.31	215.00
395.69	215.05
396.06	215.10
396.44	215.14
396.82	215.13
397.19	215.22
397.57	215.20
397.95	215.28
398.32	215.25
398.70	215.24
399.07	215.35
399.45	215.35
399.82	215.39
400.20	215.44
400.58	215.51
400.95	215.52
401.33	215.66
401.70	215.91
402.08	216.01
402.45	216.10
402.83	216.25
403.20	216.34
403.58	216.40
403.95	216.55
404.33	216.70
404.71	216.88
405.08	217.14
405.46	217.34
405.83	217.52
406.21	217.71
406.58	217.97
406.96	218.18
407.33	218.50
407.70	218.80
408.08	219.27
408.45	219.62
408.83	220.00
409.20	220.35
409.58	220.60
409.95	221.06
410.33	221.54
410.70	221.99
411.08	222.55
411.45	223.16
411.82	223.73
412.20	224.42
412.57	225.25
412.95	225.85
413.32	226.67
413.69	227.51
414.07	228.45
414.44	229.42
414.82	230.42
415.19	231.54
415.56	232.75
415.94	233.92
416.31	235.36
416.68	236.81
417.06	238.40
417.43	239.96
417.81	241.71
418.18	243.49
418.55	245.44
418.93	247.48
419.30	249.64
419.67	251.87
420.04	254.19
420.42	256.62
420.79	259.47
421.16	262.25
421.54	265.16
421.91	268.15
422.28	271.29
422.66	274.65
423.03	277.95
423.40	281.34
423.77	285.00
424.15	288.68
424.52	292.53
424.89	296.70
425.26	300.82
425.64	304.72
426.01	309.02
426.38	313.52
426.75	318.10
427.13	322.87
427.50	327.84
427.87	333.04
428.24	338.23
428.61	343.20
428.99	348.80
429.36	354.83
429.73	360.77
430.10	366.64
430.47	372.67
430.85	378.99
431.22	385.70
431.59	392.80
431.96	399.63
432.33	407.18
432.70	414.55
433.08	423.08
433.45	431.25
433.82	439.35
434.19	448.25
434.56	457.00
434.93	465.33
435.30	473.76
435.68	482.99
436.05	492.03
436.42	501.05
436.79	509.29
437.16	518.17
437.53	527.50
437.90	536.83
438.27	545.95
438.64	555.26
439.01	563.87
439.38	571.51
439.75	578.87
440.13	587.33
440.50	595.31
440.87	601.83
441.24	608.49
441.61	615.86
441.98	621.34
442.35	627.75
442.72	634.17
443.09	640.23
443.46	643.94
443.83	646.44
444.20	648.63
444.57	651.80
444.94	653.31
445.31	654.79
445.68	656.10
446.05	656.70
446.42	655.97
446.79	655.04
447.16	653.99
447.53	653.32
447.90	650.05
448.27	646.80
448.64	642.11
449.01	638.79
449.37	632.89
449.74	627.19
450.11	620.22
450.48	612.71
450.85	605.22
451.22	598.74
451.59	592.62
451.96	586.72
452.33	578.73
452.70	571.51
453.07	562.92
453.43	554.31
453.80	545.91
454.17	537.85
454.54	530.20
454.91	521.93
455.28	513.82
455.65	506.33
456.02	498.69
456.38	492.30
456.75	484.35
457.12	477.71
457.49	471.11
457.86	464.88
458.23	459.48
458.59	453.50
458.96	447.39
459.33	442.03
459.70	436.65
460.07	432.42
460.43	427.51
460.80	422.96
461.17	418.87
461.54	414.64
461.91	410.59
462.27	406.43
462.64	403.03
463.01	399.26
463.38	395.50
463.74	391.76
464.11	388.54
464.48	385.67
464.85	382.54
465.21	380.09
465.58	377.42
465.95	374.28
466.32	371.65
466.68	369.08
467.05	366.44
467.42	363.88
467.78	361.18
468.15	358.59
468.52	356.62
468.88	354.16
469.25	351.94
469.62	350.13
469.98	348.21
470.35	346.33
470.72	344.63
471.08	342.79
471.45	341.26
471.82	339.66
472.18	337.97
472.55	336.73
472.92	335.34
473.28	334.15
473.65	332.93
474.02	331.80
474.38	330.91
474.75	330.16
475.11	329.30
475.48	328.69
475.85	328.24
476.21	327.76
476.58	327.39
476.94	327.16
477.31	326.83
477.67	326.49
478.04	326.35
478.41	326.30
478.77	326.46
479.14	326.42
479.50	326.58
479.87	326.91
480.23	327.23
480.60	327.48
480.96	327.72
481.33	328.30
481.69	328.88
482.06	329.38
482.42	329.87
482.79	330.48
483.15	331.22
483.52	332.16
483.88	332.99
484.25	333.94
484.61	334.93
484.98	336.01
485.34	337.36
485.71	338.72
486.07	340.13
486.44	341.47
486.80	343.09
487.17	344.75
487.53	346.60
487.90	348.45
488.26	350.42
488.62	352.63
488.99	354.69
489.35	356.80
489.72	359.15
490.08	361.67
490.44	364.23
490.81	367.00
491.17	369.66
491.54	372.70
491.90	375.69
492.26	378.97
492.63	382.32
492.99	385.81
493.36	389.43
493.72	393.29
494.08	397.27
494.45	401.48
494.81	405.87
495.17	410.26
495.54	415.03
495.90	419.91
496.26	424.80
496.63	430.04
496.99	435.49
497.35	441.12
497.72	446.89
498.08	452.81
498.44	458.89
498.80	465.38
499.17	471.81
499.53	478.56
499.89	485.42
500.26	492.40
500.62	499.56
500.98	507.04
501.34	514.54
501.71	522.30
502.07	530.17
502.43	538.19
502.79	546.44
503.16	554.83
503.52	563.46
503.88	572.19
504.24	581.17
504.60	590.26
504.97	599.48
505.33	608.91
505.69	618.82
506.05	628.66
506.41	638.57
506.78	648.76
507.14	659.04
507.50	669.52
507.86	680.26
508.22	691.05
508.59	701.72
508.95	712.77
509.31	724.06
509.67	735.48
510.03	746.82
510.39	758.50
510.75	770.36
511.12	782.23
511.48	794.40
511.84	806.67
512.20	818.94
512.56	831.59
512.92	844.39
513.28	857.06
513.64	869.94
514.00	882.79
514.37	895.79
514.73	908.85
515.09	921.88
515.45	934.85
515.81	947.98
516.17	961.43
516.53	974.82
516.89	987.99
517.25	1001.34
517.61	1014.97
517.97	1028.49
518.33	1041.63
518.69	1055.31
519.05	1069.17
519.41	1082.96
519.77	1096.97
520.13	1110.44
520.49	1123.60
520.85	1137.06
521.21	1150.44
521.57	1164.22
521.93	1177.30
522.29	1191.18
522.65	1204.96
523.01	1218.68
523.37	1231.94
523.73	1245.31
524.09	1258.66
524.45	1272.26
524.81	1285.81
525.17	1299.31
525.53	1312.54
525.89	1326.02
526.25	1339.18
526.61	1352.06
526.97	1365.22
527.33	1378.29
527.68	1391.80
528.04	1405.36
528.40	1418.67
528.76	1432.20
529.12	1445.09
529.48	1458.50
529.84	1470.87
530.20	1483.80
530.56	1496.51
530.91	1509.83
531.27	1522.75
531.63	1535.35
531.99	1548.19
532.35	1560.44
532.71	1572.97
533.07	1585.87
533.42	1598.36
533.78	1610.57
534.14	1622.68
534.50	1634.06
534.86	1645.65
535.21	1656.57
535.57	1668.20
535.93	1679.42
536.29	1690.44
536.65	1702.07
537.00	1713.18
537.36	1724.75
537.72	1735.76
538.08	1747.40
538.44	1758.47
538.79	1769.79
539.15	1781.06
539.51	1791.83
539.87	1803.18
540.22	1814.10
540.58	1825.21
540.94	1836.05
541.29	1846.55
541.65	1856.47
542.01	1866.96
542.37	1877.15
542.72	1887.39
543.08	1897.28
543.44	1907.94
543.79	1917.38
544.15	1926.81
544.51	1936.87
544.87	1946.65
545.22	1956.02
545.58	1964.84
545.94	1973.75
546.29	1982.32
546.65	1990.63
547.01	1999.11
547.36	2006.93
547.72	2014.72
548.07	2022.37
548.43	2030.27
548.79	2038.07
549.14	2046.44
549.50	2055.05
549.86	2062.94
550.21	2070.45
550.57	2078.25
550.92	2084.99
551.28	2092.62
551.64	2100.07
551.99	2107.57
552.35	2114.96
552.70	2121.76
553.06	2128.41
553.41	2134.78
553.77	2141.30
554.13	2147.67
554.48	2154.63
554.84	2161.85
555.19	2168.37
555.55	2174.87
555.90	2181.06
556.26	2187.94
556.61	2193.73
556.97	2198.53
557.32	2204.34
557.68	2210.82
558.03	2216.62
558.39	2222.06
558.74	2228.17
559.10	2233.62
559.45	2239.23
559.81	2244.70
560.16	2250.26
560.52	2256.21
560.87	2262.61
561.23	2268.42
561.58	2275.15
561.94	2280.39
562.29	2285.00
562.64	2291.05
563.00	2296.57
563.35	2302.08
563.71	2307.71
564.06	2313.56
564.42	2319.53
564.77	2324.60
565.12	2329.81
565.48	2334.81
565.83	2340.26
566.19	2345.42
566.54	2350.67
566.89	2355.28
567.25	2359.80
567.60	2365.38
567.96	2370.39
568.31	2374.77
568.66	2378.97
569.02	2382.71
569.37	2386.36
569.72	2390.79
570.08	2394.36
570.43	2397.53
570.78	2400.82
571.14	2403.24
571.49	2406.31
571.84	2409.80
572.20	2412.76
572.55	2415.71
572.90	2417.95
573.26	2420.61
573.61	2423.22
573.96	2425.42
574.31	2427.31
574.67	2428.91
575.02	2429.61
575.37	2430.86
575.72	2431.50
576.08	2432.92
576.43	2433.00
576.78	2433.27
577.13	2434.54
577.49	2435.36
577.84	2436.23
578.19	2437.12
578.54	2437.68
578.90	2438.09
579.25	2437.66
579.60	2437.35
579.95	2436.46
580.30	2436.27
580.66	2435.53
581.01	2433.58
581.36	2430.98
581.71	2429.39
582.06	2428.28
582.42	2427.33
582.77	2425.06
583.12	2423.24
583.47	2421.57
583.82	2420.85
584.17	2419.55
584.53	2417.38
584.88	2415.26
585.23	2413.18
585.58	2410.90
585.93	2408.80
586.28	2406.51
586.63	2404.03
586.98	2401.72
587.34	2399.60
587.69	2397.07
588.04	2394.86
588.39	2393.22
588.74	2390.75
589.09	2388.01
589.44	2384.71
589.79	2382.12
590.14	2379.96
590.49	2377.16
590.84	2373.37
591.19	2369.98
591.54	2366.57
591.89	2362.42
592.25	2359.08
592.60	2354.85
592.95	2350.57
593.30	2346.31
593.65	2341.78
594.00	2337.28
594.35	2334.17
594.70	2329.32
595.05	2324.78
595.40	2319.18
595.75	2313.26
596.10	2309.46
596.45	2304.53
596.80	2299.92
597.15	2294.58
597.50	2288.72
597.85	2283.70
598.19	2278.34
598.54	2272.70
598.89	2267.33
599.24	2262.73
599.59	2256.42
599.94	2250.40
600.29	2244.40
600.64	2238.44
600.99	2231.61
601.34	2226.08
601.69	2218.93
602.04	2212.64
602.39	2206.00
602.74	2199.85
603.08	2194.47
603.43	2187.97
603.78	2181.15
604.13	2173.99
604.48	2166.72
604.83	2160.49
605.18	2154.26
605.53	2147.38
605.87	2140.11
606.22	2133.41
606.57	2125.52
606.92	2117.56
607.27	2110.65
607.62	2103.94
607.96	2096.91
608.31	2090.53
608.66	2082.74
609.01	2075.12
609.36	2067.89
609.70	2060.06
610.05	2052.25
610.40	2043.80
610.75	2035.36
611.10	2027.43
611.44	2018.50
611.79	2009.75
612.14	1999.82
612.49	1989.05
612.83	1979.70
613.18	1970.57
613.53	1961.17
613.88	1951.56
614.22	1943.01
614.57	1933.07
614.92	1922.47
615.27	1912.20
615.61	1901.95
615.96	1892.27
616.31	1882.62
616.65	1873.23
617.00	1863.51
617.35	1853.90
617.70	1844.20
618.04	1834.36
618.39	1824.19
618.74	1814.61
619.08	1804.85
619.43	1796.16
619.78	1787.99
620.12	1779.38
620.47	1769.83
620.82	1759.57
621.16	1749.78
621.51	1739.92
621.85	1730.09
622.20	1719.79
622.55	1709.14
622.89	1699.20
623.24	1689.63
623.59	1679.97
623.93	1669.85
624.28	1660.08
624.62	1650.12
624.97	1639.87
625.32	1629.95
625.66	1621.16
626.01	1612.40
626.35	1603.16
626.70	1593.02
627.04	1582.99
627.39	1572.89
627.73	1563.62
628.08	1554.75
628.43	1545.24
628.77	1536.01
629.12	1527.24
629.46	1519.52
629.81	1511.39
630.15	1502.14
630.50	1492.29
630.84	1481.86
631.19	1472.02
631.53	1462.83
631.88	1452.65
632.22	1442.68
632.57	1433.40
632.91	1423.29
633.26	1413.44
633.60	1404.03
633.95	1394.85
634.29	1385.34
634.64	1376.06
634.98	1366.13
635.32	1356.89
635.67	1348.37
636.01	1339.20
636.36	1329.56
636.70	1320.05
637.05	1310.73
637.39	1301.70
637.73	1293.09
638.08	1285.61
638.42	1277.51
638.77	1268.71
639.11	1260.46
639.45	1252.78
639.80	1244.32
640.14	1235.68
640.49	1226.97
640.83	1218.09
641.17	1209.97
641.52	1201.86
641.86	1193.27
642.20	1185.47
642.55	1176.83
642.89	1167.93
643.23	1159.28
643.58	1151.21
643.92	1142.16
644.26	1133.36
644.61	1125.01
644.95	1116.20
645.29	1106.93
645.64	1097.79
645.98	1089.19
646.32	1081.36
646.66	1072.88
647.01	1064.62
647.35	1056.43
647.69	1048.17
648.04	1039.90
648.38	1031.03
648.72	1022.29
649.06	1013.92
649.41	1005.61
649.75	997.67
650.09	989.95
650.43	981.88
650.78	973.50
651.12	965.83
651.46	958.37
651.80	951.06
652.14	943.83
652.49	936.26
652.83	928.95
653.17	921.41
653.51	913.68
653.85	906.36
654.20	899.08
654.54	891.68
654.88	884.30
655.22	877.09
655.56	870.14
655.90	863.34
656.25	856.54
656.59	849.77
656.93	842.69
657.27	835.49
657.61	828.49
657.95	822.35
658.29	816.37
658.64	810.35
658.98	803.87
659.32	797.25
659.66	791.09
660.00	784.72
660.34	778.69
660.68	772.61
661.02	766.19
661.36	760.17
661.70	754.35
662.05	748.70
662.39	743.20
662.73	737.75
663.07	732.38
663.41	726.79
663.75	721.01
664.09	715.34
664.43	709.89
664.77	704.58
665.11	698.82
665.45	692.92
665.79	687.12
666.13	681.47
666.47	676.08
666.81	670.56
667.15	665.10
667.49	659.75
667.83	654.52
668.17	649.39
668.51	644.29
668.85	639.35
669.19	634.51
669.53	629.36
669.87	624.16
670.21	619.38
670.55	614.71
670.89	610.22
671.23	605.91
671.57	601.54
671.91	597.16
672.25	592.98
672.58	588.83
672.92	584.69
673.26	580.77
673.60	576.86
673.94	573.04
674.28	569.41
674.62	565.77
674.96	561.96
675.30	558.39
675.64	554.67
675.97	551.00
676.31	547.35
676.65	543.78
676.99	540.42
677.33	536.51
677.67	532.82
678.01	528.93
678.34	525.24
678.68	521.69
679.02	518.09
679.36	514.33
679.70	510.64
680.04	507.02
680.37	503.51
680.71	500.04
681.05	496.81
681.39	493.49
681.73	490.25
682.06	487.19
682.40	484.10
682.74	480.88
683.08	477.59
683.42	474.34
683.75	471.32
684.09	468.27
684.43	465.45
684.77	462.51
685.10	459.70
685.44	456.75
685.78	453.72
686.12	450.92
686.45	448.23
686.79	445.54
687.13	442.98
687.46	440.30
687.80	437.58
688.14	434.66
688.48	432.04
688.81	429.34
689.15	426.70
689.49	424.04
689.82	421.46
690.16	418.88
690.50	416.39
690.83	413.88
691.17	411.30
691.51	408.81
691.84	406.47
692.18	404.18
692.52	401.93
692.85	399.84
693.19	397.65
693.52	395.45
693.86	393.19
694.20	390.99
694.53	388.78
694.87	386.60
695.21	384.49
695.54	382.30
695.88	380.10
696.21	377.85
696.55	375.67
696.88	373.57
697.22	371.55
697.56	369.64
697.89	367.70
698.23	365.89
698.56	364.06
698.90	362.29
699.23	360.36
699.57	358.50
699.90	356.59
700.24	354.76
700.58	352.95
700.91	351.25
701.25	349.67
701.58	348.07
701.92	346.47
702.25	344.82
702.59	343.19
702.92	341.61
703.26	340.02
703.59	338.53
703.93	337.21
704.26	335.76
704.60	334.20
704.93	332.72
705.26	331.16
705.60	329.67
705.93	328.14
706.27	326.78
706.60	325.43
706.94	324.17
707.27	322.74
707.61	321.38
707.94	320.03
708.27	318.46
708.61	316.97
708.94	315.56
709.28	314.28
709.61	313.00
709.94	311.79
710.28	310.60
710.61	309.39
710.95	307.95
711.28	306.90
711.61	305.71
711.95	304.57
712.28	303.37
712.61	302.13
712.95	301.04
713.28	299.99
713.61	298.88
713.95	297.69
714.28	296.71
714.61	295.65
714.95	294.62
715.28	293.61
715.61	292.59
715.95	291.59
716.28	290.60
716.61	289.62
716.95	288.53
717.28	287.58
717.61	286.62
717.94	285.73
718.28	284.66
718.61	283.76
718.94	282.85
719.27	281.97
719.61	281.20
719.94	280.28
720.27	279.30
720.60	278.39
720.94	277.57
721.27	276.75
721.60	276.06
721.93	275.34
722.27	274.71
722.60	274.06
722.93	273.36
723.26	272.70
723.59	272.02
723.93	271.44
724.26	270.75
724.59	270.07
724.92	269.47
725.25	268.91
725.59	268.28
725.92	267.69
726.25	267.12
726.58	266.50
726.91	265.92
727.24	265.40
727.57	264.85
727.91	264.22
728.24	263.65
728.57	262.98
728.90	262.41
729.23	261.74
729.56	261.28
729.89	260.74
730.22	260.13
730.55	259.56
730.89	258.98
731.22	258.48
731.55	257.96
731.88	257.42
732.21	256.86
732.54	256.33
732.87	255.81
733.20	255.34
733.53	254.88
733.86	254.44
734.19	253.89
734.52	253.47
734.85	253.20
735.18	252.76
735.51	252.42
735.84	251.97
736.17	251.55
736.50	250.99
736.83	250.78
737.16	250.41
737.49	250.03
737.82	249.62
738.15	249.23
738.48	248.87
738.81	248.46
739.14	248.04
739.47	247.66
739.80	247.29
740.13	246.89
740.46	246.47
740.79	246.06
741.12	245.70
741.45	245.30
741.78	244.83
742.11	244.51
742.44	244.10
742.77	243.80
743.10	243.47
743.43	243.10
743.75	242.57
744.08	242.47
744.41	242.09
744.74	241.75
745.07	241.33
745.40	240.99
745.73	240.75
746.06	240.41
746.39	240.11
746.71	239.74
747.04	239.41
747.37	239.10
747.70	238.79
748.03	238.50
748.36	238.25
748.68	237.99
749.01	237.65
749.34	237.35
749.67	237.03
750.00	236.76
750.33	236.63
750.65	236.39
750.98	235.85
751.31	235.63
751.64	235.40
751.97	235.31
752.29	235.02
752.62	234.68
752.95	234.44
753.28	234.14
753.60	233.91
753.93	233.73
754.26	233.49
754.59	233.23
754.91	232.98
755.24	232.72
755.57	232.42
755.90	232.19
756.22	231.95
756.55	231.69
756.88	231.45
757.20	231.10
757.53	230.80
757.86	230.61
758.19	230.42
758.51	230.18
758.84	229.85
759.17	229.68
759.49	229.50
759.82	229.42
760.15	229.29
760.47	229.11
760.80	228.86
761.13	228.70
761.45	228.50
761.78	228.30
762.11	228.10
762.43	227.96
762.76	227.78
763.08	227.60
763.41	227.46
763.74	227.29
764.06	227.10
764.39	226.94
764.71	226.76
765.04	226.57
765.37	226.41
765.69	226.30
766.02	226.14
766.34	225.99
766.67	225.76
767.00	225.65
767.32	225.64
767.65	225.64
767.97	225.49
768.30	225.39
768.62	225.30
768.95	225.18
769.27	225.07
769.60	224.97
769.92	224.84
770.25	224.71
770.57	224.57
770.90	224.47
771.22	224.32
771.55	224.24
771.87	224.13
772.20	223.98
772.52	224.02
772.85	224.16
773.17	224.01
773.50	223.88
773.82	223.72
774.15	223.51
774.47	223.27
774.80	223.16
775.12	223.04
775.45	222.96
775.77	222.86
776.09	222.75
776.42	222.63
776.74	222.61
777.07	222.49
777.39	222.44
777.72	222.35
778.04	222.32
778.36	222.21
778.69	222.15
779.01	222.13
779.33	221.87
779.66	221.54
779.98	221.46
780.31	221.42
780.63	221.45
780.95	221.41
781.28	221.35
781.60	221.26
781.92	221.18
782.25	221.08
782.57	220.98
782.89	220.87
783.22	220.82
783.54	220.69
783.86	220.66
784.19	220.56
784.51	220.56
784.83	220.43
785.16	220.36
785.48	220.27
785.80	220.18
786.12	220.15
786.45	220.10
786.77	220.07
787.09	219.99
787.42	219.82
787.74	219.76
788.06	219.68
788.38	219.62
788.71	219.54
789.03	219.52
789.35	219.51
789.67	219.46
789.99	219.41
790.32	219.34
790.64	219.29
790.96	219.44
791.28	219.31
791.61	219.30
791.93	219.25
792.25	219.22
792.57	219.33
792.89	219.23
793.21	219.18
793.54	219.09
793.86	219.00
794.18	218.98
794.50	218.91
794.82	218.84
795.14	218.85
795.47	218.85
795.79	218.79
796.11	218.70
796.43	218.60
796.75	218.55
797.07	218.51
797.39	218.45
797.71	218.24
798.04	218.20
798.36	218.16
798.68	218.12
799.00	218.08
799.32	217.91
799.64	217.91
799.96	217.88
800.28	217.95
800.60	217.89
800.92	217.84
801.24	217.75
801.56	217.74
801.89	217.68
802.21	217.64
802.53	217.57
802.85	217.60
803.17	217.71
803.49	217.63
803.81	217.59
804.13	217.57
804.45	217.52
804.77	217.52
805.09	217.49
805.41	217.45
805.73	217.37
806.05	217.30
806.37	217.24
806.69	217.19
807.01	217.09
807.33	217.09
807.65	217.02
807.97	217.08
808.28	217.06
808.60	217.02
808.92	217.00
809.24	217.12
809.56	217.06
809.88	216.98
810.20	216.93
810.52	216.94
810.84	216.86
811.16	216.79
811.48	216.74
811.80	216.79
812.12	216.74
812.43	216.78
812.75	216.76
813.07	216.74
813.39	216.73
813.71	216.67
814.03	216.65
814.35	216.68
814.67	216.59
814.98	216.54
815.30	216.52
815.62	216.46
815.94	216.29
816.26	216.25
816.58	216.17
816.89	216.20
817.21	216.12
817.53	216.14
817.85	216.17
818.17	216.15
818.48	216.06
818.80	216.10
819.12	216.05
819.44	216.00
819.76	215.98
820.07	215.96
820.39	215.94
820.71	215.95
821.03	215.92
821.34	215.88
821.66	215.88
821.98	215.87
822.30	215.84
822.61	215.97
822.93	215.94
823.25	215.93
823.57	215.91
823.88	215.95
824.20	215.93
824.52	215.93
824.83	215.91
825.15	215.87
825.47	215.82
825.79	215.82
826.10	215.83
826.42	215.76
826.74	215.80
827.05	215.83
827.37	215.84
827.69	215.79
828.00	215.81
828.32	215.81
828.64	215.78
828.95	215.87
829.27	215.79
829.58	215.77
829.90	215.77
830.22	215.77
830.53	215.71
830.85	215.68
831.17	215.61
831.48	215.58
831.80	215.58
832.11	215.56
832.43	215.52
832.75	215.51
833.06	215.69
833.38	215.56
833.69	215.50
834.01	215.49
834.32	215.49
834.64	215.47
834.96	215.46
835.27	215.49
835.59	215.41
835.90	215.35
836.22	215.34
836.53	215.31
836.85	215.30
837.16	215.49
837.48	215.47
837.79	215.51
838.11	215.52
838.42	215.52
838.74	215.54
839.05	215.49
839.37	215.48
839.68	215.32
840.00	215.33
840.31	215.38
840.63	215.33
840.94	215.32
841.26	215.28
841.57	215.26
841.88	215.26
842.20	215.23
842.51	215.23
842.83	215.26
843.14	215.42
843.46	215.42
843.77	215.29
844.08	215.31
844.40	215.23
844.71	215.21
845.03	215.18
845.34	215.16
845.65	215.15
845.97	215.14
846.28	215.14
846.60	215.14
846.91	215.08
847.22	215.07
847.54	215.09
847.85	215.10
848.16	215.08
848.48	215.01
848.79	215.07
849.10	215.10
849.42	215.10
849.73	214.94
850.04	214.92
850.36	214.85
850.67	214.89
850.98	214.87
851.30	214.86
851.61	214.88
851.92	214.88
852.23	214.97
852.55	214.98
852.86	214.98
853.17	215.00
853.49	215.03
853.80	215.09
854.11	215.09
854.42	215.09
854.74	215.06
855.05	215.06
855.36	214.94
855.67	214.92
855.99	214.89
856.30	215.09
856.61	215.08
856.92	215.06
857.23	215.02
857.55	215.03
857.86	215.02
858.17	215.02
858.48	214.94
858.79	214.86
859.11	214.88
859.42	214.86
859.73	214.83
860.04	214.80
860.35	214.72
860.66	214.66
860.98	214.65
861.29	214.70
861.60	214.68
861.91	214.74
862.22	214.72
862.53	214.68
862.84	214.45
863.16	214.48
863.47	214.46
863.78	214.44
864.09	214.45
864.40	214.48
864.71	214.49
865.02	214.54
865.33	214.52
865.64	214.44
865.95	214.46
866.27	214.60
866.58	214.61
866.89	214.64
867.20	214.66
867.51	214.63
867.82	214.57
868.13	214.64
868.44	214.60
868.75	214.63
869.06	214.62
869.37	214.64
869.68	214.55
869.99	214.56
870.30	214.59
870.61	214.58
870.92	214.51
871.23	214.50
871.54	214.51
871.85	214.57
872.16	214.60
872.47	214.59
872.78	214.47
873.09	214.49
873.40	214.48
873.71	214.47
874.02	214.50
874.33	214.52
874.64	214.45
874.95	214.51
875.26	214.47
875.56	214.49
875.87	214.50
876.18	214.53
876.49	214.75
876.80	214.73
877.11	214.71
877.42	214.72
877.73	214.70
878.04	214.69
878.35	214.69
878.66	214.68
878.96	214.66
879.27	214.66
879.58	214.62
879.89	214.62
880.20	214.66
880.51	214.63
880.82	214.59
881.12	214.61
881.43	214.59
881.74	214.56
882.05	214.55
882.36	214.54
882.67	214.57
882.97	214.37
883.28	214.36
883.59	214.33
883.90	214.35
884.21	214.39
884.51	214.35
884.82	214.32
885.13	214.29
885.44	214.28
885.74	214.28
886.05	214.25
886.36	214.23
886.67	214.16
886.98	214.25
887.28	214.28
887.59	214.29
887.90	214.27
888.20	214.27
888.51	214.33
888.82	214.27
889.13	214.26
889.43	214.41
889.74	214.41
890.05	214.45
890.35	214.44
890.66	214.41
890.97	214.41
891.28	214.39
891.58	214.43
891.89	214.44
892.20	214.40
892.50	214.42
892.81	214.38
893.12	214.40
893.42	214.31
893.73	214.34
894.04	214.34
894.34	214.33
894.65	214.34
894.95	214.30
895.26	214.32
895.57	214.42
895.87	214.23
896.18	214.26
896.48	214.28
896.79	214.25
897.10	214.28
897.40	214.27
897.71	214.30
898.01	214.29
898.32	214.34
898.63	214.33
898.93	214.37
899.24	214.40
899.54	214.38
899.85	214.34
900.15	214.32
900.46	214.35
900.76	214.36
901.07	214.33
901.38	214.30
901.68	214.33
901.99	214.22
902.29	214.21
902.60	214.24
902.90	214.20
903.21	214.20
903.51	214.17
903.82	214.25
904.12	214.23
904.43	214.22
904.73	214.20
905.03	214.22
905.34	214.39
905.64	214.39
905.95	214.39
906.25	214.42
906.56	214.42
906.86	214.40
907.17	214.41
907.47	214.39
907.77	214.39
908.08	214.36
908.38	214.39
908.69	214.41
908.99	214.40
909.30	214.38
909.60	214.35
909.90	214.35
910.21	214.27
910.51	214.27
910.81	214.28
911.12	214.27
911.42	214.27
911.73	214.06
912.03	214.06
912.33	214.10
912.64	214.12
912.94	214.08
913.24	214.05
913.55	214.02
913.85	214.04
914.15	214.07
914.46	214.11
914.76	214.09
915.06	214.05
915.37	214.03
915.67	214.02
915.97	214.09
916.27	214.08
916.58	214.08
916.88	214.04
917.18	214.03
917.49	214.18
917.79	214.19
918.09	214.22
918.39	214.27
918.70	214.27
919.00	214.23
919.30	214.32
919.60	214.31
919.91	214.25
920.21	214.27
920.51	214.20
920.81	214.18
921.12	214.21
921.42	214.23
921.72	214.22
922.02	214.26
922.32	214.25
922.63	214.25
922.93	214.37
923.23	214.39
923.53	214.35
923.83	214.20
924.13	214.22
924.44	214.20
924.74	214.21
925.04	214.23
925.34	214.22
925.64	214.14
925.94	214.15
926.24	214.31
926.55	214.29
926.85	214.34
927.15	214.31
927.45	214.29
927.75	214.26
928.05	214.29
928.35	214.30
928.65	214.37
928.95	214.39
929.26	214.30
929.56	214.36
929.86	214.41
930.16	214.39
930.46	214.37
930.76	214.38
931.06	214.26
931.36	214.24
931.66	214.30
931.96	214.30
932.26	214.32
932.56	214.22
932.86	214.26
933.16	214.26
933.46	214.28
933.76	214.26
934.06	214.31
934.36	214.36
934.66	214.34
934.96	214.27
935.26	214.26
935.56	214.27
935.86	214.25
936.16	214.21
936.46	214.22
936.76	214.21
937.06	214.17
937.36	214.23
937.66	214.22
937.96	214.20
938.26	214.18
938.56	214.17
938.86	214.13
939.16	214.14
939.46	214.20
939.76	214.18
940.06	214.17
940.35	214.10
940.65	214.03
940.95	214.05
941.25	214.02
941.55	214.00
941.85	214.00
942.15	214.00
942.45	214.09
942.75	214.04
943.04	214.06
943.34	214.10
943.64	214.10
943.94	214.07
944.24	214.09
944.54	214.10
944.84	214.09
945.13	214.12
945.43	214.08
945.73	214.04
946.03	214.02
946.33	213.98
946.62	213.98
946.92	213.94
947.22	213.96
947.52	213.96
947.82	213.99
948.11	213.96
948.41	213.92
948.71	213.82
949.01	213.86
949.31	213.82
949.60	213.79
949.90	213.78
950.20	213.79
950.50	213.77
950.79	213.76
951.09	213.78
951.39	213.75
951.69	213.75
951.98	213.76
952.28	213.77
952.58	213.76
952.87	213.75
953.17	213.78
953.47	213.77
953.76	213.77
954.06	213.73
954.36	213.70
954.66	213.71
954.95	213.76
955.25	213.76
955.55	213.80
955.84	213.78
956.14	213.80
956.44	213.80
956.73	213.76
957.03	213.76
957.32	213.77
957.62	213.79
957.92	213.81
958.21	213.80
958.51	214.04
958.81	214.07
959.10	214.12
959.40	214.19
959.69	214.21
959.99	214.25
960.29	214.28
960.58	214.30
960.88	214.37
961.17	214.35
961.47	214.38
961.76	214.35
962.06	214.43
962.36	214.40
962.65	214.44
962.95	214.46
963.24	214.45
963.54	214.45
963.83	214.45
964.13	214.43
964.42	214.38
964.72	214.21
965.01	214.22
965.31	214.17
965.60	214.10
965.90	214.19
966.19	214.14
966.49	214.16
966.78	214.16
967.08	214.16
967.37	214.17
967.67	214.13
967.96	214.18
968.26	214.13
968.55	214.17
968.85	214.14
969.14	214.12
969.43	214.12
969.73	214.08
970.02	214.07
970.32	214.08
970.61	214.06
970.91	214.00
971.20	213.98
971.49	213.99
971.79	214.02
972.08	213.87
972.38	213.90
972.67	213.88
972.96	213.91
973.26	213.84
973.55	213.89
973.85	213.89
974.14	213.88
974.43	213.90
974.73	213.85
975.02	213.83
975.31	213.86
975.61	213.87
975.90	213.84
976.19	213.83
976.49	213.82
976.78	213.88
977.07	213.90
977.37	213.93
977.66	213.98
977.95	213.96
978.24	213.96
978.54	214.00
978.83	213.98
979.12	213.95
979.42	213.94
979.71	213.91
980.00	213.89
980.29	213.88
980.59	213.83
980.88	213.88
981.17	213.88
981.46	213.86
981.76	213.86
982.05	213.97
982.34	213.97
982.63	214.00
982.93	214.00
983.22	214.02
983.51	214.04
983.80	214.03
984.09	214.05
984.39	214.06
984.68	214.01
984.97	214.00
985.26	213.99
985.55	214.03
985.85	213.97
986.14	214.03
986.43	214.08
986.72	214.08
987.01	214.01
987.30	214.01
987.59	214.04
987.89	214.02
988.18	213.94
988.47	213.92
988.76	213.87
989.05	213.85
989.34	213.80
989.63	213.83
989.92	213.81
990.22	213.78
990.51	213.75
990.80	213.75
991.09	213.80
991.38	213.84
991.67	213.83
991.96	213.81
992.25	213.81
992.54	213.73
992.83	213.74
993.12	213.74
993.41	213.77
993.70	213.83
993.99	213.87
994.28	213.91
994.58	213.97
994.87	213.96
995.16	213.96
995.45	213.96
995.74	213.90
996.03	213.90
996.32	213.98
996.61	214.04
996.90	214.05
997.19	214.02
997.48	214.05
997.77	214.04
998.06	214.08
998.34	214.09
998.63	214.13
998.92	214.13
999.21	214.19
999.50	214.19
999.79	214.15
1000.08	214.13
1000.37	214.13
1000.66	214.09
1000.95	214.18
1001.24	214.22
1001.53	214.26
1001.82	214.26
1002.11	214.24
1002.40	214.23
1002.68	214.29
1002.97	214.42
1003.26	214.40
1003.55	214.32
1003.84	214.33
1004.13	214.37
1004.42	214.34
1004.71	214.32
1004.99	214.31
1005.28	214.36
1005.57	214.32
1005.86	214.28
1006.15	214.29
1006.44	214.25
1006.72	214.30
1007.01	214.25
1007.30	214.24
1007.59	214.21
1007.88	214.22
1008.17	214.20
1008.45	214.14
1008.74	214.02
1009.03	213.93
1009.32	213.92
1009.60	213.97
1009.89	213.93
1010.18	213.85
1010.47	213.84
1010.76	213.88
1011.04	213.90
1011.33	213.88
1011.62	213.93
1011.91	213.94
1012.19	213.98
1012.48	213.99
1012.77	213.94
1013.05	214.03
1013.34	214.02
1013.63	213.99
1013.92	213.97
1014.20	213.98
1014.49	213.98
1014.78	213.99
1015.06	213.93
1015.35	213.93
1015.64	213.94
1015.92	213.99
1016.21	214.01
1016.50	214.00
1016.78	213.97
1017.07	213.97
1017.36	213.90
1017.64	213.86
1017.93	213.88
1018.22	213.85
1018.50	213.86
1018.79	213.88
1019.08	213.78
1019.36	213.78
1019.65	213.80
1019.93	213.87
1020.22	213.90
1020.51	214.01
1020.79	214.00
1021.08	214.06
1021.36	213.99
1021.65	214.01
1021.94	213.74
1022.22	213.86
1022.51	213.89
1022.79	214.79
1023.08	214.15
1023.36	216.10
1023.65	213.33
>>>>>End Processed Spectral Data<<<<<
