SpectraSuite Data File
++++++++++++++++++++++++++++++++++++
Date: Tue Jan 29 16:09:09 EST 2013
User: group
Dark Spectrum Present: No
Reference Spectrum Present: No
Number of Sampled Component Spectra: 1
Spectrometers: USB2E7196
Integration Time (usec): 65000 (USB2E7196)
Spectra Averaged: 100 (USB2E7196)
Boxcar Smoothing: 10 (USB2E7196)
Correct for Electrical Dark: No (USB2E7196)
Strobe/Lamp Enabled: No (USB2E7196)
Correct for Detector Non-linearity: No (USB2E7196)
Correct for Stray Light: No (USB2E7196)
Number of Pixels in Processed Spectrum: 2048
>>>>>Begin Processed Spectral Data<<<<<
339.09	0.00
339.48	202.33
339.86	203.93
340.24	205.12
340.63	206.38
341.01	210.69
341.39	209.17
341.78	211.06
342.16	212.05
342.54	212.57
342.93	201.51
343.31	211.68
343.69	212.24
344.07	212.71
344.46	213.13
344.84	213.55
345.22	213.75
345.60	214.02
345.99	214.19
346.37	214.36
346.75	214.46
347.13	214.55
347.52	214.61
347.90	214.75
348.28	214.80
348.66	214.86
349.05	214.84
349.43	214.92
349.81	215.00
350.19	215.07
350.57	215.18
350.96	215.29
351.34	215.39
351.72	215.48
352.10	215.62
352.48	215.73
352.87	215.80
353.25	215.86
353.63	215.94
354.01	216.03
354.39	216.12
354.77	216.23
355.15	216.38
355.54	216.46
355.92	216.49
356.30	216.61
356.68	216.84
357.06	216.96
357.44	217.02
357.82	217.13
358.20	217.26
358.58	217.31
358.97	217.37
359.35	217.48
359.73	217.60
360.11	217.64
360.49	217.73
360.87	217.79
361.25	217.86
361.63	217.99
362.01	218.07
362.39	218.08
362.77	218.13
363.15	218.17
363.53	218.20
363.91	218.23
364.29	218.23
364.67	218.05
365.05	218.05
365.43	218.09
365.81	218.09
366.19	218.18
366.57	218.29
366.95	218.32
367.33	218.30
367.71	218.33
368.09	218.36
368.47	218.31
368.85	218.30
369.23	218.32
369.61	218.23
369.99	218.28
370.37	218.28
370.75	218.34
371.13	218.30
371.51	218.23
371.89	218.26
372.27	218.25
372.65	218.29
373.03	218.27
373.41	218.21
373.78	218.18
374.16	218.03
374.54	217.93
374.92	217.85
375.30	217.80
375.68	217.69
376.06	217.66
376.44	217.62
376.82	217.57
377.19	217.51
377.57	217.45
377.95	217.30
378.33	217.25
378.71	217.10
379.09	217.10
379.47	217.09
379.84	216.94
380.22	216.86
380.60	216.75
380.98	216.70
381.36	216.66
381.73	216.58
382.11	216.56
382.49	216.51
382.87	216.44
383.25	216.39
383.62	216.58
384.00	216.52
384.38	216.46
384.76	216.45
385.13	216.52
385.51	216.49
385.89	216.46
386.27	216.43
386.64	216.42
387.02	216.34
387.40	216.29
387.78	216.27
388.15	216.27
388.53	216.23
388.91	216.17
389.29	216.11
389.66	216.12
390.04	216.07
390.42	216.05
390.79	216.07
391.17	216.09
391.55	215.80
391.92	215.79
392.30	215.86
392.68	215.81
393.05	215.75
393.43	215.78
393.81	215.76
394.18	215.73
394.56	215.74
394.94	215.80
395.31	215.80
395.69	215.89
396.06	215.93
396.44	215.95
396.82	215.95
397.19	216.10
397.57	216.06
397.95	216.12
398.32	216.10
398.70	216.14
399.07	216.21
399.45	216.30
399.82	216.31
400.20	216.29
400.58	216.36
400.95	216.37
401.33	216.46
401.70	216.68
402.08	216.75
402.45	216.84
402.83	216.94
403.20	217.03
403.58	217.11
403.95	217.27
404.33	217.47
404.71	217.66
405.08	217.94
405.46	218.14
405.83	218.32
406.21	218.54
406.58	218.76
406.96	218.95
407.33	219.19
407.70	219.49
408.08	219.99
408.45	220.35
408.83	220.73
409.20	221.08
409.58	221.37
409.95	221.80
410.33	222.25
410.70	222.68
411.08	223.23
411.45	223.78
411.82	224.30
412.20	224.94
412.57	225.72
412.95	226.24
413.32	227.02
413.69	227.80
414.07	228.69
414.44	229.66
414.82	230.64
415.19	231.78
415.56	232.93
415.94	234.02
416.31	235.34
416.68	236.69
417.06	238.19
417.43	239.69
417.81	241.40
418.18	243.10
418.55	244.94
418.93	246.88
419.30	248.92
419.67	251.05
420.04	253.22
420.42	255.52
420.79	258.23
421.16	260.96
421.54	263.75
421.91	266.64
422.28	269.61
422.66	272.79
423.03	275.94
423.40	279.19
423.77	282.69
424.15	286.22
424.52	289.91
424.89	293.92
425.26	297.86
425.64	301.62
426.01	305.80
426.38	310.12
426.75	314.51
427.13	319.07
427.50	323.92
427.87	329.00
428.24	334.04
428.61	338.86
428.99	344.15
429.36	349.99
429.73	355.69
430.10	361.36
430.47	367.24
430.85	373.30
431.22	379.79
431.59	386.61
431.96	393.19
432.33	400.49
432.70	407.55
433.08	415.74
433.45	423.50
433.82	431.16
434.19	439.74
434.56	448.19
434.93	456.25
435.30	464.20
435.68	472.93
436.05	481.55
436.42	490.10
436.79	497.95
437.16	506.44
437.53	515.34
437.90	524.19
438.27	532.77
438.64	541.67
439.01	549.93
439.38	557.29
439.75	564.43
440.13	572.48
440.50	580.13
440.87	586.39
441.24	592.82
441.61	599.93
441.98	605.11
442.35	611.14
442.72	617.24
443.09	623.08
443.46	626.67
443.83	629.12
444.20	631.20
444.57	634.27
444.94	635.56
445.31	636.98
445.68	638.27
446.05	638.96
446.42	638.21
446.79	637.18
447.16	636.07
447.53	635.31
447.90	632.07
448.27	628.87
448.64	624.35
449.01	621.14
449.37	615.47
449.74	610.04
450.11	603.38
450.48	596.23
450.85	589.08
451.22	582.83
451.59	576.91
451.96	571.33
452.33	563.70
452.70	556.89
453.07	548.72
453.43	540.43
453.80	532.31
454.17	524.60
454.54	517.33
454.91	509.51
455.28	501.83
455.65	494.75
456.02	487.57
456.38	481.49
456.75	473.85
457.12	467.49
457.49	461.20
457.86	455.28
458.23	450.08
458.59	444.37
458.96	438.64
459.33	433.52
459.70	428.33
460.07	424.26
460.43	419.59
460.80	415.19
461.17	411.34
461.54	407.35
461.91	403.49
462.27	399.60
462.64	396.27
463.01	392.61
463.38	389.03
463.74	385.40
464.11	382.25
464.48	379.62
464.85	376.64
465.21	374.33
465.58	371.81
465.95	368.85
466.32	366.29
466.68	363.79
467.05	361.32
467.42	358.91
467.78	356.35
468.15	353.89
468.52	352.05
468.88	349.67
469.25	347.57
469.62	345.83
469.98	343.91
470.35	342.18
470.72	340.55
471.08	338.82
471.45	337.42
471.82	335.98
472.18	334.38
472.55	333.25
472.92	331.88
473.28	330.69
473.65	329.57
474.02	328.57
474.38	327.76
474.75	327.06
475.11	326.31
475.48	325.74
475.85	325.30
476.21	324.82
476.58	324.51
476.94	324.32
477.31	324.08
477.67	323.92
478.04	323.78
478.41	323.73
478.77	323.95
479.14	323.89
479.50	324.02
479.87	324.30
480.23	324.64
480.60	324.93
480.96	325.30
481.33	325.89
481.69	326.47
482.06	327.01
482.42	327.47
482.79	328.05
483.15	328.88
483.52	329.84
483.88	330.75
484.25	331.71
484.61	332.69
484.98	333.68
485.34	335.00
485.71	336.39
486.07	337.84
486.44	339.13
486.80	340.81
487.17	342.51
487.53	344.34
487.90	346.19
488.26	348.22
488.62	350.33
488.99	352.38
489.35	354.56
489.72	356.89
490.08	359.43
490.44	361.98
490.81	364.66
491.17	367.35
491.54	370.33
491.90	373.31
492.26	376.61
492.63	380.00
492.99	383.44
493.36	387.11
493.72	391.01
494.08	394.99
494.45	399.18
494.81	403.48
495.17	407.90
495.54	412.59
495.90	417.39
496.26	422.30
496.63	427.52
496.99	432.83
497.35	438.44
497.72	444.24
498.08	450.18
498.44	456.24
498.80	462.67
499.17	469.11
499.53	475.83
499.89	482.67
500.26	489.62
500.62	496.67
500.98	504.05
501.34	511.48
501.71	519.27
502.07	527.01
502.43	535.06
502.79	543.19
503.16	551.56
503.52	560.14
503.88	568.81
504.24	577.72
504.60	586.74
504.97	595.90
505.33	605.10
505.69	614.91
506.05	624.80
506.41	634.54
506.78	644.56
507.14	654.79
507.50	665.17
507.86	675.86
508.22	686.61
508.59	697.23
508.95	708.22
509.31	719.34
509.67	730.85
510.03	742.16
510.39	753.89
510.75	765.61
511.12	777.42
511.48	789.44
511.84	801.57
512.20	813.80
512.56	826.36
512.92	839.15
513.28	851.67
513.64	864.29
514.00	877.02
514.37	889.88
514.73	902.77
515.09	915.65
515.45	928.39
515.81	941.22
516.17	954.37
516.53	967.52
516.89	980.50
517.25	993.45
517.61	1006.88
517.97	1019.95
518.33	1033.00
518.69	1046.30
519.05	1059.82
519.41	1073.29
519.77	1086.96
520.13	1100.04
520.49	1112.94
520.85	1126.17
521.21	1139.30
521.57	1152.70
521.93	1165.57
522.29	1179.17
522.65	1192.49
523.01	1205.86
523.37	1218.92
523.73	1231.91
524.09	1244.75
524.45	1257.96
524.81	1271.22
525.17	1284.26
525.53	1297.26
525.89	1310.26
526.25	1323.21
526.61	1335.77
526.97	1348.56
527.33	1361.20
527.68	1374.35
528.04	1387.52
528.40	1400.27
528.76	1413.17
529.12	1425.82
529.48	1438.82
529.84	1450.70
530.20	1463.29
530.56	1475.66
530.91	1488.72
531.27	1501.37
531.63	1513.85
531.99	1526.31
532.35	1538.19
532.71	1550.21
533.07	1562.73
533.42	1574.64
533.78	1586.32
534.14	1598.16
534.50	1609.18
534.86	1620.55
535.21	1631.10
535.57	1642.28
535.93	1653.38
536.29	1664.31
536.65	1675.49
537.00	1686.20
537.36	1697.34
537.72	1708.04
538.08	1719.01
538.44	1729.52
538.79	1740.22
539.15	1750.79
539.51	1761.07
539.87	1772.11
540.22	1782.67
540.58	1793.22
540.94	1803.80
541.29	1813.91
541.65	1823.44
542.01	1833.59
542.37	1843.31
542.72	1853.23
543.08	1862.79
543.44	1872.92
543.79	1881.90
544.15	1891.10
544.51	1900.76
544.87	1910.43
545.22	1919.12
545.58	1927.79
545.94	1936.40
546.29	1944.68
546.65	1952.85
547.01	1960.97
547.36	1968.42
547.72	1975.86
548.07	1983.32
548.43	1990.95
548.79	1998.53
549.14	2006.34
549.50	2014.57
549.86	2022.18
550.21	2029.25
550.57	2036.59
550.92	2043.13
551.28	2050.49
551.64	2057.58
551.99	2064.91
552.35	2071.81
552.70	2078.58
553.06	2085.00
553.41	2091.05
553.77	2097.47
554.13	2103.67
554.48	2110.45
554.84	2117.18
555.19	2123.52
555.55	2129.79
555.90	2135.78
556.26	2142.37
556.61	2148.17
556.97	2152.95
557.32	2158.58
557.68	2165.01
558.03	2170.71
558.39	2175.88
558.74	2181.72
559.10	2187.20
559.45	2192.66
559.81	2198.04
560.16	2203.65
560.52	2209.53
560.87	2215.97
561.23	2221.80
561.58	2228.33
561.94	2233.47
562.29	2238.40
562.64	2244.67
563.00	2250.25
563.35	2255.90
563.71	2261.87
564.06	2267.55
564.42	2273.50
564.77	2278.72
565.12	2283.91
565.48	2289.09
565.83	2294.67
566.19	2300.25
566.54	2305.69
566.89	2310.40
567.25	2315.08
567.60	2320.79
567.96	2325.95
568.31	2330.51
568.66	2334.83
569.02	2338.83
569.37	2342.73
569.72	2347.10
570.08	2350.65
570.43	2353.87
570.78	2356.96
571.14	2359.44
571.49	2362.68
571.84	2366.27
572.20	2369.18
572.55	2372.48
572.90	2374.90
573.26	2377.96
573.61	2380.56
573.96	2382.84
574.31	2384.92
574.67	2387.01
575.02	2388.10
575.37	2389.64
575.72	2390.51
576.08	2392.30
576.43	2392.67
576.78	2393.49
577.13	2395.35
577.49	2396.56
577.84	2397.97
578.19	2399.61
578.54	2400.49
578.90	2401.64
579.25	2401.79
579.60	2402.15
579.95	2401.58
580.30	2402.00
580.66	2401.35
581.01	2399.78
581.36	2397.58
581.71	2396.40
582.06	2395.49
582.42	2394.73
582.77	2392.76
583.12	2391.49
583.47	2390.38
583.82	2390.05
584.17	2389.01
584.53	2387.11
584.88	2385.18
585.23	2383.39
585.58	2381.38
585.93	2379.41
586.28	2377.33
586.63	2375.00
586.98	2372.72
587.34	2370.91
587.69	2368.66
588.04	2366.78
588.39	2365.47
588.74	2363.32
589.09	2360.93
589.44	2358.04
589.79	2355.71
590.14	2354.08
590.49	2351.29
590.84	2347.58
591.19	2344.67
591.54	2341.50
591.89	2337.44
592.25	2334.41
592.60	2330.29
592.95	2326.08
593.30	2322.07
593.65	2317.73
594.00	2313.59
594.35	2310.77
594.70	2306.12
595.05	2301.56
595.40	2296.21
595.75	2290.72
596.10	2287.05
596.45	2282.17
596.80	2277.50
597.15	2272.29
597.50	2266.44
597.85	2261.62
598.19	2256.42
598.54	2250.71
598.89	2245.63
599.24	2241.38
599.59	2235.46
599.94	2229.94
600.29	2224.46
600.64	2218.59
600.99	2212.03
601.34	2206.54
601.69	2199.64
602.04	2193.44
602.39	2186.93
602.74	2181.07
603.08	2175.62
603.43	2169.23
603.78	2162.55
604.13	2155.66
604.48	2148.70
604.83	2142.69
605.18	2136.43
605.53	2129.59
605.87	2122.58
606.22	2115.85
606.57	2107.96
606.92	2099.91
607.27	2092.93
607.62	2086.23
607.96	2079.33
608.31	2072.88
608.66	2065.23
609.01	2057.74
609.36	2050.64
609.70	2043.03
610.05	2035.30
610.40	2026.96
610.75	2018.79
611.10	2011.06
611.44	2002.40
611.79	1993.57
612.14	1983.63
612.49	1973.17
612.83	1963.98
613.18	1954.84
613.53	1945.58
613.88	1936.02
614.22	1927.66
614.57	1917.78
614.92	1907.27
615.27	1897.30
615.61	1887.36
615.96	1877.66
616.31	1868.19
616.65	1858.93
617.00	1849.08
617.35	1839.51
617.70	1829.91
618.04	1819.90
618.39	1809.62
618.74	1799.92
619.08	1790.45
619.43	1781.81
619.78	1773.62
620.12	1764.95
620.47	1755.16
620.82	1744.86
621.16	1735.15
621.51	1725.21
621.85	1715.43
622.20	1704.89
622.55	1694.23
622.89	1684.36
623.24	1674.82
623.59	1665.01
623.93	1654.81
624.28	1645.21
624.62	1635.04
624.97	1624.73
625.32	1615.04
625.66	1606.34
626.01	1597.47
626.35	1588.12
626.70	1577.93
627.04	1567.85
627.39	1557.77
627.73	1548.66
628.08	1539.63
628.43	1530.04
628.77	1520.80
629.12	1512.03
629.46	1504.25
629.81	1495.82
630.15	1486.13
630.50	1476.19
630.84	1465.70
631.19	1455.78
631.53	1446.35
631.88	1436.21
632.22	1426.18
632.57	1416.72
632.91	1406.64
633.26	1396.77
633.60	1387.16
633.95	1377.92
634.29	1368.44
634.64	1359.09
634.98	1349.12
635.32	1339.84
635.67	1331.25
636.01	1321.98
636.36	1312.14
636.70	1302.58
637.05	1293.32
637.39	1284.38
637.73	1275.78
638.08	1268.30
638.42	1260.08
638.77	1251.37
639.11	1243.18
639.45	1235.39
639.80	1226.75
640.14	1218.03
640.49	1209.25
640.83	1200.46
641.17	1192.33
641.52	1184.15
641.86	1175.53
642.20	1167.68
642.55	1159.13
642.89	1150.35
643.23	1141.67
643.58	1133.66
643.92	1124.69
644.26	1115.96
644.61	1107.62
644.95	1098.81
645.29	1089.52
645.64	1080.41
645.98	1072.03
646.32	1064.15
646.66	1055.70
647.01	1047.42
647.35	1039.33
647.69	1030.94
648.04	1022.61
648.38	1013.76
648.72	1005.04
649.06	996.65
649.41	988.45
649.75	980.42
650.09	972.59
650.43	964.51
650.78	956.20
651.12	948.64
651.46	941.36
651.80	934.12
652.14	926.84
652.49	919.35
652.83	912.07
653.17	904.38
653.51	896.71
653.85	889.48
654.20	882.24
654.54	874.71
654.88	867.64
655.22	860.54
655.56	853.56
655.90	846.81
656.25	840.18
656.59	833.27
656.93	826.33
657.27	819.25
657.61	812.45
657.95	806.41
658.29	800.42
658.64	794.26
658.98	787.83
659.32	781.40
659.66	775.18
660.00	768.93
660.34	762.97
660.68	756.94
661.02	750.67
661.36	744.86
661.70	739.17
662.05	733.48
662.39	727.94
662.73	722.62
663.07	717.26
663.41	711.73
663.75	706.20
664.09	700.69
664.43	695.33
664.77	689.98
665.11	684.19
665.45	678.38
665.79	672.63
666.13	667.04
666.47	661.60
666.81	656.23
667.15	650.88
667.49	645.70
667.83	640.57
668.17	635.37
668.51	630.27
668.85	625.41
669.19	620.60
669.53	615.72
669.87	610.72
670.21	605.98
670.55	601.39
670.89	597.00
671.23	592.74
671.57	588.43
671.91	584.19
672.25	580.14
672.58	576.06
672.92	572.04
673.26	568.15
673.60	564.32
673.94	560.61
674.28	557.10
674.62	553.41
674.96	549.68
675.30	546.23
675.64	542.66
675.97	539.10
676.31	535.49
676.65	531.91
676.99	528.51
677.33	524.85
677.67	521.18
678.01	517.38
678.34	513.75
678.68	510.30
679.02	506.81
679.36	503.17
679.70	499.64
680.04	496.21
680.37	492.81
680.71	489.59
681.05	486.46
681.39	483.25
681.73	480.13
682.06	477.16
682.40	474.16
682.74	470.96
683.08	467.83
683.42	464.75
683.75	461.89
684.09	458.88
684.43	456.03
684.77	453.17
685.10	450.39
685.44	447.55
685.78	444.70
686.12	441.98
686.45	439.31
686.79	436.67
687.13	434.13
687.46	431.58
687.80	428.94
688.14	426.15
688.48	423.61
688.81	420.95
689.15	418.42
689.49	415.82
689.82	413.36
690.16	410.81
690.50	408.43
690.83	405.91
691.17	403.47
691.51	401.12
691.84	398.92
692.18	396.74
692.52	394.55
692.85	392.42
693.19	390.25
693.52	388.10
693.86	385.93
694.20	383.81
694.53	381.75
694.87	379.58
695.21	377.49
695.54	375.34
695.88	373.25
696.21	371.08
696.55	369.01
696.88	367.02
697.22	365.14
697.56	363.27
697.89	361.44
698.23	359.72
698.56	357.98
698.90	356.23
699.23	354.33
699.57	352.55
699.90	350.74
700.24	349.03
700.58	347.33
700.91	345.72
701.25	344.20
701.58	342.62
701.92	341.08
702.25	339.56
702.59	337.97
702.92	336.51
703.26	334.99
703.59	333.57
703.93	332.33
704.26	330.93
704.60	329.47
704.93	328.04
705.26	326.57
705.60	325.12
705.93	323.64
706.27	322.40
706.60	321.13
706.94	319.91
707.27	318.50
707.61	317.17
707.94	315.84
708.27	314.32
708.61	312.90
708.94	311.57
709.28	310.26
709.61	309.05
709.94	307.86
710.28	306.70
710.61	305.50
710.95	304.10
711.28	303.04
711.61	301.89
711.95	300.73
712.28	299.56
712.61	298.42
712.95	297.40
713.28	296.35
713.61	295.22
713.95	294.11
714.28	293.19
714.61	292.19
714.95	291.20
715.28	290.25
715.61	289.26
715.95	288.33
716.28	287.42
716.61	286.49
716.95	285.51
717.28	284.58
717.61	283.67
717.94	282.79
718.28	281.76
718.61	280.89
718.94	280.08
719.27	279.27
719.61	278.47
719.94	277.61
720.27	276.66
720.60	275.87
720.94	275.12
721.27	274.35
721.60	273.67
721.93	272.99
722.27	272.35
722.60	271.70
722.93	271.00
723.26	270.37
723.59	269.69
723.93	269.07
724.26	268.47
724.59	267.85
724.92	267.32
725.25	266.84
725.59	266.29
725.92	265.75
726.25	265.20
726.58	264.64
726.91	264.09
727.24	263.61
727.57	263.06
727.91	262.43
728.24	261.91
728.57	261.32
728.90	260.77
729.23	260.17
729.56	259.73
729.89	259.21
730.22	258.64
730.55	258.09
730.89	257.59
731.22	257.09
731.55	256.59
731.88	256.07
732.21	255.51
732.54	254.96
732.87	254.47
733.20	253.97
733.53	253.48
733.86	253.02
734.19	252.53
734.52	252.14
734.85	251.91
735.18	251.46
735.51	251.14
735.84	250.74
736.17	250.40
736.50	249.92
736.83	249.82
737.16	249.44
737.49	249.08
737.82	248.69
738.15	248.31
738.48	247.93
738.81	247.54
739.14	247.15
739.47	246.76
739.80	246.39
740.13	246.08
740.46	245.70
740.79	245.34
741.12	245.00
741.45	244.61
741.78	244.17
742.11	243.89
742.44	243.49
742.77	243.18
743.10	242.81
743.43	242.47
743.75	241.85
744.08	241.81
744.41	241.49
744.74	241.16
745.07	240.82
745.40	240.54
745.73	240.31
746.06	239.98
746.39	239.73
746.71	239.37
747.04	239.04
747.37	238.76
747.70	238.47
748.03	238.17
748.36	237.92
748.68	237.60
749.01	237.22
749.34	236.90
749.67	236.63
750.00	236.40
750.33	236.25
750.65	236.01
750.98	235.51
751.31	235.27
751.64	235.03
751.97	234.91
752.29	234.66
752.62	234.31
752.95	234.08
753.28	233.83
753.60	233.63
753.93	233.46
754.26	233.21
754.59	232.97
754.91	232.74
755.24	232.47
755.57	232.23
755.90	232.03
756.22	231.84
756.55	231.58
756.88	231.32
757.20	231.01
757.53	230.76
757.86	230.53
758.19	230.35
758.51	230.16
758.84	229.85
759.17	229.66
759.49	229.52
759.82	229.46
760.15	229.30
760.47	229.10
760.80	228.82
761.13	228.69
761.45	228.46
761.78	228.30
762.11	228.16
762.43	228.00
762.76	227.84
763.08	227.64
763.41	227.52
763.74	227.37
764.06	227.23
764.39	227.11
764.71	226.98
765.04	226.79
765.37	226.61
765.69	226.51
766.02	226.34
766.34	226.20
766.67	225.96
767.00	225.87
767.32	225.86
767.65	225.86
767.97	225.76
768.30	225.68
768.62	225.57
768.95	225.43
769.27	225.32
769.60	225.22
769.92	225.11
770.25	224.95
770.57	224.80
770.90	224.65
771.22	224.52
771.55	224.39
771.87	224.28
772.20	224.16
772.52	224.17
772.85	224.32
773.17	224.18
773.50	224.11
773.82	223.97
774.15	223.73
774.47	223.55
774.80	223.40
775.12	223.29
775.45	223.18
775.77	223.10
776.09	223.01
776.42	222.92
776.74	222.89
777.07	222.81
777.39	222.77
777.72	222.68
778.04	222.59
778.36	222.48
778.69	222.43
779.01	222.35
779.33	222.13
779.66	221.86
779.98	221.79
780.31	221.68
780.63	221.71
780.95	221.70
781.28	221.63
781.60	221.53
781.92	221.48
782.25	221.43
782.57	221.36
782.89	221.25
783.22	221.17
783.54	221.05
783.86	220.99
784.19	220.88
784.51	220.88
784.83	220.78
785.16	220.75
785.48	220.73
785.80	220.69
786.12	220.63
786.45	220.55
786.77	220.53
787.09	220.46
787.42	220.31
787.74	220.24
788.06	220.18
788.38	220.17
788.71	220.09
789.03	220.03
789.35	220.03
789.67	219.99
789.99	219.96
790.32	219.91
790.64	219.90
790.96	220.05
791.28	219.94
791.61	219.93
791.93	219.87
792.25	219.77
792.57	219.89
792.89	219.79
793.21	219.74
793.54	219.69
793.86	219.61
794.18	219.59
794.50	219.50
794.82	219.47
795.14	219.46
795.47	219.46
795.79	219.42
796.11	219.29
796.43	219.25
796.75	219.20
797.07	219.18
797.39	219.13
797.71	218.92
798.04	218.89
798.36	218.82
798.68	218.78
799.00	218.77
799.32	218.60
799.64	218.62
799.96	218.60
800.28	218.58
800.60	218.56
800.92	218.56
801.24	218.55
801.56	218.53
801.89	218.46
802.21	218.47
802.53	218.37
802.85	218.39
803.17	218.47
803.49	218.40
803.81	218.36
804.13	218.32
804.45	218.26
804.77	218.26
805.09	218.26
805.41	218.21
805.73	218.15
806.05	218.12
806.37	218.06
806.69	218.02
807.01	217.96
807.33	217.97
807.65	217.87
807.97	217.93
808.28	217.85
808.60	217.81
808.92	217.76
809.24	217.89
809.56	217.85
809.88	217.77
810.20	217.77
810.52	217.79
810.84	217.72
811.16	217.68
811.48	217.63
811.80	217.69
812.12	217.68
812.43	217.69
812.75	217.64
813.07	217.63
813.39	217.61
813.71	217.57
814.03	217.49
814.35	217.45
814.67	217.36
814.98	217.33
815.30	217.33
815.62	217.27
815.94	217.08
816.26	217.09
816.58	217.01
816.89	216.98
817.21	216.90
817.53	216.93
817.85	216.91
818.17	216.90
818.48	216.81
818.80	216.83
819.12	216.77
819.44	216.73
819.76	216.69
820.07	216.69
820.39	216.68
820.71	216.70
821.03	216.73
821.34	216.68
821.66	216.71
821.98	216.69
822.30	216.67
822.61	216.78
822.93	216.72
823.25	216.70
823.57	216.67
823.88	216.69
824.20	216.64
824.52	216.70
824.83	216.66
825.15	216.61
825.47	216.60
825.79	216.61
826.10	216.57
826.42	216.57
826.74	216.57
827.05	216.54
827.37	216.54
827.69	216.53
828.00	216.52
828.32	216.51
828.64	216.49
828.95	216.59
829.27	216.56
829.58	216.55
829.90	216.55
830.22	216.59
830.53	216.53
830.85	216.51
831.17	216.44
831.48	216.45
831.80	216.45
832.11	216.42
832.43	216.42
832.75	216.43
833.06	216.55
833.38	216.48
833.69	216.48
834.01	216.48
834.32	216.43
834.64	216.42
834.96	216.40
835.27	216.37
835.59	216.26
835.90	216.21
836.22	216.25
836.53	216.22
836.85	216.16
837.16	216.36
837.48	216.36
837.79	216.45
838.11	216.45
838.42	216.45
838.74	216.48
839.05	216.44
839.37	216.43
839.68	216.28
840.00	216.27
840.31	216.30
840.63	216.23
840.94	216.23
841.26	216.18
841.57	216.19
841.88	216.22
842.20	216.21
842.51	216.18
842.83	216.16
843.14	216.35
843.46	216.36
843.77	216.24
844.08	216.19
844.40	216.10
844.71	216.02
845.03	216.01
845.34	215.96
845.65	215.96
845.97	215.94
846.28	215.96
846.60	215.97
846.91	215.93
847.22	215.93
847.54	215.94
847.85	215.94
848.16	215.92
848.48	215.89
848.79	215.95
849.10	215.94
849.42	215.91
849.73	215.69
850.04	215.67
850.36	215.59
850.67	215.64
850.98	215.66
851.30	215.70
851.61	215.67
851.92	215.68
852.23	215.70
852.55	215.74
852.86	215.74
853.17	215.75
853.49	215.75
853.80	215.80
854.11	215.80
854.42	215.86
854.74	215.85
855.05	215.83
855.36	215.72
855.67	215.73
855.99	215.75
856.30	216.00
856.61	216.00
856.92	215.99
857.23	216.00
857.55	215.92
857.86	215.91
858.17	215.94
858.48	215.87
858.79	215.83
859.11	215.84
859.42	215.80
859.73	215.74
860.04	215.75
860.35	215.64
860.66	215.60
860.98	215.56
861.29	215.53
861.60	215.52
861.91	215.57
862.22	215.53
862.53	215.50
862.84	215.21
863.16	215.24
863.47	215.24
863.78	215.21
864.09	215.26
864.40	215.27
864.71	215.25
865.02	215.31
865.33	215.31
865.64	215.26
865.95	215.26
866.27	215.42
866.58	215.41
866.89	215.47
867.20	215.45
867.51	215.42
867.82	215.43
868.13	215.51
868.44	215.48
868.75	215.51
869.06	215.50
869.37	215.57
869.68	215.50
869.99	215.50
870.30	215.52
870.61	215.54
870.92	215.50
871.23	215.49
871.54	215.51
871.85	215.56
872.16	215.56
872.47	215.55
872.78	215.43
873.09	215.45
873.40	215.46
873.71	215.50
874.02	215.54
874.33	215.51
874.64	215.48
874.95	215.49
875.26	215.49
875.56	215.49
875.87	215.45
876.18	215.50
876.49	215.73
876.80	215.68
877.11	215.64
877.42	215.64
877.73	215.65
878.04	215.59
878.35	215.56
878.66	215.60
878.96	215.59
879.27	215.57
879.58	215.53
879.89	215.48
880.20	215.52
880.51	215.49
880.82	215.47
881.12	215.48
881.43	215.46
881.74	215.42
882.05	215.37
882.36	215.38
882.67	215.36
882.97	215.11
883.28	215.11
883.59	215.09
883.90	215.10
884.21	215.14
884.51	215.16
884.82	215.14
885.13	215.14
885.44	215.13
885.74	215.16
886.05	215.18
886.36	215.20
886.67	215.16
886.98	215.27
887.28	215.31
887.59	215.28
887.90	215.29
888.20	215.27
888.51	215.37
888.82	215.34
889.13	215.34
889.43	215.51
889.74	215.50
890.05	215.51
890.35	215.51
890.66	215.45
890.97	215.41
891.28	215.37
891.58	215.36
891.89	215.36
892.20	215.32
892.50	215.31
892.81	215.27
893.12	215.25
893.42	215.15
893.73	215.14
894.04	215.17
894.34	215.16
894.65	215.18
894.95	215.12
895.26	215.14
895.57	215.23
895.87	215.04
896.18	215.07
896.48	215.06
896.79	215.05
897.10	215.10
897.40	215.12
897.71	215.13
898.01	215.10
898.32	215.12
898.63	215.09
898.93	215.11
899.24	215.14
899.54	215.16
899.85	215.13
900.15	215.10
900.46	215.06
900.76	215.06
901.07	215.05
901.38	215.06
901.68	215.08
901.99	214.99
902.29	215.00
902.60	215.00
902.90	214.99
903.21	214.98
903.51	214.96
903.82	214.99
904.12	215.01
904.43	215.01
904.73	214.98
905.03	215.02
905.34	215.17
905.64	215.16
905.95	215.14
906.25	215.15
906.56	215.16
906.86	215.19
907.17	215.18
907.47	215.17
907.77	215.13
908.08	215.10
908.38	215.09
908.69	215.10
908.99	215.13
909.30	215.16
909.60	215.17
909.90	215.15
910.21	215.09
910.51	215.05
910.81	215.07
911.12	215.10
911.42	215.09
911.73	214.88
912.03	214.87
912.33	214.91
912.64	214.90
912.94	214.89
913.24	214.87
913.55	214.83
913.85	214.82
914.15	214.86
914.46	214.89
914.76	214.85
915.06	214.83
915.37	214.79
915.67	214.77
915.97	214.75
916.27	214.73
916.58	214.73
916.88	214.73
917.18	214.72
917.49	214.86
917.79	214.85
918.09	214.90
918.39	214.94
918.70	214.94
919.00	214.96
919.30	215.07
919.60	215.06
919.91	215.06
920.21	215.11
920.51	215.07
920.81	215.08
921.12	215.15
921.42	215.16
921.72	215.17
922.02	215.15
922.32	215.18
922.63	215.20
922.93	215.27
923.23	215.31
923.53	215.29
923.83	215.16
924.13	215.18
924.44	215.18
924.74	215.25
925.04	215.31
925.34	215.29
925.64	215.17
925.94	215.18
926.24	215.30
926.55	215.27
926.85	215.30
927.15	215.27
927.45	215.26
927.75	215.25
928.05	215.27
928.35	215.27
928.65	215.31
928.95	215.34
929.26	215.29
929.56	215.32
929.86	215.34
930.16	215.30
930.46	215.29
930.76	215.30
931.06	215.16
931.36	215.10
931.66	215.15
931.96	215.20
932.26	215.22
932.56	215.12
932.86	215.14
933.16	215.13
933.46	215.14
933.76	215.11
934.06	215.15
934.36	215.20
934.66	215.20
934.96	215.16
935.26	215.16
935.56	215.16
935.86	215.11
936.16	215.09
936.46	215.05
936.76	215.07
937.06	215.00
937.36	215.03
937.66	215.02
937.96	214.99
938.26	214.95
938.56	214.89
938.86	214.90
939.16	214.96
939.46	214.97
939.76	214.96
940.06	214.95
940.35	214.90
940.65	214.79
940.95	214.82
941.25	214.79
941.55	214.75
941.85	214.74
942.15	214.80
942.45	214.85
942.75	214.88
943.04	214.87
943.34	214.95
943.64	214.94
943.94	214.89
944.24	214.89
944.54	214.88
944.84	214.90
945.13	214.87
945.43	214.78
945.73	214.81
946.03	214.77
946.33	214.76
946.62	214.76
946.92	214.77
947.22	214.79
947.52	214.81
947.82	214.84
948.11	214.81
948.41	214.78
948.71	214.74
949.01	214.73
949.31	214.71
949.60	214.69
949.90	214.73
950.20	214.71
950.50	214.72
950.79	214.71
951.09	214.76
951.39	214.75
951.69	214.76
951.98	214.79
952.28	214.82
952.58	214.83
952.87	214.83
953.17	214.82
953.47	214.78
953.76	214.78
954.06	214.78
954.36	214.77
954.66	214.77
954.95	214.81
955.25	214.83
955.55	214.83
955.84	214.82
956.14	214.82
956.44	214.86
956.73	214.82
957.03	214.84
957.32	214.80
957.62	214.84
957.92	214.86
958.21	214.82
958.51	215.05
958.81	215.08
959.10	215.12
959.40	215.20
959.69	215.22
959.99	215.25
960.29	215.20
960.58	215.19
960.88	215.27
961.17	215.25
961.47	215.24
961.76	215.23
962.06	215.25
962.36	215.19
962.65	215.22
962.95	215.21
963.24	215.21
963.54	215.22
963.83	215.23
964.13	215.28
964.42	215.24
964.72	215.07
965.01	215.07
965.31	215.03
965.60	214.95
965.90	215.07
966.19	214.99
966.49	215.04
966.78	215.07
967.08	215.06
967.37	215.09
967.67	215.06
967.96	215.10
968.26	215.10
968.55	215.12
968.85	215.09
969.14	215.10
969.43	215.08
969.73	215.06
970.02	215.04
970.32	214.97
970.61	214.97
970.91	214.92
971.20	214.86
971.49	214.87
971.79	214.90
972.08	214.73
972.38	214.79
972.67	214.80
972.96	214.78
973.26	214.74
973.55	214.77
973.85	214.78
974.14	214.75
974.43	214.75
974.73	214.72
975.02	214.69
975.31	214.69
975.61	214.69
975.90	214.68
976.19	214.67
976.49	214.69
976.78	214.71
977.07	214.67
977.37	214.70
977.66	214.74
977.95	214.67
978.24	214.73
978.54	214.77
978.83	214.71
979.12	214.68
979.42	214.67
979.71	214.60
980.00	214.59
980.29	214.59
980.59	214.58
980.88	214.65
981.17	214.66
981.46	214.68
981.76	214.68
982.05	214.73
982.34	214.74
982.63	214.76
982.93	214.76
983.22	214.85
983.51	214.89
983.80	214.88
984.09	214.94
984.39	214.91
984.68	214.87
984.97	214.90
985.26	214.90
985.55	214.90
985.85	214.89
986.14	214.94
986.43	214.99
986.72	214.96
987.01	214.90
987.30	214.88
987.59	214.85
987.89	214.88
988.18	214.84
988.47	214.82
988.76	214.81
989.05	214.79
989.34	214.74
989.63	214.75
989.92	214.72
990.22	214.69
990.51	214.68
990.80	214.70
991.09	214.72
991.38	214.74
991.67	214.72
991.96	214.70
992.25	214.68
992.54	214.64
992.83	214.65
993.12	214.66
993.41	214.70
993.70	214.82
993.99	214.85
994.28	214.88
994.58	214.92
994.87	214.89
995.16	214.88
995.45	214.90
995.74	214.88
996.03	214.90
996.32	214.95
996.61	214.99
996.90	214.96
997.19	214.95
997.48	214.94
997.77	214.94
998.06	214.96
998.34	214.95
998.63	214.95
998.92	214.93
999.21	214.97
999.50	214.98
999.79	214.88
1000.08	214.88
1000.37	214.87
1000.66	214.82
1000.95	214.89
1001.24	214.90
1001.53	214.92
1001.82	214.90
1002.11	214.86
1002.40	214.89
1002.68	214.95
1002.97	215.09
1003.26	215.08
1003.55	215.07
1003.84	215.07
1004.13	215.16
1004.42	215.17
1004.71	215.15
1004.99	215.16
1005.28	215.20
1005.57	215.19
1005.86	215.16
1006.15	215.13
1006.44	215.06
1006.72	215.12
1007.01	215.07
1007.30	215.08
1007.59	215.04
1007.88	215.04
1008.17	215.01
1008.45	214.93
1008.74	214.84
1009.03	214.74
1009.32	214.74
1009.60	214.76
1009.89	214.75
1010.18	214.66
1010.47	214.61
1010.76	214.64
1011.04	214.64
1011.33	214.65
1011.62	214.67
1011.91	214.68
1012.19	214.69
1012.48	214.73
1012.77	214.72
1013.05	214.82
1013.34	214.80
1013.63	214.80
1013.92	214.81
1014.20	214.83
1014.49	214.85
1014.78	214.90
1015.06	214.83
1015.35	214.80
1015.64	214.77
1015.92	214.80
1016.21	214.81
1016.50	214.84
1016.78	214.83
1017.07	214.82
1017.36	214.75
1017.64	214.68
1017.93	214.71
1018.22	214.69
1018.50	214.68
1018.79	214.67
1019.08	214.54
1019.36	214.58
1019.65	214.55
1019.93	214.60
1020.22	214.64
1020.51	214.72
1020.79	214.63
1021.08	214.36
1021.36	214.44
1021.65	215.07
1021.94	214.17
1022.22	215.11
1022.51	214.28
1022.79	215.64
1023.08	215.00
1023.36	216.85
1023.65	213.55
>>>>>End Processed Spectral Data<<<<<
