SpectraSuite Data File
++++++++++++++++++++++++++++++++++++
Date: Tue Jan 29 16:46:32 EST 2013
User: group
Dark Spectrum Present: No
Reference Spectrum Present: No
Number of Sampled Component Spectra: 1
Spectrometers: USB2E7196
Integration Time (usec): 65000 (USB2E7196)
Spectra Averaged: 100 (USB2E7196)
Boxcar Smoothing: 10 (USB2E7196)
Correct for Electrical Dark: No (USB2E7196)
Strobe/Lamp Enabled: No (USB2E7196)
Correct for Detector Non-linearity: No (USB2E7196)
Correct for Stray Light: No (USB2E7196)
Number of Pixels in Processed Spectrum: 2048
>>>>>Begin Processed Spectral Data<<<<<
339.09	0.00
339.48	201.00
339.86	202.73
340.24	204.75
340.63	205.78
341.01	210.61
341.39	208.23
341.78	210.17
342.16	211.71
342.54	211.29
342.93	200.70
343.31	210.85
343.69	211.43
344.07	211.90
344.46	212.36
344.84	212.76
345.22	212.90
345.60	213.22
345.99	213.43
346.37	213.56
346.75	213.67
347.13	213.77
347.52	213.82
347.90	213.97
348.28	214.04
348.66	214.15
349.05	214.15
349.43	214.23
349.81	214.34
350.19	214.40
350.57	214.48
350.96	214.58
351.34	214.68
351.72	214.79
352.10	214.93
352.48	214.99
352.87	215.04
353.25	215.12
353.63	215.16
354.01	215.24
354.39	215.34
354.77	215.45
355.15	215.59
355.54	215.64
355.92	215.64
356.30	215.72
356.68	215.92
357.06	216.03
357.44	216.05
357.82	216.09
358.20	216.18
358.58	216.24
358.97	216.35
359.35	216.44
359.73	216.53
360.11	216.59
360.49	216.64
360.87	216.71
361.25	216.80
361.63	216.94
362.01	216.97
362.39	216.97
362.77	217.01
363.15	217.02
363.53	217.09
363.91	217.12
364.29	217.14
364.67	216.95
365.05	216.94
365.43	217.00
365.81	217.04
366.19	217.17
366.57	217.25
366.95	217.21
367.33	217.17
367.71	217.17
368.09	217.19
368.47	217.18
368.85	217.16
369.23	217.21
369.61	217.07
369.99	217.12
370.37	217.12
370.75	217.22
371.13	217.14
371.51	217.08
371.89	217.06
372.27	217.07
372.65	217.03
373.03	216.98
373.41	216.93
373.78	216.85
374.16	216.68
374.54	216.56
374.92	216.52
375.30	216.48
375.68	216.39
376.06	216.33
376.44	216.26
376.82	216.23
377.19	216.15
377.57	216.14
377.95	216.07
378.33	216.02
378.71	215.83
379.09	215.82
379.47	215.84
379.84	215.76
380.22	215.69
380.60	215.64
380.98	215.61
381.36	215.56
381.73	215.50
382.11	215.45
382.49	215.41
382.87	215.35
383.25	215.30
383.62	215.52
384.00	215.46
384.38	215.47
384.76	215.45
385.13	215.47
385.51	215.45
385.89	215.38
386.27	215.33
386.64	215.32
387.02	215.29
387.40	215.23
387.78	215.22
388.15	215.20
388.53	215.16
388.91	215.14
389.29	215.11
389.66	215.15
390.04	215.11
390.42	215.15
390.79	215.15
391.17	215.16
391.55	214.91
391.92	214.92
392.30	214.93
392.68	214.87
393.05	214.84
393.43	214.82
393.81	214.85
394.18	214.84
394.56	214.83
394.94	214.88
395.31	214.90
395.69	214.93
396.06	214.98
396.44	215.02
396.82	214.99
397.19	215.11
397.57	215.10
397.95	215.22
398.32	215.17
398.70	215.22
399.07	215.30
399.45	215.35
399.82	215.38
400.20	215.41
400.58	215.48
400.95	215.49
401.33	215.58
401.70	215.78
402.08	215.89
402.45	215.99
402.83	216.13
403.20	216.21
403.58	216.31
403.95	216.47
404.33	216.65
404.71	216.81
405.08	217.04
405.46	217.20
405.83	217.38
406.21	217.61
406.58	217.86
406.96	218.06
407.33	218.35
407.70	218.63
408.08	219.06
408.45	219.43
408.83	219.84
409.20	220.18
409.58	220.46
409.95	220.91
410.33	221.43
410.70	221.85
411.08	222.41
411.45	223.00
411.82	223.54
412.20	224.23
412.57	225.09
412.95	225.66
413.32	226.50
413.69	227.32
414.07	228.22
414.44	229.19
414.82	230.21
415.19	231.38
415.56	232.63
415.94	233.81
416.31	235.20
416.68	236.59
417.06	238.23
417.43	239.79
417.81	241.53
418.18	243.30
418.55	245.28
418.93	247.32
419.30	249.44
419.67	251.69
420.04	253.97
420.42	256.35
420.79	259.22
421.16	262.04
421.54	265.01
421.91	268.00
422.28	271.11
422.66	274.41
423.03	277.69
423.40	281.02
423.77	284.68
424.15	288.39
424.52	292.27
424.89	296.45
425.26	300.52
425.64	304.43
426.01	308.75
426.38	313.21
426.75	317.79
427.13	322.52
427.50	327.54
427.87	332.80
428.24	338.01
428.61	342.99
428.99	348.51
429.36	354.49
429.73	360.41
430.10	366.33
430.47	372.44
430.85	378.75
431.22	385.49
431.59	392.58
431.96	399.45
432.33	406.92
432.70	414.16
433.08	422.72
433.45	430.81
433.82	438.85
434.19	447.74
434.56	456.52
434.93	464.88
435.30	473.22
435.68	482.37
436.05	491.45
436.42	500.50
436.79	508.69
437.16	517.51
437.53	526.86
437.90	536.06
438.27	545.05
438.64	554.29
439.01	562.95
439.38	570.59
439.75	577.91
440.13	586.41
440.50	594.46
440.87	600.90
441.24	607.61
441.61	614.97
441.98	620.45
442.35	626.75
442.72	633.21
443.09	639.21
443.46	642.93
443.83	645.44
444.20	647.58
444.57	650.77
444.94	652.32
445.31	653.74
445.68	655.09
446.05	655.77
446.42	655.01
446.79	654.00
447.16	652.98
447.53	652.25
447.90	648.97
448.27	645.62
448.64	641.02
449.01	637.73
449.37	631.91
449.74	626.16
450.11	619.24
450.48	611.79
450.85	604.39
451.22	597.92
451.59	591.76
451.96	585.90
452.33	578.04
452.70	570.88
453.07	562.38
453.43	553.77
453.80	545.46
454.17	537.43
454.54	529.82
454.91	521.55
455.28	513.56
455.65	506.08
456.02	498.58
456.38	492.16
456.75	484.19
457.12	477.46
457.49	470.97
457.86	464.75
458.23	459.26
458.59	453.29
458.96	447.23
459.33	441.86
459.70	436.50
460.07	432.18
460.43	427.20
460.80	422.60
461.17	418.63
461.54	414.35
461.91	410.32
462.27	406.16
462.64	402.69
463.01	398.83
463.38	395.09
463.74	391.39
464.11	388.16
464.48	385.33
464.85	382.26
465.21	379.83
465.58	377.18
465.95	374.03
466.32	371.44
466.68	368.88
467.05	366.32
467.42	363.75
467.78	361.05
468.15	358.48
468.52	356.55
468.88	354.00
469.25	351.78
469.62	350.00
469.98	348.03
470.35	346.26
470.72	344.55
471.08	342.71
471.45	341.16
471.82	339.60
472.18	337.88
472.55	336.63
472.92	335.17
473.28	333.92
473.65	332.76
474.02	331.57
474.38	330.67
474.75	329.85
475.11	329.00
475.48	328.39
475.85	327.87
476.21	327.38
476.58	327.05
476.94	326.79
477.31	326.46
477.67	326.25
478.04	326.08
478.41	326.08
478.77	326.29
479.14	326.27
479.50	326.41
479.87	326.71
480.23	327.03
480.60	327.31
480.96	327.64
481.33	328.24
481.69	328.78
482.06	329.23
482.42	329.74
482.79	330.32
483.15	331.13
483.52	332.14
483.88	333.04
484.25	333.95
484.61	334.98
484.98	336.03
485.34	337.34
485.71	338.68
486.07	340.10
486.44	341.42
486.80	343.04
487.17	344.73
487.53	346.56
487.90	348.43
488.26	350.47
488.62	352.59
488.99	354.72
489.35	356.88
489.72	359.34
490.08	361.85
490.44	364.43
490.81	367.10
491.17	369.80
491.54	372.77
491.90	375.81
492.26	379.05
492.63	382.48
492.99	385.93
493.36	389.60
493.72	393.47
494.08	397.48
494.45	401.67
494.81	406.05
495.17	410.49
495.54	415.17
495.90	419.95
496.26	424.90
496.63	430.00
496.99	435.43
497.35	440.94
497.72	446.72
498.08	452.66
498.44	458.78
498.80	465.16
499.17	471.66
499.53	478.41
499.89	485.31
500.26	492.27
500.62	499.35
500.98	506.70
501.34	514.12
501.71	521.85
502.07	529.69
502.43	537.60
502.79	545.77
503.16	554.12
503.52	562.74
503.88	571.44
504.24	580.44
504.60	589.47
504.97	598.69
505.33	607.96
505.69	617.83
506.05	627.69
506.41	637.56
506.78	647.59
507.14	657.77
507.50	668.19
507.86	678.87
508.22	689.66
508.59	700.37
508.95	711.44
509.31	722.66
509.67	734.10
510.03	745.54
510.39	757.18
510.75	769.05
511.12	780.92
511.48	792.95
511.84	805.18
512.20	817.56
512.56	830.22
512.92	843.09
513.28	855.76
513.64	868.57
514.00	881.41
514.37	894.42
514.73	907.58
515.09	920.54
515.45	933.42
515.81	946.45
516.17	959.86
516.53	973.25
516.89	986.38
517.25	999.63
517.61	1013.28
517.97	1026.79
518.33	1039.99
518.69	1053.65
519.05	1067.44
519.41	1081.11
519.77	1094.98
520.13	1108.25
520.49	1121.44
520.85	1134.78
521.21	1148.15
521.57	1161.93
521.93	1174.98
522.29	1188.82
522.65	1202.43
523.01	1216.15
523.37	1229.50
523.73	1242.91
524.09	1255.98
524.45	1269.51
524.81	1283.03
525.17	1296.36
525.53	1309.51
525.89	1322.85
526.25	1336.08
526.61	1348.97
526.97	1362.21
527.33	1375.24
527.68	1388.86
528.04	1402.35
528.40	1415.58
528.76	1429.05
529.12	1441.96
529.48	1455.49
529.84	1467.66
530.20	1480.62
530.56	1493.30
530.91	1506.49
531.27	1519.39
531.63	1532.21
531.99	1545.01
532.35	1557.28
532.71	1569.75
533.07	1582.79
533.42	1595.24
533.78	1607.39
534.14	1619.61
534.50	1630.84
534.86	1642.58
535.21	1653.46
535.57	1665.16
535.93	1676.50
536.29	1687.57
536.65	1699.06
537.00	1709.91
537.36	1721.28
537.72	1732.38
538.08	1743.84
538.44	1754.97
538.79	1766.15
539.15	1777.16
539.51	1788.16
539.87	1799.54
540.22	1810.53
540.58	1821.56
540.94	1832.58
541.29	1842.96
541.65	1852.75
542.01	1863.39
542.37	1873.42
542.72	1883.68
543.08	1893.33
543.44	1904.02
543.79	1913.38
544.15	1923.07
544.51	1933.14
544.87	1943.34
545.22	1952.65
545.58	1961.58
545.94	1970.52
546.29	1979.08
546.65	1987.53
547.01	1995.73
547.36	2003.36
547.72	2011.06
548.07	2018.66
548.43	2026.42
548.79	2034.36
549.14	2042.68
549.50	2051.14
549.86	2059.16
550.21	2066.59
550.57	2074.40
550.92	2081.22
551.28	2088.75
551.64	2095.89
551.99	2103.49
552.35	2110.67
552.70	2117.59
553.06	2124.27
553.41	2130.57
553.77	2137.11
554.13	2143.55
554.48	2150.63
554.84	2157.93
555.19	2164.51
555.55	2171.06
555.90	2177.32
556.26	2184.14
556.61	2190.16
556.97	2194.90
557.32	2200.61
557.68	2207.06
558.03	2212.84
558.39	2218.15
558.74	2224.12
559.10	2229.75
559.45	2235.36
559.81	2240.84
560.16	2246.39
560.52	2252.35
560.87	2258.76
561.23	2264.69
561.58	2271.29
561.94	2276.49
562.29	2280.96
562.64	2286.92
563.00	2292.49
563.35	2297.84
563.71	2303.45
564.06	2309.03
564.42	2315.00
564.77	2319.98
565.12	2325.30
565.48	2330.46
565.83	2335.97
566.19	2341.36
566.54	2346.57
566.89	2350.90
567.25	2355.37
567.60	2360.94
567.96	2365.95
568.31	2370.32
568.66	2374.61
569.02	2378.30
569.37	2381.83
569.72	2386.35
570.08	2389.80
570.43	2392.85
570.78	2395.98
571.14	2398.40
571.49	2401.47
571.84	2404.84
572.20	2407.75
572.55	2410.51
572.90	2412.57
573.26	2415.06
573.61	2417.54
573.96	2419.52
574.31	2421.59
574.67	2423.55
575.02	2424.15
575.37	2425.49
575.72	2426.15
576.08	2427.38
576.43	2427.55
576.78	2427.95
577.13	2429.37
577.49	2430.49
577.84	2431.45
578.19	2432.52
578.54	2432.99
578.90	2433.48
579.25	2433.25
579.60	2433.02
579.95	2431.98
580.30	2432.01
580.66	2431.36
581.01	2429.45
581.36	2427.03
581.71	2425.45
582.06	2423.91
582.42	2422.91
582.77	2420.58
583.12	2418.76
583.47	2417.20
583.82	2416.51
584.17	2415.16
584.53	2412.84
584.88	2410.46
585.23	2408.25
585.58	2405.84
585.93	2403.69
586.28	2401.42
586.63	2398.82
586.98	2396.52
587.34	2394.61
587.69	2391.87
588.04	2389.48
588.39	2387.92
588.74	2385.32
589.09	2382.43
589.44	2379.19
589.79	2376.56
590.14	2374.39
590.49	2371.35
590.84	2367.38
591.19	2363.91
591.54	2360.52
591.89	2356.26
592.25	2352.94
592.60	2348.66
592.95	2344.58
593.30	2340.27
593.65	2335.71
594.00	2331.23
594.35	2327.97
594.70	2323.17
595.05	2318.68
595.40	2313.27
595.75	2307.38
596.10	2303.68
596.45	2298.80
596.80	2294.04
597.15	2288.70
597.50	2282.73
597.85	2277.86
598.19	2272.59
598.54	2266.70
598.89	2261.33
599.24	2256.77
599.59	2250.56
599.94	2244.61
600.29	2238.60
600.64	2232.64
600.99	2225.80
601.34	2220.25
601.69	2213.42
602.04	2207.03
602.39	2200.37
602.74	2194.04
603.08	2188.49
603.43	2181.92
603.78	2174.97
604.13	2167.95
604.48	2160.64
604.83	2154.46
605.18	2148.23
605.53	2141.24
605.87	2134.32
606.22	2127.55
606.57	2119.69
606.92	2111.71
607.27	2104.71
607.62	2097.89
607.96	2090.80
608.31	2084.33
608.66	2076.57
609.01	2068.89
609.36	2061.78
609.70	2054.06
610.05	2046.45
610.40	2038.12
610.75	2029.75
611.10	2022.01
611.44	2013.12
611.79	2004.50
612.14	1994.59
612.49	1983.86
612.83	1974.51
613.18	1965.10
613.53	1955.77
613.88	1946.13
614.22	1937.49
614.57	1927.76
614.92	1917.19
615.27	1906.96
615.61	1896.93
615.96	1887.31
616.31	1877.64
616.65	1868.20
617.00	1858.50
617.35	1848.75
617.70	1839.08
618.04	1829.24
618.39	1819.22
618.74	1809.60
619.08	1799.87
619.43	1791.09
619.78	1782.86
620.12	1774.29
620.47	1764.98
620.82	1754.71
621.16	1745.02
621.51	1735.30
621.85	1725.52
622.20	1715.40
622.55	1704.92
622.89	1694.93
623.24	1685.28
623.59	1675.47
623.93	1665.49
624.28	1655.80
624.62	1645.79
624.97	1635.56
625.32	1625.73
625.66	1616.92
626.01	1608.23
626.35	1598.96
626.70	1589.09
627.04	1579.13
627.39	1568.99
627.73	1559.77
628.08	1550.87
628.43	1541.38
628.77	1532.25
629.12	1523.44
629.46	1515.51
629.81	1507.35
630.15	1498.02
630.50	1488.30
630.84	1477.88
631.19	1468.03
631.53	1458.82
631.88	1448.72
632.22	1438.75
632.57	1429.41
632.91	1419.36
633.26	1409.54
633.60	1400.05
633.95	1390.82
634.29	1381.38
634.64	1372.17
634.98	1362.25
635.32	1353.07
635.67	1344.76
636.01	1335.41
636.36	1325.75
636.70	1316.38
637.05	1307.03
637.39	1298.20
637.73	1289.63
638.08	1282.22
638.42	1273.91
638.77	1265.08
639.11	1256.92
639.45	1249.33
639.80	1240.90
640.14	1232.24
640.49	1223.55
640.83	1214.83
641.17	1206.63
641.52	1198.57
641.86	1190.09
642.20	1182.24
642.55	1173.64
642.89	1164.76
643.23	1156.27
643.58	1148.18
643.92	1139.22
644.26	1130.61
644.61	1122.21
644.95	1113.44
645.29	1104.26
645.64	1095.35
645.98	1086.93
646.32	1079.16
646.66	1070.64
647.01	1062.36
647.35	1054.29
647.69	1046.01
648.04	1037.83
648.38	1029.01
648.72	1020.36
649.06	1012.03
649.41	1003.90
649.75	996.09
650.09	988.31
650.43	980.24
650.78	971.94
651.12	964.22
651.46	956.83
651.80	949.63
652.14	942.45
652.49	935.03
652.83	927.60
653.17	919.89
653.51	912.22
653.85	904.94
654.20	897.73
654.54	890.29
654.88	883.03
655.22	875.79
655.56	868.85
655.90	862.03
656.25	855.23
656.59	848.38
656.93	841.33
657.27	834.12
657.61	827.15
657.95	821.01
658.29	815.07
658.64	809.01
658.98	802.51
659.32	795.87
659.66	789.64
660.00	783.46
660.34	777.48
660.68	771.39
661.02	765.05
661.36	759.11
661.70	753.29
662.05	747.67
662.39	742.25
662.73	736.85
663.07	731.43
663.41	725.89
663.75	720.08
664.09	714.33
664.43	708.91
664.77	703.56
665.11	697.88
665.45	692.06
665.79	686.14
666.13	680.45
666.47	674.98
666.81	669.45
667.15	664.03
667.49	658.80
667.83	653.49
668.17	648.26
668.51	643.13
668.85	638.16
669.19	633.24
669.53	628.12
669.87	623.03
670.21	618.24
670.55	613.53
670.89	609.17
671.23	604.91
671.57	600.54
671.91	596.21
672.25	592.05
672.58	587.95
672.92	583.93
673.26	579.99
673.60	576.05
673.94	572.29
674.28	568.60
674.62	564.85
674.96	561.11
675.30	557.61
675.64	553.84
675.97	550.23
676.31	546.63
676.65	543.08
676.99	539.64
677.33	535.79
677.67	532.11
678.01	528.22
678.34	524.63
678.68	521.11
679.02	517.54
679.36	513.80
679.70	510.11
680.04	506.52
680.37	503.06
680.71	499.76
681.05	496.53
681.39	493.24
681.73	490.02
682.06	487.02
682.40	483.90
682.74	480.79
683.08	477.57
683.42	474.32
683.75	471.28
684.09	468.21
684.43	465.42
684.77	462.50
685.10	459.62
685.44	456.63
685.78	453.65
686.12	450.84
686.45	448.07
686.79	445.35
687.13	442.74
687.46	440.10
687.80	437.42
688.14	434.52
688.48	431.85
688.81	429.15
689.15	426.52
689.49	423.82
689.82	421.21
690.16	418.57
690.50	416.10
690.83	413.55
691.17	410.95
691.51	408.43
691.84	406.14
692.18	403.89
692.52	401.63
692.85	399.42
693.19	397.27
693.52	395.09
693.86	392.84
694.20	390.64
694.53	388.42
694.87	386.18
695.21	384.03
695.54	381.84
695.88	379.65
696.21	377.39
696.55	375.30
696.88	373.21
697.22	371.22
697.56	369.24
697.89	367.34
698.23	365.55
698.56	363.70
698.90	361.92
699.23	360.03
699.57	358.14
699.90	356.27
700.24	354.41
700.58	352.61
700.91	350.90
701.25	349.29
701.58	347.67
701.92	346.07
702.25	344.48
702.59	342.87
702.92	341.34
703.26	339.79
703.59	338.28
703.93	336.99
704.26	335.54
704.60	334.10
704.93	332.59
705.26	331.10
705.60	329.63
705.93	328.02
706.27	326.64
706.60	325.39
706.94	324.18
707.27	322.74
707.61	321.39
707.94	320.00
708.27	318.50
708.61	317.04
708.94	315.65
709.28	314.32
709.61	313.04
709.94	311.79
710.28	310.52
710.61	309.28
710.95	307.86
711.28	306.76
711.61	305.53
711.95	304.39
712.28	303.19
712.61	301.97
712.95	300.92
713.28	299.83
713.61	298.64
713.95	297.43
714.28	296.41
714.61	295.36
714.95	294.38
715.28	293.30
715.61	292.28
715.95	291.27
716.28	290.32
716.61	289.41
716.95	288.39
717.28	287.49
717.61	286.51
717.94	285.57
718.28	284.48
718.61	283.55
718.94	282.60
719.27	281.73
719.61	280.90
719.94	280.00
720.27	279.04
720.60	278.18
720.94	277.36
721.27	276.59
721.60	275.85
721.93	275.10
722.27	274.46
722.60	273.78
722.93	273.03
723.26	272.32
723.59	271.54
723.93	270.89
724.26	270.22
724.59	269.58
724.92	268.97
725.25	268.42
725.59	267.85
725.92	267.32
726.25	266.73
726.58	266.18
726.91	265.58
727.24	265.03
727.57	264.45
727.91	263.82
728.24	263.24
728.57	262.62
728.90	262.09
729.23	261.45
729.56	261.00
729.89	260.49
730.22	259.92
730.55	259.39
730.89	258.86
731.22	258.29
731.55	257.77
731.88	257.26
732.21	256.72
732.54	256.15
732.87	255.65
733.20	255.13
733.53	254.62
733.86	254.16
734.19	253.66
734.52	253.24
734.85	252.94
735.18	252.47
735.51	252.09
735.84	251.64
736.17	251.29
736.50	250.78
736.83	250.63
737.16	250.24
737.49	249.82
737.82	249.39
738.15	249.04
738.48	248.65
738.81	248.29
739.14	247.87
739.47	247.52
739.80	247.14
740.13	246.79
740.46	246.38
740.79	245.97
741.12	245.60
741.45	245.21
741.78	244.73
742.11	244.46
742.44	244.08
742.77	243.78
743.10	243.43
743.43	243.06
743.75	242.47
744.08	242.40
744.41	242.05
744.74	241.72
745.07	241.31
745.40	240.97
745.73	240.71
746.06	240.37
746.39	240.06
746.71	239.72
747.04	239.40
747.37	239.11
747.70	238.84
748.03	238.55
748.36	238.31
748.68	238.01
749.01	237.65
749.34	237.37
749.67	237.07
750.00	236.76
750.33	236.62
750.65	236.37
750.98	235.82
751.31	235.58
751.64	235.35
751.97	235.25
752.29	235.01
752.62	234.65
752.95	234.37
753.28	234.07
753.60	233.82
753.93	233.65
754.26	233.42
754.59	233.11
754.91	232.88
755.24	232.59
755.57	232.37
755.90	232.11
756.22	231.84
756.55	231.53
756.88	231.28
757.20	230.92
757.53	230.65
757.86	230.44
758.19	230.27
758.51	230.02
758.84	229.69
759.17	229.48
759.49	229.29
759.82	229.27
760.15	229.10
760.47	228.92
760.80	228.62
761.13	228.45
761.45	228.26
761.78	228.06
762.11	227.89
762.43	227.68
762.76	227.51
763.08	227.39
763.41	227.27
763.74	227.14
764.06	226.97
764.39	226.83
764.71	226.64
765.04	226.46
765.37	226.30
765.69	226.19
766.02	226.04
766.34	225.91
766.67	225.67
767.00	225.57
767.32	225.53
767.65	225.55
767.97	225.40
768.30	225.31
768.62	225.20
768.95	225.03
769.27	224.95
769.60	224.86
769.92	224.69
770.25	224.53
770.57	224.32
770.90	224.21
771.22	224.09
771.55	224.01
771.87	223.91
772.20	223.80
772.52	223.80
772.85	223.91
773.17	223.82
773.50	223.66
773.82	223.52
774.15	223.30
774.47	223.03
774.80	222.93
775.12	222.79
775.45	222.69
775.77	222.63
776.09	222.52
776.42	222.43
776.74	222.43
777.07	222.34
777.39	222.28
777.72	222.18
778.04	222.09
778.36	222.00
778.69	221.92
779.01	221.86
779.33	221.63
779.66	221.29
779.98	221.18
780.31	221.13
780.63	221.16
780.95	221.14
781.28	221.08
781.60	220.99
781.92	220.96
782.25	220.88
782.57	220.83
782.89	220.77
783.22	220.66
783.54	220.54
783.86	220.49
784.19	220.44
784.51	220.43
784.83	220.34
785.16	220.28
785.48	220.23
785.80	220.18
786.12	220.12
786.45	220.09
786.77	220.03
787.09	219.96
787.42	219.82
787.74	219.73
788.06	219.70
788.38	219.60
788.71	219.47
789.03	219.41
789.35	219.36
789.67	219.26
789.99	219.25
790.32	219.18
790.64	219.14
790.96	219.26
791.28	219.15
791.61	219.08
791.93	219.05
792.25	218.96
792.57	219.06
792.89	218.96
793.21	218.94
793.54	218.91
793.86	218.86
794.18	218.83
794.50	218.79
794.82	218.72
795.14	218.70
795.47	218.71
795.79	218.68
796.11	218.60
796.43	218.55
796.75	218.52
797.07	218.49
797.39	218.42
797.71	218.20
798.04	218.19
798.36	218.19
798.68	218.13
799.00	218.11
799.32	217.95
799.64	217.97
799.96	217.89
800.28	217.90
800.60	217.85
800.92	217.80
801.24	217.73
801.56	217.74
801.89	217.73
802.21	217.75
802.53	217.66
802.85	217.66
803.17	217.74
803.49	217.61
803.81	217.58
804.13	217.53
804.45	217.51
804.77	217.47
805.09	217.43
805.41	217.39
805.73	217.33
806.05	217.27
806.37	217.24
806.69	217.19
807.01	217.12
807.33	217.11
807.65	217.02
807.97	217.08
808.28	217.01
808.60	216.96
808.92	216.87
809.24	217.00
809.56	216.96
809.88	216.86
810.20	216.88
810.52	216.87
810.84	216.81
811.16	216.76
811.48	216.72
811.80	216.75
812.12	216.73
812.43	216.73
812.75	216.74
813.07	216.66
813.39	216.68
813.71	216.63
814.03	216.56
814.35	216.55
814.67	216.45
814.98	216.40
815.30	216.37
815.62	216.35
815.94	216.15
816.26	216.12
816.58	216.06
816.89	216.07
817.21	216.01
817.53	216.05
817.85	216.02
818.17	215.98
818.48	215.93
818.80	215.96
819.12	215.91
819.44	215.81
819.76	215.80
820.07	215.76
820.39	215.75
820.71	215.77
821.03	215.75
821.34	215.74
821.66	215.75
821.98	215.73
822.30	215.70
822.61	215.85
822.93	215.85
823.25	215.83
823.57	215.78
823.88	215.81
824.20	215.76
824.52	215.76
824.83	215.78
825.15	215.71
825.47	215.67
825.79	215.68
826.10	215.66
826.42	215.66
826.74	215.68
827.05	215.64
827.37	215.63
827.69	215.62
828.00	215.63
828.32	215.61
828.64	215.58
828.95	215.69
829.27	215.60
829.58	215.57
829.90	215.59
830.22	215.58
830.53	215.50
830.85	215.47
831.17	215.45
831.48	215.43
831.80	215.43
832.11	215.41
832.43	215.38
832.75	215.38
833.06	215.50
833.38	215.41
833.69	215.41
834.01	215.42
834.32	215.40
834.64	215.35
834.96	215.33
835.27	215.35
835.59	215.24
835.90	215.21
836.22	215.18
836.53	215.12
836.85	215.10
837.16	215.31
837.48	215.33
837.79	215.39
838.11	215.37
838.42	215.37
838.74	215.37
839.05	215.34
839.37	215.32
839.68	215.16
840.00	215.16
840.31	215.18
840.63	215.13
840.94	215.10
841.26	215.09
841.57	215.13
841.88	215.13
842.20	215.12
842.51	215.07
842.83	215.06
843.14	215.24
843.46	215.26
843.77	215.13
844.08	215.13
844.40	215.03
844.71	215.03
845.03	215.01
845.34	214.99
845.65	214.97
845.97	214.96
846.28	214.98
846.60	214.96
846.91	214.94
847.22	214.96
847.54	214.99
847.85	214.99
848.16	214.94
848.48	214.87
848.79	214.93
849.10	214.95
849.42	214.95
849.73	214.77
850.04	214.76
850.36	214.68
850.67	214.71
850.98	214.75
851.30	214.77
851.61	214.74
851.92	214.75
852.23	214.85
852.55	214.85
852.86	214.85
853.17	214.88
853.49	214.92
853.80	214.89
854.11	214.91
854.42	214.95
854.74	214.92
855.05	214.96
855.36	214.86
855.67	214.89
855.99	214.90
856.30	215.17
856.61	215.13
856.92	215.14
857.23	215.12
857.55	215.10
857.86	215.07
858.17	215.11
858.48	215.05
858.79	215.02
859.11	215.04
859.42	215.04
859.73	215.00
860.04	214.96
860.35	214.95
860.66	214.88
860.98	214.86
861.29	214.88
861.60	214.84
861.91	214.86
862.22	214.81
862.53	214.77
862.84	214.47
863.16	214.53
863.47	214.51
863.78	214.45
864.09	214.46
864.40	214.46
864.71	214.46
865.02	214.48
865.33	214.41
865.64	214.39
865.95	214.40
866.27	214.55
866.58	214.55
866.89	214.55
867.20	214.57
867.51	214.53
867.82	214.51
868.13	214.58
868.44	214.53
868.75	214.57
869.06	214.57
869.37	214.59
869.68	214.54
869.99	214.55
870.30	214.61
870.61	214.63
870.92	214.59
871.23	214.57
871.54	214.59
871.85	214.63
872.16	214.62
872.47	214.60
872.78	214.47
873.09	214.48
873.40	214.48
873.71	214.51
874.02	214.51
874.33	214.50
874.64	214.45
874.95	214.49
875.26	214.44
875.56	214.44
875.87	214.47
876.18	214.42
876.49	214.62
876.80	214.57
877.11	214.51
877.42	214.51
877.73	214.54
878.04	214.50
878.35	214.51
878.66	214.52
878.96	214.49
879.27	214.49
879.58	214.46
879.89	214.43
880.20	214.44
880.51	214.44
880.82	214.45
881.12	214.45
881.43	214.42
881.74	214.40
882.05	214.39
882.36	214.35
882.67	214.42
882.97	214.18
883.28	214.18
883.59	214.17
883.90	214.18
884.21	214.17
884.51	214.15
884.82	214.11
885.13	214.10
885.44	214.09
885.74	214.07
886.05	214.07
886.36	214.06
886.67	213.99
886.98	214.08
887.28	214.09
887.59	214.09
887.90	214.08
888.20	214.07
888.51	214.10
888.82	214.11
889.13	214.12
889.43	214.32
889.74	214.30
890.05	214.32
890.35	214.29
890.66	214.27
890.97	214.27
891.28	214.22
891.58	214.20
891.89	214.24
892.20	214.24
892.50	214.24
892.81	214.26
893.12	214.27
893.42	214.17
893.73	214.18
894.04	214.18
894.34	214.21
894.65	214.19
894.95	214.18
895.26	214.16
895.57	214.22
895.87	214.03
896.18	214.08
896.48	214.10
896.79	214.11
897.10	214.11
897.40	214.14
897.71	214.20
898.01	214.20
898.32	214.19
898.63	214.17
898.93	214.18
899.24	214.16
899.54	214.17
899.85	214.15
900.15	214.15
900.46	214.15
900.76	214.18
901.07	214.21
901.38	214.22
901.68	214.23
901.99	214.12
902.29	214.11
902.60	214.11
902.90	214.04
903.21	214.05
903.51	214.04
903.82	214.08
904.12	214.06
904.43	214.05
904.73	214.07
905.03	214.10
905.34	214.30
905.64	214.31
905.95	214.28
906.25	214.28
906.56	214.27
906.86	214.24
907.17	214.20
907.47	214.19
907.77	214.18
908.08	214.15
908.38	214.18
908.69	214.21
908.99	214.25
909.30	214.28
909.60	214.26
909.90	214.27
910.21	214.22
910.51	214.19
910.81	214.21
911.12	214.21
911.42	214.23
911.73	214.00
912.03	213.97
912.33	214.05
912.64	214.03
912.94	214.01
913.24	214.03
913.55	214.02
913.85	214.01
914.15	214.01
914.46	214.04
914.76	214.04
915.06	214.03
915.37	213.95
915.67	213.94
915.97	213.94
916.27	213.91
916.58	213.90
916.88	213.89
917.18	213.87
917.49	214.04
917.79	214.02
918.09	214.07
918.39	214.12
918.70	214.07
919.00	214.10
919.30	214.19
919.60	214.15
919.91	214.09
920.21	214.11
920.51	214.10
920.81	214.08
921.12	214.12
921.42	214.10
921.72	214.14
922.02	214.17
922.32	214.25
922.63	214.26
922.93	214.36
923.23	214.37
923.53	214.33
923.83	214.12
924.13	214.12
924.44	214.09
924.74	214.13
925.04	214.17
925.34	214.17
925.64	214.12
925.94	214.12
926.24	214.28
926.55	214.25
926.85	214.27
927.15	214.26
927.45	214.22
927.75	214.21
928.05	214.23
928.35	214.19
928.65	214.19
928.95	214.19
929.26	214.15
929.56	214.20
929.86	214.24
930.16	214.25
930.46	214.23
930.76	214.26
931.06	214.17
931.36	214.11
931.66	214.17
931.96	214.16
932.26	214.19
932.56	214.09
932.86	214.13
933.16	214.13
933.46	214.10
933.76	214.11
934.06	214.18
934.36	214.22
934.66	214.26
934.96	214.24
935.26	214.25
935.56	214.27
935.86	214.25
936.16	214.24
936.46	214.29
936.76	214.30
937.06	214.29
937.36	214.33
937.66	214.36
937.96	214.32
938.26	214.30
938.56	214.25
938.86	214.27
939.16	214.31
939.46	214.34
939.76	214.36
940.06	214.32
940.35	214.24
940.65	214.13
940.95	214.08
941.25	214.04
941.55	214.03
941.85	214.00
942.15	214.02
942.45	214.06
942.75	214.02
943.04	214.01
943.34	214.01
943.64	213.97
943.94	213.94
944.24	213.95
944.54	213.97
944.84	213.99
945.13	213.98
945.43	213.92
945.73	213.91
946.03	213.91
946.33	213.90
946.62	213.92
946.92	213.90
947.22	213.93
947.52	213.94
947.82	213.94
948.11	213.91
948.41	213.86
948.71	213.77
949.01	213.79
949.31	213.78
949.60	213.76
949.90	213.78
950.20	213.78
950.50	213.76
950.79	213.72
951.09	213.77
951.39	213.76
951.69	213.74
951.98	213.77
952.28	213.72
952.58	213.76
952.87	213.75
953.17	213.82
953.47	213.77
953.76	213.79
954.06	213.73
954.36	213.71
954.66	213.72
954.95	213.81
955.25	213.83
955.55	213.85
955.84	213.80
956.14	213.80
956.44	213.82
956.73	213.77
957.03	213.82
957.32	213.75
957.62	213.72
957.92	213.79
958.21	213.77
958.51	214.06
958.81	214.06
959.10	214.07
959.40	214.09
959.69	214.11
959.99	214.10
960.29	214.13
960.58	214.13
960.88	214.19
961.17	214.19
961.47	214.20
961.76	214.18
962.06	214.22
962.36	214.22
962.65	214.22
962.95	214.23
963.24	214.17
963.54	214.21
963.83	214.25
964.13	214.22
964.42	214.14
964.72	213.91
965.01	213.91
965.31	213.90
965.60	213.83
965.90	213.99
966.19	213.92
966.49	213.94
966.78	213.93
967.08	213.91
967.37	213.89
967.67	213.87
967.96	213.90
968.26	213.91
968.55	213.92
968.85	213.90
969.14	213.93
969.43	213.96
969.73	213.93
970.02	213.89
970.32	213.85
970.61	213.85
970.91	213.81
971.20	213.76
971.49	213.77
971.79	213.81
972.08	213.66
972.38	213.69
972.67	213.66
972.96	213.71
973.26	213.67
973.55	213.73
973.85	213.71
974.14	213.70
974.43	213.69
974.73	213.65
975.02	213.64
975.31	213.64
975.61	213.61
975.90	213.64
976.19	213.62
976.49	213.64
976.78	213.67
977.07	213.67
977.37	213.70
977.66	213.71
977.95	213.68
978.24	213.70
978.54	213.74
978.83	213.73
979.12	213.70
979.42	213.69
979.71	213.64
980.00	213.62
980.29	213.63
980.59	213.58
980.88	213.65
981.17	213.66
981.46	213.65
981.76	213.69
982.05	213.72
982.34	213.74
982.63	213.76
982.93	213.76
983.22	213.83
983.51	213.83
983.80	213.86
984.09	213.89
984.39	213.89
984.68	213.88
984.97	213.90
985.26	213.88
985.55	213.89
985.85	213.86
986.14	213.92
986.43	213.93
986.72	213.94
987.01	213.88
987.30	213.86
987.59	213.86
987.89	213.88
988.18	213.82
988.47	213.81
988.76	213.78
989.05	213.78
989.34	213.76
989.63	213.81
989.92	213.80
990.22	213.76
990.51	213.74
990.80	213.71
991.09	213.77
991.38	213.79
991.67	213.80
991.96	213.79
992.25	213.80
992.54	213.76
992.83	213.78
993.12	213.75
993.41	213.80
993.70	213.87
993.99	213.84
994.28	213.90
994.58	213.96
994.87	213.93
995.16	213.91
995.45	213.90
995.74	213.82
996.03	213.84
996.32	213.88
996.61	213.92
996.90	213.96
997.19	213.93
997.48	213.96
997.77	213.92
998.06	213.93
998.34	213.90
998.63	213.93
998.92	213.92
999.21	213.95
999.50	213.95
999.79	213.87
1000.08	213.88
1000.37	213.85
1000.66	213.79
1000.95	213.86
1001.24	213.88
1001.53	213.89
1001.82	213.86
1002.11	213.81
1002.40	213.82
1002.68	213.87
1002.97	214.00
1003.26	213.93
1003.55	213.88
1003.84	213.90
1004.13	213.96
1004.42	213.93
1004.71	213.92
1004.99	213.93
1005.28	213.97
1005.57	213.97
1005.86	213.97
1006.15	213.97
1006.44	213.98
1006.72	213.99
1007.01	213.93
1007.30	213.93
1007.59	213.91
1007.88	213.94
1008.17	213.96
1008.45	213.93
1008.74	213.88
1009.03	213.78
1009.32	213.81
1009.60	213.84
1009.89	213.84
1010.18	213.79
1010.47	213.80
1010.76	213.81
1011.04	213.77
1011.33	213.79
1011.62	213.80
1011.91	213.80
1012.19	213.81
1012.48	213.79
1012.77	213.81
1013.05	213.96
1013.34	213.95
1013.63	213.92
1013.92	213.94
1014.20	213.91
1014.49	213.93
1014.78	213.93
1015.06	213.84
1015.35	213.85
1015.64	213.86
1015.92	213.90
1016.21	213.87
1016.50	213.87
1016.78	213.92
1017.07	213.96
1017.36	213.96
1017.64	213.90
1017.93	213.95
1018.22	213.93
1018.50	213.93
1018.79	213.89
1019.08	213.78
1019.36	213.83
1019.65	213.78
1019.93	213.85
1020.22	213.90
1020.51	214.01
1020.79	213.96
1021.08	213.68
1021.36	213.42
1021.65	213.26
1021.94	214.03
1022.22	214.22
1022.51	212.59
1022.79	215.01
1023.08	214.14
1023.36	216.45
1023.65	213.27
>>>>>End Processed Spectral Data<<<<<
