SpectraSuite Data File
++++++++++++++++++++++++++++++++++++
Date: Tue Jan 29 16:18:25 EST 2013
User: group
Dark Spectrum Present: No
Reference Spectrum Present: No
Number of Sampled Component Spectra: 1
Spectrometers: USB2E7196
Integration Time (usec): 65000 (USB2E7196)
Spectra Averaged: 100 (USB2E7196)
Boxcar Smoothing: 10 (USB2E7196)
Correct for Electrical Dark: No (USB2E7196)
Strobe/Lamp Enabled: No (USB2E7196)
Correct for Detector Non-linearity: No (USB2E7196)
Correct for Stray Light: No (USB2E7196)
Number of Pixels in Processed Spectrum: 2048
>>>>>Begin Processed Spectral Data<<<<<
339.09	0.00
339.48	202.00
339.86	203.75
340.24	205.46
340.63	206.54
341.01	210.99
341.39	209.28
341.78	210.62
342.16	212.41
342.54	212.67
342.93	201.60
343.31	211.79
343.69	212.36
344.07	212.85
344.46	213.31
344.84	213.74
345.22	213.93
345.60	214.22
345.99	214.45
346.37	214.58
346.75	214.70
347.13	214.80
347.52	214.87
347.90	215.01
348.28	215.08
348.66	215.16
349.05	215.13
349.43	215.22
349.81	215.31
350.19	215.36
350.57	215.46
350.96	215.59
351.34	215.70
351.72	215.77
352.10	215.87
352.48	215.95
352.87	215.97
353.25	216.06
353.63	216.08
354.01	216.15
354.39	216.26
354.77	216.33
355.15	216.45
355.54	216.48
355.92	216.47
356.30	216.53
356.68	216.73
357.06	216.79
357.44	216.81
357.82	216.88
358.20	216.96
358.58	217.01
358.97	217.08
359.35	217.17
359.73	217.28
360.11	217.32
360.49	217.35
360.87	217.40
361.25	217.44
361.63	217.59
362.01	217.65
362.39	217.62
362.77	217.69
363.15	217.72
363.53	217.76
363.91	217.82
364.29	217.86
364.67	217.66
365.05	217.71
365.43	217.74
365.81	217.75
366.19	217.86
366.57	217.95
366.95	217.92
367.33	217.89
367.71	217.89
368.09	217.92
368.47	217.94
368.85	217.95
369.23	218.02
369.61	217.90
369.99	217.93
370.37	217.96
370.75	218.00
371.13	217.93
371.51	217.91
371.89	217.87
372.27	217.88
372.65	217.89
373.03	217.85
373.41	217.80
373.78	217.77
374.16	217.60
374.54	217.51
374.92	217.45
375.30	217.43
375.68	217.36
376.06	217.34
376.44	217.25
376.82	217.23
377.19	217.11
377.57	217.08
377.95	216.99
378.33	216.94
378.71	216.77
379.09	216.76
379.47	216.73
379.84	216.66
380.22	216.60
380.60	216.49
380.98	216.45
381.36	216.42
381.73	216.34
382.11	216.32
382.49	216.26
382.87	216.21
383.25	216.15
383.62	216.32
384.00	216.25
384.38	216.25
384.76	216.26
385.13	216.34
385.51	216.28
385.89	216.21
386.27	216.21
386.64	216.22
387.02	216.16
387.40	216.10
387.78	216.10
388.15	216.05
388.53	216.02
388.91	215.97
389.29	215.95
389.66	215.98
390.04	215.98
390.42	216.00
390.79	216.00
391.17	215.99
391.55	215.76
391.92	215.76
392.30	215.77
392.68	215.72
393.05	215.69
393.43	215.72
393.81	215.72
394.18	215.66
394.56	215.70
394.94	215.75
395.31	215.73
395.69	215.80
396.06	215.83
396.44	215.89
396.82	215.90
397.19	216.02
397.57	216.02
397.95	216.06
398.32	216.04
398.70	216.11
399.07	216.17
399.45	216.20
399.82	216.25
400.20	216.24
400.58	216.27
400.95	216.24
401.33	216.33
401.70	216.60
402.08	216.70
402.45	216.76
402.83	216.89
403.20	217.02
403.58	217.10
403.95	217.28
404.33	217.43
404.71	217.59
405.08	217.83
405.46	217.96
405.83	218.12
406.21	218.29
406.58	218.50
406.96	218.74
407.33	219.03
407.70	219.30
408.08	219.76
408.45	220.08
408.83	220.48
409.20	220.82
409.58	221.03
409.95	221.48
410.33	221.94
410.70	222.34
411.08	222.85
411.45	223.38
411.82	223.92
412.20	224.58
412.57	225.38
412.95	225.89
413.32	226.72
413.69	227.57
414.07	228.44
414.44	229.38
414.82	230.33
415.19	231.39
415.56	232.54
415.94	233.66
416.31	235.01
416.68	236.34
417.06	237.88
417.43	239.41
417.81	241.04
418.18	242.76
418.55	244.65
418.93	246.60
419.30	248.68
419.67	250.82
420.04	253.04
420.42	255.35
420.79	258.08
421.16	260.77
421.54	263.55
421.91	266.46
422.28	269.44
422.66	272.66
423.03	275.84
423.40	279.07
423.77	282.56
424.15	286.12
424.52	289.81
424.89	293.83
425.26	297.75
425.64	301.54
426.01	305.70
426.38	310.02
426.75	314.47
427.13	319.04
427.50	323.86
427.87	328.87
428.24	333.93
428.61	338.80
428.99	344.14
429.36	349.99
429.73	355.71
430.10	361.43
430.47	367.26
430.85	373.38
431.22	379.90
431.59	386.81
431.96	393.41
432.33	400.64
432.70	407.65
433.08	415.93
433.45	423.73
433.82	431.39
434.19	439.99
434.56	448.42
434.93	456.45
435.30	464.43
435.68	473.17
436.05	481.80
436.42	490.36
436.79	498.21
437.16	506.72
437.53	515.68
437.90	524.53
438.27	533.18
438.64	542.10
439.01	550.38
439.38	557.66
439.75	564.77
440.13	572.98
440.50	580.67
440.87	586.86
441.24	593.26
441.61	600.47
441.98	605.67
442.35	611.75
442.72	617.86
443.09	623.66
443.46	627.33
443.83	629.78
444.20	631.96
444.57	635.00
444.94	636.31
445.31	637.62
445.68	638.96
446.05	639.49
446.42	638.68
446.79	637.74
447.16	636.65
447.53	635.89
447.90	632.64
448.27	629.44
448.64	624.91
449.01	621.65
449.37	615.91
449.74	610.32
450.11	603.65
450.48	596.46
450.85	589.32
451.22	583.04
451.59	577.08
451.96	571.41
452.33	563.79
452.70	556.95
453.07	548.83
453.43	540.46
453.80	532.52
454.17	524.85
454.54	517.52
454.91	509.66
455.28	502.00
455.65	494.87
456.02	487.70
456.38	481.63
456.75	474.07
457.12	467.73
457.49	461.57
457.86	455.54
458.23	450.42
458.59	444.69
458.96	438.95
459.33	433.86
459.70	428.69
460.07	424.64
460.43	419.91
460.80	415.51
461.17	411.67
461.54	407.61
461.91	403.71
462.27	399.75
462.64	396.48
463.01	392.80
463.38	389.19
463.74	385.59
464.11	382.46
464.48	379.71
464.85	376.71
465.21	374.33
465.58	371.84
465.95	368.80
466.32	366.27
466.68	363.79
467.05	361.32
467.42	358.85
467.78	356.23
468.15	353.79
468.52	351.92
468.88	349.54
469.25	347.43
469.62	345.71
469.98	343.87
470.35	342.12
470.72	340.45
471.08	338.73
471.45	337.29
471.82	335.82
472.18	334.24
472.55	333.15
472.92	331.84
473.28	330.67
473.65	329.61
474.02	328.58
474.38	327.71
474.75	326.97
475.11	326.20
475.48	325.66
475.85	325.25
476.21	324.82
476.58	324.50
476.94	324.30
477.31	324.02
477.67	323.73
478.04	323.63
478.41	323.64
478.77	323.92
479.14	323.88
479.50	324.04
479.87	324.36
480.23	324.63
480.60	324.88
480.96	325.18
481.33	325.77
481.69	326.32
482.06	326.87
482.42	327.36
482.79	328.00
483.15	328.80
483.52	329.74
483.88	330.57
484.25	331.52
484.61	332.53
484.98	333.59
485.34	334.91
485.71	336.25
486.07	337.69
486.44	338.92
486.80	340.50
487.17	342.15
487.53	343.98
487.90	345.85
488.26	347.87
488.62	350.00
488.99	352.01
489.35	354.13
489.72	356.47
490.08	359.00
490.44	361.52
490.81	364.20
491.17	366.88
491.54	369.88
491.90	372.90
492.26	376.17
492.63	379.57
492.99	383.06
493.36	386.71
493.72	390.55
494.08	394.59
494.45	398.79
494.81	403.12
495.17	407.58
495.54	412.26
495.90	417.06
496.26	421.97
496.63	427.19
496.99	432.56
497.35	438.13
497.72	443.90
498.08	449.78
498.44	455.88
498.80	462.31
499.17	468.71
499.53	475.41
499.89	482.28
500.26	489.20
500.62	496.31
500.98	503.63
501.34	511.08
501.71	518.81
502.07	526.64
502.43	534.61
502.79	542.64
503.16	550.97
503.52	559.50
503.88	568.18
504.24	577.07
504.60	586.11
504.97	595.25
505.33	604.44
505.69	614.31
506.05	624.09
506.41	633.81
506.78	643.83
507.14	653.99
507.50	664.34
507.86	674.99
508.22	685.63
508.59	696.20
508.95	707.15
509.31	718.27
509.67	729.57
510.03	740.87
510.39	752.51
510.75	764.27
511.12	776.08
511.48	788.10
511.84	800.18
512.20	812.38
512.56	824.91
512.92	837.59
513.28	850.05
513.64	862.67
514.00	875.34
514.37	888.17
514.73	901.08
515.09	913.85
515.45	926.61
515.81	939.49
516.17	952.73
516.53	965.77
516.89	978.67
517.25	991.74
517.61	1005.05
517.97	1018.22
518.33	1031.15
518.69	1044.42
519.05	1057.87
519.41	1071.35
519.77	1085.05
520.13	1098.04
520.49	1110.91
520.85	1124.14
521.21	1137.29
521.57	1150.74
521.93	1163.58
522.29	1177.03
522.65	1190.37
523.01	1203.70
523.37	1216.65
523.73	1229.65
524.09	1242.54
524.45	1255.73
524.81	1268.89
525.17	1281.90
525.53	1294.76
525.89	1307.73
526.25	1320.59
526.61	1333.07
526.97	1345.90
527.33	1358.41
527.68	1371.62
528.04	1384.81
528.40	1397.48
528.76	1410.41
529.12	1422.95
529.48	1435.94
529.84	1447.93
530.20	1460.42
530.56	1472.61
530.91	1485.45
531.27	1497.99
531.63	1510.42
531.99	1522.77
532.35	1534.62
532.71	1546.73
533.07	1559.30
533.42	1571.18
533.78	1582.99
534.14	1594.76
534.50	1605.65
534.86	1617.09
535.21	1627.51
535.57	1638.76
535.93	1649.68
536.29	1660.40
536.65	1671.53
537.00	1682.09
537.36	1693.05
537.72	1703.63
538.08	1714.59
538.44	1725.11
538.79	1735.84
539.15	1746.35
539.51	1756.79
539.87	1767.79
540.22	1778.19
540.58	1788.88
540.94	1799.43
541.29	1809.22
541.65	1818.62
542.01	1828.79
542.37	1838.46
542.72	1848.43
543.08	1857.83
543.44	1868.04
543.79	1877.08
544.15	1886.23
544.51	1896.01
544.87	1905.64
545.22	1914.64
545.58	1923.31
545.94	1932.12
546.29	1940.36
546.65	1948.52
547.01	1956.54
547.36	1963.88
547.72	1971.33
548.07	1978.56
548.43	1986.04
548.79	1993.89
549.14	2001.88
549.50	2009.97
549.86	2017.59
550.21	2024.88
550.57	2032.26
550.92	2038.71
551.28	2046.08
551.64	2053.23
551.99	2060.50
552.35	2067.44
552.70	2074.03
553.06	2080.56
553.41	2086.58
553.77	2092.95
554.13	2099.26
554.48	2106.03
554.84	2113.05
555.19	2119.51
555.55	2125.80
555.90	2131.89
556.26	2138.48
556.61	2144.31
556.97	2149.11
557.32	2154.79
557.68	2161.03
558.03	2166.72
558.39	2172.05
558.74	2177.83
559.10	2183.22
559.45	2188.54
559.81	2194.00
560.16	2199.54
560.52	2205.23
560.87	2211.54
561.23	2217.37
561.58	2223.83
561.94	2229.06
562.29	2233.73
562.64	2239.79
563.00	2245.48
563.35	2251.22
563.71	2256.92
564.06	2262.54
564.42	2268.48
564.77	2273.37
565.12	2278.51
565.48	2283.74
565.83	2289.18
566.19	2294.52
566.54	2299.86
566.89	2304.69
567.25	2309.26
567.60	2315.04
567.96	2320.42
568.31	2325.08
568.66	2329.41
569.02	2333.49
569.37	2337.31
569.72	2341.79
570.08	2345.30
570.43	2348.47
570.78	2351.45
571.14	2353.93
571.49	2357.22
571.84	2360.76
572.20	2363.92
572.55	2366.98
572.90	2369.29
573.26	2372.32
573.61	2375.10
573.96	2377.30
574.31	2379.18
574.67	2381.22
575.02	2382.06
575.37	2383.47
575.72	2384.21
576.08	2385.69
576.43	2385.76
576.78	2386.28
577.13	2388.05
577.49	2389.43
577.84	2390.53
578.19	2392.07
578.54	2392.95
578.90	2393.85
579.25	2393.94
579.60	2393.98
579.95	2393.39
580.30	2393.70
580.66	2393.09
581.01	2391.53
581.36	2389.47
581.71	2388.54
582.06	2387.51
582.42	2386.83
582.77	2384.92
583.12	2383.64
583.47	2382.44
583.82	2382.12
584.17	2381.02
584.53	2378.94
584.88	2377.03
585.23	2375.46
585.58	2373.30
585.93	2371.36
586.28	2369.34
586.63	2367.09
586.98	2365.04
587.34	2363.35
587.69	2360.99
588.04	2359.08
588.39	2357.90
588.74	2355.69
589.09	2353.02
589.44	2350.07
589.79	2347.61
590.14	2345.75
590.49	2343.10
590.84	2339.43
591.19	2336.61
591.54	2333.64
591.89	2329.89
592.25	2326.62
592.60	2322.56
592.95	2318.66
593.30	2314.81
593.65	2310.54
594.00	2306.34
594.35	2303.59
594.70	2299.02
595.05	2294.68
595.40	2289.44
595.75	2283.69
596.10	2280.05
596.45	2275.41
596.80	2271.06
597.15	2265.99
597.50	2260.13
597.85	2255.28
598.19	2250.19
598.54	2244.30
598.89	2239.12
599.24	2234.58
599.59	2228.80
599.94	2223.15
600.29	2217.34
600.64	2211.46
600.99	2204.78
601.34	2199.43
601.69	2192.44
602.04	2186.31
602.39	2179.73
602.74	2173.71
603.08	2168.37
603.43	2161.86
603.78	2155.14
604.13	2148.13
604.48	2141.06
604.83	2135.14
605.18	2128.94
605.53	2122.08
605.87	2115.19
606.22	2108.54
606.57	2100.59
606.92	2092.63
607.27	2085.66
607.62	2079.08
607.96	2072.07
608.31	2065.67
608.66	2057.69
609.01	2050.18
609.36	2043.08
609.70	2035.52
610.05	2027.78
610.40	2019.59
610.75	2011.50
611.10	2003.72
611.44	1994.87
611.79	1986.25
612.14	1976.27
612.49	1965.69
612.83	1956.51
613.18	1947.33
613.53	1938.10
613.88	1928.75
614.22	1920.24
614.57	1910.46
614.92	1900.06
615.27	1889.98
615.61	1879.95
615.96	1870.66
616.31	1861.11
616.65	1851.70
617.00	1842.04
617.35	1832.49
617.70	1822.75
618.04	1812.75
618.39	1802.78
618.74	1793.13
619.08	1783.48
619.43	1774.84
619.78	1766.51
620.12	1757.95
620.47	1748.49
620.82	1738.19
621.16	1728.47
621.51	1718.63
621.85	1708.83
622.20	1698.40
622.55	1687.98
622.89	1678.04
623.24	1668.28
623.59	1658.51
623.93	1648.38
624.28	1638.66
624.62	1628.71
624.97	1618.61
625.32	1608.81
625.66	1599.93
626.01	1591.36
626.35	1582.07
626.70	1572.05
627.04	1562.11
627.39	1552.04
627.73	1542.77
628.08	1533.83
628.43	1524.25
628.77	1514.96
629.12	1506.11
629.46	1498.33
629.81	1490.03
630.15	1480.70
630.50	1470.87
630.84	1460.45
631.19	1450.71
631.53	1441.31
631.88	1431.10
632.22	1420.97
632.57	1411.71
632.91	1401.55
633.26	1391.65
633.60	1382.13
633.95	1372.95
634.29	1363.49
634.64	1354.21
634.98	1344.36
635.32	1335.18
635.67	1326.79
636.01	1317.56
636.36	1307.93
636.70	1298.47
637.05	1288.95
637.39	1280.02
637.73	1271.63
638.08	1264.25
638.42	1256.02
638.77	1247.41
639.11	1239.34
639.45	1231.69
639.80	1223.23
640.14	1214.61
640.49	1205.84
640.83	1197.10
641.17	1189.03
641.52	1181.02
641.86	1172.58
642.20	1164.65
642.55	1156.03
642.89	1147.12
643.23	1138.58
643.58	1130.51
643.92	1121.56
644.26	1113.02
644.61	1104.67
644.95	1095.74
645.29	1086.53
645.64	1077.44
645.98	1068.90
646.32	1060.95
646.66	1052.41
647.01	1044.12
647.35	1036.02
647.69	1027.71
648.04	1019.46
648.38	1010.59
648.72	1001.85
649.06	993.35
649.41	985.21
649.75	977.30
650.09	969.57
650.43	961.70
650.78	953.52
651.12	945.94
651.46	938.64
651.80	931.41
652.14	924.22
652.49	916.67
652.83	909.38
653.17	901.82
653.51	894.27
653.85	887.08
654.20	879.92
654.54	872.53
654.88	865.36
655.22	858.30
655.56	851.36
655.90	844.65
656.25	838.13
656.59	831.43
656.93	824.59
657.27	817.57
657.61	810.61
657.95	804.51
658.29	798.54
658.64	792.44
658.98	786.06
659.32	779.62
659.66	773.53
660.00	767.31
660.34	761.37
660.68	755.35
661.02	749.18
661.36	743.28
661.70	737.61
662.05	732.12
662.39	726.73
662.73	721.45
663.07	716.17
663.41	710.58
663.75	704.92
664.09	699.30
664.43	693.93
664.77	688.66
665.11	682.98
665.45	677.23
665.79	671.56
666.13	666.01
666.47	660.65
666.81	655.21
667.15	649.95
667.49	644.79
667.83	639.64
668.17	634.45
668.51	629.49
668.85	624.66
669.19	619.80
669.53	614.78
669.87	609.75
670.21	604.99
670.55	600.40
670.89	596.03
671.23	591.84
671.57	587.55
671.91	583.33
672.25	579.20
672.58	575.14
672.92	571.15
673.26	567.30
673.60	563.44
673.94	559.77
674.28	556.22
674.62	552.61
674.96	548.96
675.30	545.53
675.64	541.85
675.97	538.26
676.31	534.75
676.65	531.24
676.99	527.91
677.33	524.18
677.67	520.63
678.01	516.81
678.34	513.18
678.68	509.71
679.02	506.19
679.36	502.59
679.70	498.99
680.04	495.53
680.37	492.16
680.71	488.95
681.05	485.86
681.39	482.60
681.73	479.44
682.06	476.41
682.40	473.36
682.74	470.30
683.08	467.23
683.42	464.05
683.75	461.10
684.09	458.11
684.43	455.37
684.77	452.52
685.10	449.79
685.44	446.99
685.78	444.12
686.12	441.44
686.45	438.77
686.79	436.16
687.13	433.65
687.46	431.06
687.80	428.40
688.14	425.62
688.48	423.10
688.81	420.52
689.15	417.98
689.49	415.42
689.82	412.91
690.16	410.33
690.50	407.95
690.83	405.53
691.17	403.03
691.51	400.60
691.84	398.36
692.18	396.18
692.52	394.00
692.85	391.92
693.19	389.84
693.52	387.76
693.86	385.64
694.20	383.51
694.53	381.45
694.87	379.29
695.21	377.19
695.54	375.10
695.88	372.98
696.21	370.83
696.55	368.80
696.88	366.81
697.22	364.93
697.56	363.08
697.89	361.27
698.23	359.55
698.56	357.83
698.90	356.11
699.23	354.28
699.57	352.43
699.90	350.63
700.24	348.82
700.58	347.10
700.91	345.43
701.25	343.90
701.58	342.32
701.92	340.81
702.25	339.30
702.59	337.68
702.92	336.15
703.26	334.65
703.59	333.18
703.93	331.94
704.26	330.48
704.60	329.01
704.93	327.53
705.26	326.11
705.60	324.69
705.93	323.19
706.27	321.82
706.60	320.59
706.94	319.41
707.27	318.03
707.61	316.73
707.94	315.42
708.27	313.91
708.61	312.50
708.94	311.14
709.28	309.87
709.61	308.69
709.94	307.53
710.28	306.35
710.61	305.21
710.95	303.83
711.28	302.84
711.61	301.73
711.95	300.64
712.28	299.45
712.61	298.31
712.95	297.33
713.28	296.38
713.61	295.26
713.95	294.15
714.28	293.18
714.61	292.16
714.95	291.19
715.28	290.22
715.61	289.26
715.95	288.34
716.28	287.40
716.61	286.44
716.95	285.48
717.28	284.57
717.61	283.61
717.94	282.71
718.28	281.66
718.61	280.80
718.94	279.94
719.27	279.12
719.61	278.35
719.94	277.47
720.27	276.49
720.60	275.62
720.94	274.81
721.27	274.03
721.60	273.37
721.93	272.67
722.27	272.07
722.60	271.41
722.93	270.73
723.26	270.08
723.59	269.41
723.93	268.81
724.26	268.19
724.59	267.55
724.92	266.97
725.25	266.46
725.59	265.91
725.92	265.35
726.25	264.81
726.58	264.19
726.91	263.65
727.24	263.16
727.57	262.68
727.91	262.10
728.24	261.62
728.57	261.02
728.90	260.48
729.23	259.88
729.56	259.47
729.89	258.94
730.22	258.40
730.55	257.88
730.89	257.37
731.22	256.87
731.55	256.39
731.88	255.90
732.21	255.35
732.54	254.83
732.87	254.33
733.20	253.85
733.53	253.43
733.86	252.99
734.19	252.50
734.52	252.11
734.85	251.87
735.18	251.38
735.51	251.05
735.84	250.64
736.17	250.28
736.50	249.77
736.83	249.62
737.16	249.23
737.49	248.90
737.82	248.50
738.15	248.13
738.48	247.77
738.81	247.40
739.14	247.04
739.47	246.68
739.80	246.31
740.13	245.97
740.46	245.60
740.79	245.20
741.12	244.87
741.45	244.49
741.78	243.99
742.11	243.76
742.44	243.35
742.77	243.06
743.10	242.70
743.43	242.38
743.75	241.80
744.08	241.73
744.41	241.36
744.74	241.00
745.07	240.62
745.40	240.33
745.73	240.09
746.06	239.77
746.39	239.49
746.71	239.12
747.04	238.78
747.37	238.44
747.70	238.18
748.03	237.86
748.36	237.62
748.68	237.34
749.01	236.95
749.34	236.67
749.67	236.37
750.00	236.12
750.33	236.01
750.65	235.76
750.98	235.30
751.31	235.07
751.64	234.89
751.97	234.83
752.29	234.53
752.62	234.20
752.95	233.94
753.28	233.66
753.60	233.47
753.93	233.32
754.26	233.11
754.59	232.83
754.91	232.63
755.24	232.35
755.57	232.13
755.90	231.92
756.22	231.70
756.55	231.45
756.88	231.21
757.20	230.87
757.53	230.64
757.86	230.40
758.19	230.19
758.51	229.94
758.84	229.59
759.17	229.47
759.49	229.33
759.82	229.28
760.15	229.12
760.47	228.96
760.80	228.69
761.13	228.56
761.45	228.39
761.78	228.21
762.11	228.06
762.43	227.88
762.76	227.74
763.08	227.63
763.41	227.50
763.74	227.34
764.06	227.19
764.39	227.06
764.71	226.93
765.04	226.78
765.37	226.63
765.69	226.48
766.02	226.33
766.34	226.15
766.67	225.93
767.00	225.84
767.32	225.81
767.65	225.84
767.97	225.70
768.30	225.59
768.62	225.49
768.95	225.35
769.27	225.23
769.60	225.14
769.92	224.97
770.25	224.84
770.57	224.66
770.90	224.52
771.22	224.37
771.55	224.24
771.87	224.16
772.20	224.06
772.52	224.18
772.85	224.31
773.17	224.21
773.50	224.07
773.82	223.96
774.15	223.76
774.47	223.58
774.80	223.48
775.12	223.39
775.45	223.28
775.77	223.21
776.09	223.14
776.42	223.02
776.74	223.01
777.07	222.91
777.39	222.88
777.72	222.79
778.04	222.72
778.36	222.63
778.69	222.53
779.01	222.48
779.33	222.17
779.66	221.88
779.98	221.81
780.31	221.74
780.63	221.74
780.95	221.70
781.28	221.60
781.60	221.49
781.92	221.41
782.25	221.35
782.57	221.25
782.89	221.17
783.22	221.13
783.54	221.04
783.86	221.00
784.19	220.93
784.51	220.93
784.83	220.88
785.16	220.81
785.48	220.79
785.80	220.71
786.12	220.73
786.45	220.64
786.77	220.62
787.09	220.59
787.42	220.48
787.74	220.43
788.06	220.37
788.38	220.34
788.71	220.26
789.03	220.19
789.35	220.17
789.67	220.11
789.99	220.05
790.32	219.95
790.64	219.92
790.96	220.01
791.28	219.91
791.61	219.84
791.93	219.80
792.25	219.72
792.57	219.84
792.89	219.74
793.21	219.71
793.54	219.62
793.86	219.54
794.18	219.48
794.50	219.41
794.82	219.38
795.14	219.38
795.47	219.40
795.79	219.39
796.11	219.29
796.43	219.23
796.75	219.18
797.07	219.15
797.39	219.08
797.71	218.91
798.04	218.85
798.36	218.85
798.68	218.81
799.00	218.81
799.32	218.67
799.64	218.65
799.96	218.60
800.28	218.61
800.60	218.58
800.92	218.55
801.24	218.50
801.56	218.48
801.89	218.41
802.21	218.36
802.53	218.30
802.85	218.32
803.17	218.40
803.49	218.33
803.81	218.29
804.13	218.23
804.45	218.16
804.77	218.17
805.09	218.12
805.41	218.08
805.73	217.99
806.05	217.87
806.37	217.84
806.69	217.80
807.01	217.72
807.33	217.68
807.65	217.57
807.97	217.66
808.28	217.60
808.60	217.58
808.92	217.56
809.24	217.66
809.56	217.59
809.88	217.48
810.20	217.46
810.52	217.51
810.84	217.46
811.16	217.44
811.48	217.37
811.80	217.37
812.12	217.30
812.43	217.30
812.75	217.32
813.07	217.27
813.39	217.25
813.71	217.24
814.03	217.22
814.35	217.20
814.67	217.05
814.98	217.04
815.30	217.01
815.62	216.94
815.94	216.78
816.26	216.77
816.58	216.74
816.89	216.75
817.21	216.66
817.53	216.66
817.85	216.68
818.17	216.64
818.48	216.59
818.80	216.65
819.12	216.58
819.44	216.58
819.76	216.54
820.07	216.50
820.39	216.47
820.71	216.47
821.03	216.47
821.34	216.45
821.66	216.43
821.98	216.41
822.30	216.40
822.61	216.49
822.93	216.48
823.25	216.45
823.57	216.39
823.88	216.42
824.20	216.41
824.52	216.42
824.83	216.43
825.15	216.40
825.47	216.37
825.79	216.42
826.10	216.37
826.42	216.35
826.74	216.39
827.05	216.37
827.37	216.36
827.69	216.33
828.00	216.32
828.32	216.30
828.64	216.26
828.95	216.32
829.27	216.24
829.58	216.25
829.90	216.28
830.22	216.30
830.53	216.23
830.85	216.20
831.17	216.12
831.48	216.10
831.80	216.09
832.11	216.05
832.43	216.01
832.75	216.00
833.06	216.13
833.38	216.04
833.69	216.02
834.01	216.02
834.32	216.02
834.64	216.01
834.96	216.02
835.27	216.02
835.59	215.99
835.90	215.93
836.22	215.88
836.53	215.83
836.85	215.79
837.16	215.99
837.48	216.03
837.79	216.09
838.11	216.12
838.42	216.13
838.74	216.16
839.05	216.14
839.37	216.15
839.68	216.01
840.00	216.02
840.31	216.05
840.63	216.03
840.94	215.99
841.26	215.93
841.57	215.93
841.88	215.96
842.20	215.93
842.51	215.95
842.83	215.98
843.14	216.17
843.46	216.19
843.77	216.08
844.08	215.99
844.40	215.93
844.71	215.88
845.03	215.85
845.34	215.83
845.65	215.78
845.97	215.78
846.28	215.79
846.60	215.79
846.91	215.73
847.22	215.71
847.54	215.76
847.85	215.79
848.16	215.73
848.48	215.70
848.79	215.75
849.10	215.77
849.42	215.76
849.73	215.53
850.04	215.51
850.36	215.44
850.67	215.51
850.98	215.54
851.30	215.55
851.61	215.53
851.92	215.52
852.23	215.61
852.55	215.58
852.86	215.56
853.17	215.57
853.49	215.66
853.80	215.67
854.11	215.66
854.42	215.68
854.74	215.69
855.05	215.68
855.36	215.56
855.67	215.54
855.99	215.55
856.30	215.79
856.61	215.79
856.92	215.81
857.23	215.79
857.55	215.77
857.86	215.77
858.17	215.81
858.48	215.81
858.79	215.75
859.11	215.79
859.42	215.80
859.73	215.77
860.04	215.70
860.35	215.67
860.66	215.64
860.98	215.65
861.29	215.64
861.60	215.65
861.91	215.71
862.22	215.67
862.53	215.63
862.84	215.38
863.16	215.41
863.47	215.35
863.78	215.30
864.09	215.28
864.40	215.27
864.71	215.26
865.02	215.25
865.33	215.23
865.64	215.19
865.95	215.18
866.27	215.32
866.58	215.32
866.89	215.34
867.20	215.32
867.51	215.26
867.82	215.27
868.13	215.28
868.44	215.26
868.75	215.31
869.06	215.32
869.37	215.35
869.68	215.33
869.99	215.35
870.30	215.38
870.61	215.42
870.92	215.37
871.23	215.33
871.54	215.37
871.85	215.40
872.16	215.42
872.47	215.40
872.78	215.28
873.09	215.28
873.40	215.26
873.71	215.29
874.02	215.34
874.33	215.32
874.64	215.26
874.95	215.27
875.26	215.23
875.56	215.25
875.87	215.24
876.18	215.21
876.49	215.42
876.80	215.39
877.11	215.33
877.42	215.36
877.73	215.37
878.04	215.31
878.35	215.32
878.66	215.32
878.96	215.32
879.27	215.30
879.58	215.28
879.89	215.24
880.20	215.30
880.51	215.28
880.82	215.28
881.12	215.34
881.43	215.31
881.74	215.27
882.05	215.26
882.36	215.30
882.67	215.30
882.97	215.06
883.28	215.05
883.59	215.06
883.90	215.10
884.21	215.16
884.51	215.18
884.82	215.16
885.13	215.14
885.44	215.14
885.74	215.16
886.05	215.16
886.36	215.18
886.67	215.06
886.98	215.15
887.28	215.18
887.59	215.15
887.90	215.15
888.20	215.15
888.51	215.16
888.82	215.10
889.13	215.13
889.43	215.31
889.74	215.31
890.05	215.33
890.35	215.32
890.66	215.26
890.97	215.26
891.28	215.25
891.58	215.26
891.89	215.25
892.20	215.25
892.50	215.24
892.81	215.24
893.12	215.28
893.42	215.19
893.73	215.18
894.04	215.16
894.34	215.16
894.65	215.14
894.95	215.12
895.26	215.14
895.57	215.22
895.87	215.03
896.18	215.03
896.48	215.01
896.79	214.96
897.10	214.99
897.40	214.99
897.71	215.02
898.01	215.00
898.32	215.01
898.63	214.98
898.93	215.01
899.24	215.00
899.54	215.01
899.85	214.99
900.15	214.98
900.46	214.99
900.76	215.00
901.07	214.97
901.38	214.98
901.68	214.98
901.99	214.87
902.29	214.90
902.60	214.91
902.90	214.89
903.21	214.92
903.51	214.90
903.82	214.93
904.12	214.95
904.43	214.97
904.73	214.95
905.03	214.94
905.34	215.11
905.64	215.10
905.95	215.09
906.25	215.12
906.56	215.09
906.86	215.10
907.17	215.12
907.47	215.16
907.77	215.11
908.08	215.10
908.38	215.12
908.69	215.11
908.99	215.14
909.30	215.15
909.60	215.13
909.90	215.13
910.21	215.05
910.51	214.99
910.81	214.99
911.12	215.04
911.42	215.04
911.73	214.85
912.03	214.87
912.33	214.92
912.64	214.91
912.94	214.88
913.24	214.85
913.55	214.80
913.85	214.77
914.15	214.83
914.46	214.84
914.76	214.83
915.06	214.83
915.37	214.77
915.67	214.76
915.97	214.77
916.27	214.75
916.58	214.78
916.88	214.77
917.18	214.74
917.49	214.85
917.79	214.87
918.09	214.90
918.39	214.94
918.70	214.89
919.00	214.88
919.30	215.01
919.60	214.98
919.91	214.96
920.21	214.99
920.51	214.95
920.81	214.94
921.12	214.96
921.42	214.96
921.72	214.98
922.02	214.96
922.32	215.00
922.63	214.99
922.93	215.10
923.23	215.09
923.53	215.09
923.83	214.91
924.13	214.91
924.44	214.89
924.74	214.91
925.04	214.95
925.34	214.95
925.64	214.85
925.94	214.87
926.24	215.00
926.55	214.96
926.85	215.00
927.15	215.01
927.45	215.01
927.75	214.98
928.05	214.96
928.35	214.96
928.65	214.95
928.95	214.96
929.26	214.90
929.56	214.96
929.86	214.99
930.16	215.00
930.46	214.99
930.76	215.02
931.06	214.94
931.36	214.88
931.66	214.86
931.96	214.89
932.26	214.90
932.56	214.81
932.86	214.81
933.16	214.80
933.46	214.75
933.76	214.72
934.06	214.78
934.36	214.89
934.66	214.89
934.96	214.91
935.26	214.92
935.56	214.90
935.86	214.84
936.16	214.82
936.46	214.80
936.76	214.78
937.06	214.73
937.36	214.75
937.66	214.79
937.96	214.83
938.26	214.78
938.56	214.75
938.86	214.77
939.16	214.82
939.46	214.82
939.76	214.88
940.06	214.88
940.35	214.81
940.65	214.69
940.95	214.71
941.25	214.62
941.55	214.60
941.85	214.58
942.15	214.60
942.45	214.68
942.75	214.69
943.04	214.69
943.34	214.74
943.64	214.72
943.94	214.68
944.24	214.64
944.54	214.64
944.84	214.63
945.13	214.60
945.43	214.57
945.73	214.58
946.03	214.54
946.33	214.53
946.62	214.54
946.92	214.55
947.22	214.58
947.52	214.61
947.82	214.63
948.11	214.66
948.41	214.61
948.71	214.52
949.01	214.50
949.31	214.48
949.60	214.45
949.90	214.47
950.20	214.45
950.50	214.46
950.79	214.46
951.09	214.51
951.39	214.50
951.69	214.50
951.98	214.55
952.28	214.54
952.58	214.53
952.87	214.51
953.17	214.52
953.47	214.46
953.76	214.46
954.06	214.41
954.36	214.34
954.66	214.35
954.95	214.43
955.25	214.47
955.55	214.51
955.84	214.45
956.14	214.46
956.44	214.49
956.73	214.46
957.03	214.51
957.32	214.49
957.62	214.49
957.92	214.52
958.21	214.47
958.51	214.73
958.81	214.78
959.10	214.81
959.40	214.89
959.69	214.92
959.99	214.95
960.29	214.99
960.58	215.01
960.88	215.11
961.17	215.09
961.47	215.12
961.76	215.11
962.06	215.17
962.36	215.16
962.65	215.16
962.95	215.17
963.24	215.11
963.54	215.11
963.83	215.16
964.13	215.12
964.42	215.07
964.72	214.87
965.01	214.86
965.31	214.86
965.60	214.79
965.90	214.90
966.19	214.83
966.49	214.84
966.78	214.83
967.08	214.79
967.37	214.79
967.67	214.73
967.96	214.76
968.26	214.75
968.55	214.78
968.85	214.73
969.14	214.75
969.43	214.81
969.73	214.80
970.02	214.76
970.32	214.78
970.61	214.78
970.91	214.74
971.20	214.70
971.49	214.71
971.79	214.72
972.08	214.59
972.38	214.59
972.67	214.57
972.96	214.60
973.26	214.59
973.55	214.60
973.85	214.60
974.14	214.59
974.43	214.61
974.73	214.56
975.02	214.60
975.31	214.58
975.61	214.52
975.90	214.50
976.19	214.50
976.49	214.52
976.78	214.54
977.07	214.54
977.37	214.51
977.66	214.48
977.95	214.47
978.24	214.48
978.54	214.53
978.83	214.50
979.12	214.48
979.42	214.45
979.71	214.44
980.00	214.44
980.29	214.47
980.59	214.40
980.88	214.45
981.17	214.41
981.46	214.41
981.76	214.42
982.05	214.49
982.34	214.47
982.63	214.47
982.93	214.48
983.22	214.50
983.51	214.53
983.80	214.57
984.09	214.60
984.39	214.58
984.68	214.57
984.97	214.57
985.26	214.54
985.55	214.60
985.85	214.58
986.14	214.59
986.43	214.60
986.72	214.63
987.01	214.57
987.30	214.60
987.59	214.60
987.89	214.62
988.18	214.58
988.47	214.56
988.76	214.56
989.05	214.54
989.34	214.53
989.63	214.61
989.92	214.60
990.22	214.57
990.51	214.59
990.80	214.60
991.09	214.64
991.38	214.65
991.67	214.59
991.96	214.54
992.25	214.57
992.54	214.49
992.83	214.50
993.12	214.50
993.41	214.54
993.70	214.66
993.99	214.68
994.28	214.68
994.58	214.69
994.87	214.64
995.16	214.66
995.45	214.63
995.74	214.57
996.03	214.58
996.32	214.61
996.61	214.65
996.90	214.64
997.19	214.63
997.48	214.67
997.77	214.64
998.06	214.67
998.34	214.63
998.63	214.65
998.92	214.64
999.21	214.67
999.50	214.64
999.79	214.56
1000.08	214.58
1000.37	214.60
1000.66	214.59
1000.95	214.65
1001.24	214.66
1001.53	214.69
1001.82	214.70
1002.11	214.66
1002.40	214.67
1002.68	214.72
1002.97	214.86
1003.26	214.84
1003.55	214.78
1003.84	214.83
1004.13	214.93
1004.42	214.95
1004.71	214.95
1004.99	214.92
1005.28	214.97
1005.57	214.98
1005.86	214.97
1006.15	214.92
1006.44	214.89
1006.72	214.92
1007.01	214.91
1007.30	214.88
1007.59	214.87
1007.88	214.84
1008.17	214.84
1008.45	214.79
1008.74	214.67
1009.03	214.56
1009.32	214.53
1009.60	214.55
1009.89	214.50
1010.18	214.37
1010.47	214.35
1010.76	214.36
1011.04	214.37
1011.33	214.36
1011.62	214.35
1011.91	214.33
1012.19	214.38
1012.48	214.39
1012.77	214.37
1013.05	214.44
1013.34	214.47
1013.63	214.44
1013.92	214.45
1014.20	214.45
1014.49	214.49
1014.78	214.53
1015.06	214.48
1015.35	214.50
1015.64	214.52
1015.92	214.57
1016.21	214.60
1016.50	214.60
1016.78	214.64
1017.07	214.64
1017.36	214.61
1017.64	214.60
1017.93	214.61
1018.22	214.55
1018.50	214.52
1018.79	214.51
1019.08	214.44
1019.36	214.43
1019.65	214.41
1019.93	214.46
1020.22	214.48
1020.51	214.57
1020.79	214.57
1021.08	213.79
1021.36	213.84
1021.65	214.44
1021.94	214.84
1022.22	214.39
1022.51	213.79
1022.79	215.25
1023.08	214.64
1023.36	217.04
1023.65	214.63
>>>>>End Processed Spectral Data<<<<<
