SpectraSuite Data File
++++++++++++++++++++++++++++++++++++
Date: Tue Jan 29 16:48:26 EST 2013
User: group
Dark Spectrum Present: No
Reference Spectrum Present: No
Number of Sampled Component Spectra: 1
Spectrometers: USB2E7196
Integration Time (usec): 65000 (USB2E7196)
Spectra Averaged: 100 (USB2E7196)
Boxcar Smoothing: 10 (USB2E7196)
Correct for Electrical Dark: No (USB2E7196)
Strobe/Lamp Enabled: No (USB2E7196)
Correct for Detector Non-linearity: No (USB2E7196)
Correct for Stray Light: No (USB2E7196)
Number of Pixels in Processed Spectrum: 2048
>>>>>Begin Processed Spectral Data<<<<<
339.09	0.00
339.48	201.69
339.86	202.34
340.24	203.99
340.63	205.90
341.01	209.98
341.39	208.22
341.78	209.85
342.16	211.34
342.54	210.74
342.93	200.60
343.31	210.74
343.69	211.28
344.07	211.81
344.46	212.28
344.84	212.67
345.22	212.84
345.60	213.13
345.99	213.34
346.37	213.48
346.75	213.64
347.13	213.71
347.52	213.81
347.90	213.95
348.28	214.00
348.66	214.08
349.05	214.03
349.43	214.11
349.81	214.17
350.19	214.26
350.57	214.35
350.96	214.45
351.34	214.55
351.72	214.63
352.10	214.74
352.48	214.77
352.87	214.85
353.25	214.94
353.63	214.98
354.01	215.05
354.39	215.14
354.77	215.21
355.15	215.35
355.54	215.37
355.92	215.38
356.30	215.49
356.68	215.68
357.06	215.75
357.44	215.76
357.82	215.83
358.20	215.94
358.58	216.04
358.97	216.10
359.35	216.21
359.73	216.32
360.11	216.34
360.49	216.44
360.87	216.46
361.25	216.55
361.63	216.68
362.01	216.75
362.39	216.77
362.77	216.82
363.15	216.83
363.53	216.86
363.91	216.88
364.29	216.88
364.67	216.70
365.05	216.76
365.43	216.84
365.81	216.86
366.19	216.94
366.57	217.02
366.95	217.02
367.33	216.99
367.71	217.01
368.09	217.06
368.47	217.05
368.85	217.06
369.23	217.08
369.61	217.00
369.99	217.04
370.37	217.05
370.75	217.15
371.13	217.10
371.51	217.09
371.89	217.12
372.27	217.11
372.65	217.11
373.03	217.07
373.41	217.04
373.78	217.00
374.16	216.87
374.54	216.74
374.92	216.68
375.30	216.67
375.68	216.55
376.06	216.52
376.44	216.46
376.82	216.42
377.19	216.37
377.57	216.30
377.95	216.18
378.33	216.12
378.71	215.95
379.09	215.93
379.47	215.94
379.84	215.85
380.22	215.75
380.60	215.69
380.98	215.65
381.36	215.61
381.73	215.52
382.11	215.52
382.49	215.49
382.87	215.41
383.25	215.34
383.62	215.56
384.00	215.48
384.38	215.45
384.76	215.47
385.13	215.51
385.51	215.48
385.89	215.47
386.27	215.45
386.64	215.46
387.02	215.42
387.40	215.34
387.78	215.32
388.15	215.31
388.53	215.29
388.91	215.25
389.29	215.19
389.66	215.19
390.04	215.14
390.42	215.15
390.79	215.16
391.17	215.14
391.55	214.93
391.92	214.93
392.30	214.94
392.68	214.88
393.05	214.83
393.43	214.82
393.81	214.84
394.18	214.79
394.56	214.77
394.94	214.84
395.31	214.84
395.69	214.94
396.06	214.99
396.44	215.02
396.82	215.03
397.19	215.15
397.57	215.15
397.95	215.22
398.32	215.18
398.70	215.22
399.07	215.33
399.45	215.31
399.82	215.35
400.20	215.36
400.58	215.42
400.95	215.39
401.33	215.52
401.70	215.69
402.08	215.76
402.45	215.86
402.83	215.97
403.20	216.09
403.58	216.16
403.95	216.30
404.33	216.43
404.71	216.60
405.08	216.85
405.46	217.02
405.83	217.19
406.21	217.40
406.58	217.65
406.96	217.81
407.33	218.10
407.70	218.41
408.08	218.89
408.45	219.23
408.83	219.65
409.20	219.98
409.58	220.27
409.95	220.79
410.33	221.25
410.70	221.70
411.08	222.22
411.45	222.80
411.82	223.40
412.20	224.07
412.57	224.87
412.95	225.47
413.32	226.30
413.69	227.15
414.07	228.09
414.44	229.06
414.82	230.09
415.19	231.29
415.56	232.49
415.94	233.70
416.31	235.17
416.68	236.59
417.06	238.22
417.43	239.77
417.81	241.48
418.18	243.30
418.55	245.19
418.93	247.27
419.30	249.41
419.67	251.65
420.04	253.98
420.42	256.41
420.79	259.23
421.16	262.07
421.54	264.99
421.91	267.99
422.28	271.12
422.66	274.51
423.03	277.77
423.40	281.08
423.77	284.72
424.15	288.37
424.52	292.18
424.89	296.43
425.26	300.53
425.64	304.43
426.01	308.76
426.38	313.32
426.75	317.84
427.13	322.60
427.50	327.58
427.87	332.80
428.24	338.00
428.61	343.00
428.99	348.53
429.36	354.55
429.73	360.47
430.10	366.40
430.47	372.40
430.85	378.75
431.22	385.52
431.59	392.60
431.96	399.46
432.33	407.01
432.70	414.16
433.08	422.76
433.45	430.83
433.82	438.82
434.19	447.74
434.56	456.48
434.93	464.86
435.30	473.10
435.68	482.24
436.05	491.28
436.42	500.23
436.79	508.45
437.16	517.28
437.53	526.58
437.90	535.74
438.27	544.74
438.64	553.93
439.01	562.54
439.38	570.17
439.75	577.52
440.13	585.90
440.50	593.97
440.87	600.44
441.24	607.11
441.61	614.48
441.98	619.89
442.35	626.23
442.72	632.52
443.09	638.65
443.46	642.39
443.83	644.98
444.20	647.20
444.57	650.33
444.94	651.86
445.31	653.36
445.68	654.79
446.05	655.40
446.42	654.73
446.79	653.82
447.16	652.78
447.53	652.01
447.90	648.73
448.27	645.45
448.64	640.76
449.01	637.46
449.37	631.57
449.74	625.93
450.11	619.07
450.48	611.72
450.85	604.28
451.22	597.90
451.59	591.76
451.96	585.88
452.33	578.04
452.70	570.87
453.07	562.33
453.43	553.62
453.80	545.35
454.17	537.24
454.54	529.62
454.91	521.35
455.28	513.34
455.65	505.91
456.02	498.37
456.38	492.02
456.75	484.10
457.12	477.48
457.49	470.91
457.86	464.64
458.23	459.16
458.59	453.14
458.96	447.00
459.33	441.62
459.70	436.25
460.07	431.92
460.43	426.96
460.80	422.37
461.17	418.38
461.54	414.17
461.91	410.12
462.27	405.98
462.64	402.59
463.01	398.79
463.38	395.08
463.74	391.36
464.11	388.12
464.48	385.31
464.85	382.23
465.21	379.76
465.58	377.14
465.95	373.97
466.32	371.43
466.68	368.86
467.05	366.21
467.42	363.62
467.78	360.92
468.15	358.36
468.52	356.45
468.88	353.91
469.25	351.70
469.62	349.91
469.98	347.92
470.35	346.08
470.72	344.38
471.08	342.54
471.45	341.02
471.82	339.42
472.18	337.71
472.55	336.47
472.92	335.06
473.28	333.85
473.65	332.73
474.02	331.56
474.38	330.63
474.75	329.89
475.11	329.06
475.48	328.43
475.85	327.92
476.21	327.41
476.58	327.03
476.94	326.75
477.31	326.41
477.67	326.11
478.04	325.93
478.41	325.85
478.77	326.04
479.14	325.95
479.50	326.10
479.87	326.40
480.23	326.70
480.60	326.91
480.96	327.13
481.33	327.70
481.69	328.25
482.06	328.77
482.42	329.19
482.79	329.79
483.15	330.62
483.52	331.56
483.88	332.43
484.25	333.37
484.61	334.37
484.98	335.45
485.34	336.80
485.71	338.14
486.07	339.57
486.44	340.85
486.80	342.48
487.17	344.12
487.53	345.92
487.90	347.78
488.26	349.80
488.62	351.99
488.99	354.00
489.35	356.18
489.72	358.54
490.08	361.10
490.44	363.67
490.81	366.36
491.17	369.11
491.54	372.03
491.90	375.08
492.26	378.31
492.63	381.69
492.99	385.17
493.36	388.82
493.72	392.71
494.08	396.72
494.45	400.91
494.81	405.27
495.17	409.78
495.54	414.55
495.90	419.41
496.26	424.31
496.63	429.52
496.99	434.89
497.35	440.49
497.72	446.29
498.08	452.20
498.44	458.31
498.80	464.72
499.17	471.21
499.53	477.97
499.89	484.88
500.26	491.86
500.62	498.92
500.98	506.29
501.34	513.76
501.71	521.54
502.07	529.31
502.43	537.29
502.79	545.41
503.16	553.69
503.52	562.26
503.88	570.92
504.24	579.82
504.60	588.90
504.97	598.11
505.33	607.30
505.69	617.18
506.05	627.04
506.41	636.85
506.78	646.99
507.14	657.14
507.50	667.55
507.86	678.24
508.22	688.99
508.59	699.66
508.95	710.67
509.31	721.86
509.67	733.39
510.03	744.72
510.39	756.40
510.75	768.23
511.12	780.08
511.48	792.17
511.84	804.45
512.20	816.74
512.56	829.34
512.92	842.21
513.28	854.80
513.64	867.55
514.00	880.41
514.37	893.36
514.73	906.45
515.09	919.46
515.45	932.40
515.81	945.56
516.17	958.93
516.53	972.20
516.89	985.33
517.25	998.53
517.61	1012.08
517.97	1025.53
518.33	1038.71
518.69	1052.31
519.05	1066.07
519.41	1079.85
519.77	1093.85
520.13	1107.19
520.49	1120.30
520.85	1133.69
521.21	1146.98
521.57	1160.72
521.93	1173.79
522.29	1187.51
522.65	1201.22
523.01	1214.80
523.37	1227.87
523.73	1241.24
524.09	1254.48
524.45	1267.82
524.81	1281.29
525.17	1294.71
525.53	1307.98
525.89	1321.45
526.25	1334.55
526.61	1347.48
526.97	1360.47
527.33	1373.44
527.68	1387.02
528.04	1400.63
528.40	1413.79
528.76	1427.34
529.12	1440.30
529.48	1453.64
529.84	1465.93
530.20	1478.68
530.56	1491.28
530.91	1504.68
531.27	1517.63
531.63	1530.45
531.99	1543.47
532.35	1555.72
532.71	1568.11
533.07	1580.97
533.42	1593.24
533.78	1605.50
534.14	1617.54
534.50	1628.94
534.86	1640.46
535.21	1651.38
535.57	1663.00
535.93	1674.40
536.29	1685.46
536.65	1696.89
537.00	1707.84
537.36	1719.46
537.72	1730.59
538.08	1742.11
538.44	1753.22
538.79	1764.27
539.15	1775.19
539.51	1785.97
539.87	1797.40
540.22	1808.39
540.58	1819.34
540.94	1830.34
541.29	1840.73
541.65	1850.76
542.01	1861.31
542.37	1871.52
542.72	1881.61
543.08	1891.37
543.44	1901.86
543.79	1911.25
544.15	1920.78
544.51	1930.93
544.87	1940.89
545.22	1950.17
545.58	1959.11
545.94	1968.02
546.29	1976.65
546.65	1985.08
547.01	1993.49
547.36	2001.20
547.72	2009.00
548.07	2016.72
548.43	2024.50
548.79	2032.35
549.14	2040.44
549.50	2048.99
549.86	2056.96
550.21	2064.57
550.57	2072.43
550.92	2079.35
551.28	2086.82
551.64	2094.17
551.99	2101.75
552.35	2108.88
552.70	2115.79
553.06	2122.62
553.41	2128.86
553.77	2135.43
554.13	2141.93
554.48	2148.75
554.84	2156.02
555.19	2162.59
555.55	2169.06
555.90	2175.40
556.26	2182.23
556.61	2188.37
556.97	2193.13
557.32	2198.83
557.68	2205.19
558.03	2210.87
558.39	2216.20
558.74	2222.24
559.10	2227.78
559.45	2233.33
559.81	2238.88
560.16	2244.51
560.52	2250.30
560.87	2256.74
561.23	2262.61
561.58	2269.16
561.94	2274.43
562.29	2279.11
562.64	2285.05
563.00	2290.58
563.35	2295.97
563.71	2301.74
564.06	2307.33
564.42	2313.26
564.77	2318.25
565.12	2323.49
565.48	2328.47
565.83	2333.94
566.19	2339.14
566.54	2344.29
566.89	2348.77
567.25	2353.30
567.60	2358.81
567.96	2363.78
568.31	2368.16
568.66	2372.32
569.02	2376.20
569.37	2379.85
569.72	2384.02
570.08	2387.48
570.43	2390.68
570.78	2393.68
571.14	2396.08
571.49	2399.15
571.84	2402.58
572.20	2405.49
572.55	2408.47
572.90	2410.75
573.26	2413.36
573.61	2415.82
573.96	2418.11
574.31	2420.11
574.67	2421.91
575.02	2422.53
575.37	2423.91
575.72	2424.39
576.08	2425.89
576.43	2425.92
576.78	2426.25
577.13	2427.49
577.49	2428.61
577.84	2429.44
578.19	2430.64
578.54	2431.01
578.90	2431.38
579.25	2431.05
579.60	2430.77
579.95	2429.60
580.30	2429.36
580.66	2428.51
581.01	2426.84
581.36	2424.09
581.71	2422.36
582.06	2420.87
582.42	2419.78
582.77	2417.43
583.12	2415.79
583.47	2414.18
583.82	2413.44
584.17	2412.02
584.53	2410.00
584.88	2407.67
585.23	2405.58
585.58	2403.11
585.93	2401.08
586.28	2398.81
586.63	2396.26
586.98	2393.84
587.34	2391.82
587.69	2389.21
588.04	2386.93
588.39	2385.23
588.74	2382.74
589.09	2379.90
589.44	2376.52
589.79	2373.99
590.14	2371.71
590.49	2368.77
590.84	2364.69
591.19	2361.26
591.54	2357.88
591.89	2353.52
592.25	2350.24
592.60	2345.84
592.95	2341.56
593.30	2337.06
593.65	2332.54
594.00	2327.94
594.35	2324.86
594.70	2320.05
595.05	2315.59
595.40	2310.05
595.75	2304.17
596.10	2300.37
596.45	2295.52
596.80	2290.94
597.15	2285.48
597.50	2279.46
597.85	2274.27
598.19	2269.00
598.54	2263.19
598.89	2257.88
599.24	2253.28
599.59	2246.97
599.94	2241.15
600.29	2235.23
600.64	2229.33
600.99	2222.37
601.34	2216.92
601.69	2209.93
602.04	2203.53
602.39	2196.59
602.74	2190.54
603.08	2184.98
603.43	2178.41
603.78	2171.45
604.13	2164.51
604.48	2157.29
604.83	2151.33
605.18	2145.12
605.53	2138.21
605.87	2131.13
606.22	2124.28
606.57	2116.38
606.92	2108.37
607.27	2101.35
607.62	2094.66
607.96	2087.65
608.31	2081.29
608.66	2073.50
609.01	2065.97
609.36	2058.92
609.70	2051.51
610.05	2043.68
610.40	2035.43
610.75	2027.03
611.10	2019.27
611.44	2010.20
611.79	2001.50
612.14	1991.43
612.49	1980.84
612.83	1971.48
613.18	1962.22
613.53	1952.90
613.88	1943.36
614.22	1934.73
614.57	1924.94
614.92	1914.30
615.27	1904.02
615.61	1893.95
615.96	1884.22
616.31	1874.46
616.65	1864.95
617.00	1855.28
617.35	1845.75
617.70	1835.99
618.04	1826.12
618.39	1816.06
618.74	1806.51
619.08	1796.97
619.43	1788.35
619.78	1780.23
620.12	1771.63
620.47	1762.16
620.82	1751.93
621.16	1742.21
621.51	1732.50
621.85	1722.66
622.20	1712.56
622.55	1702.14
622.89	1692.33
623.24	1682.93
623.59	1673.28
623.93	1663.26
624.28	1653.46
624.62	1643.39
624.97	1633.28
625.32	1623.58
625.66	1614.83
626.01	1606.25
626.35	1596.94
626.70	1587.03
627.04	1577.02
627.39	1567.02
627.73	1557.89
628.08	1549.12
628.43	1539.71
628.77	1530.54
629.12	1521.79
629.46	1514.07
629.81	1505.84
630.15	1496.51
630.50	1486.71
630.84	1476.25
631.19	1466.43
631.53	1457.30
631.88	1447.26
632.22	1437.29
632.57	1427.97
632.91	1418.02
633.26	1408.21
633.60	1398.68
633.95	1389.48
634.29	1379.98
634.64	1370.76
634.98	1360.84
635.32	1351.66
635.67	1343.23
636.01	1333.91
636.36	1324.32
636.70	1314.66
637.05	1305.38
637.39	1296.38
637.73	1287.74
638.08	1280.35
638.42	1272.34
638.77	1263.54
639.11	1255.27
639.45	1247.63
639.80	1239.21
640.14	1230.37
640.49	1221.63
640.83	1212.93
641.17	1204.79
641.52	1196.73
641.86	1188.24
642.20	1180.40
642.55	1171.73
642.89	1162.92
643.23	1154.48
643.58	1146.47
643.92	1137.65
644.26	1128.94
644.61	1120.73
644.95	1111.99
645.29	1102.81
645.64	1093.71
645.98	1085.25
646.32	1077.51
646.66	1069.01
647.01	1060.70
647.35	1052.78
647.69	1044.45
648.04	1036.28
648.38	1027.56
648.72	1018.93
649.06	1010.62
649.41	1002.55
649.75	994.74
650.09	986.95
650.43	978.92
650.78	970.54
651.12	962.84
651.46	955.56
651.80	948.30
652.14	941.09
652.49	933.69
652.83	926.37
653.17	918.80
653.51	911.20
653.85	903.99
654.20	896.78
654.54	889.42
654.88	882.26
655.22	875.07
655.56	868.02
655.90	861.30
656.25	854.63
656.59	847.81
656.93	840.84
657.27	833.72
657.61	826.84
657.95	820.77
658.29	814.87
658.64	808.70
658.98	802.28
659.32	795.80
659.66	789.51
660.00	783.25
660.34	777.22
660.68	771.10
661.02	764.71
661.36	758.82
661.70	752.96
662.05	747.34
662.39	741.89
662.73	736.49
663.07	731.07
663.41	725.43
663.75	719.63
664.09	713.87
664.43	708.46
664.77	703.10
665.11	697.29
665.45	691.39
665.79	685.60
666.13	679.94
666.47	674.42
666.81	668.96
667.15	663.56
667.49	658.36
667.83	653.12
668.17	647.90
668.51	642.78
668.85	637.88
669.19	632.96
669.53	627.86
669.87	622.70
670.21	617.91
670.55	613.15
670.89	608.78
671.23	604.45
671.57	600.05
671.91	595.73
672.25	591.55
672.58	587.45
672.92	583.35
673.26	579.36
673.60	575.43
673.94	571.62
674.28	567.96
674.62	564.18
674.96	560.42
675.30	556.90
675.64	553.20
675.97	549.55
676.31	545.97
676.65	542.37
676.99	538.99
677.33	535.15
677.67	531.50
678.01	527.62
678.34	524.02
678.68	520.54
679.02	516.93
679.36	513.25
679.70	509.57
680.04	506.00
680.37	502.56
680.71	499.21
681.05	496.01
681.39	492.80
681.73	489.62
682.06	486.60
682.40	483.54
682.74	480.31
683.08	477.06
683.42	473.78
683.75	470.74
684.09	467.65
684.43	464.79
684.77	461.91
685.10	459.03
685.44	456.10
685.78	453.14
686.12	450.30
686.45	447.56
686.79	444.90
687.13	442.38
687.46	439.73
687.80	437.12
688.14	434.23
688.48	431.49
688.81	428.76
689.15	426.06
689.49	423.41
689.82	420.83
690.16	418.20
690.50	415.77
690.83	413.27
691.17	410.76
691.51	408.27
691.84	405.92
692.18	403.65
692.52	401.40
692.85	399.24
693.19	397.11
693.52	394.92
693.86	392.63
694.20	390.38
694.53	388.21
694.87	385.92
695.21	383.80
695.54	381.66
695.88	379.46
696.21	377.26
696.55	375.09
696.88	373.06
697.22	371.08
697.56	369.09
697.89	367.11
698.23	365.32
698.56	363.54
698.90	361.76
699.23	359.84
699.57	357.97
699.90	356.03
700.24	354.21
700.58	352.44
700.91	350.75
701.25	349.18
701.58	347.51
701.92	345.91
702.25	344.25
702.59	342.59
702.92	341.07
703.26	339.55
703.59	338.08
703.93	336.76
704.26	335.29
704.60	333.77
704.93	332.30
705.26	330.76
705.60	329.26
705.93	327.70
706.27	326.40
706.60	325.09
706.94	323.83
707.27	322.42
707.61	321.06
707.94	319.70
708.27	318.16
708.61	316.68
708.94	315.32
709.28	314.06
709.61	312.75
709.94	311.50
710.28	310.23
710.61	309.03
710.95	307.56
711.28	306.47
711.61	305.26
711.95	304.09
712.28	302.86
712.61	301.65
712.95	300.61
713.28	299.52
713.61	298.36
713.95	297.19
714.28	296.15
714.61	295.08
714.95	294.06
715.28	293.04
715.61	292.02
715.95	291.02
716.28	290.03
716.61	289.08
716.95	288.09
717.28	287.12
717.61	286.15
717.94	285.27
718.28	284.20
718.61	283.34
718.94	282.45
719.27	281.61
719.61	280.76
719.94	279.90
720.27	278.94
720.60	278.09
720.94	277.28
721.27	276.48
721.60	275.80
721.93	275.04
722.27	274.42
722.60	273.75
722.93	273.02
723.26	272.32
723.59	271.62
723.93	270.94
724.26	270.29
724.59	269.61
724.92	269.00
725.25	268.47
725.59	267.92
725.92	267.35
726.25	266.79
726.58	266.17
726.91	265.53
727.24	264.97
727.57	264.36
727.91	263.72
728.24	263.18
728.57	262.51
728.90	261.95
729.23	261.29
729.56	260.85
729.89	260.33
730.22	259.75
730.55	259.23
730.89	258.70
731.22	258.13
731.55	257.60
731.88	257.08
732.21	256.49
732.54	255.91
732.87	255.37
733.20	254.86
733.53	254.41
733.86	253.99
734.19	253.48
734.52	253.06
734.85	252.82
735.18	252.32
735.51	251.98
735.84	251.56
736.17	251.18
736.50	250.62
736.83	250.45
737.16	250.04
737.49	249.61
737.82	249.20
738.15	248.85
738.48	248.47
738.81	248.05
739.14	247.66
739.47	247.26
739.80	246.90
740.13	246.55
740.46	246.15
740.79	245.71
741.12	245.35
741.45	244.96
741.78	244.48
742.11	244.22
742.44	243.79
742.77	243.48
743.10	243.12
743.43	242.77
743.75	242.17
744.08	242.12
744.41	241.76
744.74	241.42
745.07	241.04
745.40	240.77
745.73	240.53
746.06	240.20
746.39	239.89
746.71	239.55
747.04	239.18
747.37	238.85
747.70	238.61
748.03	238.31
748.36	238.02
748.68	237.67
749.01	237.30
749.34	237.06
749.67	236.72
750.00	236.44
750.33	236.34
750.65	236.13
750.98	235.57
751.31	235.33
751.64	235.12
751.97	234.99
752.29	234.70
752.62	234.36
752.95	234.12
753.28	233.87
753.60	233.61
753.93	233.43
754.26	233.24
754.59	232.96
754.91	232.73
755.24	232.50
755.57	232.29
755.90	232.06
756.22	231.76
756.55	231.53
756.88	231.29
757.20	230.93
757.53	230.66
757.86	230.44
758.19	230.22
758.51	230.00
758.84	229.67
759.17	229.49
759.49	229.32
759.82	229.22
760.15	229.02
760.47	228.84
760.80	228.57
761.13	228.38
761.45	228.12
761.78	227.97
762.11	227.79
762.43	227.62
762.76	227.45
763.08	227.32
763.41	227.12
763.74	226.96
764.06	226.81
764.39	226.65
764.71	226.51
765.04	226.37
765.37	226.18
765.69	226.05
766.02	225.89
766.34	225.74
766.67	225.52
767.00	225.41
767.32	225.41
767.65	225.45
767.97	225.31
768.30	225.25
768.62	225.10
768.95	224.94
769.27	224.82
769.60	224.73
769.92	224.60
770.25	224.47
770.57	224.30
770.90	224.16
771.22	223.99
771.55	223.90
771.87	223.79
772.20	223.69
772.52	223.72
772.85	223.86
773.17	223.74
773.50	223.60
773.82	223.50
774.15	223.26
774.47	222.97
774.80	222.84
775.12	222.71
775.45	222.61
775.77	222.52
776.09	222.45
776.42	222.36
776.74	222.32
777.07	222.21
777.39	222.16
777.72	222.09
778.04	222.07
778.36	221.95
778.69	221.86
779.01	221.79
779.33	221.54
779.66	221.23
779.98	221.14
780.31	221.14
780.63	221.12
780.95	221.10
781.28	221.09
781.60	221.01
781.92	220.97
782.25	220.92
782.57	220.85
782.89	220.73
783.22	220.64
783.54	220.53
783.86	220.51
784.19	220.39
784.51	220.38
784.83	220.29
785.16	220.22
785.48	220.15
785.80	220.05
786.12	220.05
786.45	219.97
786.77	219.91
787.09	219.82
787.42	219.69
787.74	219.66
788.06	219.57
788.38	219.50
788.71	219.42
789.03	219.36
789.35	219.33
789.67	219.30
789.99	219.25
790.32	219.18
790.64	219.15
790.96	219.31
791.28	219.19
791.61	219.12
791.93	219.08
792.25	219.05
792.57	219.15
792.89	219.02
793.21	218.98
793.54	218.92
793.86	218.84
794.18	218.82
794.50	218.74
794.82	218.70
795.14	218.68
795.47	218.68
795.79	218.63
796.11	218.52
796.43	218.46
796.75	218.42
797.07	218.38
797.39	218.28
797.71	218.03
798.04	217.96
798.36	217.94
798.68	217.92
799.00	217.89
799.32	217.79
799.64	217.76
799.96	217.71
800.28	217.73
800.60	217.67
800.92	217.63
801.24	217.57
801.56	217.54
801.89	217.51
802.21	217.49
802.53	217.43
802.85	217.46
803.17	217.54
803.49	217.49
803.81	217.43
804.13	217.41
804.45	217.37
804.77	217.36
805.09	217.32
805.41	217.27
805.73	217.20
806.05	217.09
806.37	217.08
806.69	217.06
807.01	216.97
807.33	216.98
807.65	216.89
807.97	216.94
808.28	216.92
808.60	216.84
808.92	216.75
809.24	216.85
809.56	216.76
809.88	216.61
810.20	216.56
810.52	216.62
810.84	216.57
811.16	216.54
811.48	216.50
811.80	216.54
812.12	216.52
812.43	216.53
812.75	216.52
813.07	216.48
813.39	216.45
813.71	216.39
814.03	216.36
814.35	216.33
814.67	216.24
814.98	216.18
815.30	216.20
815.62	216.16
815.94	216.01
816.26	216.00
816.58	215.96
816.89	216.00
817.21	215.91
817.53	215.93
817.85	215.90
818.17	215.88
818.48	215.78
818.80	215.79
819.12	215.77
819.44	215.74
819.76	215.72
820.07	215.69
820.39	215.68
820.71	215.70
821.03	215.70
821.34	215.67
821.66	215.70
821.98	215.65
822.30	215.62
822.61	215.70
822.93	215.67
823.25	215.66
823.57	215.60
823.88	215.65
824.20	215.63
824.52	215.62
824.83	215.62
825.15	215.58
825.47	215.56
825.79	215.55
826.10	215.49
826.42	215.47
826.74	215.50
827.05	215.50
827.37	215.47
827.69	215.43
828.00	215.44
828.32	215.39
828.64	215.40
828.95	215.49
829.27	215.43
829.58	215.42
829.90	215.45
830.22	215.44
830.53	215.32
830.85	215.27
831.17	215.26
831.48	215.26
831.80	215.24
832.11	215.18
832.43	215.16
832.75	215.18
833.06	215.28
833.38	215.16
833.69	215.12
834.01	215.10
834.32	215.11
834.64	215.07
834.96	215.08
835.27	215.03
835.59	214.95
835.90	214.93
836.22	214.92
836.53	214.85
836.85	214.82
837.16	215.04
837.48	215.09
837.79	215.14
838.11	215.16
838.42	215.17
838.74	215.20
839.05	215.15
839.37	215.10
839.68	214.95
840.00	214.95
840.31	215.01
840.63	215.01
840.94	214.98
841.26	214.95
841.57	214.93
841.88	214.98
842.20	214.92
842.51	214.90
842.83	214.92
843.14	215.12
843.46	215.14
843.77	215.03
844.08	214.97
844.40	214.91
844.71	214.84
845.03	214.83
845.34	214.78
845.65	214.77
845.97	214.80
846.28	214.83
846.60	214.88
846.91	214.84
847.22	214.82
847.54	214.83
847.85	214.89
848.16	214.87
848.48	214.83
848.79	214.91
849.10	214.93
849.42	214.88
849.73	214.67
850.04	214.64
850.36	214.55
850.67	214.59
850.98	214.58
851.30	214.60
851.61	214.59
851.92	214.59
852.23	214.67
852.55	214.68
852.86	214.69
853.17	214.68
853.49	214.70
853.80	214.72
854.11	214.76
854.42	214.73
854.74	214.71
855.05	214.72
855.36	214.64
855.67	214.64
855.99	214.65
856.30	214.87
856.61	214.88
856.92	214.88
857.23	214.85
857.55	214.83
857.86	214.84
858.17	214.86
858.48	214.86
858.79	214.79
859.11	214.79
859.42	214.75
859.73	214.71
860.04	214.70
860.35	214.63
860.66	214.54
860.98	214.53
861.29	214.55
861.60	214.52
861.91	214.59
862.22	214.52
862.53	214.49
862.84	214.27
863.16	214.28
863.47	214.27
863.78	214.26
864.09	214.27
864.40	214.29
864.71	214.28
865.02	214.27
865.33	214.26
865.64	214.22
865.95	214.21
866.27	214.36
866.58	214.33
866.89	214.37
867.20	214.37
867.51	214.32
867.82	214.33
868.13	214.40
868.44	214.34
868.75	214.38
869.06	214.42
869.37	214.44
869.68	214.39
869.99	214.42
870.30	214.40
870.61	214.41
870.92	214.38
871.23	214.37
871.54	214.40
871.85	214.46
872.16	214.50
872.47	214.51
872.78	214.37
873.09	214.39
873.40	214.35
873.71	214.39
874.02	214.43
874.33	214.40
874.64	214.32
874.95	214.35
875.26	214.28
875.56	214.28
875.87	214.26
876.18	214.25
876.49	214.44
876.80	214.43
877.11	214.41
877.42	214.41
877.73	214.41
878.04	214.39
878.35	214.35
878.66	214.33
878.96	214.34
879.27	214.33
879.58	214.32
879.89	214.33
880.20	214.35
880.51	214.33
880.82	214.29
881.12	214.30
881.43	214.26
881.74	214.27
882.05	214.23
882.36	214.23
882.67	214.23
882.97	214.00
883.28	213.99
883.59	213.97
883.90	213.98
884.21	213.98
884.51	213.96
884.82	213.90
885.13	213.91
885.44	213.88
885.74	213.88
886.05	213.83
886.36	213.80
886.67	213.74
886.98	213.84
887.28	213.88
887.59	213.90
887.90	213.87
888.20	213.86
888.51	213.91
888.82	213.89
889.13	213.91
889.43	214.08
889.74	214.06
890.05	214.09
890.35	214.09
890.66	214.07
890.97	214.05
891.28	214.03
891.58	214.04
891.89	214.01
892.20	214.00
892.50	213.98
892.81	214.00
893.12	214.00
893.42	213.90
893.73	213.89
894.04	213.88
894.34	213.93
894.65	213.95
894.95	213.89
895.26	213.90
895.57	214.01
895.87	213.82
896.18	213.88
896.48	213.84
896.79	213.82
897.10	213.82
897.40	213.85
897.71	213.92
898.01	213.90
898.32	213.94
898.63	213.94
898.93	213.95
899.24	213.96
899.54	213.95
899.85	213.92
900.15	213.93
900.46	213.92
900.76	213.90
901.07	213.90
901.38	213.90
901.68	213.93
901.99	213.80
902.29	213.81
902.60	213.78
902.90	213.79
903.21	213.80
903.51	213.83
903.82	213.89
904.12	213.88
904.43	213.86
904.73	213.88
905.03	213.88
905.34	214.09
905.64	214.06
905.95	214.07
906.25	214.10
906.56	214.11
906.86	214.14
907.17	214.11
907.47	214.14
907.77	214.14
908.08	214.09
908.38	214.13
908.69	214.14
908.99	214.16
909.30	214.19
909.60	214.18
909.90	214.18
910.21	214.10
910.51	214.08
910.81	214.09
911.12	214.09
911.42	214.12
911.73	213.94
912.03	213.96
912.33	214.01
912.64	213.99
912.94	213.95
913.24	213.90
913.55	213.93
913.85	213.91
914.15	213.94
914.46	213.97
914.76	213.94
915.06	213.94
915.37	213.91
915.67	213.88
915.97	213.89
916.27	213.86
916.58	213.88
916.88	213.90
917.18	213.91
917.49	214.02
917.79	214.01
918.09	214.03
918.39	214.07
918.70	214.06
919.00	214.07
919.30	214.18
919.60	214.18
919.91	214.16
920.21	214.18
920.51	214.16
920.81	214.12
921.12	214.16
921.42	214.15
921.72	214.17
922.02	214.21
922.32	214.21
922.63	214.20
922.93	214.30
923.23	214.28
923.53	214.26
923.83	214.15
924.13	214.17
924.44	214.15
924.74	214.22
925.04	214.26
925.34	214.26
925.64	214.16
925.94	214.17
926.24	214.29
926.55	214.27
926.85	214.27
927.15	214.27
927.45	214.27
927.75	214.26
928.05	214.25
928.35	214.23
928.65	214.27
928.95	214.28
929.26	214.22
929.56	214.26
929.86	214.28
930.16	214.27
930.46	214.23
930.76	214.23
931.06	214.11
931.36	214.03
931.66	214.07
931.96	214.07
932.26	214.08
932.56	213.97
932.86	213.97
933.16	213.96
933.46	213.94
933.76	213.94
934.06	213.98
934.36	214.03
934.66	214.05
934.96	214.00
935.26	214.00
935.56	214.00
935.86	213.94
936.16	213.92
936.46	213.90
936.76	213.92
937.06	213.89
937.36	213.92
937.66	213.91
937.96	213.89
938.26	213.85
938.56	213.82
938.86	213.84
939.16	213.88
939.46	213.92
939.76	213.95
940.06	213.91
940.35	213.89
940.65	213.79
940.95	213.77
941.25	213.72
941.55	213.68
941.85	213.69
942.15	213.74
942.45	213.81
942.75	213.82
943.04	213.81
943.34	213.83
943.64	213.77
943.94	213.77
944.24	213.76
944.54	213.81
944.84	213.82
945.13	213.80
945.43	213.79
945.73	213.78
946.03	213.74
946.33	213.71
946.62	213.66
946.92	213.67
947.22	213.70
947.52	213.74
947.82	213.79
948.11	213.74
948.41	213.70
948.71	213.61
949.01	213.58
949.31	213.57
949.60	213.58
949.90	213.65
950.20	213.66
950.50	213.65
950.79	213.63
951.09	213.67
951.39	213.65
951.69	213.59
951.98	213.63
952.28	213.67
952.58	213.69
952.87	213.69
953.17	213.73
953.47	213.72
953.76	213.71
954.06	213.63
954.36	213.63
954.66	213.64
954.95	213.71
955.25	213.73
955.55	213.72
955.84	213.67
956.14	213.65
956.44	213.67
956.73	213.63
957.03	213.62
957.32	213.59
957.62	213.60
957.92	213.63
958.21	213.62
958.51	213.87
958.81	213.90
959.10	213.91
959.40	213.97
959.69	213.96
959.99	213.99
960.29	214.02
960.58	214.00
960.88	214.04
961.17	214.02
961.47	214.01
961.76	214.02
962.06	214.09
962.36	214.06
962.65	214.07
962.95	214.10
963.24	214.11
963.54	214.12
963.83	214.12
964.13	214.14
964.42	214.08
964.72	213.91
965.01	213.93
965.31	213.93
965.60	213.84
965.90	213.96
966.19	213.91
966.49	213.89
966.78	213.89
967.08	213.89
967.37	213.89
967.67	213.87
967.96	213.91
968.26	213.88
968.55	213.87
968.85	213.87
969.14	213.84
969.43	213.83
969.73	213.84
970.02	213.83
970.32	213.81
970.61	213.81
970.91	213.74
971.20	213.67
971.49	213.64
971.79	213.66
972.08	213.51
972.38	213.53
972.67	213.56
972.96	213.59
973.26	213.54
973.55	213.61
973.85	213.59
974.14	213.58
974.43	213.57
974.73	213.54
975.02	213.49
975.31	213.49
975.61	213.50
975.90	213.45
976.19	213.46
976.49	213.45
976.78	213.47
977.07	213.45
977.37	213.48
977.66	213.52
977.95	213.48
978.24	213.50
978.54	213.55
978.83	213.51
979.12	213.51
979.42	213.51
979.71	213.47
980.00	213.49
980.29	213.48
980.59	213.47
980.88	213.57
981.17	213.57
981.46	213.57
981.76	213.56
982.05	213.63
982.34	213.64
982.63	213.66
982.93	213.62
983.22	213.70
983.51	213.71
983.80	213.75
984.09	213.79
984.39	213.79
984.68	213.77
984.97	213.77
985.26	213.73
985.55	213.75
985.85	213.68
986.14	213.73
986.43	213.74
986.72	213.76
987.01	213.67
987.30	213.70
987.59	213.70
987.89	213.72
988.18	213.67
988.47	213.67
988.76	213.64
989.05	213.66
989.34	213.60
989.63	213.65
989.92	213.60
990.22	213.54
990.51	213.52
990.80	213.49
991.09	213.53
991.38	213.57
991.67	213.52
991.96	213.52
992.25	213.51
992.54	213.51
992.83	213.48
993.12	213.47
993.41	213.51
993.70	213.58
993.99	213.61
994.28	213.62
994.58	213.63
994.87	213.59
995.16	213.58
995.45	213.59
995.74	213.53
996.03	213.57
996.32	213.59
996.61	213.65
996.90	213.66
997.19	213.65
997.48	213.65
997.77	213.65
998.06	213.69
998.34	213.66
998.63	213.65
998.92	213.68
999.21	213.73
999.50	213.71
999.79	213.65
1000.08	213.63
1000.37	213.66
1000.66	213.64
1000.95	213.72
1001.24	213.74
1001.53	213.73
1001.82	213.73
1002.11	213.66
1002.40	213.69
1002.68	213.74
1002.97	213.88
1003.26	213.86
1003.55	213.83
1003.84	213.83
1004.13	213.88
1004.42	213.88
1004.71	213.84
1004.99	213.81
1005.28	213.83
1005.57	213.79
1005.86	213.78
1006.15	213.76
1006.44	213.68
1006.72	213.70
1007.01	213.67
1007.30	213.67
1007.59	213.65
1007.88	213.63
1008.17	213.64
1008.45	213.60
1008.74	213.51
1009.03	213.40
1009.32	213.42
1009.60	213.39
1009.89	213.37
1010.18	213.28
1010.47	213.26
1010.76	213.29
1011.04	213.30
1011.33	213.34
1011.62	213.37
1011.91	213.38
1012.19	213.41
1012.48	213.47
1012.77	213.47
1013.05	213.56
1013.34	213.58
1013.63	213.59
1013.92	213.58
1014.20	213.59
1014.49	213.59
1014.78	213.64
1015.06	213.58
1015.35	213.56
1015.64	213.65
1015.92	213.69
1016.21	213.72
1016.50	213.75
1016.78	213.78
1017.07	213.80
1017.36	213.73
1017.64	213.68
1017.93	213.73
1018.22	213.68
1018.50	213.67
1018.79	213.66
1019.08	213.55
1019.36	213.56
1019.65	213.54
1019.93	213.61
1020.22	213.63
1020.51	213.75
1020.79	213.69
1021.08	213.29
1021.36	213.12
1021.65	213.56
1021.94	213.40
1022.22	214.13
1022.51	213.36
1022.79	214.29
1023.08	213.75
1023.36	215.97
1023.65	212.86
>>>>>End Processed Spectral Data<<<<<
