SpectraSuite Data File
++++++++++++++++++++++++++++++++++++
Date: Tue Jan 29 16:50:40 EST 2013
User: group
Dark Spectrum Present: No
Reference Spectrum Present: No
Number of Sampled Component Spectra: 1
Spectrometers: USB2E7196
Integration Time (usec): 65000 (USB2E7196)
Spectra Averaged: 100 (USB2E7196)
Boxcar Smoothing: 10 (USB2E7196)
Correct for Electrical Dark: No (USB2E7196)
Strobe/Lamp Enabled: No (USB2E7196)
Correct for Detector Non-linearity: No (USB2E7196)
Correct for Stray Light: No (USB2E7196)
Number of Pixels in Processed Spectrum: 2048
>>>>>Begin Processed Spectral Data<<<<<
339.09	0.00
339.48	201.49
339.86	203.09
340.24	204.78
340.63	205.88
341.01	210.30
341.39	208.62
341.78	209.96
342.16	211.58
342.54	211.23
342.93	200.84
343.31	210.99
343.69	211.53
344.07	211.99
344.46	212.44
344.84	212.82
345.22	212.99
345.60	213.23
345.99	213.41
346.37	213.54
346.75	213.65
347.13	213.69
347.52	213.73
347.90	213.80
348.28	213.81
348.66	213.89
349.05	213.81
349.43	213.84
349.81	213.90
350.19	213.93
350.57	214.01
350.96	214.09
351.34	214.17
351.72	214.24
352.10	214.35
352.48	214.40
352.87	214.44
353.25	214.51
353.63	214.57
354.01	214.65
354.39	214.70
354.77	214.78
355.15	214.92
355.54	214.99
355.92	215.00
356.30	215.10
356.68	215.30
357.06	215.42
357.44	215.44
357.82	215.52
358.20	215.62
358.58	215.68
358.97	215.69
359.35	215.82
359.73	215.96
360.11	216.01
360.49	216.06
360.87	216.13
361.25	216.18
361.63	216.31
362.01	216.33
362.39	216.36
362.77	216.43
363.15	216.45
363.53	216.48
363.91	216.56
364.29	216.61
364.67	216.45
365.05	216.48
365.43	216.55
365.81	216.58
366.19	216.67
366.57	216.77
366.95	216.81
367.33	216.74
367.71	216.74
368.09	216.78
368.47	216.75
368.85	216.77
369.23	216.82
369.61	216.75
369.99	216.83
370.37	216.88
370.75	216.95
371.13	216.89
371.51	216.85
371.89	216.84
372.27	216.85
372.65	216.82
373.03	216.80
373.41	216.75
373.78	216.74
374.16	216.62
374.54	216.53
374.92	216.49
375.30	216.48
375.68	216.38
376.06	216.35
376.44	216.34
376.82	216.30
377.19	216.27
377.57	216.23
377.95	216.12
378.33	216.06
378.71	215.90
379.09	215.91
379.47	215.94
379.84	215.89
380.22	215.79
380.60	215.73
380.98	215.69
381.36	215.65
381.73	215.52
382.11	215.53
382.49	215.51
382.87	215.45
383.25	215.40
383.62	215.65
384.00	215.58
384.38	215.56
384.76	215.59
385.13	215.60
385.51	215.57
385.89	215.53
386.27	215.53
386.64	215.57
387.02	215.53
387.40	215.44
387.78	215.41
388.15	215.43
388.53	215.38
388.91	215.33
389.29	215.29
389.66	215.35
390.04	215.31
390.42	215.31
390.79	215.32
391.17	215.29
391.55	215.03
391.92	215.03
392.30	215.00
392.68	214.95
393.05	214.92
393.43	214.92
393.81	214.94
394.18	214.89
394.56	214.87
394.94	214.91
395.31	214.92
395.69	215.01
396.06	215.02
396.44	215.05
396.82	215.07
397.19	215.20
397.57	215.16
397.95	215.20
398.32	215.15
398.70	215.20
399.07	215.29
399.45	215.33
399.82	215.37
400.20	215.41
400.58	215.49
400.95	215.48
401.33	215.56
401.70	215.75
402.08	215.85
402.45	215.95
402.83	216.05
403.20	216.14
403.58	216.20
403.95	216.36
404.33	216.51
404.71	216.66
405.08	216.91
405.46	217.13
405.83	217.31
406.21	217.53
406.58	217.73
406.96	217.94
407.33	218.19
407.70	218.48
408.08	218.95
408.45	219.26
408.83	219.65
409.20	220.00
409.58	220.25
409.95	220.68
410.33	221.12
410.70	221.58
411.08	222.14
411.45	222.73
411.82	223.31
412.20	224.03
412.57	224.86
412.95	225.44
413.32	226.27
413.69	227.15
414.07	228.09
414.44	229.10
414.82	230.17
415.19	231.40
415.56	232.61
415.94	233.81
416.31	235.27
416.68	236.69
417.06	238.30
417.43	239.91
417.81	241.67
418.18	243.50
418.55	245.44
418.93	247.47
419.30	249.59
419.67	251.86
420.04	254.13
420.42	256.52
420.79	259.37
421.16	262.17
421.54	265.06
421.91	268.06
422.28	271.18
422.66	274.45
423.03	277.68
423.40	281.07
423.77	284.64
424.15	288.32
424.52	292.17
424.89	296.41
425.26	300.51
425.64	304.41
426.01	308.71
426.38	313.25
426.75	317.82
427.13	322.55
427.50	327.54
427.87	332.76
428.24	337.99
428.61	342.97
428.99	348.56
429.36	354.61
429.73	360.51
430.10	366.36
430.47	372.49
430.85	378.82
431.22	385.56
431.59	392.72
431.96	399.51
432.33	407.07
432.70	414.26
433.08	422.80
433.45	430.89
433.82	438.92
434.19	447.80
434.56	456.54
434.93	464.93
435.30	473.20
435.68	482.40
436.05	491.44
436.42	500.43
436.79	508.55
437.16	517.34
437.53	526.63
437.90	535.90
438.27	544.88
438.64	554.19
439.01	562.76
439.38	570.32
439.75	577.68
440.13	586.15
440.50	594.19
440.87	600.68
441.24	607.35
441.61	614.73
441.98	620.13
442.35	626.48
442.72	632.83
443.09	638.97
443.46	642.67
443.83	645.17
444.20	647.30
444.57	650.48
444.94	651.89
445.31	653.38
445.68	654.75
446.05	655.35
446.42	654.56
446.79	653.65
447.16	652.62
447.53	651.98
447.90	648.59
448.27	645.32
448.64	640.69
449.01	637.39
449.37	631.47
449.74	625.83
450.11	618.95
450.48	611.55
450.85	604.06
451.22	597.59
451.59	591.46
451.96	585.71
452.33	577.82
452.70	570.74
453.07	562.22
453.43	553.58
453.80	545.32
454.17	537.24
454.54	529.63
454.91	521.44
455.28	513.35
455.65	505.91
456.02	498.35
456.38	491.95
456.75	484.00
457.12	477.42
457.49	470.89
457.86	464.66
458.23	459.24
458.59	453.22
458.96	447.19
459.33	441.84
459.70	436.37
460.07	432.10
460.43	427.21
460.80	422.62
461.17	418.62
461.54	414.35
461.91	410.29
462.27	406.14
462.64	402.61
463.01	398.83
463.38	395.15
463.74	391.41
464.11	388.14
464.48	385.31
464.85	382.18
465.21	379.72
465.58	377.06
465.95	373.92
466.32	371.35
466.68	368.70
467.05	366.11
467.42	363.56
467.78	360.86
468.15	358.29
468.52	356.35
468.88	353.78
469.25	351.53
469.62	349.74
469.98	347.80
470.35	345.99
470.72	344.23
471.08	342.39
471.45	340.86
471.82	339.30
472.18	337.61
472.55	336.39
472.92	334.94
473.28	333.70
473.65	332.48
474.02	331.29
474.38	330.40
474.75	329.61
475.11	328.76
475.48	328.11
475.85	327.53
476.21	327.02
476.58	326.68
476.94	326.44
477.31	326.12
477.67	325.84
478.04	325.70
478.41	325.65
478.77	325.77
479.14	325.72
479.50	325.85
479.87	326.09
480.23	326.38
480.60	326.60
480.96	326.84
481.33	327.45
481.69	328.03
482.06	328.57
482.42	329.08
482.79	329.64
483.15	330.45
483.52	331.44
483.88	332.37
484.25	333.29
484.61	334.28
484.98	335.37
485.34	336.68
485.71	338.01
486.07	339.43
486.44	340.76
486.80	342.42
487.17	344.11
487.53	345.99
487.90	347.90
488.26	349.95
488.62	352.15
488.99	354.20
489.35	356.38
489.72	358.72
490.08	361.21
490.44	363.84
490.81	366.59
491.17	369.29
491.54	372.22
491.90	375.24
492.26	378.48
492.63	381.88
492.99	385.35
493.36	389.03
493.72	392.92
494.08	396.96
494.45	401.12
494.81	405.49
495.17	409.93
495.54	414.57
495.90	419.35
496.26	424.24
496.63	429.44
496.99	434.81
497.35	440.35
497.72	446.12
498.08	451.99
498.44	458.04
498.80	464.44
499.17	470.89
499.53	477.58
499.89	484.47
500.26	491.38
500.62	498.46
500.98	505.86
501.34	513.30
501.71	521.06
502.07	528.83
502.43	536.79
502.79	544.87
503.16	553.20
503.52	561.84
503.88	570.54
504.24	579.49
504.60	588.52
504.97	597.83
505.33	607.12
505.69	616.94
506.05	626.75
506.41	636.62
506.78	646.73
507.14	657.05
507.50	667.53
507.86	678.22
508.22	688.96
508.59	699.52
508.95	710.57
509.31	721.74
509.67	733.17
510.03	744.54
510.39	756.23
510.75	768.05
511.12	779.86
511.48	791.85
511.84	804.08
512.20	816.39
512.56	828.99
512.92	841.77
513.28	854.32
513.64	867.10
514.00	879.88
514.37	892.79
514.73	905.85
515.09	918.77
515.45	931.77
515.81	944.83
516.17	958.34
516.53	971.58
516.89	984.81
517.25	997.98
517.61	1011.51
517.97	1024.99
518.33	1038.20
518.69	1051.78
519.05	1065.65
519.41	1079.35
519.77	1093.16
520.13	1106.50
520.49	1119.66
520.85	1133.16
521.21	1146.43
521.57	1160.19
521.93	1173.25
522.29	1186.91
522.65	1200.59
523.01	1214.21
523.37	1227.36
523.73	1240.60
524.09	1253.82
524.45	1267.29
524.81	1280.80
525.17	1294.19
525.53	1307.40
525.89	1320.72
526.25	1333.95
526.61	1346.89
526.97	1360.02
527.33	1373.14
527.68	1386.56
528.04	1400.17
528.40	1413.26
528.76	1426.73
529.12	1439.52
529.48	1452.91
529.84	1465.28
530.20	1478.07
530.56	1490.57
530.91	1503.91
531.27	1516.88
531.63	1529.52
531.99	1542.21
532.35	1554.58
532.71	1567.06
533.07	1580.09
533.42	1592.40
533.78	1604.52
534.14	1616.47
534.50	1627.74
534.86	1639.45
535.21	1650.48
535.57	1662.03
535.93	1673.35
536.29	1684.40
536.65	1696.11
537.00	1707.24
537.36	1718.72
537.72	1729.75
538.08	1741.32
538.44	1752.40
538.79	1763.71
539.15	1774.90
539.51	1785.78
539.87	1797.18
540.22	1808.05
540.58	1818.99
540.94	1829.93
541.29	1840.38
541.65	1850.42
542.01	1861.04
542.37	1871.16
542.72	1881.27
543.08	1891.16
543.44	1901.88
543.79	1911.28
544.15	1920.71
544.51	1930.70
544.87	1940.63
545.22	1950.01
545.58	1958.92
545.94	1968.00
546.29	1976.51
546.65	1984.87
547.01	1993.18
547.36	2000.83
547.72	2008.74
548.07	2016.42
548.43	2024.28
548.79	2032.06
549.14	2040.19
549.50	2048.74
549.86	2056.79
550.21	2064.40
550.57	2072.14
550.92	2078.98
551.28	2086.53
551.64	2093.87
551.99	2101.35
552.35	2108.57
552.70	2115.52
553.06	2122.33
553.41	2128.52
553.77	2134.97
554.13	2141.37
554.48	2148.44
554.84	2155.64
555.19	2162.09
555.55	2168.52
555.90	2174.76
556.26	2181.72
556.61	2187.85
556.97	2192.64
557.32	2198.15
557.68	2204.41
558.03	2210.13
558.39	2215.44
558.74	2221.50
559.10	2226.95
559.45	2232.58
559.81	2238.07
560.16	2243.44
560.52	2249.15
560.87	2255.46
561.23	2261.35
561.58	2267.97
561.94	2273.13
562.29	2277.68
562.64	2283.75
563.00	2289.22
563.35	2294.78
563.71	2300.19
564.06	2305.68
564.42	2311.68
564.77	2316.79
565.12	2322.15
565.48	2327.11
565.83	2332.43
566.19	2337.61
566.54	2342.88
566.89	2347.40
567.25	2352.01
567.60	2357.77
567.96	2362.80
568.31	2367.48
568.66	2371.67
569.02	2375.35
569.37	2379.07
569.72	2383.27
570.08	2386.63
570.43	2389.70
570.78	2392.80
571.14	2395.37
571.49	2398.46
571.84	2401.76
572.20	2404.55
572.55	2407.38
572.90	2409.72
573.26	2412.46
573.61	2415.00
573.96	2417.13
574.31	2419.00
574.67	2420.64
575.02	2421.18
575.37	2422.46
575.72	2422.83
576.08	2424.05
576.43	2424.26
576.78	2424.35
577.13	2425.91
577.49	2426.93
577.84	2427.89
578.19	2428.83
578.54	2429.12
578.90	2429.52
579.25	2429.21
579.60	2428.81
579.95	2427.71
580.30	2427.32
580.66	2426.49
581.01	2424.64
581.36	2421.92
581.71	2420.37
582.06	2419.06
582.42	2417.97
582.77	2415.56
583.12	2413.90
583.47	2412.32
583.82	2411.52
584.17	2410.17
584.53	2407.77
584.88	2405.49
585.23	2403.37
585.58	2400.98
585.93	2398.93
586.28	2396.63
586.63	2393.91
586.98	2391.68
587.34	2389.52
587.69	2387.14
588.04	2384.80
588.39	2383.18
588.74	2380.74
589.09	2377.84
589.44	2374.43
589.79	2371.88
590.14	2369.74
590.49	2366.50
590.84	2362.45
591.19	2358.99
591.54	2355.62
591.89	2351.62
592.25	2348.21
592.60	2343.91
592.95	2339.66
593.30	2335.39
593.65	2330.82
594.00	2326.38
594.35	2323.31
594.70	2318.69
595.05	2314.02
595.40	2308.53
595.75	2302.62
596.10	2298.90
596.45	2293.97
596.80	2289.41
597.15	2284.02
597.50	2278.11
597.85	2273.15
598.19	2267.99
598.54	2262.27
598.89	2256.98
599.24	2252.15
599.59	2246.02
599.94	2240.07
600.29	2234.01
600.64	2228.07
600.99	2221.30
601.34	2215.72
601.69	2208.70
602.04	2202.21
602.39	2195.42
602.74	2189.26
603.08	2183.64
603.43	2177.01
603.78	2170.07
604.13	2162.93
604.48	2155.58
604.83	2149.49
605.18	2143.26
605.53	2136.39
605.87	2129.35
606.22	2122.48
606.57	2114.63
606.92	2106.66
607.27	2099.71
607.62	2093.10
607.96	2086.05
608.31	2079.70
608.66	2071.94
609.01	2064.13
609.36	2057.09
609.70	2049.46
610.05	2041.72
610.40	2033.50
610.75	2025.09
611.10	2017.32
611.44	2008.39
611.79	1999.89
612.14	1989.88
612.49	1979.29
612.83	1969.86
613.18	1960.46
613.53	1951.15
613.88	1941.67
614.22	1932.99
614.57	1923.19
614.92	1912.62
615.27	1902.28
615.61	1892.05
615.96	1882.53
616.31	1873.14
616.65	1863.71
617.00	1854.07
617.35	1844.49
617.70	1834.79
618.04	1825.06
618.39	1815.07
618.74	1805.50
619.08	1795.87
619.43	1787.22
619.78	1779.00
620.12	1770.50
620.47	1761.08
620.82	1750.83
621.16	1741.08
621.51	1731.28
621.85	1721.49
622.20	1711.25
622.55	1700.88
622.89	1690.99
623.24	1681.30
623.59	1671.60
623.93	1661.59
624.28	1651.87
624.62	1641.81
624.97	1631.55
625.32	1621.73
625.66	1612.86
626.01	1604.24
626.35	1595.00
626.70	1585.14
627.04	1575.14
627.39	1565.09
627.73	1556.01
628.08	1547.30
628.43	1537.95
628.77	1528.88
629.12	1520.10
629.46	1512.45
629.81	1504.21
630.15	1494.94
630.50	1485.20
630.84	1474.69
631.19	1464.91
631.53	1455.77
631.88	1445.77
632.22	1436.03
632.57	1426.72
632.91	1416.83
633.26	1406.95
633.60	1397.35
633.95	1388.14
634.29	1378.75
634.64	1369.59
634.98	1359.66
635.32	1350.40
635.67	1341.97
636.01	1332.79
636.36	1323.19
636.70	1313.73
637.05	1304.52
637.39	1295.68
637.73	1287.21
638.08	1279.71
638.42	1271.68
638.77	1262.99
639.11	1254.85
639.45	1247.14
639.80	1238.77
640.14	1230.05
640.49	1221.41
640.83	1212.72
641.17	1204.52
641.52	1196.52
641.86	1188.08
642.20	1180.43
642.55	1171.83
642.89	1163.01
643.23	1154.30
643.58	1146.23
643.92	1137.22
644.26	1128.62
644.61	1120.26
644.95	1111.50
645.29	1102.43
645.64	1093.24
645.98	1084.80
646.32	1076.92
646.66	1068.32
647.01	1060.06
647.35	1052.05
647.69	1043.77
648.04	1035.65
648.38	1026.94
648.72	1018.30
649.06	1009.88
649.41	1001.68
649.75	993.84
650.09	986.09
650.43	978.27
650.78	970.03
651.12	962.30
651.46	954.93
651.80	947.74
652.14	940.56
652.49	933.10
652.83	925.87
653.17	918.16
653.51	910.51
653.85	903.42
654.20	896.18
654.54	888.86
654.88	881.71
655.22	874.45
655.56	867.46
655.90	860.62
656.25	853.92
656.59	847.05
656.93	840.05
657.27	832.99
657.61	825.98
657.95	819.93
658.29	814.15
658.64	808.11
658.98	801.61
659.32	795.14
659.66	788.94
660.00	782.70
660.34	776.69
660.68	770.67
661.02	764.26
661.36	758.32
661.70	752.50
662.05	746.86
662.39	741.43
662.73	736.06
663.07	730.71
663.41	725.15
663.75	719.45
664.09	713.79
664.43	708.25
664.77	702.98
665.11	697.18
665.45	691.27
665.79	685.39
666.13	679.73
666.47	674.25
666.81	668.82
667.15	663.40
667.49	658.18
667.83	652.96
668.17	647.83
668.51	642.68
668.85	637.74
669.19	632.81
669.53	627.77
669.87	622.61
670.21	617.78
670.55	613.12
670.89	608.62
671.23	604.38
671.57	600.03
671.91	595.71
672.25	591.52
672.58	587.37
672.92	583.27
673.26	579.33
673.60	575.41
673.94	571.57
674.28	567.95
674.62	564.20
674.96	560.41
675.30	556.89
675.64	553.27
675.97	549.63
676.31	546.01
676.65	542.42
676.99	539.02
677.33	535.18
677.67	531.45
678.01	527.65
678.34	523.96
678.68	520.45
679.02	516.79
679.36	513.05
679.70	509.41
680.04	505.84
680.37	502.38
680.71	499.02
681.05	495.86
681.39	492.52
681.73	489.34
682.06	486.29
682.40	483.18
682.74	479.97
683.08	476.72
683.42	473.52
683.75	470.48
684.09	467.35
684.43	464.53
684.77	461.62
685.10	458.72
685.44	455.79
685.78	452.87
686.12	450.06
686.45	447.41
686.79	444.71
687.13	442.24
687.46	439.58
687.80	436.89
688.14	433.99
688.48	431.30
688.81	428.62
689.15	426.02
689.49	423.35
689.82	420.80
690.16	418.23
690.50	415.76
690.83	413.27
691.17	410.76
691.51	408.28
691.84	405.96
692.18	403.77
692.52	401.54
692.85	399.37
693.19	397.26
693.52	395.10
693.86	392.89
694.20	390.62
694.53	388.44
694.87	386.23
695.21	384.10
695.54	381.96
695.88	379.77
696.21	377.53
696.55	375.36
696.88	373.27
697.22	371.23
697.56	369.31
697.89	367.36
698.23	365.61
698.56	363.79
698.90	362.00
699.23	360.05
699.57	358.11
699.90	356.24
700.24	354.36
700.58	352.51
700.91	350.80
701.25	349.20
701.58	347.57
701.92	345.99
702.25	344.35
702.59	342.71
702.92	341.12
703.26	339.56
703.59	338.06
703.93	336.77
704.26	335.33
704.60	333.77
704.93	332.31
705.26	330.76
705.60	329.26
705.93	327.72
706.27	326.35
706.60	325.07
706.94	323.80
707.27	322.42
707.61	321.10
707.94	319.76
708.27	318.23
708.61	316.77
708.94	315.33
709.28	314.03
709.61	312.76
709.94	311.52
710.28	310.29
710.61	309.16
710.95	307.67
711.28	306.57
711.61	305.39
711.95	304.21
712.28	302.99
712.61	301.78
712.95	300.69
713.28	299.67
713.61	298.47
713.95	297.30
714.28	296.26
714.61	295.19
714.95	294.12
715.28	293.08
715.61	292.03
715.95	291.05
716.28	290.06
716.61	289.05
716.95	288.06
717.28	287.09
717.61	286.08
717.94	285.21
718.28	284.16
718.61	283.23
718.94	282.32
719.27	281.50
719.61	280.67
719.94	279.80
720.27	278.82
720.60	278.00
720.94	277.18
721.27	276.37
721.60	275.65
721.93	274.93
722.27	274.31
722.60	273.61
722.93	272.91
723.26	272.20
723.59	271.53
723.93	270.87
724.26	270.21
724.59	269.53
724.92	268.89
725.25	268.33
725.59	267.75
725.92	267.20
726.25	266.59
726.58	265.98
726.91	265.35
727.24	264.79
727.57	264.20
727.91	263.59
728.24	263.07
728.57	262.46
728.90	261.89
729.23	261.23
729.56	260.81
729.89	260.24
730.22	259.66
730.55	259.12
730.89	258.56
731.22	258.03
731.55	257.49
731.88	256.96
732.21	256.43
732.54	255.90
732.87	255.36
733.20	254.86
733.53	254.39
733.86	253.93
734.19	253.41
734.52	252.98
734.85	252.66
735.18	252.16
735.51	251.81
735.84	251.35
736.17	250.95
736.50	250.39
736.83	250.24
737.16	249.86
737.49	249.47
737.82	249.07
738.15	248.67
738.48	248.27
738.81	247.88
739.14	247.45
739.47	247.05
739.80	246.67
740.13	246.35
740.46	245.93
740.79	245.55
741.12	245.20
741.45	244.81
741.78	244.39
742.11	244.11
742.44	243.73
742.77	243.44
743.10	243.07
743.43	242.72
743.75	242.10
744.08	242.03
744.41	241.65
744.74	241.31
745.07	240.96
745.40	240.70
745.73	240.47
746.06	240.15
746.39	239.86
746.71	239.55
747.04	239.20
747.37	238.89
747.70	238.61
748.03	238.29
748.36	238.03
748.68	237.70
749.01	237.29
749.34	236.96
749.67	236.68
750.00	236.45
750.33	236.31
750.65	236.08
750.98	235.57
751.31	235.35
751.64	235.16
751.97	235.00
752.29	234.73
752.62	234.38
752.95	234.12
753.28	233.87
753.60	233.59
753.93	233.38
754.26	233.18
754.59	232.91
754.91	232.67
755.24	232.41
755.57	232.20
755.90	232.02
756.22	231.77
756.55	231.46
756.88	231.23
757.20	230.90
757.53	230.64
757.86	230.45
758.19	230.20
758.51	229.96
758.84	229.69
759.17	229.46
759.49	229.27
759.82	229.19
760.15	229.01
760.47	228.83
760.80	228.60
761.13	228.47
761.45	228.27
761.78	228.08
762.11	227.91
762.43	227.69
762.76	227.51
763.08	227.36
763.41	227.25
763.74	227.07
764.06	226.88
764.39	226.73
764.71	226.55
765.04	226.41
765.37	226.25
765.69	226.07
766.02	225.93
766.34	225.77
766.67	225.56
767.00	225.43
767.32	225.41
767.65	225.38
767.97	225.20
768.30	225.10
768.62	225.01
768.95	224.84
769.27	224.73
769.60	224.65
769.92	224.52
770.25	224.33
770.57	224.21
770.90	224.11
771.22	223.98
771.55	223.84
771.87	223.71
772.20	223.57
772.52	223.65
772.85	223.79
773.17	223.69
773.50	223.57
773.82	223.43
774.15	223.24
774.47	223.00
774.80	222.88
775.12	222.75
775.45	222.66
775.77	222.59
776.09	222.53
776.42	222.42
776.74	222.40
777.07	222.30
777.39	222.20
777.72	222.10
778.04	222.04
778.36	221.97
778.69	221.91
779.01	221.88
779.33	221.60
779.66	221.31
779.98	221.23
780.31	221.14
780.63	221.15
780.95	221.10
781.28	221.02
781.60	220.94
781.92	220.87
782.25	220.79
782.57	220.73
782.89	220.62
783.22	220.53
783.54	220.43
783.86	220.40
784.19	220.31
784.51	220.28
784.83	220.20
785.16	220.12
785.48	220.04
785.80	219.95
786.12	219.90
786.45	219.82
786.77	219.76
787.09	219.70
787.42	219.57
787.74	219.49
788.06	219.49
788.38	219.39
788.71	219.32
789.03	219.23
789.35	219.17
789.67	219.10
789.99	219.07
790.32	218.97
790.64	218.96
790.96	219.09
791.28	218.96
791.61	218.89
791.93	218.86
792.25	218.79
792.57	218.90
792.89	218.82
793.21	218.77
793.54	218.71
793.86	218.63
794.18	218.62
794.50	218.55
794.82	218.47
795.14	218.49
795.47	218.49
795.79	218.48
796.11	218.40
796.43	218.36
796.75	218.31
797.07	218.27
797.39	218.19
797.71	217.99
798.04	218.02
798.36	218.02
798.68	217.95
799.00	217.95
799.32	217.79
799.64	217.79
799.96	217.76
800.28	217.74
800.60	217.72
800.92	217.72
801.24	217.67
801.56	217.65
801.89	217.58
802.21	217.56
802.53	217.51
802.85	217.54
803.17	217.62
803.49	217.54
803.81	217.50
804.13	217.49
804.45	217.42
804.77	217.41
805.09	217.38
805.41	217.36
805.73	217.30
806.05	217.19
806.37	217.15
806.69	217.09
807.01	217.08
807.33	217.07
807.65	216.95
807.97	217.03
808.28	216.97
808.60	216.94
808.92	216.89
809.24	216.95
809.56	216.90
809.88	216.76
810.20	216.76
810.52	216.77
810.84	216.71
811.16	216.68
811.48	216.57
811.80	216.59
812.12	216.54
812.43	216.53
812.75	216.58
813.07	216.51
813.39	216.49
813.71	216.42
814.03	216.35
814.35	216.34
814.67	216.19
814.98	216.18
815.30	216.16
815.62	216.07
815.94	215.91
816.26	215.87
816.58	215.84
816.89	215.84
817.21	215.77
817.53	215.78
817.85	215.78
818.17	215.78
818.48	215.70
818.80	215.74
819.12	215.69
819.44	215.62
819.76	215.60
820.07	215.60
820.39	215.58
820.71	215.62
821.03	215.61
821.34	215.60
821.66	215.56
821.98	215.58
822.30	215.57
822.61	215.70
822.93	215.68
823.25	215.65
823.57	215.61
823.88	215.67
824.20	215.66
824.52	215.68
824.83	215.68
825.15	215.63
825.47	215.57
825.79	215.60
826.10	215.58
826.42	215.56
826.74	215.54
827.05	215.54
827.37	215.50
827.69	215.47
828.00	215.44
828.32	215.44
828.64	215.40
828.95	215.50
829.27	215.43
829.58	215.42
829.90	215.46
830.22	215.47
830.53	215.39
830.85	215.35
831.17	215.27
831.48	215.24
831.80	215.27
832.11	215.27
832.43	215.20
832.75	215.18
833.06	215.34
833.38	215.29
833.69	215.24
834.01	215.24
834.32	215.20
834.64	215.19
834.96	215.21
835.27	215.19
835.59	215.12
835.90	215.08
836.22	215.07
836.53	215.01
836.85	214.96
837.16	215.16
837.48	215.15
837.79	215.20
838.11	215.19
838.42	215.15
838.74	215.16
839.05	215.14
839.37	215.15
839.68	214.98
840.00	214.99
840.31	215.05
840.63	215.04
840.94	215.04
841.26	215.01
841.57	214.99
841.88	215.02
842.20	214.97
842.51	214.93
842.83	214.92
843.14	215.10
843.46	215.13
843.77	214.99
844.08	214.99
844.40	214.93
844.71	214.91
845.03	214.90
845.34	214.91
845.65	214.92
845.97	214.94
846.28	214.93
846.60	214.93
846.91	214.87
847.22	214.85
847.54	214.86
847.85	214.88
848.16	214.85
848.48	214.79
848.79	214.87
849.10	214.89
849.42	214.92
849.73	214.70
850.04	214.66
850.36	214.57
850.67	214.60
850.98	214.60
851.30	214.60
851.61	214.59
851.92	214.54
852.23	214.60
852.55	214.61
852.86	214.60
853.17	214.60
853.49	214.66
853.80	214.69
854.11	214.72
854.42	214.74
854.74	214.71
855.05	214.71
855.36	214.60
855.67	214.57
855.99	214.55
856.30	214.82
856.61	214.83
856.92	214.82
857.23	214.80
857.55	214.77
857.86	214.73
858.17	214.77
858.48	214.74
858.79	214.66
859.11	214.65
859.42	214.67
859.73	214.62
860.04	214.60
860.35	214.53
860.66	214.45
860.98	214.43
861.29	214.45
861.60	214.44
861.91	214.45
862.22	214.42
862.53	214.38
862.84	214.11
863.16	214.14
863.47	214.10
863.78	214.09
864.09	214.08
864.40	214.10
864.71	214.07
865.02	214.10
865.33	214.07
865.64	214.05
865.95	214.00
866.27	214.16
866.58	214.13
866.89	214.16
867.20	214.15
867.51	214.13
867.82	214.12
868.13	214.22
868.44	214.19
868.75	214.25
869.06	214.28
869.37	214.30
869.68	214.22
869.99	214.25
870.30	214.26
870.61	214.31
870.92	214.29
871.23	214.31
871.54	214.34
871.85	214.42
872.16	214.41
872.47	214.40
872.78	214.26
873.09	214.29
873.40	214.25
873.71	214.27
874.02	214.29
874.33	214.27
874.64	214.22
874.95	214.27
875.26	214.19
875.56	214.20
875.87	214.16
876.18	214.18
876.49	214.41
876.80	214.37
877.11	214.33
877.42	214.36
877.73	214.34
878.04	214.28
878.35	214.23
878.66	214.22
878.96	214.22
879.27	214.21
879.58	214.18
879.89	214.20
880.20	214.25
880.51	214.23
880.82	214.22
881.12	214.22
881.43	214.16
881.74	214.15
882.05	214.14
882.36	214.19
882.67	214.20
882.97	213.97
883.28	213.93
883.59	213.94
883.90	213.95
884.21	213.98
884.51	214.01
884.82	213.99
885.13	214.01
885.44	213.99
885.74	214.01
886.05	214.03
886.36	214.02
886.67	213.95
886.98	214.06
887.28	214.10
887.59	214.10
887.90	214.13
888.20	214.17
888.51	214.18
888.82	214.14
889.13	214.15
889.43	214.32
889.74	214.35
890.05	214.33
890.35	214.29
890.66	214.27
890.97	214.23
891.28	214.22
891.58	214.23
891.89	214.29
892.20	214.26
892.50	214.23
892.81	214.22
893.12	214.21
893.42	214.08
893.73	214.08
894.04	214.07
894.34	214.08
894.65	214.04
894.95	214.02
895.26	214.02
895.57	214.11
895.87	213.94
896.18	213.98
896.48	213.97
896.79	213.99
897.10	213.98
897.40	213.99
897.71	214.04
898.01	214.02
898.32	214.02
898.63	214.04
898.93	214.05
899.24	214.06
899.54	214.07
899.85	214.09
900.15	214.08
900.46	214.07
900.76	214.08
901.07	214.08
901.38	214.07
901.68	214.09
901.99	213.96
902.29	213.93
902.60	213.92
902.90	213.91
903.21	213.89
903.51	213.92
903.82	213.96
904.12	213.92
904.43	213.92
904.73	213.90
905.03	213.89
905.34	214.07
905.64	214.08
905.95	214.07
906.25	214.04
906.56	214.02
906.86	214.03
907.17	214.00
907.47	214.03
907.77	214.03
908.08	214.00
908.38	214.03
908.69	214.04
908.99	214.03
909.30	214.08
909.60	214.10
909.90	214.11
910.21	214.08
910.51	214.03
910.81	214.01
911.12	214.00
911.42	214.03
911.73	213.81
912.03	213.81
912.33	213.85
912.64	213.86
912.94	213.85
913.24	213.81
913.55	213.79
913.85	213.79
914.15	213.82
914.46	213.86
914.76	213.83
915.06	213.83
915.37	213.82
915.67	213.76
915.97	213.72
916.27	213.67
916.58	213.64
916.88	213.68
917.18	213.69
917.49	213.81
917.79	213.80
918.09	213.84
918.39	213.89
918.70	213.87
919.00	213.88
919.30	213.97
919.60	213.97
919.91	213.95
920.21	213.95
920.51	213.88
920.81	213.83
921.12	213.89
921.42	213.88
921.72	213.90
922.02	213.93
922.32	213.98
922.63	214.00
922.93	214.13
923.23	214.14
923.53	214.12
923.83	214.02
924.13	214.03
924.44	213.99
924.74	214.02
925.04	214.07
925.34	214.07
925.64	213.96
925.94	213.98
926.24	214.11
926.55	214.09
926.85	214.12
927.15	214.14
927.45	214.14
927.75	214.13
928.05	214.14
928.35	214.13
928.65	214.18
928.95	214.20
929.26	214.13
929.56	214.18
929.86	214.20
930.16	214.17
930.46	214.16
930.76	214.21
931.06	214.11
931.36	214.04
931.66	214.07
931.96	214.10
932.26	214.12
932.56	214.00
932.86	214.02
933.16	214.03
933.46	214.01
933.76	213.98
934.06	214.03
934.36	214.06
934.66	214.06
934.96	214.02
935.26	214.00
935.56	214.03
935.86	213.94
936.16	213.93
936.46	213.90
936.76	213.92
937.06	213.88
937.36	213.93
937.66	213.92
937.96	213.92
938.26	213.88
938.56	213.87
938.86	213.88
939.16	213.92
939.46	213.97
939.76	213.98
940.06	213.94
940.35	213.90
940.65	213.80
940.95	213.77
941.25	213.73
941.55	213.69
941.85	213.64
942.15	213.66
942.45	213.71
942.75	213.70
943.04	213.70
943.34	213.74
943.64	213.71
943.94	213.68
944.24	213.68
944.54	213.71
944.84	213.70
945.13	213.69
945.43	213.65
945.73	213.62
946.03	213.60
946.33	213.58
946.62	213.56
946.92	213.59
947.22	213.61
947.52	213.61
947.82	213.63
948.11	213.60
948.41	213.58
948.71	213.53
949.01	213.56
949.31	213.52
949.60	213.48
949.90	213.52
950.20	213.50
950.50	213.48
950.79	213.47
951.09	213.47
951.39	213.45
951.69	213.43
951.98	213.48
952.28	213.49
952.58	213.53
952.87	213.54
953.17	213.53
953.47	213.52
953.76	213.53
954.06	213.50
954.36	213.51
954.66	213.49
954.95	213.57
955.25	213.56
955.55	213.61
955.84	213.55
956.14	213.53
956.44	213.56
956.73	213.54
957.03	213.51
957.32	213.53
957.62	213.54
957.92	213.60
958.21	213.55
958.51	213.82
958.81	213.83
959.10	213.85
959.40	213.90
959.69	213.91
959.99	213.92
960.29	213.93
960.58	213.91
960.88	214.02
961.17	213.96
961.47	214.03
961.76	214.01
962.06	214.08
962.36	214.07
962.65	214.09
962.95	214.12
963.24	214.16
963.54	214.18
963.83	214.19
964.13	214.15
964.42	214.07
964.72	213.89
965.01	213.89
965.31	213.88
965.60	213.82
965.90	213.97
966.19	213.92
966.49	213.96
966.78	213.95
967.08	213.91
967.37	213.91
967.67	213.85
967.96	213.87
968.26	213.83
968.55	213.87
968.85	213.86
969.14	213.84
969.43	213.81
969.73	213.82
970.02	213.82
970.32	213.81
970.61	213.84
970.91	213.78
971.20	213.72
971.49	213.70
971.79	213.72
972.08	213.59
972.38	213.64
972.67	213.60
972.96	213.64
973.26	213.62
973.55	213.68
973.85	213.68
974.14	213.68
974.43	213.73
974.73	213.70
975.02	213.67
975.31	213.67
975.61	213.64
975.90	213.59
976.19	213.58
976.49	213.60
976.78	213.61
977.07	213.60
977.37	213.63
977.66	213.66
977.95	213.64
978.24	213.64
978.54	213.63
978.83	213.63
979.12	213.60
979.42	213.60
979.71	213.54
980.00	213.53
980.29	213.52
980.59	213.47
980.88	213.53
981.17	213.53
981.46	213.52
981.76	213.53
982.05	213.59
982.34	213.62
982.63	213.63
982.93	213.64
983.22	213.72
983.51	213.74
983.80	213.76
984.09	213.78
984.39	213.74
984.68	213.74
984.97	213.74
985.26	213.72
985.55	213.74
985.85	213.72
986.14	213.72
986.43	213.72
986.72	213.70
987.01	213.61
987.30	213.62
987.59	213.61
987.89	213.62
988.18	213.57
988.47	213.53
988.76	213.51
989.05	213.50
989.34	213.45
989.63	213.49
989.92	213.47
990.22	213.47
990.51	213.51
990.80	213.49
991.09	213.52
991.38	213.57
991.67	213.52
991.96	213.51
992.25	213.53
992.54	213.49
992.83	213.48
993.12	213.48
993.41	213.51
993.70	213.62
993.99	213.68
994.28	213.73
994.58	213.76
994.87	213.71
995.16	213.67
995.45	213.65
995.74	213.58
996.03	213.59
996.32	213.60
996.61	213.64
996.90	213.63
997.19	213.60
997.48	213.57
997.77	213.57
998.06	213.59
998.34	213.56
998.63	213.56
998.92	213.60
999.21	213.64
999.50	213.64
999.79	213.53
1000.08	213.54
1000.37	213.53
1000.66	213.48
1000.95	213.53
1001.24	213.54
1001.53	213.57
1001.82	213.57
1002.11	213.52
1002.40	213.55
1002.68	213.57
1002.97	213.73
1003.26	213.72
1003.55	213.71
1003.84	213.72
1004.13	213.78
1004.42	213.80
1004.71	213.82
1004.99	213.82
1005.28	213.86
1005.57	213.88
1005.86	213.92
1006.15	213.88
1006.44	213.87
1006.72	213.91
1007.01	213.88
1007.30	213.90
1007.59	213.88
1007.88	213.88
1008.17	213.90
1008.45	213.84
1008.74	213.75
1009.03	213.68
1009.32	213.67
1009.60	213.68
1009.89	213.69
1010.18	213.59
1010.47	213.61
1010.76	213.60
1011.04	213.55
1011.33	213.55
1011.62	213.52
1011.91	213.52
1012.19	213.52
1012.48	213.49
1012.77	213.47
1013.05	213.59
1013.34	213.58
1013.63	213.57
1013.92	213.59
1014.20	213.58
1014.49	213.60
1014.78	213.62
1015.06	213.54
1015.35	213.54
1015.64	213.56
1015.92	213.56
1016.21	213.60
1016.50	213.56
1016.78	213.59
1017.07	213.60
1017.36	213.55
1017.64	213.53
1017.93	213.53
1018.22	213.52
1018.50	213.53
1018.79	213.53
1019.08	213.40
1019.36	213.44
1019.65	213.44
1019.93	213.49
1020.22	213.54
1020.51	213.67
1020.79	213.67
1021.08	213.45
1021.36	213.32
1021.65	213.30
1021.94	213.22
1022.22	213.92
1022.51	213.34
1022.79	214.70
1023.08	214.31
1023.36	216.48
1023.65	213.37
>>>>>End Processed Spectral Data<<<<<
