SpectraSuite Data File
++++++++++++++++++++++++++++++++++++
Date: Tue Jan 29 15:59:52 EST 2013
User: group
Dark Spectrum Present: No
Reference Spectrum Present: No
Number of Sampled Component Spectra: 1
Spectrometers: USB2E7196
Integration Time (usec): 65000 (USB2E7196)
Spectra Averaged: 100 (USB2E7196)
Boxcar Smoothing: 10 (USB2E7196)
Correct for Electrical Dark: No (USB2E7196)
Strobe/Lamp Enabled: No (USB2E7196)
Correct for Detector Non-linearity: No (USB2E7196)
Correct for Stray Light: No (USB2E7196)
Number of Pixels in Processed Spectrum: 2048
>>>>>Begin Processed Spectral Data<<<<<
339.09	0.00
339.48	203.11
339.86	203.65
340.24	205.62
340.63	206.51
341.01	211.08
341.39	209.87
341.78	211.49
342.16	212.37
342.54	213.24
342.93	201.87
343.31	212.06
343.69	212.60
344.07	213.07
344.46	213.51
344.84	213.92
345.22	214.11
345.60	214.37
345.99	214.55
346.37	214.67
346.75	214.77
347.13	214.83
347.52	214.92
347.90	215.07
348.28	215.13
348.66	215.20
349.05	215.13
349.43	215.19
349.81	215.25
350.19	215.33
350.57	215.35
350.96	215.45
351.34	215.59
351.72	215.68
352.10	215.81
352.48	215.90
352.87	215.95
353.25	216.02
353.63	216.08
354.01	216.15
354.39	216.26
354.77	216.35
355.15	216.48
355.54	216.53
355.92	216.50
356.30	216.56
356.68	216.78
357.06	216.89
357.44	216.94
357.82	216.96
358.20	217.02
358.58	217.09
358.97	217.15
359.35	217.24
359.73	217.34
360.11	217.42
360.49	217.47
360.87	217.53
361.25	217.60
361.63	217.72
362.01	217.77
362.39	217.78
362.77	217.80
363.15	217.81
363.53	217.81
363.91	217.84
364.29	217.88
364.67	217.68
365.05	217.71
365.43	217.75
365.81	217.84
366.19	217.95
366.57	218.05
366.95	218.09
367.33	218.02
367.71	218.00
368.09	218.00
368.47	217.96
368.85	217.96
369.23	217.98
369.61	217.88
369.99	217.92
370.37	217.95
370.75	218.01
371.13	217.97
371.51	217.95
371.89	217.96
372.27	217.93
372.65	217.95
373.03	217.91
373.41	217.86
373.78	217.81
374.16	217.67
374.54	217.56
374.92	217.49
375.30	217.47
375.68	217.41
376.06	217.40
376.44	217.38
376.82	217.31
377.19	217.27
377.57	217.25
377.95	217.15
378.33	217.08
378.71	216.97
379.09	216.93
379.47	216.88
379.84	216.83
380.22	216.74
380.60	216.70
380.98	216.66
381.36	216.61
381.73	216.51
382.11	216.52
382.49	216.47
382.87	216.41
383.25	216.38
383.62	216.56
384.00	216.47
384.38	216.44
384.76	216.48
385.13	216.50
385.51	216.46
385.89	216.40
386.27	216.36
386.64	216.30
387.02	216.24
387.40	216.20
387.78	216.21
388.15	216.21
388.53	216.16
388.91	216.14
389.29	216.12
389.66	216.13
390.04	216.07
390.42	216.11
390.79	216.10
391.17	216.05
391.55	215.81
391.92	215.79
392.30	215.78
392.68	215.71
393.05	215.70
393.43	215.68
393.81	215.68
394.18	215.67
394.56	215.70
394.94	215.76
395.31	215.80
395.69	215.82
396.06	215.84
396.44	215.88
396.82	215.84
397.19	215.97
397.57	215.97
397.95	216.05
398.32	216.02
398.70	216.07
399.07	216.15
399.45	216.18
399.82	216.23
400.20	216.26
400.58	216.32
400.95	216.29
401.33	216.42
401.70	216.64
402.08	216.75
402.45	216.83
402.83	216.97
403.20	217.10
403.58	217.18
403.95	217.33
404.33	217.45
404.71	217.63
405.08	217.85
405.46	218.06
405.83	218.22
406.21	218.42
406.58	218.65
406.96	218.90
407.33	219.15
407.70	219.44
408.08	219.91
408.45	220.24
408.83	220.62
409.20	220.97
409.58	221.22
409.95	221.63
410.33	222.13
410.70	222.50
411.08	223.02
411.45	223.56
411.82	224.11
412.20	224.81
412.57	225.62
412.95	226.16
413.32	226.95
413.69	227.78
414.07	228.66
414.44	229.61
414.82	230.56
415.19	231.68
415.56	232.83
415.94	233.97
416.31	235.35
416.68	236.66
417.06	238.16
417.43	239.65
417.81	241.33
418.18	243.03
418.55	244.91
418.93	246.87
419.30	248.91
419.67	251.06
420.04	253.22
420.42	255.54
420.79	258.29
421.16	260.97
421.54	263.77
421.91	266.62
422.28	269.60
422.66	272.79
423.03	275.93
423.40	279.18
423.77	282.62
424.15	286.11
424.52	289.83
424.89	293.85
425.26	297.78
425.64	301.52
426.01	305.73
426.38	310.08
426.75	314.46
427.13	319.01
427.50	323.83
427.87	328.85
428.24	333.84
428.61	338.62
428.99	343.99
429.36	349.77
429.73	355.42
430.10	361.07
430.47	366.91
430.85	373.02
431.22	379.47
431.59	386.33
431.96	392.95
432.33	400.19
432.70	407.13
433.08	415.33
433.45	423.10
433.82	430.75
434.19	439.25
434.56	447.67
434.93	455.74
435.30	463.62
435.68	472.42
436.05	481.04
436.42	489.65
436.79	497.44
437.16	505.84
437.53	514.78
437.90	523.54
438.27	532.24
438.64	541.11
439.01	549.30
439.38	556.65
439.75	563.68
440.13	571.72
440.50	579.41
440.87	585.59
441.24	591.94
441.61	598.90
441.98	604.05
442.35	610.10
442.72	616.15
443.09	622.04
443.46	625.64
443.83	628.05
444.20	630.09
444.57	633.11
444.94	634.47
445.31	635.87
445.68	637.19
446.05	637.67
446.42	636.81
446.79	635.87
447.16	634.78
447.53	634.00
447.90	630.84
448.27	627.63
448.64	623.12
449.01	619.92
449.37	614.29
449.74	608.82
450.11	602.14
450.48	594.99
450.85	587.79
451.22	581.50
451.59	575.57
451.96	569.95
452.33	562.37
452.70	555.55
453.07	547.37
453.43	539.16
453.80	531.23
454.17	523.59
454.54	516.34
454.91	508.45
455.28	500.84
455.65	493.77
456.02	486.60
456.38	480.57
456.75	473.08
457.12	466.85
457.49	460.64
457.86	454.75
458.23	449.63
458.59	444.00
458.96	438.28
459.33	433.20
459.70	428.10
460.07	424.07
460.43	419.38
460.80	415.02
461.17	411.19
461.54	407.19
461.91	403.33
462.27	399.37
462.64	396.07
463.01	392.41
463.38	388.84
463.74	385.26
464.11	382.10
464.48	379.39
464.85	376.36
465.21	374.05
465.58	371.50
465.95	368.49
466.32	365.95
466.68	363.44
467.05	360.99
467.42	358.55
467.78	355.96
468.15	353.56
468.52	351.76
468.88	349.40
469.25	347.23
469.62	345.57
469.98	343.74
470.35	342.02
470.72	340.40
471.08	338.71
471.45	337.31
471.82	335.92
472.18	334.33
472.55	333.22
472.92	331.89
473.28	330.74
473.65	329.64
474.02	328.61
474.38	327.82
474.75	327.15
475.11	326.39
475.48	325.84
475.85	325.42
476.21	324.97
476.58	324.61
476.94	324.39
477.31	324.10
477.67	323.88
478.04	323.79
478.41	323.78
478.77	323.92
479.14	323.91
479.50	324.05
479.87	324.31
480.23	324.66
480.60	324.96
480.96	325.26
481.33	325.85
481.69	326.41
482.06	326.95
482.42	327.41
482.79	328.04
483.15	328.85
483.52	329.80
483.88	330.70
484.25	331.70
484.61	332.72
484.98	333.78
485.34	335.08
485.71	336.44
486.07	337.89
486.44	339.22
486.80	340.85
487.17	342.48
487.53	344.34
487.90	346.20
488.26	348.21
488.62	350.39
488.99	352.45
489.35	354.64
489.72	356.98
490.08	359.48
490.44	361.99
490.81	364.67
491.17	367.36
491.54	370.30
491.90	373.32
492.26	376.57
492.63	379.99
492.99	383.53
493.36	387.15
493.72	391.01
494.08	395.03
494.45	399.24
494.81	403.61
495.17	408.05
495.54	412.78
495.90	417.56
496.26	422.45
496.63	427.62
496.99	432.95
497.35	438.51
497.72	444.34
498.08	450.33
498.44	456.42
498.80	462.82
499.17	469.31
499.53	476.02
499.89	482.91
500.26	489.84
500.62	496.95
500.98	504.38
501.34	511.79
501.71	519.55
502.07	527.30
502.43	535.33
502.79	543.38
503.16	551.72
503.52	560.28
503.88	568.94
504.24	577.92
504.60	587.01
504.97	596.21
505.33	605.47
505.69	615.26
506.05	625.06
506.41	634.80
506.78	644.86
507.14	655.04
507.50	665.45
507.86	676.16
508.22	686.88
508.59	697.50
508.95	708.58
509.31	719.75
509.67	731.23
510.03	742.56
510.39	754.34
510.75	766.15
511.12	778.07
511.48	790.12
511.84	802.35
512.20	814.54
512.56	827.04
512.92	839.75
513.28	852.30
513.64	864.98
514.00	877.75
514.37	890.59
514.73	903.60
515.09	916.39
515.45	929.00
515.81	941.82
516.17	955.00
516.53	968.11
516.89	981.09
517.25	994.06
517.61	1007.38
517.97	1020.56
518.33	1033.48
518.69	1046.83
519.05	1060.42
519.41	1073.81
519.77	1087.64
520.13	1100.81
520.49	1113.83
520.85	1127.03
521.21	1140.18
521.57	1153.71
521.93	1166.65
522.29	1180.29
522.65	1193.85
523.01	1207.25
523.37	1220.20
523.73	1233.38
524.09	1246.23
524.45	1259.42
524.81	1272.59
525.17	1285.74
525.53	1298.72
525.89	1311.78
526.25	1324.63
526.61	1337.07
526.97	1349.87
527.33	1362.42
527.68	1375.59
528.04	1388.76
528.40	1401.53
528.76	1414.44
529.12	1426.96
529.48	1439.87
529.84	1451.71
530.20	1464.09
530.56	1476.50
530.91	1489.51
531.27	1501.97
531.63	1514.51
531.99	1526.89
532.35	1538.93
532.71	1550.94
533.07	1563.43
533.42	1575.44
533.78	1587.24
534.14	1599.19
534.50	1610.19
534.86	1621.50
535.21	1632.07
535.57	1643.19
535.93	1654.23
536.29	1665.22
536.65	1676.42
537.00	1687.20
537.36	1698.30
537.72	1708.97
538.08	1719.95
538.44	1730.49
538.79	1741.22
539.15	1751.66
539.51	1762.14
539.87	1773.16
540.22	1783.69
540.58	1794.17
540.94	1804.57
541.29	1814.53
541.65	1823.88
542.01	1834.07
542.37	1843.83
542.72	1853.75
543.08	1863.24
543.44	1873.29
543.79	1882.27
544.15	1891.37
544.51	1901.02
544.87	1910.53
545.22	1919.34
545.58	1927.95
545.94	1936.53
546.29	1944.72
546.65	1952.82
547.01	1960.72
547.36	1968.17
547.72	1975.64
548.07	1983.10
548.43	1990.59
548.79	1998.24
549.14	2006.16
549.50	2014.24
549.86	2021.66
550.21	2028.80
550.57	2036.17
550.92	2042.77
551.28	2050.04
551.64	2057.16
551.99	2064.32
552.35	2071.18
552.70	2077.91
553.06	2084.28
553.41	2090.40
553.77	2096.84
554.13	2103.09
554.48	2110.06
554.84	2116.81
555.19	2123.17
555.55	2129.62
555.90	2135.87
556.26	2142.44
556.61	2148.22
556.97	2152.96
557.32	2158.87
557.68	2165.11
558.03	2170.83
558.39	2175.97
558.74	2181.80
559.10	2187.26
559.45	2192.76
559.81	2198.40
560.16	2203.98
560.52	2210.03
560.87	2216.44
561.23	2222.34
561.58	2229.09
561.94	2234.19
562.29	2239.04
562.64	2245.20
563.00	2250.68
563.35	2256.33
563.71	2262.12
564.06	2267.83
564.42	2273.95
564.77	2279.21
565.12	2284.29
565.48	2289.53
565.83	2295.09
566.19	2300.75
566.54	2306.33
566.89	2311.06
567.25	2315.64
567.60	2321.38
567.96	2326.49
568.31	2331.08
568.66	2335.35
569.02	2339.21
569.37	2343.00
569.72	2347.47
570.08	2351.08
570.43	2354.09
570.78	2357.09
571.14	2359.90
571.49	2363.14
571.84	2366.65
572.20	2369.43
572.55	2372.82
572.90	2375.08
573.26	2378.23
573.61	2380.70
573.96	2382.98
574.31	2385.01
574.67	2387.04
575.02	2388.00
575.37	2389.69
575.72	2390.73
576.08	2392.50
576.43	2392.91
576.78	2393.84
577.13	2395.65
577.49	2396.71
577.84	2398.39
578.19	2400.18
578.54	2400.94
578.90	2402.16
579.25	2402.33
579.60	2402.70
579.95	2402.17
580.30	2402.74
580.66	2402.19
581.01	2400.77
581.36	2398.76
581.71	2397.76
582.06	2396.95
582.42	2396.43
582.77	2394.48
583.12	2393.18
583.47	2392.00
583.82	2391.59
584.17	2390.48
584.53	2388.59
584.88	2387.03
585.23	2385.22
585.58	2383.23
585.93	2381.25
586.28	2379.21
586.63	2377.02
586.98	2374.95
587.34	2373.36
587.69	2371.20
588.04	2369.40
588.39	2368.16
588.74	2365.92
589.09	2363.48
589.44	2360.66
589.79	2358.34
590.14	2356.64
590.49	2353.89
590.84	2350.40
591.19	2347.74
591.54	2344.66
591.89	2340.78
592.25	2337.79
592.60	2333.84
592.95	2329.67
593.30	2325.72
593.65	2321.36
594.00	2317.14
594.35	2314.29
594.70	2309.71
595.05	2305.16
595.40	2299.90
595.75	2294.54
596.10	2290.98
596.45	2286.24
596.80	2281.84
597.15	2276.74
597.50	2270.94
597.85	2266.00
598.19	2260.94
598.54	2255.14
598.89	2250.21
599.24	2245.86
599.59	2239.80
599.94	2234.34
600.29	2228.68
600.64	2222.96
600.99	2216.47
601.34	2211.26
601.69	2204.21
602.04	2197.90
602.39	2191.62
602.74	2185.76
603.08	2180.22
603.43	2173.64
603.78	2166.94
604.13	2159.76
604.48	2152.79
604.83	2146.88
605.18	2140.81
605.53	2133.87
605.87	2126.84
606.22	2120.08
606.57	2112.17
606.92	2104.41
607.27	2097.33
607.62	2090.77
607.96	2083.85
608.31	2077.35
608.66	2069.52
609.01	2062.23
609.36	2055.23
609.70	2047.36
610.05	2039.59
610.40	2031.37
610.75	2023.18
611.10	2015.72
611.44	2007.18
611.79	1998.29
612.14	1988.35
612.49	1977.81
612.83	1968.74
613.18	1959.73
613.53	1950.26
613.88	1940.82
614.22	1932.24
614.57	1922.39
614.92	1911.89
615.27	1901.91
615.61	1891.98
615.96	1882.38
616.31	1872.75
616.65	1863.39
617.00	1853.67
617.35	1844.02
617.70	1834.36
618.04	1824.26
618.39	1813.80
618.74	1804.06
619.08	1794.52
619.43	1785.74
619.78	1777.65
620.12	1768.82
620.47	1758.96
620.82	1748.80
621.16	1739.11
621.51	1729.13
621.85	1719.19
622.20	1708.61
622.55	1697.76
622.89	1687.99
623.24	1678.21
623.59	1668.36
623.93	1658.24
624.28	1648.57
624.62	1638.37
624.97	1627.96
625.32	1618.34
625.66	1609.56
626.01	1600.56
626.35	1590.99
626.70	1580.91
627.04	1570.80
627.39	1560.65
627.73	1551.40
628.08	1542.30
628.43	1532.63
628.77	1523.30
629.12	1514.54
629.46	1506.70
629.81	1498.44
630.15	1488.75
630.50	1478.95
630.84	1468.65
631.19	1458.72
631.53	1449.15
631.88	1439.01
632.22	1429.00
632.57	1419.64
632.91	1409.33
633.26	1399.58
633.60	1390.14
633.95	1380.61
634.29	1371.12
634.64	1361.68
634.98	1351.75
635.32	1342.49
635.67	1333.80
636.01	1324.62
636.36	1314.63
636.70	1305.06
637.05	1295.60
637.39	1286.57
637.73	1277.88
638.08	1270.16
638.42	1261.71
638.77	1253.07
639.11	1244.79
639.45	1236.92
639.80	1228.18
640.14	1219.66
640.49	1210.75
640.83	1201.89
641.17	1193.89
641.52	1185.55
641.86	1176.98
642.20	1169.11
642.55	1160.55
642.89	1151.80
643.23	1143.04
643.58	1135.06
643.92	1125.99
644.26	1117.37
644.61	1108.92
644.95	1100.22
645.29	1090.91
645.64	1081.91
645.98	1073.47
646.32	1065.51
646.66	1057.05
647.01	1048.65
647.35	1040.46
647.69	1032.00
648.04	1023.65
648.38	1014.67
648.72	1005.88
649.06	997.50
649.41	989.27
649.75	981.22
650.09	973.33
650.43	965.21
650.78	956.96
651.12	949.38
651.46	941.97
651.80	934.63
652.14	927.14
652.49	919.61
652.83	912.26
653.17	904.53
653.51	896.87
653.85	889.60
654.20	882.41
654.54	874.78
654.88	867.67
655.22	860.60
655.56	853.56
655.90	846.86
656.25	840.17
656.59	833.27
656.93	826.24
657.27	819.08
657.61	812.34
657.95	806.24
658.29	800.32
658.64	794.12
658.98	787.78
659.32	781.33
659.66	775.18
660.00	768.83
660.34	762.84
660.68	756.84
661.02	750.52
661.36	744.65
661.70	738.97
662.05	733.39
662.39	727.88
662.73	722.65
663.07	717.32
663.41	711.79
663.75	706.12
664.09	700.54
664.43	695.24
664.77	689.86
665.11	684.07
665.45	678.16
665.79	672.42
666.13	666.86
666.47	661.44
666.81	656.04
667.15	650.77
667.49	645.61
667.83	640.35
668.17	635.17
668.51	630.11
668.85	625.26
669.19	620.39
669.53	615.36
669.87	610.32
670.21	605.64
670.55	600.97
670.89	596.72
671.23	592.56
671.57	588.20
671.91	583.89
672.25	579.90
672.58	575.86
672.92	571.86
673.26	567.94
673.60	564.14
673.94	560.39
674.28	556.80
674.62	553.06
674.96	549.44
675.30	545.97
675.64	542.35
675.97	538.77
676.31	535.19
676.65	531.67
676.99	528.27
677.33	524.46
677.67	520.83
678.01	516.92
678.34	513.29
678.68	509.86
679.02	506.30
679.36	502.58
679.70	498.98
680.04	495.53
680.37	492.14
680.71	488.87
681.05	485.76
681.39	482.59
681.73	479.45
682.06	476.49
682.40	473.45
682.74	470.37
683.08	467.26
683.42	464.12
683.75	461.18
684.09	458.23
684.43	455.42
684.77	452.55
685.10	449.83
685.44	446.93
685.78	444.02
686.12	441.39
686.45	438.72
686.79	436.16
687.13	433.67
687.46	431.07
687.80	428.42
688.14	425.58
688.48	422.99
688.81	420.39
689.15	417.82
689.49	415.28
689.82	412.76
690.16	410.23
690.50	407.83
690.83	405.42
691.17	402.96
691.51	400.58
691.84	398.39
692.18	396.22
692.52	394.06
692.85	391.98
693.19	389.86
693.52	387.71
693.86	385.49
694.20	383.38
694.53	381.28
694.87	379.12
695.21	377.07
695.54	374.99
695.88	372.86
696.21	370.69
696.55	368.57
696.88	366.55
697.22	364.60
697.56	362.81
697.89	360.98
698.23	359.23
698.56	357.51
698.90	355.77
699.23	353.88
699.57	352.09
699.90	350.26
700.24	348.50
700.58	346.82
700.91	345.21
701.25	343.67
701.58	342.10
701.92	340.59
702.25	339.05
702.59	337.47
702.92	336.02
703.26	334.55
703.59	333.17
703.93	331.97
704.26	330.58
704.60	329.09
704.93	327.66
705.26	326.20
705.60	324.75
705.93	323.31
706.27	322.06
706.60	320.81
706.94	319.63
707.27	318.25
707.61	316.96
707.94	315.66
708.27	314.12
708.61	312.74
708.94	311.41
709.28	310.16
709.61	308.94
709.94	307.73
710.28	306.52
710.61	305.34
710.95	303.91
711.28	302.88
711.61	301.75
711.95	300.65
712.28	299.49
712.61	298.38
712.95	297.34
713.28	296.30
713.61	295.16
713.95	294.00
714.28	293.00
714.61	291.97
714.95	290.99
715.28	290.06
715.61	289.07
715.95	288.16
716.28	287.21
716.61	286.26
716.95	285.32
717.28	284.41
717.61	283.50
717.94	282.66
718.28	281.65
718.61	280.75
718.94	279.86
719.27	279.05
719.61	278.21
719.94	277.38
720.27	276.46
720.60	275.67
720.94	274.94
721.27	274.23
721.60	273.59
721.93	272.92
722.27	272.25
722.60	271.60
722.93	270.87
723.26	270.24
723.59	269.61
723.93	269.02
724.26	268.38
724.59	267.75
724.92	267.19
725.25	266.72
725.59	266.16
725.92	265.68
726.25	265.12
726.58	264.57
726.91	263.98
727.24	263.44
727.57	262.89
727.91	262.29
728.24	261.76
728.57	261.15
728.90	260.59
729.23	260.02
729.56	259.59
729.89	259.10
730.22	258.54
730.55	258.00
730.89	257.46
731.22	256.95
731.55	256.44
731.88	255.92
732.21	255.33
732.54	254.85
732.87	254.34
733.20	253.87
733.53	253.45
733.86	252.99
734.19	252.50
734.52	252.11
734.85	251.85
735.18	251.37
735.51	251.04
735.84	250.65
736.17	250.28
736.50	249.77
736.83	249.66
737.16	249.29
737.49	248.92
737.82	248.51
738.15	248.15
738.48	247.82
738.81	247.47
739.14	247.10
739.47	246.74
739.80	246.36
740.13	246.02
740.46	245.60
740.79	245.26
741.12	244.93
741.45	244.54
741.78	244.07
742.11	243.83
742.44	243.44
742.77	243.13
743.10	242.77
743.43	242.42
743.75	241.82
744.08	241.76
744.41	241.42
744.74	241.09
745.07	240.77
745.40	240.45
745.73	240.15
746.06	239.85
746.39	239.55
746.71	239.22
747.04	238.88
747.37	238.60
747.70	238.32
748.03	238.06
748.36	237.79
748.68	237.53
749.01	237.17
749.34	236.88
749.67	236.61
750.00	236.35
750.33	236.24
750.65	236.00
750.98	235.48
751.31	235.24
751.64	235.00
751.97	234.87
752.29	234.63
752.62	234.35
752.95	234.07
753.28	233.80
753.60	233.58
753.93	233.44
754.26	233.22
754.59	232.94
754.91	232.68
755.24	232.50
755.57	232.26
755.90	232.04
756.22	231.83
756.55	231.59
756.88	231.36
757.20	231.05
757.53	230.81
757.86	230.61
758.19	230.41
758.51	230.23
758.84	229.95
759.17	229.76
759.49	229.56
759.82	229.51
760.15	229.37
760.47	229.18
760.80	228.89
761.13	228.77
761.45	228.60
761.78	228.44
762.11	228.24
762.43	228.07
762.76	227.90
763.08	227.79
763.41	227.62
763.74	227.51
764.06	227.33
764.39	227.18
764.71	227.04
765.04	226.90
765.37	226.77
765.69	226.64
766.02	226.52
766.34	226.38
766.67	226.19
767.00	226.09
767.32	226.08
767.65	226.11
767.97	225.96
768.30	225.87
768.62	225.76
768.95	225.64
769.27	225.54
769.60	225.46
769.92	225.31
770.25	225.20
770.57	225.01
770.90	224.91
771.22	224.79
771.55	224.69
771.87	224.62
772.20	224.48
772.52	224.53
772.85	224.67
773.17	224.56
773.50	224.44
773.82	224.29
774.15	224.11
774.47	223.88
774.80	223.77
775.12	223.64
775.45	223.52
775.77	223.42
776.09	223.33
776.42	223.20
776.74	223.16
777.07	223.07
777.39	223.00
777.72	222.88
778.04	222.86
778.36	222.77
778.69	222.66
779.01	222.62
779.33	222.34
779.66	222.01
779.98	221.95
780.31	221.84
780.63	221.83
780.95	221.80
781.28	221.72
781.60	221.63
781.92	221.58
782.25	221.57
782.57	221.52
782.89	221.44
783.22	221.39
783.54	221.29
783.86	221.21
784.19	221.13
784.51	221.16
784.83	221.04
785.16	220.97
785.48	220.94
785.80	220.88
786.12	220.87
786.45	220.79
786.77	220.78
787.09	220.76
787.42	220.63
787.74	220.58
788.06	220.57
788.38	220.51
788.71	220.45
789.03	220.39
789.35	220.34
789.67	220.26
789.99	220.25
790.32	220.17
790.64	220.15
790.96	220.30
791.28	220.16
791.61	220.10
791.93	220.07
792.25	219.99
792.57	220.11
792.89	220.02
793.21	219.98
793.54	219.90
793.86	219.81
794.18	219.82
794.50	219.73
794.82	219.68
795.14	219.63
795.47	219.60
795.79	219.57
796.11	219.50
796.43	219.49
796.75	219.42
797.07	219.41
797.39	219.37
797.71	219.16
798.04	219.14
798.36	219.13
798.68	219.10
799.00	219.07
799.32	218.92
799.64	218.91
799.96	218.88
800.28	218.90
800.60	218.85
800.92	218.83
801.24	218.80
801.56	218.78
801.89	218.72
802.21	218.73
802.53	218.63
802.85	218.63
803.17	218.65
803.49	218.60
803.81	218.55
804.13	218.49
804.45	218.45
804.77	218.47
805.09	218.42
805.41	218.35
805.73	218.31
806.05	218.20
806.37	218.15
806.69	218.09
807.01	218.06
807.33	218.07
807.65	217.93
807.97	218.00
808.28	217.95
808.60	217.98
808.92	217.90
809.24	218.01
809.56	217.97
809.88	217.89
810.20	217.85
810.52	217.84
810.84	217.80
811.16	217.73
811.48	217.69
811.80	217.74
812.12	217.71
812.43	217.70
812.75	217.69
813.07	217.65
813.39	217.66
813.71	217.57
814.03	217.51
814.35	217.51
814.67	217.39
814.98	217.36
815.30	217.30
815.62	217.23
815.94	217.09
816.26	217.08
816.58	217.02
816.89	217.06
817.21	216.99
817.53	216.99
817.85	217.01
818.17	216.96
818.48	216.86
818.80	216.89
819.12	216.86
819.44	216.84
819.76	216.82
820.07	216.81
820.39	216.79
820.71	216.78
821.03	216.76
821.34	216.73
821.66	216.74
821.98	216.76
822.30	216.75
822.61	216.84
822.93	216.78
823.25	216.76
823.57	216.68
823.88	216.74
824.20	216.69
824.52	216.70
824.83	216.70
825.15	216.67
825.47	216.69
825.79	216.68
826.10	216.65
826.42	216.60
826.74	216.60
827.05	216.57
827.37	216.57
827.69	216.57
828.00	216.53
828.32	216.52
828.64	216.47
828.95	216.58
829.27	216.50
829.58	216.52
829.90	216.56
830.22	216.58
830.53	216.52
830.85	216.52
831.17	216.46
831.48	216.43
831.80	216.41
832.11	216.37
832.43	216.29
832.75	216.24
833.06	216.37
833.38	216.29
833.69	216.32
834.01	216.30
834.32	216.28
834.64	216.28
834.96	216.27
835.27	216.27
835.59	216.20
835.90	216.18
836.22	216.14
836.53	216.08
836.85	216.04
837.16	216.24
837.48	216.22
837.79	216.31
838.11	216.32
838.42	216.31
838.74	216.30
839.05	216.30
839.37	216.31
839.68	216.18
840.00	216.20
840.31	216.19
840.63	216.20
840.94	216.20
841.26	216.16
841.57	216.16
841.88	216.17
842.20	216.14
842.51	216.10
842.83	216.11
843.14	216.29
843.46	216.29
843.77	216.13
844.08	216.10
844.40	216.01
844.71	216.01
845.03	215.98
845.34	215.95
845.65	215.96
845.97	215.94
846.28	215.96
846.60	215.97
846.91	215.93
847.22	215.95
847.54	216.00
847.85	215.99
848.16	215.97
848.48	215.93
848.79	215.97
849.10	216.00
849.42	215.99
849.73	215.81
850.04	215.80
850.36	215.75
850.67	215.81
850.98	215.79
851.30	215.77
851.61	215.79
851.92	215.80
852.23	215.87
852.55	215.90
852.86	215.90
853.17	215.88
853.49	215.91
853.80	215.90
854.11	215.90
854.42	215.94
854.74	215.89
855.05	215.88
855.36	215.81
855.67	215.80
855.99	215.84
856.30	216.05
856.61	216.04
856.92	216.02
857.23	216.02
857.55	216.02
857.86	216.01
858.17	216.01
858.48	215.95
858.79	215.92
859.11	215.91
859.42	215.88
859.73	215.86
860.04	215.85
860.35	215.82
860.66	215.76
860.98	215.73
861.29	215.76
861.60	215.76
861.91	215.78
862.22	215.76
862.53	215.72
862.84	215.46
863.16	215.51
863.47	215.49
863.78	215.47
864.09	215.48
864.40	215.51
864.71	215.53
865.02	215.59
865.33	215.55
865.64	215.54
865.95	215.53
866.27	215.68
866.58	215.64
866.89	215.63
867.20	215.64
867.51	215.62
867.82	215.58
868.13	215.64
868.44	215.60
868.75	215.64
869.06	215.63
869.37	215.65
869.68	215.60
869.99	215.64
870.30	215.64
870.61	215.65
870.92	215.60
871.23	215.56
871.54	215.56
871.85	215.57
872.16	215.59
872.47	215.58
872.78	215.44
873.09	215.49
873.40	215.48
873.71	215.46
874.02	215.47
874.33	215.47
874.64	215.41
874.95	215.45
875.26	215.38
875.56	215.40
875.87	215.38
876.18	215.35
876.49	215.53
876.80	215.52
877.11	215.48
877.42	215.49
877.73	215.48
878.04	215.45
878.35	215.44
878.66	215.45
878.96	215.47
879.27	215.44
879.58	215.39
879.89	215.37
880.20	215.44
880.51	215.40
880.82	215.43
881.12	215.44
881.43	215.38
881.74	215.36
882.05	215.33
882.36	215.34
882.67	215.35
882.97	215.14
883.28	215.12
883.59	215.11
883.90	215.12
884.21	215.18
884.51	215.19
884.82	215.18
885.13	215.16
885.44	215.14
885.74	215.15
886.05	215.15
886.36	215.16
886.67	215.07
886.98	215.18
887.28	215.19
887.59	215.20
887.90	215.21
888.20	215.20
888.51	215.26
888.82	215.24
889.13	215.24
889.43	215.40
889.74	215.40
890.05	215.38
890.35	215.36
890.66	215.31
890.97	215.29
891.28	215.25
891.58	215.27
891.89	215.28
892.20	215.27
892.50	215.26
892.81	215.25
893.12	215.27
893.42	215.16
893.73	215.17
894.04	215.16
894.34	215.18
894.65	215.18
894.95	215.14
895.26	215.13
895.57	215.24
895.87	215.05
896.18	215.11
896.48	215.13
896.79	215.11
897.10	215.14
897.40	215.13
897.71	215.19
898.01	215.15
898.32	215.15
898.63	215.14
898.93	215.15
899.24	215.15
899.54	215.13
899.85	215.13
900.15	215.09
900.46	215.08
900.76	215.11
901.07	215.12
901.38	215.09
901.68	215.14
901.99	215.03
902.29	215.06
902.60	215.02
902.90	215.00
903.21	215.01
903.51	215.00
903.82	215.03
904.12	214.99
904.43	215.00
904.73	214.97
905.03	214.99
905.34	215.18
905.64	215.15
905.95	215.14
906.25	215.17
906.56	215.19
906.86	215.19
907.17	215.16
907.47	215.18
907.77	215.19
908.08	215.17
908.38	215.21
908.69	215.19
908.99	215.25
909.30	215.27
909.60	215.27
909.90	215.29
910.21	215.27
910.51	215.26
910.81	215.25
911.12	215.28
911.42	215.31
911.73	215.12
912.03	215.18
912.33	215.22
912.64	215.22
912.94	215.18
913.24	215.18
913.55	215.16
913.85	215.17
914.15	215.18
914.46	215.18
914.76	215.12
915.06	215.10
915.37	215.04
915.67	215.02
915.97	215.03
916.27	214.99
916.58	214.99
916.88	214.96
917.18	214.98
917.49	215.12
917.79	215.10
918.09	215.12
918.39	215.16
918.70	215.14
919.00	215.14
919.30	215.22
919.60	215.20
919.91	215.17
920.21	215.15
920.51	215.10
920.81	215.09
921.12	215.16
921.42	215.17
921.72	215.20
922.02	215.21
922.32	215.22
922.63	215.22
922.93	215.32
923.23	215.34
923.53	215.29
923.83	215.16
924.13	215.17
924.44	215.16
924.74	215.16
925.04	215.21
925.34	215.19
925.64	215.14
925.94	215.13
926.24	215.26
926.55	215.24
926.85	215.26
927.15	215.29
927.45	215.26
927.75	215.25
928.05	215.27
928.35	215.27
928.65	215.32
928.95	215.35
929.26	215.25
929.56	215.31
929.86	215.35
930.16	215.33
930.46	215.32
930.76	215.32
931.06	215.23
931.36	215.17
931.66	215.23
931.96	215.27
932.26	215.29
932.56	215.18
932.86	215.19
933.16	215.21
933.46	215.21
933.76	215.20
934.06	215.26
934.36	215.28
934.66	215.26
934.96	215.22
935.26	215.21
935.56	215.28
935.86	215.21
936.16	215.17
936.46	215.15
936.76	215.14
937.06	215.14
937.36	215.14
937.66	215.17
937.96	215.14
938.26	215.07
938.56	215.08
938.86	215.10
939.16	215.15
939.46	215.20
939.76	215.18
940.06	215.14
940.35	215.08
940.65	214.96
940.95	214.98
941.25	214.94
941.55	214.92
941.85	214.90
942.15	214.95
942.45	215.01
942.75	215.04
943.04	215.03
943.34	215.05
943.64	215.04
943.94	215.01
944.24	215.01
944.54	215.06
944.84	215.04
945.13	215.02
945.43	214.99
945.73	214.91
946.03	214.88
946.33	214.88
946.62	214.90
946.92	214.92
947.22	214.93
947.52	214.93
947.82	214.94
948.11	214.90
948.41	214.84
948.71	214.79
949.01	214.80
949.31	214.81
949.60	214.79
949.90	214.83
950.20	214.82
950.50	214.81
950.79	214.77
951.09	214.80
951.39	214.80
951.69	214.79
951.98	214.88
952.28	214.88
952.58	214.85
952.87	214.86
953.17	214.91
953.47	214.87
953.76	214.89
954.06	214.86
954.36	214.83
954.66	214.85
954.95	214.90
955.25	214.90
955.55	214.90
955.84	214.87
956.14	214.89
956.44	214.90
956.73	214.86
957.03	214.87
957.32	214.87
957.62	214.83
957.92	214.87
958.21	214.83
958.51	215.10
958.81	215.14
959.10	215.15
959.40	215.16
959.69	215.17
959.99	215.21
960.29	215.23
960.58	215.22
960.88	215.33
961.17	215.28
961.47	215.31
961.76	215.30
962.06	215.32
962.36	215.31
962.65	215.31
962.95	215.36
963.24	215.37
963.54	215.38
963.83	215.41
964.13	215.39
964.42	215.34
964.72	215.13
965.01	215.17
965.31	215.17
965.60	215.12
965.90	215.26
966.19	215.21
966.49	215.23
966.78	215.26
967.08	215.22
967.37	215.24
967.67	215.20
967.96	215.25
968.26	215.24
968.55	215.26
968.85	215.25
969.14	215.24
969.43	215.22
969.73	215.20
970.02	215.19
970.32	215.19
970.61	215.21
970.91	215.19
971.20	215.10
971.49	215.09
971.79	215.09
972.08	214.98
972.38	214.97
972.67	214.93
972.96	214.89
973.26	214.85
973.55	214.92
973.85	214.90
974.14	214.85
974.43	214.89
974.73	214.85
975.02	214.84
975.31	214.83
975.61	214.81
975.90	214.78
976.19	214.75
976.49	214.77
976.78	214.77
977.07	214.73
977.37	214.79
977.66	214.83
977.95	214.84
978.24	214.84
978.54	214.90
978.83	214.91
979.12	214.91
979.42	214.91
979.71	214.86
980.00	214.85
980.29	214.85
980.59	214.80
980.88	214.85
981.17	214.82
981.46	214.83
981.76	214.84
982.05	214.90
982.34	214.94
982.63	214.95
982.93	214.97
983.22	215.02
983.51	215.03
983.80	215.04
984.09	215.06
984.39	215.00
984.68	214.92
984.97	214.93
985.26	214.93
985.55	214.95
985.85	214.91
986.14	214.96
986.43	215.03
986.72	215.04
987.01	214.98
987.30	215.00
987.59	214.99
987.89	215.01
988.18	214.94
988.47	214.94
988.76	214.91
989.05	214.86
989.34	214.85
989.63	214.91
989.92	214.89
990.22	214.86
990.51	214.89
990.80	214.90
991.09	214.95
991.38	214.98
991.67	214.95
991.96	214.93
992.25	214.90
992.54	214.84
992.83	214.83
993.12	214.81
993.41	214.85
993.70	214.97
993.99	214.97
994.28	214.99
994.58	215.02
994.87	214.99
995.16	215.01
995.45	215.00
995.74	214.90
996.03	214.92
996.32	214.95
996.61	214.98
996.90	214.98
997.19	214.95
997.48	214.95
997.77	214.88
998.06	214.93
998.34	214.95
998.63	214.94
998.92	214.94
999.21	215.00
999.50	215.00
999.79	214.88
1000.08	214.89
1000.37	214.89
1000.66	214.87
1000.95	214.95
1001.24	214.94
1001.53	214.95
1001.82	214.92
1002.11	214.85
1002.40	214.85
1002.68	214.90
1002.97	215.04
1003.26	215.00
1003.55	214.97
1003.84	215.00
1004.13	215.03
1004.42	215.02
1004.71	215.03
1004.99	215.03
1005.28	215.07
1005.57	215.08
1005.86	215.06
1006.15	215.04
1006.44	215.02
1006.72	215.04
1007.01	214.97
1007.30	214.99
1007.59	214.94
1007.88	214.97
1008.17	214.98
1008.45	214.96
1008.74	214.86
1009.03	214.76
1009.32	214.79
1009.60	214.80
1009.89	214.83
1010.18	214.75
1010.47	214.71
1010.76	214.69
1011.04	214.67
1011.33	214.66
1011.62	214.67
1011.91	214.69
1012.19	214.71
1012.48	214.68
1012.77	214.68
1013.05	214.79
1013.34	214.76
1013.63	214.77
1013.92	214.79
1014.20	214.78
1014.49	214.76
1014.78	214.84
1015.06	214.78
1015.35	214.74
1015.64	214.76
1015.92	214.78
1016.21	214.80
1016.50	214.86
1016.78	214.90
1017.07	214.92
1017.36	214.87
1017.64	214.84
1017.93	214.85
1018.22	214.85
1018.50	214.88
1018.79	214.88
1019.08	214.77
1019.36	214.82
1019.65	214.80
1019.93	214.88
1020.22	214.90
1020.51	215.03
1020.79	214.95
1021.08	214.95
1021.36	214.56
1021.65	215.22
1021.94	214.79
1022.22	214.93
1022.51	214.27
1022.79	216.32
1023.08	214.75
1023.36	217.32
1023.65	213.89
>>>>>End Processed Spectral Data<<<<<
