SpectraSuite Data File
++++++++++++++++++++++++++++++++++++
Date: Tue Jan 29 15:57:51 EST 2013
User: group
Dark Spectrum Present: No
Reference Spectrum Present: No
Number of Sampled Component Spectra: 1
Spectrometers: USB2E7196
Integration Time (usec): 65000 (USB2E7196)
Spectra Averaged: 100 (USB2E7196)
Boxcar Smoothing: 10 (USB2E7196)
Correct for Electrical Dark: No (USB2E7196)
Strobe/Lamp Enabled: No (USB2E7196)
Correct for Detector Non-linearity: No (USB2E7196)
Correct for Stray Light: No (USB2E7196)
Number of Pixels in Processed Spectrum: 2048
>>>>>Begin Processed Spectral Data<<<<<
339.09	0.00
339.48	203.75
339.86	204.82
340.24	205.95
340.63	207.07
341.01	211.77
341.39	209.83
341.78	211.16
342.16	213.21
342.54	212.86
342.93	202.16
343.31	212.37
343.69	212.86
344.07	213.30
344.46	213.73
344.84	214.11
345.22	214.27
345.60	214.55
345.99	214.77
346.37	214.87
346.75	214.97
347.13	215.06
347.52	215.10
347.90	215.23
348.28	215.25
348.66	215.35
349.05	215.28
349.43	215.32
349.81	215.40
350.19	215.45
350.57	215.51
350.96	215.58
351.34	215.64
351.72	215.76
352.10	215.87
352.48	215.93
352.87	215.98
353.25	216.04
353.63	216.09
354.01	216.14
354.39	216.26
354.77	216.33
355.15	216.46
355.54	216.53
355.92	216.54
356.30	216.64
356.68	216.83
357.06	216.91
357.44	216.92
357.82	216.97
358.20	217.10
358.58	217.13
358.97	217.19
359.35	217.35
359.73	217.43
360.11	217.46
360.49	217.54
360.87	217.62
361.25	217.69
361.63	217.81
362.01	217.81
362.39	217.83
362.77	217.89
363.15	217.89
363.53	217.90
363.91	217.91
364.29	217.92
364.67	217.74
365.05	217.81
365.43	217.89
365.81	217.91
366.19	218.01
366.57	218.11
366.95	218.11
367.33	218.04
367.71	218.07
368.09	218.13
368.47	218.14
368.85	218.11
369.23	218.18
369.61	218.11
369.99	218.21
370.37	218.21
370.75	218.33
371.13	218.29
371.51	218.28
371.89	218.33
372.27	218.31
372.65	218.31
373.03	218.27
373.41	218.24
373.78	218.22
374.16	218.07
374.54	218.01
374.92	218.01
375.30	218.01
375.68	217.89
376.06	217.84
376.44	217.77
376.82	217.75
377.19	217.66
377.57	217.61
377.95	217.51
378.33	217.44
378.71	217.24
379.09	217.24
379.47	217.21
379.84	217.15
380.22	217.10
380.60	217.04
380.98	217.03
381.36	216.98
381.73	216.92
382.11	216.90
382.49	216.84
382.87	216.78
383.25	216.73
383.62	216.94
384.00	216.89
384.38	216.89
384.76	216.89
385.13	216.94
385.51	216.90
385.89	216.83
386.27	216.84
386.64	216.86
387.02	216.83
387.40	216.79
387.78	216.76
388.15	216.75
388.53	216.71
388.91	216.66
389.29	216.61
389.66	216.61
390.04	216.57
390.42	216.58
390.79	216.55
391.17	216.54
391.55	216.28
391.92	216.27
392.30	216.26
392.68	216.22
393.05	216.18
393.43	216.19
393.81	216.22
394.18	216.17
394.56	216.17
394.94	216.17
395.31	216.15
395.69	216.22
396.06	216.25
396.44	216.28
396.82	216.27
397.19	216.39
397.57	216.38
397.95	216.44
398.32	216.38
398.70	216.44
399.07	216.51
399.45	216.56
399.82	216.61
400.20	216.65
400.58	216.70
400.95	216.68
401.33	216.79
401.70	216.95
402.08	217.05
402.45	217.11
402.83	217.25
403.20	217.38
403.58	217.43
403.95	217.60
404.33	217.74
404.71	217.90
405.08	218.15
405.46	218.34
405.83	218.53
406.21	218.74
406.58	218.95
406.96	219.16
407.33	219.41
407.70	219.71
408.08	220.15
408.45	220.51
408.83	220.89
409.20	221.22
409.58	221.50
409.95	221.93
410.33	222.41
410.70	222.84
411.08	223.36
411.45	223.91
411.82	224.44
412.20	225.09
412.57	225.89
412.95	226.43
413.32	227.22
413.69	228.02
414.07	228.91
414.44	229.85
414.82	230.82
415.19	231.98
415.56	233.11
415.94	234.22
416.31	235.55
416.68	236.87
417.06	238.44
417.43	239.91
417.81	241.56
418.18	243.26
418.55	245.09
418.93	247.05
419.30	249.09
419.67	251.21
420.04	253.38
420.42	255.64
420.79	258.36
421.16	261.05
421.54	263.82
421.91	266.69
422.28	269.64
422.66	272.79
423.03	275.91
423.40	279.13
423.77	282.57
424.15	286.10
424.52	289.79
424.89	293.77
425.26	297.71
425.64	301.49
426.01	305.61
426.38	309.87
426.75	314.27
427.13	318.82
427.50	323.58
427.87	328.61
428.24	333.64
428.61	338.47
428.99	343.82
429.36	349.61
429.73	355.25
430.10	360.95
430.47	366.80
430.85	372.87
431.22	379.31
431.59	386.17
431.96	392.73
432.33	399.99
432.70	406.96
433.08	415.13
433.45	422.87
433.82	430.60
434.19	439.22
434.56	447.64
434.93	455.67
435.30	463.68
435.68	472.34
436.05	480.91
436.42	489.44
436.79	497.18
437.16	505.61
437.53	514.56
437.90	523.38
438.27	532.01
438.64	540.86
439.01	549.06
439.38	556.39
439.75	563.40
440.13	571.43
440.50	579.00
440.87	585.17
441.24	591.50
441.61	598.56
441.98	603.69
442.35	609.71
442.72	615.79
443.09	621.56
443.46	625.25
443.83	627.68
444.20	629.69
444.57	632.74
444.94	634.04
445.31	635.44
445.68	636.71
446.05	637.19
446.42	636.39
446.79	635.51
447.16	634.39
447.53	633.63
447.90	630.45
448.27	627.33
448.64	622.87
449.01	619.63
449.37	613.93
449.74	608.47
450.11	601.75
450.48	594.59
450.85	587.38
451.22	581.13
451.59	575.28
451.96	569.73
452.33	562.16
452.70	555.43
453.07	547.20
453.43	538.97
453.80	531.07
454.17	523.42
454.54	516.14
454.91	508.38
455.28	500.78
455.65	493.67
456.02	486.55
456.38	480.50
456.75	473.00
457.12	466.70
457.49	460.46
457.86	454.57
458.23	449.44
458.59	443.83
458.96	438.13
459.33	433.02
459.70	427.88
460.07	423.86
460.43	419.17
460.80	414.77
461.17	410.96
461.54	406.99
461.91	403.16
462.27	399.25
462.64	395.90
463.01	392.28
463.38	388.70
463.74	385.10
464.11	382.00
464.48	379.28
464.85	376.33
465.21	374.00
465.58	371.48
465.95	368.49
466.32	365.93
466.68	363.42
467.05	360.91
467.42	358.46
467.78	355.87
468.15	353.41
468.52	351.66
468.88	349.28
469.25	347.18
469.62	345.48
469.98	343.60
470.35	341.88
470.72	340.24
471.08	338.53
471.45	337.10
471.82	335.65
472.18	334.08
472.55	332.93
472.92	331.61
473.28	330.51
473.65	329.44
474.02	328.44
474.38	327.61
474.75	326.93
475.11	326.21
475.48	325.70
475.85	325.27
476.21	324.77
476.58	324.45
476.94	324.20
477.31	323.90
477.67	323.70
478.04	323.59
478.41	323.61
478.77	323.82
479.14	323.84
479.50	324.01
479.87	324.32
480.23	324.67
480.60	325.01
480.96	325.29
481.33	325.93
481.69	326.49
482.06	327.08
482.42	327.60
482.79	328.22
483.15	329.02
483.52	330.04
483.88	330.99
484.25	331.93
484.61	332.96
484.98	334.01
485.34	335.31
485.71	336.66
486.07	338.08
486.44	339.37
486.80	340.94
487.17	342.62
487.53	344.45
487.90	346.33
488.26	348.30
488.62	350.45
488.99	352.48
489.35	354.62
489.72	356.94
490.08	359.44
490.44	361.99
490.81	364.64
491.17	367.30
491.54	370.26
491.90	373.29
492.26	376.53
492.63	380.02
492.99	383.48
493.36	387.20
493.72	391.07
494.08	395.11
494.45	399.36
494.81	403.66
495.17	408.09
495.54	412.74
495.90	417.53
496.26	422.42
496.63	427.57
496.99	432.98
497.35	438.54
497.72	444.33
498.08	450.24
498.44	456.37
498.80	462.79
499.17	469.31
499.53	476.03
499.89	482.92
500.26	489.80
500.62	496.87
500.98	504.22
501.34	511.64
501.71	519.39
502.07	527.07
502.43	535.06
502.79	543.21
503.16	551.57
503.52	560.09
503.88	568.82
504.24	577.78
504.60	586.81
504.97	596.02
505.33	605.33
505.69	615.20
506.05	625.03
506.41	634.84
506.78	644.79
507.14	654.94
507.50	665.36
507.86	676.07
508.22	686.77
508.59	697.39
508.95	708.44
509.31	719.62
509.67	731.10
510.03	742.51
510.39	754.24
510.75	766.03
511.12	777.92
511.48	789.99
511.84	802.10
512.20	814.36
512.56	826.95
512.92	839.61
513.28	852.10
513.64	864.72
514.00	877.37
514.37	890.20
514.73	903.17
515.09	915.97
515.45	928.68
515.81	941.60
516.17	954.85
516.53	967.94
516.89	980.96
517.25	994.06
517.61	1007.44
517.97	1020.56
518.33	1033.52
518.69	1046.93
519.05	1060.41
519.41	1073.87
519.77	1087.58
520.13	1100.58
520.49	1113.58
520.85	1126.80
521.21	1139.96
521.57	1153.45
521.93	1166.41
522.29	1180.01
522.65	1193.48
523.01	1206.92
523.37	1219.89
523.73	1232.85
524.09	1245.79
524.45	1258.91
524.81	1272.07
525.17	1285.05
525.53	1297.90
525.89	1311.09
526.25	1323.89
526.61	1336.50
526.97	1349.32
527.33	1361.80
527.68	1375.00
528.04	1388.13
528.40	1400.83
528.76	1413.88
529.12	1426.42
529.48	1439.37
529.84	1451.34
530.20	1463.72
530.56	1476.11
530.91	1489.04
531.27	1501.64
531.63	1514.05
531.99	1526.40
532.35	1538.26
532.71	1550.37
533.07	1562.96
533.42	1574.76
533.78	1586.46
534.14	1598.09
534.50	1608.96
534.86	1620.33
535.21	1630.89
535.57	1641.92
535.93	1653.03
536.29	1663.78
536.65	1674.91
537.00	1685.59
537.36	1696.51
537.72	1707.22
538.08	1718.00
538.44	1728.68
538.79	1739.31
539.15	1749.78
539.51	1760.26
539.87	1771.19
540.22	1781.68
540.58	1792.23
540.94	1802.66
541.29	1812.56
541.65	1822.12
542.01	1832.49
542.37	1842.27
542.72	1852.08
543.08	1861.64
543.44	1871.70
543.79	1880.72
544.15	1889.82
544.51	1899.51
544.87	1909.17
545.22	1917.89
545.58	1926.46
545.94	1934.92
546.29	1943.30
546.65	1951.36
547.01	1959.25
547.36	1966.68
547.72	1974.10
548.07	1981.49
548.43	1989.01
548.79	1996.72
549.14	2004.61
549.50	2012.64
549.86	2020.02
550.21	2027.20
550.57	2034.59
550.92	2040.93
551.28	2048.06
551.64	2055.17
551.99	2062.38
552.35	2069.28
552.70	2075.87
553.06	2082.37
553.41	2088.40
553.77	2094.65
554.13	2100.80
554.48	2107.72
554.84	2114.67
555.19	2121.01
555.55	2127.38
555.90	2133.53
556.26	2140.06
556.61	2145.60
556.97	2150.28
557.32	2156.13
557.68	2162.48
558.03	2168.15
558.39	2173.44
558.74	2179.44
559.10	2184.89
559.45	2190.41
559.81	2195.85
560.16	2201.53
560.52	2207.44
560.87	2213.83
561.23	2219.89
561.58	2226.50
561.94	2231.58
562.29	2236.43
562.64	2242.62
563.00	2248.14
563.35	2253.78
563.71	2259.74
564.06	2265.57
564.42	2271.59
564.77	2276.82
565.12	2281.99
565.48	2287.38
565.83	2293.06
566.19	2298.66
566.54	2304.14
566.89	2308.83
567.25	2313.51
567.60	2319.11
567.96	2324.32
568.31	2329.00
568.66	2333.08
569.02	2337.07
569.37	2340.86
569.72	2345.35
570.08	2349.01
570.43	2352.14
570.78	2355.17
571.14	2357.75
571.49	2361.01
571.84	2364.67
572.20	2367.58
572.55	2370.75
572.90	2372.92
573.26	2376.05
573.61	2378.47
573.96	2380.70
574.31	2382.74
574.67	2384.67
575.02	2385.88
575.37	2387.43
575.72	2388.37
576.08	2390.09
576.43	2390.51
576.78	2391.56
577.13	2393.33
577.49	2394.59
577.84	2396.08
578.19	2397.93
578.54	2398.89
578.90	2400.26
579.25	2400.40
579.60	2400.77
579.95	2400.38
580.30	2401.03
580.66	2400.45
581.01	2399.13
581.36	2397.24
581.71	2396.20
582.06	2395.55
582.42	2394.92
582.77	2393.16
583.12	2391.88
583.47	2391.10
583.82	2390.88
584.17	2389.73
584.53	2387.88
584.88	2386.01
585.23	2384.22
585.58	2381.96
585.93	2379.97
586.28	2377.89
586.63	2375.79
586.98	2373.71
587.34	2371.92
587.69	2369.69
588.04	2367.96
588.39	2366.76
588.74	2364.56
589.09	2362.31
589.44	2359.45
589.79	2357.22
590.14	2355.51
590.49	2352.83
590.84	2349.09
591.19	2346.27
591.54	2343.24
591.89	2339.35
592.25	2336.39
592.60	2332.41
592.95	2328.52
593.30	2324.55
593.65	2320.16
594.00	2315.85
594.35	2312.85
594.70	2308.37
595.05	2303.90
595.40	2298.62
595.75	2293.26
596.10	2289.65
596.45	2284.80
596.80	2280.32
597.15	2275.29
597.50	2269.45
597.85	2264.62
598.19	2259.33
598.54	2253.58
598.89	2248.61
599.24	2244.21
599.59	2238.09
599.94	2232.70
600.29	2227.00
600.64	2221.15
600.99	2214.73
601.34	2209.48
601.69	2202.56
602.04	2196.21
602.39	2189.77
602.74	2183.89
603.08	2178.31
603.43	2171.88
603.78	2165.12
604.13	2158.06
604.48	2150.89
604.83	2145.00
605.18	2138.76
605.53	2132.05
605.87	2125.11
606.22	2118.38
606.57	2110.57
606.92	2103.03
607.27	2096.12
607.62	2089.57
607.96	2082.72
608.31	2076.36
608.66	2068.64
609.01	2061.28
609.36	2054.40
609.70	2046.63
610.05	2038.91
610.40	2030.65
610.75	2022.63
611.10	2015.11
611.44	2006.42
611.79	1997.67
612.14	1987.50
612.49	1977.17
612.83	1968.02
613.18	1959.00
613.53	1949.73
613.88	1940.21
614.22	1931.55
614.57	1921.61
614.92	1911.14
615.27	1901.21
615.61	1891.16
615.96	1881.48
616.31	1871.96
616.65	1862.67
617.00	1852.96
617.35	1843.25
617.70	1833.52
618.04	1823.10
618.39	1812.64
618.74	1803.05
619.08	1793.62
619.43	1785.12
619.78	1776.85
620.12	1768.06
620.47	1758.20
620.82	1747.91
621.16	1738.13
621.51	1728.12
621.85	1718.15
622.20	1707.60
622.55	1696.88
622.89	1686.95
623.24	1677.28
623.59	1667.48
623.93	1657.30
624.28	1647.59
624.62	1637.42
624.97	1627.24
625.32	1617.84
625.66	1609.25
626.01	1600.30
626.35	1590.72
626.70	1580.41
627.04	1570.30
627.39	1560.30
627.73	1551.00
628.08	1541.90
628.43	1532.27
628.77	1523.04
629.12	1514.28
629.46	1506.53
629.81	1498.09
630.15	1488.45
630.50	1478.55
630.84	1468.08
631.19	1458.10
631.53	1448.65
631.88	1438.50
632.22	1428.27
632.57	1418.78
632.91	1408.45
633.26	1398.63
633.60	1389.12
633.95	1379.98
634.29	1370.51
634.64	1361.04
634.98	1351.11
635.32	1341.83
635.67	1333.35
636.01	1324.14
636.36	1314.28
636.70	1304.54
637.05	1295.21
637.39	1286.24
637.73	1277.58
638.08	1270.08
638.42	1261.69
638.77	1252.88
639.11	1244.61
639.45	1236.79
639.80	1228.06
640.14	1219.48
640.49	1210.56
640.83	1201.71
641.17	1193.59
641.52	1185.34
641.86	1176.74
642.20	1168.83
642.55	1160.22
642.89	1151.24
643.23	1142.44
643.58	1134.39
643.92	1125.41
644.26	1116.70
644.61	1108.26
644.95	1099.52
645.29	1090.05
645.64	1080.93
645.98	1072.53
646.32	1064.56
646.66	1056.02
647.01	1047.62
647.35	1039.43
647.69	1031.06
648.04	1022.65
648.38	1013.62
648.72	1004.75
649.06	996.35
649.41	988.19
649.75	980.11
650.09	972.19
650.43	964.09
650.78	955.80
651.12	948.17
651.46	940.83
651.80	933.50
652.14	926.17
652.49	918.75
652.83	911.38
653.17	903.64
653.51	896.06
653.85	888.81
654.20	881.59
654.54	874.00
654.88	866.85
655.22	859.74
655.56	852.88
655.90	846.14
656.25	839.45
656.59	832.47
656.93	825.54
657.27	818.46
657.61	811.69
657.95	805.62
658.29	799.74
658.64	793.53
658.98	787.14
659.32	780.57
659.66	774.30
660.00	768.07
660.34	762.16
660.68	756.08
661.02	749.88
661.36	744.10
661.70	738.36
662.05	732.74
662.39	727.25
662.73	721.84
663.07	716.54
663.41	711.09
663.75	705.48
664.09	699.92
664.43	694.57
664.77	689.24
665.11	683.43
665.45	677.68
665.79	671.93
666.13	666.30
666.47	660.89
666.81	655.60
667.15	650.35
667.49	645.15
667.83	639.97
668.17	634.80
668.51	629.73
668.85	624.90
669.19	620.02
669.53	615.14
669.87	610.15
670.21	605.46
670.55	600.72
670.89	596.42
671.23	592.20
671.57	587.96
671.91	583.69
672.25	579.64
672.58	575.46
672.92	571.46
673.26	567.55
673.60	563.75
673.94	560.01
674.28	556.33
674.62	552.59
674.96	548.85
675.30	545.42
675.64	541.76
675.97	538.24
676.31	534.72
676.65	531.15
676.99	527.70
677.33	523.94
677.67	520.35
678.01	516.56
678.34	512.86
678.68	509.36
679.02	505.81
679.36	502.14
679.70	498.58
680.04	495.14
680.37	491.86
680.71	488.58
681.05	485.41
681.39	482.28
681.73	479.20
682.06	476.27
682.40	473.11
682.74	470.01
683.08	466.81
683.42	463.73
683.75	460.78
684.09	457.83
684.43	455.02
684.77	452.13
685.10	449.35
685.44	446.46
685.78	443.60
686.12	440.92
686.45	438.34
686.79	435.73
687.13	433.21
687.46	430.58
687.80	427.95
688.14	425.18
688.48	422.66
688.81	420.00
689.15	417.46
689.49	414.96
689.82	412.50
690.16	409.98
690.50	407.53
690.83	405.10
691.17	402.64
691.51	400.29
691.84	398.18
692.18	395.97
692.52	393.85
692.85	391.73
693.19	389.58
693.52	387.40
693.86	385.25
694.20	383.12
694.53	381.09
694.87	378.95
695.21	376.86
695.54	374.70
695.88	372.69
696.21	370.49
696.55	368.40
696.88	366.37
697.22	364.47
697.56	362.62
697.89	360.85
698.23	359.15
698.56	357.36
698.90	355.57
699.23	353.72
699.57	351.94
699.90	350.17
700.24	348.40
700.58	346.67
700.91	345.06
701.25	343.57
701.58	341.97
701.92	340.44
702.25	338.93
702.59	337.41
702.92	335.86
703.26	334.37
703.59	333.02
703.93	331.82
704.26	330.44
704.60	328.97
704.93	327.49
705.26	326.01
705.60	324.59
705.93	323.13
706.27	321.88
706.60	320.65
706.94	319.43
707.27	318.09
707.61	316.80
707.94	315.50
708.27	313.99
708.61	312.55
708.94	311.19
709.28	309.90
709.61	308.64
709.94	307.45
710.28	306.32
710.61	305.14
710.95	303.75
711.28	302.71
711.61	301.55
711.95	300.48
712.28	299.34
712.61	298.20
712.95	297.17
713.28	296.15
713.61	295.03
713.95	293.90
714.28	292.94
714.61	291.92
714.95	290.93
715.28	289.97
715.61	289.01
715.95	288.12
716.28	287.20
716.61	286.32
716.95	285.36
717.28	284.43
717.61	283.52
717.94	282.67
718.28	281.65
718.61	280.82
718.94	279.87
719.27	279.05
719.61	278.26
719.94	277.44
720.27	276.49
720.60	275.71
720.94	274.97
721.27	274.23
721.60	273.58
721.93	272.85
722.27	272.20
722.60	271.57
722.93	270.89
723.26	270.29
723.59	269.60
723.93	269.03
724.26	268.42
724.59	267.77
724.92	267.17
725.25	266.65
725.59	266.09
725.92	265.61
726.25	265.03
726.58	264.43
726.91	263.87
727.24	263.36
727.57	262.79
727.91	262.15
728.24	261.59
728.57	261.02
728.90	260.50
729.23	259.91
729.56	259.51
729.89	258.96
730.22	258.40
730.55	257.87
730.89	257.35
731.22	256.83
731.55	256.38
731.88	255.89
732.21	255.36
732.54	254.83
732.87	254.35
733.20	253.90
733.53	253.45
733.86	253.03
734.19	252.58
734.52	252.14
734.85	251.87
735.18	251.44
735.51	251.06
735.84	250.64
736.17	250.29
736.50	249.73
736.83	249.58
737.16	249.18
737.49	248.84
737.82	248.48
738.15	248.21
738.48	247.83
738.81	247.47
739.14	247.12
739.47	246.80
739.80	246.42
740.13	246.05
740.46	245.69
740.79	245.32
741.12	244.96
741.45	244.63
741.78	244.22
742.11	243.96
742.44	243.59
742.77	243.32
743.10	242.99
743.43	242.70
743.75	242.17
744.08	242.11
744.41	241.72
744.74	241.35
745.07	240.91
745.40	240.64
745.73	240.37
746.06	240.04
746.39	239.72
746.71	239.38
747.04	239.07
747.37	238.77
747.70	238.49
748.03	238.20
748.36	237.94
748.68	237.68
749.01	237.31
749.34	237.05
749.67	236.75
750.00	236.49
750.33	236.37
750.65	236.09
750.98	235.62
751.31	235.44
751.64	235.21
751.97	235.12
752.29	234.83
752.62	234.47
752.95	234.24
753.28	234.00
753.60	233.80
753.93	233.62
754.26	233.40
754.59	233.12
754.91	232.85
755.24	232.64
755.57	232.40
755.90	232.23
756.22	231.97
756.55	231.73
756.88	231.51
757.20	231.17
757.53	230.95
757.86	230.72
758.19	230.53
758.51	230.33
758.84	230.03
759.17	229.82
759.49	229.70
759.82	229.61
760.15	229.45
760.47	229.27
760.80	229.04
761.13	228.90
761.45	228.71
761.78	228.57
762.11	228.36
762.43	228.16
762.76	227.97
763.08	227.86
763.41	227.75
763.74	227.60
764.06	227.45
764.39	227.32
764.71	227.16
765.04	226.99
765.37	226.87
765.69	226.73
766.02	226.61
766.34	226.45
766.67	226.25
767.00	226.15
767.32	226.14
767.65	226.14
767.97	225.98
768.30	225.87
768.62	225.75
768.95	225.62
769.27	225.50
769.60	225.41
769.92	225.22
770.25	225.05
770.57	224.92
770.90	224.80
771.22	224.70
771.55	224.61
771.87	224.54
772.20	224.40
772.52	224.44
772.85	224.60
773.17	224.51
773.50	224.39
773.82	224.23
774.15	224.03
774.47	223.83
774.80	223.76
775.12	223.67
775.45	223.56
775.77	223.50
776.09	223.41
776.42	223.30
776.74	223.29
777.07	223.18
777.39	223.10
777.72	222.99
778.04	222.92
778.36	222.82
778.69	222.75
779.01	222.70
779.33	222.43
779.66	222.10
779.98	221.98
780.31	221.89
780.63	221.90
780.95	221.86
781.28	221.75
781.60	221.64
781.92	221.57
782.25	221.53
782.57	221.46
782.89	221.43
783.22	221.36
783.54	221.28
783.86	221.23
784.19	221.14
784.51	221.11
784.83	221.00
785.16	220.92
785.48	220.81
785.80	220.70
786.12	220.68
786.45	220.65
786.77	220.61
787.09	220.57
787.42	220.44
787.74	220.38
788.06	220.35
788.38	220.30
788.71	220.23
789.03	220.21
789.35	220.17
789.67	220.10
789.99	220.07
790.32	219.99
790.64	219.98
790.96	220.16
791.28	220.06
791.61	220.03
791.93	220.05
792.25	219.98
792.57	220.09
792.89	220.03
793.21	219.98
793.54	219.94
793.86	219.86
794.18	219.80
794.50	219.75
794.82	219.72
795.14	219.73
795.47	219.71
795.79	219.65
796.11	219.57
796.43	219.54
796.75	219.48
797.07	219.45
797.39	219.39
797.71	219.17
798.04	219.16
798.36	219.12
798.68	219.07
799.00	219.07
799.32	218.94
799.64	218.93
799.96	218.90
800.28	218.90
800.60	218.88
800.92	218.89
801.24	218.81
801.56	218.79
801.89	218.70
802.21	218.69
802.53	218.60
802.85	218.64
803.17	218.68
803.49	218.63
803.81	218.57
804.13	218.54
804.45	218.51
804.77	218.50
805.09	218.46
805.41	218.38
805.73	218.32
806.05	218.23
806.37	218.20
806.69	218.17
807.01	218.12
807.33	218.10
807.65	217.98
807.97	218.08
808.28	218.04
808.60	218.05
808.92	217.97
809.24	218.09
809.56	218.01
809.88	217.90
810.20	217.87
810.52	217.88
810.84	217.80
811.16	217.75
811.48	217.69
811.80	217.73
812.12	217.74
812.43	217.75
812.75	217.75
813.07	217.68
813.39	217.65
813.71	217.62
814.03	217.57
814.35	217.57
814.67	217.44
814.98	217.39
815.30	217.33
815.62	217.30
815.94	217.13
816.26	217.12
816.58	217.11
816.89	217.09
817.21	217.03
817.53	217.03
817.85	216.99
818.17	217.00
818.48	216.91
818.80	216.89
819.12	216.85
819.44	216.79
819.76	216.77
820.07	216.72
820.39	216.69
820.71	216.70
821.03	216.69
821.34	216.67
821.66	216.69
821.98	216.70
822.30	216.68
822.61	216.78
822.93	216.73
823.25	216.65
823.57	216.64
823.88	216.69
824.20	216.69
824.52	216.74
824.83	216.68
825.15	216.63
825.47	216.64
825.79	216.62
826.10	216.60
826.42	216.60
826.74	216.64
827.05	216.64
827.37	216.65
827.69	216.62
828.00	216.62
828.32	216.58
828.64	216.54
828.95	216.64
829.27	216.58
829.58	216.61
829.90	216.66
830.22	216.67
830.53	216.60
830.85	216.56
831.17	216.49
831.48	216.51
831.80	216.53
832.11	216.49
832.43	216.49
832.75	216.49
833.06	216.61
833.38	216.52
833.69	216.50
834.01	216.49
834.32	216.50
834.64	216.49
834.96	216.50
835.27	216.50
835.59	216.43
835.90	216.38
836.22	216.36
836.53	216.33
836.85	216.29
837.16	216.50
837.48	216.52
837.79	216.58
838.11	216.60
838.42	216.59
838.74	216.63
839.05	216.60
839.37	216.57
839.68	216.44
840.00	216.43
840.31	216.46
840.63	216.40
840.94	216.38
841.26	216.36
841.57	216.33
841.88	216.35
842.20	216.30
842.51	216.31
842.83	216.29
843.14	216.48
843.46	216.50
843.77	216.33
844.08	216.30
844.40	216.23
844.71	216.17
845.03	216.15
845.34	216.13
845.65	216.09
845.97	216.10
846.28	216.11
846.60	216.11
846.91	216.07
847.22	216.10
847.54	216.13
847.85	216.11
848.16	216.10
848.48	216.08
848.79	216.18
849.10	216.17
849.42	216.15
849.73	215.94
850.04	215.93
850.36	215.87
850.67	215.89
850.98	215.89
851.30	215.95
851.61	215.94
851.92	215.91
852.23	216.00
852.55	216.01
852.86	215.99
853.17	216.00
853.49	216.05
853.80	216.06
854.11	216.05
854.42	216.07
854.74	216.06
855.05	216.06
855.36	215.93
855.67	215.95
855.99	215.99
856.30	216.25
856.61	216.21
856.92	216.21
857.23	216.22
857.55	216.15
857.86	216.11
858.17	216.14
858.48	216.10
858.79	216.03
859.11	216.03
859.42	216.04
859.73	216.01
860.04	216.01
860.35	215.92
860.66	215.89
860.98	215.90
861.29	215.91
861.60	215.87
861.91	215.90
862.22	215.82
862.53	215.79
862.84	215.51
863.16	215.59
863.47	215.57
863.78	215.55
864.09	215.60
864.40	215.62
864.71	215.63
865.02	215.68
865.33	215.65
865.64	215.64
865.95	215.60
866.27	215.73
866.58	215.70
866.89	215.73
867.20	215.71
867.51	215.66
867.82	215.64
868.13	215.71
868.44	215.67
868.75	215.72
869.06	215.74
869.37	215.76
869.68	215.65
869.99	215.70
870.30	215.70
870.61	215.71
870.92	215.68
871.23	215.65
871.54	215.67
871.85	215.74
872.16	215.75
872.47	215.75
872.78	215.66
873.09	215.67
873.40	215.65
873.71	215.68
874.02	215.69
874.33	215.67
874.64	215.60
874.95	215.65
875.26	215.61
875.56	215.58
875.87	215.55
876.18	215.56
876.49	215.73
876.80	215.69
877.11	215.65
877.42	215.65
877.73	215.64
878.04	215.65
878.35	215.63
878.66	215.65
878.96	215.64
879.27	215.61
879.58	215.57
879.89	215.58
880.20	215.62
880.51	215.62
880.82	215.62
881.12	215.64
881.43	215.62
881.74	215.60
882.05	215.58
882.36	215.63
882.67	215.66
882.97	215.47
883.28	215.47
883.59	215.51
883.90	215.53
884.21	215.57
884.51	215.51
884.82	215.51
885.13	215.50
885.44	215.52
885.74	215.57
886.05	215.56
886.36	215.57
886.67	215.50
886.98	215.58
887.28	215.60
887.59	215.60
887.90	215.61
888.20	215.60
888.51	215.64
888.82	215.58
889.13	215.59
889.43	215.74
889.74	215.72
890.05	215.69
890.35	215.68
890.66	215.61
890.97	215.59
891.28	215.56
891.58	215.53
891.89	215.51
892.20	215.47
892.50	215.48
892.81	215.43
893.12	215.42
893.42	215.34
893.73	215.33
894.04	215.29
894.34	215.31
894.65	215.31
894.95	215.30
895.26	215.31
895.57	215.37
895.87	215.15
896.18	215.20
896.48	215.21
896.79	215.21
897.10	215.26
897.40	215.30
897.71	215.30
898.01	215.28
898.32	215.31
898.63	215.31
898.93	215.31
899.24	215.32
899.54	215.29
899.85	215.32
900.15	215.31
900.46	215.34
900.76	215.34
901.07	215.36
901.38	215.37
901.68	215.38
901.99	215.32
902.29	215.36
902.60	215.35
902.90	215.34
903.21	215.29
903.51	215.27
903.82	215.31
904.12	215.32
904.43	215.30
904.73	215.28
905.03	215.30
905.34	215.47
905.64	215.47
905.95	215.49
906.25	215.47
906.56	215.50
906.86	215.49
907.17	215.47
907.47	215.46
907.77	215.42
908.08	215.38
908.38	215.35
908.69	215.34
908.99	215.35
909.30	215.36
909.60	215.38
909.90	215.37
910.21	215.32
910.51	215.27
910.81	215.28
911.12	215.31
911.42	215.31
911.73	215.09
912.03	215.10
912.33	215.13
912.64	215.13
912.94	215.11
913.24	215.08
913.55	215.07
913.85	215.05
914.15	215.12
914.46	215.17
914.76	215.18
915.06	215.22
915.37	215.21
915.67	215.20
915.97	215.19
916.27	215.16
916.58	215.15
916.88	215.14
917.18	215.14
917.49	215.25
917.79	215.22
918.09	215.27
918.39	215.31
918.70	215.29
919.00	215.30
919.30	215.41
919.60	215.40
919.91	215.37
920.21	215.37
920.51	215.30
920.81	215.24
921.12	215.26
921.42	215.25
921.72	215.24
922.02	215.22
922.32	215.24
922.63	215.23
922.93	215.34
923.23	215.37
923.53	215.36
923.83	215.20
924.13	215.28
924.44	215.27
924.74	215.32
925.04	215.40
925.34	215.37
925.64	215.25
925.94	215.25
926.24	215.38
926.55	215.39
926.85	215.41
927.15	215.45
927.45	215.43
927.75	215.40
928.05	215.39
928.35	215.43
928.65	215.47
928.95	215.51
929.26	215.47
929.56	215.50
929.86	215.49
930.16	215.47
930.46	215.42
930.76	215.41
931.06	215.32
931.36	215.23
931.66	215.28
931.96	215.29
932.26	215.31
932.56	215.18
932.86	215.21
933.16	215.23
933.46	215.20
933.76	215.19
934.06	215.22
934.36	215.29
934.66	215.27
934.96	215.25
935.26	215.25
935.56	215.26
935.86	215.19
936.16	215.18
936.46	215.20
936.76	215.16
937.06	215.14
937.36	215.14
937.66	215.16
937.96	215.12
938.26	215.07
938.56	215.08
938.86	215.11
939.16	215.13
939.46	215.15
939.76	215.21
940.06	215.19
940.35	215.19
940.65	215.10
940.95	215.13
941.25	215.08
941.55	215.04
941.85	215.00
942.15	215.05
942.45	215.10
942.75	215.10
943.04	215.16
943.34	215.16
943.64	215.15
943.94	215.12
944.24	215.14
944.54	215.15
944.84	215.14
945.13	215.10
945.43	215.07
945.73	215.05
946.03	214.98
946.33	214.97
946.62	214.95
946.92	214.93
947.22	214.92
947.52	214.96
947.82	214.99
948.11	214.96
948.41	214.91
948.71	214.83
949.01	214.85
949.31	214.83
949.60	214.81
949.90	214.85
950.20	214.85
950.50	214.86
950.79	214.87
951.09	214.90
951.39	214.93
951.69	214.92
951.98	214.95
952.28	214.98
952.58	214.95
952.87	214.94
953.17	214.99
953.47	214.98
953.76	214.95
954.06	214.94
954.36	214.93
954.66	214.93
954.95	215.01
955.25	214.99
955.55	214.99
955.84	214.99
956.14	214.98
956.44	215.01
956.73	214.96
957.03	214.98
957.32	214.97
957.62	214.93
957.92	214.96
958.21	214.91
958.51	215.13
958.81	215.17
959.10	215.18
959.40	215.22
959.69	215.20
959.99	215.22
960.29	215.18
960.58	215.19
960.88	215.27
961.17	215.25
961.47	215.30
961.76	215.27
962.06	215.33
962.36	215.30
962.65	215.31
962.95	215.32
963.24	215.27
963.54	215.29
963.83	215.30
964.13	215.28
964.42	215.27
964.72	215.11
965.01	215.13
965.31	215.13
965.60	215.08
965.90	215.24
966.19	215.20
966.49	215.25
966.78	215.26
967.08	215.25
967.37	215.25
967.67	215.22
967.96	215.27
968.26	215.24
968.55	215.27
968.85	215.25
969.14	215.24
969.43	215.26
969.73	215.22
970.02	215.20
970.32	215.19
970.61	215.16
970.91	215.09
971.20	215.07
971.49	215.03
971.79	215.04
972.08	214.86
972.38	214.88
972.67	214.86
972.96	214.85
973.26	214.81
973.55	214.89
973.85	214.84
974.14	214.82
974.43	214.84
974.73	214.80
975.02	214.79
975.31	214.80
975.61	214.79
975.90	214.81
976.19	214.83
976.49	214.88
976.78	214.90
977.07	214.89
977.37	214.89
977.66	214.94
977.95	214.91
978.24	214.96
978.54	214.98
978.83	214.98
979.12	214.98
979.42	214.96
979.71	214.92
980.00	214.92
980.29	214.91
980.59	214.86
980.88	214.91
981.17	214.91
981.46	214.92
981.76	214.92
982.05	214.96
982.34	214.95
982.63	214.89
982.93	214.89
983.22	214.96
983.51	214.99
983.80	215.01
984.09	215.04
984.39	214.99
984.68	214.99
984.97	214.98
985.26	214.97
985.55	215.01
985.85	214.95
986.14	214.99
986.43	215.05
986.72	215.04
987.01	214.98
987.30	214.98
987.59	214.97
987.89	214.97
988.18	214.90
988.47	214.90
988.76	214.89
989.05	214.88
989.34	214.84
989.63	214.88
989.92	214.83
990.22	214.81
990.51	214.86
990.80	214.82
991.09	214.81
991.38	214.85
991.67	214.80
991.96	214.77
992.25	214.79
992.54	214.74
992.83	214.76
993.12	214.78
993.41	214.83
993.70	214.88
993.99	214.91
994.28	214.96
994.58	215.01
994.87	215.01
995.16	215.02
995.45	215.00
995.74	214.92
996.03	214.97
996.32	215.01
996.61	215.01
996.90	215.04
997.19	215.07
997.48	215.06
997.77	215.06
998.06	215.09
998.34	215.01
998.63	215.02
998.92	215.02
999.21	215.05
999.50	215.04
999.79	215.01
1000.08	215.01
1000.37	215.00
1000.66	214.98
1000.95	215.02
1001.24	215.01
1001.53	215.06
1001.82	215.04
1002.11	215.02
1002.40	215.00
1002.68	215.08
1002.97	215.18
1003.26	215.16
1003.55	215.13
1003.84	215.15
1004.13	215.24
1004.42	215.28
1004.71	215.28
1004.99	215.28
1005.28	215.30
1005.57	215.26
1005.86	215.24
1006.15	215.23
1006.44	215.22
1006.72	215.22
1007.01	215.23
1007.30	215.25
1007.59	215.22
1007.88	215.25
1008.17	215.25
1008.45	215.19
1008.74	215.09
1009.03	215.02
1009.32	215.04
1009.60	215.03
1009.89	215.01
1010.18	214.96
1010.47	214.94
1010.76	214.91
1011.04	214.90
1011.33	214.89
1011.62	214.91
1011.91	214.93
1012.19	214.94
1012.48	214.95
1012.77	214.95
1013.05	215.05
1013.34	215.03
1013.63	215.03
1013.92	215.07
1014.20	215.07
1014.49	215.13
1014.78	215.15
1015.06	215.12
1015.35	215.12
1015.64	215.16
1015.92	215.24
1016.21	215.21
1016.50	215.25
1016.78	215.29
1017.07	215.33
1017.36	215.27
1017.64	215.24
1017.93	215.24
1018.22	215.23
1018.50	215.20
1018.79	215.19
1019.08	215.09
1019.36	215.12
1019.65	215.09
1019.93	215.08
1020.22	215.11
1020.51	215.20
1020.79	215.18
1021.08	215.03
1021.36	214.56
1021.65	215.07
1021.94	215.19
1022.22	215.16
1022.51	214.55
1022.79	215.31
1023.08	215.68
1023.36	217.51
1023.65	214.63
>>>>>End Processed Spectral Data<<<<<
