SpectraSuite Data File
++++++++++++++++++++++++++++++++++++
Date: Tue Jan 29 16:18:52 EST 2013
User: group
Dark Spectrum Present: No
Reference Spectrum Present: No
Number of Sampled Component Spectra: 1
Spectrometers: USB2E7196
Integration Time (usec): 65000 (USB2E7196)
Spectra Averaged: 100 (USB2E7196)
Boxcar Smoothing: 10 (USB2E7196)
Correct for Electrical Dark: No (USB2E7196)
Strobe/Lamp Enabled: No (USB2E7196)
Correct for Detector Non-linearity: No (USB2E7196)
Correct for Stray Light: No (USB2E7196)
Number of Pixels in Processed Spectrum: 2048
>>>>>Begin Processed Spectral Data<<<<<
339.09	0.00
339.48	202.56
339.86	203.36
340.24	205.41
340.63	206.98
341.01	211.36
341.39	209.50
341.78	211.26
342.16	212.22
342.54	212.79
342.93	201.76
343.31	211.97
343.69	212.51
344.07	213.01
344.46	213.45
344.84	213.86
345.22	214.02
345.60	214.29
345.99	214.47
346.37	214.65
346.75	214.75
347.13	214.84
347.52	214.90
347.90	215.03
348.28	215.05
348.66	215.12
349.05	215.08
349.43	215.17
349.81	215.19
350.19	215.24
350.57	215.33
350.96	215.39
351.34	215.46
351.72	215.55
352.10	215.64
352.48	215.71
352.87	215.73
353.25	215.79
353.63	215.84
354.01	215.89
354.39	215.91
354.77	215.99
355.15	216.08
355.54	216.12
355.92	216.08
356.30	216.14
356.68	216.33
357.06	216.43
357.44	216.42
357.82	216.48
358.20	216.59
358.58	216.63
358.97	216.71
359.35	216.83
359.73	216.94
360.11	217.00
360.49	217.08
360.87	217.12
361.25	217.20
361.63	217.31
362.01	217.35
362.39	217.39
362.77	217.44
363.15	217.49
363.53	217.55
363.91	217.60
364.29	217.63
364.67	217.42
365.05	217.44
365.43	217.49
365.81	217.53
366.19	217.61
366.57	217.67
366.95	217.66
367.33	217.61
367.71	217.58
368.09	217.60
368.47	217.57
368.85	217.57
369.23	217.60
369.61	217.52
369.99	217.59
370.37	217.60
370.75	217.66
371.13	217.58
371.51	217.54
371.89	217.54
372.27	217.55
372.65	217.54
373.03	217.52
373.41	217.50
373.78	217.47
374.16	217.31
374.54	217.26
374.92	217.20
375.30	217.16
375.68	217.13
376.06	217.13
376.44	217.08
376.82	217.05
377.19	217.00
377.57	216.98
377.95	216.85
378.33	216.81
378.71	216.65
379.09	216.61
379.47	216.58
379.84	216.51
380.22	216.45
380.60	216.42
380.98	216.37
381.36	216.34
381.73	216.26
382.11	216.28
382.49	216.23
382.87	216.17
383.25	216.15
383.62	216.31
384.00	216.22
384.38	216.20
384.76	216.19
385.13	216.22
385.51	216.17
385.89	216.13
386.27	216.10
386.64	216.09
387.02	216.08
387.40	216.04
387.78	216.03
388.15	216.03
388.53	215.98
388.91	215.95
389.29	215.87
389.66	215.91
390.04	215.85
390.42	215.85
390.79	215.86
391.17	215.81
391.55	215.58
391.92	215.56
392.30	215.58
392.68	215.50
393.05	215.47
393.43	215.48
393.81	215.51
394.18	215.48
394.56	215.53
394.94	215.59
395.31	215.55
395.69	215.62
396.06	215.64
396.44	215.70
396.82	215.71
397.19	215.84
397.57	215.79
397.95	215.85
398.32	215.82
398.70	215.86
399.07	215.97
399.45	216.01
399.82	216.07
400.20	216.10
400.58	216.16
400.95	216.14
401.33	216.23
401.70	216.40
402.08	216.48
402.45	216.55
402.83	216.66
403.20	216.80
403.58	216.87
403.95	217.02
404.33	217.15
404.71	217.32
405.08	217.58
405.46	217.79
405.83	217.98
406.21	218.18
406.58	218.45
406.96	218.67
407.33	218.96
407.70	219.29
408.08	219.75
408.45	220.12
408.83	220.52
409.20	220.88
409.58	221.15
409.95	221.59
410.33	222.08
410.70	222.46
411.08	223.01
411.45	223.56
411.82	224.13
412.20	224.81
412.57	225.63
412.95	226.18
413.32	226.96
413.69	227.78
414.07	228.70
414.44	229.61
414.82	230.56
415.19	231.68
415.56	232.77
415.94	233.94
416.31	235.33
416.68	236.72
417.06	238.26
417.43	239.78
417.81	241.48
418.18	243.21
418.55	245.12
418.93	247.08
419.30	249.15
419.67	251.31
420.04	253.50
420.42	255.81
420.79	258.58
421.16	261.30
421.54	264.12
421.91	267.02
422.28	270.06
422.66	273.29
423.03	276.45
423.40	279.72
423.77	283.21
424.15	286.78
424.52	290.50
424.89	294.58
425.26	298.54
425.64	302.29
426.01	306.47
426.38	310.82
426.75	315.25
427.13	319.86
427.50	324.73
427.87	329.81
428.24	334.87
428.61	339.62
428.99	345.05
429.36	350.87
429.73	356.55
430.10	362.23
430.47	368.12
430.85	374.24
431.22	380.73
431.59	387.59
431.96	394.15
432.33	401.40
432.70	408.43
433.08	416.76
433.45	424.59
433.82	432.33
434.19	441.00
434.56	449.47
434.93	457.54
435.30	465.54
435.68	474.40
436.05	483.12
436.42	491.82
436.79	499.68
437.16	508.23
437.53	517.32
437.90	526.24
438.27	534.96
438.64	543.96
439.01	552.33
439.38	559.73
439.75	566.92
440.13	575.14
440.50	582.93
440.87	589.10
441.24	595.57
441.61	602.75
441.98	607.99
442.35	614.13
442.72	620.29
443.09	626.24
443.46	629.87
443.83	632.24
444.20	634.41
444.57	637.47
444.94	638.85
445.31	640.21
445.68	641.49
446.05	642.11
446.42	641.33
446.79	640.32
447.16	639.25
447.53	638.49
447.90	635.24
448.27	632.00
448.64	627.54
449.01	624.31
449.37	618.50
449.74	612.95
450.11	606.21
450.48	598.98
450.85	591.67
451.22	585.36
451.59	579.43
451.96	573.74
452.33	566.03
452.70	559.16
453.07	550.93
453.43	542.64
453.80	534.54
454.17	526.80
454.54	519.46
454.91	511.54
455.28	503.77
455.65	496.56
456.02	489.23
456.38	483.07
456.75	475.44
457.12	469.11
457.49	462.78
457.86	456.80
458.23	451.60
458.59	445.87
458.96	440.02
459.33	434.94
459.70	429.78
460.07	425.70
460.43	420.93
460.80	416.46
461.17	412.55
461.54	408.49
461.91	404.57
462.27	400.62
462.64	397.30
463.01	393.63
463.38	390.06
463.74	386.46
464.11	383.32
464.48	380.60
464.85	377.61
465.21	375.26
465.58	372.74
465.95	369.67
466.32	367.11
466.68	364.60
467.05	362.06
467.42	359.53
467.78	356.94
468.15	354.49
468.52	352.68
468.88	350.27
469.25	348.18
469.62	346.43
469.98	344.54
470.35	342.79
470.72	341.19
471.08	339.47
471.45	338.07
471.82	336.56
472.18	334.88
472.55	333.76
472.92	332.42
473.28	331.21
473.65	330.17
474.02	329.13
474.38	328.29
474.75	327.55
475.11	326.78
475.48	326.26
475.85	325.79
476.21	325.32
476.58	325.00
476.94	324.75
477.31	324.48
477.67	324.26
478.04	324.10
478.41	324.05
478.77	324.17
479.14	324.07
479.50	324.27
479.87	324.63
480.23	324.94
480.60	325.19
480.96	325.51
481.33	326.11
481.69	326.73
482.06	327.24
482.42	327.74
482.79	328.37
483.15	329.15
483.52	330.14
483.88	331.01
484.25	331.97
484.61	332.99
484.98	334.04
485.34	335.33
485.71	336.69
486.07	338.13
486.44	339.50
486.80	341.13
487.17	342.76
487.53	344.58
487.90	346.41
488.26	348.48
488.62	350.68
488.99	352.71
489.35	354.83
489.72	357.21
490.08	359.72
490.44	362.27
490.81	364.97
491.17	367.67
491.54	370.63
491.90	373.61
492.26	376.87
492.63	380.30
492.99	383.81
493.36	387.50
493.72	391.40
494.08	395.38
494.45	399.62
494.81	404.02
495.17	408.43
495.54	413.17
495.90	417.95
496.26	422.79
496.63	427.91
496.99	433.33
497.35	438.92
497.72	444.73
498.08	450.67
498.44	456.73
498.80	463.11
499.17	469.63
499.53	476.42
499.89	483.28
500.26	490.25
500.62	497.34
500.98	504.70
501.34	512.16
501.71	519.95
502.07	527.78
502.43	535.69
502.79	543.85
503.16	552.10
503.52	560.66
503.88	569.35
504.24	578.39
504.60	587.39
504.97	596.68
505.33	605.92
505.69	615.74
506.05	625.60
506.41	635.37
506.78	645.41
507.14	655.54
507.50	665.94
507.86	676.59
508.22	687.38
508.59	698.02
508.95	708.99
509.31	720.25
509.67	731.61
510.03	742.96
510.39	754.62
510.75	766.56
511.12	778.47
511.48	790.49
511.84	802.61
512.20	814.95
512.56	827.36
512.92	840.15
513.28	852.69
513.64	865.40
514.00	878.23
514.37	891.09
514.73	904.11
515.09	916.97
515.45	929.79
515.81	942.70
516.17	955.99
516.53	969.12
516.89	981.95
517.25	995.06
517.61	1008.51
517.97	1021.77
518.33	1034.66
518.69	1047.99
519.05	1061.54
519.41	1075.08
519.77	1088.75
520.13	1102.05
520.49	1115.11
520.85	1128.37
521.21	1141.50
521.57	1154.99
521.93	1167.96
522.29	1181.56
522.65	1195.02
523.01	1208.48
523.37	1221.44
523.73	1234.59
524.09	1247.63
524.45	1261.00
524.81	1274.32
525.17	1287.54
525.53	1300.45
525.89	1313.55
526.25	1326.54
526.61	1339.36
526.97	1352.27
527.33	1365.03
527.68	1378.26
528.04	1391.48
528.40	1404.42
528.76	1417.55
529.12	1430.09
529.48	1443.09
529.84	1455.09
530.20	1467.68
530.56	1479.98
530.91	1493.04
531.27	1505.63
531.63	1518.18
531.99	1530.64
532.35	1542.57
532.71	1554.64
533.07	1567.30
533.42	1579.38
533.78	1591.24
534.14	1602.91
534.50	1613.84
534.86	1625.23
535.21	1635.79
535.57	1647.09
535.93	1658.10
536.29	1668.89
536.65	1680.24
537.00	1691.04
537.36	1702.18
537.72	1712.87
538.08	1724.01
538.44	1734.52
538.79	1745.31
539.15	1755.86
539.51	1766.40
539.87	1777.38
540.22	1787.90
540.58	1798.58
540.94	1809.07
541.29	1818.92
541.65	1828.43
542.01	1838.71
542.37	1848.32
542.72	1858.21
543.08	1867.66
543.44	1877.81
543.79	1886.89
544.15	1896.07
544.51	1905.78
544.87	1915.40
545.22	1924.45
545.58	1933.06
545.94	1941.85
546.29	1950.18
546.65	1958.36
547.01	1966.24
547.36	1973.71
547.72	1981.39
548.07	1988.67
548.43	1996.30
548.79	2004.14
549.14	2012.09
549.50	2020.40
549.86	2028.23
550.21	2035.49
550.57	2043.03
550.92	2049.62
551.28	2056.96
551.64	2064.04
551.99	2071.34
552.35	2078.33
552.70	2085.02
553.06	2091.51
553.41	2097.75
553.77	2104.15
554.13	2110.44
554.48	2117.47
554.84	2124.49
555.19	2130.94
555.55	2137.44
555.90	2143.63
556.26	2150.33
556.61	2156.41
556.97	2161.14
557.32	2166.94
557.68	2173.37
558.03	2179.00
558.39	2184.37
558.74	2190.28
559.10	2195.81
559.45	2201.32
559.81	2206.90
560.16	2212.39
560.52	2218.33
560.87	2224.61
561.23	2230.56
561.58	2237.13
561.94	2242.38
562.29	2247.17
562.64	2253.23
563.00	2258.85
563.35	2264.53
563.71	2270.30
564.06	2275.88
564.42	2281.88
564.77	2286.90
565.12	2292.22
565.48	2297.46
565.83	2303.03
566.19	2308.39
566.54	2313.76
566.89	2318.43
567.25	2323.06
567.60	2328.84
567.96	2334.03
568.31	2338.69
568.66	2343.00
569.02	2347.14
569.37	2350.99
569.72	2355.41
570.08	2358.88
570.43	2362.09
570.78	2365.17
571.14	2367.72
571.49	2371.16
571.84	2374.79
572.20	2377.78
572.55	2380.83
572.90	2383.20
573.26	2386.19
573.61	2389.13
573.96	2391.35
574.31	2393.59
574.67	2395.52
575.02	2396.36
575.37	2397.85
575.72	2398.65
576.08	2400.13
576.43	2400.18
576.78	2400.75
577.13	2402.44
577.49	2403.70
577.84	2404.94
578.19	2406.46
578.54	2407.25
578.90	2407.93
579.25	2407.86
579.60	2407.89
579.95	2407.29
580.30	2407.65
580.66	2407.09
581.01	2405.41
581.36	2403.25
581.71	2401.86
582.06	2400.86
582.42	2400.21
582.77	2398.16
583.12	2396.72
583.47	2395.67
583.82	2395.32
584.17	2394.21
584.53	2392.23
584.88	2390.37
585.23	2388.57
585.58	2386.46
585.93	2384.76
586.28	2382.80
586.63	2380.65
586.98	2378.69
587.34	2376.94
587.69	2374.54
588.04	2372.60
588.39	2371.21
588.74	2368.94
589.09	2366.55
589.44	2363.68
589.79	2361.40
590.14	2359.62
590.49	2357.17
590.84	2353.54
591.19	2350.64
591.54	2347.65
591.89	2343.77
592.25	2340.85
592.60	2336.98
592.95	2332.99
593.30	2328.79
593.65	2324.63
594.00	2320.35
594.35	2317.45
594.70	2312.89
595.05	2308.48
595.40	2303.21
595.75	2297.72
596.10	2294.40
596.45	2289.54
596.80	2285.01
597.15	2279.88
597.50	2274.06
597.85	2269.09
598.19	2263.85
598.54	2258.09
598.89	2252.91
599.24	2248.55
599.59	2242.41
599.94	2236.73
600.29	2230.86
600.64	2225.10
600.99	2218.28
601.34	2212.89
601.69	2205.99
602.04	2199.72
602.39	2193.13
602.74	2187.08
603.08	2181.59
603.43	2175.00
603.78	2168.44
604.13	2161.54
604.48	2154.27
604.83	2148.27
605.18	2142.14
605.53	2135.36
605.87	2128.47
606.22	2121.69
606.57	2113.72
606.92	2105.79
607.27	2098.66
607.62	2092.03
607.96	2085.05
608.31	2078.70
608.66	2070.92
609.01	2063.26
609.36	2056.06
609.70	2048.38
610.05	2040.60
610.40	2032.31
610.75	2023.96
611.10	2016.05
611.44	2007.13
611.79	1998.60
612.14	1988.75
612.49	1977.98
612.83	1968.53
613.18	1959.27
613.53	1949.93
613.88	1940.57
614.22	1932.03
614.57	1922.38
614.92	1911.76
615.27	1901.50
615.61	1891.39
615.96	1881.67
616.31	1872.15
616.65	1862.82
617.00	1853.06
617.35	1843.44
617.70	1833.76
618.04	1823.86
618.39	1813.78
618.74	1804.11
619.08	1794.51
619.43	1785.78
619.78	1777.59
620.12	1769.12
620.47	1759.48
620.82	1749.33
621.16	1739.56
621.51	1729.60
621.85	1719.63
622.20	1709.34
622.55	1698.93
622.89	1689.01
623.24	1679.44
623.59	1669.74
623.93	1659.61
624.28	1649.92
624.62	1639.75
624.97	1629.49
625.32	1619.66
625.66	1610.78
626.01	1602.10
626.35	1592.63
626.70	1582.46
627.04	1572.42
627.39	1562.15
627.73	1552.88
628.08	1543.82
628.43	1534.15
628.77	1524.82
629.12	1515.91
629.46	1508.15
629.81	1499.81
630.15	1490.32
630.50	1480.40
630.84	1469.84
631.19	1459.92
631.53	1450.53
631.88	1440.36
632.22	1430.31
632.57	1420.94
632.91	1410.78
633.26	1400.83
633.60	1391.27
633.95	1382.03
634.29	1372.55
634.64	1363.31
634.98	1353.37
635.32	1344.13
635.67	1335.72
636.01	1326.54
636.36	1316.88
636.70	1307.37
637.05	1297.92
637.39	1288.97
637.73	1280.41
638.08	1272.83
638.42	1264.73
638.77	1255.96
639.11	1247.79
639.45	1240.01
639.80	1231.48
640.14	1222.72
640.49	1213.75
640.83	1205.02
641.17	1196.87
641.52	1188.72
641.86	1180.15
642.20	1172.30
642.55	1163.58
642.89	1154.60
643.23	1146.01
643.58	1137.89
643.92	1128.83
644.26	1120.17
644.61	1111.73
644.95	1102.95
645.29	1093.79
645.64	1084.60
645.98	1076.05
646.32	1068.09
646.66	1059.55
647.01	1051.32
647.35	1043.25
647.69	1035.10
648.04	1026.71
648.38	1017.89
648.72	1009.09
649.06	1000.61
649.41	992.40
649.75	984.45
650.09	976.58
650.43	968.46
650.78	960.09
651.12	952.36
651.46	944.97
651.80	937.75
652.14	930.43
652.49	922.82
652.83	915.46
653.17	907.94
653.51	900.34
653.85	893.09
654.20	885.79
654.54	878.40
654.88	871.17
655.22	864.15
655.56	857.13
655.90	850.37
656.25	843.73
656.59	836.93
656.93	829.97
657.27	822.96
657.61	816.04
657.95	810.02
658.29	804.11
658.64	797.96
658.98	791.41
659.32	784.98
659.66	778.83
660.00	772.60
660.34	766.51
660.68	760.48
661.02	754.21
661.36	748.23
661.70	742.38
662.05	736.76
662.39	731.26
662.73	725.85
663.07	720.50
663.41	715.00
663.75	709.30
664.09	703.69
664.43	698.25
664.77	692.98
665.11	687.21
665.45	681.36
665.79	675.61
666.13	670.08
666.47	664.60
666.81	659.15
667.15	653.73
667.49	648.58
667.83	643.36
668.17	638.18
668.51	633.10
668.85	628.23
669.19	623.32
669.53	618.27
669.87	613.23
670.21	608.50
670.55	603.81
670.89	599.35
671.23	595.09
671.57	590.78
671.91	586.49
672.25	582.33
672.58	578.26
672.92	574.20
673.26	570.22
673.60	566.31
673.94	562.62
674.28	559.06
674.62	555.34
674.96	551.62
675.30	548.16
675.64	544.59
675.97	541.05
676.31	537.54
676.65	533.97
676.99	530.64
677.33	526.84
677.67	523.24
678.01	519.48
678.34	515.84
678.68	512.30
679.02	508.73
679.36	505.03
679.70	501.46
680.04	497.97
680.37	494.56
680.71	491.32
681.05	488.15
681.39	484.90
681.73	481.79
682.06	478.79
682.40	475.67
682.74	472.50
683.08	469.31
683.42	466.16
683.75	463.15
684.09	460.11
684.43	457.38
684.77	454.40
685.10	451.57
685.44	448.71
685.78	445.90
686.12	443.23
686.45	440.65
686.79	437.99
687.13	435.51
687.46	433.01
687.80	430.38
688.14	427.56
688.48	425.01
688.81	422.34
689.15	419.77
689.49	417.24
689.82	414.75
690.16	412.19
690.50	409.81
690.83	407.41
691.17	404.89
691.51	402.41
691.84	400.26
692.18	398.06
692.52	395.89
692.85	393.70
693.19	391.55
693.52	389.39
693.86	387.23
694.20	385.03
694.53	382.90
694.87	380.75
695.21	378.64
695.54	376.47
695.88	374.35
696.21	372.18
696.55	370.05
696.88	368.04
697.22	366.15
697.56	364.19
697.89	362.31
698.23	360.61
698.56	358.89
698.90	357.11
699.23	355.25
699.57	353.41
699.90	351.62
700.24	349.85
700.58	348.18
700.91	346.51
701.25	344.99
701.58	343.40
701.92	341.82
702.25	340.27
702.59	338.69
702.92	337.22
703.26	335.70
703.59	334.27
703.93	332.98
704.26	331.56
704.60	330.13
704.93	328.68
705.26	327.20
705.60	325.72
705.93	324.23
706.27	322.94
706.60	321.69
706.94	320.53
707.27	319.13
707.61	317.73
707.94	316.45
708.27	314.95
708.61	313.53
708.94	312.18
709.28	310.85
709.61	309.65
709.94	308.47
710.28	307.30
710.61	306.15
710.95	304.77
711.28	303.70
711.61	302.54
711.95	301.39
712.28	300.23
712.61	299.04
712.95	298.00
713.28	297.00
713.61	295.84
713.95	294.68
714.28	293.70
714.61	292.72
714.95	291.73
715.28	290.72
715.61	289.77
715.95	288.82
716.28	287.92
716.61	286.98
716.95	285.99
717.28	285.07
717.61	284.14
717.94	283.28
718.28	282.25
718.61	281.37
718.94	280.54
719.27	279.73
719.61	278.96
719.94	278.11
720.27	277.15
720.60	276.32
720.94	275.50
721.27	274.78
721.60	274.09
721.93	273.38
722.27	272.78
722.60	272.10
722.93	271.41
723.26	270.79
723.59	270.13
723.93	269.53
724.26	268.88
724.59	268.25
724.92	267.67
725.25	267.15
725.59	266.59
725.92	266.04
726.25	265.46
726.58	264.94
726.91	264.36
727.24	263.83
727.57	263.31
727.91	262.74
728.24	262.18
728.57	261.59
728.90	261.05
729.23	260.44
729.56	259.99
729.89	259.48
730.22	258.91
730.55	258.35
730.89	257.78
731.22	257.28
731.55	256.76
731.88	256.24
732.21	255.73
732.54	255.21
732.87	254.67
733.20	254.18
733.53	253.70
733.86	253.25
734.19	252.77
734.52	252.35
734.85	252.06
735.18	251.58
735.51	251.24
735.84	250.83
736.17	250.44
736.50	249.94
736.83	249.76
737.16	249.38
737.49	249.02
737.82	248.60
738.15	248.26
738.48	247.88
738.81	247.49
739.14	247.08
739.47	246.70
739.80	246.37
740.13	246.02
740.46	245.64
740.79	245.27
741.12	244.95
741.45	244.62
741.78	244.18
742.11	243.95
742.44	243.50
742.77	243.20
743.10	242.87
743.43	242.53
743.75	242.01
744.08	241.95
744.41	241.59
744.74	241.27
745.07	240.88
745.40	240.59
745.73	240.36
746.06	240.05
746.39	239.77
746.71	239.44
747.04	239.09
747.37	238.76
747.70	238.45
748.03	238.11
748.36	237.79
748.68	237.50
749.01	237.11
749.34	236.87
749.67	236.56
750.00	236.30
750.33	236.20
750.65	235.91
750.98	235.38
751.31	235.13
751.64	234.91
751.97	234.81
752.29	234.53
752.62	234.19
752.95	233.95
753.28	233.70
753.60	233.46
753.93	233.31
754.26	233.09
754.59	232.81
754.91	232.61
755.24	232.40
755.57	232.13
755.90	231.94
756.22	231.70
756.55	231.47
756.88	231.22
757.20	230.86
757.53	230.62
757.86	230.43
758.19	230.26
758.51	230.05
758.84	229.72
759.17	229.52
759.49	229.35
759.82	229.25
760.15	229.10
760.47	228.92
760.80	228.68
761.13	228.54
761.45	228.40
761.78	228.20
762.11	228.04
762.43	227.89
762.76	227.73
763.08	227.58
763.41	227.43
763.74	227.29
764.06	227.12
764.39	226.99
764.71	226.84
765.04	226.69
765.37	226.51
765.69	226.39
766.02	226.30
766.34	226.15
766.67	225.95
767.00	225.85
767.32	225.82
767.65	225.82
767.97	225.66
768.30	225.56
768.62	225.45
768.95	225.30
769.27	225.22
769.60	225.12
769.92	224.97
770.25	224.82
770.57	224.67
770.90	224.53
771.22	224.40
771.55	224.27
771.87	224.16
772.20	224.07
772.52	224.12
772.85	224.27
773.17	224.16
773.50	224.06
773.82	223.93
774.15	223.73
774.47	223.48
774.80	223.38
775.12	223.28
775.45	223.19
775.77	223.12
776.09	223.04
776.42	222.96
776.74	222.95
777.07	222.86
777.39	222.80
777.72	222.76
778.04	222.72
778.36	222.66
778.69	222.58
779.01	222.54
779.33	222.29
779.66	221.95
779.98	221.83
780.31	221.75
780.63	221.74
780.95	221.69
781.28	221.64
781.60	221.59
781.92	221.54
782.25	221.47
782.57	221.41
782.89	221.34
783.22	221.24
783.54	221.11
783.86	221.09
784.19	221.00
784.51	220.99
784.83	220.86
785.16	220.80
785.48	220.73
785.80	220.64
786.12	220.59
786.45	220.54
786.77	220.52
787.09	220.45
787.42	220.33
787.74	220.32
788.06	220.25
788.38	220.16
788.71	220.05
789.03	220.01
789.35	219.94
789.67	219.84
789.99	219.80
790.32	219.74
790.64	219.69
790.96	219.82
791.28	219.70
791.61	219.65
791.93	219.60
792.25	219.58
792.57	219.67
792.89	219.59
793.21	219.55
793.54	219.48
793.86	219.43
794.18	219.39
794.50	219.26
794.82	219.21
795.14	219.21
795.47	219.21
795.79	219.17
796.11	219.10
796.43	219.05
796.75	219.00
797.07	218.99
797.39	218.94
797.71	218.72
798.04	218.69
798.36	218.68
798.68	218.63
799.00	218.57
799.32	218.44
799.64	218.48
799.96	218.40
800.28	218.41
800.60	218.36
800.92	218.34
801.24	218.32
801.56	218.32
801.89	218.26
802.21	218.23
802.53	218.14
802.85	218.13
803.17	218.21
803.49	218.15
803.81	218.10
804.13	218.02
804.45	217.99
804.77	217.95
805.09	217.93
805.41	217.88
805.73	217.81
806.05	217.71
806.37	217.64
806.69	217.61
807.01	217.56
807.33	217.55
807.65	217.45
807.97	217.55
808.28	217.49
808.60	217.48
808.92	217.42
809.24	217.55
809.56	217.50
809.88	217.42
810.20	217.43
810.52	217.47
810.84	217.42
811.16	217.37
811.48	217.36
811.80	217.39
812.12	217.35
812.43	217.37
812.75	217.36
813.07	217.28
813.39	217.29
813.71	217.23
814.03	217.16
814.35	217.15
814.67	217.00
814.98	216.97
815.30	216.92
815.62	216.87
815.94	216.71
816.26	216.70
816.58	216.65
816.89	216.65
817.21	216.59
817.53	216.60
817.85	216.56
818.17	216.54
818.48	216.46
818.80	216.52
819.12	216.46
819.44	216.41
819.76	216.40
820.07	216.37
820.39	216.36
820.71	216.39
821.03	216.38
821.34	216.35
821.66	216.36
821.98	216.36
822.30	216.34
822.61	216.44
822.93	216.41
823.25	216.36
823.57	216.29
823.88	216.30
824.20	216.27
824.52	216.34
824.83	216.33
825.15	216.31
825.47	216.31
825.79	216.31
826.10	216.32
826.42	216.31
826.74	216.33
827.05	216.33
827.37	216.33
827.69	216.33
828.00	216.32
828.32	216.28
828.64	216.26
828.95	216.34
829.27	216.28
829.58	216.29
829.90	216.34
830.22	216.35
830.53	216.28
830.85	216.28
831.17	216.21
831.48	216.16
831.80	216.14
832.11	216.08
832.43	216.07
832.75	216.03
833.06	216.16
833.38	216.09
833.69	216.07
834.01	216.08
834.32	216.06
834.64	216.06
834.96	216.06
835.27	216.05
835.59	216.00
835.90	215.97
836.22	215.91
836.53	215.85
836.85	215.82
837.16	216.05
837.48	216.03
837.79	216.09
838.11	216.11
838.42	216.10
838.74	216.12
839.05	216.09
839.37	216.11
839.68	215.96
840.00	215.95
840.31	215.96
840.63	215.93
840.94	215.90
841.26	215.86
841.57	215.84
841.88	215.88
842.20	215.80
842.51	215.78
842.83	215.80
843.14	215.99
843.46	216.00
843.77	215.86
844.08	215.86
844.40	215.78
844.71	215.78
845.03	215.78
845.34	215.73
845.65	215.69
845.97	215.69
846.28	215.70
846.60	215.72
846.91	215.70
847.22	215.70
847.54	215.73
847.85	215.74
848.16	215.74
848.48	215.68
848.79	215.80
849.10	215.79
849.42	215.79
849.73	215.58
850.04	215.56
850.36	215.49
850.67	215.51
850.98	215.51
851.30	215.51
851.61	215.49
851.92	215.50
852.23	215.59
852.55	215.56
852.86	215.56
853.17	215.55
853.49	215.56
853.80	215.56
854.11	215.57
854.42	215.61
854.74	215.58
855.05	215.60
855.36	215.46
855.67	215.47
855.99	215.47
856.30	215.72
856.61	215.72
856.92	215.69
857.23	215.68
857.55	215.68
857.86	215.66
858.17	215.68
858.48	215.61
858.79	215.60
859.11	215.62
859.42	215.63
859.73	215.58
860.04	215.58
860.35	215.53
860.66	215.45
860.98	215.42
861.29	215.44
861.60	215.40
861.91	215.46
862.22	215.41
862.53	215.37
862.84	215.12
863.16	215.17
863.47	215.14
863.78	215.14
864.09	215.14
864.40	215.13
864.71	215.14
865.02	215.19
865.33	215.13
865.64	215.11
865.95	215.09
866.27	215.27
866.58	215.28
866.89	215.28
867.20	215.27
867.51	215.25
867.82	215.25
868.13	215.28
868.44	215.23
868.75	215.30
869.06	215.31
869.37	215.35
869.68	215.27
869.99	215.31
870.30	215.29
870.61	215.31
870.92	215.29
871.23	215.28
871.54	215.29
871.85	215.33
872.16	215.34
872.47	215.35
872.78	215.18
873.09	215.15
873.40	215.12
873.71	215.15
874.02	215.14
874.33	215.10
874.64	215.06
874.95	215.11
875.26	215.02
875.56	215.04
875.87	215.01
876.18	215.04
876.49	215.23
876.80	215.21
877.11	215.16
877.42	215.14
877.73	215.12
878.04	215.09
878.35	215.09
878.66	215.12
878.96	215.08
879.27	215.08
879.58	215.10
879.89	215.11
880.20	215.16
880.51	215.15
880.82	215.17
881.12	215.19
881.43	215.13
881.74	215.15
882.05	215.13
882.36	215.14
882.67	215.13
882.97	214.91
883.28	214.91
883.59	214.87
883.90	214.93
884.21	214.96
884.51	214.94
884.82	214.92
885.13	214.87
885.44	214.88
885.74	214.89
886.05	214.85
886.36	214.86
886.67	214.81
886.98	214.92
887.28	214.95
887.59	214.95
887.90	214.95
888.20	214.92
888.51	214.95
888.82	214.93
889.13	214.98
889.43	215.15
889.74	215.13
890.05	215.15
890.35	215.11
890.66	215.08
890.97	215.09
891.28	215.08
891.58	215.11
891.89	215.12
892.20	215.10
892.50	215.09
892.81	215.08
893.12	215.07
893.42	215.00
893.73	215.01
894.04	215.00
894.34	215.04
894.65	215.07
894.95	215.04
895.26	215.04
895.57	215.11
895.87	214.88
896.18	214.93
896.48	214.96
896.79	214.98
897.10	215.01
897.40	215.00
897.71	215.03
898.01	214.99
898.32	215.00
898.63	214.97
898.93	215.00
899.24	215.00
899.54	214.98
899.85	214.95
900.15	214.94
900.46	214.94
900.76	214.97
901.07	214.96
901.38	214.95
901.68	214.99
901.99	214.89
902.29	214.94
902.60	214.92
902.90	214.91
903.21	214.87
903.51	214.84
903.82	214.90
904.12	214.91
904.43	214.94
904.73	214.95
905.03	214.98
905.34	215.16
905.64	215.16
905.95	215.18
906.25	215.18
906.56	215.14
906.86	215.12
907.17	215.08
907.47	215.08
907.77	215.06
908.08	214.99
908.38	214.99
908.69	215.04
908.99	215.05
909.30	215.04
909.60	215.05
909.90	215.09
910.21	215.02
910.51	214.97
910.81	214.93
911.12	214.95
911.42	214.97
911.73	214.77
912.03	214.77
912.33	214.80
912.64	214.80
912.94	214.80
913.24	214.77
913.55	214.77
913.85	214.76
914.15	214.80
914.46	214.86
914.76	214.81
915.06	214.76
915.37	214.76
915.67	214.74
915.97	214.74
916.27	214.68
916.58	214.71
916.88	214.72
917.18	214.70
917.49	214.85
917.79	214.84
918.09	214.86
918.39	214.90
918.70	214.88
919.00	214.90
919.30	215.02
919.60	214.99
919.91	214.95
920.21	214.96
920.51	214.91
920.81	214.85
921.12	214.91
921.42	214.91
921.72	214.91
922.02	214.95
922.32	214.97
922.63	214.98
922.93	215.02
923.23	214.98
923.53	214.99
923.83	214.81
924.13	214.83
924.44	214.83
924.74	214.85
925.04	214.92
925.34	214.88
925.64	214.76
925.94	214.79
926.24	214.93
926.55	214.88
926.85	214.94
927.15	214.97
927.45	214.97
927.75	215.00
928.05	214.99
928.35	215.01
928.65	215.06
928.95	215.06
929.26	215.01
929.56	215.08
929.86	215.09
930.16	215.10
930.46	215.08
930.76	215.07
931.06	215.00
931.36	214.90
931.66	214.96
931.96	215.01
932.26	215.00
932.56	214.92
932.86	214.95
933.16	214.95
933.46	214.92
933.76	214.91
934.06	214.95
934.36	215.05
934.66	215.03
934.96	215.00
935.26	215.04
935.56	215.03
935.86	215.00
936.16	214.99
936.46	214.97
936.76	214.98
937.06	214.94
937.36	214.99
937.66	215.04
937.96	215.01
938.26	214.95
938.56	214.94
938.86	214.95
939.16	215.01
939.46	214.99
939.76	215.02
940.06	215.00
940.35	214.94
940.65	214.81
940.95	214.82
941.25	214.75
941.55	214.70
941.85	214.72
942.15	214.76
942.45	214.80
942.75	214.80
943.04	214.77
943.34	214.83
943.64	214.79
943.94	214.75
944.24	214.76
944.54	214.79
944.84	214.82
945.13	214.78
945.43	214.74
945.73	214.76
946.03	214.72
946.33	214.66
946.62	214.62
946.92	214.60
947.22	214.59
947.52	214.60
947.82	214.65
948.11	214.61
948.41	214.55
948.71	214.47
949.01	214.46
949.31	214.47
949.60	214.45
949.90	214.48
950.20	214.47
950.50	214.47
950.79	214.46
951.09	214.44
951.39	214.44
951.69	214.42
951.98	214.47
952.28	214.50
952.58	214.54
952.87	214.58
953.17	214.64
953.47	214.61
953.76	214.64
954.06	214.58
954.36	214.53
954.66	214.54
954.95	214.65
955.25	214.68
955.55	214.72
955.84	214.66
956.14	214.68
956.44	214.71
956.73	214.68
957.03	214.67
957.32	214.70
957.62	214.69
957.92	214.74
958.21	214.70
958.51	214.92
958.81	214.94
959.10	214.94
959.40	214.98
959.69	215.02
959.99	215.03
960.29	215.01
960.58	215.03
960.88	215.10
961.17	215.06
961.47	215.05
961.76	215.00
962.06	215.04
962.36	215.02
962.65	215.03
962.95	215.05
963.24	215.02
963.54	215.03
963.83	215.05
964.13	215.04
964.42	214.99
964.72	214.85
965.01	214.83
965.31	214.82
965.60	214.78
965.90	214.88
966.19	214.84
966.49	214.88
966.78	214.89
967.08	214.87
967.37	214.89
967.67	214.86
967.96	214.90
968.26	214.89
968.55	214.91
968.85	214.87
969.14	214.84
969.43	214.82
969.73	214.78
970.02	214.79
970.32	214.75
970.61	214.75
970.91	214.66
971.20	214.63
971.49	214.60
971.79	214.59
972.08	214.46
972.38	214.47
972.67	214.44
972.96	214.49
973.26	214.46
973.55	214.52
973.85	214.51
974.14	214.50
974.43	214.51
974.73	214.48
975.02	214.50
975.31	214.50
975.61	214.52
975.90	214.50
976.19	214.46
976.49	214.49
976.78	214.51
977.07	214.50
977.37	214.52
977.66	214.60
977.95	214.59
978.24	214.61
978.54	214.65
978.83	214.66
979.12	214.60
979.42	214.59
979.71	214.52
980.00	214.55
980.29	214.54
980.59	214.52
980.88	214.53
981.17	214.52
981.46	214.52
981.76	214.49
982.05	214.57
982.34	214.57
982.63	214.56
982.93	214.54
983.22	214.61
983.51	214.59
983.80	214.59
984.09	214.61
984.39	214.59
984.68	214.57
984.97	214.57
985.26	214.57
985.55	214.61
985.85	214.59
986.14	214.60
986.43	214.63
986.72	214.62
987.01	214.59
987.30	214.58
987.59	214.58
987.89	214.62
988.18	214.55
988.47	214.54
988.76	214.53
989.05	214.51
989.34	214.49
989.63	214.55
989.92	214.51
990.22	214.47
990.51	214.48
990.80	214.46
991.09	214.47
991.38	214.51
991.67	214.44
991.96	214.43
992.25	214.43
992.54	214.40
992.83	214.38
993.12	214.34
993.41	214.39
993.70	214.44
993.99	214.49
994.28	214.49
994.58	214.51
994.87	214.45
995.16	214.48
995.45	214.45
995.74	214.41
996.03	214.44
996.32	214.47
996.61	214.50
996.90	214.50
997.19	214.48
997.48	214.49
997.77	214.48
998.06	214.54
998.34	214.53
998.63	214.54
998.92	214.56
999.21	214.62
999.50	214.62
999.79	214.54
1000.08	214.53
1000.37	214.56
1000.66	214.57
1000.95	214.66
1001.24	214.66
1001.53	214.73
1001.82	214.71
1002.11	214.65
1002.40	214.67
1002.68	214.70
1002.97	214.84
1003.26	214.85
1003.55	214.81
1003.84	214.81
1004.13	214.82
1004.42	214.81
1004.71	214.81
1004.99	214.78
1005.28	214.80
1005.57	214.79
1005.86	214.82
1006.15	214.81
1006.44	214.79
1006.72	214.80
1007.01	214.76
1007.30	214.76
1007.59	214.70
1007.88	214.67
1008.17	214.70
1008.45	214.64
1008.74	214.59
1009.03	214.49
1009.32	214.49
1009.60	214.50
1009.89	214.50
1010.18	214.43
1010.47	214.43
1010.76	214.43
1011.04	214.43
1011.33	214.54
1011.62	214.56
1011.91	214.56
1012.19	214.59
1012.48	214.57
1012.77	214.57
1013.05	214.70
1013.34	214.67
1013.63	214.69
1013.92	214.72
1014.20	214.70
1014.49	214.72
1014.78	214.73
1015.06	214.67
1015.35	214.64
1015.64	214.65
1015.92	214.70
1016.21	214.71
1016.50	214.72
1016.78	214.74
1017.07	214.75
1017.36	214.60
1017.64	214.57
1017.93	214.57
1018.22	214.51
1018.50	214.51
1018.79	214.51
1019.08	214.37
1019.36	214.39
1019.65	214.39
1019.93	214.45
1020.22	214.47
1020.51	214.58
1020.79	214.55
1021.08	213.94
1021.36	214.06
1021.65	214.38
1021.94	214.53
1022.22	214.22
1022.51	214.69
1022.79	215.77
1023.08	214.38
1023.36	216.87
1023.65	214.11
>>>>>End Processed Spectral Data<<<<<
