SpectraSuite Data File
++++++++++++++++++++++++++++++++++++
Date: Tue Jan 29 16:48:19 EST 2013
User: group
Dark Spectrum Present: No
Reference Spectrum Present: No
Number of Sampled Component Spectra: 1
Spectrometers: USB2E7196
Integration Time (usec): 65000 (USB2E7196)
Spectra Averaged: 100 (USB2E7196)
Boxcar Smoothing: 10 (USB2E7196)
Correct for Electrical Dark: No (USB2E7196)
Strobe/Lamp Enabled: No (USB2E7196)
Correct for Detector Non-linearity: No (USB2E7196)
Correct for Stray Light: No (USB2E7196)
Number of Pixels in Processed Spectrum: 2048
>>>>>Begin Processed Spectral Data<<<<<
339.09	0.00
339.48	202.01
339.86	202.71
340.24	204.59
340.63	206.00
341.01	210.28
341.39	208.07
341.78	210.16
342.16	212.04
342.54	211.06
342.93	200.82
343.31	210.96
343.69	211.48
344.07	211.95
344.46	212.42
344.84	212.82
345.22	212.96
345.60	213.26
345.99	213.47
346.37	213.56
346.75	213.69
347.13	213.75
347.52	213.84
347.90	213.97
348.28	214.00
348.66	214.08
349.05	214.07
349.43	214.15
349.81	214.21
350.19	214.24
350.57	214.31
350.96	214.40
351.34	214.50
351.72	214.58
352.10	214.70
352.48	214.72
352.87	214.75
353.25	214.86
353.63	214.92
354.01	214.97
354.39	215.06
354.77	215.15
355.15	215.27
355.54	215.32
355.92	215.29
356.30	215.37
356.68	215.56
357.06	215.64
357.44	215.65
357.82	215.71
358.20	215.82
358.58	215.84
358.97	215.91
359.35	216.01
359.73	216.10
360.11	216.14
360.49	216.21
360.87	216.29
361.25	216.37
361.63	216.46
362.01	216.51
362.39	216.52
362.77	216.56
363.15	216.57
363.53	216.61
363.91	216.63
364.29	216.68
364.67	216.51
365.05	216.51
365.43	216.57
365.81	216.62
366.19	216.69
366.57	216.81
366.95	216.84
367.33	216.80
367.71	216.82
368.09	216.86
368.47	216.89
368.85	216.85
369.23	216.87
369.61	216.80
369.99	216.84
370.37	216.86
370.75	216.95
371.13	216.88
371.51	216.83
371.89	216.87
372.27	216.85
372.65	216.83
373.03	216.83
373.41	216.80
373.78	216.73
374.16	216.62
374.54	216.47
374.92	216.41
375.30	216.36
375.68	216.26
376.06	216.25
376.44	216.17
376.82	216.15
377.19	216.08
377.57	216.05
377.95	215.94
378.33	215.85
378.71	215.69
379.09	215.68
379.47	215.67
379.84	215.58
380.22	215.52
380.60	215.44
380.98	215.37
381.36	215.32
381.73	215.29
382.11	215.28
382.49	215.27
382.87	215.19
383.25	215.14
383.62	215.35
384.00	215.26
384.38	215.29
384.76	215.30
385.13	215.35
385.51	215.32
385.89	215.30
386.27	215.29
386.64	215.29
387.02	215.23
387.40	215.16
387.78	215.15
388.15	215.13
388.53	215.11
388.91	215.09
389.29	215.05
389.66	215.04
390.04	215.00
390.42	215.02
390.79	215.03
391.17	215.01
391.55	214.76
391.92	214.72
392.30	214.67
392.68	214.61
393.05	214.56
393.43	214.54
393.81	214.52
394.18	214.52
394.56	214.50
394.94	214.56
395.31	214.57
395.69	214.63
396.06	214.67
396.44	214.73
396.82	214.76
397.19	214.88
397.57	214.88
397.95	214.94
398.32	214.89
398.70	214.95
399.07	215.06
399.45	215.08
399.82	215.19
400.20	215.25
400.58	215.30
400.95	215.30
401.33	215.43
401.70	215.65
402.08	215.73
402.45	215.85
402.83	215.99
403.20	216.09
403.58	216.16
403.95	216.32
404.33	216.45
404.71	216.57
405.08	216.83
405.46	216.99
405.83	217.20
406.21	217.40
406.58	217.60
406.96	217.82
407.33	218.12
407.70	218.38
408.08	218.81
408.45	219.15
408.83	219.52
409.20	219.87
409.58	220.16
409.95	220.62
410.33	221.08
410.70	221.51
411.08	222.10
411.45	222.70
411.82	223.31
412.20	224.03
412.57	224.87
412.95	225.46
413.32	226.31
413.69	227.15
414.07	228.12
414.44	229.14
414.82	230.20
415.19	231.37
415.56	232.61
415.94	233.80
416.31	235.22
416.68	236.66
417.06	238.25
417.43	239.81
417.81	241.59
418.18	243.40
418.55	245.37
418.93	247.37
419.30	249.54
419.67	251.74
420.04	254.01
420.42	256.40
420.79	259.23
421.16	262.02
421.54	264.95
421.91	267.92
422.28	271.04
422.66	274.36
423.03	277.61
423.40	280.94
423.77	284.59
424.15	288.30
424.52	292.17
424.89	296.39
425.26	300.50
425.64	304.41
426.01	308.72
426.38	313.21
426.75	317.80
427.13	322.53
427.50	327.53
427.87	332.80
428.24	338.01
428.61	343.06
428.99	348.62
429.36	354.63
429.73	360.55
430.10	366.45
430.47	372.49
430.85	378.87
431.22	385.65
431.59	392.77
431.96	399.58
432.33	407.15
432.70	414.39
433.08	423.00
433.45	431.06
433.82	439.11
434.19	448.04
434.56	456.81
434.93	465.18
435.30	473.47
435.68	482.61
436.05	491.68
436.42	500.63
436.79	508.82
437.16	517.59
437.53	526.92
437.90	536.16
438.27	545.15
438.64	554.33
439.01	562.92
439.38	570.55
439.75	577.95
440.13	586.39
440.50	594.41
440.87	600.84
441.24	607.51
441.61	614.88
441.98	620.31
442.35	626.62
442.72	633.05
443.09	639.20
443.46	642.93
443.83	645.47
444.20	647.66
444.57	650.89
444.94	652.42
445.31	653.90
445.68	655.24
446.05	655.93
446.42	655.25
446.79	654.30
447.16	653.26
447.53	652.47
447.90	649.13
448.27	645.91
448.64	641.27
449.01	637.98
449.37	632.08
449.74	626.39
450.11	619.46
450.48	612.01
450.85	604.51
451.22	598.06
451.59	591.92
451.96	586.14
452.33	578.19
452.70	571.09
453.07	562.55
453.43	553.96
453.80	545.64
454.17	537.58
454.54	529.99
454.91	521.76
455.28	513.76
455.65	506.34
456.02	498.72
456.38	492.33
456.75	484.39
457.12	477.77
457.49	471.20
457.86	465.00
458.23	459.54
458.59	453.56
458.96	447.51
459.33	442.14
459.70	436.67
460.07	432.39
460.43	427.41
460.80	422.78
461.17	418.71
461.54	414.47
461.91	410.48
462.27	406.34
462.64	402.89
463.01	399.10
463.38	395.38
463.74	391.70
464.11	388.42
464.48	385.61
464.85	382.53
465.21	380.06
465.58	377.43
465.95	374.31
466.32	371.67
466.68	369.06
467.05	366.45
467.42	363.88
467.78	361.20
468.15	358.65
468.52	356.72
468.88	354.24
469.25	352.01
469.62	350.14
469.98	348.19
470.35	346.32
470.72	344.60
471.08	342.75
471.45	341.22
471.82	339.69
472.18	337.94
472.55	336.68
472.92	335.27
473.28	334.05
473.65	332.83
474.02	331.67
474.38	330.75
474.75	330.02
475.11	329.16
475.48	328.57
475.85	328.06
476.21	327.60
476.58	327.23
476.94	326.97
477.31	326.64
477.67	326.34
478.04	326.18
478.41	326.11
478.77	326.27
479.14	326.17
479.50	326.33
479.87	326.67
480.23	327.04
480.60	327.31
480.96	327.52
481.33	328.15
481.69	328.72
482.06	329.23
482.42	329.66
482.79	330.30
483.15	331.05
483.52	332.03
483.88	332.91
484.25	333.86
484.61	334.87
484.98	335.92
485.34	337.25
485.71	338.62
486.07	340.05
486.44	341.36
486.80	343.03
487.17	344.66
487.53	346.44
487.90	348.24
488.26	350.25
488.62	352.43
488.99	354.47
489.35	356.67
489.72	359.09
490.08	361.64
490.44	364.16
490.81	366.84
491.17	369.57
491.54	372.50
491.90	375.53
492.26	378.78
492.63	382.19
492.99	385.65
493.36	389.31
493.72	393.18
494.08	397.18
494.45	401.31
494.81	405.70
495.17	410.19
495.54	414.92
495.90	419.75
496.26	424.68
496.63	429.84
496.99	435.20
497.35	440.74
497.72	446.56
498.08	452.52
498.44	458.65
498.80	465.00
499.17	471.51
499.53	478.13
499.89	485.02
500.26	491.98
500.62	499.08
500.98	506.43
501.34	513.91
501.71	521.69
502.07	529.54
502.43	537.47
502.79	545.57
503.16	553.88
503.52	562.46
503.88	571.16
504.24	580.17
504.60	589.20
504.97	598.43
505.33	607.68
505.69	617.53
506.05	627.35
506.41	637.27
506.78	647.26
507.14	657.54
507.50	667.96
507.86	678.65
508.22	689.42
508.59	700.03
508.95	711.10
509.31	722.35
509.67	733.76
510.03	745.16
510.39	756.80
510.75	768.60
511.12	780.48
511.48	792.56
511.84	804.71
512.20	817.07
512.56	829.62
512.92	842.47
513.28	855.06
513.64	867.83
514.00	880.71
514.37	893.68
514.73	906.69
515.09	919.71
515.45	932.68
515.81	945.73
516.17	959.29
516.53	972.56
516.89	985.71
517.25	998.94
517.61	1012.52
517.97	1025.97
518.33	1039.29
518.69	1052.82
519.05	1066.57
519.41	1080.38
519.77	1094.31
520.13	1107.77
520.49	1120.97
520.85	1134.42
521.21	1147.84
521.57	1161.54
521.93	1174.73
522.29	1188.65
522.65	1202.30
523.01	1215.93
523.37	1229.28
523.73	1242.54
524.09	1255.73
524.45	1269.18
524.81	1282.77
525.17	1296.21
525.53	1309.54
525.89	1322.80
526.25	1336.04
526.61	1348.98
526.97	1362.05
527.33	1375.12
527.68	1388.58
528.04	1402.06
528.40	1415.22
528.76	1428.60
529.12	1441.52
529.48	1454.93
529.84	1467.19
530.20	1480.05
530.56	1492.68
530.91	1505.83
531.27	1518.74
531.63	1531.64
531.99	1544.49
532.35	1556.76
532.71	1569.25
533.07	1582.06
533.42	1594.49
533.78	1606.71
534.14	1618.71
534.50	1630.02
534.86	1641.60
535.21	1652.63
535.57	1664.23
535.93	1675.64
536.29	1686.87
536.65	1698.40
537.00	1709.47
537.36	1721.08
537.72	1732.10
538.08	1743.61
538.44	1754.63
538.79	1765.90
539.15	1776.77
539.51	1787.73
539.87	1799.17
540.22	1810.06
540.58	1821.23
540.94	1832.08
541.29	1842.38
541.65	1852.47
542.01	1863.05
542.37	1873.15
542.72	1883.22
543.08	1893.09
543.44	1903.65
543.79	1912.94
544.15	1922.36
544.51	1932.38
544.87	1942.31
545.22	1951.66
545.58	1960.61
545.94	1969.61
546.29	1978.17
546.65	1986.54
547.01	1994.66
547.36	2002.19
547.72	2010.02
548.07	2017.58
548.43	2025.58
548.79	2033.46
549.14	2041.62
549.50	2050.09
549.86	2058.19
550.21	2065.81
550.57	2073.54
550.92	2080.29
551.28	2087.84
551.64	2095.18
551.99	2102.75
552.35	2109.96
552.70	2116.87
553.06	2123.43
553.41	2129.80
553.77	2136.36
554.13	2142.82
554.48	2149.96
554.84	2157.29
555.19	2163.90
555.55	2170.44
555.90	2176.56
556.26	2183.60
556.61	2189.72
556.97	2194.64
557.32	2200.28
557.68	2206.68
558.03	2212.43
558.39	2217.86
558.74	2223.82
559.10	2229.41
559.45	2234.91
559.81	2240.39
560.16	2245.80
560.52	2251.75
560.87	2258.07
561.23	2263.85
561.58	2270.44
561.94	2275.61
562.29	2280.20
562.64	2286.15
563.00	2291.68
563.35	2297.24
563.71	2302.58
564.06	2308.17
564.42	2313.99
564.77	2319.00
565.12	2324.20
565.48	2329.10
565.83	2334.43
566.19	2339.60
566.54	2344.66
566.89	2349.17
567.25	2353.63
567.60	2359.38
567.96	2364.38
568.31	2368.88
568.66	2373.12
569.02	2376.96
569.37	2380.60
569.72	2384.90
570.08	2388.08
570.43	2391.14
570.78	2394.15
571.14	2396.64
571.49	2399.57
571.84	2403.02
572.20	2405.99
572.55	2408.74
572.90	2411.08
573.26	2413.75
573.61	2416.40
573.96	2418.59
574.31	2420.40
574.67	2422.27
575.02	2422.82
575.37	2424.08
575.72	2424.60
576.08	2425.85
576.43	2425.95
576.78	2426.25
577.13	2427.66
577.49	2428.83
577.84	2429.64
578.19	2430.73
578.54	2431.20
578.90	2431.81
579.25	2431.69
579.60	2431.23
579.95	2430.29
580.30	2430.30
580.66	2429.69
581.01	2427.75
581.36	2425.09
581.71	2423.55
582.06	2422.10
582.42	2421.01
582.77	2418.63
583.12	2416.77
583.47	2415.15
583.82	2414.39
584.17	2413.00
584.53	2410.69
584.88	2408.59
585.23	2406.64
585.58	2404.17
585.93	2401.97
586.28	2399.53
586.63	2396.88
586.98	2394.44
587.34	2392.41
587.69	2389.66
588.04	2387.28
588.39	2385.79
588.74	2383.31
589.09	2380.45
589.44	2377.10
589.79	2374.51
590.14	2372.44
590.49	2369.59
590.84	2365.76
591.19	2362.37
591.54	2358.91
591.89	2354.84
592.25	2351.29
592.60	2346.86
592.95	2342.64
593.30	2338.52
593.65	2334.14
594.00	2329.60
594.35	2326.59
594.70	2321.89
595.05	2317.31
595.40	2311.80
595.75	2305.85
596.10	2302.14
596.45	2297.23
596.80	2292.63
597.15	2287.35
597.50	2281.40
597.85	2276.42
598.19	2271.08
598.54	2265.29
598.89	2260.01
599.24	2255.36
599.59	2249.01
599.94	2243.11
600.29	2237.14
600.64	2231.00
600.99	2223.90
601.34	2218.30
601.69	2211.36
602.04	2204.95
602.39	2198.27
602.74	2191.99
603.08	2186.46
603.43	2179.98
603.78	2173.17
604.13	2166.08
604.48	2158.66
604.83	2152.55
605.18	2146.40
605.53	2139.54
605.87	2132.46
606.22	2125.71
606.57	2117.72
606.92	2109.94
607.27	2103.00
607.62	2096.31
607.96	2089.34
608.31	2083.10
608.66	2075.31
609.01	2067.64
609.36	2060.49
609.70	2052.84
610.05	2045.14
610.40	2036.67
610.75	2028.18
611.10	2020.41
611.44	2011.37
611.79	2002.73
612.14	1992.74
612.49	1981.85
612.83	1972.37
613.18	1962.98
613.53	1953.64
613.88	1944.04
614.22	1935.41
614.57	1925.67
614.92	1915.05
615.27	1904.88
615.61	1894.68
615.96	1885.01
616.31	1875.39
616.65	1865.88
617.00	1856.05
617.35	1846.42
617.70	1836.87
618.04	1827.03
618.39	1816.93
618.74	1807.38
619.08	1797.81
619.43	1789.17
619.78	1781.09
620.12	1772.59
620.47	1763.25
620.82	1752.94
621.16	1743.21
621.51	1733.39
621.85	1723.51
622.20	1713.42
622.55	1702.99
622.89	1693.07
623.24	1683.50
623.59	1673.77
623.93	1663.72
624.28	1653.94
624.62	1643.97
624.97	1633.80
625.32	1623.99
625.66	1615.12
626.01	1606.48
626.35	1597.26
626.70	1587.29
627.04	1577.39
627.39	1567.28
627.73	1558.16
628.08	1549.37
628.43	1539.97
628.77	1530.81
629.12	1522.07
629.46	1514.25
629.81	1505.96
630.15	1496.72
630.50	1486.99
630.84	1476.59
631.19	1466.82
631.53	1457.74
631.88	1447.65
632.22	1437.74
632.57	1428.46
632.91	1418.44
633.26	1408.66
633.60	1399.14
633.95	1389.95
634.29	1380.47
634.64	1371.28
634.98	1361.22
635.32	1352.03
635.67	1343.68
636.01	1334.50
636.36	1324.91
636.70	1315.43
637.05	1306.10
637.39	1297.17
637.73	1288.57
638.08	1281.01
638.42	1273.06
638.77	1264.35
639.11	1256.19
639.45	1248.47
639.80	1240.11
640.14	1231.45
640.49	1222.67
640.83	1213.88
641.17	1205.73
641.52	1197.64
641.86	1189.17
642.20	1181.51
642.55	1172.90
642.89	1164.00
643.23	1155.35
643.58	1147.25
643.92	1138.35
644.26	1129.74
644.61	1121.43
644.95	1112.77
645.29	1103.71
645.64	1094.49
645.98	1086.01
646.32	1078.10
646.66	1069.65
647.01	1061.33
647.35	1053.29
647.69	1045.08
648.04	1037.01
648.38	1028.24
648.72	1019.48
649.06	1011.12
649.41	1002.91
649.75	995.06
650.09	987.25
650.43	979.39
650.78	971.06
651.12	963.46
651.46	956.11
651.80	948.86
652.14	941.63
652.49	934.18
652.83	926.88
653.17	919.22
653.51	911.64
653.85	904.39
654.20	897.22
654.54	889.79
654.88	882.62
655.22	875.36
655.56	868.34
655.90	861.59
656.25	854.87
656.59	848.10
656.93	841.11
657.27	834.07
657.61	827.07
657.95	820.99
658.29	814.97
658.64	808.87
658.98	802.40
659.32	795.80
659.66	789.60
660.00	783.34
660.34	777.31
660.68	771.24
661.02	764.89
661.36	758.94
661.70	753.15
662.05	747.55
662.39	742.01
662.73	736.69
663.07	731.30
663.41	725.72
663.75	719.92
664.09	714.09
664.43	708.57
664.77	703.24
665.11	697.46
665.45	691.56
665.79	685.74
666.13	680.09
666.47	674.59
666.81	669.10
667.15	663.68
667.49	658.43
667.83	653.17
668.17	647.98
668.51	642.80
668.85	637.86
669.19	632.94
669.53	627.88
669.87	622.70
670.21	617.93
670.55	613.20
670.89	608.74
671.23	604.44
671.57	600.13
671.91	595.84
672.25	591.71
672.58	587.58
672.92	583.47
673.26	579.55
673.60	575.66
673.94	571.86
674.28	568.26
674.62	564.57
674.96	560.77
675.30	557.18
675.64	553.47
675.97	549.85
676.31	546.17
676.65	542.63
676.99	539.27
677.33	535.46
677.67	531.76
678.01	527.95
678.34	524.38
678.68	520.79
679.02	517.19
679.36	513.41
679.70	509.79
680.04	506.23
680.37	502.70
680.71	499.38
681.05	496.14
681.39	492.81
681.73	489.59
682.06	486.53
682.40	483.46
682.74	480.25
683.08	477.07
683.42	473.80
683.75	470.76
684.09	467.67
684.43	464.80
684.77	461.92
685.10	459.04
685.44	456.04
685.78	453.08
686.12	450.25
686.45	447.54
686.79	444.81
687.13	442.23
687.46	439.59
687.80	436.86
688.14	434.00
688.48	431.35
688.81	428.67
689.15	426.07
689.49	423.42
689.82	420.91
690.16	418.22
690.50	415.81
690.83	413.33
691.17	410.74
691.51	408.23
691.84	405.91
692.18	403.65
692.52	401.45
692.85	399.32
693.19	397.19
693.52	394.99
693.86	392.74
694.20	390.60
694.53	388.44
694.87	386.26
695.21	384.15
695.54	381.94
695.88	379.72
696.21	377.51
696.55	375.33
696.88	373.20
697.22	371.29
697.56	369.35
697.89	367.38
698.23	365.60
698.56	363.76
698.90	361.97
699.23	360.06
699.57	358.17
699.90	356.25
700.24	354.36
700.58	352.59
700.91	350.86
701.25	349.20
701.58	347.61
701.92	345.97
702.25	344.30
702.59	342.74
702.92	341.18
703.26	339.59
703.59	338.10
703.93	336.82
704.26	335.35
704.60	333.82
704.93	332.34
705.26	330.83
705.60	329.34
705.93	327.78
706.27	326.40
706.60	325.13
706.94	323.87
707.27	322.48
707.61	321.11
707.94	319.81
708.27	318.29
708.61	316.78
708.94	315.40
709.28	314.06
709.61	312.74
709.94	311.52
710.28	310.33
710.61	309.18
710.95	307.74
711.28	306.62
711.61	305.38
711.95	304.21
712.28	302.97
712.61	301.77
712.95	300.75
713.28	299.72
713.61	298.54
713.95	297.41
714.28	296.34
714.61	295.27
714.95	294.19
715.28	293.14
715.61	292.12
715.95	291.13
716.28	290.19
716.61	289.23
716.95	288.20
717.28	287.24
717.61	286.25
717.94	285.34
718.28	284.27
718.61	283.40
718.94	282.50
719.27	281.64
719.61	280.86
719.94	279.96
720.27	278.96
720.60	278.07
720.94	277.23
721.27	276.48
721.60	275.79
721.93	275.06
722.27	274.43
722.60	273.76
722.93	273.00
723.26	272.31
723.59	271.59
723.93	270.97
724.26	270.31
724.59	269.62
724.92	269.05
725.25	268.51
725.59	267.94
725.92	267.41
726.25	266.84
726.58	266.23
726.91	265.63
727.24	265.09
727.57	264.54
727.91	263.91
728.24	263.37
728.57	262.76
728.90	262.21
729.23	261.60
729.56	261.18
729.89	260.67
730.22	260.07
730.55	259.52
730.89	258.96
731.22	258.36
731.55	257.84
731.88	257.26
732.21	256.71
732.54	256.12
732.87	255.58
733.20	255.09
733.53	254.59
733.86	254.12
734.19	253.62
734.52	253.20
734.85	252.94
735.18	252.47
735.51	252.11
735.84	251.69
736.17	251.28
736.50	250.73
736.83	250.55
737.16	250.18
737.49	249.79
737.82	249.38
738.15	249.02
738.48	248.65
738.81	248.23
739.14	247.79
739.47	247.43
739.80	247.01
740.13	246.64
740.46	246.25
740.79	245.83
741.12	245.47
741.45	245.08
741.78	244.59
742.11	244.29
742.44	243.87
742.77	243.53
743.10	243.15
743.43	242.79
743.75	242.23
744.08	242.16
744.41	241.81
744.74	241.47
745.07	241.10
745.40	240.80
745.73	240.57
746.06	240.30
746.39	239.97
746.71	239.67
747.04	239.34
747.37	239.03
747.70	238.76
748.03	238.43
748.36	238.18
748.68	237.87
749.01	237.51
749.34	237.23
749.67	236.92
750.00	236.65
750.33	236.52
750.65	236.23
750.98	235.69
751.31	235.43
751.64	235.20
751.97	235.08
752.29	234.82
752.62	234.48
752.95	234.19
753.28	233.94
753.60	233.69
753.93	233.53
754.26	233.32
754.59	233.03
754.91	232.79
755.24	232.52
755.57	232.29
755.90	232.01
756.22	231.77
756.55	231.52
756.88	231.25
757.20	230.88
757.53	230.63
757.86	230.40
758.19	230.23
758.51	230.00
758.84	229.68
759.17	229.47
759.49	229.28
759.82	229.22
760.15	229.06
760.47	228.84
760.80	228.54
761.13	228.35
761.45	228.15
761.78	227.99
762.11	227.81
762.43	227.63
762.76	227.49
763.08	227.33
763.41	227.16
763.74	227.01
764.06	226.86
764.39	226.71
764.71	226.53
765.04	226.33
765.37	226.16
765.69	226.01
766.02	225.87
766.34	225.70
766.67	225.45
767.00	225.35
767.32	225.31
767.65	225.30
767.97	225.16
768.30	225.06
768.62	224.92
768.95	224.75
769.27	224.65
769.60	224.52
769.92	224.38
770.25	224.25
770.57	224.10
770.90	223.96
771.22	223.80
771.55	223.71
771.87	223.62
772.20	223.51
772.52	223.56
772.85	223.71
773.17	223.62
773.50	223.50
773.82	223.34
774.15	223.17
774.47	222.96
774.80	222.83
775.12	222.71
775.45	222.63
775.77	222.55
776.09	222.46
776.42	222.40
776.74	222.37
777.07	222.28
777.39	222.22
777.72	222.14
778.04	222.12
778.36	222.04
778.69	221.95
779.01	221.87
779.33	221.64
779.66	221.29
779.98	221.21
780.31	221.16
780.63	221.16
780.95	221.11
781.28	221.03
781.60	220.95
781.92	220.88
782.25	220.76
782.57	220.71
782.89	220.65
783.22	220.57
783.54	220.43
783.86	220.38
784.19	220.29
784.51	220.29
784.83	220.20
785.16	220.11
785.48	220.04
785.80	220.00
786.12	219.97
786.45	219.92
786.77	219.87
787.09	219.80
787.42	219.68
787.74	219.66
788.06	219.61
788.38	219.54
788.71	219.47
789.03	219.43
789.35	219.40
789.67	219.28
789.99	219.25
790.32	219.18
790.64	219.15
790.96	219.28
791.28	219.15
791.61	219.07
791.93	219.05
792.25	219.02
792.57	219.10
792.89	219.00
793.21	218.97
793.54	218.88
793.86	218.82
794.18	218.77
794.50	218.64
794.82	218.57
795.14	218.57
795.47	218.56
795.79	218.53
796.11	218.44
796.43	218.37
796.75	218.31
797.07	218.26
797.39	218.21
797.71	218.01
798.04	217.97
798.36	217.93
798.68	217.84
799.00	217.79
799.32	217.66
799.64	217.65
799.96	217.60
800.28	217.59
800.60	217.55
800.92	217.53
801.24	217.50
801.56	217.48
801.89	217.42
802.21	217.42
802.53	217.32
802.85	217.36
803.17	217.44
803.49	217.40
803.81	217.39
804.13	217.36
804.45	217.29
804.77	217.31
805.09	217.31
805.41	217.27
805.73	217.24
806.05	217.17
806.37	217.09
806.69	217.06
807.01	217.03
807.33	217.00
807.65	216.90
807.97	216.96
808.28	216.94
808.60	216.91
808.92	216.83
809.24	216.96
809.56	216.89
809.88	216.81
810.20	216.76
810.52	216.76
810.84	216.71
811.16	216.64
811.48	216.59
811.80	216.64
812.12	216.61
812.43	216.62
812.75	216.59
813.07	216.56
813.39	216.54
813.71	216.49
814.03	216.46
814.35	216.46
814.67	216.34
814.98	216.29
815.30	216.29
815.62	216.21
815.94	216.01
816.26	216.00
816.58	215.93
816.89	215.94
817.21	215.87
817.53	215.84
817.85	215.84
818.17	215.82
818.48	215.72
818.80	215.75
819.12	215.68
819.44	215.64
819.76	215.61
820.07	215.56
820.39	215.57
820.71	215.61
821.03	215.58
821.34	215.55
821.66	215.58
821.98	215.56
822.30	215.58
822.61	215.75
822.93	215.71
823.25	215.69
823.57	215.67
823.88	215.71
824.20	215.71
824.52	215.74
824.83	215.70
825.15	215.65
825.47	215.59
825.79	215.60
826.10	215.59
826.42	215.59
826.74	215.64
827.05	215.60
827.37	215.55
827.69	215.52
828.00	215.53
828.32	215.49
828.64	215.49
828.95	215.60
829.27	215.51
829.58	215.49
829.90	215.53
830.22	215.49
830.53	215.41
830.85	215.37
831.17	215.30
831.48	215.33
831.80	215.34
832.11	215.35
832.43	215.31
832.75	215.31
833.06	215.45
833.38	215.31
833.69	215.30
834.01	215.28
834.32	215.31
834.64	215.28
834.96	215.30
835.27	215.28
835.59	215.14
835.90	215.10
836.22	215.12
836.53	215.03
836.85	215.05
837.16	215.30
837.48	215.29
837.79	215.36
838.11	215.31
838.42	215.31
838.74	215.35
839.05	215.34
839.37	215.29
839.68	215.12
840.00	215.16
840.31	215.17
840.63	215.14
840.94	215.08
841.26	215.05
841.57	215.02
841.88	215.05
842.20	215.04
842.51	214.99
842.83	214.98
843.14	215.18
843.46	215.18
843.77	215.01
844.08	215.03
844.40	214.96
844.71	214.94
845.03	214.90
845.34	214.85
845.65	214.84
845.97	214.88
846.28	214.90
846.60	214.93
846.91	214.90
847.22	214.90
847.54	214.97
847.85	214.97
848.16	214.93
848.48	214.88
848.79	214.97
849.10	215.02
849.42	215.00
849.73	214.82
850.04	214.79
850.36	214.73
850.67	214.68
850.98	214.70
851.30	214.71
851.61	214.71
851.92	214.71
852.23	214.76
852.55	214.77
852.86	214.73
853.17	214.73
853.49	214.78
853.80	214.84
854.11	214.86
854.42	214.89
854.74	214.92
855.05	214.89
855.36	214.77
855.67	214.76
855.99	214.77
856.30	214.98
856.61	214.98
856.92	214.98
857.23	215.01
857.55	214.98
857.86	214.96
858.17	214.99
858.48	214.97
858.79	214.93
859.11	214.92
859.42	214.95
859.73	214.93
860.04	214.90
860.35	214.81
860.66	214.72
860.98	214.71
861.29	214.70
861.60	214.71
861.91	214.77
862.22	214.71
862.53	214.65
862.84	214.43
863.16	214.47
863.47	214.42
863.78	214.39
864.09	214.39
864.40	214.42
864.71	214.40
865.02	214.41
865.33	214.38
865.64	214.32
865.95	214.31
866.27	214.41
866.58	214.39
866.89	214.41
867.20	214.44
867.51	214.39
867.82	214.38
868.13	214.43
868.44	214.38
868.75	214.44
869.06	214.46
869.37	214.48
869.68	214.41
869.99	214.45
870.30	214.48
870.61	214.54
870.92	214.49
871.23	214.48
871.54	214.50
871.85	214.56
872.16	214.57
872.47	214.54
872.78	214.43
873.09	214.46
873.40	214.42
873.71	214.46
874.02	214.45
874.33	214.45
874.64	214.40
874.95	214.41
875.26	214.36
875.56	214.37
875.87	214.34
876.18	214.31
876.49	214.52
876.80	214.51
877.11	214.43
877.42	214.45
877.73	214.48
878.04	214.44
878.35	214.42
878.66	214.40
878.96	214.41
879.27	214.40
879.58	214.36
879.89	214.37
880.20	214.38
880.51	214.40
880.82	214.39
881.12	214.41
881.43	214.36
881.74	214.34
882.05	214.31
882.36	214.33
882.67	214.37
882.97	214.14
883.28	214.11
883.59	214.10
883.90	214.14
884.21	214.16
884.51	214.14
884.82	214.12
885.13	214.15
885.44	214.16
885.74	214.15
886.05	214.17
886.36	214.16
886.67	214.09
886.98	214.18
887.28	214.19
887.59	214.19
887.90	214.20
888.20	214.22
888.51	214.27
888.82	214.27
889.13	214.30
889.43	214.49
889.74	214.48
890.05	214.51
890.35	214.48
890.66	214.42
890.97	214.40
891.28	214.37
891.58	214.33
891.89	214.34
892.20	214.35
892.50	214.32
892.81	214.33
893.12	214.31
893.42	214.21
893.73	214.21
894.04	214.19
894.34	214.21
894.65	214.19
894.95	214.14
895.26	214.12
895.57	214.20
895.87	213.97
896.18	213.98
896.48	213.95
896.79	213.92
897.10	213.96
897.40	213.96
897.71	213.98
898.01	213.99
898.32	213.97
898.63	213.96
898.93	213.96
899.24	213.98
899.54	213.99
899.85	214.01
900.15	214.02
900.46	214.04
900.76	214.09
901.07	214.09
901.38	214.10
901.68	214.13
901.99	214.01
902.29	214.03
902.60	214.02
902.90	214.02
903.21	214.03
903.51	214.00
903.82	214.06
904.12	214.08
904.43	214.08
904.73	214.07
905.03	214.06
905.34	214.25
905.64	214.22
905.95	214.16
906.25	214.13
906.56	214.12
906.86	214.15
907.17	214.09
907.47	214.11
907.77	214.03
908.08	213.99
908.38	214.01
908.69	214.05
908.99	214.12
909.30	214.15
909.60	214.13
909.90	214.18
910.21	214.10
910.51	214.04
910.81	214.03
911.12	214.06
911.42	214.07
911.73	213.85
912.03	213.89
912.33	213.95
912.64	213.94
912.94	213.90
913.24	213.85
913.55	213.85
913.85	213.84
914.15	213.91
914.46	213.93
914.76	213.88
915.06	213.84
915.37	213.79
915.67	213.77
915.97	213.80
916.27	213.72
916.58	213.73
916.88	213.75
917.18	213.75
917.49	213.86
917.79	213.85
918.09	213.88
918.39	213.91
918.70	213.88
919.00	213.88
919.30	213.97
919.60	213.94
919.91	213.91
920.21	213.91
920.51	213.88
920.81	213.87
921.12	213.92
921.42	213.92
921.72	213.94
922.02	213.95
922.32	213.97
922.63	214.02
922.93	214.13
923.23	214.13
923.53	214.10
923.83	214.00
924.13	214.06
924.44	214.04
924.74	214.07
925.04	214.15
925.34	214.16
925.64	214.09
925.94	214.11
926.24	214.22
926.55	214.19
926.85	214.21
927.15	214.21
927.45	214.22
927.75	214.20
928.05	214.18
928.35	214.13
928.65	214.15
928.95	214.14
929.26	214.06
929.56	214.10
929.86	214.13
930.16	214.14
930.46	214.09
930.76	214.12
931.06	214.03
931.36	214.00
931.66	214.01
931.96	214.04
932.26	214.06
932.56	213.98
932.86	214.00
933.16	214.00
933.46	213.99
933.76	213.91
934.06	213.99
934.36	214.07
934.66	214.07
934.96	214.03
935.26	214.03
935.56	214.07
935.86	214.01
936.16	213.96
936.46	213.90
936.76	213.90
937.06	213.85
937.36	213.87
937.66	213.82
937.96	213.83
938.26	213.79
938.56	213.77
938.86	213.77
939.16	213.81
939.46	213.79
939.76	213.84
940.06	213.85
940.35	213.81
940.65	213.71
940.95	213.74
941.25	213.72
941.55	213.68
941.85	213.66
942.15	213.70
942.45	213.78
942.75	213.76
943.04	213.78
943.34	213.84
943.64	213.80
943.94	213.82
944.24	213.77
944.54	213.78
944.84	213.77
945.13	213.73
945.43	213.69
945.73	213.70
946.03	213.67
946.33	213.64
946.62	213.61
946.92	213.60
947.22	213.63
947.52	213.64
947.82	213.68
948.11	213.66
948.41	213.62
948.71	213.57
949.01	213.61
949.31	213.57
949.60	213.53
949.90	213.60
950.20	213.56
950.50	213.61
950.79	213.61
951.09	213.64
951.39	213.62
951.69	213.63
951.98	213.68
952.28	213.69
952.58	213.66
952.87	213.65
953.17	213.67
953.47	213.62
953.76	213.63
954.06	213.60
954.36	213.58
954.66	213.59
954.95	213.64
955.25	213.67
955.55	213.68
955.84	213.67
956.14	213.66
956.44	213.70
956.73	213.64
957.03	213.66
957.32	213.66
957.62	213.65
957.92	213.70
958.21	213.68
958.51	213.91
958.81	213.98
959.10	213.99
959.40	214.04
959.69	214.09
959.99	214.09
960.29	214.09
960.58	214.09
960.88	214.17
961.17	214.14
961.47	214.14
961.76	214.14
962.06	214.18
962.36	214.14
962.65	214.13
962.95	214.13
963.24	214.09
963.54	214.10
963.83	214.14
964.13	214.12
964.42	214.03
964.72	213.84
965.01	213.84
965.31	213.83
965.60	213.77
965.90	213.90
966.19	213.86
966.49	213.88
966.78	213.85
967.08	213.83
967.37	213.86
967.67	213.79
967.96	213.86
968.26	213.82
968.55	213.86
968.85	213.85
969.14	213.87
969.43	213.91
969.73	213.90
970.02	213.91
970.32	213.89
970.61	213.94
970.91	213.89
971.20	213.84
971.49	213.84
971.79	213.87
972.08	213.74
972.38	213.79
972.67	213.75
972.96	213.80
973.26	213.75
973.55	213.81
973.85	213.82
974.14	213.76
974.43	213.75
974.73	213.72
975.02	213.72
975.31	213.73
975.61	213.70
975.90	213.68
976.19	213.64
976.49	213.65
976.78	213.65
977.07	213.67
977.37	213.70
977.66	213.72
977.95	213.70
978.24	213.70
978.54	213.72
978.83	213.69
979.12	213.68
979.42	213.68
979.71	213.64
980.00	213.62
980.29	213.64
980.59	213.62
980.88	213.64
981.17	213.62
981.46	213.62
981.76	213.65
982.05	213.69
982.34	213.70
982.63	213.72
982.93	213.72
983.22	213.75
983.51	213.76
983.80	213.79
984.09	213.80
984.39	213.80
984.68	213.79
984.97	213.84
985.26	213.85
985.55	213.86
985.85	213.80
986.14	213.84
986.43	213.88
986.72	213.90
987.01	213.86
987.30	213.86
987.59	213.83
987.89	213.84
988.18	213.77
988.47	213.77
988.76	213.74
989.05	213.69
989.34	213.64
989.63	213.67
989.92	213.62
990.22	213.59
990.51	213.57
990.80	213.54
991.09	213.54
991.38	213.57
991.67	213.55
991.96	213.57
992.25	213.59
992.54	213.57
992.83	213.57
993.12	213.59
993.41	213.62
993.70	213.71
993.99	213.72
994.28	213.77
994.58	213.79
994.87	213.78
995.16	213.81
995.45	213.79
995.74	213.75
996.03	213.82
996.32	213.83
996.61	213.88
996.90	213.85
997.19	213.84
997.48	213.83
997.77	213.79
998.06	213.77
998.34	213.72
998.63	213.71
998.92	213.71
999.21	213.72
999.50	213.75
999.79	213.70
1000.08	213.69
1000.37	213.69
1000.66	213.67
1000.95	213.72
1001.24	213.74
1001.53	213.76
1001.82	213.74
1002.11	213.66
1002.40	213.69
1002.68	213.69
1002.97	213.86
1003.26	213.83
1003.55	213.79
1003.84	213.83
1004.13	213.93
1004.42	213.92
1004.71	213.91
1004.99	213.93
1005.28	213.97
1005.57	213.95
1005.86	213.90
1006.15	213.88
1006.44	213.87
1006.72	213.89
1007.01	213.83
1007.30	213.81
1007.59	213.82
1007.88	213.83
1008.17	213.85
1008.45	213.82
1008.74	213.77
1009.03	213.66
1009.32	213.70
1009.60	213.69
1009.89	213.66
1010.18	213.54
1010.47	213.54
1010.76	213.56
1011.04	213.57
1011.33	213.55
1011.62	213.57
1011.91	213.62
1012.19	213.63
1012.48	213.61
1012.77	213.59
1013.05	213.73
1013.34	213.76
1013.63	213.74
1013.92	213.73
1014.20	213.70
1014.49	213.76
1014.78	213.79
1015.06	213.74
1015.35	213.68
1015.64	213.74
1015.92	213.79
1016.21	213.81
1016.50	213.83
1016.78	213.86
1017.07	213.82
1017.36	213.80
1017.64	213.74
1017.93	213.72
1018.22	213.66
1018.50	213.67
1018.79	213.67
1019.08	213.54
1019.36	213.52
1019.65	213.50
1019.93	213.57
1020.22	213.63
1020.51	213.68
1020.79	213.65
1021.08	212.54
1021.36	213.41
1021.65	213.66
1021.94	213.33
1022.22	213.71
1022.51	212.91
1022.79	214.37
1023.08	214.23
1023.36	216.04
1023.65	213.35
>>>>>End Processed Spectral Data<<<<<
