SpectraSuite Data File
++++++++++++++++++++++++++++++++++++
Date: Tue Jan 29 16:33:48 EST 2013
User: group
Dark Spectrum Present: No
Reference Spectrum Present: No
Number of Sampled Component Spectra: 1
Spectrometers: USB2E7196
Integration Time (usec): 65000 (USB2E7196)
Spectra Averaged: 100 (USB2E7196)
Boxcar Smoothing: 10 (USB2E7196)
Correct for Electrical Dark: No (USB2E7196)
Strobe/Lamp Enabled: No (USB2E7196)
Correct for Detector Non-linearity: No (USB2E7196)
Correct for Stray Light: No (USB2E7196)
Number of Pixels in Processed Spectrum: 2048
>>>>>Begin Processed Spectral Data<<<<<
339.09	0.00
339.48	202.35
339.86	203.16
340.24	204.83
340.63	206.31
341.01	210.48
341.39	209.31
341.78	209.96
342.16	211.99
342.54	211.83
342.93	201.06
343.31	211.24
343.69	211.76
344.07	212.26
344.46	212.71
344.84	213.10
345.22	213.28
345.60	213.53
345.99	213.73
346.37	213.87
346.75	213.96
347.13	214.04
347.52	214.12
347.90	214.24
348.28	214.29
348.66	214.37
349.05	214.34
349.43	214.41
349.81	214.50
350.19	214.57
350.57	214.66
350.96	214.74
351.34	214.81
351.72	214.87
352.10	214.93
352.48	214.99
352.87	215.02
353.25	215.07
353.63	215.13
354.01	215.20
354.39	215.24
354.77	215.34
355.15	215.50
355.54	215.55
355.92	215.52
356.30	215.56
356.68	215.74
357.06	215.80
357.44	215.86
357.82	215.92
358.20	215.98
358.58	216.01
358.97	216.08
359.35	216.19
359.73	216.31
360.11	216.38
360.49	216.42
360.87	216.49
361.25	216.56
361.63	216.67
362.01	216.70
362.39	216.74
362.77	216.75
363.15	216.76
363.53	216.80
363.91	216.84
364.29	216.87
364.67	216.69
365.05	216.74
365.43	216.81
365.81	216.83
366.19	216.92
366.57	217.04
366.95	217.04
367.33	216.96
367.71	216.99
368.09	217.03
368.47	217.04
368.85	217.01
369.23	217.10
369.61	217.01
369.99	217.08
370.37	217.09
370.75	217.19
371.13	217.14
371.51	217.09
371.89	217.11
372.27	217.09
372.65	217.11
373.03	217.07
373.41	216.98
373.78	216.92
374.16	216.76
374.54	216.67
374.92	216.64
375.30	216.66
375.68	216.58
376.06	216.56
376.44	216.50
376.82	216.50
377.19	216.44
377.57	216.41
377.95	216.30
378.33	216.26
378.71	216.13
379.09	216.10
379.47	216.08
379.84	216.01
380.22	215.96
380.60	215.87
380.98	215.82
381.36	215.78
381.73	215.72
382.11	215.75
382.49	215.70
382.87	215.65
383.25	215.60
383.62	215.80
384.00	215.70
384.38	215.64
384.76	215.65
385.13	215.70
385.51	215.66
385.89	215.62
386.27	215.60
386.64	215.61
387.02	215.61
387.40	215.54
387.78	215.51
388.15	215.50
388.53	215.51
388.91	215.48
389.29	215.47
389.66	215.49
390.04	215.46
390.42	215.49
390.79	215.46
391.17	215.42
391.55	215.19
391.92	215.20
392.30	215.22
392.68	215.12
393.05	215.07
393.43	215.07
393.81	215.05
394.18	215.01
394.56	214.98
394.94	214.99
395.31	214.97
395.69	215.06
396.06	215.10
396.44	215.12
396.82	215.11
397.19	215.23
397.57	215.22
397.95	215.27
398.32	215.24
398.70	215.26
399.07	215.34
399.45	215.37
399.82	215.41
400.20	215.48
400.58	215.57
400.95	215.55
401.33	215.65
401.70	215.89
402.08	215.99
402.45	216.07
402.83	216.20
403.20	216.35
403.58	216.39
403.95	216.52
404.33	216.67
404.71	216.86
405.08	217.14
405.46	217.34
405.83	217.55
406.21	217.76
406.58	218.04
406.96	218.26
407.33	218.50
407.70	218.83
408.08	219.30
408.45	219.67
408.83	220.06
409.20	220.42
409.58	220.67
409.95	221.16
410.33	221.64
410.70	222.07
411.08	222.61
411.45	223.24
411.82	223.83
412.20	224.53
412.57	225.36
412.95	225.91
413.32	226.71
413.69	227.55
414.07	228.45
414.44	229.38
414.82	230.42
415.19	231.60
415.56	232.76
415.94	233.93
416.31	235.31
416.68	236.73
417.06	238.32
417.43	239.90
417.81	241.63
418.18	243.39
418.55	245.33
418.93	247.37
419.30	249.46
419.67	251.68
420.04	253.98
420.42	256.37
420.79	259.19
421.16	261.99
421.54	264.86
421.91	267.87
422.28	270.96
422.66	274.22
423.03	277.50
423.40	280.83
423.77	284.44
424.15	288.12
424.52	291.96
424.89	296.17
425.26	300.21
425.64	304.10
426.01	308.43
426.38	312.94
426.75	317.46
427.13	322.20
427.50	327.17
427.87	332.39
428.24	337.62
428.61	342.59
428.99	348.12
429.36	354.17
429.73	360.05
430.10	365.99
430.47	372.06
430.85	378.38
431.22	385.11
431.59	392.24
431.96	399.04
432.33	406.53
432.70	413.75
433.08	422.33
433.45	430.37
433.82	438.38
434.19	447.28
434.56	456.04
434.93	464.41
435.30	472.66
435.68	481.76
436.05	490.68
436.42	499.59
436.79	507.70
437.16	516.47
437.53	525.81
437.90	534.94
438.27	543.91
438.64	553.09
439.01	561.67
439.38	569.26
439.75	576.62
440.13	585.05
440.50	593.05
440.87	599.47
441.24	606.12
441.61	613.49
441.98	618.89
442.35	625.26
442.72	631.59
443.09	637.78
443.46	641.53
443.83	644.14
444.20	646.35
444.57	649.58
444.94	651.02
445.31	652.46
445.68	653.89
446.05	654.50
446.42	653.80
446.79	652.82
447.16	651.68
447.53	650.89
447.90	647.55
448.27	644.23
448.64	639.55
449.01	636.25
449.37	630.29
449.74	624.63
450.11	617.68
450.48	610.29
450.85	602.76
451.22	596.27
451.59	590.08
451.96	584.26
452.33	576.35
452.70	569.22
453.07	560.74
453.43	552.06
453.80	543.76
454.17	535.69
454.54	528.14
454.91	520.02
455.28	512.07
455.65	504.75
456.02	497.20
456.38	490.89
456.75	483.02
457.12	476.52
457.49	469.93
457.86	463.71
458.23	458.33
458.59	452.40
458.96	446.42
459.33	441.11
459.70	435.73
460.07	431.47
460.43	426.63
460.80	422.02
461.17	418.08
461.54	413.91
461.91	409.92
462.27	405.78
462.64	402.29
463.01	398.47
463.38	394.67
463.74	390.96
464.11	387.68
464.48	384.84
464.85	381.72
465.21	379.30
465.58	376.68
465.95	373.48
466.32	370.85
466.68	368.22
467.05	365.63
467.42	363.02
467.78	360.30
468.15	357.72
468.52	355.80
468.88	353.30
469.25	351.09
469.62	349.29
469.98	347.34
470.35	345.55
470.72	343.85
471.08	342.07
471.45	340.62
471.82	339.11
472.18	337.40
472.55	336.20
472.92	334.80
473.28	333.60
473.65	332.48
474.02	331.34
474.38	330.45
474.75	329.68
475.11	328.89
475.48	328.37
475.85	327.86
476.21	327.39
476.58	327.02
476.94	326.77
477.31	326.38
477.67	326.17
478.04	326.02
478.41	325.99
478.77	326.14
479.14	326.08
479.50	326.23
479.87	326.56
480.23	326.84
480.60	327.05
480.96	327.29
481.33	327.86
481.69	328.46
482.06	328.96
482.42	329.42
482.79	330.06
483.15	330.84
483.52	331.82
483.88	332.68
484.25	333.63
484.61	334.60
484.98	335.70
485.34	337.01
485.71	338.39
486.07	339.81
486.44	341.13
486.80	342.74
487.17	344.39
487.53	346.23
487.90	348.07
488.26	350.10
488.62	352.29
488.99	354.35
489.35	356.53
489.72	358.93
490.08	361.47
490.44	363.99
490.81	366.66
491.17	369.35
491.54	372.31
491.90	375.39
492.26	378.62
492.63	382.02
492.99	385.48
493.36	389.09
493.72	393.03
494.08	397.09
494.45	401.25
494.81	405.65
495.17	410.09
495.54	414.85
495.90	419.78
496.26	424.72
496.63	429.92
496.99	435.29
497.35	440.92
497.72	446.75
498.08	452.72
498.44	458.87
498.80	465.33
499.17	471.86
499.53	478.56
499.89	485.57
500.26	492.62
500.62	499.70
500.98	507.24
501.34	514.71
501.71	522.49
502.07	530.42
502.43	538.45
502.79	546.64
503.16	555.06
503.52	563.64
503.88	572.39
504.24	581.41
504.60	590.49
504.97	599.77
505.33	609.05
505.69	618.92
506.05	628.86
506.41	638.78
506.78	648.89
507.14	659.17
507.50	669.68
507.86	680.42
508.22	691.27
508.59	701.93
508.95	713.04
509.31	724.30
509.67	735.84
510.03	747.26
510.39	759.08
510.75	770.98
511.12	782.90
511.48	795.09
511.84	807.42
512.20	819.85
512.56	832.58
512.92	845.45
513.28	858.23
513.64	871.09
514.00	883.97
514.37	897.07
514.73	910.25
515.09	923.25
515.45	936.28
515.81	949.45
516.17	962.98
516.53	976.28
516.89	989.55
517.25	1002.83
517.61	1016.41
517.97	1029.87
518.33	1043.17
518.69	1056.87
519.05	1070.64
519.41	1084.35
519.77	1098.33
520.13	1111.76
520.49	1125.04
520.85	1138.48
521.21	1151.84
521.57	1165.60
521.93	1178.73
522.29	1192.60
522.65	1206.39
523.01	1219.97
523.37	1233.27
523.73	1246.65
524.09	1260.05
524.45	1273.54
524.81	1287.11
525.17	1300.69
525.53	1314.03
525.89	1327.40
526.25	1340.61
526.61	1353.63
526.97	1366.91
527.33	1380.03
527.68	1393.56
528.04	1407.26
528.40	1420.57
528.76	1434.18
529.12	1447.27
529.48	1460.71
529.84	1473.02
530.20	1485.88
530.56	1498.72
530.91	1512.11
531.27	1525.14
531.63	1537.93
531.99	1550.86
532.35	1563.19
532.71	1575.73
533.07	1588.82
533.42	1601.31
533.78	1613.62
534.14	1625.78
534.50	1637.02
534.86	1648.68
535.21	1659.61
535.57	1671.12
535.93	1682.51
536.29	1693.63
536.65	1705.15
537.00	1716.24
537.36	1727.80
537.72	1738.93
538.08	1750.50
538.44	1761.70
538.79	1772.84
539.15	1783.80
539.51	1794.71
539.87	1806.20
540.22	1817.12
540.58	1828.09
540.94	1839.10
541.29	1849.45
541.65	1859.36
542.01	1870.01
542.37	1880.18
542.72	1890.48
543.08	1900.50
543.44	1911.03
543.79	1920.36
544.15	1929.90
544.51	1939.90
544.87	1949.95
545.22	1959.23
545.58	1968.12
545.94	1977.08
546.29	1985.78
546.65	1994.30
547.01	2002.51
547.36	2010.18
547.72	2017.95
548.07	2025.62
548.43	2033.31
548.79	2041.26
549.14	2049.52
549.50	2058.13
549.86	2066.17
550.21	2073.71
550.57	2081.41
550.92	2088.33
551.28	2096.00
551.64	2103.35
551.99	2111.05
552.35	2118.33
552.70	2125.37
553.06	2132.05
553.41	2138.32
553.77	2144.90
554.13	2151.38
554.48	2158.50
554.84	2165.79
555.19	2172.55
555.55	2179.01
555.90	2185.42
556.26	2192.30
556.61	2198.41
556.97	2203.31
557.32	2208.96
557.68	2215.41
558.03	2221.19
558.39	2226.62
558.74	2232.59
559.10	2238.18
559.45	2243.66
559.81	2249.17
560.16	2254.65
560.52	2260.81
560.87	2267.20
561.23	2272.94
561.58	2279.68
561.94	2284.94
562.29	2289.65
562.64	2295.59
563.00	2301.19
563.35	2306.67
563.71	2312.38
564.06	2318.03
564.42	2323.96
564.77	2329.15
565.12	2334.48
565.48	2339.66
565.83	2345.20
566.19	2350.57
566.54	2355.87
566.89	2360.55
567.25	2365.12
567.60	2370.86
567.96	2375.69
568.31	2380.22
568.66	2384.64
569.02	2388.56
569.37	2392.20
569.72	2396.53
570.08	2400.09
570.43	2403.21
570.78	2406.41
571.14	2408.85
571.49	2411.95
571.84	2415.45
572.20	2418.28
572.55	2421.19
572.90	2423.42
573.26	2426.09
573.61	2428.66
573.96	2430.94
574.31	2432.96
574.67	2434.79
575.02	2435.49
575.37	2437.02
575.72	2437.72
576.08	2439.09
576.43	2439.05
576.78	2439.46
577.13	2440.95
577.49	2442.02
577.84	2442.93
578.19	2444.12
578.54	2444.72
578.90	2445.39
579.25	2445.31
579.60	2445.21
579.95	2444.26
580.30	2444.19
580.66	2443.35
581.01	2441.58
581.36	2438.89
581.71	2437.28
582.06	2436.17
582.42	2435.37
582.77	2433.03
583.12	2431.30
583.47	2429.72
583.82	2429.14
584.17	2427.93
584.53	2425.65
584.88	2423.56
585.23	2421.77
585.58	2419.53
585.93	2417.45
586.28	2415.18
586.63	2412.60
586.98	2410.25
587.34	2408.29
587.69	2405.80
588.04	2403.71
588.39	2402.25
588.74	2399.98
589.09	2397.43
589.44	2394.07
589.79	2391.46
590.14	2389.41
590.49	2386.61
590.84	2382.88
591.19	2379.68
591.54	2376.44
591.89	2372.45
592.25	2369.10
592.60	2364.76
592.95	2360.51
593.30	2356.33
593.65	2351.90
594.00	2347.28
594.35	2344.43
594.70	2339.71
595.05	2335.10
595.40	2329.71
595.75	2323.91
596.10	2320.18
596.45	2315.12
596.80	2310.52
597.15	2305.14
597.50	2299.14
597.85	2294.17
598.19	2288.82
598.54	2283.01
598.89	2277.62
599.24	2273.05
599.59	2266.66
599.94	2260.78
600.29	2254.80
600.64	2248.77
600.99	2241.82
601.34	2236.25
601.69	2229.18
602.04	2222.78
602.39	2216.08
602.74	2209.88
603.08	2204.21
603.43	2197.54
603.78	2190.63
604.13	2183.40
604.48	2176.01
604.83	2169.83
605.18	2163.43
605.53	2156.51
605.87	2149.41
606.22	2142.70
606.57	2134.68
606.92	2126.72
607.27	2119.75
607.62	2113.06
607.96	2106.01
608.31	2099.61
608.66	2091.94
609.01	2084.18
609.36	2077.00
609.70	2069.30
610.05	2061.45
610.40	2053.09
610.75	2044.68
611.10	2037.00
611.44	2028.09
611.79	2019.53
612.14	2009.64
612.49	1998.98
612.83	1989.47
613.18	1980.08
613.53	1970.66
613.88	1961.06
614.22	1952.51
614.57	1942.60
614.92	1931.89
615.27	1921.61
615.61	1911.44
615.96	1901.75
616.31	1892.03
616.65	1882.57
617.00	1872.83
617.35	1863.14
617.70	1853.32
618.04	1843.37
618.39	1833.25
618.74	1823.61
619.08	1813.81
619.43	1805.03
619.78	1796.63
620.12	1788.07
620.47	1778.55
620.82	1768.20
621.16	1758.33
621.51	1748.35
621.85	1738.42
622.20	1728.12
622.55	1717.61
622.89	1707.64
623.24	1697.88
623.59	1688.04
623.93	1677.83
624.28	1667.95
624.62	1657.82
624.97	1647.59
625.32	1637.66
625.66	1628.63
626.01	1619.89
626.35	1610.45
626.70	1600.38
627.04	1590.39
627.39	1580.25
627.73	1570.88
628.08	1561.96
628.43	1552.37
628.77	1543.22
629.12	1534.38
629.46	1526.39
629.81	1517.87
630.15	1508.36
630.50	1498.50
630.84	1487.96
631.19	1478.04
631.53	1468.81
631.88	1458.59
632.22	1448.59
632.57	1439.22
632.91	1429.09
633.26	1419.13
633.60	1409.59
633.95	1400.32
634.29	1390.79
634.64	1381.48
634.98	1371.56
635.32	1362.16
635.67	1353.64
636.01	1344.35
636.36	1334.61
636.70	1325.06
637.05	1315.75
637.39	1306.86
637.73	1298.22
638.08	1290.82
638.42	1282.75
638.77	1273.97
639.11	1265.70
639.45	1257.88
639.80	1249.38
640.14	1240.60
640.49	1231.68
640.83	1222.80
641.17	1214.45
641.52	1206.18
641.86	1197.52
642.20	1189.58
642.55	1180.91
642.89	1172.04
643.23	1163.30
643.58	1155.11
643.92	1146.14
644.26	1137.35
644.61	1128.87
644.95	1120.01
645.29	1110.67
645.64	1101.35
645.98	1092.67
646.32	1084.69
646.66	1076.08
647.01	1067.64
647.35	1059.49
647.69	1051.17
648.04	1042.85
648.38	1034.02
648.72	1025.30
649.06	1016.75
649.41	1008.46
649.75	1000.51
650.09	992.52
650.43	984.44
650.78	976.06
651.12	968.26
651.46	960.88
651.80	953.45
652.14	946.10
652.49	938.57
652.83	931.16
653.17	923.45
653.51	915.82
653.85	908.48
654.20	901.19
654.54	893.67
654.88	886.42
655.22	879.22
655.56	872.16
655.90	865.33
656.25	858.67
656.59	851.73
656.93	844.57
657.27	837.46
657.61	830.28
657.95	824.12
658.29	818.13
658.64	811.93
658.98	805.46
659.32	798.95
659.66	792.62
660.00	786.28
660.34	780.21
660.68	774.02
661.02	767.70
661.36	761.71
661.70	755.84
662.05	750.14
662.39	744.52
662.73	739.04
663.07	733.62
663.41	727.92
663.75	722.22
664.09	716.44
664.43	710.92
664.77	705.62
665.11	699.78
665.45	693.87
665.79	688.01
666.13	682.31
666.47	676.76
666.81	671.28
667.15	665.82
667.49	660.50
667.83	655.21
668.17	649.89
668.51	644.65
668.85	639.67
669.19	634.72
669.53	629.65
669.87	624.48
670.21	619.60
670.55	614.89
670.89	610.30
671.23	606.00
671.57	601.54
671.91	597.19
672.25	592.97
672.58	588.75
672.92	584.65
673.26	580.63
673.60	576.63
673.94	572.76
674.28	569.15
674.62	565.42
674.96	561.60
675.30	558.07
675.64	554.41
675.97	550.78
676.31	547.12
676.65	543.56
676.99	540.18
677.33	536.24
677.67	532.57
678.01	528.70
678.34	525.10
678.68	521.60
679.02	517.97
679.36	514.27
679.70	510.60
680.04	506.96
680.37	503.45
680.71	500.08
681.05	496.86
681.39	493.51
681.73	490.28
682.06	487.23
682.40	484.07
682.74	480.87
683.08	477.61
683.42	474.32
683.75	471.19
684.09	468.04
684.43	465.22
684.77	462.21
685.10	459.33
685.44	456.33
685.78	453.39
686.12	450.58
686.45	447.82
686.79	445.13
687.13	442.62
687.46	439.98
687.80	437.29
688.14	434.41
688.48	431.79
688.81	429.08
689.15	426.43
689.49	423.79
689.82	421.26
690.16	418.61
690.50	416.17
690.83	413.70
691.17	411.15
691.51	408.64
691.84	406.33
692.18	404.12
692.52	401.83
692.85	399.65
693.19	397.48
693.52	395.28
693.86	393.00
694.20	390.74
694.53	388.57
694.87	386.34
695.21	384.20
695.54	381.97
695.88	379.81
696.21	377.61
696.55	375.48
696.88	373.34
697.22	371.34
697.56	369.42
697.89	367.47
698.23	365.67
698.56	363.90
698.90	362.15
699.23	360.21
699.57	358.35
699.90	356.37
700.24	354.50
700.58	352.73
700.91	351.07
701.25	349.45
701.58	347.82
701.92	346.19
702.25	344.53
702.59	342.91
702.92	341.31
703.26	339.70
703.59	338.21
703.93	336.92
704.26	335.49
704.60	333.98
704.93	332.50
705.26	330.99
705.60	329.46
705.93	327.90
706.27	326.54
706.60	325.24
706.94	324.04
707.27	322.70
707.61	321.28
707.94	319.89
708.27	318.38
708.61	316.93
708.94	315.57
709.28	314.25
709.61	312.95
709.94	311.73
710.28	310.54
710.61	309.30
710.95	307.85
711.28	306.72
711.61	305.50
711.95	304.33
712.28	303.13
712.61	301.94
712.95	300.89
713.28	299.81
713.61	298.60
713.95	297.39
714.28	296.30
714.61	295.29
714.95	294.24
715.28	293.22
715.61	292.17
715.95	291.18
716.28	290.24
716.61	289.27
716.95	288.23
717.28	287.28
717.61	286.31
717.94	285.41
718.28	284.38
718.61	283.50
718.94	282.59
719.27	281.71
719.61	280.86
719.94	279.98
720.27	279.00
720.60	278.16
720.94	277.33
721.27	276.56
721.60	275.88
721.93	275.12
722.27	274.47
722.60	273.77
722.93	273.06
723.26	272.34
723.59	271.63
723.93	271.02
724.26	270.36
724.59	269.68
724.92	269.09
725.25	268.56
725.59	267.97
725.92	267.43
726.25	266.84
726.58	266.27
726.91	265.65
727.24	265.11
727.57	264.53
727.91	263.96
728.24	263.41
728.57	262.76
728.90	262.23
729.23	261.59
729.56	261.14
729.89	260.59
730.22	260.04
730.55	259.50
730.89	258.90
731.22	258.38
731.55	257.89
731.88	257.38
732.21	256.80
732.54	256.27
732.87	255.74
733.20	255.25
733.53	254.78
733.86	254.30
734.19	253.83
734.52	253.43
734.85	253.13
735.18	252.65
735.51	252.31
735.84	251.85
736.17	251.49
736.50	250.96
736.83	250.81
737.16	250.43
737.49	250.04
737.82	249.67
738.15	249.29
738.48	248.86
738.81	248.44
739.14	247.98
739.47	247.59
739.80	247.21
740.13	246.88
740.46	246.44
740.79	246.03
741.12	245.63
741.45	245.22
741.78	244.76
742.11	244.48
742.44	244.06
742.77	243.79
743.10	243.40
743.43	243.05
743.75	242.48
744.08	242.40
744.41	242.04
744.74	241.69
745.07	241.30
745.40	241.00
745.73	240.71
746.06	240.40
746.39	240.09
746.71	239.72
747.04	239.39
747.37	239.13
747.70	238.86
748.03	238.59
748.36	238.32
748.68	238.03
749.01	237.67
749.34	237.38
749.67	237.03
750.00	236.78
750.33	236.68
750.65	236.40
750.98	235.84
751.31	235.59
751.64	235.34
751.97	235.20
752.29	234.92
752.62	234.61
752.95	234.33
753.28	234.06
753.60	233.83
753.93	233.63
754.26	233.37
754.59	233.08
754.91	232.83
755.24	232.56
755.57	232.27
755.90	232.00
756.22	231.76
756.55	231.53
756.88	231.25
757.20	230.91
757.53	230.66
757.86	230.48
758.19	230.29
758.51	230.07
758.84	229.76
759.17	229.61
759.49	229.41
759.82	229.38
760.15	229.21
760.47	229.03
760.80	228.77
761.13	228.62
761.45	228.46
761.78	228.26
762.11	228.08
762.43	227.96
762.76	227.82
763.08	227.68
763.41	227.52
763.74	227.37
764.06	227.16
764.39	227.00
764.71	226.84
765.04	226.67
765.37	226.53
765.69	226.40
766.02	226.21
766.34	226.07
766.67	225.80
767.00	225.68
767.32	225.66
767.65	225.66
767.97	225.50
768.30	225.36
768.62	225.25
768.95	225.14
769.27	224.98
769.60	224.89
769.92	224.73
770.25	224.57
770.57	224.43
770.90	224.31
771.22	224.18
771.55	224.04
771.87	223.93
772.20	223.79
772.52	223.82
772.85	223.98
773.17	223.90
773.50	223.80
773.82	223.63
774.15	223.42
774.47	223.18
774.80	223.06
775.12	222.99
775.45	222.91
775.77	222.80
776.09	222.71
776.42	222.62
776.74	222.59
777.07	222.51
777.39	222.42
777.72	222.33
778.04	222.29
778.36	222.20
778.69	222.14
779.01	222.09
779.33	221.83
779.66	221.51
779.98	221.36
780.31	221.28
780.63	221.30
780.95	221.27
781.28	221.21
781.60	221.14
781.92	221.01
782.25	220.93
782.57	220.89
782.89	220.78
783.22	220.71
783.54	220.59
783.86	220.54
784.19	220.44
784.51	220.43
784.83	220.32
785.16	220.27
785.48	220.18
785.80	220.12
786.12	220.07
786.45	220.04
786.77	220.02
787.09	219.98
787.42	219.86
787.74	219.80
788.06	219.75
788.38	219.71
788.71	219.67
789.03	219.64
789.35	219.59
789.67	219.51
789.99	219.48
790.32	219.41
790.64	219.39
790.96	219.52
791.28	219.41
791.61	219.32
791.93	219.27
792.25	219.25
792.57	219.34
792.89	219.24
793.21	219.19
793.54	219.09
793.86	219.00
794.18	218.97
794.50	218.85
794.82	218.78
795.14	218.75
795.47	218.74
795.79	218.68
796.11	218.61
796.43	218.58
796.75	218.52
797.07	218.48
797.39	218.41
797.71	218.22
798.04	218.20
798.36	218.20
798.68	218.16
799.00	218.14
799.32	218.01
799.64	218.06
799.96	218.03
800.28	218.06
800.60	218.02
800.92	218.01
801.24	217.99
801.56	217.99
801.89	217.92
802.21	217.88
802.53	217.82
802.85	217.83
803.17	217.91
803.49	217.85
803.81	217.80
804.13	217.77
804.45	217.73
804.77	217.71
805.09	217.68
805.41	217.62
805.73	217.56
806.05	217.47
806.37	217.38
806.69	217.31
807.01	217.25
807.33	217.25
807.65	217.13
807.97	217.19
808.28	217.12
808.60	217.10
808.92	217.06
809.24	217.14
809.56	217.07
809.88	216.96
810.20	216.93
810.52	216.98
810.84	216.91
811.16	216.84
811.48	216.82
811.80	216.86
812.12	216.82
812.43	216.80
812.75	216.78
813.07	216.77
813.39	216.77
813.71	216.71
814.03	216.66
814.35	216.65
814.67	216.54
814.98	216.49
815.30	216.44
815.62	216.38
815.94	216.20
816.26	216.19
816.58	216.15
816.89	216.14
817.21	216.06
817.53	216.07
817.85	216.07
818.17	216.02
818.48	215.95
818.80	215.97
819.12	215.92
819.44	215.87
819.76	215.84
820.07	215.80
820.39	215.79
820.71	215.82
821.03	215.79
821.34	215.74
821.66	215.79
821.98	215.80
822.30	215.78
822.61	215.91
822.93	215.90
823.25	215.87
823.57	215.83
823.88	215.86
824.20	215.84
824.52	215.88
824.83	215.90
825.15	215.84
825.47	215.80
825.79	215.82
826.10	215.80
826.42	215.78
826.74	215.84
827.05	215.85
827.37	215.82
827.69	215.82
828.00	215.85
828.32	215.86
828.64	215.82
828.95	215.94
829.27	215.87
829.58	215.86
829.90	215.89
830.22	215.91
830.53	215.83
830.85	215.78
831.17	215.70
831.48	215.65
831.80	215.65
832.11	215.64
832.43	215.60
832.75	215.60
833.06	215.71
833.38	215.61
833.69	215.58
834.01	215.62
834.32	215.61
834.64	215.59
834.96	215.54
835.27	215.53
835.59	215.43
835.90	215.39
836.22	215.35
836.53	215.30
836.85	215.28
837.16	215.50
837.48	215.50
837.79	215.57
838.11	215.59
838.42	215.59
838.74	215.65
839.05	215.65
839.37	215.62
839.68	215.49
840.00	215.49
840.31	215.53
840.63	215.44
840.94	215.40
841.26	215.36
841.57	215.37
841.88	215.40
842.20	215.37
842.51	215.36
842.83	215.36
843.14	215.54
843.46	215.53
843.77	215.39
844.08	215.40
844.40	215.35
844.71	215.28
845.03	215.27
845.34	215.18
845.65	215.16
845.97	215.14
846.28	215.15
846.60	215.14
846.91	215.05
847.22	215.10
847.54	215.13
847.85	215.11
848.16	215.07
848.48	215.02
848.79	215.10
849.10	215.10
849.42	215.09
849.73	214.90
850.04	214.89
850.36	214.82
850.67	214.83
850.98	214.84
851.30	214.88
851.61	214.87
851.92	214.90
852.23	214.97
852.55	214.99
852.86	214.97
853.17	215.01
853.49	215.08
853.80	215.12
854.11	215.13
854.42	215.17
854.74	215.16
855.05	215.15
855.36	215.03
855.67	215.04
855.99	215.04
856.30	215.28
856.61	215.27
856.92	215.27
857.23	215.27
857.55	215.22
857.86	215.22
858.17	215.24
858.48	215.15
858.79	215.05
859.11	215.06
859.42	215.04
859.73	215.04
860.04	215.00
860.35	214.91
860.66	214.88
860.98	214.86
861.29	214.88
861.60	214.88
861.91	214.92
862.22	214.90
862.53	214.86
862.84	214.62
863.16	214.68
863.47	214.63
863.78	214.58
864.09	214.61
864.40	214.60
864.71	214.60
865.02	214.65
865.33	214.69
865.64	214.64
865.95	214.63
866.27	214.77
866.58	214.76
866.89	214.78
867.20	214.74
867.51	214.70
867.82	214.67
868.13	214.74
868.44	214.71
868.75	214.72
869.06	214.74
869.37	214.72
869.68	214.64
869.99	214.68
870.30	214.70
870.61	214.70
870.92	214.67
871.23	214.65
871.54	214.70
871.85	214.72
872.16	214.75
872.47	214.74
872.78	214.57
873.09	214.60
873.40	214.60
873.71	214.64
874.02	214.69
874.33	214.66
874.64	214.60
874.95	214.63
875.26	214.59
875.56	214.58
875.87	214.58
876.18	214.59
876.49	214.77
876.80	214.77
877.11	214.74
877.42	214.75
877.73	214.75
878.04	214.68
878.35	214.66
878.66	214.65
878.96	214.63
879.27	214.62
879.58	214.56
879.89	214.54
880.20	214.60
880.51	214.56
880.82	214.58
881.12	214.56
881.43	214.52
881.74	214.49
882.05	214.48
882.36	214.51
882.67	214.52
882.97	214.29
883.28	214.27
883.59	214.25
883.90	214.24
884.21	214.26
884.51	214.29
884.82	214.28
885.13	214.27
885.44	214.26
885.74	214.26
886.05	214.24
886.36	214.23
886.67	214.13
886.98	214.24
887.28	214.25
887.59	214.24
887.90	214.27
888.20	214.29
888.51	214.31
888.82	214.30
889.13	214.30
889.43	214.47
889.74	214.43
890.05	214.43
890.35	214.42
890.66	214.37
890.97	214.33
891.28	214.31
891.58	214.34
891.89	214.39
892.20	214.36
892.50	214.35
892.81	214.37
893.12	214.35
893.42	214.24
893.73	214.24
894.04	214.23
894.34	214.22
894.65	214.18
894.95	214.17
895.26	214.17
895.57	214.27
895.87	214.11
896.18	214.17
896.48	214.20
896.79	214.21
897.10	214.26
897.40	214.28
897.71	214.29
898.01	214.27
898.32	214.23
898.63	214.23
898.93	214.25
899.24	214.24
899.54	214.23
899.85	214.28
900.15	214.27
900.46	214.30
900.76	214.35
901.07	214.38
901.38	214.39
901.68	214.37
901.99	214.24
902.29	214.23
902.60	214.19
902.90	214.18
903.21	214.16
903.51	214.12
903.82	214.14
904.12	214.13
904.43	214.17
904.73	214.21
905.03	214.27
905.34	214.47
905.64	214.46
905.95	214.46
906.25	214.41
906.56	214.43
906.86	214.45
907.17	214.42
907.47	214.42
907.77	214.36
908.08	214.35
908.38	214.34
908.69	214.36
908.99	214.40
909.30	214.41
909.60	214.42
909.90	214.46
910.21	214.39
910.51	214.36
910.81	214.33
911.12	214.35
911.42	214.34
911.73	214.09
912.03	214.09
912.33	214.15
912.64	214.16
912.94	214.12
913.24	214.04
913.55	214.04
913.85	214.03
914.15	214.10
914.46	214.15
914.76	214.13
915.06	214.12
915.37	214.08
915.67	214.02
915.97	214.01
916.27	213.98
916.58	214.01
916.88	214.01
917.18	213.99
917.49	214.11
917.79	214.10
918.09	214.17
918.39	214.22
918.70	214.22
919.00	214.22
919.30	214.30
919.60	214.34
919.91	214.29
920.21	214.30
920.51	214.24
920.81	214.22
921.12	214.28
921.42	214.26
921.72	214.29
922.02	214.33
922.32	214.39
922.63	214.39
922.93	214.50
923.23	214.50
923.53	214.47
923.83	214.28
924.13	214.30
924.44	214.24
924.74	214.27
925.04	214.32
925.34	214.35
925.64	214.29
925.94	214.28
926.24	214.41
926.55	214.39
926.85	214.41
927.15	214.39
927.45	214.37
927.75	214.36
928.05	214.35
928.35	214.34
928.65	214.34
928.95	214.35
929.26	214.26
929.56	214.31
929.86	214.35
930.16	214.37
930.46	214.35
930.76	214.39
931.06	214.32
931.36	214.24
931.66	214.27
931.96	214.30
932.26	214.30
932.56	214.21
932.86	214.23
933.16	214.22
933.46	214.22
933.76	214.19
934.06	214.27
934.36	214.35
934.66	214.34
934.96	214.32
935.26	214.34
935.56	214.35
935.86	214.29
936.16	214.27
936.46	214.25
936.76	214.22
937.06	214.21
937.36	214.19
937.66	214.23
937.96	214.17
938.26	214.11
938.56	214.09
938.86	214.10
939.16	214.14
939.46	214.19
939.76	214.19
940.06	214.19
940.35	214.13
940.65	214.00
940.95	214.05
941.25	214.02
941.55	213.97
941.85	213.98
942.15	214.02
942.45	214.04
942.75	214.07
943.04	214.12
943.34	214.14
943.64	214.14
943.94	214.07
944.24	214.11
944.54	214.14
944.84	214.13
945.13	214.11
945.43	214.08
945.73	214.07
946.03	214.05
946.33	214.06
946.62	214.06
946.92	214.07
947.22	214.06
947.52	214.06
947.82	214.11
948.11	214.09
948.41	214.07
948.71	214.04
949.01	214.04
949.31	214.02
949.60	214.01
949.90	214.02
950.20	214.02
950.50	214.02
950.79	214.01
951.09	214.07
951.39	214.07
951.69	214.04
951.98	214.07
952.28	214.07
952.58	214.02
952.87	214.04
953.17	214.07
953.47	214.05
953.76	214.05
954.06	214.00
954.36	213.99
954.66	213.96
954.95	214.00
955.25	213.99
955.55	214.00
955.84	213.96
956.14	213.98
956.44	214.02
956.73	213.98
957.03	213.98
957.32	213.96
957.62	213.96
957.92	214.00
958.21	213.96
958.51	214.20
958.81	214.26
959.10	214.25
959.40	214.30
959.69	214.28
959.99	214.32
960.29	214.32
960.58	214.28
960.88	214.35
961.17	214.33
961.47	214.38
961.76	214.36
962.06	214.41
962.36	214.38
962.65	214.36
962.95	214.38
963.24	214.36
963.54	214.36
963.83	214.38
964.13	214.39
964.42	214.33
964.72	214.17
965.01	214.18
965.31	214.18
965.60	214.13
965.90	214.28
966.19	214.25
966.49	214.27
966.78	214.27
967.08	214.26
967.37	214.28
967.67	214.22
967.96	214.25
968.26	214.23
968.55	214.24
968.85	214.24
969.14	214.23
969.43	214.23
969.73	214.19
970.02	214.16
970.32	214.13
970.61	214.14
970.91	214.08
971.20	214.04
971.49	214.01
971.79	213.99
972.08	213.83
972.38	213.83
972.67	213.82
972.96	213.84
973.26	213.77
973.55	213.82
973.85	213.81
974.14	213.79
974.43	213.80
974.73	213.80
975.02	213.79
975.31	213.78
975.61	213.79
975.90	213.80
976.19	213.78
976.49	213.80
976.78	213.84
977.07	213.85
977.37	213.86
977.66	213.88
977.95	213.89
978.24	213.92
978.54	213.99
978.83	213.95
979.12	213.94
979.42	213.97
979.71	213.90
980.00	213.90
980.29	213.93
980.59	213.87
980.88	213.90
981.17	213.88
981.46	213.89
981.76	213.88
982.05	213.96
982.34	213.98
982.63	213.96
982.93	213.91
983.22	213.95
983.51	213.97
983.80	214.00
984.09	214.02
984.39	213.98
984.68	213.92
984.97	213.96
985.26	213.98
985.55	214.02
985.85	214.00
986.14	214.04
986.43	214.02
986.72	214.02
987.01	213.98
987.30	213.99
987.59	213.93
987.89	213.96
988.18	213.90
988.47	213.87
988.76	213.86
989.05	213.88
989.34	213.83
989.63	213.86
989.92	213.84
990.22	213.81
990.51	213.84
990.80	213.83
991.09	213.84
991.38	213.87
991.67	213.84
991.96	213.81
992.25	213.83
992.54	213.83
992.83	213.83
993.12	213.80
993.41	213.83
993.70	213.95
993.99	213.98
994.28	213.99
994.58	214.04
994.87	214.02
995.16	214.01
995.45	214.02
995.74	213.94
996.03	213.97
996.32	214.01
996.61	214.06
996.90	214.05
997.19	214.05
997.48	214.06
997.77	214.03
998.06	214.06
998.34	214.02
998.63	214.02
998.92	214.05
999.21	214.09
999.50	214.11
999.79	214.02
1000.08	214.01
1000.37	214.01
1000.66	213.96
1000.95	214.01
1001.24	214.01
1001.53	214.04
1001.82	214.06
1002.11	214.03
1002.40	214.00
1002.68	214.03
1002.97	214.19
1003.26	214.16
1003.55	214.08
1003.84	214.10
1004.13	214.16
1004.42	214.16
1004.71	214.17
1004.99	214.15
1005.28	214.18
1005.57	214.17
1005.86	214.16
1006.15	214.14
1006.44	214.11
1006.72	214.16
1007.01	214.15
1007.30	214.15
1007.59	214.15
1007.88	214.12
1008.17	214.10
1008.45	214.12
1008.74	214.03
1009.03	213.94
1009.32	213.95
1009.60	213.94
1009.89	213.92
1010.18	213.82
1010.47	213.83
1010.76	213.80
1011.04	213.80
1011.33	213.82
1011.62	213.82
1011.91	213.83
1012.19	213.83
1012.48	213.83
1012.77	213.84
1013.05	213.93
1013.34	213.93
1013.63	213.89
1013.92	213.94
1014.20	213.94
1014.49	213.89
1014.78	213.92
1015.06	213.84
1015.35	213.84
1015.64	213.86
1015.92	213.91
1016.21	213.95
1016.50	213.97
1016.78	213.98
1017.07	214.00
1017.36	213.96
1017.64	213.93
1017.93	213.97
1018.22	213.96
1018.50	213.99
1018.79	213.95
1019.08	213.86
1019.36	213.88
1019.65	213.88
1019.93	213.91
1020.22	213.99
1020.51	214.09
1020.79	214.04
1021.08	213.80
1021.36	213.95
1021.65	213.99
1021.94	213.73
1022.22	214.42
1022.51	213.71
1022.79	214.83
1023.08	214.89
1023.36	215.82
1023.65	213.02
>>>>>End Processed Spectral Data<<<<<
