SpectraSuite Data File
++++++++++++++++++++++++++++++++++++
Date: Tue Jan 29 15:57:31 EST 2013
User: group
Dark Spectrum Present: No
Reference Spectrum Present: No
Number of Sampled Component Spectra: 1
Spectrometers: USB2E7196
Integration Time (usec): 65000 (USB2E7196)
Spectra Averaged: 100 (USB2E7196)
Boxcar Smoothing: 10 (USB2E7196)
Correct for Electrical Dark: No (USB2E7196)
Strobe/Lamp Enabled: No (USB2E7196)
Correct for Detector Non-linearity: No (USB2E7196)
Correct for Stray Light: No (USB2E7196)
Number of Pixels in Processed Spectrum: 2048
>>>>>Begin Processed Spectral Data<<<<<
339.09	0.00
339.48	202.79
339.86	204.59
340.24	205.73
340.63	207.49
341.01	211.80
341.39	209.89
341.78	211.47
342.16	212.64
342.54	213.09
342.93	202.20
343.31	212.40
343.69	212.95
344.07	213.41
344.46	213.85
344.84	214.24
345.22	214.41
345.60	214.67
345.99	214.85
346.37	214.99
346.75	215.12
347.13	215.20
347.52	215.28
347.90	215.41
348.28	215.43
348.66	215.52
349.05	215.48
349.43	215.49
349.81	215.55
350.19	215.62
350.57	215.66
350.96	215.79
351.34	215.91
351.72	216.00
352.10	216.08
352.48	216.14
352.87	216.18
353.25	216.24
353.63	216.32
354.01	216.41
354.39	216.46
354.77	216.54
355.15	216.64
355.54	216.70
355.92	216.67
356.30	216.75
356.68	216.95
357.06	217.02
357.44	217.05
357.82	217.07
358.20	217.17
358.58	217.25
358.97	217.30
359.35	217.41
359.73	217.52
360.11	217.60
360.49	217.68
360.87	217.72
361.25	217.79
361.63	217.90
362.01	217.97
362.39	217.99
362.77	218.01
363.15	218.01
363.53	218.02
363.91	218.07
364.29	218.07
364.67	217.87
365.05	217.89
365.43	217.96
365.81	218.00
366.19	218.06
366.57	218.14
366.95	218.15
367.33	218.08
367.71	218.07
368.09	218.14
368.47	218.12
368.85	218.12
369.23	218.17
369.61	218.06
369.99	218.11
370.37	218.12
370.75	218.22
371.13	218.15
371.51	218.16
371.89	218.15
372.27	218.16
372.65	218.18
373.03	218.19
373.41	218.11
373.78	218.11
374.16	217.95
374.54	217.85
374.92	217.78
375.30	217.70
375.68	217.61
376.06	217.55
376.44	217.51
376.82	217.48
377.19	217.42
377.57	217.38
377.95	217.25
378.33	217.23
378.71	217.06
379.09	217.07
379.47	217.02
379.84	216.96
380.22	216.93
380.60	216.83
380.98	216.75
381.36	216.71
381.73	216.59
382.11	216.63
382.49	216.58
382.87	216.53
383.25	216.52
383.62	216.75
384.00	216.64
384.38	216.58
384.76	216.60
385.13	216.57
385.51	216.57
385.89	216.52
386.27	216.47
386.64	216.46
387.02	216.41
387.40	216.39
387.78	216.36
388.15	216.34
388.53	216.32
388.91	216.32
389.29	216.27
389.66	216.34
390.04	216.28
390.42	216.31
390.79	216.31
391.17	216.27
391.55	216.01
391.92	216.02
392.30	216.06
392.68	216.01
393.05	216.02
393.43	215.98
393.81	216.02
394.18	215.98
394.56	216.01
394.94	216.04
395.31	216.02
395.69	216.11
396.06	216.11
396.44	216.17
396.82	216.17
397.19	216.31
397.57	216.30
397.95	216.38
398.32	216.33
398.70	216.42
399.07	216.54
399.45	216.60
399.82	216.63
400.20	216.68
400.58	216.74
400.95	216.74
401.33	216.85
401.70	217.03
402.08	217.14
402.45	217.25
402.83	217.38
403.20	217.49
403.58	217.55
403.95	217.70
404.33	217.83
404.71	217.97
405.08	218.24
405.46	218.40
405.83	218.58
406.21	218.78
406.58	218.98
406.96	219.21
407.33	219.47
407.70	219.76
408.08	220.22
408.45	220.59
408.83	220.97
409.20	221.34
409.58	221.65
409.95	222.09
410.33	222.48
410.70	222.92
411.08	223.45
411.45	224.01
411.82	224.56
412.20	225.21
412.57	226.02
412.95	226.52
413.32	227.33
413.69	228.12
414.07	228.99
414.44	229.92
414.82	230.89
415.19	232.00
415.56	233.16
415.94	234.27
416.31	235.59
416.68	236.95
417.06	238.43
417.43	239.86
417.81	241.53
418.18	243.25
418.55	245.10
418.93	247.03
419.30	249.05
419.67	251.22
420.04	253.44
420.42	255.72
420.79	258.47
421.16	261.16
421.54	263.93
421.91	266.80
422.28	269.77
422.66	272.93
423.03	276.04
423.40	279.26
423.77	282.72
424.15	286.24
424.52	289.90
424.89	293.93
425.26	297.86
425.64	301.58
426.01	305.74
426.38	310.04
426.75	314.45
427.13	319.00
427.50	323.78
427.87	328.81
428.24	333.78
428.61	338.62
428.99	343.90
429.36	349.70
429.73	355.40
430.10	361.12
430.47	366.91
430.85	372.93
431.22	379.36
431.59	386.19
431.96	392.76
432.33	399.93
432.70	406.90
433.08	415.06
433.45	422.87
433.82	430.55
434.19	439.08
434.56	447.43
434.93	455.44
435.30	463.40
435.68	472.11
436.05	480.72
436.42	489.25
436.79	497.10
437.16	505.52
437.53	514.41
437.90	523.15
438.27	531.75
438.64	540.69
439.01	548.91
439.38	556.22
439.75	563.26
440.13	571.40
440.50	579.04
440.87	585.22
441.24	591.52
441.61	598.55
441.98	603.70
442.35	609.66
442.72	615.69
443.09	621.50
443.46	625.08
443.83	627.52
444.20	629.54
444.57	632.52
444.94	633.92
445.31	635.25
445.68	636.54
446.05	637.18
446.42	636.34
446.79	635.37
447.16	634.33
447.53	633.52
447.90	630.29
448.27	627.06
448.64	622.57
449.01	619.37
449.37	613.70
449.74	608.25
450.11	601.69
450.48	594.61
450.85	587.36
451.22	581.16
451.59	575.26
451.96	569.64
452.33	562.08
452.70	555.21
453.07	547.09
453.43	538.87
453.80	530.91
454.17	523.26
454.54	516.03
454.91	508.19
455.28	500.59
455.65	493.53
456.02	486.42
456.38	480.44
456.75	473.00
457.12	466.72
457.49	460.51
457.86	454.64
458.23	449.52
458.59	443.91
458.96	438.15
459.33	433.08
459.70	427.97
460.07	423.95
460.43	419.35
460.80	414.94
461.17	411.12
461.54	407.07
461.91	403.20
462.27	399.31
462.64	395.98
463.01	392.33
463.38	388.79
463.74	385.22
464.11	382.02
464.48	379.27
464.85	376.29
465.21	373.95
465.58	371.37
465.95	368.35
466.32	365.85
466.68	363.35
467.05	360.90
467.42	358.47
467.78	355.87
468.15	353.40
468.52	351.59
468.88	349.19
469.25	347.08
469.62	345.39
469.98	343.52
470.35	341.82
470.72	340.23
471.08	338.50
471.45	337.09
471.82	335.69
472.18	334.07
472.55	332.96
472.92	331.64
473.28	330.55
473.65	329.50
474.02	328.43
474.38	327.65
474.75	326.94
475.11	326.21
475.48	325.68
475.85	325.20
476.21	324.80
476.58	324.50
476.94	324.30
477.31	324.09
477.67	323.85
478.04	323.72
478.41	323.69
478.77	323.88
479.14	323.84
479.50	323.97
479.87	324.30
480.23	324.62
480.60	324.92
480.96	325.17
481.33	325.79
481.69	326.42
482.06	326.94
482.42	327.46
482.79	328.11
483.15	328.91
483.52	329.93
483.88	330.82
484.25	331.78
484.61	332.83
484.98	333.86
485.34	335.20
485.71	336.52
486.07	337.96
486.44	339.28
486.80	340.92
487.17	342.59
487.53	344.42
487.90	346.27
488.26	348.24
488.62	350.40
488.99	352.39
489.35	354.56
489.72	356.91
490.08	359.45
490.44	361.98
490.81	364.71
491.17	367.38
491.54	370.36
491.90	373.40
492.26	376.65
492.63	380.10
492.99	383.60
493.36	387.35
493.72	391.28
494.08	395.32
494.45	399.54
494.81	403.90
495.17	408.33
495.54	413.10
495.90	417.95
496.26	422.87
496.63	428.08
496.99	433.44
497.35	438.99
497.72	444.80
498.08	450.71
498.44	456.72
498.80	463.14
499.17	469.60
499.53	476.30
499.89	483.13
500.26	490.01
500.62	497.04
500.98	504.46
501.34	511.89
501.71	519.66
502.07	527.42
502.43	535.38
502.79	543.51
503.16	551.77
503.52	560.29
503.88	568.93
504.24	577.85
504.60	586.83
504.97	595.97
505.33	605.17
505.69	615.07
506.05	624.92
506.41	634.69
506.78	644.74
507.14	654.93
507.50	665.39
507.86	676.07
508.22	686.88
508.59	697.37
508.95	708.36
509.31	719.60
509.67	731.04
510.03	742.50
510.39	754.20
510.75	766.08
511.12	778.00
511.48	790.16
511.84	802.33
512.20	814.70
512.56	827.29
512.92	839.90
513.28	852.36
513.64	864.99
514.00	877.76
514.37	890.61
514.73	903.60
515.09	916.38
515.45	929.09
515.81	941.93
516.17	955.29
516.53	968.26
516.89	981.10
517.25	994.06
517.61	1007.32
517.97	1020.53
518.33	1033.45
518.69	1046.90
519.05	1060.35
519.41	1073.86
519.77	1087.48
520.13	1100.63
520.49	1113.64
520.85	1126.85
521.21	1139.92
521.57	1153.30
521.93	1166.15
522.29	1179.74
522.65	1193.24
523.01	1206.59
523.37	1219.41
523.73	1232.29
524.09	1245.25
524.45	1258.38
524.81	1271.62
525.17	1284.73
525.53	1297.55
525.89	1310.59
526.25	1323.31
526.61	1335.78
526.97	1348.51
527.33	1361.17
527.68	1374.32
528.04	1387.51
528.40	1400.38
528.76	1413.51
529.12	1426.15
529.48	1439.05
529.84	1450.90
530.20	1463.31
530.56	1475.75
530.91	1488.82
531.27	1501.48
531.63	1514.00
531.99	1526.45
532.35	1538.32
532.71	1550.36
533.07	1562.83
533.42	1574.80
533.78	1586.52
534.14	1598.36
534.50	1609.22
534.86	1620.45
535.21	1630.96
535.57	1642.08
535.93	1653.00
536.29	1663.72
536.65	1674.72
537.00	1685.54
537.36	1696.68
537.72	1707.26
538.08	1718.18
538.44	1728.78
538.79	1739.44
539.15	1749.94
539.51	1760.28
539.87	1771.37
540.22	1781.81
540.58	1792.61
540.94	1803.07
541.29	1812.99
541.65	1822.47
542.01	1832.81
542.37	1842.53
542.72	1852.53
543.08	1862.00
543.44	1872.13
543.79	1881.19
544.15	1890.47
544.51	1900.08
544.87	1909.53
545.22	1918.33
545.58	1926.84
545.94	1935.40
546.29	1943.68
546.65	1951.79
547.01	1959.87
547.36	1967.16
547.72	1974.63
548.07	1981.87
548.43	1989.18
548.79	1996.88
549.14	2004.77
549.50	2012.84
549.86	2020.40
550.21	2027.44
550.57	2034.86
550.92	2041.35
551.28	2048.56
551.64	2055.55
551.99	2062.73
552.35	2069.66
552.70	2076.38
553.06	2082.87
553.41	2088.87
553.77	2095.11
554.13	2101.17
554.48	2107.88
554.84	2114.75
555.19	2121.05
555.55	2127.37
555.90	2133.63
556.26	2140.13
556.61	2145.90
556.97	2150.63
557.32	2156.42
557.68	2162.65
558.03	2168.24
558.39	2173.38
558.74	2179.22
559.10	2184.78
559.45	2190.31
559.81	2195.84
560.16	2201.36
560.52	2207.11
560.87	2213.64
561.23	2219.64
561.58	2226.38
561.94	2231.61
562.29	2236.47
562.64	2242.81
563.00	2248.39
563.35	2254.10
563.71	2259.94
564.06	2265.59
564.42	2271.58
564.77	2276.67
565.12	2281.88
565.48	2287.19
565.83	2292.88
566.19	2298.51
566.54	2303.88
566.89	2308.50
567.25	2313.15
567.60	2318.82
567.96	2324.17
568.31	2328.70
568.66	2332.84
569.02	2336.61
569.37	2340.35
569.72	2344.79
570.08	2348.29
570.43	2351.41
570.78	2354.41
571.14	2357.14
571.49	2360.42
571.84	2364.06
572.20	2367.06
572.55	2370.21
572.90	2372.53
573.26	2375.58
573.61	2378.07
573.96	2380.32
574.31	2382.44
574.67	2384.30
575.02	2385.35
575.37	2386.86
575.72	2387.87
576.08	2389.51
576.43	2390.02
576.78	2390.95
577.13	2392.89
577.49	2394.15
577.84	2395.72
578.19	2397.45
578.54	2398.27
578.90	2399.48
579.25	2399.54
579.60	2399.81
579.95	2399.41
580.30	2399.91
580.66	2399.45
581.01	2398.14
581.36	2396.15
581.71	2395.16
582.06	2394.50
582.42	2394.07
582.77	2392.22
583.12	2390.96
583.47	2390.13
583.82	2389.86
584.17	2389.01
584.53	2387.01
584.88	2385.30
585.23	2383.57
585.58	2381.46
585.93	2379.62
586.28	2377.59
586.63	2375.56
586.98	2373.42
587.34	2371.69
587.69	2369.67
588.04	2367.80
588.39	2366.55
588.74	2364.35
589.09	2362.05
589.44	2359.24
589.79	2356.86
590.14	2355.31
590.49	2352.66
590.84	2349.05
591.19	2346.18
591.54	2343.06
591.89	2339.29
592.25	2336.24
592.60	2332.23
592.95	2328.41
593.30	2324.32
593.65	2320.09
594.00	2315.83
594.35	2313.07
594.70	2308.63
595.05	2303.99
595.40	2298.77
595.75	2293.44
596.10	2289.98
596.45	2285.15
596.80	2280.69
597.15	2275.61
597.50	2269.70
597.85	2264.76
598.19	2259.53
598.54	2253.90
598.89	2248.93
599.24	2244.42
599.59	2238.40
599.94	2232.88
600.29	2227.05
600.64	2221.43
600.99	2214.89
601.34	2209.60
601.69	2202.50
602.04	2196.27
602.39	2189.98
602.74	2184.17
603.08	2178.52
603.43	2172.04
603.78	2165.36
604.13	2158.37
604.48	2151.47
604.83	2145.48
605.18	2139.18
605.53	2132.34
605.87	2125.35
606.22	2118.52
606.57	2110.65
606.92	2102.88
607.27	2095.88
607.62	2089.33
607.96	2082.41
608.31	2075.91
608.66	2068.18
609.01	2060.76
609.36	2053.66
609.70	2045.89
610.05	2038.00
610.40	2029.80
610.75	2021.72
611.10	2014.11
611.44	2005.52
611.79	1996.64
612.14	1986.70
612.49	1976.51
612.83	1967.39
613.18	1958.43
613.53	1949.19
613.88	1939.83
614.22	1931.26
614.57	1921.35
614.92	1910.96
615.27	1900.83
615.61	1890.91
615.96	1881.31
616.31	1871.83
616.65	1862.48
617.00	1852.72
617.35	1843.19
617.70	1833.53
618.04	1823.45
618.39	1813.14
618.74	1803.29
619.08	1793.77
619.43	1785.16
619.78	1776.89
620.12	1768.26
620.47	1758.28
620.82	1748.09
621.16	1738.32
621.51	1728.32
621.85	1718.46
622.20	1707.93
622.55	1697.40
622.89	1687.46
623.24	1677.77
623.59	1668.05
623.93	1657.84
624.28	1648.04
624.62	1637.79
624.97	1627.47
625.32	1617.74
625.66	1609.04
626.01	1600.11
626.35	1590.64
626.70	1580.55
627.04	1570.25
627.39	1560.10
627.73	1550.85
628.08	1541.67
628.43	1531.96
628.77	1522.76
629.12	1514.00
629.46	1505.95
629.81	1497.43
630.15	1487.70
630.50	1477.82
630.84	1467.30
631.19	1457.48
631.53	1448.11
631.88	1437.96
632.22	1427.95
632.57	1418.52
632.91	1408.16
633.26	1398.41
633.60	1388.84
633.95	1379.44
634.29	1370.12
634.64	1360.79
634.98	1350.90
635.32	1341.56
635.67	1332.99
636.01	1323.70
636.36	1313.80
636.70	1304.35
637.05	1294.93
637.39	1286.01
637.73	1277.28
638.08	1269.74
638.42	1261.31
638.77	1252.42
639.11	1244.16
639.45	1236.22
639.80	1227.47
640.14	1218.83
640.49	1209.87
640.83	1201.11
641.17	1193.00
641.52	1184.69
641.86	1176.04
642.20	1168.12
642.55	1159.52
642.89	1150.67
643.23	1141.95
643.58	1133.83
643.92	1124.75
644.26	1116.21
644.61	1107.79
644.95	1099.04
645.29	1089.73
645.64	1080.68
645.98	1072.39
646.32	1064.48
646.66	1055.99
647.01	1047.55
647.35	1039.38
647.69	1030.90
648.04	1022.47
648.38	1013.47
648.72	1004.68
649.06	996.19
649.41	988.10
649.75	980.02
650.09	972.08
650.43	964.01
650.78	955.80
651.12	948.26
651.46	940.86
651.80	933.59
652.14	926.25
652.49	918.73
652.83	911.42
653.17	903.65
653.51	895.91
653.85	888.71
654.20	881.48
654.54	873.86
654.88	866.80
655.22	859.70
655.56	852.78
655.90	846.09
656.25	839.45
656.59	832.35
656.93	825.44
657.27	818.44
657.61	811.68
657.95	805.58
658.29	799.68
658.64	793.48
658.98	787.07
659.32	780.54
659.66	774.33
660.00	768.05
660.34	762.05
660.68	756.02
661.02	749.75
661.36	743.97
661.70	738.34
662.05	732.78
662.39	727.30
662.73	721.94
663.07	716.50
663.41	711.00
663.75	705.50
664.09	699.92
664.43	694.59
664.77	689.21
665.11	683.44
665.45	677.52
665.79	671.77
666.13	666.15
666.47	660.83
666.81	655.51
667.15	650.14
667.49	645.01
667.83	639.84
668.17	634.67
668.51	629.57
668.85	624.73
669.19	619.83
669.53	614.86
669.87	609.83
670.21	605.19
670.55	600.51
670.89	596.16
671.23	591.97
671.57	587.62
671.91	583.31
672.25	579.23
672.58	575.12
672.92	571.13
673.26	567.27
673.60	563.36
673.94	559.60
674.28	556.04
674.62	552.27
674.96	548.57
675.30	545.07
675.64	541.50
675.97	537.94
676.31	534.41
676.65	530.86
676.99	527.45
677.33	523.68
677.67	520.05
678.01	516.22
678.34	512.59
678.68	509.10
679.02	505.57
679.36	501.94
679.70	498.41
680.04	494.96
680.37	491.58
680.71	488.38
681.05	485.18
681.39	482.06
681.73	479.00
682.06	476.05
682.40	473.06
682.74	469.89
683.08	466.72
683.42	463.59
683.75	460.70
684.09	457.72
684.43	454.98
684.77	452.16
685.10	449.36
685.44	446.45
685.78	443.59
686.12	440.90
686.45	438.27
686.79	435.64
687.13	433.11
687.46	430.50
687.80	427.85
688.14	425.12
688.48	422.51
688.81	419.89
689.15	417.36
689.49	414.77
689.82	412.33
690.16	409.85
690.50	407.46
690.83	405.02
691.17	402.60
691.51	400.22
691.84	398.05
692.18	395.92
692.52	393.78
692.85	391.69
693.19	389.58
693.52	387.41
693.86	385.29
694.20	383.16
694.53	381.12
694.87	378.95
695.21	376.88
695.54	374.82
695.88	372.70
696.21	370.49
696.55	368.41
696.88	366.38
697.22	364.48
697.56	362.68
697.89	360.82
698.23	359.07
698.56	357.32
698.90	355.55
699.23	353.65
699.57	351.79
699.90	349.96
700.24	348.26
700.58	346.54
700.91	344.92
701.25	343.43
701.58	341.84
701.92	340.32
702.25	338.83
702.59	337.23
702.92	335.77
703.26	334.31
703.59	332.93
703.93	331.71
704.26	330.28
704.60	328.77
704.93	327.32
705.26	325.87
705.60	324.39
705.93	322.93
706.27	321.67
706.60	320.51
706.94	319.32
707.27	317.97
707.61	316.67
707.94	315.37
708.27	313.88
708.61	312.51
708.94	311.21
709.28	309.91
709.61	308.76
709.94	307.60
710.28	306.44
710.61	305.27
710.95	303.90
711.28	302.89
711.61	301.73
711.95	300.65
712.28	299.50
712.61	298.39
712.95	297.34
713.28	296.36
713.61	295.20
713.95	294.10
714.28	293.15
714.61	292.13
714.95	291.16
715.28	290.16
715.61	289.18
715.95	288.27
716.28	287.37
716.61	286.44
716.95	285.50
717.28	284.56
717.61	283.64
717.94	282.80
718.28	281.79
718.61	280.94
718.94	280.08
719.27	279.25
719.61	278.47
719.94	277.67
720.27	276.70
720.60	275.90
720.94	275.13
721.27	274.33
721.60	273.71
721.93	272.96
722.27	272.38
722.60	271.72
722.93	271.03
723.26	270.40
723.59	269.69
723.93	269.05
724.26	268.41
724.59	267.78
724.92	267.20
725.25	266.68
725.59	266.15
725.92	265.64
726.25	265.10
726.58	264.52
726.91	263.93
727.24	263.43
727.57	262.91
727.91	262.29
728.24	261.76
728.57	261.17
728.90	260.70
729.23	260.09
729.56	259.65
729.89	259.10
730.22	258.50
730.55	257.97
730.89	257.49
731.22	257.02
731.55	256.53
731.88	256.04
732.21	255.49
732.54	254.95
732.87	254.45
733.20	253.98
733.53	253.54
733.86	253.09
734.19	252.63
734.52	252.23
734.85	251.97
735.18	251.54
735.51	251.22
735.84	250.75
736.17	250.39
736.50	249.87
736.83	249.74
737.16	249.41
737.49	249.05
737.82	248.63
738.15	248.28
738.48	247.90
738.81	247.50
739.14	247.13
739.47	246.80
739.80	246.43
740.13	246.10
740.46	245.72
740.79	245.40
741.12	245.05
741.45	244.71
741.78	244.28
742.11	244.01
742.44	243.63
742.77	243.36
743.10	243.02
743.43	242.72
743.75	242.17
744.08	242.07
744.41	241.76
744.74	241.42
745.07	241.08
745.40	240.80
745.73	240.57
746.06	240.27
746.39	239.96
746.71	239.61
747.04	239.25
747.37	238.94
747.70	238.64
748.03	238.34
748.36	238.06
748.68	237.81
749.01	237.46
749.34	237.15
749.67	236.89
750.00	236.64
750.33	236.51
750.65	236.27
750.98	235.75
751.31	235.49
751.64	235.29
751.97	235.16
752.29	234.88
752.62	234.52
752.95	234.26
753.28	234.04
753.60	233.84
753.93	233.69
754.26	233.50
754.59	233.24
754.91	233.03
755.24	232.79
755.57	232.52
755.90	232.31
756.22	232.05
756.55	231.78
756.88	231.55
757.20	231.21
757.53	230.97
757.86	230.78
758.19	230.61
758.51	230.40
758.84	230.12
759.17	229.93
759.49	229.78
759.82	229.70
760.15	229.53
760.47	229.34
760.80	229.08
761.13	228.90
761.45	228.74
761.78	228.57
762.11	228.39
762.43	228.21
762.76	228.05
763.08	227.92
763.41	227.80
763.74	227.65
764.06	227.49
764.39	227.32
764.71	227.16
765.04	227.00
765.37	226.81
765.69	226.69
766.02	226.54
766.34	226.41
766.67	226.20
767.00	226.08
767.32	226.11
767.65	226.10
767.97	225.97
768.30	225.87
768.62	225.75
768.95	225.59
769.27	225.43
769.60	225.32
769.92	225.19
770.25	225.04
770.57	224.86
770.90	224.75
771.22	224.62
771.55	224.54
771.87	224.44
772.20	224.34
772.52	224.39
772.85	224.55
773.17	224.45
773.50	224.33
773.82	224.21
774.15	223.96
774.47	223.75
774.80	223.66
775.12	223.51
775.45	223.42
775.77	223.36
776.09	223.32
776.42	223.27
776.74	223.23
777.07	223.14
777.39	223.09
777.72	223.01
778.04	222.98
778.36	222.86
778.69	222.80
779.01	222.74
779.33	222.44
779.66	222.12
779.98	222.04
780.31	221.98
780.63	222.02
780.95	221.98
781.28	221.92
781.60	221.81
781.92	221.81
782.25	221.74
782.57	221.69
782.89	221.65
783.22	221.54
783.54	221.45
783.86	221.39
784.19	221.39
784.51	221.39
784.83	221.27
785.16	221.21
785.48	221.12
785.80	221.08
786.12	221.09
786.45	221.02
786.77	220.99
787.09	220.93
787.42	220.77
787.74	220.72
788.06	220.67
788.38	220.62
788.71	220.53
789.03	220.51
789.35	220.46
789.67	220.36
789.99	220.33
790.32	220.24
790.64	220.21
790.96	220.30
791.28	220.20
791.61	220.14
791.93	220.10
792.25	220.05
792.57	220.14
792.89	220.06
793.21	220.02
793.54	219.96
793.86	219.88
794.18	219.83
794.50	219.76
794.82	219.71
795.14	219.70
795.47	219.68
795.79	219.63
796.11	219.52
796.43	219.48
796.75	219.42
797.07	219.38
797.39	219.31
797.71	219.07
798.04	219.02
798.36	219.03
798.68	218.99
799.00	218.99
799.32	218.85
799.64	218.84
799.96	218.86
800.28	218.84
800.60	218.80
800.92	218.80
801.24	218.76
801.56	218.74
801.89	218.72
802.21	218.69
802.53	218.60
802.85	218.61
803.17	218.69
803.49	218.62
803.81	218.60
804.13	218.58
804.45	218.54
804.77	218.54
805.09	218.49
805.41	218.46
805.73	218.38
806.05	218.30
806.37	218.25
806.69	218.17
807.01	218.15
807.33	218.14
807.65	218.05
807.97	218.10
808.28	218.07
808.60	218.03
808.92	217.96
809.24	218.07
809.56	218.07
809.88	217.97
810.20	217.99
810.52	218.00
810.84	217.94
811.16	217.90
811.48	217.85
811.80	217.90
812.12	217.87
812.43	217.87
812.75	217.85
813.07	217.83
813.39	217.82
813.71	217.75
814.03	217.69
814.35	217.66
814.67	217.56
814.98	217.52
815.30	217.50
815.62	217.44
815.94	217.32
816.26	217.29
816.58	217.26
816.89	217.26
817.21	217.17
817.53	217.19
817.85	217.21
818.17	217.18
818.48	217.07
818.80	217.09
819.12	217.04
819.44	216.99
819.76	216.88
820.07	216.87
820.39	216.83
820.71	216.85
821.03	216.85
821.34	216.83
821.66	216.84
821.98	216.84
822.30	216.86
822.61	216.95
822.93	216.90
823.25	216.85
823.57	216.78
823.88	216.84
824.20	216.83
824.52	216.84
824.83	216.82
825.15	216.81
825.47	216.81
825.79	216.84
826.10	216.82
826.42	216.88
826.74	216.90
827.05	216.88
827.37	216.86
827.69	216.83
828.00	216.84
828.32	216.81
828.64	216.76
828.95	216.81
829.27	216.73
829.58	216.74
829.90	216.75
830.22	216.76
830.53	216.69
830.85	216.66
831.17	216.61
831.48	216.60
831.80	216.60
832.11	216.56
832.43	216.50
832.75	216.50
833.06	216.57
833.38	216.51
833.69	216.50
834.01	216.51
834.32	216.51
834.64	216.47
834.96	216.47
835.27	216.44
835.59	216.37
835.90	216.32
836.22	216.30
836.53	216.26
836.85	216.23
837.16	216.41
837.48	216.41
837.79	216.44
838.11	216.44
838.42	216.40
838.74	216.40
839.05	216.39
839.37	216.39
839.68	216.30
840.00	216.28
840.31	216.33
840.63	216.30
840.94	216.30
841.26	216.25
841.57	216.20
841.88	216.24
842.20	216.23
842.51	216.23
842.83	216.22
843.14	216.40
843.46	216.41
843.77	216.30
844.08	216.29
844.40	216.25
844.71	216.20
845.03	216.21
845.34	216.21
845.65	216.23
845.97	216.19
846.28	216.15
846.60	216.15
846.91	216.09
847.22	216.10
847.54	216.15
847.85	216.20
848.16	216.19
848.48	216.17
848.79	216.25
849.10	216.25
849.42	216.25
849.73	216.07
850.04	216.08
850.36	216.01
850.67	216.03
850.98	216.04
851.30	216.06
851.61	216.05
851.92	216.01
852.23	216.06
852.55	216.09
852.86	216.11
853.17	216.13
853.49	216.17
853.80	216.19
854.11	216.16
854.42	216.17
854.74	216.14
855.05	216.15
855.36	216.04
855.67	216.06
855.99	216.02
856.30	216.24
856.61	216.22
856.92	216.19
857.23	216.17
857.55	216.17
857.86	216.15
858.17	216.17
858.48	216.15
858.79	216.09
859.11	216.09
859.42	216.06
859.73	216.00
860.04	215.97
860.35	215.89
860.66	215.82
860.98	215.82
861.29	215.87
861.60	215.82
861.91	215.86
862.22	215.83
862.53	215.82
862.84	215.62
863.16	215.63
863.47	215.60
863.78	215.58
864.09	215.58
864.40	215.61
864.71	215.61
865.02	215.62
865.33	215.59
865.64	215.52
865.95	215.53
866.27	215.68
866.58	215.67
866.89	215.73
867.20	215.73
867.51	215.67
867.82	215.66
868.13	215.71
868.44	215.67
868.75	215.72
869.06	215.71
869.37	215.67
869.68	215.61
869.99	215.68
870.30	215.66
870.61	215.69
870.92	215.65
871.23	215.64
871.54	215.67
871.85	215.73
872.16	215.80
872.47	215.78
872.78	215.65
873.09	215.70
873.40	215.65
873.71	215.65
874.02	215.67
874.33	215.66
874.64	215.64
874.95	215.66
875.26	215.60
875.56	215.60
875.87	215.60
876.18	215.61
876.49	215.77
876.80	215.78
877.11	215.71
877.42	215.71
877.73	215.68
878.04	215.65
878.35	215.65
878.66	215.63
878.96	215.64
879.27	215.65
879.58	215.65
879.89	215.67
880.20	215.76
880.51	215.75
880.82	215.73
881.12	215.74
881.43	215.71
881.74	215.70
882.05	215.73
882.36	215.78
882.67	215.77
882.97	215.53
883.28	215.51
883.59	215.51
883.90	215.54
884.21	215.60
884.51	215.60
884.82	215.53
885.13	215.52
885.44	215.50
885.74	215.49
886.05	215.42
886.36	215.40
886.67	215.31
886.98	215.41
887.28	215.43
887.59	215.41
887.90	215.40
888.20	215.40
888.51	215.42
888.82	215.38
889.13	215.43
889.43	215.63
889.74	215.62
890.05	215.63
890.35	215.59
890.66	215.56
890.97	215.55
891.28	215.54
891.58	215.56
891.89	215.58
892.20	215.55
892.50	215.54
892.81	215.53
893.12	215.54
893.42	215.44
893.73	215.46
894.04	215.45
894.34	215.47
894.65	215.48
894.95	215.46
895.26	215.43
895.57	215.52
895.87	215.36
896.18	215.40
896.48	215.40
896.79	215.47
897.10	215.48
897.40	215.48
897.71	215.48
898.01	215.48
898.32	215.48
898.63	215.49
898.93	215.47
899.24	215.49
899.54	215.46
899.85	215.44
900.15	215.41
900.46	215.43
900.76	215.44
901.07	215.44
901.38	215.40
901.68	215.47
901.99	215.36
902.29	215.33
902.60	215.32
902.90	215.32
903.21	215.26
903.51	215.26
903.82	215.30
904.12	215.33
904.43	215.35
904.73	215.33
905.03	215.34
905.34	215.56
905.64	215.55
905.95	215.56
906.25	215.58
906.56	215.59
906.86	215.60
907.17	215.57
907.47	215.59
907.77	215.57
908.08	215.53
908.38	215.52
908.69	215.55
908.99	215.59
909.30	215.58
909.60	215.57
909.90	215.59
910.21	215.54
910.51	215.51
910.81	215.53
911.12	215.56
911.42	215.58
911.73	215.36
912.03	215.37
912.33	215.40
912.64	215.40
912.94	215.36
913.24	215.33
913.55	215.34
913.85	215.32
914.15	215.37
914.46	215.38
914.76	215.37
915.06	215.34
915.37	215.31
915.67	215.33
915.97	215.35
916.27	215.28
916.58	215.34
916.88	215.31
917.18	215.27
917.49	215.39
917.79	215.35
918.09	215.39
918.39	215.44
918.70	215.43
919.00	215.46
919.30	215.56
919.60	215.58
919.91	215.55
920.21	215.56
920.51	215.52
920.81	215.50
921.12	215.53
921.42	215.53
921.72	215.55
922.02	215.53
922.32	215.53
922.63	215.53
922.93	215.60
923.23	215.61
923.53	215.59
923.83	215.45
924.13	215.47
924.44	215.46
924.74	215.45
925.04	215.48
925.34	215.46
925.64	215.39
925.94	215.37
926.24	215.48
926.55	215.45
926.85	215.52
927.15	215.50
927.45	215.50
927.75	215.49
928.05	215.48
928.35	215.49
928.65	215.54
928.95	215.58
929.26	215.52
929.56	215.58
929.86	215.60
930.16	215.58
930.46	215.59
930.76	215.60
931.06	215.54
931.36	215.49
931.66	215.51
931.96	215.54
932.26	215.53
932.56	215.45
932.86	215.45
933.16	215.42
933.46	215.42
933.76	215.44
934.06	215.51
934.36	215.60
934.66	215.57
934.96	215.56
935.26	215.54
935.56	215.56
935.86	215.49
936.16	215.49
936.46	215.51
936.76	215.51
937.06	215.47
937.36	215.49
937.66	215.49
937.96	215.47
938.26	215.40
938.56	215.40
938.86	215.40
939.16	215.42
939.46	215.46
939.76	215.47
940.06	215.42
940.35	215.36
940.65	215.27
940.95	215.29
941.25	215.22
941.55	215.19
941.85	215.17
942.15	215.24
942.45	215.29
942.75	215.27
943.04	215.28
943.34	215.34
943.64	215.33
943.94	215.32
944.24	215.32
944.54	215.35
944.84	215.34
945.13	215.31
945.43	215.30
945.73	215.25
946.03	215.23
946.33	215.20
946.62	215.17
946.92	215.14
947.22	215.17
947.52	215.18
947.82	215.22
948.11	215.17
948.41	215.07
948.71	214.99
949.01	215.01
949.31	214.97
949.60	214.94
949.90	214.98
950.20	214.98
950.50	214.97
950.79	214.94
951.09	214.97
951.39	214.96
951.69	214.91
951.98	214.95
952.28	214.96
952.58	214.97
952.87	214.98
953.17	215.02
953.47	214.94
953.76	214.92
954.06	214.88
954.36	214.88
954.66	214.92
954.95	214.99
955.25	214.98
955.55	215.00
955.84	214.96
956.14	214.94
956.44	214.95
956.73	214.94
957.03	214.95
957.32	214.94
957.62	214.96
957.92	215.02
958.21	215.03
958.51	215.26
958.81	215.28
959.10	215.29
959.40	215.33
959.69	215.38
959.99	215.42
960.29	215.42
960.58	215.40
960.88	215.47
961.17	215.43
961.47	215.47
961.76	215.44
962.06	215.48
962.36	215.48
962.65	215.48
962.95	215.46
963.24	215.44
963.54	215.46
963.83	215.48
964.13	215.47
964.42	215.39
964.72	215.24
965.01	215.24
965.31	215.23
965.60	215.20
965.90	215.33
966.19	215.29
966.49	215.31
966.78	215.32
967.08	215.27
967.37	215.27
967.67	215.21
967.96	215.27
968.26	215.27
968.55	215.28
968.85	215.29
969.14	215.31
969.43	215.29
969.73	215.26
970.02	215.23
970.32	215.24
970.61	215.23
970.91	215.13
971.20	215.09
971.49	215.10
971.79	215.13
972.08	215.00
972.38	215.03
972.67	215.00
972.96	215.03
973.26	215.01
973.55	215.08
973.85	215.08
974.14	215.05
974.43	215.05
974.73	215.01
975.02	214.96
975.31	214.97
975.61	214.99
975.90	215.01
976.19	214.96
976.49	214.96
976.78	214.98
977.07	214.99
977.37	215.02
977.66	215.03
977.95	214.96
978.24	214.96
978.54	214.98
978.83	214.98
979.12	214.96
979.42	214.96
979.71	214.90
980.00	214.92
980.29	214.91
980.59	214.90
980.88	214.96
981.17	214.99
981.46	214.98
981.76	214.99
982.05	215.04
982.34	215.09
982.63	215.11
982.93	215.12
983.22	215.20
983.51	215.21
983.80	215.21
984.09	215.25
984.39	215.23
984.68	215.20
984.97	215.21
985.26	215.18
985.55	215.16
985.85	215.15
986.14	215.18
986.43	215.20
986.72	215.17
987.01	215.12
987.30	215.13
987.59	215.15
987.89	215.13
988.18	215.06
988.47	215.07
988.76	215.04
989.05	215.00
989.34	214.95
989.63	214.98
989.92	214.96
990.22	214.96
990.51	214.94
990.80	214.94
991.09	214.97
991.38	214.99
991.67	215.01
991.96	214.94
992.25	214.94
992.54	214.93
992.83	214.91
993.12	214.92
993.41	214.93
993.70	214.98
993.99	215.02
994.28	215.06
994.58	215.08
994.87	215.09
995.16	215.10
995.45	215.10
995.74	215.04
996.03	215.08
996.32	215.10
996.61	215.16
996.90	215.17
997.19	215.16
997.48	215.17
997.77	215.15
998.06	215.20
998.34	215.18
998.63	215.16
998.92	215.20
999.21	215.23
999.50	215.23
999.79	215.18
1000.08	215.19
1000.37	215.19
1000.66	215.13
1000.95	215.14
1001.24	215.18
1001.53	215.18
1001.82	215.18
1002.11	215.16
1002.40	215.18
1002.68	215.19
1002.97	215.31
1003.26	215.28
1003.55	215.27
1003.84	215.29
1004.13	215.37
1004.42	215.35
1004.71	215.35
1004.99	215.31
1005.28	215.33
1005.57	215.32
1005.86	215.28
1006.15	215.24
1006.44	215.19
1006.72	215.27
1007.01	215.23
1007.30	215.22
1007.59	215.22
1007.88	215.20
1008.17	215.19
1008.45	215.14
1008.74	215.08
1009.03	215.02
1009.32	214.99
1009.60	214.98
1009.89	214.95
1010.18	214.87
1010.47	214.86
1010.76	214.87
1011.04	214.89
1011.33	214.90
1011.62	214.93
1011.91	214.96
1012.19	214.97
1012.48	215.01
1012.77	214.98
1013.05	215.12
1013.34	215.10
1013.63	215.08
1013.92	215.09
1014.20	215.07
1014.49	215.07
1014.78	215.08
1015.06	215.01
1015.35	215.03
1015.64	215.07
1015.92	215.13
1016.21	215.12
1016.50	215.14
1016.78	215.16
1017.07	215.16
1017.36	215.13
1017.64	215.09
1017.93	215.12
1018.22	215.12
1018.50	215.07
1018.79	215.06
1019.08	214.91
1019.36	214.92
1019.65	214.90
1019.93	214.99
1020.22	214.99
1020.51	215.09
1020.79	215.06
1021.08	214.91
1021.36	214.28
1021.65	214.85
1021.94	214.29
1022.22	215.13
1022.51	214.38
1022.79	216.35
1023.08	214.74
1023.36	216.99
1023.65	214.30
>>>>>End Processed Spectral Data<<<<<
