SpectraSuite Data File
++++++++++++++++++++++++++++++++++++
Date: Tue Jan 29 16:30:14 EST 2013
User: group
Dark Spectrum Present: No
Reference Spectrum Present: No
Number of Sampled Component Spectra: 1
Spectrometers: USB2E7196
Integration Time (usec): 65000 (USB2E7196)
Spectra Averaged: 100 (USB2E7196)
Boxcar Smoothing: 10 (USB2E7196)
Correct for Electrical Dark: No (USB2E7196)
Strobe/Lamp Enabled: No (USB2E7196)
Correct for Detector Non-linearity: No (USB2E7196)
Correct for Stray Light: No (USB2E7196)
Number of Pixels in Processed Spectrum: 2048
>>>>>Begin Processed Spectral Data<<<<<
339.09	0.00
339.48	202.01
339.86	203.17
340.24	204.99
340.63	206.86
341.01	210.27
341.39	209.49
341.78	209.92
342.16	211.82
342.54	212.02
342.93	201.21
343.31	211.38
343.69	211.91
344.07	212.43
344.46	212.88
344.84	213.22
345.22	213.40
345.60	213.62
345.99	213.87
346.37	214.01
346.75	214.10
347.13	214.17
347.52	214.23
347.90	214.35
348.28	214.40
348.66	214.44
349.05	214.44
349.43	214.49
349.81	214.56
350.19	214.60
350.57	214.67
350.96	214.77
351.34	214.90
351.72	215.00
352.10	215.06
352.48	215.14
352.87	215.24
353.25	215.30
353.63	215.37
354.01	215.42
354.39	215.50
354.77	215.58
355.15	215.75
355.54	215.78
355.92	215.79
356.30	215.86
356.68	216.07
357.06	216.14
357.44	216.20
357.82	216.24
358.20	216.36
358.58	216.43
358.97	216.48
359.35	216.54
359.73	216.63
360.11	216.69
360.49	216.75
360.87	216.80
361.25	216.90
361.63	217.04
362.01	217.08
362.39	217.12
362.77	217.22
363.15	217.21
363.53	217.25
363.91	217.31
364.29	217.36
364.67	217.21
365.05	217.21
365.43	217.27
365.81	217.34
366.19	217.41
366.57	217.48
366.95	217.49
367.33	217.44
367.71	217.44
368.09	217.49
368.47	217.47
368.85	217.45
369.23	217.48
369.61	217.39
369.99	217.47
370.37	217.47
370.75	217.52
371.13	217.46
371.51	217.45
371.89	217.44
372.27	217.41
372.65	217.42
373.03	217.41
373.41	217.35
373.78	217.28
374.16	217.17
374.54	217.10
374.92	217.06
375.30	217.05
375.68	217.00
376.06	216.97
376.44	216.93
376.82	216.89
377.19	216.84
377.57	216.78
377.95	216.66
378.33	216.61
378.71	216.43
379.09	216.45
379.47	216.38
379.84	216.33
380.22	216.28
380.60	216.15
380.98	216.12
381.36	216.09
381.73	216.05
382.11	216.04
382.49	215.99
382.87	215.92
383.25	215.87
383.62	216.07
384.00	215.98
384.38	215.94
384.76	215.99
385.13	216.03
385.51	215.98
385.89	215.95
386.27	215.91
386.64	215.93
387.02	215.86
387.40	215.86
387.78	215.83
388.15	215.82
388.53	215.82
388.91	215.81
389.29	215.77
389.66	215.79
390.04	215.71
390.42	215.72
390.79	215.72
391.17	215.73
391.55	215.47
391.92	215.49
392.30	215.53
392.68	215.42
393.05	215.37
393.43	215.39
393.81	215.40
394.18	215.38
394.56	215.38
394.94	215.43
395.31	215.41
395.69	215.47
396.06	215.51
396.44	215.55
396.82	215.53
397.19	215.64
397.57	215.63
397.95	215.72
398.32	215.66
398.70	215.68
399.07	215.73
399.45	215.77
399.82	215.78
400.20	215.78
400.58	215.87
400.95	215.87
401.33	215.96
401.70	216.13
402.08	216.19
402.45	216.29
402.83	216.40
403.20	216.53
403.58	216.59
403.95	216.74
404.33	216.89
404.71	217.03
405.08	217.27
405.46	217.45
405.83	217.63
406.21	217.84
406.58	218.10
406.96	218.34
407.33	218.63
407.70	218.92
408.08	219.38
408.45	219.75
408.83	220.13
409.20	220.49
409.58	220.83
409.95	221.29
410.33	221.75
410.70	222.18
411.08	222.75
411.45	223.32
411.82	223.90
412.20	224.57
412.57	225.43
412.95	226.03
413.32	226.86
413.69	227.72
414.07	228.65
414.44	229.63
414.82	230.60
415.19	231.73
415.56	232.94
415.94	234.13
416.31	235.55
416.68	236.97
417.06	238.55
417.43	240.08
417.81	241.83
418.18	243.59
418.55	245.54
418.93	247.54
419.30	249.66
419.67	251.89
420.04	254.17
420.42	256.55
420.79	259.32
421.16	262.10
421.54	264.99
421.91	267.95
422.28	271.08
422.66	274.41
423.03	277.69
423.40	281.05
423.77	284.65
424.15	288.26
424.52	292.10
424.89	296.31
425.26	300.33
425.64	304.24
426.01	308.58
426.38	313.04
426.75	317.59
427.13	322.30
427.50	327.23
427.87	332.45
428.24	337.63
428.61	342.67
428.99	348.14
429.36	354.11
429.73	360.05
430.10	365.89
430.47	371.96
430.85	378.27
431.22	384.96
431.59	392.04
431.96	398.89
432.33	406.36
432.70	413.62
433.08	422.17
433.45	430.16
433.82	438.15
434.19	447.03
434.56	455.68
434.93	463.99
435.30	472.30
435.68	481.38
436.05	490.33
436.42	499.25
436.79	507.42
437.16	516.14
437.53	525.42
437.90	534.56
438.27	543.49
438.64	552.67
439.01	561.18
439.38	568.78
439.75	576.04
440.13	584.48
440.50	592.40
440.87	598.80
441.24	605.44
441.61	612.86
441.98	618.23
442.35	624.65
442.72	631.04
443.09	637.08
443.46	640.80
443.83	643.35
444.20	645.52
444.57	648.70
444.94	650.22
445.31	651.59
445.68	652.90
446.05	653.56
446.42	652.86
446.79	651.91
447.16	650.79
447.53	650.08
447.90	646.71
448.27	643.47
448.64	638.84
449.01	635.54
449.37	629.57
449.74	623.93
450.11	616.97
450.48	609.55
450.85	602.05
451.22	595.61
451.59	589.50
451.96	583.66
452.33	575.80
452.70	568.67
453.07	560.21
453.43	551.69
453.80	543.37
454.17	535.29
454.54	527.80
454.91	519.60
455.28	511.62
455.65	504.26
456.02	496.69
456.38	490.37
456.75	482.53
457.12	475.96
457.49	469.43
457.86	463.23
458.23	457.76
458.59	451.89
458.96	445.87
459.33	440.57
459.70	435.20
460.07	430.90
460.43	426.04
460.80	421.47
461.17	417.52
461.54	413.29
461.91	409.32
462.27	405.20
462.64	401.78
463.01	398.00
463.38	394.32
463.74	390.66
464.11	387.41
464.48	384.54
464.85	381.44
465.21	379.03
465.58	376.42
465.95	373.39
466.32	370.77
466.68	368.18
467.05	365.54
467.42	363.02
467.78	360.35
468.15	357.79
468.52	355.89
468.88	353.36
469.25	351.16
469.62	349.34
469.98	347.35
470.35	345.55
470.72	343.83
471.08	342.00
471.45	340.43
471.82	338.89
472.18	337.27
472.55	336.02
472.92	334.61
473.28	333.41
473.65	332.22
474.02	331.13
474.38	330.25
474.75	329.50
475.11	328.65
475.48	328.12
475.85	327.66
476.21	327.16
476.58	326.84
476.94	326.62
477.31	326.33
477.67	326.14
478.04	326.01
478.41	325.97
478.77	326.16
479.14	326.16
479.50	326.31
479.87	326.57
480.23	326.97
480.60	327.21
480.96	327.51
481.33	328.11
481.69	328.66
482.06	329.11
482.42	329.63
482.79	330.26
483.15	331.02
483.52	331.94
483.88	332.79
484.25	333.69
484.61	334.64
484.98	335.71
485.34	337.01
485.71	338.38
486.07	339.82
486.44	341.09
486.80	342.71
487.17	344.40
487.53	346.25
487.90	348.09
488.26	350.11
488.62	352.23
488.99	354.26
489.35	356.43
489.72	358.87
490.08	361.35
490.44	363.90
490.81	366.60
491.17	369.35
491.54	372.37
491.90	375.41
492.26	378.72
492.63	382.13
492.99	385.62
493.36	389.27
493.72	393.19
494.08	397.25
494.45	401.49
494.81	405.85
495.17	410.28
495.54	414.99
495.90	419.85
496.26	424.74
496.63	430.02
496.99	435.38
497.35	440.95
497.72	446.82
498.08	452.75
498.44	458.89
498.80	465.37
499.17	471.88
499.53	478.59
499.89	485.50
500.26	492.48
500.62	499.57
500.98	507.04
501.34	514.51
501.71	522.36
502.07	530.19
502.43	538.23
502.79	546.42
503.16	554.83
503.52	563.41
503.88	572.24
504.24	581.24
504.60	590.40
504.97	599.70
505.33	609.02
505.69	618.92
506.05	628.82
506.41	638.71
506.78	648.85
507.14	659.22
507.50	669.78
507.86	680.61
508.22	691.47
508.59	702.17
508.95	713.32
509.31	724.59
509.67	736.19
510.03	747.64
510.39	759.46
510.75	771.44
511.12	783.55
511.48	795.73
511.84	808.05
512.20	820.45
512.56	833.17
512.92	846.03
513.28	858.86
513.64	871.67
514.00	884.67
514.37	897.73
514.73	910.82
515.09	923.85
515.45	936.74
515.81	949.90
516.17	963.35
516.53	976.74
516.89	989.90
517.25	1003.16
517.61	1016.88
517.97	1030.34
518.33	1043.57
518.69	1057.14
519.05	1070.93
519.41	1084.75
519.77	1098.73
520.13	1112.12
520.49	1125.44
520.85	1138.81
521.21	1152.30
521.57	1166.07
521.93	1179.29
522.29	1193.33
522.65	1207.15
523.01	1220.96
523.37	1234.30
523.73	1247.77
524.09	1261.04
524.45	1274.56
524.81	1288.10
525.17	1301.56
525.53	1314.87
525.89	1328.32
526.25	1341.60
526.61	1354.61
526.97	1367.87
527.33	1380.96
527.68	1394.55
528.04	1408.21
528.40	1421.54
528.76	1435.01
529.12	1447.90
529.48	1461.39
529.84	1473.67
530.20	1486.57
530.56	1499.26
530.91	1512.57
531.27	1525.60
531.63	1538.44
531.99	1551.33
532.35	1563.68
532.71	1576.14
533.07	1589.19
533.42	1601.42
533.78	1613.60
534.14	1625.77
534.50	1636.97
534.86	1648.70
535.21	1659.67
535.57	1671.30
535.93	1682.70
536.29	1693.89
536.65	1705.56
537.00	1716.52
537.36	1728.10
537.72	1739.17
538.08	1750.74
538.44	1761.78
538.79	1772.95
539.15	1783.87
539.51	1794.81
539.87	1806.21
540.22	1817.21
540.58	1828.27
540.94	1839.40
541.29	1849.86
541.65	1859.85
542.01	1870.55
542.37	1880.74
542.72	1891.00
543.08	1900.77
543.44	1911.30
543.79	1920.74
544.15	1930.27
544.51	1940.29
544.87	1950.25
545.22	1959.55
545.58	1968.50
545.94	1977.51
546.29	1985.97
546.65	1994.53
547.01	2002.80
547.36	2010.64
547.72	2018.44
548.07	2026.04
548.43	2034.03
548.79	2041.94
549.14	2050.10
549.50	2058.59
549.86	2066.64
550.21	2074.21
550.57	2082.09
550.92	2088.98
551.28	2096.69
551.64	2104.00
551.99	2111.71
552.35	2118.92
552.70	2125.79
553.06	2132.54
553.41	2138.90
553.77	2145.57
554.13	2151.94
554.48	2159.12
554.84	2166.30
555.19	2172.86
555.55	2179.40
555.90	2185.61
556.26	2192.44
556.61	2198.48
556.97	2203.45
557.32	2209.21
557.68	2215.70
558.03	2221.45
558.39	2226.78
558.74	2232.62
559.10	2238.10
559.45	2243.60
559.81	2249.20
560.16	2254.82
560.52	2260.65
560.87	2267.05
561.23	2273.09
561.58	2279.92
561.94	2285.15
562.29	2289.97
562.64	2296.13
563.00	2301.84
563.35	2307.45
563.71	2313.21
564.06	2319.07
564.42	2324.91
564.77	2329.95
565.12	2335.10
565.48	2340.26
565.83	2345.77
566.19	2351.15
566.54	2356.58
566.89	2361.15
567.25	2365.73
567.60	2371.42
567.96	2376.69
568.31	2381.20
568.66	2385.55
569.02	2389.53
569.37	2393.18
569.72	2397.56
570.08	2400.95
570.43	2404.10
570.78	2407.18
571.14	2409.67
571.49	2412.74
571.84	2416.22
572.20	2419.21
572.55	2422.17
572.90	2424.51
573.26	2427.36
573.61	2430.08
573.96	2432.38
574.31	2434.48
574.67	2436.29
575.02	2437.17
575.37	2438.53
575.72	2439.34
576.08	2440.74
576.43	2440.75
576.78	2441.34
577.13	2442.81
577.49	2444.04
577.84	2445.05
578.19	2446.33
578.54	2447.00
578.90	2447.66
579.25	2447.69
579.60	2447.49
579.95	2446.75
580.30	2446.74
580.66	2446.15
581.01	2444.36
581.36	2441.97
581.71	2440.42
582.06	2439.36
582.42	2438.29
582.77	2435.92
583.12	2434.21
583.47	2432.74
583.82	2432.14
584.17	2430.73
584.53	2428.59
584.88	2426.48
585.23	2424.52
585.58	2422.21
585.93	2420.08
586.28	2417.84
586.63	2415.28
586.98	2412.98
587.34	2410.94
587.69	2408.41
588.04	2406.21
588.39	2404.66
588.74	2402.01
589.09	2399.30
589.44	2396.08
589.79	2393.61
590.14	2391.65
590.49	2388.85
590.84	2384.86
591.19	2381.64
591.54	2378.38
591.89	2374.24
592.25	2370.93
592.60	2366.67
592.95	2362.48
593.30	2358.32
593.65	2353.79
594.00	2349.25
594.35	2346.37
594.70	2341.63
595.05	2337.04
595.40	2331.61
595.75	2325.89
596.10	2322.25
596.45	2317.49
596.80	2312.85
597.15	2307.68
597.50	2301.73
597.85	2296.76
598.19	2291.58
598.54	2285.82
598.89	2280.58
599.24	2276.03
599.59	2269.77
599.94	2263.87
600.29	2257.83
600.64	2251.78
600.99	2245.15
601.34	2239.66
601.69	2232.57
602.04	2226.22
602.39	2219.48
602.74	2213.19
603.08	2207.57
603.43	2201.03
603.78	2194.16
604.13	2187.00
604.48	2179.56
604.83	2173.37
605.18	2166.96
605.53	2160.09
605.87	2152.94
606.22	2146.02
606.57	2138.06
606.92	2130.07
607.27	2123.11
607.62	2116.47
607.96	2109.50
608.31	2103.00
608.66	2095.27
609.01	2087.52
609.36	2080.38
609.70	2072.64
610.05	2064.89
610.40	2056.55
610.75	2048.12
611.10	2040.23
611.44	2031.23
611.79	2022.51
612.14	2012.60
612.49	2001.91
612.83	1992.46
613.18	1983.12
613.53	1973.84
613.88	1964.22
614.22	1955.66
614.57	1945.71
614.92	1935.06
615.27	1924.75
615.61	1914.43
615.96	1904.65
616.31	1895.00
616.65	1885.53
617.00	1875.84
617.35	1866.08
617.70	1856.18
618.04	1846.25
618.39	1836.03
618.74	1826.45
619.08	1816.71
619.43	1807.87
619.78	1799.64
620.12	1791.00
620.47	1781.31
620.82	1770.98
621.16	1761.07
621.51	1750.98
621.85	1741.05
622.20	1730.67
622.55	1720.13
622.89	1710.24
623.24	1700.44
623.59	1690.55
623.93	1680.35
624.28	1670.57
624.62	1660.46
624.97	1650.25
625.32	1640.19
625.66	1631.17
626.01	1622.33
626.35	1612.96
626.70	1602.92
627.04	1592.83
627.39	1582.57
627.73	1573.34
628.08	1564.24
628.43	1554.63
628.77	1545.39
629.12	1536.45
629.46	1528.53
629.81	1520.02
630.15	1510.38
630.50	1500.55
630.84	1490.10
631.19	1480.09
631.53	1470.64
631.88	1460.41
632.22	1450.25
632.57	1440.90
632.91	1430.87
633.26	1420.91
633.60	1411.36
633.95	1401.96
634.29	1392.45
634.64	1383.11
634.98	1373.04
635.32	1363.64
635.67	1355.17
636.01	1345.89
636.36	1336.19
636.70	1326.68
637.05	1317.25
637.39	1308.43
637.73	1299.83
638.08	1292.19
638.42	1284.02
638.77	1275.23
639.11	1266.98
639.45	1259.18
639.80	1250.64
640.14	1241.83
640.49	1233.09
640.83	1224.10
641.17	1215.88
641.52	1207.57
641.86	1198.91
642.20	1191.01
642.55	1182.39
642.89	1173.35
643.23	1164.64
643.58	1156.45
643.92	1147.26
644.26	1138.59
644.61	1129.93
644.95	1121.02
645.29	1111.69
645.64	1102.49
645.98	1093.86
646.32	1085.90
646.66	1077.32
647.01	1069.04
647.35	1060.86
647.69	1052.33
648.04	1044.03
648.38	1035.05
648.72	1026.22
649.06	1017.73
649.41	1009.48
649.75	1001.51
650.09	993.68
650.43	985.53
650.78	977.16
651.12	969.48
651.46	962.00
651.80	954.74
652.14	947.42
652.49	939.93
652.83	932.47
653.17	924.73
653.51	916.99
653.85	909.69
654.20	902.19
654.54	894.57
654.88	887.23
655.22	879.85
655.56	872.82
655.90	866.00
656.25	859.30
656.59	852.36
656.93	845.24
657.27	837.98
657.61	830.99
657.95	824.78
658.29	818.72
658.64	812.52
658.98	805.91
659.32	799.23
659.66	792.92
660.00	786.57
660.34	780.46
660.68	774.24
661.02	767.74
661.36	761.78
661.70	755.94
662.05	750.25
662.39	744.76
662.73	739.27
663.07	733.80
663.41	728.04
663.75	722.17
664.09	716.46
664.43	710.98
664.77	705.64
665.11	699.73
665.45	693.84
665.79	687.90
666.13	682.22
666.47	676.67
666.81	671.12
667.15	665.72
667.49	660.45
667.83	655.18
668.17	649.98
668.51	644.80
668.85	639.89
669.19	634.93
669.53	629.89
669.87	624.75
670.21	619.95
670.55	615.24
670.89	610.82
671.23	606.45
671.57	602.04
671.91	597.61
672.25	593.47
672.58	589.22
672.92	585.18
673.26	581.22
673.60	577.32
673.94	573.47
674.28	569.72
674.62	565.98
674.96	562.18
675.30	558.60
675.64	554.90
675.97	551.23
676.31	547.62
676.65	543.94
676.99	540.47
677.33	536.56
677.67	532.81
678.01	528.95
678.34	525.23
678.68	521.67
679.02	518.01
679.36	514.22
679.70	510.50
680.04	506.85
680.37	503.37
680.71	500.01
681.05	496.82
681.39	493.55
681.73	490.33
682.06	487.24
682.40	484.13
682.74	480.89
683.08	477.64
683.42	474.39
683.75	471.38
684.09	468.37
684.43	465.56
684.77	462.64
685.10	459.72
685.44	456.76
685.78	453.79
686.12	450.98
686.45	448.28
686.79	445.60
687.13	443.05
687.46	440.39
687.80	437.65
688.14	434.74
688.48	432.02
688.81	429.30
689.15	426.65
689.49	424.03
689.82	421.42
690.16	418.75
690.50	416.27
690.83	413.72
691.17	411.11
691.51	408.55
691.84	406.23
692.18	404.01
692.52	401.77
692.85	399.61
693.19	397.42
693.52	395.17
693.86	392.93
694.20	390.70
694.53	388.47
694.87	386.25
695.21	384.09
695.54	381.93
695.88	379.71
696.21	377.48
696.55	375.29
696.88	373.25
697.22	371.27
697.56	369.33
697.89	367.41
698.23	365.63
698.56	363.84
698.90	362.07
699.23	360.11
699.57	358.25
699.90	356.38
700.24	354.56
700.58	352.83
700.91	351.16
701.25	349.57
701.58	347.97
701.92	346.36
702.25	344.74
702.59	343.09
702.92	341.55
703.26	339.98
703.59	338.48
703.93	337.20
704.26	335.76
704.60	334.21
704.93	332.69
705.26	331.16
705.60	329.66
705.93	328.07
706.27	326.70
706.60	325.35
706.94	324.03
707.27	322.61
707.61	321.26
707.94	319.86
708.27	318.38
708.61	316.86
708.94	315.46
709.28	314.14
709.61	312.90
709.94	311.67
710.28	310.46
710.61	309.25
710.95	307.84
711.28	306.75
711.61	305.55
711.95	304.43
712.28	303.24
712.61	302.05
712.95	301.04
713.28	299.98
713.61	298.85
713.95	297.69
714.28	296.67
714.61	295.56
714.95	294.56
715.28	293.50
715.61	292.50
715.95	291.51
716.28	290.55
716.61	289.58
716.95	288.56
717.28	287.58
717.61	286.63
717.94	285.69
718.28	284.60
718.61	283.74
718.94	282.82
719.27	281.92
719.61	281.11
719.94	280.22
720.27	279.25
720.60	278.36
720.94	277.53
721.27	276.71
721.60	276.00
721.93	275.25
722.27	274.55
722.60	273.90
722.93	273.20
723.26	272.54
723.59	271.79
723.93	271.18
724.26	270.53
724.59	269.87
724.92	269.27
725.25	268.71
725.59	268.10
725.92	267.55
726.25	267.01
726.58	266.41
726.91	265.77
727.24	265.20
727.57	264.66
727.91	264.09
728.24	263.57
728.57	262.97
728.90	262.40
729.23	261.79
729.56	261.31
729.89	260.77
730.22	260.15
730.55	259.61
730.89	258.99
731.22	258.44
731.55	257.87
731.88	257.35
732.21	256.82
732.54	256.27
732.87	255.74
733.20	255.23
733.53	254.72
733.86	254.28
734.19	253.81
734.52	253.36
734.85	253.09
735.18	252.61
735.51	252.21
735.84	251.78
736.17	251.40
736.50	250.83
736.83	250.69
737.16	250.33
737.49	249.92
737.82	249.57
738.15	249.20
738.48	248.86
738.81	248.44
739.14	248.04
739.47	247.64
739.80	247.27
740.13	246.88
740.46	246.51
740.79	246.10
741.12	245.72
741.45	245.35
741.78	244.87
742.11	244.56
742.44	244.19
742.77	243.90
743.10	243.53
743.43	243.23
743.75	242.62
744.08	242.54
744.41	242.24
744.74	241.89
745.07	241.52
745.40	241.17
745.73	240.93
746.06	240.58
746.39	240.27
746.71	239.92
747.04	239.59
747.37	239.30
747.70	239.02
748.03	238.72
748.36	238.45
748.68	238.16
749.01	237.81
749.34	237.52
749.67	237.20
750.00	236.92
750.33	236.76
750.65	236.51
750.98	235.99
751.31	235.72
751.64	235.52
751.97	235.38
752.29	235.15
752.62	234.83
752.95	234.58
753.28	234.36
753.60	234.13
753.93	233.97
754.26	233.74
754.59	233.48
754.91	233.22
755.24	232.96
755.57	232.71
755.90	232.47
756.22	232.25
756.55	232.03
756.88	231.81
757.20	231.46
757.53	231.19
757.86	230.98
758.19	230.75
758.51	230.52
758.84	230.19
759.17	229.96
759.49	229.74
759.82	229.67
760.15	229.48
760.47	229.27
760.80	228.98
761.13	228.79
761.45	228.58
761.78	228.38
762.11	228.23
762.43	228.04
762.76	227.87
763.08	227.70
763.41	227.52
763.74	227.36
764.06	227.22
764.39	227.06
764.71	226.90
765.04	226.75
765.37	226.58
765.69	226.43
766.02	226.28
766.34	226.13
766.67	225.89
767.00	225.80
767.32	225.78
767.65	225.80
767.97	225.66
768.30	225.54
768.62	225.45
768.95	225.29
769.27	225.16
769.60	225.07
769.92	224.91
770.25	224.74
770.57	224.57
770.90	224.42
771.22	224.29
771.55	224.17
771.87	224.05
772.20	223.93
772.52	224.00
772.85	224.10
773.17	224.01
773.50	223.87
773.82	223.74
774.15	223.51
774.47	223.27
774.80	223.17
775.12	223.08
775.45	222.98
775.77	222.93
776.09	222.87
776.42	222.78
776.74	222.77
777.07	222.67
777.39	222.60
777.72	222.46
778.04	222.44
778.36	222.32
778.69	222.26
779.01	222.18
779.33	221.93
779.66	221.65
779.98	221.54
780.31	221.51
780.63	221.50
780.95	221.50
781.28	221.42
781.60	221.37
781.92	221.29
782.25	221.20
782.57	221.07
782.89	220.97
783.22	220.87
783.54	220.77
783.86	220.72
784.19	220.67
784.51	220.73
784.83	220.64
785.16	220.56
785.48	220.51
785.80	220.43
786.12	220.40
786.45	220.29
786.77	220.28
787.09	220.20
787.42	220.06
787.74	219.99
788.06	219.92
788.38	219.84
788.71	219.74
789.03	219.69
789.35	219.67
789.67	219.60
789.99	219.57
790.32	219.48
790.64	219.46
790.96	219.53
791.28	219.39
791.61	219.34
791.93	219.32
792.25	219.26
792.57	219.39
792.89	219.28
793.21	219.27
793.54	219.17
793.86	219.09
794.18	219.08
794.50	219.00
794.82	218.97
795.14	218.93
795.47	218.93
795.79	218.90
796.11	218.82
796.43	218.76
796.75	218.70
797.07	218.70
797.39	218.61
797.71	218.44
798.04	218.41
798.36	218.40
798.68	218.38
799.00	218.32
799.32	218.19
799.64	218.21
799.96	218.16
800.28	218.19
800.60	218.17
800.92	218.12
801.24	218.10
801.56	218.06
801.89	218.01
802.21	218.00
802.53	217.92
802.85	217.90
803.17	217.98
803.49	217.93
803.81	217.87
804.13	217.85
804.45	217.80
804.77	217.80
805.09	217.74
805.41	217.67
805.73	217.64
806.05	217.53
806.37	217.48
806.69	217.44
807.01	217.38
807.33	217.36
807.65	217.26
807.97	217.28
808.28	217.24
808.60	217.19
808.92	217.13
809.24	217.26
809.56	217.25
809.88	217.15
810.20	217.12
810.52	217.12
810.84	217.10
811.16	217.09
811.48	217.09
811.80	217.13
812.12	217.12
812.43	217.13
812.75	217.11
813.07	217.06
813.39	217.04
813.71	217.00
814.03	216.97
814.35	216.96
814.67	216.86
814.98	216.81
815.30	216.82
815.62	216.75
815.94	216.59
816.26	216.55
816.58	216.48
816.89	216.48
817.21	216.41
817.53	216.38
817.85	216.35
818.17	216.27
818.48	216.20
818.80	216.18
819.12	216.15
819.44	216.12
819.76	216.09
820.07	216.09
820.39	216.07
820.71	216.02
821.03	216.02
821.34	215.99
821.66	216.01
821.98	215.98
822.30	215.97
822.61	216.07
822.93	216.00
823.25	216.01
823.57	216.00
823.88	216.06
824.20	216.06
824.52	216.05
824.83	216.04
825.15	215.99
825.47	215.97
825.79	215.93
826.10	215.88
826.42	215.86
826.74	215.90
827.05	215.86
827.37	215.87
827.69	215.81
828.00	215.80
828.32	215.79
828.64	215.78
828.95	215.89
829.27	215.82
829.58	215.85
829.90	215.87
830.22	215.84
830.53	215.74
830.85	215.68
831.17	215.62
831.48	215.61
831.80	215.60
832.11	215.61
832.43	215.63
832.75	215.63
833.06	215.74
833.38	215.60
833.69	215.60
834.01	215.59
834.32	215.61
834.64	215.62
834.96	215.65
835.27	215.61
835.59	215.56
835.90	215.51
836.22	215.49
836.53	215.45
836.85	215.41
837.16	215.61
837.48	215.61
837.79	215.70
838.11	215.73
838.42	215.70
838.74	215.72
839.05	215.67
839.37	215.66
839.68	215.55
840.00	215.60
840.31	215.63
840.63	215.62
840.94	215.61
841.26	215.55
841.57	215.49
841.88	215.50
842.20	215.44
842.51	215.41
842.83	215.41
843.14	215.58
843.46	215.59
843.77	215.48
844.08	215.50
844.40	215.40
844.71	215.35
845.03	215.33
845.34	215.28
845.65	215.26
845.97	215.27
846.28	215.25
846.60	215.23
846.91	215.19
847.22	215.17
847.54	215.20
847.85	215.22
848.16	215.22
848.48	215.19
848.79	215.28
849.10	215.30
849.42	215.31
849.73	215.11
850.04	215.06
850.36	214.95
850.67	214.94
850.98	214.98
851.30	215.00
851.61	215.01
851.92	215.03
852.23	215.10
852.55	215.11
852.86	215.14
853.17	215.14
853.49	215.18
853.80	215.20
854.11	215.21
854.42	215.23
854.74	215.23
855.05	215.25
855.36	215.14
855.67	215.12
855.99	215.12
856.30	215.36
856.61	215.39
856.92	215.41
857.23	215.41
857.55	215.35
857.86	215.32
858.17	215.32
858.48	215.26
858.79	215.19
859.11	215.17
859.42	215.16
859.73	215.14
860.04	215.13
860.35	215.09
860.66	215.04
860.98	215.06
861.29	215.03
861.60	214.99
861.91	215.03
862.22	215.00
862.53	214.95
862.84	214.71
863.16	214.76
863.47	214.71
863.78	214.69
864.09	214.71
864.40	214.72
864.71	214.75
865.02	214.78
865.33	214.78
865.64	214.77
865.95	214.76
866.27	214.92
866.58	214.91
866.89	214.91
867.20	214.92
867.51	214.85
867.82	214.86
868.13	214.98
868.44	214.93
868.75	214.99
869.06	215.05
869.37	215.06
869.68	214.98
869.99	215.03
870.30	215.06
870.61	215.10
870.92	215.08
871.23	215.06
871.54	215.07
871.85	215.08
872.16	215.10
872.47	215.09
872.78	214.95
873.09	214.94
873.40	214.95
873.71	214.95
874.02	215.00
874.33	214.97
874.64	214.88
874.95	214.90
875.26	214.84
875.56	214.78
875.87	214.78
876.18	214.82
876.49	215.01
876.80	214.97
877.11	214.92
877.42	214.92
877.73	214.93
878.04	214.90
878.35	214.93
878.66	214.93
878.96	214.91
879.27	214.90
879.58	214.90
879.89	214.87
880.20	214.94
880.51	214.89
880.82	214.91
881.12	214.95
881.43	214.91
881.74	214.91
882.05	214.92
882.36	214.91
882.67	214.91
882.97	214.67
883.28	214.67
883.59	214.68
883.90	214.69
884.21	214.73
884.51	214.74
884.82	214.70
885.13	214.71
885.44	214.72
885.74	214.73
886.05	214.72
886.36	214.72
886.67	214.63
886.98	214.74
887.28	214.74
887.59	214.73
887.90	214.76
888.20	214.73
888.51	214.78
888.82	214.74
889.13	214.75
889.43	214.94
889.74	214.93
890.05	214.93
890.35	214.93
890.66	214.86
890.97	214.84
891.28	214.82
891.58	214.79
891.89	214.79
892.20	214.76
892.50	214.75
892.81	214.71
893.12	214.72
893.42	214.61
893.73	214.63
894.04	214.63
894.34	214.66
894.65	214.66
894.95	214.64
895.26	214.65
895.57	214.72
895.87	214.52
896.18	214.53
896.48	214.52
896.79	214.50
897.10	214.54
897.40	214.52
897.71	214.55
898.01	214.58
898.32	214.59
898.63	214.54
898.93	214.54
899.24	214.56
899.54	214.53
899.85	214.51
900.15	214.48
900.46	214.48
900.76	214.49
901.07	214.52
901.38	214.46
901.68	214.52
901.99	214.41
902.29	214.42
902.60	214.44
902.90	214.42
903.21	214.41
903.51	214.35
903.82	214.42
904.12	214.44
904.43	214.41
904.73	214.40
905.03	214.43
905.34	214.63
905.64	214.62
905.95	214.62
906.25	214.63
906.56	214.63
906.86	214.63
907.17	214.58
907.47	214.53
907.77	214.56
908.08	214.50
908.38	214.52
908.69	214.53
908.99	214.52
909.30	214.58
909.60	214.56
909.90	214.64
910.21	214.56
910.51	214.53
910.81	214.51
911.12	214.50
911.42	214.51
911.73	214.30
912.03	214.29
912.33	214.32
912.64	214.32
912.94	214.29
913.24	214.28
913.55	214.29
913.85	214.28
914.15	214.32
914.46	214.35
914.76	214.35
915.06	214.35
915.37	214.33
915.67	214.29
915.97	214.29
916.27	214.23
916.58	214.26
916.88	214.23
917.18	214.24
917.49	214.39
917.79	214.37
918.09	214.41
918.39	214.50
918.70	214.51
919.00	214.52
919.30	214.65
919.60	214.61
919.91	214.57
920.21	214.61
920.51	214.56
920.81	214.54
921.12	214.58
921.42	214.56
921.72	214.59
922.02	214.60
922.32	214.65
922.63	214.67
922.93	214.79
923.23	214.80
923.53	214.79
923.83	214.67
924.13	214.70
924.44	214.70
924.74	214.71
925.04	214.78
925.34	214.74
925.64	214.61
925.94	214.66
926.24	214.81
926.55	214.78
926.85	214.81
927.15	214.79
927.45	214.81
927.75	214.84
928.05	214.84
928.35	214.82
928.65	214.83
928.95	214.83
929.26	214.72
929.56	214.77
929.86	214.79
930.16	214.74
930.46	214.75
930.76	214.72
931.06	214.61
931.36	214.55
931.66	214.62
931.96	214.65
932.26	214.64
932.56	214.54
932.86	214.59
933.16	214.58
933.46	214.60
933.76	214.53
934.06	214.53
934.36	214.61
934.66	214.61
934.96	214.59
935.26	214.61
935.56	214.65
935.86	214.60
936.16	214.55
936.46	214.56
936.76	214.53
937.06	214.50
937.36	214.56
937.66	214.57
937.96	214.52
938.26	214.50
938.56	214.46
938.86	214.47
939.16	214.45
939.46	214.45
939.76	214.47
940.06	214.47
940.35	214.43
940.65	214.32
940.95	214.34
941.25	214.31
941.55	214.27
941.85	214.26
942.15	214.29
942.45	214.36
942.75	214.37
943.04	214.38
943.34	214.45
943.64	214.41
943.94	214.36
944.24	214.37
944.54	214.37
944.84	214.37
945.13	214.32
945.43	214.33
945.73	214.34
946.03	214.30
946.33	214.28
946.62	214.25
946.92	214.24
947.22	214.26
947.52	214.24
947.82	214.26
948.11	214.24
948.41	214.22
948.71	214.16
949.01	214.13
949.31	214.13
949.60	214.07
949.90	214.09
950.20	214.11
950.50	214.06
950.79	214.04
951.09	214.04
951.39	214.09
951.69	214.05
951.98	214.07
952.28	214.07
952.58	214.09
952.87	214.11
953.17	214.12
953.47	214.09
953.76	214.11
954.06	214.07
954.36	214.05
954.66	214.05
954.95	214.10
955.25	214.16
955.55	214.18
955.84	214.16
956.14	214.18
956.44	214.21
956.73	214.21
957.03	214.24
957.32	214.27
957.62	214.24
957.92	214.32
958.21	214.29
958.51	214.55
958.81	214.58
959.10	214.59
959.40	214.62
959.69	214.64
959.99	214.67
960.29	214.69
960.58	214.65
960.88	214.74
961.17	214.71
961.47	214.70
961.76	214.66
962.06	214.72
962.36	214.72
962.65	214.72
962.95	214.73
963.24	214.72
963.54	214.70
963.83	214.69
964.13	214.66
964.42	214.61
964.72	214.41
965.01	214.41
965.31	214.42
965.60	214.41
965.90	214.53
966.19	214.47
966.49	214.47
966.78	214.50
967.08	214.45
967.37	214.46
967.67	214.41
967.96	214.46
968.26	214.41
968.55	214.42
968.85	214.36
969.14	214.35
969.43	214.35
969.73	214.33
970.02	214.33
970.32	214.30
970.61	214.32
970.91	214.28
971.20	214.23
971.49	214.21
971.79	214.20
972.08	214.05
972.38	214.07
972.67	214.09
972.96	214.13
973.26	214.11
973.55	214.13
973.85	214.14
974.14	214.14
974.43	214.20
974.73	214.16
975.02	214.18
975.31	214.20
975.61	214.17
975.90	214.14
976.19	214.13
976.49	214.15
976.78	214.14
977.07	214.15
977.37	214.19
977.66	214.19
977.95	214.17
978.24	214.18
978.54	214.23
978.83	214.19
979.12	214.16
979.42	214.13
979.71	214.11
980.00	214.12
980.29	214.13
980.59	214.05
980.88	214.10
981.17	214.11
981.46	214.10
981.76	214.13
982.05	214.25
982.34	214.24
982.63	214.25
982.93	214.24
983.22	214.31
983.51	214.30
983.80	214.36
984.09	214.37
984.39	214.35
984.68	214.29
984.97	214.32
985.26	214.28
985.55	214.34
985.85	214.31
986.14	214.35
986.43	214.35
986.72	214.35
987.01	214.27
987.30	214.28
987.59	214.29
987.89	214.26
988.18	214.17
988.47	214.17
988.76	214.15
989.05	214.17
989.34	214.08
989.63	214.12
989.92	214.08
990.22	214.06
990.51	214.08
990.80	214.09
991.09	214.12
991.38	214.20
991.67	214.13
991.96	214.11
992.25	214.11
992.54	214.04
992.83	214.06
993.12	214.08
993.41	214.07
993.70	214.18
993.99	214.24
994.28	214.28
994.58	214.32
994.87	214.30
995.16	214.29
995.45	214.30
995.74	214.22
996.03	214.26
996.32	214.30
996.61	214.34
996.90	214.32
997.19	214.29
997.48	214.27
997.77	214.29
998.06	214.30
998.34	214.26
998.63	214.28
998.92	214.29
999.21	214.30
999.50	214.30
999.79	214.19
1000.08	214.17
1000.37	214.15
1000.66	214.11
1000.95	214.18
1001.24	214.19
1001.53	214.21
1001.82	214.22
1002.11	214.17
1002.40	214.19
1002.68	214.23
1002.97	214.38
1003.26	214.35
1003.55	214.28
1003.84	214.26
1004.13	214.30
1004.42	214.32
1004.71	214.33
1004.99	214.30
1005.28	214.35
1005.57	214.34
1005.86	214.31
1006.15	214.30
1006.44	214.27
1006.72	214.30
1007.01	214.24
1007.30	214.24
1007.59	214.22
1007.88	214.21
1008.17	214.22
1008.45	214.19
1008.74	214.09
1009.03	214.01
1009.32	214.00
1009.60	214.05
1009.89	214.05
1010.18	213.97
1010.47	213.95
1010.76	213.97
1011.04	213.96
1011.33	213.97
1011.62	214.01
1011.91	214.04
1012.19	214.05
1012.48	214.05
1012.77	214.05
1013.05	214.16
1013.34	214.18
1013.63	214.19
1013.92	214.20
1014.20	214.19
1014.49	214.18
1014.78	214.19
1015.06	214.11
1015.35	214.10
1015.64	214.12
1015.92	214.14
1016.21	214.16
1016.50	214.15
1016.78	214.15
1017.07	214.18
1017.36	214.14
1017.64	214.07
1017.93	214.07
1018.22	214.07
1018.50	214.09
1018.79	214.09
1019.08	213.96
1019.36	213.97
1019.65	213.96
1019.93	214.00
1020.22	214.02
1020.51	214.13
1020.79	214.12
1021.08	214.09
1021.36	213.94
1021.65	214.47
1021.94	213.68
1022.22	214.53
1022.51	213.90
1022.79	214.62
1023.08	214.63
1023.36	216.31
1023.65	213.67
>>>>>End Processed Spectral Data<<<<<
