SpectraSuite Data File
++++++++++++++++++++++++++++++++++++
Date: Tue Jan 29 16:19:52 EST 2013
User: group
Dark Spectrum Present: No
Reference Spectrum Present: No
Number of Sampled Component Spectra: 1
Spectrometers: USB2E7196
Integration Time (usec): 65000 (USB2E7196)
Spectra Averaged: 100 (USB2E7196)
Boxcar Smoothing: 10 (USB2E7196)
Correct for Electrical Dark: No (USB2E7196)
Strobe/Lamp Enabled: No (USB2E7196)
Correct for Detector Non-linearity: No (USB2E7196)
Correct for Stray Light: No (USB2E7196)
Number of Pixels in Processed Spectrum: 2048
>>>>>Begin Processed Spectral Data<<<<<
339.09	0.00
339.48	202.51
339.86	203.63
340.24	204.79
340.63	206.07
341.01	211.23
341.39	209.01
341.78	210.65
342.16	212.63
342.54	212.72
342.93	201.48
343.31	211.67
343.69	212.20
344.07	212.67
344.46	213.12
344.84	213.55
345.22	213.72
345.60	214.00
345.99	214.20
346.37	214.29
346.75	214.41
347.13	214.51
347.52	214.58
347.90	214.69
348.28	214.67
348.66	214.69
349.05	214.67
349.43	214.78
349.81	214.86
350.19	214.91
350.57	215.01
350.96	215.13
351.34	215.24
351.72	215.36
352.10	215.46
352.48	215.53
352.87	215.57
353.25	215.64
353.63	215.70
354.01	215.77
354.39	215.84
354.77	215.92
355.15	216.00
355.54	216.06
355.92	216.07
356.30	216.19
356.68	216.40
357.06	216.48
357.44	216.48
357.82	216.51
358.20	216.62
358.58	216.67
358.97	216.69
359.35	216.78
359.73	216.88
360.11	216.95
360.49	217.01
360.87	217.08
361.25	217.14
361.63	217.25
362.01	217.33
362.39	217.39
362.77	217.42
363.15	217.49
363.53	217.51
363.91	217.58
364.29	217.58
364.67	217.42
365.05	217.44
365.43	217.50
365.81	217.58
366.19	217.65
366.57	217.74
366.95	217.73
367.33	217.69
367.71	217.67
368.09	217.71
368.47	217.71
368.85	217.72
369.23	217.81
369.61	217.73
369.99	217.75
370.37	217.75
370.75	217.84
371.13	217.73
371.51	217.68
371.89	217.67
372.27	217.66
372.65	217.66
373.03	217.64
373.41	217.58
373.78	217.52
374.16	217.39
374.54	217.32
374.92	217.32
375.30	217.28
375.68	217.20
376.06	217.17
376.44	217.10
376.82	217.06
377.19	216.96
377.57	216.91
377.95	216.80
378.33	216.74
378.71	216.55
379.09	216.55
379.47	216.52
379.84	216.43
380.22	216.39
380.60	216.31
380.98	216.25
381.36	216.22
381.73	216.17
382.11	216.18
382.49	216.12
382.87	216.06
383.25	216.01
383.62	216.20
384.00	216.12
384.38	216.10
384.76	216.09
385.13	216.14
385.51	216.09
385.89	216.07
386.27	216.08
386.64	216.11
387.02	216.07
387.40	216.02
387.78	216.02
388.15	216.00
388.53	215.94
388.91	215.93
389.29	215.87
389.66	215.88
390.04	215.82
390.42	215.83
390.79	215.83
391.17	215.83
391.55	215.60
391.92	215.61
392.30	215.62
392.68	215.57
393.05	215.55
393.43	215.56
393.81	215.55
394.18	215.49
394.56	215.47
394.94	215.52
395.31	215.54
395.69	215.64
396.06	215.68
396.44	215.74
396.82	215.72
397.19	215.91
397.57	215.87
397.95	215.95
398.32	215.94
398.70	215.98
399.07	216.06
399.45	216.10
399.82	216.15
400.20	216.17
400.58	216.24
400.95	216.19
401.33	216.28
401.70	216.50
402.08	216.61
402.45	216.71
402.83	216.83
403.20	216.95
403.58	217.01
403.95	217.17
404.33	217.33
404.71	217.50
405.08	217.74
405.46	217.94
405.83	218.10
406.21	218.28
406.58	218.51
406.96	218.73
407.33	218.97
407.70	219.25
408.08	219.73
408.45	220.06
408.83	220.48
409.20	220.82
409.58	221.08
409.95	221.52
410.33	221.99
410.70	222.41
411.08	222.93
411.45	223.48
411.82	224.06
412.20	224.74
412.57	225.53
412.95	226.05
413.32	226.87
413.69	227.71
414.07	228.59
414.44	229.59
414.82	230.60
415.19	231.78
415.56	232.94
415.94	234.07
416.31	235.45
416.68	236.80
417.06	238.34
417.43	239.87
417.81	241.61
418.18	243.34
418.55	245.25
418.93	247.29
419.30	249.34
419.67	251.53
420.04	253.74
420.42	256.08
420.79	258.86
421.16	261.62
421.54	264.46
421.91	267.40
422.28	270.41
422.66	273.60
423.03	276.81
423.40	280.15
423.77	283.68
424.15	287.30
424.52	291.08
424.89	295.23
425.26	299.25
425.64	303.04
426.01	307.25
426.38	311.66
426.75	316.12
427.13	320.75
427.50	325.58
427.87	330.73
428.24	335.85
428.61	340.79
428.99	346.21
429.36	352.12
429.73	357.92
430.10	363.71
430.47	369.70
430.85	375.86
431.22	382.36
431.59	389.36
431.96	396.01
432.33	403.39
432.70	410.48
433.08	418.82
433.45	426.76
433.82	434.66
434.19	443.35
434.56	451.95
434.93	460.22
435.30	468.41
435.68	477.34
436.05	486.16
436.42	494.89
436.79	502.86
437.16	511.48
437.53	520.61
437.90	529.65
438.27	538.46
438.64	547.52
439.01	555.96
439.38	563.44
439.75	570.62
440.13	578.94
440.50	586.77
440.87	593.12
441.24	599.62
441.61	606.80
441.98	612.16
442.35	618.29
442.72	624.43
443.09	630.36
443.46	633.99
443.83	636.48
444.20	638.60
444.57	641.70
444.94	643.08
445.31	644.46
445.68	645.78
446.05	646.36
446.42	645.63
446.79	644.63
447.16	643.52
447.53	642.80
447.90	639.48
448.27	636.30
448.64	631.70
449.01	628.40
449.37	622.60
449.74	616.97
450.11	610.17
450.48	602.95
450.85	595.61
451.22	589.32
451.59	583.29
451.96	577.52
452.33	569.81
452.70	562.87
453.07	554.52
453.43	546.11
453.80	537.97
454.17	530.06
454.54	522.71
454.91	514.73
455.28	506.90
455.65	499.62
456.02	492.22
456.38	486.10
456.75	478.41
457.12	472.00
457.49	465.65
457.86	459.60
458.23	454.32
458.59	448.55
458.96	442.63
459.33	437.43
459.70	432.21
460.07	428.01
460.43	423.21
460.80	418.76
461.17	414.79
461.54	410.68
461.91	406.77
462.27	402.71
462.64	399.34
463.01	395.60
463.38	391.97
463.74	388.31
464.11	385.08
464.48	382.28
464.85	379.23
465.21	376.81
465.58	374.24
465.95	371.13
466.32	368.53
466.68	365.98
467.05	363.45
467.42	360.95
467.78	358.33
468.15	355.88
468.52	354.00
468.88	351.58
469.25	349.42
469.62	347.66
469.98	345.77
470.35	344.00
470.72	342.39
471.08	340.61
471.45	339.15
471.82	337.59
472.18	336.02
472.55	334.81
472.92	333.45
473.28	332.29
473.65	331.21
474.02	330.15
474.38	329.28
474.75	328.55
475.11	327.75
475.48	327.24
475.85	326.77
476.21	326.32
476.58	325.95
476.94	325.73
477.31	325.45
477.67	325.20
478.04	325.08
478.41	324.99
478.77	325.18
479.14	325.16
479.50	325.35
479.87	325.68
480.23	326.06
480.60	326.34
480.96	326.63
481.33	327.21
481.69	327.81
482.06	328.30
482.42	328.76
482.79	329.40
483.15	330.14
483.52	331.09
483.88	331.98
484.25	332.98
484.61	334.01
484.98	335.07
485.34	336.36
485.71	337.70
486.07	339.17
486.44	340.51
486.80	342.11
487.17	343.81
487.53	345.59
487.90	347.42
488.26	349.49
488.62	351.64
488.99	353.72
489.35	355.85
489.72	358.30
490.08	360.88
490.44	363.43
490.81	366.15
491.17	368.85
491.54	371.84
491.90	374.88
492.26	378.09
492.63	381.50
492.99	385.04
493.36	388.69
493.72	392.58
494.08	396.67
494.45	400.89
494.81	405.28
495.17	409.74
495.54	414.48
495.90	419.28
496.26	424.21
496.63	429.44
496.99	434.83
497.35	440.40
497.72	446.20
498.08	452.16
498.44	458.25
498.80	464.65
499.17	471.14
499.53	477.77
499.89	484.74
500.26	491.74
500.62	498.82
500.98	506.28
501.34	513.78
501.71	521.45
502.07	529.31
502.43	537.33
502.79	545.53
503.16	553.97
503.52	562.56
503.88	571.27
504.24	580.17
504.60	589.30
504.97	598.59
505.33	607.86
505.69	617.74
506.05	627.65
506.41	637.53
506.78	647.64
507.14	657.98
507.50	668.35
507.86	679.11
508.22	689.92
508.59	700.64
508.95	711.77
509.31	723.17
509.67	734.64
510.03	746.02
510.39	757.81
510.75	769.59
511.12	781.59
511.48	793.72
511.84	806.11
512.20	818.49
512.56	831.07
512.92	843.96
513.28	856.72
513.64	869.59
514.00	882.56
514.37	895.54
514.73	908.71
515.09	921.82
515.45	934.70
515.81	947.84
516.17	961.29
516.53	974.50
516.89	987.53
517.25	1000.73
517.61	1014.29
517.97	1027.67
518.33	1040.83
518.69	1054.39
519.05	1068.22
519.41	1081.83
519.77	1095.81
520.13	1109.22
520.49	1122.38
520.85	1135.73
521.21	1149.09
521.57	1162.79
521.93	1176.05
522.29	1189.87
522.65	1203.59
523.01	1217.24
523.37	1230.39
523.73	1243.56
524.09	1256.79
524.45	1270.33
524.81	1283.77
525.17	1297.08
525.53	1310.22
525.89	1323.64
526.25	1336.71
526.61	1349.52
526.97	1362.59
527.33	1375.37
527.68	1388.79
528.04	1402.33
528.40	1415.38
528.76	1428.62
529.12	1441.46
529.48	1454.55
529.84	1466.63
530.20	1479.20
530.56	1491.69
530.91	1505.03
531.27	1517.97
531.63	1530.64
531.99	1543.21
532.35	1555.40
532.71	1567.83
533.07	1580.75
533.42	1592.89
533.78	1604.95
534.14	1616.91
534.50	1628.16
534.86	1639.74
535.21	1650.40
535.57	1661.86
535.93	1673.05
536.29	1684.09
536.65	1695.53
537.00	1706.46
537.36	1717.91
537.72	1728.86
538.08	1740.18
538.44	1751.00
538.79	1761.94
539.15	1772.79
539.51	1783.48
539.87	1794.75
540.22	1805.41
540.58	1816.20
540.94	1827.04
541.29	1837.28
541.65	1847.07
542.01	1857.44
542.37	1867.45
542.72	1877.64
543.08	1887.32
543.44	1897.74
543.79	1907.09
544.15	1916.38
544.51	1926.22
544.87	1935.95
545.22	1945.19
545.58	1953.96
545.94	1962.79
546.29	1971.22
546.65	1979.48
547.01	1987.76
547.36	1995.36
547.72	2003.08
548.07	2010.55
548.43	2018.23
548.79	2026.05
549.14	2034.08
549.50	2042.42
549.86	2050.18
550.21	2057.61
550.57	2065.24
550.92	2072.05
551.28	2079.27
551.64	2086.46
551.99	2093.96
552.35	2101.04
552.70	2107.66
553.06	2114.39
553.41	2120.62
553.77	2127.17
554.13	2133.57
554.48	2140.61
554.84	2147.70
555.19	2154.28
555.55	2160.73
555.90	2167.04
556.26	2173.98
556.61	2180.13
556.97	2185.02
557.32	2190.74
557.68	2197.12
558.03	2202.82
558.39	2208.14
558.74	2214.16
559.10	2219.72
559.45	2225.34
559.81	2231.01
560.16	2236.73
560.52	2242.59
560.87	2248.99
561.23	2254.87
561.58	2261.55
561.94	2266.91
562.29	2271.69
562.64	2277.86
563.00	2283.64
563.35	2289.15
563.71	2294.63
564.06	2300.26
564.42	2306.37
564.77	2311.55
565.12	2316.87
565.48	2322.08
565.83	2327.63
566.19	2333.07
566.54	2338.42
566.89	2343.03
567.25	2347.72
567.60	2353.54
567.96	2358.75
568.31	2363.35
568.66	2367.83
569.02	2371.93
569.37	2375.75
569.72	2380.28
570.08	2383.89
570.43	2387.16
570.78	2390.52
571.14	2393.08
571.49	2396.49
571.84	2400.13
572.20	2403.17
572.55	2406.44
572.90	2408.89
573.26	2411.81
573.61	2414.64
573.96	2417.19
574.31	2419.35
574.67	2421.30
575.02	2422.13
575.37	2423.71
575.72	2424.57
576.08	2426.15
576.43	2426.14
576.78	2426.67
577.13	2428.38
577.49	2429.68
577.84	2430.72
578.19	2432.13
578.54	2433.08
578.90	2433.67
579.25	2433.63
579.60	2433.83
579.95	2433.17
580.30	2433.32
580.66	2432.90
581.01	2431.46
581.36	2429.13
581.71	2428.03
582.06	2427.03
582.42	2426.41
582.77	2424.47
583.12	2423.13
583.47	2421.90
583.82	2421.68
584.17	2420.36
584.53	2418.32
584.88	2416.32
585.23	2414.69
585.58	2412.48
585.93	2410.75
586.28	2408.76
586.63	2406.45
586.98	2404.36
587.34	2402.58
587.69	2400.29
588.04	2398.34
588.39	2396.97
588.74	2394.69
589.09	2391.99
589.44	2388.97
589.79	2386.46
590.14	2384.50
590.49	2381.87
590.84	2378.02
591.19	2374.99
591.54	2372.11
591.89	2368.23
592.25	2365.31
592.60	2361.14
592.95	2357.25
593.30	2353.16
593.65	2348.96
594.00	2344.67
594.35	2341.84
594.70	2337.08
595.05	2332.71
595.40	2327.29
595.75	2321.41
596.10	2317.85
596.45	2313.13
596.80	2308.58
597.15	2303.53
597.50	2297.55
597.85	2292.44
598.19	2287.34
598.54	2281.69
598.89	2276.48
599.24	2272.06
599.59	2265.76
599.94	2259.85
600.29	2253.77
600.64	2247.85
600.99	2240.95
601.34	2235.50
601.69	2228.35
602.04	2222.10
602.39	2215.50
602.74	2209.38
603.08	2204.03
603.43	2197.48
603.78	2190.67
604.13	2183.57
604.48	2176.34
604.83	2170.36
605.18	2164.25
605.53	2157.47
605.87	2150.39
606.22	2143.45
606.57	2135.39
606.92	2127.34
607.27	2120.33
607.62	2113.81
607.96	2106.81
608.31	2100.55
608.66	2092.74
609.01	2085.23
609.36	2078.15
609.70	2070.40
610.05	2062.57
610.40	2054.32
610.75	2045.94
611.10	2038.13
611.44	2029.26
611.79	2020.62
612.14	2010.58
612.49	1999.82
612.83	1990.28
613.18	1980.89
613.53	1971.64
613.88	1962.04
614.22	1953.41
614.57	1943.66
614.92	1932.94
615.27	1922.59
615.61	1912.28
615.96	1902.64
616.31	1893.05
616.65	1883.31
617.00	1873.43
617.35	1863.73
617.70	1853.73
618.04	1843.74
618.39	1833.61
618.74	1823.89
619.08	1814.10
619.43	1805.44
619.78	1797.17
620.12	1788.61
620.47	1779.02
620.82	1768.55
621.16	1758.76
621.51	1748.87
621.85	1739.01
622.20	1728.61
622.55	1718.04
622.89	1707.98
623.24	1698.19
623.59	1688.23
623.93	1678.18
624.28	1668.19
624.62	1658.03
624.97	1647.74
625.32	1637.76
625.66	1628.56
626.01	1619.82
626.35	1610.45
626.70	1600.21
627.04	1590.02
627.39	1579.74
627.73	1570.36
628.08	1561.41
628.43	1551.79
628.77	1542.43
629.12	1533.38
629.46	1525.54
629.81	1517.05
630.15	1507.51
630.50	1497.44
630.84	1486.70
631.19	1476.62
631.53	1467.45
631.88	1457.09
632.22	1447.04
632.57	1437.61
632.91	1427.43
633.26	1417.34
633.60	1407.47
633.95	1398.13
634.29	1388.56
634.64	1379.24
634.98	1369.19
635.32	1359.85
635.67	1351.18
636.01	1341.72
636.36	1331.98
636.70	1322.29
637.05	1312.81
637.39	1303.83
637.73	1295.24
638.08	1287.63
638.42	1279.47
638.77	1270.55
639.11	1262.39
639.45	1254.44
639.80	1245.82
640.14	1236.98
640.49	1228.07
640.83	1219.13
641.17	1210.88
641.52	1202.56
641.86	1193.83
642.20	1185.80
642.55	1176.99
642.89	1167.94
643.23	1159.28
643.58	1151.00
643.92	1141.84
644.26	1133.01
644.61	1124.45
644.95	1115.47
645.29	1106.20
645.64	1096.88
645.98	1088.15
646.32	1079.99
646.66	1071.32
647.01	1062.94
647.35	1054.73
647.69	1046.30
648.04	1038.03
648.38	1029.01
648.72	1020.24
649.06	1011.64
649.41	1003.34
649.75	995.32
650.09	987.41
650.43	979.29
650.78	970.87
651.12	963.13
651.46	955.68
651.80	948.37
652.14	941.09
652.49	933.43
652.83	926.09
653.17	918.45
653.51	910.79
653.85	903.55
654.20	896.18
654.54	888.74
654.88	881.45
655.22	874.18
655.56	867.14
655.90	860.27
656.25	853.58
656.59	846.74
656.93	839.66
657.27	832.49
657.61	825.42
657.95	819.29
658.29	813.28
658.64	807.14
658.98	800.58
659.32	793.90
659.66	787.65
660.00	781.34
660.34	775.19
660.68	769.06
661.02	762.68
661.36	756.65
661.70	750.74
662.05	745.02
662.39	739.44
662.73	733.97
663.07	728.49
663.41	722.79
663.75	717.03
664.09	711.30
664.43	705.77
664.77	700.45
665.11	694.60
665.45	688.67
665.79	682.78
666.13	677.07
666.47	671.62
666.81	666.16
667.15	660.66
667.49	655.46
667.83	650.19
668.17	644.92
668.51	639.79
668.85	634.87
669.19	629.96
669.53	624.95
669.87	619.87
670.21	615.09
670.55	610.42
670.89	605.88
671.23	601.54
671.57	597.17
671.91	592.81
672.25	588.64
672.58	584.47
672.92	580.40
673.26	576.39
673.60	572.40
673.94	568.54
674.28	564.89
674.62	561.17
674.96	557.37
675.30	553.85
675.64	550.11
675.97	546.41
676.31	542.79
676.65	539.22
676.99	535.80
677.33	531.91
677.67	528.20
678.01	524.39
678.34	520.71
678.68	517.16
679.02	513.62
679.36	509.91
679.70	506.30
680.04	502.74
680.37	499.30
680.71	496.01
681.05	492.89
681.39	489.60
681.73	486.33
682.06	483.28
682.40	480.15
682.74	477.00
683.08	473.87
683.42	470.66
683.75	467.60
684.09	464.49
684.43	461.69
684.77	458.74
685.10	455.85
685.44	452.95
685.78	450.03
686.12	447.17
686.45	444.40
686.79	441.71
687.13	439.17
687.46	436.58
687.80	433.94
688.14	431.02
688.48	428.36
688.81	425.68
689.15	423.08
689.49	420.49
689.82	417.95
690.16	415.33
690.50	412.87
690.83	410.40
691.17	407.84
691.51	405.34
691.84	403.08
692.18	400.87
692.52	398.67
692.85	396.56
693.19	394.44
693.52	392.27
693.86	390.02
694.20	387.86
694.53	385.70
694.87	383.45
695.21	381.34
695.54	379.20
695.88	377.06
696.21	374.91
696.55	372.80
696.88	370.75
697.22	368.79
697.56	366.89
697.89	364.96
698.23	363.21
698.56	361.44
698.90	359.68
699.23	357.74
699.57	355.84
699.90	353.93
700.24	352.07
700.58	350.34
700.91	348.73
701.25	347.12
701.58	345.52
701.92	343.95
702.25	342.35
702.59	340.73
702.92	339.16
703.26	337.60
703.59	336.07
703.93	334.81
704.26	333.42
704.60	331.91
704.93	330.46
705.26	328.97
705.60	327.53
705.93	325.98
706.27	324.71
706.60	323.44
706.94	322.25
707.27	320.92
707.61	319.57
707.94	318.20
708.27	316.66
708.61	315.20
708.94	313.80
709.28	312.51
709.61	311.24
709.94	310.06
710.28	308.86
710.61	307.68
710.95	306.29
711.28	305.17
711.61	304.02
711.95	302.85
712.28	301.68
712.61	300.49
712.95	299.45
713.28	298.38
713.61	297.25
713.95	296.09
714.28	295.05
714.61	293.99
714.95	292.99
715.28	291.98
715.61	290.99
715.95	290.04
716.28	289.05
716.61	288.13
716.95	287.16
717.28	286.21
717.61	285.24
717.94	284.32
718.28	283.28
718.61	282.42
718.94	281.57
719.27	280.71
719.61	279.89
719.94	279.04
720.27	278.10
720.60	277.24
720.94	276.47
721.27	275.71
721.60	275.05
721.93	274.35
722.27	273.72
722.60	273.06
722.93	272.36
723.26	271.74
723.59	271.05
723.93	270.39
724.26	269.75
724.59	269.13
724.92	268.55
725.25	267.98
725.59	267.38
725.92	266.85
726.25	266.29
726.58	265.71
726.91	265.12
727.24	264.58
727.57	264.01
727.91	263.38
728.24	262.85
728.57	262.20
728.90	261.63
729.23	261.01
729.56	260.57
729.89	260.08
730.22	259.52
730.55	258.97
730.89	258.43
731.22	257.89
731.55	257.37
731.88	256.80
732.21	256.31
732.54	255.78
732.87	255.22
733.20	254.71
733.53	254.25
733.86	253.79
734.19	253.31
734.52	252.89
734.85	252.62
735.18	252.12
735.51	251.80
735.84	251.38
736.17	250.99
736.50	250.46
736.83	250.25
737.16	249.82
737.49	249.41
737.82	249.03
738.15	248.65
738.48	248.26
738.81	247.90
739.14	247.45
739.47	247.07
739.80	246.76
740.13	246.43
740.46	246.02
740.79	245.64
741.12	245.27
741.45	244.91
741.78	244.48
742.11	244.23
742.44	243.82
742.77	243.51
743.10	243.18
743.43	242.83
743.75	242.28
744.08	242.28
744.41	241.97
744.74	241.63
745.07	241.23
745.40	240.94
745.73	240.68
746.06	240.39
746.39	240.08
746.71	239.72
747.04	239.37
747.37	239.05
747.70	238.81
748.03	238.51
748.36	238.26
748.68	237.93
749.01	237.57
749.34	237.30
749.67	237.03
750.00	236.74
750.33	236.62
750.65	236.37
750.98	235.79
751.31	235.53
751.64	235.30
751.97	235.23
752.29	234.98
752.62	234.67
752.95	234.40
753.28	234.14
753.60	233.86
753.93	233.70
754.26	233.50
754.59	233.18
754.91	232.95
755.24	232.70
755.57	232.46
755.90	232.25
756.22	231.99
756.55	231.69
756.88	231.45
757.20	231.11
757.53	230.85
757.86	230.68
758.19	230.48
758.51	230.26
758.84	229.93
759.17	229.72
759.49	229.55
759.82	229.49
760.15	229.32
760.47	229.15
760.80	228.90
761.13	228.76
761.45	228.62
761.78	228.44
762.11	228.22
762.43	228.06
762.76	227.88
763.08	227.77
763.41	227.64
763.74	227.49
764.06	227.32
764.39	227.16
764.71	226.98
765.04	226.82
765.37	226.67
765.69	226.52
766.02	226.39
766.34	226.25
766.67	225.98
767.00	225.90
767.32	225.89
767.65	225.84
767.97	225.65
768.30	225.51
768.62	225.37
768.95	225.27
769.27	225.15
769.60	225.07
769.92	224.90
770.25	224.75
770.57	224.60
770.90	224.48
771.22	224.35
771.55	224.24
771.87	224.13
772.20	224.00
772.52	224.08
772.85	224.19
773.17	224.09
773.50	224.01
773.82	223.89
774.15	223.68
774.47	223.46
774.80	223.39
775.12	223.30
775.45	223.21
775.77	223.12
776.09	223.04
776.42	222.93
776.74	222.89
777.07	222.79
777.39	222.75
777.72	222.68
778.04	222.60
778.36	222.51
778.69	222.43
779.01	222.37
779.33	222.08
779.66	221.81
779.98	221.71
780.31	221.63
780.63	221.64
780.95	221.60
781.28	221.55
781.60	221.49
781.92	221.41
782.25	221.35
782.57	221.27
782.89	221.19
783.22	221.11
783.54	221.03
783.86	220.97
784.19	220.87
784.51	220.87
784.83	220.79
785.16	220.75
785.48	220.70
785.80	220.63
786.12	220.59
786.45	220.50
786.77	220.45
787.09	220.38
787.42	220.22
787.74	220.17
788.06	220.12
788.38	220.01
788.71	219.94
789.03	219.90
789.35	219.87
789.67	219.80
789.99	219.76
790.32	219.68
790.64	219.68
790.96	219.82
791.28	219.69
791.61	219.62
791.93	219.58
792.25	219.53
792.57	219.67
792.89	219.60
793.21	219.58
793.54	219.54
793.86	219.49
794.18	219.49
794.50	219.42
794.82	219.38
795.14	219.41
795.47	219.40
795.79	219.38
796.11	219.31
796.43	219.26
796.75	219.23
797.07	219.21
797.39	219.12
797.71	218.92
798.04	218.87
798.36	218.88
798.68	218.84
799.00	218.78
799.32	218.60
799.64	218.65
799.96	218.60
800.28	218.58
800.60	218.53
800.92	218.48
801.24	218.42
801.56	218.41
801.89	218.33
802.21	218.29
802.53	218.22
802.85	218.21
803.17	218.28
803.49	218.23
803.81	218.18
804.13	218.17
804.45	218.11
804.77	218.10
805.09	218.07
805.41	218.02
805.73	217.97
806.05	217.89
806.37	217.84
806.69	217.79
807.01	217.74
807.33	217.76
807.65	217.67
807.97	217.74
808.28	217.68
808.60	217.65
808.92	217.57
809.24	217.63
809.56	217.61
809.88	217.49
810.20	217.46
810.52	217.45
810.84	217.38
811.16	217.33
811.48	217.29
811.80	217.34
812.12	217.31
812.43	217.32
812.75	217.30
813.07	217.23
813.39	217.19
813.71	217.13
814.03	217.05
814.35	217.07
814.67	216.97
814.98	216.95
815.30	216.92
815.62	216.92
815.94	216.78
816.26	216.73
816.58	216.70
816.89	216.69
817.21	216.61
817.53	216.62
817.85	216.62
818.17	216.63
818.48	216.54
818.80	216.57
819.12	216.55
819.44	216.51
819.76	216.49
820.07	216.49
820.39	216.51
820.71	216.49
821.03	216.47
821.34	216.45
821.66	216.44
821.98	216.44
822.30	216.39
822.61	216.52
822.93	216.47
823.25	216.44
823.57	216.39
823.88	216.46
824.20	216.43
824.52	216.43
824.83	216.39
825.15	216.33
825.47	216.28
825.79	216.28
826.10	216.27
826.42	216.21
826.74	216.21
827.05	216.17
827.37	216.19
827.69	216.12
828.00	216.10
828.32	216.09
828.64	216.05
828.95	216.18
829.27	216.07
829.58	216.06
829.90	216.12
830.22	216.14
830.53	216.07
830.85	216.05
831.17	215.99
831.48	215.97
831.80	215.97
832.11	215.93
832.43	215.87
832.75	215.84
833.06	215.98
833.38	215.91
833.69	215.88
834.01	215.86
834.32	215.85
834.64	215.84
834.96	215.83
835.27	215.80
835.59	215.72
835.90	215.69
836.22	215.69
836.53	215.60
836.85	215.57
837.16	215.77
837.48	215.79
837.79	215.87
838.11	215.86
838.42	215.86
838.74	215.92
839.05	215.90
839.37	215.88
839.68	215.74
840.00	215.75
840.31	215.80
840.63	215.78
840.94	215.78
841.26	215.68
841.57	215.67
841.88	215.70
842.20	215.66
842.51	215.60
842.83	215.60
843.14	215.77
843.46	215.77
843.77	215.65
844.08	215.61
844.40	215.55
844.71	215.51
845.03	215.46
845.34	215.44
845.65	215.45
845.97	215.45
846.28	215.47
846.60	215.49
846.91	215.45
847.22	215.45
847.54	215.49
847.85	215.53
848.16	215.51
848.48	215.48
848.79	215.56
849.10	215.59
849.42	215.60
849.73	215.42
850.04	215.40
850.36	215.30
850.67	215.36
850.98	215.35
851.30	215.37
851.61	215.38
851.92	215.37
852.23	215.41
852.55	215.40
852.86	215.42
853.17	215.44
853.49	215.47
853.80	215.51
854.11	215.49
854.42	215.53
854.74	215.48
855.05	215.46
855.36	215.33
855.67	215.32
855.99	215.33
856.30	215.61
856.61	215.61
856.92	215.61
857.23	215.59
857.55	215.57
857.86	215.56
858.17	215.60
858.48	215.56
858.79	215.53
859.11	215.56
859.42	215.51
859.73	215.46
860.04	215.41
860.35	215.32
860.66	215.26
860.98	215.24
861.29	215.28
861.60	215.27
861.91	215.30
862.22	215.26
862.53	215.23
862.84	214.93
863.16	214.98
863.47	214.93
863.78	214.90
864.09	214.91
864.40	214.92
864.71	214.90
865.02	214.90
865.33	214.85
865.64	214.81
865.95	214.81
866.27	214.98
866.58	214.96
866.89	214.98
867.20	214.97
867.51	214.92
867.82	214.87
868.13	214.95
868.44	214.90
868.75	214.96
869.06	214.94
869.37	214.99
869.68	214.90
869.99	214.94
870.30	214.95
870.61	214.98
870.92	214.92
871.23	214.92
871.54	214.98
871.85	215.04
872.16	215.09
872.47	215.09
872.78	214.95
873.09	214.97
873.40	214.97
873.71	214.97
874.02	214.99
874.33	215.02
874.64	215.00
874.95	215.06
875.26	215.01
875.56	215.04
875.87	215.03
876.18	215.04
876.49	215.27
876.80	215.25
877.11	215.21
877.42	215.21
877.73	215.19
878.04	215.15
878.35	215.15
878.66	215.14
878.96	215.13
879.27	215.12
879.58	215.10
879.89	215.11
880.20	215.23
880.51	215.25
880.82	215.23
881.12	215.20
881.43	215.14
881.74	215.13
882.05	215.12
882.36	215.12
882.67	215.13
882.97	214.88
883.28	214.87
883.59	214.86
883.90	214.92
884.21	214.97
884.51	214.96
884.82	214.93
885.13	214.92
885.44	214.92
885.74	214.90
886.05	214.91
886.36	214.89
886.67	214.79
886.98	214.89
887.28	214.94
887.59	214.94
887.90	214.95
888.20	214.94
888.51	214.99
888.82	214.94
889.13	214.98
889.43	215.13
889.74	215.12
890.05	215.11
890.35	215.08
890.66	215.06
890.97	215.05
891.28	215.02
891.58	215.03
891.89	215.03
892.20	215.02
892.50	215.02
892.81	215.00
893.12	215.01
893.42	214.89
893.73	214.90
894.04	214.89
894.34	214.92
894.65	214.93
894.95	214.88
895.26	214.92
895.57	214.97
895.87	214.80
896.18	214.83
896.48	214.86
896.79	214.84
897.10	214.86
897.40	214.85
897.71	214.89
898.01	214.85
898.32	214.90
898.63	214.88
898.93	214.91
899.24	214.95
899.54	214.92
899.85	214.93
900.15	214.93
900.46	214.93
900.76	214.90
901.07	214.90
901.38	214.88
901.68	214.91
901.99	214.81
902.29	214.86
902.60	214.86
902.90	214.84
903.21	214.85
903.51	214.83
903.82	214.89
904.12	214.87
904.43	214.89
904.73	214.84
905.03	214.86
905.34	215.01
905.64	214.98
905.95	215.00
906.25	215.02
906.56	214.99
906.86	215.00
907.17	215.02
907.47	215.04
907.77	215.06
908.08	214.97
908.38	214.97
908.69	214.96
908.99	214.97
909.30	214.97
909.60	214.96
909.90	214.99
910.21	214.91
910.51	214.89
910.81	214.90
911.12	214.93
911.42	214.94
911.73	214.74
912.03	214.76
912.33	214.82
912.64	214.81
912.94	214.79
913.24	214.78
913.55	214.75
913.85	214.71
914.15	214.75
914.46	214.80
914.76	214.82
915.06	214.83
915.37	214.79
915.67	214.78
915.97	214.80
916.27	214.74
916.58	214.75
916.88	214.74
917.18	214.73
917.49	214.88
917.79	214.87
918.09	214.88
918.39	214.93
918.70	214.86
919.00	214.87
919.30	214.97
919.60	214.96
919.91	214.98
920.21	215.00
920.51	214.94
920.81	214.91
921.12	214.90
921.42	214.84
921.72	214.86
922.02	214.86
922.32	214.92
922.63	214.90
922.93	215.01
923.23	215.03
923.53	214.99
923.83	214.83
924.13	214.82
924.44	214.85
924.74	214.85
925.04	214.93
925.34	214.88
925.64	214.79
925.94	214.75
926.24	214.83
926.55	214.80
926.85	214.84
927.15	214.85
927.45	214.89
927.75	214.90
928.05	214.90
928.35	214.87
928.65	214.87
928.95	214.89
929.26	214.80
929.56	214.81
929.86	214.82
930.16	214.82
930.46	214.81
930.76	214.80
931.06	214.73
931.36	214.65
931.66	214.72
931.96	214.74
932.26	214.78
932.56	214.69
932.86	214.70
933.16	214.71
933.46	214.67
933.76	214.65
934.06	214.72
934.36	214.79
934.66	214.82
934.96	214.80
935.26	214.83
935.56	214.87
935.86	214.83
936.16	214.79
936.46	214.78
936.76	214.77
937.06	214.75
937.36	214.78
937.66	214.82
937.96	214.78
938.26	214.75
938.56	214.73
938.86	214.72
939.16	214.76
939.46	214.76
939.76	214.75
940.06	214.71
940.35	214.66
940.65	214.58
940.95	214.56
941.25	214.52
941.55	214.50
941.85	214.50
942.15	214.56
942.45	214.65
942.75	214.61
943.04	214.61
943.34	214.67
943.64	214.64
943.94	214.59
944.24	214.62
944.54	214.64
944.84	214.64
945.13	214.65
945.43	214.64
945.73	214.65
946.03	214.69
946.33	214.69
946.62	214.64
946.92	214.62
947.22	214.65
947.52	214.64
947.82	214.66
948.11	214.63
948.41	214.58
948.71	214.54
949.01	214.57
949.31	214.56
949.60	214.51
949.90	214.54
950.20	214.53
950.50	214.52
950.79	214.52
951.09	214.57
951.39	214.56
951.69	214.54
951.98	214.58
952.28	214.56
952.58	214.56
952.87	214.61
953.17	214.66
953.47	214.61
953.76	214.60
954.06	214.57
954.36	214.57
954.66	214.58
954.95	214.63
955.25	214.64
955.55	214.65
955.84	214.63
956.14	214.65
956.44	214.65
956.73	214.62
957.03	214.61
957.32	214.55
957.62	214.57
957.92	214.60
958.21	214.55
958.51	214.81
958.81	214.83
959.10	214.81
959.40	214.84
959.69	214.85
959.99	214.91
960.29	214.89
960.58	214.87
960.88	214.94
961.17	214.90
961.47	214.94
961.76	214.90
962.06	214.96
962.36	214.94
962.65	214.96
962.95	214.98
963.24	214.94
963.54	214.97
963.83	214.92
964.13	214.88
964.42	214.85
964.72	214.68
965.01	214.65
965.31	214.66
965.60	214.62
965.90	214.76
966.19	214.69
966.49	214.72
966.78	214.71
967.08	214.71
967.37	214.74
967.67	214.68
967.96	214.78
968.26	214.74
968.55	214.71
968.85	214.71
969.14	214.72
969.43	214.74
969.73	214.73
970.02	214.73
970.32	214.74
970.61	214.73
970.91	214.67
971.20	214.65
971.49	214.64
971.79	214.68
972.08	214.54
972.38	214.56
972.67	214.55
972.96	214.59
973.26	214.52
973.55	214.56
973.85	214.55
974.14	214.51
974.43	214.52
974.73	214.52
975.02	214.51
975.31	214.52
975.61	214.52
975.90	214.48
976.19	214.48
976.49	214.52
976.78	214.54
977.07	214.54
977.37	214.54
977.66	214.55
977.95	214.50
978.24	214.50
978.54	214.57
978.83	214.55
979.12	214.53
979.42	214.53
979.71	214.49
980.00	214.52
980.29	214.55
980.59	214.50
980.88	214.55
981.17	214.54
981.46	214.53
981.76	214.57
982.05	214.67
982.34	214.69
982.63	214.67
982.93	214.67
983.22	214.75
983.51	214.77
983.80	214.82
984.09	214.85
984.39	214.82
984.68	214.73
984.97	214.76
985.26	214.74
985.55	214.76
985.85	214.75
986.14	214.74
986.43	214.77
986.72	214.76
987.01	214.67
987.30	214.68
987.59	214.66
987.89	214.64
988.18	214.56
988.47	214.55
988.76	214.52
989.05	214.49
989.34	214.45
989.63	214.50
989.92	214.46
990.22	214.40
990.51	214.42
990.80	214.41
991.09	214.40
991.38	214.46
991.67	214.42
991.96	214.38
992.25	214.36
992.54	214.29
992.83	214.32
993.12	214.32
993.41	214.36
993.70	214.44
993.99	214.47
994.28	214.48
994.58	214.52
994.87	214.50
995.16	214.49
995.45	214.45
995.74	214.38
996.03	214.39
996.32	214.45
996.61	214.49
996.90	214.50
997.19	214.48
997.48	214.47
997.77	214.46
998.06	214.47
998.34	214.47
998.63	214.47
998.92	214.48
999.21	214.54
999.50	214.53
999.79	214.44
1000.08	214.40
1000.37	214.43
1000.66	214.42
1000.95	214.47
1001.24	214.53
1001.53	214.56
1001.82	214.57
1002.11	214.51
1002.40	214.53
1002.68	214.57
1002.97	214.73
1003.26	214.71
1003.55	214.68
1003.84	214.70
1004.13	214.77
1004.42	214.75
1004.71	214.76
1004.99	214.72
1005.28	214.76
1005.57	214.74
1005.86	214.75
1006.15	214.73
1006.44	214.66
1006.72	214.66
1007.01	214.62
1007.30	214.58
1007.59	214.56
1007.88	214.56
1008.17	214.59
1008.45	214.54
1008.74	214.47
1009.03	214.41
1009.32	214.43
1009.60	214.41
1009.89	214.40
1010.18	214.30
1010.47	214.33
1010.76	214.34
1011.04	214.37
1011.33	214.36
1011.62	214.39
1011.91	214.37
1012.19	214.40
1012.48	214.44
1012.77	214.42
1013.05	214.52
1013.34	214.52
1013.63	214.50
1013.92	214.50
1014.20	214.50
1014.49	214.50
1014.78	214.52
1015.06	214.45
1015.35	214.43
1015.64	214.49
1015.92	214.50
1016.21	214.52
1016.50	214.46
1016.78	214.47
1017.07	214.46
1017.36	214.40
1017.64	214.38
1017.93	214.40
1018.22	214.38
1018.50	214.38
1018.79	214.40
1019.08	214.28
1019.36	214.28
1019.65	214.27
1019.93	214.36
1020.22	214.36
1020.51	214.46
1020.79	214.45
1021.08	213.94
1021.36	214.25
1021.65	214.55
1021.94	213.80
1022.22	214.29
1022.51	213.98
1022.79	215.79
1023.08	214.47
1023.36	216.71
1023.65	214.29
>>>>>End Processed Spectral Data<<<<<
