SpectraSuite Data File
++++++++++++++++++++++++++++++++++++
Date: Tue Jan 29 16:37:03 EST 2013
User: group
Dark Spectrum Present: No
Reference Spectrum Present: No
Number of Sampled Component Spectra: 1
Spectrometers: USB2E7196
Integration Time (usec): 65000 (USB2E7196)
Spectra Averaged: 100 (USB2E7196)
Boxcar Smoothing: 10 (USB2E7196)
Correct for Electrical Dark: No (USB2E7196)
Strobe/Lamp Enabled: No (USB2E7196)
Correct for Detector Non-linearity: No (USB2E7196)
Correct for Stray Light: No (USB2E7196)
Number of Pixels in Processed Spectrum: 2048
>>>>>Begin Processed Spectral Data<<<<<
339.09	0.00
339.48	201.36
339.86	203.07
340.24	204.76
340.63	205.87
341.01	210.63
341.39	208.26
341.78	210.52
342.16	211.50
342.54	211.28
342.93	200.92
343.31	211.08
343.69	211.67
344.07	212.18
344.46	212.62
344.84	213.05
345.22	213.24
345.60	213.54
345.99	213.76
346.37	213.91
346.75	214.04
347.13	214.17
347.52	214.25
347.90	214.40
348.28	214.44
348.66	214.52
349.05	214.54
349.43	214.61
349.81	214.72
350.19	214.75
350.57	214.84
350.96	214.94
351.34	215.05
351.72	215.13
352.10	215.22
352.48	215.31
352.87	215.38
353.25	215.45
353.63	215.51
354.01	215.56
354.39	215.63
354.77	215.74
355.15	215.84
355.54	215.89
355.92	215.90
356.30	216.00
356.68	216.20
357.06	216.27
357.44	216.30
357.82	216.34
358.20	216.44
358.58	216.50
358.97	216.54
359.35	216.67
359.73	216.78
360.11	216.82
360.49	216.86
360.87	216.84
361.25	216.91
361.63	217.04
362.01	217.08
362.39	217.10
362.77	217.15
363.15	217.16
363.53	217.18
363.91	217.19
364.29	217.22
364.67	217.04
365.05	217.08
365.43	217.13
365.81	217.15
366.19	217.25
366.57	217.32
366.95	217.33
367.33	217.27
367.71	217.25
368.09	217.32
368.47	217.32
368.85	217.39
369.23	217.38
369.61	217.31
369.99	217.36
370.37	217.38
370.75	217.43
371.13	217.36
371.51	217.32
371.89	217.31
372.27	217.27
372.65	217.26
373.03	217.22
373.41	217.15
373.78	217.09
374.16	216.96
374.54	216.85
374.92	216.79
375.30	216.75
375.68	216.67
376.06	216.58
376.44	216.49
376.82	216.42
377.19	216.39
377.57	216.29
377.95	216.13
378.33	216.07
378.71	215.91
379.09	215.88
379.47	215.87
379.84	215.84
380.22	215.77
380.60	215.67
380.98	215.60
381.36	215.57
381.73	215.54
382.11	215.51
382.49	215.48
382.87	215.41
383.25	215.34
383.62	215.52
384.00	215.46
384.38	215.45
384.76	215.47
385.13	215.49
385.51	215.51
385.89	215.50
386.27	215.46
386.64	215.45
387.02	215.43
387.40	215.36
387.78	215.33
388.15	215.34
388.53	215.32
388.91	215.33
389.29	215.30
389.66	215.26
390.04	215.25
390.42	215.25
390.79	215.26
391.17	215.26
391.55	215.03
391.92	215.01
392.30	215.03
392.68	214.94
393.05	214.93
393.43	214.91
393.81	214.94
394.18	214.94
394.56	214.94
394.94	214.98
395.31	214.98
395.69	215.03
396.06	215.05
396.44	215.08
396.82	215.08
397.19	215.24
397.57	215.27
397.95	215.31
398.32	215.28
398.70	215.36
399.07	215.45
399.45	215.48
399.82	215.54
400.20	215.58
400.58	215.67
400.95	215.66
401.33	215.78
401.70	216.00
402.08	216.08
402.45	216.20
402.83	216.32
403.20	216.46
403.58	216.58
403.95	216.74
404.33	216.92
404.71	217.05
405.08	217.26
405.46	217.43
405.83	217.64
406.21	217.87
406.58	218.08
406.96	218.26
407.33	218.56
407.70	218.88
408.08	219.32
408.45	219.69
408.83	220.10
409.20	220.42
409.58	220.71
409.95	221.18
410.33	221.62
410.70	222.07
411.08	222.63
411.45	223.19
411.82	223.76
412.20	224.44
412.57	225.26
412.95	225.86
413.32	226.71
413.69	227.56
414.07	228.46
414.44	229.43
414.82	230.48
415.19	231.66
415.56	232.83
415.94	233.97
416.31	235.37
416.68	236.78
417.06	238.37
417.43	239.91
417.81	241.67
418.18	243.48
418.55	245.42
418.93	247.46
419.30	249.55
419.67	251.83
420.04	254.13
420.42	256.56
420.79	259.38
421.16	262.16
421.54	265.06
421.91	268.05
422.28	271.17
422.66	274.49
423.03	277.74
423.40	281.13
423.77	284.81
424.15	288.47
424.52	292.34
424.89	296.53
425.26	300.62
425.64	304.51
426.01	308.81
426.38	313.30
426.75	317.85
427.13	322.62
427.50	327.56
427.87	332.79
428.24	338.01
428.61	343.00
428.99	348.55
429.36	354.60
429.73	360.53
430.10	366.46
430.47	372.58
430.85	378.88
431.22	385.55
431.59	392.65
431.96	399.46
432.33	406.92
432.70	414.17
433.08	422.70
433.45	430.77
433.82	438.78
434.19	447.69
434.56	456.48
434.93	464.81
435.30	473.13
435.68	482.25
436.05	491.23
436.42	500.22
436.79	508.41
437.16	517.20
437.53	526.50
437.90	535.65
438.27	544.61
438.64	553.86
439.01	562.49
439.38	570.09
439.75	577.46
440.13	585.96
440.50	593.95
440.87	600.43
441.24	607.17
441.61	614.53
441.98	619.94
442.35	626.24
442.72	632.66
443.09	638.73
443.46	642.49
443.83	645.09
444.20	647.23
444.57	650.35
444.94	651.76
445.31	653.27
445.68	654.70
446.05	655.31
446.42	654.60
446.79	653.68
447.16	652.64
447.53	651.88
447.90	648.54
448.27	645.32
448.64	640.62
449.01	637.22
449.37	631.33
449.74	625.62
450.11	618.69
450.48	611.18
450.85	603.72
451.22	597.19
451.59	590.96
451.96	585.15
452.33	577.33
452.70	570.22
453.07	561.65
453.43	552.94
453.80	544.60
454.17	536.55
454.54	528.92
454.91	520.70
455.28	512.68
455.65	505.20
456.02	497.66
456.38	491.31
456.75	483.39
457.12	476.72
457.49	470.24
457.86	464.04
458.23	458.66
458.59	452.68
458.96	446.69
459.33	441.37
459.70	435.96
460.07	431.65
460.43	426.77
460.80	422.14
461.17	418.16
461.54	413.93
461.91	409.88
462.27	405.72
462.64	402.32
463.01	398.48
463.38	394.84
463.74	391.07
464.11	387.81
464.48	385.00
464.85	381.95
465.21	379.51
465.58	376.81
465.95	373.73
466.32	371.09
466.68	368.47
467.05	365.87
467.42	363.32
467.78	360.60
468.15	358.04
468.52	356.17
468.88	353.66
469.25	351.48
469.62	349.65
469.98	347.72
470.35	345.82
470.72	344.13
471.08	342.25
471.45	340.72
471.82	339.22
472.18	337.53
472.55	336.34
472.92	334.94
473.28	333.77
473.65	332.58
474.02	331.45
474.38	330.57
474.75	329.79
475.11	328.96
475.48	328.40
475.85	327.94
476.21	327.42
476.58	327.08
476.94	326.82
477.31	326.52
477.67	326.26
478.04	326.16
478.41	326.12
478.77	326.30
479.14	326.28
479.50	326.42
479.87	326.73
480.23	327.03
480.60	327.27
480.96	327.50
481.33	328.11
481.69	328.69
482.06	329.21
482.42	329.72
482.79	330.28
483.15	331.05
483.52	331.96
483.88	332.87
484.25	333.78
484.61	334.78
484.98	335.86
485.34	337.19
485.71	338.56
486.07	339.99
486.44	341.34
486.80	342.95
487.17	344.64
487.53	346.48
487.90	348.37
488.26	350.40
488.62	352.57
488.99	354.61
489.35	356.77
489.72	359.22
490.08	361.72
490.44	364.30
490.81	366.99
491.17	369.75
491.54	372.73
491.90	375.78
492.26	379.03
492.63	382.41
492.99	385.93
493.36	389.62
493.72	393.55
494.08	397.53
494.45	401.75
494.81	406.09
495.17	410.56
495.54	415.30
495.90	420.11
496.26	425.06
496.63	430.27
496.99	435.67
497.35	441.21
497.72	447.06
498.08	453.03
498.44	459.13
498.80	465.54
499.17	472.06
499.53	478.77
499.89	485.74
500.26	492.72
500.62	499.75
500.98	507.11
501.34	514.59
501.71	522.43
502.07	530.29
502.43	538.33
502.79	546.44
503.16	554.82
503.52	563.44
503.88	572.13
504.24	581.10
504.60	590.23
504.97	599.45
505.33	608.76
505.69	618.65
506.05	628.59
506.41	638.46
506.78	648.48
507.14	658.77
507.50	669.21
507.86	679.99
508.22	690.84
508.59	701.60
508.95	712.70
509.31	723.98
509.67	735.41
510.03	746.92
510.39	758.69
510.75	770.60
511.12	782.52
511.48	794.76
511.84	807.07
512.20	819.38
512.56	832.16
512.92	845.08
513.28	857.80
513.64	870.72
514.00	883.63
514.37	896.70
514.73	909.89
515.09	922.82
515.45	935.79
515.81	948.85
516.17	962.34
516.53	975.58
516.89	988.81
517.25	1002.12
517.61	1015.63
517.97	1029.14
518.33	1042.30
518.69	1055.95
519.05	1069.79
519.41	1083.51
519.77	1097.60
520.13	1110.93
520.49	1124.12
520.85	1137.57
521.21	1150.85
521.57	1164.65
521.93	1177.83
522.29	1191.74
522.65	1205.59
523.01	1219.40
523.37	1232.63
523.73	1246.00
524.09	1259.35
524.45	1272.94
524.81	1286.59
525.17	1300.00
525.53	1313.18
525.89	1326.63
526.25	1339.88
526.61	1352.86
526.97	1366.16
527.33	1379.19
527.68	1392.88
528.04	1406.46
528.40	1419.73
528.76	1433.26
529.12	1446.26
529.48	1459.70
529.84	1472.05
530.20	1484.91
530.56	1497.50
530.91	1510.94
531.27	1523.93
531.63	1536.72
531.99	1549.51
532.35	1561.92
532.71	1574.54
533.07	1587.62
533.42	1600.04
533.78	1612.23
534.14	1624.26
534.50	1635.57
534.86	1647.21
535.21	1658.06
535.57	1669.67
535.93	1681.02
536.29	1692.19
536.65	1703.77
537.00	1714.90
537.36	1726.37
537.72	1737.45
538.08	1748.90
538.44	1760.11
538.79	1771.34
539.15	1782.41
539.51	1793.32
539.87	1804.57
540.22	1815.46
540.58	1826.56
540.94	1837.50
541.29	1847.84
541.65	1857.84
542.01	1868.50
542.37	1878.64
542.72	1888.92
543.08	1898.88
543.44	1909.44
543.79	1918.94
544.15	1928.44
544.51	1938.37
544.87	1948.37
545.22	1957.84
545.58	1966.80
545.94	1975.63
546.29	1984.30
546.65	1992.66
547.01	2001.04
547.36	2008.82
547.72	2016.59
548.07	2024.30
548.43	2032.12
548.79	2040.16
549.14	2048.44
549.50	2056.96
549.86	2065.01
550.21	2072.60
550.57	2080.34
550.92	2087.13
551.28	2094.70
551.64	2102.01
551.99	2109.67
552.35	2116.88
552.70	2123.71
553.06	2130.46
553.41	2136.87
553.77	2143.37
554.13	2149.85
554.48	2156.70
554.84	2163.99
555.19	2170.53
555.55	2176.86
555.90	2183.25
556.26	2190.10
556.61	2196.18
556.97	2200.85
557.32	2206.60
557.68	2213.03
558.03	2218.78
558.39	2224.21
558.74	2230.17
559.10	2235.72
559.45	2241.38
559.81	2246.99
560.16	2252.44
560.52	2258.31
560.87	2264.76
561.23	2270.55
561.58	2277.18
561.94	2282.60
562.29	2287.07
562.64	2293.28
563.00	2299.07
563.35	2304.62
563.71	2310.38
564.06	2316.00
564.42	2322.08
564.77	2327.16
565.12	2332.41
565.48	2337.48
565.83	2343.04
566.19	2348.27
566.54	2353.59
566.89	2358.14
567.25	2362.64
567.60	2368.37
567.96	2373.49
568.31	2378.00
568.66	2382.36
569.02	2386.36
569.37	2389.98
569.72	2394.53
570.08	2398.00
570.43	2401.11
570.78	2404.27
571.14	2406.70
571.49	2409.73
571.84	2413.28
572.20	2416.27
572.55	2418.98
572.90	2421.26
573.26	2423.96
573.61	2426.48
573.96	2428.61
574.31	2430.47
574.67	2432.25
575.02	2432.92
575.37	2434.40
575.72	2434.98
576.08	2436.38
576.43	2436.31
576.78	2436.67
577.13	2438.11
577.49	2439.17
577.84	2440.12
578.19	2441.24
578.54	2441.70
578.90	2442.36
579.25	2442.05
579.60	2441.68
579.95	2440.99
580.30	2440.98
580.66	2440.20
581.01	2438.57
581.36	2436.07
581.71	2434.56
582.06	2433.34
582.42	2432.44
582.77	2429.99
583.12	2428.36
583.47	2426.88
583.82	2426.32
584.17	2424.98
584.53	2422.82
584.88	2420.61
585.23	2418.58
585.58	2416.27
585.93	2414.27
586.28	2412.06
586.63	2409.52
586.98	2407.32
587.34	2405.29
587.69	2402.69
588.04	2400.51
588.39	2398.98
588.74	2396.51
589.09	2393.69
589.44	2390.36
589.79	2387.90
590.14	2385.85
590.49	2382.78
590.84	2378.76
591.19	2375.54
591.54	2372.23
591.89	2367.96
592.25	2364.55
592.60	2360.27
592.95	2355.97
593.30	2351.54
593.65	2347.01
594.00	2342.53
594.35	2339.41
594.70	2334.55
595.05	2330.08
595.40	2324.52
595.75	2318.66
596.10	2314.94
596.45	2310.14
596.80	2305.57
597.15	2300.22
597.50	2294.23
597.85	2289.30
598.19	2284.10
598.54	2278.22
598.89	2272.95
599.24	2268.45
599.59	2262.24
599.94	2256.28
600.29	2250.37
600.64	2244.31
600.99	2237.36
601.34	2231.82
601.69	2224.76
602.04	2218.42
602.39	2211.55
602.74	2205.50
603.08	2199.91
603.43	2193.33
603.78	2186.45
604.13	2179.37
604.48	2171.97
604.83	2165.96
605.18	2159.69
605.53	2152.75
605.87	2145.53
606.22	2138.73
606.57	2130.73
606.92	2122.77
607.27	2115.92
607.62	2109.15
607.96	2102.32
608.31	2095.88
608.66	2088.10
609.01	2080.53
609.36	2073.36
609.70	2065.67
610.05	2057.71
610.40	2049.37
610.75	2040.98
611.10	2033.13
611.44	2024.13
611.79	2015.35
612.14	2005.28
612.49	1994.63
612.83	1985.14
613.18	1975.91
613.53	1966.61
613.88	1957.02
614.22	1948.31
614.57	1938.30
614.92	1927.66
615.27	1917.35
615.61	1907.13
615.96	1897.31
616.31	1887.66
616.65	1878.21
617.00	1868.46
617.35	1858.89
617.70	1849.10
618.04	1839.19
618.39	1829.00
618.74	1819.41
619.08	1809.77
619.43	1801.13
619.78	1792.79
620.12	1784.22
620.47	1774.70
620.82	1764.24
621.16	1754.55
621.51	1744.75
621.85	1734.87
622.20	1724.52
622.55	1713.97
622.89	1704.05
623.24	1694.41
623.59	1684.61
623.93	1674.44
624.28	1664.71
624.62	1654.63
624.97	1644.39
625.32	1634.49
625.66	1625.70
626.01	1616.88
626.35	1607.55
626.70	1597.37
627.04	1587.30
627.39	1577.10
627.73	1567.81
628.08	1558.87
628.43	1549.19
628.77	1539.84
629.12	1530.95
629.46	1523.17
629.81	1514.87
630.15	1505.49
630.50	1495.66
630.84	1485.22
631.19	1475.34
631.53	1466.05
631.88	1455.92
632.22	1445.81
632.57	1436.57
632.91	1426.39
633.26	1416.57
633.60	1407.05
633.95	1397.74
634.29	1388.36
634.64	1379.10
634.98	1369.10
635.32	1359.92
635.67	1351.46
636.01	1342.29
636.36	1332.62
636.70	1323.10
637.05	1313.65
637.39	1304.70
637.73	1296.16
638.08	1288.63
638.42	1280.51
638.77	1271.65
639.11	1263.35
639.45	1255.60
639.80	1246.96
640.14	1238.16
640.49	1229.24
640.83	1220.39
641.17	1212.36
641.52	1204.11
641.86	1195.53
642.20	1187.76
642.55	1179.04
642.89	1170.11
643.23	1161.43
643.58	1153.32
643.92	1144.23
644.26	1135.57
644.61	1127.12
644.95	1118.28
645.29	1108.96
645.64	1099.70
645.98	1091.21
646.32	1083.24
646.66	1074.66
647.01	1066.32
647.35	1058.27
647.69	1050.00
648.04	1041.73
648.38	1032.69
648.72	1023.96
649.06	1015.56
649.41	1007.24
649.75	999.33
650.09	991.46
650.43	983.41
650.78	975.04
651.12	967.25
651.46	959.87
651.80	952.61
652.14	945.30
652.49	937.72
652.83	930.41
653.17	922.69
653.51	914.97
653.85	907.80
654.20	900.52
654.54	892.97
654.88	885.64
655.22	878.38
655.56	871.45
655.90	864.61
656.25	857.83
656.59	850.89
656.93	843.78
657.27	836.63
657.61	829.54
657.95	823.39
658.29	817.47
658.64	811.27
658.98	804.77
659.32	798.14
659.66	791.97
660.00	785.57
660.34	779.42
660.68	773.37
661.02	766.96
661.36	760.90
661.70	755.10
662.05	749.37
662.39	743.84
662.73	738.42
663.07	732.95
663.41	727.38
663.75	721.61
664.09	715.93
664.43	710.42
664.77	705.12
665.11	699.29
665.45	693.38
665.79	687.56
666.13	681.82
666.47	676.27
666.81	670.73
667.15	665.28
667.49	660.07
667.83	654.73
668.17	649.44
668.51	644.35
668.85	639.35
669.19	634.51
669.53	629.38
669.87	624.16
670.21	619.38
670.55	614.65
670.89	610.18
671.23	605.85
671.57	601.41
671.91	597.10
672.25	592.88
672.58	588.74
672.92	584.67
673.26	580.74
673.60	576.86
673.94	572.97
674.28	569.36
674.62	565.61
674.96	561.89
675.30	558.36
675.64	554.66
675.97	551.07
676.31	547.44
676.65	543.84
676.99	540.39
677.33	536.55
677.67	532.84
678.01	528.92
678.34	525.17
678.68	521.68
679.02	517.97
679.36	514.27
679.70	510.56
680.04	506.90
680.37	503.40
680.71	500.05
681.05	496.86
681.39	493.57
681.73	490.34
682.06	487.28
682.40	484.11
682.74	480.88
683.08	477.57
683.42	474.29
683.75	471.27
684.09	468.20
684.43	465.32
684.77	462.33
685.10	459.52
685.44	456.58
685.78	453.60
686.12	450.85
686.45	448.06
686.79	445.38
687.13	442.85
687.46	440.19
687.80	437.45
688.14	434.51
688.48	431.82
688.81	429.10
689.15	426.44
689.49	423.79
689.82	421.21
690.16	418.61
690.50	416.15
690.83	413.63
691.17	411.06
691.51	408.57
691.84	406.29
692.18	404.03
692.52	401.81
692.85	399.66
693.19	397.47
693.52	395.30
693.86	393.02
694.20	390.78
694.53	388.56
694.87	386.40
695.21	384.29
695.54	382.14
695.88	379.94
696.21	377.72
696.55	375.59
696.88	373.50
697.22	371.56
697.56	369.64
697.89	367.71
698.23	365.94
698.56	364.12
698.90	362.30
699.23	360.36
699.57	358.47
699.90	356.58
700.24	354.77
700.58	352.97
700.91	351.28
701.25	349.66
701.58	348.06
701.92	346.41
702.25	344.81
702.59	343.15
702.92	341.61
703.26	339.99
703.59	338.50
703.93	337.18
704.26	335.66
704.60	334.12
704.93	332.61
705.26	331.07
705.60	329.57
705.93	328.06
706.27	326.70
706.60	325.42
706.94	324.14
707.27	322.72
707.61	321.36
707.94	319.99
708.27	318.45
708.61	316.94
708.94	315.53
709.28	314.20
709.61	312.95
709.94	311.72
710.28	310.50
710.61	309.31
710.95	307.91
711.28	306.83
711.61	305.65
711.95	304.48
712.28	303.26
712.61	302.06
712.95	300.98
713.28	299.92
713.61	298.73
713.95	297.57
714.28	296.55
714.61	295.45
714.95	294.43
715.28	293.42
715.61	292.42
715.95	291.45
716.28	290.46
716.61	289.47
716.95	288.48
717.28	287.54
717.61	286.53
717.94	285.61
718.28	284.58
718.61	283.67
718.94	282.75
719.27	281.87
719.61	281.08
719.94	280.21
720.27	279.22
720.60	278.34
720.94	277.53
721.27	276.77
721.60	276.11
721.93	275.36
722.27	274.69
722.60	274.00
722.93	273.30
723.26	272.61
723.59	271.91
723.93	271.27
724.26	270.60
724.59	269.96
724.92	269.35
725.25	268.79
725.59	268.18
725.92	267.65
726.25	267.05
726.58	266.41
726.91	265.79
727.24	265.25
727.57	264.65
727.91	264.03
728.24	263.44
728.57	262.82
728.90	262.24
729.23	261.66
729.56	261.21
729.89	260.65
730.22	260.10
730.55	259.54
730.89	258.98
731.22	258.45
731.55	257.91
731.88	257.37
732.21	256.79
732.54	256.24
732.87	255.69
733.20	255.20
733.53	254.72
733.86	254.28
734.19	253.77
734.52	253.35
734.85	253.09
735.18	252.58
735.51	252.16
735.84	251.77
736.17	251.34
736.50	250.81
736.83	250.63
737.16	250.25
737.49	249.86
737.82	249.43
738.15	249.06
738.48	248.69
738.81	248.27
739.14	247.87
739.47	247.50
739.80	247.14
740.13	246.83
740.46	246.39
740.79	245.96
741.12	245.57
741.45	245.19
741.78	244.71
742.11	244.44
742.44	244.07
742.77	243.73
743.10	243.37
743.43	243.02
743.75	242.45
744.08	242.34
744.41	241.95
744.74	241.61
745.07	241.26
745.40	240.91
745.73	240.65
746.06	240.34
746.39	240.03
746.71	239.67
747.04	239.31
747.37	239.01
747.70	238.76
748.03	238.52
748.36	238.25
748.68	237.92
749.01	237.56
749.34	237.23
749.67	236.91
750.00	236.67
750.33	236.53
750.65	236.26
750.98	235.72
751.31	235.52
751.64	235.26
751.97	235.10
752.29	234.84
752.62	234.53
752.95	234.27
753.28	234.00
753.60	233.79
753.93	233.60
754.26	233.39
754.59	233.12
754.91	232.83
755.24	232.56
755.57	232.36
755.90	232.13
756.22	231.89
756.55	231.65
756.88	231.41
757.20	231.08
757.53	230.85
757.86	230.68
758.19	230.48
758.51	230.29
758.84	230.00
759.17	229.80
759.49	229.61
759.82	229.49
760.15	229.32
760.47	229.14
760.80	228.87
761.13	228.70
761.45	228.45
761.78	228.27
762.11	228.12
762.43	227.90
762.76	227.72
763.08	227.58
763.41	227.45
763.74	227.30
764.06	227.09
764.39	226.90
764.71	226.68
765.04	226.50
765.37	226.34
765.69	226.16
766.02	226.01
766.34	225.85
766.67	225.61
767.00	225.50
767.32	225.43
767.65	225.46
767.97	225.33
768.30	225.24
768.62	225.15
768.95	224.97
769.27	224.86
769.60	224.78
769.92	224.61
770.25	224.44
770.57	224.24
770.90	224.15
771.22	224.02
771.55	223.93
771.87	223.80
772.20	223.63
772.52	223.70
772.85	223.85
773.17	223.76
773.50	223.67
773.82	223.55
774.15	223.36
774.47	223.12
774.80	222.99
775.12	222.86
775.45	222.73
775.77	222.70
776.09	222.64
776.42	222.54
776.74	222.56
777.07	222.46
777.39	222.39
777.72	222.28
778.04	222.22
778.36	222.12
778.69	222.06
779.01	221.99
779.33	221.71
779.66	221.41
779.98	221.28
780.31	221.21
780.63	221.22
780.95	221.17
781.28	221.11
781.60	221.01
781.92	220.96
782.25	220.91
782.57	220.81
782.89	220.69
783.22	220.61
783.54	220.49
783.86	220.46
784.19	220.39
784.51	220.39
784.83	220.30
785.16	220.24
785.48	220.20
785.80	220.15
786.12	220.12
786.45	220.05
786.77	220.03
787.09	219.95
787.42	219.81
787.74	219.77
788.06	219.70
788.38	219.65
788.71	219.60
789.03	219.51
789.35	219.52
789.67	219.48
789.99	219.45
790.32	219.36
790.64	219.31
790.96	219.43
791.28	219.26
791.61	219.21
791.93	219.18
792.25	219.09
792.57	219.19
792.89	219.11
793.21	219.05
793.54	218.97
793.86	218.93
794.18	218.88
794.50	218.78
794.82	218.74
795.14	218.72
795.47	218.70
795.79	218.67
796.11	218.56
796.43	218.48
796.75	218.44
797.07	218.41
797.39	218.32
797.71	218.15
798.04	218.14
798.36	218.13
798.68	218.08
799.00	218.09
799.32	217.95
799.64	217.98
799.96	217.93
800.28	217.94
800.60	217.89
800.92	217.87
801.24	217.85
801.56	217.81
801.89	217.77
802.21	217.76
802.53	217.68
802.85	217.67
803.17	217.79
803.49	217.71
803.81	217.66
804.13	217.64
804.45	217.57
804.77	217.59
805.09	217.53
805.41	217.52
805.73	217.41
806.05	217.35
806.37	217.28
806.69	217.25
807.01	217.22
807.33	217.22
807.65	217.12
807.97	217.18
808.28	217.14
808.60	217.10
808.92	217.03
809.24	217.15
809.56	217.11
809.88	216.99
810.20	216.97
810.52	216.98
810.84	216.95
811.16	216.88
811.48	216.81
811.80	216.86
812.12	216.79
812.43	216.81
812.75	216.79
813.07	216.76
813.39	216.73
813.71	216.66
814.03	216.59
814.35	216.57
814.67	216.48
814.98	216.44
815.30	216.38
815.62	216.33
815.94	216.15
816.26	216.10
816.58	216.05
816.89	216.05
817.21	215.98
817.53	215.95
817.85	215.97
818.17	215.96
818.48	215.87
818.80	215.90
819.12	215.85
819.44	215.81
819.76	215.76
820.07	215.75
820.39	215.74
820.71	215.75
821.03	215.77
821.34	215.72
821.66	215.73
821.98	215.72
822.30	215.72
822.61	215.86
822.93	215.85
823.25	215.83
823.57	215.77
823.88	215.82
824.20	215.83
824.52	215.86
824.83	215.83
825.15	215.81
825.47	215.79
825.79	215.81
826.10	215.79
826.42	215.77
826.74	215.79
827.05	215.80
827.37	215.79
827.69	215.76
828.00	215.75
828.32	215.73
828.64	215.74
828.95	215.84
829.27	215.74
829.58	215.72
829.90	215.74
830.22	215.73
830.53	215.64
830.85	215.59
831.17	215.49
831.48	215.49
831.80	215.50
832.11	215.46
832.43	215.42
832.75	215.40
833.06	215.52
833.38	215.43
833.69	215.40
834.01	215.36
834.32	215.35
834.64	215.33
834.96	215.33
835.27	215.28
835.59	215.19
835.90	215.17
836.22	215.15
836.53	215.10
836.85	215.10
837.16	215.33
837.48	215.34
837.79	215.42
838.11	215.42
838.42	215.40
838.74	215.44
839.05	215.39
839.37	215.35
839.68	215.19
840.00	215.20
840.31	215.19
840.63	215.21
840.94	215.17
841.26	215.15
841.57	215.13
841.88	215.19
842.20	215.16
842.51	215.10
842.83	215.13
843.14	215.31
843.46	215.32
843.77	215.17
844.08	215.15
844.40	215.08
844.71	215.04
845.03	215.01
845.34	215.00
845.65	215.00
845.97	215.03
846.28	215.06
846.60	215.04
846.91	215.00
847.22	215.00
847.54	215.02
847.85	215.01
848.16	214.96
848.48	214.90
848.79	214.98
849.10	215.06
849.42	215.07
849.73	214.84
850.04	214.83
850.36	214.76
850.67	214.81
850.98	214.80
851.30	214.83
851.61	214.85
851.92	214.79
852.23	214.87
852.55	214.89
852.86	214.89
853.17	214.92
853.49	214.99
853.80	215.00
854.11	215.03
854.42	215.04
854.74	215.07
855.05	215.06
855.36	214.90
855.67	214.86
855.99	214.83
856.30	215.09
856.61	215.06
856.92	215.07
857.23	215.02
857.55	215.00
857.86	215.02
858.17	215.01
858.48	215.02
858.79	214.98
859.11	215.00
859.42	214.98
859.73	214.97
860.04	214.94
860.35	214.89
860.66	214.84
860.98	214.87
861.29	214.86
861.60	214.87
861.91	214.95
862.22	214.92
862.53	214.93
862.84	214.67
863.16	214.74
863.47	214.69
863.78	214.69
864.09	214.73
864.40	214.72
864.71	214.72
865.02	214.73
865.33	214.72
865.64	214.67
865.95	214.67
866.27	214.80
866.58	214.76
866.89	214.78
867.20	214.78
867.51	214.72
867.82	214.73
868.13	214.78
868.44	214.74
868.75	214.79
869.06	214.79
869.37	214.84
869.68	214.75
869.99	214.79
870.30	214.81
870.61	214.79
870.92	214.77
871.23	214.74
871.54	214.74
871.85	214.77
872.16	214.80
872.47	214.77
872.78	214.65
873.09	214.69
873.40	214.67
873.71	214.66
874.02	214.72
874.33	214.71
874.64	214.63
874.95	214.68
875.26	214.62
875.56	214.59
875.87	214.57
876.18	214.56
876.49	214.78
876.80	214.77
877.11	214.75
877.42	214.74
877.73	214.78
878.04	214.78
878.35	214.77
878.66	214.77
878.96	214.77
879.27	214.76
879.58	214.75
879.89	214.75
880.20	214.82
880.51	214.78
880.82	214.78
881.12	214.78
881.43	214.74
881.74	214.73
882.05	214.73
882.36	214.73
882.67	214.76
882.97	214.53
883.28	214.48
883.59	214.47
883.90	214.50
884.21	214.51
884.51	214.47
884.82	214.45
885.13	214.45
885.44	214.43
885.74	214.42
886.05	214.42
886.36	214.42
886.67	214.37
886.98	214.44
887.28	214.44
887.59	214.50
887.90	214.49
888.20	214.48
888.51	214.51
888.82	214.47
889.13	214.46
889.43	214.58
889.74	214.60
890.05	214.57
890.35	214.57
890.66	214.52
890.97	214.51
891.28	214.48
891.58	214.49
891.89	214.51
892.20	214.48
892.50	214.45
892.81	214.43
893.12	214.42
893.42	214.36
893.73	214.39
894.04	214.36
894.34	214.40
894.65	214.40
894.95	214.37
895.26	214.36
895.57	214.44
895.87	214.28
896.18	214.33
896.48	214.37
896.79	214.33
897.10	214.35
897.40	214.36
897.71	214.37
898.01	214.32
898.32	214.36
898.63	214.33
898.93	214.34
899.24	214.35
899.54	214.30
899.85	214.27
900.15	214.22
900.46	214.23
900.76	214.24
901.07	214.23
901.38	214.22
901.68	214.30
901.99	214.21
902.29	214.24
902.60	214.23
902.90	214.19
903.21	214.19
903.51	214.19
903.82	214.23
904.12	214.24
904.43	214.28
904.73	214.26
905.03	214.26
905.34	214.46
905.64	214.45
905.95	214.48
906.25	214.46
906.56	214.47
906.86	214.44
907.17	214.40
907.47	214.39
907.77	214.37
908.08	214.29
908.38	214.30
908.69	214.32
908.99	214.31
909.30	214.30
909.60	214.29
909.90	214.27
910.21	214.22
910.51	214.22
910.81	214.21
911.12	214.21
911.42	214.24
911.73	214.03
912.03	214.06
912.33	214.10
912.64	214.12
912.94	214.07
913.24	214.02
913.55	214.00
913.85	214.00
914.15	214.03
914.46	214.06
914.76	214.03
915.06	214.00
915.37	213.97
915.67	214.00
915.97	214.05
916.27	214.03
916.58	214.04
916.88	214.00
917.18	213.99
917.49	214.14
917.79	214.13
918.09	214.15
918.39	214.17
918.70	214.14
919.00	214.19
919.30	214.30
919.60	214.32
919.91	214.29
920.21	214.32
920.51	214.30
920.81	214.29
921.12	214.34
921.42	214.36
921.72	214.36
922.02	214.37
922.32	214.37
922.63	214.38
922.93	214.49
923.23	214.50
923.53	214.50
923.83	214.36
924.13	214.40
924.44	214.40
924.74	214.46
925.04	214.51
925.34	214.46
925.64	214.37
925.94	214.37
926.24	214.51
926.55	214.49
926.85	214.52
927.15	214.52
927.45	214.50
927.75	214.48
928.05	214.47
928.35	214.44
928.65	214.46
928.95	214.49
929.26	214.39
929.56	214.43
929.86	214.42
930.16	214.37
930.46	214.33
930.76	214.33
931.06	214.21
931.36	214.13
931.66	214.21
931.96	214.23
932.26	214.22
932.56	214.15
932.86	214.21
933.16	214.21
933.46	214.21
933.76	214.20
934.06	214.23
934.36	214.32
934.66	214.30
934.96	214.30
935.26	214.29
935.56	214.32
935.86	214.27
936.16	214.30
936.46	214.30
936.76	214.28
937.06	214.26
937.36	214.28
937.66	214.30
937.96	214.25
938.26	214.25
938.56	214.24
938.86	214.24
939.16	214.24
939.46	214.26
939.76	214.28
940.06	214.26
940.35	214.24
940.65	214.15
940.95	214.20
941.25	214.12
941.55	214.06
941.85	214.04
942.15	214.09
942.45	214.14
942.75	214.13
943.04	214.13
943.34	214.17
943.64	214.16
943.94	214.13
944.24	214.14
944.54	214.16
944.84	214.16
945.13	214.12
945.43	214.06
945.73	214.04
946.03	214.00
946.33	213.96
946.62	213.95
946.92	213.94
947.22	213.92
947.52	213.94
947.82	214.00
948.11	213.97
948.41	213.91
948.71	213.82
949.01	213.83
949.31	213.87
949.60	213.86
949.90	213.85
950.20	213.86
950.50	213.82
950.79	213.77
951.09	213.82
951.39	213.82
951.69	213.83
951.98	213.83
952.28	213.87
952.58	213.89
952.87	213.88
953.17	213.90
953.47	213.89
953.76	213.88
954.06	213.82
954.36	213.80
954.66	213.79
954.95	213.83
955.25	213.86
955.55	213.83
955.84	213.81
956.14	213.83
956.44	213.85
956.73	213.85
957.03	213.85
957.32	213.83
957.62	213.82
957.92	213.84
958.21	213.82
958.51	214.03
958.81	214.05
959.10	214.10
959.40	214.17
959.69	214.20
959.99	214.24
960.29	214.27
960.58	214.26
960.88	214.35
961.17	214.34
961.47	214.36
961.76	214.37
962.06	214.41
962.36	214.38
962.65	214.40
962.95	214.41
963.24	214.42
963.54	214.44
963.83	214.47
964.13	214.50
964.42	214.44
964.72	214.30
965.01	214.30
965.31	214.26
965.60	214.20
965.90	214.31
966.19	214.23
966.49	214.23
966.78	214.23
967.08	214.21
967.37	214.22
967.67	214.16
967.96	214.17
968.26	214.13
968.55	214.15
968.85	214.14
969.14	214.12
969.43	214.12
969.73	214.10
970.02	214.07
970.32	214.04
970.61	214.05
970.91	213.98
971.20	213.94
971.49	213.93
971.79	213.95
972.08	213.78
972.38	213.82
972.67	213.83
972.96	213.88
973.26	213.83
973.55	213.89
973.85	213.88
974.14	213.87
974.43	213.90
974.73	213.88
975.02	213.85
975.31	213.87
975.61	213.87
975.90	213.83
976.19	213.82
976.49	213.84
976.78	213.89
977.07	213.89
977.37	213.93
977.66	213.97
977.95	213.93
978.24	213.96
978.54	213.99
978.83	213.96
979.12	213.94
979.42	213.96
979.71	213.95
980.00	213.95
980.29	213.94
980.59	213.94
980.88	213.97
981.17	213.97
981.46	213.95
981.76	213.93
982.05	214.01
982.34	214.02
982.63	214.02
982.93	214.00
983.22	214.05
983.51	214.03
983.80	214.07
984.09	214.11
984.39	214.11
984.68	214.08
984.97	214.11
985.26	214.09
985.55	214.10
985.85	214.06
986.14	214.11
986.43	214.14
986.72	214.10
987.01	214.05
987.30	214.05
987.59	214.01
987.89	214.06
988.18	213.99
988.47	213.98
988.76	213.97
989.05	213.98
989.34	213.95
989.63	214.03
989.92	213.97
990.22	213.92
990.51	213.91
990.80	213.91
991.09	213.93
991.38	213.94
991.67	213.93
991.96	213.91
992.25	213.88
992.54	213.84
992.83	213.86
993.12	213.84
993.41	213.88
993.70	213.99
993.99	214.02
994.28	214.05
994.58	214.07
994.87	214.06
995.16	214.02
995.45	213.96
995.74	213.87
996.03	213.89
996.32	213.91
996.61	213.95
996.90	213.96
997.19	213.94
997.48	213.94
997.77	213.91
998.06	213.91
998.34	213.92
998.63	213.92
998.92	213.91
999.21	213.93
999.50	213.94
999.79	213.84
1000.08	213.78
1000.37	213.75
1000.66	213.72
1000.95	213.76
1001.24	213.80
1001.53	213.85
1001.82	213.86
1002.11	213.84
1002.40	213.86
1002.68	213.90
1002.97	214.01
1003.26	214.00
1003.55	213.95
1003.84	213.94
1004.13	214.01
1004.42	214.00
1004.71	214.00
1004.99	213.98
1005.28	214.07
1005.57	214.04
1005.86	214.03
1006.15	214.03
1006.44	214.03
1006.72	214.08
1007.01	214.07
1007.30	214.05
1007.59	214.05
1007.88	214.04
1008.17	214.06
1008.45	214.05
1008.74	213.99
1009.03	213.86
1009.32	213.86
1009.60	213.87
1009.89	213.85
1010.18	213.76
1010.47	213.79
1010.76	213.79
1011.04	213.80
1011.33	213.85
1011.62	213.85
1011.91	213.91
1012.19	213.91
1012.48	213.94
1012.77	213.90
1013.05	214.00
1013.34	214.03
1013.63	214.00
1013.92	213.96
1014.20	213.96
1014.49	213.95
1014.78	213.97
1015.06	213.96
1015.35	213.95
1015.64	213.96
1015.92	214.02
1016.21	214.03
1016.50	213.98
1016.78	214.00
1017.07	214.01
1017.36	213.86
1017.64	213.85
1017.93	213.85
1018.22	213.83
1018.50	213.82
1018.79	213.82
1019.08	213.68
1019.36	213.66
1019.65	213.63
1019.93	213.73
1020.22	213.75
1020.51	213.87
1020.79	213.84
1021.08	213.12
1021.36	213.56
1021.65	213.78
1021.94	213.39
1022.22	213.89
1022.51	213.08
1022.79	215.04
1023.08	214.42
1023.36	216.66
1023.65	213.33
>>>>>End Processed Spectral Data<<<<<
