SpectraSuite Data File
++++++++++++++++++++++++++++++++++++
Date: Tue Jan 29 16:45:05 EST 2013
User: group
Dark Spectrum Present: No
Reference Spectrum Present: No
Number of Sampled Component Spectra: 1
Spectrometers: USB2E7196
Integration Time (usec): 65000 (USB2E7196)
Spectra Averaged: 100 (USB2E7196)
Boxcar Smoothing: 10 (USB2E7196)
Correct for Electrical Dark: No (USB2E7196)
Strobe/Lamp Enabled: No (USB2E7196)
Correct for Detector Non-linearity: No (USB2E7196)
Correct for Stray Light: No (USB2E7196)
Number of Pixels in Processed Spectrum: 2048
>>>>>Begin Processed Spectral Data<<<<<
339.09	0.00
339.48	201.41
339.86	203.43
340.24	204.41
340.63	206.11
341.01	210.82
341.39	208.62
341.78	210.20
342.16	211.92
342.54	212.14
342.93	201.07
343.31	211.18
343.69	211.75
344.07	212.23
344.46	212.71
344.84	213.09
345.22	213.23
345.60	213.52
345.99	213.76
346.37	213.89
346.75	214.01
347.13	214.06
347.52	214.14
347.90	214.25
348.28	214.28
348.66	214.35
349.05	214.35
349.43	214.41
349.81	214.48
350.19	214.58
350.57	214.65
350.96	214.72
351.34	214.87
351.72	214.96
352.10	215.06
352.48	215.08
352.87	215.11
353.25	215.22
353.63	215.29
354.01	215.30
354.39	215.36
354.77	215.42
355.15	215.56
355.54	215.56
355.92	215.55
356.30	215.63
356.68	215.83
357.06	215.85
357.44	215.89
357.82	215.95
358.20	216.01
358.58	216.07
358.97	216.11
359.35	216.22
359.73	216.30
360.11	216.32
360.49	216.40
360.87	216.45
361.25	216.49
361.63	216.58
362.01	216.62
362.39	216.69
362.77	216.73
363.15	216.73
363.53	216.77
363.91	216.80
364.29	216.84
364.67	216.64
365.05	216.71
365.43	216.73
365.81	216.82
366.19	216.92
366.57	217.03
366.95	217.07
367.33	216.98
367.71	216.98
368.09	217.08
368.47	217.07
368.85	217.08
369.23	217.11
369.61	217.03
369.99	217.10
370.37	217.07
370.75	217.15
371.13	217.07
371.51	217.07
371.89	217.08
372.27	217.07
372.65	217.09
373.03	217.06
373.41	217.01
373.78	216.93
374.16	216.79
374.54	216.67
374.92	216.59
375.30	216.53
375.68	216.46
376.06	216.38
376.44	216.31
376.82	216.29
377.19	216.22
377.57	216.18
377.95	216.05
378.33	215.99
378.71	215.83
379.09	215.84
379.47	215.79
379.84	215.74
380.22	215.69
380.60	215.61
380.98	215.53
381.36	215.46
381.73	215.41
382.11	215.40
382.49	215.37
382.87	215.33
383.25	215.34
383.62	215.56
384.00	215.49
384.38	215.46
384.76	215.48
385.13	215.55
385.51	215.48
385.89	215.45
386.27	215.42
386.64	215.43
387.02	215.39
387.40	215.37
387.78	215.34
388.15	215.31
388.53	215.30
388.91	215.31
389.29	215.33
389.66	215.33
390.04	215.32
390.42	215.33
390.79	215.33
391.17	215.31
391.55	215.08
391.92	215.07
392.30	215.11
392.68	215.05
393.05	215.03
393.43	215.06
393.81	215.07
394.18	215.07
394.56	215.07
394.94	215.09
395.31	215.09
395.69	215.14
396.06	215.17
396.44	215.19
396.82	215.20
397.19	215.32
397.57	215.29
397.95	215.32
398.32	215.29
398.70	215.34
399.07	215.42
399.45	215.44
399.82	215.49
400.20	215.48
400.58	215.56
400.95	215.54
401.33	215.66
401.70	215.89
402.08	215.94
402.45	216.05
402.83	216.18
403.20	216.28
403.58	216.37
403.95	216.53
404.33	216.68
404.71	216.82
405.08	217.06
405.46	217.27
405.83	217.46
406.21	217.67
406.58	217.92
406.96	218.13
407.33	218.39
407.70	218.71
408.08	219.19
408.45	219.52
408.83	219.90
409.20	220.22
409.58	220.46
409.95	220.95
410.33	221.44
410.70	221.87
411.08	222.45
411.45	223.03
411.82	223.59
412.20	224.25
412.57	225.08
412.95	225.66
413.32	226.48
413.69	227.30
414.07	228.24
414.44	229.22
414.82	230.25
415.19	231.43
415.56	232.62
415.94	233.84
416.31	235.29
416.68	236.72
417.06	238.33
417.43	239.93
417.81	241.66
418.18	243.43
418.55	245.39
418.93	247.40
419.30	249.48
419.67	251.73
420.04	254.04
420.42	256.38
420.79	259.23
421.16	262.05
421.54	264.98
421.91	267.97
422.28	271.07
422.66	274.38
423.03	277.67
423.40	281.04
423.77	284.64
424.15	288.32
424.52	292.15
424.89	296.35
425.26	300.41
425.64	304.34
426.01	308.63
426.38	313.14
426.75	317.70
427.13	322.49
427.50	327.51
427.87	332.76
428.24	338.01
428.61	342.98
428.99	348.49
429.36	354.52
429.73	360.45
430.10	366.35
430.47	372.47
430.85	378.77
431.22	385.51
431.59	392.64
431.96	399.45
432.33	406.97
432.70	414.21
433.08	422.74
433.45	430.78
433.82	438.81
434.19	447.68
434.56	456.45
434.93	464.78
435.30	473.09
435.68	482.21
436.05	491.26
436.42	500.26
436.79	508.47
437.16	517.29
437.53	526.48
437.90	535.68
438.27	544.69
438.64	553.95
439.01	562.51
439.38	570.12
439.75	577.48
440.13	585.95
440.50	593.95
440.87	600.45
441.24	607.18
441.61	614.59
441.98	620.05
442.35	626.33
442.72	632.79
443.09	638.84
443.46	642.61
443.83	645.15
444.20	647.36
444.57	650.55
444.94	652.00
445.31	653.56
445.68	654.99
446.05	655.56
446.42	654.80
446.79	653.89
447.16	652.84
447.53	652.10
447.90	648.79
448.27	645.50
448.64	640.81
449.01	637.51
449.37	631.58
449.74	625.83
450.11	618.98
450.48	611.51
450.85	604.04
451.22	597.56
451.59	591.49
451.96	585.64
452.33	577.73
452.70	570.60
453.07	562.03
453.43	553.35
453.80	545.06
454.17	537.05
454.54	529.40
454.91	521.19
455.28	513.16
455.65	505.74
456.02	498.23
456.38	491.93
456.75	483.99
457.12	477.41
457.49	470.92
457.86	464.69
458.23	459.24
458.59	453.27
458.96	447.26
459.33	441.86
459.70	436.46
460.07	432.18
460.43	427.28
460.80	422.72
461.17	418.67
461.54	414.44
461.91	410.39
462.27	406.26
462.64	402.81
463.01	399.02
463.38	395.31
463.74	391.59
464.11	388.34
464.48	385.52
464.85	382.39
465.21	379.96
465.58	377.35
465.95	374.18
466.32	371.56
466.68	368.94
467.05	366.29
467.42	363.68
467.78	360.99
468.15	358.42
468.52	356.50
468.88	354.02
469.25	351.77
469.62	349.98
469.98	348.04
470.35	346.20
470.72	344.48
471.08	342.68
471.45	341.15
471.82	339.59
472.18	337.91
472.55	336.71
472.92	335.32
473.28	334.09
473.65	332.95
474.02	331.83
474.38	330.89
474.75	330.14
475.11	329.34
475.48	328.71
475.85	328.19
476.21	327.68
476.58	327.29
476.94	327.06
477.31	326.76
477.67	326.49
478.04	326.33
478.41	326.28
478.77	326.33
479.14	326.25
479.50	326.32
479.87	326.55
480.23	326.86
480.60	327.04
480.96	327.30
481.33	327.88
481.69	328.46
482.06	329.01
482.42	329.47
482.79	330.03
483.15	330.80
483.52	331.75
483.88	332.67
484.25	333.61
484.61	334.59
484.98	335.58
485.34	336.88
485.71	338.23
486.07	339.70
486.44	341.07
486.80	342.73
487.17	344.43
487.53	346.28
487.90	348.13
488.26	350.20
488.62	352.33
488.99	354.38
489.35	356.52
489.72	358.86
490.08	361.41
490.44	363.98
490.81	366.70
491.17	369.39
491.54	372.35
491.90	375.37
492.26	378.66
492.63	382.10
492.99	385.66
493.36	389.34
493.72	393.18
494.08	397.15
494.45	401.31
494.81	405.67
495.17	410.11
495.54	414.79
495.90	419.60
496.26	424.55
496.63	429.75
496.99	435.15
497.35	440.73
497.72	446.53
498.08	452.48
498.44	458.60
498.80	465.06
499.17	471.60
499.53	478.31
499.89	485.14
500.26	492.06
500.62	499.09
500.98	506.45
501.34	513.86
501.71	521.72
502.07	529.56
502.43	537.52
502.79	545.67
503.16	554.06
503.52	562.67
503.88	571.32
504.24	580.30
504.60	589.41
504.97	598.59
505.33	607.83
505.69	617.66
506.05	627.53
506.41	637.37
506.78	647.43
507.14	657.69
507.50	668.14
507.86	678.87
508.22	689.66
508.59	700.35
508.95	711.45
509.31	722.62
509.67	734.03
510.03	745.46
510.39	757.19
510.75	769.06
511.12	780.95
511.48	793.06
511.84	805.34
512.20	817.60
512.56	830.30
512.92	843.15
513.28	855.87
513.64	868.65
514.00	881.62
514.37	894.59
514.73	907.68
515.09	920.66
515.45	933.59
515.81	946.63
516.17	960.14
516.53	973.44
516.89	986.52
517.25	999.85
517.61	1013.39
517.97	1026.79
518.33	1039.97
518.69	1053.52
519.05	1067.41
519.41	1081.12
519.77	1095.08
520.13	1108.45
520.49	1121.63
520.85	1135.05
521.21	1148.43
521.57	1162.00
521.93	1175.13
522.29	1188.98
522.65	1202.71
523.01	1216.33
523.37	1229.59
523.73	1242.90
524.09	1256.09
524.45	1269.68
524.81	1283.16
525.17	1296.58
525.53	1309.97
525.89	1323.38
526.25	1336.68
526.61	1349.48
526.97	1362.70
527.33	1375.71
527.68	1389.22
528.04	1402.80
528.40	1415.92
528.76	1429.24
529.12	1442.29
529.48	1455.68
529.84	1467.97
530.20	1480.81
530.56	1493.52
530.91	1506.84
531.27	1519.82
531.63	1532.69
531.99	1545.48
532.35	1557.79
532.71	1570.30
533.07	1583.18
533.42	1595.48
533.78	1607.51
534.14	1619.65
534.50	1630.94
534.86	1642.74
535.21	1653.62
535.57	1665.26
535.93	1676.65
536.29	1687.86
536.65	1699.50
537.00	1710.47
537.36	1722.02
537.72	1733.04
538.08	1744.46
538.44	1755.53
538.79	1766.64
539.15	1777.67
539.51	1788.60
539.87	1799.95
540.22	1810.79
540.58	1821.84
540.94	1832.80
541.29	1843.39
541.65	1853.26
542.01	1863.80
542.37	1873.85
542.72	1884.28
543.08	1894.15
543.44	1904.87
543.79	1914.32
544.15	1923.69
544.51	1933.80
544.87	1943.73
545.22	1953.06
545.58	1962.13
545.94	1971.04
546.29	1979.65
546.65	1987.99
547.01	1996.17
547.36	2003.92
547.72	2011.80
548.07	2019.31
548.43	2027.07
548.79	2034.95
549.14	2043.19
549.50	2051.77
549.86	2059.68
550.21	2067.00
550.57	2074.75
550.92	2081.49
551.28	2089.08
551.64	2096.43
551.99	2103.97
552.35	2111.13
552.70	2118.19
553.06	2124.89
553.41	2131.23
553.77	2137.70
554.13	2144.14
554.48	2151.22
554.84	2158.44
555.19	2164.94
555.55	2171.54
555.90	2177.89
556.26	2184.71
556.61	2190.88
556.97	2195.68
557.32	2201.45
557.68	2207.92
558.03	2213.68
558.39	2218.99
558.74	2224.99
559.10	2230.46
559.45	2235.88
559.81	2241.47
560.16	2246.86
560.52	2252.73
560.87	2259.16
561.23	2265.13
561.58	2271.94
561.94	2277.16
562.29	2281.70
562.64	2287.86
563.00	2293.55
563.35	2299.14
563.71	2304.66
564.06	2310.33
564.42	2316.19
564.77	2321.25
565.12	2326.39
565.48	2331.42
565.83	2336.75
566.19	2342.03
566.54	2347.38
566.89	2351.98
567.25	2356.58
567.60	2362.26
567.96	2367.30
568.31	2371.66
568.66	2375.97
569.02	2379.66
569.37	2383.47
569.72	2387.81
570.08	2391.12
570.43	2394.08
570.78	2396.97
571.14	2399.57
571.49	2402.52
571.84	2405.94
572.20	2408.80
572.55	2411.69
572.90	2413.95
573.26	2416.77
573.61	2419.00
573.96	2421.01
574.31	2422.89
574.67	2424.53
575.02	2425.12
575.37	2426.45
575.72	2427.08
576.08	2428.33
576.43	2428.35
576.78	2428.54
577.13	2429.96
577.49	2431.14
577.84	2431.97
578.19	2433.18
578.54	2433.59
578.90	2434.18
579.25	2433.92
579.60	2433.59
579.95	2432.84
580.30	2432.70
580.66	2431.78
581.01	2430.25
581.36	2427.64
581.71	2426.27
582.06	2425.08
582.42	2424.08
582.77	2421.62
583.12	2419.87
583.47	2418.27
583.82	2417.64
584.17	2416.16
584.53	2413.91
584.88	2411.62
585.23	2409.60
585.58	2407.29
585.93	2405.20
586.28	2402.84
586.63	2400.30
586.98	2398.03
587.34	2395.76
587.69	2393.11
588.04	2390.99
588.39	2389.26
588.74	2386.71
589.09	2383.66
589.44	2380.38
589.79	2377.80
590.14	2375.77
590.49	2372.92
590.84	2368.88
591.19	2365.41
591.54	2362.08
591.89	2358.06
592.25	2354.63
592.60	2350.30
592.95	2346.01
593.30	2341.75
593.65	2337.27
594.00	2332.62
594.35	2329.54
594.70	2324.84
595.05	2320.29
595.40	2314.75
595.75	2308.76
596.10	2305.15
596.45	2300.38
596.80	2295.65
597.15	2290.40
597.50	2284.56
597.85	2279.55
598.19	2274.52
598.54	2268.74
598.89	2263.52
599.24	2258.90
599.59	2252.71
599.94	2246.87
600.29	2240.80
600.64	2234.72
600.99	2227.85
601.34	2222.51
601.69	2215.52
602.04	2209.06
602.39	2202.32
602.74	2196.08
603.08	2190.66
603.43	2184.07
603.78	2177.24
604.13	2170.09
604.48	2162.53
604.83	2156.22
605.18	2149.89
605.53	2142.88
605.87	2135.91
606.22	2129.19
606.57	2121.29
606.92	2113.27
607.27	2106.34
607.62	2099.70
607.96	2092.83
608.31	2086.31
608.66	2078.44
609.01	2070.67
609.36	2063.51
609.70	2055.88
610.05	2048.19
610.40	2039.90
610.75	2031.55
611.10	2023.69
611.44	2014.85
611.79	2006.42
612.14	1996.47
612.49	1985.81
612.83	1976.36
613.18	1966.95
613.53	1957.53
613.88	1947.92
614.22	1939.34
614.57	1929.41
614.92	1918.77
615.27	1908.35
615.61	1898.31
615.96	1888.59
616.31	1879.00
616.65	1869.56
617.00	1859.86
617.35	1850.25
617.70	1840.40
618.04	1830.46
618.39	1820.29
618.74	1810.68
619.08	1801.03
619.43	1792.40
619.78	1784.20
620.12	1775.64
620.47	1766.21
620.82	1755.95
621.16	1746.09
621.51	1736.29
621.85	1726.44
622.20	1716.13
622.55	1705.55
622.89	1695.66
623.24	1685.99
623.59	1676.24
623.93	1666.25
624.28	1656.44
624.62	1646.39
624.97	1636.27
625.32	1626.51
625.66	1617.77
626.01	1609.02
626.35	1599.71
626.70	1589.61
627.04	1579.69
627.39	1569.57
627.73	1560.25
628.08	1551.40
628.43	1541.99
628.77	1532.77
629.12	1523.99
629.46	1516.43
629.81	1508.38
630.15	1499.00
630.50	1489.27
630.84	1478.90
631.19	1468.98
631.53	1459.82
631.88	1449.66
632.22	1439.74
632.57	1430.48
632.91	1420.46
633.26	1410.61
633.60	1401.11
633.95	1391.97
634.29	1382.54
634.64	1373.34
634.98	1363.50
635.32	1354.22
635.67	1345.83
636.01	1336.54
636.36	1326.93
636.70	1317.39
637.05	1308.02
637.39	1299.15
637.73	1290.59
638.08	1283.08
638.42	1275.14
638.77	1266.34
639.11	1258.18
639.45	1250.45
639.80	1242.02
640.14	1233.25
640.49	1224.47
640.83	1215.65
641.17	1207.45
641.52	1199.27
641.86	1190.67
642.20	1182.92
642.55	1174.33
642.89	1165.51
643.23	1157.02
643.58	1148.93
643.92	1139.85
644.26	1131.09
644.61	1122.67
644.95	1113.90
645.29	1104.84
645.64	1095.69
645.98	1087.28
646.32	1079.49
646.66	1070.96
647.01	1062.58
647.35	1054.58
647.69	1046.37
648.04	1038.12
648.38	1029.31
648.72	1020.57
649.06	1012.31
649.41	1004.01
649.75	996.12
650.09	988.31
650.43	980.34
650.78	972.07
651.12	964.39
651.46	957.10
651.80	949.89
652.14	942.65
652.49	935.11
652.83	927.82
653.17	920.12
653.51	912.48
653.85	905.38
654.20	898.24
654.54	890.76
654.88	883.52
655.22	876.28
655.56	869.26
655.90	862.53
656.25	855.82
656.59	849.05
656.93	842.05
657.27	834.89
657.61	827.82
657.95	821.63
658.29	815.76
658.64	809.57
658.98	803.08
659.32	796.53
659.66	790.35
660.00	784.01
660.34	777.90
660.68	771.76
661.02	765.31
661.36	759.32
661.70	753.54
662.05	747.89
662.39	742.49
662.73	737.10
663.07	731.66
663.41	726.04
663.75	720.29
664.09	714.60
664.43	709.14
664.77	703.81
665.11	698.12
665.45	692.23
665.79	686.45
666.13	680.80
666.47	675.33
666.81	669.85
667.15	664.38
667.49	659.17
667.83	653.97
668.17	648.72
668.51	643.59
668.85	638.64
669.19	633.69
669.53	628.65
669.87	623.58
670.21	618.77
670.55	614.04
670.89	609.56
671.23	605.25
671.57	600.82
671.91	596.54
672.25	592.32
672.58	588.17
672.92	584.07
673.26	580.14
673.60	576.23
673.94	572.36
674.28	568.75
674.62	565.09
674.96	561.27
675.30	557.81
675.64	554.11
675.97	550.51
676.31	546.97
676.65	543.37
676.99	539.96
677.33	536.15
677.67	532.47
678.01	528.64
678.34	524.95
678.68	521.44
679.02	517.80
679.36	514.12
679.70	510.45
680.04	506.88
680.37	503.35
680.71	499.97
681.05	496.73
681.39	493.44
681.73	490.18
682.06	487.13
682.40	483.92
682.74	480.69
683.08	477.44
683.42	474.14
683.75	471.04
684.09	467.93
684.43	465.12
684.77	462.15
685.10	459.29
685.44	456.34
685.78	453.42
686.12	450.65
686.45	447.93
686.79	445.28
687.13	442.75
687.46	440.11
687.80	437.41
688.14	434.54
688.48	431.88
688.81	429.17
689.15	426.54
689.49	423.92
689.82	421.36
690.16	418.71
690.50	416.25
690.83	413.78
691.17	411.21
691.51	408.66
691.84	406.33
692.18	404.05
692.52	401.80
692.85	399.57
693.19	397.38
693.52	395.11
693.86	392.81
694.20	390.55
694.53	388.39
694.87	386.19
695.21	384.06
695.54	381.89
695.88	379.72
696.21	377.49
696.55	375.37
696.88	373.29
697.22	371.29
697.56	369.39
697.89	367.43
698.23	365.65
698.56	363.81
698.90	362.01
699.23	360.06
699.57	358.22
699.90	356.35
700.24	354.49
700.58	352.69
700.91	350.99
701.25	349.39
701.58	347.73
701.92	346.09
702.25	344.46
702.59	342.83
702.92	341.23
703.26	339.66
703.59	338.13
703.93	336.82
704.26	335.40
704.60	333.84
704.93	332.37
705.26	330.85
705.60	329.39
705.93	327.90
706.27	326.58
706.60	325.29
706.94	324.05
707.27	322.69
707.61	321.37
707.94	320.00
708.27	318.49
708.61	317.07
708.94	315.69
709.28	314.36
709.61	313.09
709.94	311.89
710.28	310.65
710.61	309.49
710.95	308.06
711.28	306.93
711.61	305.76
711.95	304.58
712.28	303.35
712.61	302.14
712.95	301.04
713.28	299.98
713.61	298.78
713.95	297.60
714.28	296.51
714.61	295.46
714.95	294.44
715.28	293.42
715.61	292.34
715.95	291.33
716.28	290.33
716.61	289.35
716.95	288.31
717.28	287.34
717.61	286.35
717.94	285.46
718.28	284.41
718.61	283.51
718.94	282.63
719.27	281.74
719.61	280.96
719.94	280.08
720.27	279.06
720.60	278.19
720.94	277.36
721.27	276.62
721.60	275.85
721.93	275.11
722.27	274.47
722.60	273.82
722.93	273.12
723.26	272.45
723.59	271.73
723.93	271.08
724.26	270.42
724.59	269.71
724.92	269.12
725.25	268.59
725.59	267.97
725.92	267.40
726.25	266.82
726.58	266.19
726.91	265.54
727.24	265.02
727.57	264.44
727.91	263.83
728.24	263.28
728.57	262.69
728.90	262.15
729.23	261.49
729.56	261.01
729.89	260.44
730.22	259.90
730.55	259.34
730.89	258.83
731.22	258.28
731.55	257.79
731.88	257.22
732.21	256.66
732.54	256.15
732.87	255.63
733.20	255.14
733.53	254.62
733.86	254.18
734.19	253.69
734.52	253.31
734.85	253.03
735.18	252.51
735.51	252.16
735.84	251.72
736.17	251.33
736.50	250.80
736.83	250.66
737.16	250.28
737.49	249.92
737.82	249.49
738.15	249.11
738.48	248.71
738.81	248.30
739.14	247.85
739.47	247.45
739.80	247.09
740.13	246.73
740.46	246.33
740.79	245.94
741.12	245.55
741.45	245.12
741.78	244.64
742.11	244.35
742.44	243.94
742.77	243.61
743.10	243.27
743.43	242.91
743.75	242.29
744.08	242.23
744.41	241.84
744.74	241.50
745.07	241.12
745.40	240.82
745.73	240.56
746.06	240.24
746.39	239.95
746.71	239.58
747.04	239.23
747.37	238.92
747.70	238.66
748.03	238.38
748.36	238.11
748.68	237.77
749.01	237.41
749.34	237.10
749.67	236.79
750.00	236.50
750.33	236.39
750.65	236.16
750.98	235.59
751.31	235.36
751.64	235.11
751.97	235.00
752.29	234.74
752.62	234.42
752.95	234.17
753.28	233.90
753.60	233.66
753.93	233.50
754.26	233.32
754.59	233.00
754.91	232.75
755.24	232.49
755.57	232.25
755.90	232.05
756.22	231.82
756.55	231.56
756.88	231.33
757.20	230.99
757.53	230.74
757.86	230.52
758.19	230.28
758.51	230.07
758.84	229.75
759.17	229.51
759.49	229.29
759.82	229.20
760.15	229.03
760.47	228.82
760.80	228.52
761.13	228.33
761.45	228.15
761.78	228.01
762.11	227.86
762.43	227.66
762.76	227.47
763.08	227.33
763.41	227.19
763.74	227.03
764.06	226.84
764.39	226.67
764.71	226.50
765.04	226.38
765.37	226.22
765.69	226.08
766.02	225.92
766.34	225.78
766.67	225.58
767.00	225.45
767.32	225.45
767.65	225.48
767.97	225.32
768.30	225.24
768.62	225.09
768.95	224.96
769.27	224.84
769.60	224.74
769.92	224.56
770.25	224.43
770.57	224.25
770.90	224.13
771.22	223.99
771.55	223.90
771.87	223.78
772.20	223.67
772.52	223.71
772.85	223.89
773.17	223.81
773.50	223.69
773.82	223.57
774.15	223.40
774.47	223.16
774.80	223.08
775.12	222.92
775.45	222.82
775.77	222.74
776.09	222.66
776.42	222.53
776.74	222.56
777.07	222.44
777.39	222.38
777.72	222.29
778.04	222.23
778.36	222.12
778.69	222.03
779.01	221.97
779.33	221.71
779.66	221.37
779.98	221.27
780.31	221.18
780.63	221.16
780.95	221.12
781.28	221.05
781.60	220.94
781.92	220.89
782.25	220.80
782.57	220.74
782.89	220.68
783.22	220.61
783.54	220.44
783.86	220.39
784.19	220.28
784.51	220.27
784.83	220.17
785.16	220.12
785.48	220.09
785.80	219.95
786.12	219.93
786.45	219.91
786.77	219.85
787.09	219.77
787.42	219.66
787.74	219.58
788.06	219.54
788.38	219.46
788.71	219.38
789.03	219.32
789.35	219.27
789.67	219.20
789.99	219.21
790.32	219.12
790.64	219.11
790.96	219.26
791.28	219.12
791.61	219.08
791.93	219.05
792.25	218.98
792.57	219.13
792.89	219.00
793.21	218.94
793.54	218.87
793.86	218.83
794.18	218.75
794.50	218.66
794.82	218.63
795.14	218.63
795.47	218.66
795.79	218.60
796.11	218.51
796.43	218.47
796.75	218.40
797.07	218.40
797.39	218.33
797.71	218.12
798.04	218.11
798.36	218.06
798.68	218.02
799.00	217.99
799.32	217.86
799.64	217.89
799.96	217.84
800.28	217.84
800.60	217.78
800.92	217.78
801.24	217.70
801.56	217.63
801.89	217.61
802.21	217.56
802.53	217.53
802.85	217.54
803.17	217.61
803.49	217.52
803.81	217.47
804.13	217.45
804.45	217.39
804.77	217.38
805.09	217.37
805.41	217.32
805.73	217.23
806.05	217.15
806.37	217.08
806.69	217.02
807.01	216.99
807.33	217.01
807.65	216.92
807.97	217.03
808.28	217.00
808.60	216.96
808.92	216.89
809.24	216.96
809.56	216.89
809.88	216.77
810.20	216.76
810.52	216.77
810.84	216.73
811.16	216.69
811.48	216.65
811.80	216.71
812.12	216.66
812.43	216.70
812.75	216.67
813.07	216.66
813.39	216.68
813.71	216.62
814.03	216.57
814.35	216.57
814.67	216.46
814.98	216.44
815.30	216.38
815.62	216.30
815.94	216.17
816.26	216.18
816.58	216.11
816.89	216.15
817.21	216.08
817.53	216.05
817.85	216.07
818.17	216.05
818.48	215.94
818.80	215.99
819.12	215.91
819.44	215.88
819.76	215.85
820.07	215.80
820.39	215.79
820.71	215.78
821.03	215.73
821.34	215.71
821.66	215.73
821.98	215.76
822.30	215.73
822.61	215.85
822.93	215.78
823.25	215.77
823.57	215.69
823.88	215.71
824.20	215.71
824.52	215.72
824.83	215.68
825.15	215.66
825.47	215.61
825.79	215.63
826.10	215.60
826.42	215.58
826.74	215.58
827.05	215.56
827.37	215.56
827.69	215.57
828.00	215.54
828.32	215.49
828.64	215.45
828.95	215.59
829.27	215.49
829.58	215.50
829.90	215.53
830.22	215.57
830.53	215.52
830.85	215.47
831.17	215.42
831.48	215.43
831.80	215.42
832.11	215.39
832.43	215.37
832.75	215.36
833.06	215.45
833.38	215.39
833.69	215.38
834.01	215.40
834.32	215.37
834.64	215.39
834.96	215.41
835.27	215.40
835.59	215.32
835.90	215.31
836.22	215.31
836.53	215.22
836.85	215.19
837.16	215.42
837.48	215.41
837.79	215.44
838.11	215.42
838.42	215.43
838.74	215.45
839.05	215.42
839.37	215.40
839.68	215.26
840.00	215.22
840.31	215.26
840.63	215.17
840.94	215.15
841.26	215.10
841.57	215.07
841.88	215.09
842.20	215.05
842.51	214.99
842.83	214.97
843.14	215.17
843.46	215.17
843.77	215.00
844.08	214.97
844.40	214.95
844.71	214.93
845.03	214.92
845.34	214.93
845.65	214.94
845.97	214.96
846.28	215.00
846.60	215.05
846.91	215.02
847.22	215.04
847.54	215.10
847.85	215.11
848.16	215.08
848.48	215.01
848.79	215.12
849.10	215.14
849.42	215.13
849.73	214.95
850.04	214.91
850.36	214.85
850.67	214.92
850.98	214.88
851.30	214.88
851.61	214.85
851.92	214.83
852.23	214.89
852.55	214.88
852.86	214.86
853.17	214.85
853.49	214.88
853.80	214.93
854.11	214.93
854.42	214.93
854.74	214.92
855.05	214.92
855.36	214.78
855.67	214.81
855.99	214.83
856.30	215.07
856.61	215.08
856.92	215.08
857.23	215.02
857.55	215.01
857.86	214.98
858.17	215.00
858.48	214.95
858.79	214.90
859.11	214.93
859.42	214.89
859.73	214.87
860.04	214.84
860.35	214.75
860.66	214.70
860.98	214.70
861.29	214.74
861.60	214.76
861.91	214.81
862.22	214.76
862.53	214.74
862.84	214.51
863.16	214.52
863.47	214.48
863.78	214.49
864.09	214.51
864.40	214.55
864.71	214.54
865.02	214.57
865.33	214.51
865.64	214.47
865.95	214.50
866.27	214.63
866.58	214.61
866.89	214.64
867.20	214.63
867.51	214.59
867.82	214.59
868.13	214.63
868.44	214.59
868.75	214.64
869.06	214.64
869.37	214.64
869.68	214.61
869.99	214.65
870.30	214.63
870.61	214.65
870.92	214.63
871.23	214.62
871.54	214.63
871.85	214.70
872.16	214.71
872.47	214.67
872.78	214.54
873.09	214.56
873.40	214.54
873.71	214.55
874.02	214.58
874.33	214.53
874.64	214.48
874.95	214.47
875.26	214.39
875.56	214.42
875.87	214.41
876.18	214.39
876.49	214.60
876.80	214.58
877.11	214.54
877.42	214.51
877.73	214.51
878.04	214.48
878.35	214.46
878.66	214.46
878.96	214.49
879.27	214.48
879.58	214.44
879.89	214.43
880.20	214.48
880.51	214.47
880.82	214.48
881.12	214.53
881.43	214.53
881.74	214.52
882.05	214.45
882.36	214.47
882.67	214.49
882.97	214.27
883.28	214.24
883.59	214.25
883.90	214.30
884.21	214.32
884.51	214.27
884.82	214.23
885.13	214.24
885.44	214.21
885.74	214.22
886.05	214.23
886.36	214.25
886.67	214.18
886.98	214.26
887.28	214.29
887.59	214.25
887.90	214.24
888.20	214.23
888.51	214.29
888.82	214.22
889.13	214.23
889.43	214.35
889.74	214.35
890.05	214.33
890.35	214.32
890.66	214.29
890.97	214.31
891.28	214.33
891.58	214.32
891.89	214.33
892.20	214.30
892.50	214.28
892.81	214.25
893.12	214.24
893.42	214.13
893.73	214.10
894.04	214.10
894.34	214.13
894.65	214.14
894.95	214.13
895.26	214.14
895.57	214.24
895.87	214.11
896.18	214.16
896.48	214.15
896.79	214.11
897.10	214.14
897.40	214.17
897.71	214.21
898.01	214.20
898.32	214.22
898.63	214.21
898.93	214.22
899.24	214.25
899.54	214.26
899.85	214.26
900.15	214.28
900.46	214.26
900.76	214.27
901.07	214.31
901.38	214.30
901.68	214.34
901.99	214.26
902.29	214.24
902.60	214.24
902.90	214.23
903.21	214.25
903.51	214.24
903.82	214.28
904.12	214.25
904.43	214.27
904.73	214.25
905.03	214.26
905.34	214.47
905.64	214.43
905.95	214.42
906.25	214.40
906.56	214.41
906.86	214.41
907.17	214.40
907.47	214.41
907.77	214.37
908.08	214.35
908.38	214.34
908.69	214.34
908.99	214.36
909.30	214.34
909.60	214.34
909.90	214.34
910.21	214.28
910.51	214.26
910.81	214.24
911.12	214.26
911.42	214.27
911.73	214.05
912.03	214.06
912.33	214.10
912.64	214.12
912.94	214.09
913.24	214.07
913.55	214.07
913.85	214.05
914.15	214.10
914.46	214.11
914.76	214.09
915.06	214.07
915.37	214.03
915.67	214.03
915.97	214.06
916.27	214.01
916.58	214.01
916.88	214.03
917.18	214.04
917.49	214.19
917.79	214.19
918.09	214.23
918.39	214.30
918.70	214.28
919.00	214.28
919.30	214.39
919.60	214.37
919.91	214.34
920.21	214.38
920.51	214.31
920.81	214.31
921.12	214.35
921.42	214.37
921.72	214.39
922.02	214.43
922.32	214.46
922.63	214.47
922.93	214.56
923.23	214.56
923.53	214.52
923.83	214.38
924.13	214.38
924.44	214.37
924.74	214.41
925.04	214.47
925.34	214.45
925.64	214.33
925.94	214.33
926.24	214.44
926.55	214.37
926.85	214.41
927.15	214.41
927.45	214.41
927.75	214.39
928.05	214.38
928.35	214.37
928.65	214.38
928.95	214.38
929.26	214.31
929.56	214.33
929.86	214.36
930.16	214.32
930.46	214.30
930.76	214.35
931.06	214.25
931.36	214.18
931.66	214.22
931.96	214.26
932.26	214.29
932.56	214.20
932.86	214.22
933.16	214.22
933.46	214.17
933.76	214.14
934.06	214.17
934.36	214.24
934.66	214.24
934.96	214.19
935.26	214.21
935.56	214.23
935.86	214.18
936.16	214.18
936.46	214.17
936.76	214.15
937.06	214.11
937.36	214.11
937.66	214.11
937.96	214.10
938.26	214.05
938.56	214.03
938.86	214.01
939.16	214.04
939.46	214.06
939.76	214.08
940.06	214.09
940.35	214.07
940.65	213.96
940.95	213.98
941.25	213.95
941.55	213.94
941.85	213.89
942.15	213.92
942.45	213.95
942.75	213.95
943.04	213.97
943.34	214.00
943.64	213.97
943.94	213.95
944.24	213.95
944.54	213.95
944.84	213.94
945.13	213.91
945.43	213.90
945.73	213.87
946.03	213.89
946.33	213.89
946.62	213.85
946.92	213.86
947.22	213.86
947.52	213.86
947.82	213.88
948.11	213.86
948.41	213.84
948.71	213.81
949.01	213.82
949.31	213.79
949.60	213.77
949.90	213.83
950.20	213.79
950.50	213.79
950.79	213.80
951.09	213.80
951.39	213.81
951.69	213.78
951.98	213.83
952.28	213.82
952.58	213.78
952.87	213.80
953.17	213.81
953.47	213.81
953.76	213.80
954.06	213.77
954.36	213.77
954.66	213.75
954.95	213.79
955.25	213.79
955.55	213.83
955.84	213.78
956.14	213.75
956.44	213.78
956.73	213.73
957.03	213.74
957.32	213.78
957.62	213.76
957.92	213.84
958.21	213.78
958.51	214.00
958.81	214.00
959.10	214.03
959.40	214.10
959.69	214.11
959.99	214.16
960.29	214.17
960.58	214.16
960.88	214.24
961.17	214.23
961.47	214.26
961.76	214.23
962.06	214.28
962.36	214.27
962.65	214.29
962.95	214.32
963.24	214.30
963.54	214.31
963.83	214.34
964.13	214.30
964.42	214.25
964.72	214.11
965.01	214.15
965.31	214.12
965.60	214.05
965.90	214.15
966.19	214.09
966.49	214.07
966.78	214.03
967.08	214.03
967.37	214.04
967.67	213.98
967.96	214.02
968.26	214.02
968.55	214.05
968.85	214.04
969.14	214.02
969.43	214.04
969.73	213.99
970.02	213.98
970.32	213.98
970.61	214.01
970.91	213.95
971.20	213.90
971.49	213.89
971.79	213.91
972.08	213.79
972.38	213.83
972.67	213.81
972.96	213.85
973.26	213.83
973.55	213.86
973.85	213.83
974.14	213.80
974.43	213.80
974.73	213.77
975.02	213.74
975.31	213.76
975.61	213.74
975.90	213.76
976.19	213.74
976.49	213.74
976.78	213.74
977.07	213.74
977.37	213.76
977.66	213.81
977.95	213.75
978.24	213.73
978.54	213.73
978.83	213.73
979.12	213.73
979.42	213.74
979.71	213.69
980.00	213.71
980.29	213.73
980.59	213.69
980.88	213.76
981.17	213.79
981.46	213.78
981.76	213.77
982.05	213.82
982.34	213.82
982.63	213.85
982.93	213.88
983.22	213.94
983.51	213.94
983.80	213.94
984.09	214.00
984.39	214.01
984.68	214.02
984.97	214.05
985.26	214.02
985.55	214.01
985.85	213.99
986.14	214.02
986.43	213.99
986.72	213.98
987.01	213.92
987.30	213.88
987.59	213.84
987.89	213.88
988.18	213.81
988.47	213.77
988.76	213.71
989.05	213.70
989.34	213.66
989.63	213.68
989.92	213.65
990.22	213.60
990.51	213.61
990.80	213.57
991.09	213.57
991.38	213.58
991.67	213.57
991.96	213.55
992.25	213.54
992.54	213.53
992.83	213.54
993.12	213.53
993.41	213.60
993.70	213.71
993.99	213.74
994.28	213.75
994.58	213.81
994.87	213.80
995.16	213.77
995.45	213.76
995.74	213.74
996.03	213.77
996.32	213.83
996.61	213.88
996.90	213.88
997.19	213.90
997.48	213.91
997.77	213.92
998.06	213.93
998.34	213.93
998.63	213.93
998.92	213.93
999.21	213.95
999.50	213.95
999.79	213.88
1000.08	213.89
1000.37	213.92
1000.66	213.89
1000.95	213.95
1001.24	213.95
1001.53	213.97
1001.82	213.94
1002.11	213.89
1002.40	213.94
1002.68	213.93
1002.97	214.08
1003.26	214.02
1003.55	213.99
1003.84	213.99
1004.13	214.06
1004.42	214.05
1004.71	214.07
1004.99	214.07
1005.28	214.08
1005.57	214.07
1005.86	214.04
1006.15	214.00
1006.44	213.95
1006.72	213.97
1007.01	213.94
1007.30	213.93
1007.59	213.92
1007.88	213.92
1008.17	213.96
1008.45	213.88
1008.74	213.83
1009.03	213.78
1009.32	213.80
1009.60	213.80
1009.89	213.77
1010.18	213.71
1010.47	213.70
1010.76	213.65
1011.04	213.64
1011.33	213.78
1011.62	213.77
1011.91	213.76
1012.19	213.77
1012.48	213.77
1012.77	213.77
1013.05	213.88
1013.34	213.89
1013.63	213.86
1013.92	213.90
1014.20	213.86
1014.49	213.87
1014.78	213.89
1015.06	213.80
1015.35	213.80
1015.64	213.86
1015.92	213.91
1016.21	213.92
1016.50	213.94
1016.78	214.02
1017.07	214.07
1017.36	213.92
1017.64	213.87
1017.93	213.92
1018.22	213.89
1018.50	213.88
1018.79	213.86
1019.08	213.76
1019.36	213.79
1019.65	213.81
1019.93	213.85
1020.22	213.90
1020.51	214.02
1020.79	213.98
1021.08	213.50
1021.36	212.92
1021.65	213.53
1021.94	213.82
1022.22	214.15
1022.51	213.82
1022.79	214.86
1023.08	214.39
1023.36	216.41
1023.65	213.31
>>>>>End Processed Spectral Data<<<<<
