SpectraSuite Data File
++++++++++++++++++++++++++++++++++++
Date: Tue Jan 29 15:58:11 EST 2013
User: group
Dark Spectrum Present: No
Reference Spectrum Present: No
Number of Sampled Component Spectra: 1
Spectrometers: USB2E7196
Integration Time (usec): 65000 (USB2E7196)
Spectra Averaged: 100 (USB2E7196)
Boxcar Smoothing: 10 (USB2E7196)
Correct for Electrical Dark: No (USB2E7196)
Strobe/Lamp Enabled: No (USB2E7196)
Correct for Detector Non-linearity: No (USB2E7196)
Correct for Stray Light: No (USB2E7196)
Number of Pixels in Processed Spectrum: 2048
>>>>>Begin Processed Spectral Data<<<<<
339.09	0.00
339.48	203.30
339.86	204.48
340.24	205.46
340.63	207.17
341.01	212.04
341.39	210.03
341.78	212.03
342.16	213.30
342.54	213.05
342.93	202.29
343.31	212.52
343.69	213.04
344.07	213.52
344.46	214.02
344.84	214.44
345.22	214.60
345.60	214.88
345.99	215.06
346.37	215.19
346.75	215.33
347.13	215.41
347.52	215.51
347.90	215.62
348.28	215.66
348.66	215.76
349.05	215.74
349.43	215.81
349.81	215.90
350.19	215.94
350.57	216.03
350.96	216.13
351.34	216.24
351.72	216.36
352.10	216.44
352.48	216.48
352.87	216.51
353.25	216.58
353.63	216.65
354.01	216.68
354.39	216.78
354.77	216.83
355.15	216.98
355.54	216.97
355.92	216.96
356.30	217.04
356.68	217.23
357.06	217.31
357.44	217.30
357.82	217.32
358.20	217.38
358.58	217.43
358.97	217.49
359.35	217.56
359.73	217.62
360.11	217.64
360.49	217.69
360.87	217.74
361.25	217.77
361.63	217.88
362.01	217.95
362.39	217.92
362.77	217.98
363.15	217.95
363.53	218.01
363.91	218.04
364.29	218.04
364.67	217.86
365.05	217.86
365.43	217.92
365.81	217.98
366.19	218.10
366.57	218.19
366.95	218.19
367.33	218.17
367.71	218.17
368.09	218.26
368.47	218.29
368.85	218.26
369.23	218.30
369.61	218.18
369.99	218.22
370.37	218.23
370.75	218.28
371.13	218.20
371.51	218.14
371.89	218.18
372.27	218.12
372.65	218.09
373.03	218.08
373.41	218.02
373.78	217.95
374.16	217.81
374.54	217.68
374.92	217.62
375.30	217.57
375.68	217.50
376.06	217.44
376.44	217.35
376.82	217.35
377.19	217.30
377.57	217.27
377.95	217.17
378.33	217.08
378.71	216.92
379.09	216.94
379.47	216.90
379.84	216.79
380.22	216.78
380.60	216.67
380.98	216.62
381.36	216.56
381.73	216.52
382.11	216.52
382.49	216.45
382.87	216.38
383.25	216.33
383.62	216.50
384.00	216.43
384.38	216.43
384.76	216.41
385.13	216.45
385.51	216.43
385.89	216.36
386.27	216.38
386.64	216.40
387.02	216.33
387.40	216.32
387.78	216.32
388.15	216.30
388.53	216.28
388.91	216.26
389.29	216.23
389.66	216.23
390.04	216.20
390.42	216.26
390.79	216.29
391.17	216.27
391.55	216.06
391.92	216.05
392.30	216.04
392.68	216.01
393.05	216.01
393.43	216.00
393.81	216.04
394.18	215.99
394.56	216.00
394.94	216.03
395.31	216.03
395.69	216.08
396.06	216.08
396.44	216.12
396.82	216.13
397.19	216.27
397.57	216.25
397.95	216.27
398.32	216.23
398.70	216.26
399.07	216.37
399.45	216.39
399.82	216.41
400.20	216.39
400.58	216.43
400.95	216.37
401.33	216.46
401.70	216.65
402.08	216.76
402.45	216.85
402.83	217.00
403.20	217.11
403.58	217.20
403.95	217.37
404.33	217.55
404.71	217.71
405.08	217.95
405.46	218.11
405.83	218.30
406.21	218.50
406.58	218.71
406.96	218.92
407.33	219.18
407.70	219.49
408.08	219.98
408.45	220.35
408.83	220.74
409.20	221.08
409.58	221.37
409.95	221.82
410.33	222.25
410.70	222.66
411.08	223.20
411.45	223.77
411.82	224.32
412.20	224.96
412.57	225.75
412.95	226.28
413.32	227.10
413.69	227.91
414.07	228.79
414.44	229.74
414.82	230.70
415.19	231.85
415.56	232.99
415.94	234.11
416.31	235.44
416.68	236.82
417.06	238.34
417.43	239.79
417.81	241.45
418.18	243.17
418.55	245.03
418.93	246.96
419.30	248.97
419.67	251.09
420.04	253.29
420.42	255.58
420.79	258.30
421.16	260.96
421.54	263.78
421.91	266.66
422.28	269.69
422.66	272.89
423.03	276.00
423.40	279.21
423.77	282.65
424.15	286.20
424.52	289.89
424.89	293.93
425.26	297.85
425.64	301.59
426.01	305.73
426.38	310.06
426.75	314.45
427.13	319.03
427.50	323.85
427.87	328.90
428.24	333.94
428.61	338.73
428.99	344.05
429.36	349.79
429.73	355.44
430.10	361.07
430.47	366.88
430.85	372.94
431.22	379.46
431.59	386.30
431.96	392.86
432.33	400.02
432.70	406.95
433.08	415.17
433.45	422.88
433.82	430.61
434.19	439.12
434.56	447.56
434.93	455.61
435.30	463.51
435.68	472.22
436.05	480.84
436.42	489.39
436.79	497.22
437.16	505.71
437.53	514.64
437.90	523.40
438.27	531.99
438.64	540.83
439.01	548.99
439.38	556.30
439.75	563.36
440.13	571.47
440.50	579.12
440.87	585.27
441.24	591.67
441.61	598.67
441.98	603.87
442.35	609.93
442.72	615.91
443.09	621.72
443.46	625.36
443.83	627.73
444.20	629.81
444.57	632.85
444.94	634.14
445.31	635.49
445.68	636.76
446.05	637.32
446.42	636.54
446.79	635.59
447.16	634.51
447.53	633.71
447.90	630.47
448.27	627.29
448.64	622.81
449.01	619.62
449.37	613.93
449.74	608.38
450.11	601.65
450.48	594.52
450.85	587.36
451.22	581.06
451.59	575.15
451.96	569.61
452.33	562.01
452.70	555.20
453.07	547.06
453.43	538.85
453.80	530.93
454.17	523.30
454.54	516.07
454.91	508.26
455.28	500.64
455.65	493.53
456.02	486.33
456.38	480.31
456.75	472.75
457.12	466.52
457.49	460.38
457.86	454.48
458.23	449.35
458.59	443.74
458.96	438.03
459.33	432.97
459.70	427.77
460.07	423.71
460.43	419.07
460.80	414.72
461.17	410.89
461.54	406.87
461.91	403.03
462.27	399.08
462.64	395.80
463.01	392.15
463.38	388.63
463.74	385.12
464.11	381.98
464.48	379.25
464.85	376.22
465.21	373.84
465.58	371.34
465.95	368.33
466.32	365.77
466.68	363.31
467.05	360.88
467.42	358.47
467.78	355.91
468.15	353.44
468.52	351.68
468.88	349.33
469.25	347.21
469.62	345.45
469.98	343.61
470.35	341.90
470.72	340.28
471.08	338.59
471.45	337.18
471.82	335.77
472.18	334.23
472.55	333.10
472.92	331.78
473.28	330.60
473.65	329.55
474.02	328.55
474.38	327.71
474.75	327.00
475.11	326.18
475.48	325.63
475.85	325.26
476.21	324.74
476.58	324.40
476.94	324.23
477.31	323.99
477.67	323.83
478.04	323.67
478.41	323.69
478.77	323.85
479.14	323.79
479.50	323.95
479.87	324.28
480.23	324.66
480.60	324.94
480.96	325.28
481.33	325.88
481.69	326.44
482.06	326.95
482.42	327.43
482.79	328.11
483.15	328.95
483.52	329.89
483.88	330.80
484.25	331.73
484.61	332.72
484.98	333.81
485.34	335.09
485.71	336.49
486.07	337.92
486.44	339.25
486.80	340.93
487.17	342.55
487.53	344.38
487.90	346.21
488.26	348.26
488.62	350.45
488.99	352.50
489.35	354.65
489.72	357.04
490.08	359.54
490.44	362.10
490.81	364.82
491.17	367.50
491.54	370.44
491.90	373.54
492.26	376.80
492.63	380.16
492.99	383.62
493.36	387.29
493.72	391.17
494.08	395.15
494.45	399.32
494.81	403.73
495.17	408.17
495.54	412.87
495.90	417.68
496.26	422.59
496.63	427.80
496.99	433.21
497.35	438.76
497.72	444.56
498.08	450.52
498.44	456.56
498.80	462.94
499.17	469.42
499.53	476.06
499.89	482.92
500.26	489.83
500.62	496.84
500.98	504.23
501.34	511.61
501.71	519.39
502.07	527.12
502.43	535.09
502.79	543.23
503.16	551.59
503.52	560.13
503.88	568.73
504.24	577.63
504.60	586.60
504.97	595.79
505.33	605.10
505.69	614.88
506.05	624.66
506.41	634.50
506.78	644.55
507.14	654.76
507.50	665.18
507.86	675.87
508.22	686.68
508.59	697.26
508.95	708.36
509.31	719.57
509.67	731.05
510.03	742.40
510.39	754.14
510.75	765.99
511.12	777.82
511.48	789.88
511.84	801.98
512.20	814.27
512.56	826.86
512.92	839.48
513.28	852.00
513.64	864.66
514.00	877.41
514.37	890.32
514.73	903.34
515.09	916.21
515.45	928.93
515.81	941.78
516.17	954.99
516.53	967.98
516.89	980.89
517.25	993.85
517.61	1007.19
517.97	1020.30
518.33	1033.20
518.69	1046.61
519.05	1060.20
519.41	1073.71
519.77	1087.42
520.13	1100.47
520.49	1113.45
520.85	1126.55
521.21	1139.75
521.57	1153.17
521.93	1166.05
522.29	1179.62
522.65	1193.13
523.01	1206.53
523.37	1219.48
523.73	1232.61
524.09	1245.57
524.45	1258.72
524.81	1271.90
525.17	1285.06
525.53	1297.97
525.89	1310.96
526.25	1323.74
526.61	1336.21
526.97	1348.96
527.33	1361.55
527.68	1374.77
528.04	1387.97
528.40	1400.80
528.76	1413.79
529.12	1426.43
529.48	1439.40
529.84	1451.26
530.20	1463.65
530.56	1475.98
530.91	1488.98
531.27	1501.40
531.63	1513.85
531.99	1526.30
532.35	1538.35
532.71	1550.29
533.07	1562.76
533.42	1574.74
533.78	1586.51
534.14	1598.26
534.50	1609.21
534.86	1620.42
535.21	1630.95
535.57	1642.04
535.93	1653.15
536.29	1664.00
536.65	1674.88
537.00	1685.44
537.36	1696.44
537.72	1707.14
538.08	1718.07
538.44	1728.61
538.79	1739.43
539.15	1749.85
539.51	1760.23
539.87	1771.13
540.22	1781.65
540.58	1792.26
540.94	1802.74
541.29	1812.63
541.65	1822.26
542.01	1832.56
542.37	1842.44
542.72	1852.34
543.08	1861.81
543.44	1871.81
543.79	1880.84
544.15	1890.15
544.51	1899.91
544.87	1909.54
545.22	1918.11
545.58	1926.84
545.94	1935.49
546.29	1943.73
546.65	1951.93
547.01	1959.85
547.36	1967.10
547.72	1974.60
548.07	1981.88
548.43	1989.27
548.79	1996.96
549.14	2004.61
549.50	2012.57
549.86	2019.98
550.21	2027.04
550.57	2034.44
550.92	2041.05
551.28	2048.11
551.64	2055.17
551.99	2062.43
552.35	2069.23
552.70	2076.00
553.06	2082.35
553.41	2088.46
553.77	2094.78
554.13	2100.89
554.48	2107.85
554.84	2114.86
555.19	2121.25
555.55	2127.74
555.90	2133.98
556.26	2140.42
556.61	2146.30
556.97	2151.26
557.32	2157.13
557.68	2163.33
558.03	2168.98
558.39	2174.10
558.74	2179.97
559.10	2185.56
559.45	2191.10
559.81	2196.63
560.16	2202.15
560.52	2208.06
560.87	2214.30
561.23	2220.34
561.58	2227.01
561.94	2232.07
562.29	2236.98
562.64	2243.04
563.00	2248.47
563.35	2254.11
563.71	2260.13
564.06	2265.88
564.42	2271.71
564.77	2276.81
565.12	2282.05
565.48	2287.34
565.83	2292.98
566.19	2298.72
566.54	2304.05
566.89	2308.65
567.25	2313.34
567.60	2319.01
567.96	2324.28
568.31	2328.99
568.66	2333.12
569.02	2337.00
569.37	2340.89
569.72	2345.22
570.08	2348.80
570.43	2352.03
570.78	2355.13
571.14	2357.82
571.49	2361.09
571.84	2364.85
572.20	2367.76
572.55	2371.06
572.90	2373.37
573.26	2376.52
573.61	2378.99
573.96	2381.31
574.31	2383.45
574.67	2385.61
575.02	2386.84
575.37	2388.26
575.72	2389.19
576.08	2390.87
576.43	2391.35
576.78	2392.33
577.13	2394.32
577.49	2395.66
577.84	2397.22
578.19	2398.91
578.54	2399.83
578.90	2400.96
579.25	2401.10
579.60	2401.55
579.95	2401.07
580.30	2401.64
580.66	2401.22
581.01	2399.83
581.36	2397.99
581.71	2396.98
582.06	2396.07
582.42	2395.28
582.77	2393.43
583.12	2392.18
583.47	2391.14
583.82	2390.77
584.17	2389.68
584.53	2387.61
584.88	2385.80
585.23	2383.93
585.58	2381.93
585.93	2379.84
586.28	2377.84
586.63	2375.61
586.98	2373.53
587.34	2371.82
587.69	2369.65
588.04	2367.79
588.39	2366.62
588.74	2364.22
589.09	2361.74
589.44	2358.99
589.79	2356.94
590.14	2355.33
590.49	2352.56
590.84	2349.07
591.19	2346.36
591.54	2343.27
591.89	2339.39
592.25	2336.34
592.60	2332.26
592.95	2328.18
593.30	2324.37
593.65	2320.10
594.00	2315.93
594.35	2313.08
594.70	2308.61
595.05	2304.12
595.40	2298.68
595.75	2293.19
596.10	2289.62
596.45	2284.87
596.80	2280.37
597.15	2275.12
597.50	2269.37
597.85	2264.72
598.19	2259.56
598.54	2253.82
598.89	2248.87
599.24	2244.57
599.59	2238.67
599.94	2233.27
600.29	2227.64
600.64	2221.71
600.99	2215.29
601.34	2209.91
601.69	2202.89
602.04	2196.57
602.39	2190.21
602.74	2184.38
603.08	2178.94
603.43	2172.64
603.78	2165.85
604.13	2158.87
604.48	2151.80
604.83	2145.72
605.18	2139.41
605.53	2132.53
605.87	2125.63
606.22	2118.85
606.57	2111.17
606.92	2103.40
607.27	2096.63
607.62	2090.09
607.96	2083.20
608.31	2076.59
608.66	2068.94
609.01	2061.50
609.36	2054.47
609.70	2046.72
610.05	2038.98
610.40	2030.80
610.75	2022.51
611.10	2015.09
611.44	2006.39
611.79	1997.75
612.14	1987.82
612.49	1977.45
612.83	1968.45
613.18	1959.43
613.53	1950.13
613.88	1940.51
614.22	1931.83
614.57	1921.76
614.92	1911.31
615.27	1901.28
615.61	1891.29
615.96	1881.66
616.31	1872.19
616.65	1863.00
617.00	1853.12
617.35	1843.64
617.70	1833.76
618.04	1823.62
618.39	1813.06
618.74	1803.32
619.08	1793.82
619.43	1785.15
619.78	1777.00
620.12	1768.14
620.47	1758.24
620.82	1748.06
621.16	1738.28
621.51	1728.41
621.85	1718.58
622.20	1708.04
622.55	1697.38
622.89	1687.62
623.24	1677.92
623.59	1668.07
623.93	1657.73
624.28	1648.08
624.62	1637.78
624.97	1627.43
625.32	1617.80
625.66	1609.26
626.01	1600.38
626.35	1590.80
626.70	1580.58
627.04	1570.21
627.39	1560.09
627.73	1550.75
628.08	1541.41
628.43	1531.77
628.77	1522.45
629.12	1513.61
629.46	1505.59
629.81	1497.18
630.15	1487.52
630.50	1477.54
630.84	1467.06
631.19	1457.22
631.53	1447.71
631.88	1437.50
632.22	1427.59
632.57	1418.23
632.91	1407.91
633.26	1398.08
633.60	1388.51
633.95	1379.30
634.29	1369.97
634.64	1360.61
634.98	1350.72
635.32	1341.55
635.67	1332.94
636.01	1323.66
636.36	1313.74
636.70	1304.36
637.05	1294.95
637.39	1285.84
637.73	1277.24
638.08	1269.67
638.42	1261.20
638.77	1252.43
639.11	1244.17
639.45	1236.23
639.80	1227.43
640.14	1218.73
640.49	1209.77
640.83	1200.93
641.17	1192.78
641.52	1184.44
641.86	1175.87
642.20	1167.96
642.55	1159.43
642.89	1150.58
643.23	1141.94
643.58	1133.95
643.92	1124.81
644.26	1116.20
644.61	1107.91
644.95	1099.11
645.29	1089.73
645.64	1080.71
645.98	1072.41
646.32	1064.50
646.66	1056.03
647.01	1047.69
647.35	1039.53
647.69	1031.18
648.04	1022.88
648.38	1013.95
648.72	1005.23
649.06	996.66
649.41	988.51
649.75	980.46
650.09	972.54
650.43	964.51
650.78	956.19
651.12	948.64
651.46	941.31
651.80	933.90
652.14	926.63
652.49	919.15
652.83	911.82
653.17	904.00
653.51	896.36
653.85	889.15
654.20	881.95
654.54	874.40
654.88	867.32
655.22	860.13
655.56	853.15
655.90	846.40
656.25	839.83
656.59	832.85
656.93	825.84
657.27	818.80
657.61	811.92
657.95	805.83
658.29	799.90
658.64	793.73
658.98	787.47
659.32	780.93
659.66	774.86
660.00	768.59
660.34	762.65
660.68	756.60
661.02	750.33
661.36	744.50
661.70	738.85
662.05	733.18
662.39	727.75
662.73	722.49
663.07	717.09
663.41	711.55
663.75	705.96
664.09	700.36
664.43	694.97
664.77	689.63
665.11	683.86
665.45	678.04
665.79	672.27
666.13	666.56
666.47	661.11
666.81	655.70
667.15	650.46
667.49	645.29
667.83	640.05
668.17	634.90
668.51	629.78
668.85	624.89
669.19	620.05
669.53	615.06
669.87	610.02
670.21	605.37
670.55	600.65
670.89	596.27
671.23	592.10
671.57	587.84
671.91	583.58
672.25	579.54
672.58	575.42
672.92	571.39
673.26	567.53
673.60	563.71
673.94	559.85
674.28	556.24
674.62	552.53
674.96	548.88
675.30	545.40
675.64	541.80
675.97	538.26
676.31	534.70
676.65	531.18
676.99	527.72
677.33	523.89
677.67	520.36
678.01	516.58
678.34	512.86
678.68	509.39
679.02	505.82
679.36	502.15
679.70	498.56
680.04	495.14
680.37	491.77
680.71	488.50
681.05	485.41
681.39	482.18
681.73	479.09
682.06	476.14
682.40	473.07
682.74	469.94
683.08	466.78
683.42	463.66
683.75	460.76
684.09	457.84
684.43	455.12
684.77	452.20
685.10	449.42
685.44	446.62
685.78	443.71
686.12	441.02
686.45	438.35
686.79	435.76
687.13	433.22
687.46	430.66
687.80	428.04
688.14	425.23
688.48	422.70
688.81	420.05
689.15	417.52
689.49	414.98
689.82	412.55
690.16	410.05
690.50	407.66
690.83	405.17
691.17	402.69
691.51	400.31
691.84	398.14
692.18	395.97
692.52	393.84
692.85	391.80
693.19	389.72
693.52	387.56
693.86	385.42
694.20	383.30
694.53	381.22
694.87	379.09
695.21	377.04
695.54	374.92
695.88	372.82
696.21	370.64
696.55	368.59
696.88	366.56
697.22	364.66
697.56	362.80
697.89	360.99
698.23	359.32
698.56	357.56
698.90	355.82
699.23	353.92
699.57	352.07
699.90	350.26
700.24	348.46
700.58	346.78
700.91	345.11
701.25	343.57
701.58	342.00
701.92	340.49
702.25	338.99
702.59	337.45
702.92	335.97
703.26	334.52
703.59	333.06
703.93	331.84
704.26	330.46
704.60	328.97
704.93	327.54
705.26	326.04
705.60	324.62
705.93	323.13
706.27	321.88
706.60	320.69
706.94	319.46
707.27	318.14
707.61	316.84
707.94	315.59
708.27	314.08
708.61	312.64
708.94	311.28
709.28	310.00
709.61	308.75
709.94	307.57
710.28	306.39
710.61	305.24
710.95	303.82
711.28	302.78
711.61	301.68
711.95	300.57
712.28	299.42
712.61	298.27
712.95	297.27
713.28	296.25
713.61	295.11
713.95	294.01
714.28	293.00
714.61	291.98
714.95	290.95
715.28	290.01
715.61	289.00
715.95	288.09
716.28	287.11
716.61	286.22
716.95	285.24
717.28	284.32
717.61	283.38
717.94	282.51
718.28	281.46
718.61	280.58
718.94	279.68
719.27	278.90
719.61	278.08
719.94	277.24
720.27	276.32
720.60	275.49
720.94	274.72
721.27	274.01
721.60	273.37
721.93	272.70
722.27	272.07
722.60	271.45
722.93	270.78
723.26	270.19
723.59	269.52
723.93	268.89
724.26	268.28
724.59	267.63
724.92	267.08
725.25	266.60
725.59	266.07
725.92	265.55
726.25	264.96
726.58	264.44
726.91	263.90
727.24	263.37
727.57	262.84
727.91	262.24
728.24	261.71
728.57	261.13
728.90	260.59
729.23	260.00
729.56	259.59
729.89	259.05
730.22	258.48
730.55	257.96
730.89	257.46
731.22	256.95
731.55	256.51
731.88	255.98
732.21	255.43
732.54	254.91
732.87	254.46
733.20	253.99
733.53	253.50
733.86	253.03
734.19	252.57
734.52	252.21
734.85	251.93
735.18	251.46
735.51	251.08
735.84	250.66
736.17	250.29
736.50	249.77
736.83	249.62
737.16	249.30
737.49	248.95
737.82	248.56
738.15	248.18
738.48	247.79
738.81	247.43
739.14	247.09
739.47	246.72
739.80	246.36
740.13	246.02
740.46	245.68
740.79	245.29
741.12	244.98
741.45	244.58
741.78	244.15
742.11	243.90
742.44	243.55
742.77	243.28
743.10	242.94
743.43	242.59
743.75	242.04
744.08	241.96
744.41	241.59
744.74	241.29
745.07	240.96
745.40	240.71
745.73	240.45
746.06	240.11
746.39	239.79
746.71	239.46
747.04	239.14
747.37	238.81
747.70	238.57
748.03	238.22
748.36	237.97
748.68	237.67
749.01	237.32
749.34	237.05
749.67	236.75
750.00	236.51
750.33	236.38
750.65	236.17
750.98	235.65
751.31	235.43
751.64	235.18
751.97	235.08
752.29	234.79
752.62	234.46
752.95	234.20
753.28	233.98
753.60	233.72
753.93	233.56
754.26	233.36
754.59	233.09
754.91	232.90
755.24	232.67
755.57	232.46
755.90	232.25
756.22	232.02
756.55	231.76
756.88	231.50
757.20	231.20
757.53	230.91
757.86	230.70
758.19	230.49
758.51	230.30
758.84	229.96
759.17	229.77
759.49	229.65
759.82	229.61
760.15	229.46
760.47	229.26
760.80	229.01
761.13	228.88
761.45	228.68
761.78	228.50
762.11	228.32
762.43	228.14
762.76	227.96
763.08	227.81
763.41	227.70
763.74	227.61
764.06	227.45
764.39	227.34
764.71	227.19
765.04	227.05
765.37	226.92
765.69	226.77
766.02	226.65
766.34	226.50
766.67	226.24
767.00	226.16
767.32	226.14
767.65	226.16
767.97	225.98
768.30	225.89
768.62	225.75
768.95	225.62
769.27	225.52
769.60	225.43
769.92	225.26
770.25	225.11
770.57	224.93
770.90	224.82
771.22	224.69
771.55	224.57
771.87	224.49
772.20	224.35
772.52	224.43
772.85	224.59
773.17	224.44
773.50	224.36
773.82	224.23
774.15	224.05
774.47	223.81
774.80	223.70
775.12	223.59
775.45	223.52
775.77	223.46
776.09	223.39
776.42	223.33
776.74	223.34
777.07	223.24
777.39	223.16
777.72	223.07
778.04	223.03
778.36	222.94
778.69	222.85
779.01	222.79
779.33	222.50
779.66	222.19
779.98	222.12
780.31	222.05
780.63	222.05
780.95	222.01
781.28	221.97
781.60	221.90
781.92	221.86
782.25	221.80
782.57	221.73
782.89	221.63
783.22	221.50
783.54	221.38
783.86	221.35
784.19	221.28
784.51	221.26
784.83	221.17
785.16	221.11
785.48	221.00
785.80	220.93
786.12	220.91
786.45	220.83
786.77	220.77
787.09	220.68
787.42	220.53
787.74	220.46
788.06	220.40
788.38	220.36
788.71	220.27
789.03	220.20
789.35	220.16
789.67	220.09
789.99	220.08
790.32	220.02
790.64	219.96
790.96	220.08
791.28	219.97
791.61	219.89
791.93	219.86
792.25	219.86
792.57	219.98
792.89	219.90
793.21	219.84
793.54	219.80
793.86	219.74
794.18	219.74
794.50	219.64
794.82	219.60
795.14	219.58
795.47	219.58
795.79	219.55
796.11	219.48
796.43	219.46
796.75	219.40
797.07	219.38
797.39	219.35
797.71	219.18
798.04	219.16
798.36	219.14
798.68	219.09
799.00	219.04
799.32	218.87
799.64	218.91
799.96	218.91
800.28	218.89
800.60	218.86
800.92	218.80
801.24	218.74
801.56	218.71
801.89	218.62
802.21	218.59
802.53	218.54
802.85	218.54
803.17	218.61
803.49	218.54
803.81	218.49
804.13	218.43
804.45	218.37
804.77	218.36
805.09	218.32
805.41	218.28
805.73	218.24
806.05	218.18
806.37	218.10
806.69	218.04
807.01	218.02
807.33	218.03
807.65	217.94
807.97	218.04
808.28	218.01
808.60	217.98
808.92	217.92
809.24	218.00
809.56	217.94
809.88	217.81
810.20	217.78
810.52	217.77
810.84	217.71
811.16	217.68
811.48	217.65
811.80	217.71
812.12	217.70
812.43	217.73
812.75	217.70
813.07	217.67
813.39	217.66
813.71	217.63
814.03	217.59
814.35	217.59
814.67	217.46
814.98	217.46
815.30	217.46
815.62	217.41
815.94	217.28
816.26	217.26
816.58	217.19
816.89	217.22
817.21	217.19
817.53	217.19
817.85	217.19
818.17	217.15
818.48	217.05
818.80	217.07
819.12	216.99
819.44	216.96
819.76	216.90
820.07	216.86
820.39	216.82
820.71	216.82
821.03	216.80
821.34	216.80
821.66	216.80
821.98	216.79
822.30	216.77
822.61	216.88
822.93	216.80
823.25	216.83
823.57	216.76
823.88	216.79
824.20	216.76
824.52	216.76
824.83	216.74
825.15	216.71
825.47	216.68
825.79	216.71
826.10	216.70
826.42	216.69
826.74	216.73
827.05	216.71
827.37	216.68
827.69	216.66
828.00	216.65
828.32	216.61
828.64	216.57
828.95	216.68
829.27	216.62
829.58	216.65
829.90	216.68
830.22	216.71
830.53	216.62
830.85	216.63
831.17	216.59
831.48	216.59
831.80	216.57
832.11	216.57
832.43	216.50
832.75	216.48
833.06	216.60
833.38	216.52
833.69	216.53
834.01	216.52
834.32	216.52
834.64	216.48
834.96	216.47
835.27	216.47
835.59	216.36
835.90	216.29
836.22	216.27
836.53	216.22
836.85	216.20
837.16	216.42
837.48	216.37
837.79	216.44
838.11	216.47
838.42	216.46
838.74	216.45
839.05	216.42
839.37	216.44
839.68	216.31
840.00	216.30
840.31	216.29
840.63	216.28
840.94	216.26
841.26	216.22
841.57	216.21
841.88	216.25
842.20	216.26
842.51	216.27
842.83	216.26
843.14	216.45
843.46	216.47
843.77	216.33
844.08	216.37
844.40	216.26
844.71	216.19
845.03	216.20
845.34	216.18
845.65	216.21
845.97	216.19
846.28	216.18
846.60	216.18
846.91	216.16
847.22	216.15
847.54	216.20
847.85	216.22
848.16	216.23
848.48	216.17
848.79	216.19
849.10	216.18
849.42	216.18
849.73	215.99
850.04	215.95
850.36	215.86
850.67	215.89
850.98	215.92
851.30	215.95
851.61	215.95
851.92	215.95
852.23	215.99
852.55	216.00
852.86	216.00
853.17	216.01
853.49	216.09
853.80	216.12
854.11	216.14
854.42	216.19
854.74	216.13
855.05	216.14
855.36	216.10
855.67	216.08
855.99	216.06
856.30	216.25
856.61	216.21
856.92	216.24
857.23	216.21
857.55	216.16
857.86	216.13
858.17	216.13
858.48	216.08
858.79	216.04
859.11	216.07
859.42	216.07
859.73	216.02
860.04	215.98
860.35	215.92
860.66	215.83
860.98	215.77
861.29	215.82
861.60	215.83
861.91	215.84
862.22	215.81
862.53	215.81
862.84	215.57
863.16	215.65
863.47	215.61
863.78	215.59
864.09	215.63
864.40	215.65
864.71	215.64
865.02	215.67
865.33	215.66
865.64	215.59
865.95	215.57
866.27	215.74
866.58	215.68
866.89	215.71
867.20	215.69
867.51	215.69
867.82	215.66
868.13	215.72
868.44	215.67
868.75	215.72
869.06	215.74
869.37	215.82
869.68	215.74
869.99	215.77
870.30	215.78
870.61	215.75
870.92	215.76
871.23	215.75
871.54	215.75
871.85	215.77
872.16	215.79
872.47	215.78
872.78	215.66
873.09	215.70
873.40	215.67
873.71	215.72
874.02	215.71
874.33	215.73
874.64	215.68
874.95	215.70
875.26	215.69
875.56	215.67
875.87	215.63
876.18	215.63
876.49	215.84
876.80	215.80
877.11	215.78
877.42	215.77
877.73	215.78
878.04	215.75
878.35	215.75
878.66	215.74
878.96	215.71
879.27	215.68
879.58	215.66
879.89	215.65
880.20	215.69
880.51	215.68
880.82	215.61
881.12	215.61
881.43	215.55
881.74	215.51
882.05	215.48
882.36	215.47
882.67	215.51
882.97	215.29
883.28	215.31
883.59	215.31
883.90	215.31
884.21	215.34
884.51	215.33
884.82	215.30
885.13	215.34
885.44	215.35
885.74	215.36
886.05	215.38
886.36	215.37
886.67	215.27
886.98	215.38
887.28	215.42
887.59	215.41
887.90	215.43
888.20	215.43
888.51	215.46
888.82	215.45
889.13	215.45
889.43	215.59
889.74	215.55
890.05	215.54
890.35	215.52
890.66	215.49
890.97	215.49
891.28	215.49
891.58	215.46
891.89	215.47
892.20	215.47
892.50	215.43
892.81	215.42
893.12	215.45
893.42	215.36
893.73	215.36
894.04	215.41
894.34	215.43
894.65	215.42
894.95	215.35
895.26	215.36
895.57	215.44
895.87	215.25
896.18	215.28
896.48	215.30
896.79	215.30
897.10	215.31
897.40	215.32
897.71	215.33
898.01	215.33
898.32	215.36
898.63	215.34
898.93	215.35
899.24	215.38
899.54	215.37
899.85	215.34
900.15	215.36
900.46	215.32
900.76	215.36
901.07	215.35
901.38	215.42
901.68	215.45
901.99	215.35
902.29	215.36
902.60	215.34
902.90	215.31
903.21	215.29
903.51	215.27
903.82	215.31
904.12	215.29
904.43	215.29
904.73	215.27
905.03	215.28
905.34	215.50
905.64	215.46
905.95	215.45
906.25	215.47
906.56	215.46
906.86	215.43
907.17	215.38
907.47	215.43
907.77	215.38
908.08	215.33
908.38	215.36
908.69	215.37
908.99	215.42
909.30	215.47
909.60	215.51
909.90	215.51
910.21	215.45
910.51	215.45
910.81	215.47
911.12	215.47
911.42	215.50
911.73	215.27
912.03	215.27
912.33	215.31
912.64	215.30
912.94	215.27
913.24	215.26
913.55	215.26
913.85	215.21
914.15	215.28
914.46	215.30
914.76	215.26
915.06	215.26
915.37	215.20
915.67	215.17
915.97	215.16
916.27	215.14
916.58	215.16
916.88	215.16
917.18	215.12
917.49	215.28
917.79	215.24
918.09	215.28
918.39	215.34
918.70	215.35
919.00	215.32
919.30	215.42
919.60	215.41
919.91	215.38
920.21	215.37
920.51	215.30
920.81	215.32
921.12	215.35
921.42	215.35
921.72	215.34
922.02	215.36
922.32	215.38
922.63	215.39
922.93	215.49
923.23	215.49
923.53	215.48
923.83	215.33
924.13	215.37
924.44	215.36
924.74	215.41
925.04	215.45
925.34	215.48
925.64	215.39
925.94	215.38
926.24	215.52
926.55	215.54
926.85	215.56
927.15	215.53
927.45	215.51
927.75	215.49
928.05	215.54
928.35	215.50
928.65	215.52
928.95	215.54
929.26	215.45
929.56	215.50
929.86	215.55
930.16	215.51
930.46	215.49
930.76	215.49
931.06	215.37
931.36	215.31
931.66	215.33
931.96	215.36
932.26	215.39
932.56	215.28
932.86	215.32
933.16	215.33
933.46	215.32
933.76	215.28
934.06	215.36
934.36	215.42
934.66	215.43
934.96	215.42
935.26	215.41
935.56	215.42
935.86	215.36
936.16	215.33
936.46	215.30
936.76	215.30
937.06	215.27
937.36	215.28
937.66	215.29
937.96	215.28
938.26	215.25
938.56	215.22
938.86	215.23
939.16	215.24
939.46	215.25
939.76	215.28
940.06	215.29
940.35	215.22
940.65	215.10
940.95	215.10
941.25	215.05
941.55	215.00
941.85	214.98
942.15	215.00
942.45	215.04
942.75	215.06
943.04	215.08
943.34	215.10
943.64	215.07
943.94	215.03
944.24	215.03
944.54	215.03
944.84	215.04
945.13	214.99
945.43	214.92
945.73	214.88
946.03	214.84
946.33	214.83
946.62	214.82
946.92	214.81
947.22	214.84
947.52	214.85
947.82	214.92
948.11	214.92
948.41	214.89
948.71	214.85
949.01	214.86
949.31	214.79
949.60	214.80
949.90	214.85
950.20	214.84
950.50	214.81
950.79	214.81
951.09	214.81
951.39	214.83
951.69	214.85
951.98	214.89
952.28	214.92
952.58	214.92
952.87	214.94
953.17	214.97
953.47	214.95
953.76	214.92
954.06	214.89
954.36	214.86
954.66	214.87
954.95	214.91
955.25	214.95
955.55	215.01
955.84	214.98
956.14	215.00
956.44	214.97
956.73	214.95
957.03	214.96
957.32	214.94
957.62	214.92
957.92	214.92
958.21	214.90
958.51	215.10
958.81	215.14
959.10	215.17
959.40	215.22
959.69	215.22
959.99	215.27
960.29	215.23
960.58	215.22
960.88	215.29
961.17	215.27
961.47	215.25
961.76	215.20
962.06	215.24
962.36	215.20
962.65	215.24
962.95	215.27
963.24	215.24
963.54	215.27
963.83	215.32
964.13	215.31
964.42	215.24
964.72	215.06
965.01	215.05
965.31	215.03
965.60	214.96
965.90	215.10
966.19	215.03
966.49	215.05
966.78	215.06
967.08	215.05
967.37	215.02
967.67	214.97
967.96	215.04
968.26	215.03
968.55	215.08
968.85	215.10
969.14	215.10
969.43	215.11
969.73	215.10
970.02	215.07
970.32	215.06
970.61	215.10
970.91	215.04
971.20	215.00
971.49	215.02
971.79	215.11
972.08	214.94
972.38	214.97
972.67	214.95
972.96	214.98
973.26	214.93
973.55	214.99
973.85	214.98
974.14	214.94
974.43	214.96
974.73	214.90
975.02	214.86
975.31	214.85
975.61	214.87
975.90	214.85
976.19	214.86
976.49	214.86
976.78	214.88
977.07	214.90
977.37	214.91
977.66	214.90
977.95	214.82
978.24	214.84
978.54	214.88
978.83	214.87
979.12	214.88
979.42	214.90
979.71	214.87
980.00	214.88
980.29	214.89
980.59	214.83
980.88	214.90
981.17	214.91
981.46	214.92
981.76	214.93
982.05	214.98
982.34	215.00
982.63	214.99
982.93	215.03
983.22	215.08
983.51	215.15
983.80	215.19
984.09	215.20
984.39	215.18
984.68	215.20
984.97	215.21
985.26	215.19
985.55	215.22
985.85	215.17
986.14	215.21
986.43	215.21
986.72	215.20
987.01	215.11
987.30	215.12
987.59	215.09
987.89	215.07
988.18	215.03
988.47	215.00
988.76	215.05
989.05	214.99
989.34	214.93
989.63	214.91
989.92	214.85
990.22	214.81
990.51	214.79
990.80	214.76
991.09	214.81
991.38	214.82
991.67	214.83
991.96	214.83
992.25	214.85
992.54	214.82
992.83	214.83
993.12	214.86
993.41	214.89
993.70	214.99
993.99	215.02
994.28	215.06
994.58	215.10
994.87	215.05
995.16	215.05
995.45	215.05
995.74	214.99
996.03	215.03
996.32	215.09
996.61	215.15
996.90	215.16
997.19	215.11
997.48	215.11
997.77	215.05
998.06	215.06
998.34	215.02
998.63	215.03
998.92	215.04
999.21	215.08
999.50	215.06
999.79	214.99
1000.08	214.98
1000.37	214.96
1000.66	214.92
1000.95	214.96
1001.24	214.94
1001.53	214.98
1001.82	214.99
1002.11	214.94
1002.40	214.95
1002.68	214.99
1002.97	215.13
1003.26	215.08
1003.55	215.06
1003.84	215.06
1004.13	215.14
1004.42	215.11
1004.71	215.07
1004.99	215.09
1005.28	215.12
1005.57	215.11
1005.86	215.07
1006.15	215.06
1006.44	215.05
1006.72	215.10
1007.01	215.08
1007.30	215.12
1007.59	215.09
1007.88	215.09
1008.17	215.14
1008.45	215.09
1008.74	215.00
1009.03	214.88
1009.32	214.93
1009.60	214.92
1009.89	214.90
1010.18	214.81
1010.47	214.80
1010.76	214.84
1011.04	214.80
1011.33	214.83
1011.62	214.82
1011.91	214.84
1012.19	214.84
1012.48	214.81
1012.77	214.76
1013.05	214.88
1013.34	214.86
1013.63	214.85
1013.92	214.91
1014.20	214.90
1014.49	214.93
1014.78	214.96
1015.06	214.94
1015.35	214.90
1015.64	214.94
1015.92	214.99
1016.21	214.97
1016.50	215.03
1016.78	215.05
1017.07	215.07
1017.36	214.99
1017.64	214.95
1017.93	214.98
1018.22	214.94
1018.50	214.98
1018.79	214.99
1019.08	214.83
1019.36	214.89
1019.65	214.86
1019.93	214.87
1020.22	214.87
1020.51	214.97
1020.79	214.93
1021.08	214.31
1021.36	214.83
1021.65	214.66
1021.94	214.34
1022.22	215.57
1022.51	214.37
1022.79	215.74
1023.08	214.94
1023.36	217.68
1023.65	214.26
>>>>>End Processed Spectral Data<<<<<
