SpectraSuite Data File
++++++++++++++++++++++++++++++++++++
Date: Tue Jan 29 16:23:20 EST 2013
User: group
Dark Spectrum Present: No
Reference Spectrum Present: No
Number of Sampled Component Spectra: 1
Spectrometers: USB2E7196
Integration Time (usec): 65000 (USB2E7196)
Spectra Averaged: 100 (USB2E7196)
Boxcar Smoothing: 10 (USB2E7196)
Correct for Electrical Dark: No (USB2E7196)
Strobe/Lamp Enabled: No (USB2E7196)
Correct for Detector Non-linearity: No (USB2E7196)
Correct for Stray Light: No (USB2E7196)
Number of Pixels in Processed Spectrum: 2048
>>>>>Begin Processed Spectral Data<<<<<
339.09	0.00
339.48	202.19
339.86	203.86
340.24	204.74
340.63	206.19
341.01	211.17
341.39	209.40
341.78	210.36
342.16	212.35
342.54	212.66
342.93	201.43
343.31	211.61
343.69	212.16
344.07	212.63
344.46	213.10
344.84	213.51
345.22	213.66
345.60	213.92
345.99	214.14
346.37	214.25
346.75	214.34
347.13	214.41
347.52	214.50
347.90	214.61
348.28	214.68
348.66	214.74
349.05	214.72
349.43	214.80
349.81	214.85
350.19	214.91
350.57	215.00
350.96	215.08
351.34	215.17
351.72	215.27
352.10	215.35
352.48	215.41
352.87	215.46
353.25	215.53
353.63	215.59
354.01	215.64
354.39	215.73
354.77	215.81
355.15	215.96
355.54	215.97
355.92	215.97
356.30	216.02
356.68	216.20
357.06	216.26
357.44	216.25
357.82	216.36
358.20	216.41
358.58	216.45
358.97	216.53
359.35	216.66
359.73	216.72
360.11	216.79
360.49	216.85
360.87	216.92
361.25	217.01
361.63	217.13
362.01	217.17
362.39	217.19
362.77	217.26
363.15	217.26
363.53	217.32
363.91	217.34
364.29	217.40
364.67	217.24
365.05	217.30
365.43	217.34
365.81	217.38
366.19	217.51
366.57	217.63
366.95	217.60
367.33	217.54
367.71	217.56
368.09	217.59
368.47	217.61
368.85	217.60
369.23	217.65
369.61	217.53
369.99	217.60
370.37	217.64
370.75	217.70
371.13	217.66
371.51	217.62
371.89	217.65
372.27	217.65
372.65	217.64
373.03	217.64
373.41	217.61
373.78	217.58
374.16	217.45
374.54	217.32
374.92	217.28
375.30	217.28
375.68	217.18
376.06	217.15
376.44	217.10
376.82	217.06
377.19	216.98
377.57	216.94
377.95	216.82
378.33	216.74
378.71	216.61
379.09	216.62
379.47	216.59
379.84	216.50
380.22	216.42
380.60	216.36
380.98	216.29
381.36	216.25
381.73	216.19
382.11	216.16
382.49	216.14
382.87	216.12
383.25	216.06
383.62	216.26
384.00	216.19
384.38	216.15
384.76	216.15
385.13	216.19
385.51	216.19
385.89	216.16
386.27	216.12
386.64	216.08
387.02	216.00
387.40	215.97
387.78	215.97
388.15	215.97
388.53	215.93
388.91	215.88
389.29	215.85
389.66	215.83
390.04	215.81
390.42	215.80
390.79	215.79
391.17	215.75
391.55	215.51
391.92	215.49
392.30	215.54
392.68	215.47
393.05	215.43
393.43	215.45
393.81	215.43
394.18	215.42
394.56	215.46
394.94	215.49
395.31	215.46
395.69	215.52
396.06	215.54
396.44	215.59
396.82	215.61
397.19	215.73
397.57	215.75
397.95	215.82
398.32	215.81
398.70	215.83
399.07	215.93
399.45	215.96
399.82	216.03
400.20	216.02
400.58	216.07
400.95	216.04
401.33	216.12
401.70	216.35
402.08	216.43
402.45	216.53
402.83	216.67
403.20	216.78
403.58	216.85
403.95	217.00
404.33	217.15
404.71	217.29
405.08	217.54
405.46	217.71
405.83	217.87
406.21	218.08
406.58	218.34
406.96	218.55
407.33	218.84
407.70	219.13
408.08	219.60
408.45	219.97
408.83	220.37
409.20	220.68
409.58	220.95
409.95	221.41
410.33	221.88
410.70	222.31
411.08	222.88
411.45	223.46
411.82	224.03
412.20	224.69
412.57	225.53
412.95	226.07
413.32	226.88
413.69	227.73
414.07	228.62
414.44	229.56
414.82	230.59
415.19	231.71
415.56	232.87
415.94	234.04
416.31	235.45
416.68	236.85
417.06	238.47
417.43	239.98
417.81	241.71
418.18	243.47
418.55	245.38
418.93	247.36
419.30	249.45
419.67	251.68
420.04	253.94
420.42	256.27
420.79	259.10
421.16	261.90
421.54	264.75
421.91	267.73
422.28	270.79
422.66	274.01
423.03	277.24
423.40	280.58
423.77	284.19
424.15	287.82
424.52	291.63
424.89	295.77
425.26	299.82
425.64	303.70
426.01	307.91
426.38	312.35
426.75	316.90
427.13	321.61
427.50	326.53
427.87	331.70
428.24	336.90
428.61	341.84
428.99	347.30
429.36	353.26
429.73	359.13
430.10	364.95
430.47	371.00
430.85	377.30
431.22	383.94
431.59	390.98
431.96	397.78
432.33	405.24
432.70	412.41
433.08	420.84
433.45	428.84
433.82	436.88
434.19	445.74
434.56	454.43
434.93	462.70
435.30	470.94
435.68	479.99
436.05	488.87
436.42	497.71
436.79	505.84
437.16	514.56
437.53	523.77
437.90	532.87
438.27	541.81
438.64	551.03
439.01	559.52
439.38	567.05
439.75	574.28
440.13	582.54
440.50	590.48
440.87	596.85
441.24	603.42
441.61	610.59
441.98	615.88
442.35	622.11
442.72	628.40
443.09	634.42
443.46	638.14
443.83	640.64
444.20	642.84
444.57	645.96
444.94	647.38
445.31	648.80
445.68	650.20
446.05	650.81
446.42	649.95
446.79	648.97
447.16	647.87
447.53	647.10
447.90	643.80
448.27	640.55
448.64	635.95
449.01	632.63
449.37	626.82
449.74	621.18
450.11	614.28
450.48	606.90
450.85	599.42
451.22	592.99
451.59	586.92
451.96	581.11
452.33	573.27
452.70	566.24
453.07	557.75
453.43	549.19
453.80	540.94
454.17	533.04
454.54	525.54
454.91	517.41
455.28	509.47
455.65	502.17
456.02	494.70
456.38	488.45
456.75	480.70
457.12	474.18
457.49	467.78
457.86	461.62
458.23	456.29
458.59	450.42
458.96	444.49
459.33	439.22
459.70	433.92
460.07	429.64
460.43	424.79
460.80	420.27
461.17	416.26
461.54	412.05
461.91	408.02
462.27	403.95
462.64	400.56
463.01	396.83
463.38	393.17
463.74	389.48
464.11	386.22
464.48	383.34
464.85	380.29
465.21	377.88
465.58	375.31
465.95	372.24
466.32	369.65
466.68	367.07
467.05	364.52
467.42	361.99
467.78	359.33
468.15	356.82
468.52	354.92
468.88	352.50
469.25	350.31
469.62	348.57
469.98	346.63
470.35	344.86
470.72	343.17
471.08	341.36
471.45	339.87
471.82	338.43
472.18	336.81
472.55	335.59
472.92	334.17
473.28	332.96
473.65	331.75
474.02	330.66
474.38	329.78
474.75	329.02
475.11	328.22
475.48	327.65
475.85	327.18
476.21	326.70
476.58	326.33
476.94	326.08
477.31	325.79
477.67	325.60
478.04	325.43
478.41	325.40
478.77	325.62
479.14	325.56
479.50	325.67
479.87	325.99
480.23	326.31
480.60	326.54
480.96	326.83
481.33	327.45
481.69	328.04
482.06	328.53
482.42	329.01
482.79	329.58
483.15	330.38
483.52	331.34
483.88	332.28
484.25	333.30
484.61	334.36
484.98	335.45
485.34	336.72
485.71	338.12
486.07	339.57
486.44	340.89
486.80	342.52
487.17	344.24
487.53	346.04
487.90	347.93
488.26	349.99
488.62	352.13
488.99	354.20
489.35	356.38
489.72	358.80
490.08	361.36
490.44	363.95
490.81	366.72
491.17	369.46
491.54	372.42
491.90	375.41
492.26	378.65
492.63	381.99
492.99	385.50
493.36	389.18
493.72	393.09
494.08	397.12
494.45	401.39
494.81	405.71
495.17	410.20
495.54	414.96
495.90	419.79
496.26	424.79
496.63	430.06
496.99	435.47
497.35	441.04
497.72	446.88
498.08	452.84
498.44	458.94
498.80	465.38
499.17	471.86
499.53	478.59
499.89	485.55
500.26	492.65
500.62	499.75
500.98	507.19
501.34	514.69
501.71	522.52
502.07	530.36
502.43	538.43
502.79	546.58
503.16	555.04
503.52	563.67
503.88	572.51
504.24	581.50
504.60	590.67
504.97	599.96
505.33	609.35
505.69	619.35
506.05	629.23
506.41	639.17
506.78	649.35
507.14	659.72
507.50	670.20
507.86	680.94
508.22	691.81
508.59	702.60
508.95	713.80
509.31	725.12
509.67	736.63
510.03	748.13
510.39	760.04
510.75	771.95
511.12	783.98
511.48	796.09
511.84	808.40
512.20	820.82
512.56	833.63
512.92	846.53
513.28	859.28
513.64	872.24
514.00	885.14
514.37	898.32
514.73	911.54
515.09	924.73
515.45	937.68
515.81	950.89
516.17	964.34
516.53	977.66
516.89	990.84
517.25	1004.24
517.61	1017.89
517.97	1031.28
518.33	1044.42
518.69	1058.00
519.05	1071.85
519.41	1085.70
519.77	1099.64
520.13	1112.96
520.49	1126.24
520.85	1139.76
521.21	1153.19
521.57	1166.99
521.93	1180.09
522.29	1193.95
522.65	1207.72
523.01	1221.45
523.37	1234.81
523.73	1248.19
524.09	1261.41
524.45	1274.91
524.81	1288.47
525.17	1301.97
525.53	1315.34
525.89	1328.86
526.25	1342.15
526.61	1355.06
526.97	1368.16
527.33	1381.21
527.68	1394.84
528.04	1408.37
528.40	1421.53
528.76	1434.89
529.12	1447.82
529.48	1461.12
529.84	1473.37
530.20	1486.08
530.56	1498.81
530.91	1512.18
531.27	1525.19
531.63	1538.00
531.99	1550.97
532.35	1563.19
532.71	1575.64
533.07	1588.56
533.42	1600.97
533.78	1613.24
534.14	1625.36
534.50	1636.64
534.86	1648.33
535.21	1659.23
535.57	1670.90
535.93	1682.29
536.29	1693.59
536.65	1705.10
537.00	1716.28
537.36	1727.91
537.72	1739.08
538.08	1750.66
538.44	1761.62
538.79	1772.77
539.15	1783.76
539.51	1794.50
539.87	1805.94
540.22	1816.82
540.58	1827.89
540.94	1838.83
541.29	1849.11
541.65	1859.04
542.01	1869.63
542.37	1879.81
542.72	1890.02
543.08	1899.78
543.44	1910.36
543.79	1919.55
544.15	1929.06
544.51	1939.08
544.87	1948.91
545.22	1958.15
545.58	1967.07
545.94	1976.01
546.29	1984.52
546.65	1992.98
547.01	2001.31
547.36	2008.92
547.72	2016.72
548.07	2024.20
548.43	2031.95
548.79	2039.94
549.14	2048.05
549.50	2056.57
549.86	2064.55
550.21	2072.13
550.57	2079.88
550.92	2086.57
551.28	2094.09
551.64	2101.42
551.99	2108.92
552.35	2116.03
552.70	2122.90
553.06	2129.38
553.41	2135.60
553.77	2142.15
554.13	2148.64
554.48	2155.69
554.84	2162.99
555.19	2169.52
555.55	2176.11
555.90	2182.42
556.26	2189.37
556.61	2195.48
556.97	2200.30
557.32	2206.03
557.68	2212.44
558.03	2218.13
558.39	2223.41
558.74	2229.43
559.10	2235.03
559.45	2240.56
559.81	2246.18
560.16	2251.70
560.52	2257.71
560.87	2264.23
561.23	2270.19
561.58	2276.79
561.94	2282.03
562.29	2286.72
562.64	2292.85
563.00	2298.59
563.35	2304.37
563.71	2309.99
564.06	2315.85
564.42	2322.03
564.77	2327.11
565.12	2332.54
565.48	2337.91
565.83	2343.66
566.19	2349.34
566.54	2354.78
566.89	2359.55
567.25	2364.24
567.60	2370.15
567.96	2375.38
568.31	2379.89
568.66	2384.25
569.02	2388.29
569.37	2392.06
569.72	2396.63
570.08	2400.37
570.43	2403.51
570.78	2406.55
571.14	2409.16
571.49	2412.46
571.84	2416.01
572.20	2419.11
572.55	2422.00
572.90	2424.30
573.26	2427.21
573.61	2429.80
573.96	2432.11
574.31	2434.24
574.67	2436.13
575.02	2436.88
575.37	2438.41
575.72	2439.37
576.08	2440.98
576.43	2441.16
576.78	2441.71
577.13	2443.34
577.49	2444.44
577.84	2445.57
578.19	2447.01
578.54	2447.71
578.90	2448.37
579.25	2448.32
579.60	2448.36
579.95	2447.77
580.30	2447.87
580.66	2447.19
581.01	2445.41
581.36	2443.12
581.71	2441.90
582.06	2440.88
582.42	2440.17
582.77	2437.95
583.12	2436.25
583.47	2434.92
583.82	2434.44
584.17	2433.30
584.53	2431.08
584.88	2429.22
585.23	2427.51
585.58	2425.18
585.93	2423.20
586.28	2421.08
586.63	2418.67
586.98	2416.32
587.34	2414.43
587.69	2411.98
588.04	2410.03
588.39	2408.72
588.74	2406.22
589.09	2403.46
589.44	2400.20
589.79	2397.67
590.14	2395.88
590.49	2393.16
590.84	2389.24
591.19	2386.16
591.54	2383.06
591.89	2379.12
592.25	2375.84
592.60	2371.53
592.95	2367.49
593.30	2363.37
593.65	2359.04
594.00	2354.61
594.35	2351.83
594.70	2347.12
595.05	2342.72
595.40	2337.24
595.75	2331.45
596.10	2327.87
596.45	2322.94
596.80	2318.52
597.15	2313.31
597.50	2307.30
597.85	2302.40
598.19	2297.21
598.54	2291.34
598.89	2286.08
599.24	2281.52
599.59	2275.37
599.94	2269.53
600.29	2263.59
600.64	2257.54
600.99	2250.60
601.34	2245.05
601.69	2238.00
602.04	2231.64
602.39	2224.86
602.74	2218.67
603.08	2213.21
603.43	2206.55
603.78	2199.72
604.13	2192.73
604.48	2185.51
604.83	2179.42
605.18	2173.24
605.53	2166.40
605.87	2159.39
606.22	2152.47
606.57	2144.54
606.92	2136.49
607.27	2129.57
607.62	2122.84
607.96	2115.89
608.31	2109.47
608.66	2101.59
609.01	2093.92
609.36	2086.67
609.70	2078.93
610.05	2071.15
610.40	2062.73
610.75	2054.40
611.10	2046.54
611.44	2037.40
611.79	2028.59
612.14	2018.57
612.49	2007.60
612.83	1998.19
613.18	1988.76
613.53	1979.42
613.88	1969.76
614.22	1960.98
614.57	1951.03
614.92	1940.42
615.27	1930.06
615.61	1919.81
615.96	1910.20
616.31	1900.47
616.65	1891.03
617.00	1881.12
617.35	1871.36
617.70	1861.46
618.04	1851.44
618.39	1841.23
618.74	1831.64
619.08	1821.91
619.43	1812.98
619.78	1804.81
620.12	1796.02
620.47	1786.41
620.82	1775.85
621.16	1765.92
621.51	1756.02
621.85	1745.99
622.20	1735.33
622.55	1724.75
622.89	1714.63
623.24	1704.81
623.59	1694.88
623.93	1684.57
624.28	1674.80
624.62	1664.65
624.97	1654.22
625.32	1644.33
625.66	1635.28
626.01	1626.27
626.35	1616.86
626.70	1606.82
627.04	1596.52
627.39	1586.24
627.73	1576.87
628.08	1567.99
628.43	1558.30
628.77	1548.93
629.12	1540.01
629.46	1532.24
629.81	1523.73
630.15	1514.23
630.50	1504.27
630.84	1493.53
631.19	1483.53
631.53	1474.23
631.88	1463.81
632.22	1453.80
632.57	1444.28
632.91	1434.04
633.26	1424.11
633.60	1414.30
633.95	1404.83
634.29	1395.35
634.64	1385.92
634.98	1375.79
635.32	1366.37
635.67	1357.87
636.01	1348.53
636.36	1338.73
636.70	1329.11
637.05	1319.63
637.39	1310.62
637.73	1301.90
638.08	1294.40
638.42	1286.15
638.77	1277.16
639.11	1268.92
639.45	1261.05
639.80	1252.32
640.14	1243.54
640.49	1234.64
640.83	1225.75
641.17	1217.47
641.52	1209.14
641.86	1200.50
642.20	1192.60
642.55	1183.80
642.89	1174.83
643.23	1166.00
643.58	1157.73
643.92	1148.50
644.26	1139.69
644.61	1131.12
644.95	1122.19
645.29	1112.84
645.64	1103.56
645.98	1094.93
646.32	1086.90
646.66	1078.26
647.01	1069.85
647.35	1061.62
647.69	1053.18
648.04	1044.78
648.38	1035.76
648.72	1026.87
649.06	1018.37
649.41	1009.92
649.75	1001.86
650.09	993.85
650.43	985.76
650.78	977.27
651.12	969.46
651.46	962.00
651.80	954.66
652.14	947.28
652.49	939.66
652.83	932.20
653.17	924.38
653.51	916.64
653.85	909.22
654.20	901.90
654.54	894.35
654.88	886.93
655.22	879.67
655.56	872.64
655.90	865.75
656.25	858.93
656.59	852.01
656.93	844.85
657.27	837.59
657.61	830.50
657.95	824.32
658.29	818.29
658.64	812.06
658.98	805.48
659.32	798.83
659.66	792.47
660.00	786.06
660.34	780.01
660.68	773.81
661.02	767.38
661.36	761.33
661.70	755.46
662.05	749.80
662.39	744.21
662.73	738.70
663.07	733.24
663.41	727.49
663.75	721.80
664.09	716.12
664.43	710.66
664.77	705.18
665.11	699.38
665.45	693.38
665.79	687.41
666.13	681.66
666.47	676.07
666.81	670.57
667.15	665.11
667.49	659.78
667.83	654.45
668.17	649.14
668.51	643.98
668.85	638.96
669.19	633.95
669.53	628.89
669.87	623.71
670.21	618.92
670.55	614.21
670.89	609.60
671.23	605.20
671.57	600.76
671.91	596.40
672.25	592.09
672.58	587.96
672.92	583.87
673.26	579.84
673.60	575.98
673.94	572.13
674.28	568.48
674.62	564.71
674.96	560.94
675.30	557.45
675.64	553.75
675.97	550.11
676.31	546.45
676.65	542.79
676.99	539.33
677.33	535.39
677.67	531.71
678.01	527.82
678.34	524.18
678.68	520.56
679.02	517.00
679.36	513.27
679.70	509.58
680.04	505.99
680.37	502.50
680.71	499.13
681.05	495.84
681.39	492.48
681.73	489.23
682.06	486.17
682.40	483.02
682.74	479.80
683.08	476.54
683.42	473.33
683.75	470.28
684.09	467.18
684.43	464.42
684.77	461.42
685.10	458.55
685.44	455.56
685.78	452.67
686.12	449.83
686.45	447.10
686.79	444.39
687.13	441.83
687.46	439.21
687.80	436.47
688.14	433.58
688.48	430.97
688.81	428.30
689.15	425.70
689.49	423.05
689.82	420.44
690.16	417.86
690.50	415.39
690.83	412.85
691.17	410.29
691.51	407.75
691.84	405.45
692.18	403.20
692.52	400.96
692.85	398.79
693.19	396.60
693.52	394.45
693.86	392.21
694.20	390.00
694.53	387.80
694.87	385.61
695.21	383.51
695.54	381.35
695.88	379.16
696.21	376.92
696.55	374.77
696.88	372.70
697.22	370.67
697.56	368.75
697.89	366.86
698.23	365.08
698.56	363.30
698.90	361.55
699.23	359.63
699.57	357.74
699.90	355.79
700.24	354.03
700.58	352.25
700.91	350.56
701.25	348.95
701.58	347.33
701.92	345.70
702.25	344.06
702.59	342.34
702.92	340.77
703.26	339.21
703.59	337.74
703.93	336.41
704.26	334.96
704.60	333.43
704.93	331.91
705.26	330.38
705.60	328.88
705.93	327.36
706.27	326.05
706.60	324.79
706.94	323.56
707.27	322.13
707.61	320.72
707.94	319.39
708.27	317.90
708.61	316.47
708.94	315.09
709.28	313.79
709.61	312.57
709.94	311.36
710.28	310.09
710.61	308.89
710.95	307.51
711.28	306.45
711.61	305.24
711.95	304.09
712.28	302.91
712.61	301.70
712.95	300.59
713.28	299.49
713.61	298.33
713.95	297.18
714.28	296.13
714.61	295.09
714.95	294.03
715.28	292.96
715.61	291.93
715.95	290.95
716.28	289.99
716.61	289.05
716.95	288.05
717.28	287.11
717.61	286.11
717.94	285.19
718.28	284.12
718.61	283.26
718.94	282.38
719.27	281.54
719.61	280.74
719.94	279.86
720.27	278.93
720.60	278.06
720.94	277.23
721.27	276.48
721.60	275.79
721.93	275.03
722.27	274.40
722.60	273.73
722.93	273.03
723.26	272.35
723.59	271.59
723.93	270.97
724.26	270.32
724.59	269.64
724.92	269.04
725.25	268.47
725.59	267.85
725.92	267.33
726.25	266.76
726.58	266.14
726.91	265.57
727.24	265.01
727.57	264.44
727.91	263.84
728.24	263.29
728.57	262.66
728.90	262.12
729.23	261.48
729.56	261.00
729.89	260.44
730.22	259.86
730.55	259.32
730.89	258.78
731.22	258.22
731.55	257.74
731.88	257.18
732.21	256.64
732.54	256.12
732.87	255.57
733.20	255.06
733.53	254.59
733.86	254.14
734.19	253.65
734.52	253.23
734.85	252.95
735.18	252.44
735.51	252.07
735.84	251.64
736.17	251.30
736.50	250.79
736.83	250.63
737.16	250.21
737.49	249.83
737.82	249.41
738.15	249.05
738.48	248.64
738.81	248.25
739.14	247.81
739.47	247.41
739.80	247.06
740.13	246.70
740.46	246.29
740.79	245.88
741.12	245.53
741.45	245.16
741.78	244.71
742.11	244.45
742.44	244.07
742.77	243.79
743.10	243.39
743.43	243.07
743.75	242.53
744.08	242.49
744.41	242.13
744.74	241.77
745.07	241.42
745.40	241.15
745.73	240.88
746.06	240.60
746.39	240.32
746.71	239.95
747.04	239.62
747.37	239.32
747.70	239.04
748.03	238.71
748.36	238.42
748.68	238.08
749.01	237.71
749.34	237.43
749.67	237.11
750.00	236.83
750.33	236.67
750.65	236.37
750.98	235.84
751.31	235.60
751.64	235.40
751.97	235.23
752.29	234.95
752.62	234.65
752.95	234.37
753.28	234.08
753.60	233.84
753.93	233.66
754.26	233.44
754.59	233.22
754.91	233.00
755.24	232.77
755.57	232.53
755.90	232.35
756.22	232.11
756.55	231.84
756.88	231.58
757.20	231.25
757.53	231.03
757.86	230.79
758.19	230.62
758.51	230.38
758.84	230.10
759.17	229.91
759.49	229.77
759.82	229.74
760.15	229.59
760.47	229.42
760.80	229.14
761.13	228.97
761.45	228.74
761.78	228.56
762.11	228.36
762.43	228.16
762.76	227.98
763.08	227.82
763.41	227.72
763.74	227.57
764.06	227.39
764.39	227.20
764.71	227.06
765.04	226.86
765.37	226.70
765.69	226.54
766.02	226.36
766.34	226.17
766.67	225.92
767.00	225.82
767.32	225.77
767.65	225.77
767.97	225.63
768.30	225.48
768.62	225.34
768.95	225.18
769.27	225.10
769.60	224.99
769.92	224.81
770.25	224.65
770.57	224.51
770.90	224.40
771.22	224.28
771.55	224.18
771.87	224.09
772.20	223.98
772.52	224.04
772.85	224.16
773.17	224.05
773.50	223.90
773.82	223.75
774.15	223.55
774.47	223.34
774.80	223.23
775.12	223.13
775.45	223.07
775.77	222.98
776.09	222.89
776.42	222.78
776.74	222.75
777.07	222.65
777.39	222.59
777.72	222.51
778.04	222.48
778.36	222.40
778.69	222.30
779.01	222.25
779.33	222.01
779.66	221.70
779.98	221.62
780.31	221.58
780.63	221.60
780.95	221.56
781.28	221.47
781.60	221.37
781.92	221.32
782.25	221.24
782.57	221.18
782.89	221.10
783.22	221.03
783.54	220.92
783.86	220.89
784.19	220.78
784.51	220.77
784.83	220.67
785.16	220.60
785.48	220.56
785.80	220.47
786.12	220.42
786.45	220.39
786.77	220.34
787.09	220.29
787.42	220.14
787.74	220.09
788.06	220.06
788.38	220.02
788.71	219.94
789.03	219.88
789.35	219.85
789.67	219.76
789.99	219.72
790.32	219.67
790.64	219.63
790.96	219.77
791.28	219.67
791.61	219.60
791.93	219.58
792.25	219.52
792.57	219.63
792.89	219.54
793.21	219.48
793.54	219.43
793.86	219.34
794.18	219.30
794.50	219.23
794.82	219.20
795.14	219.18
795.47	219.16
795.79	219.12
796.11	219.02
796.43	218.98
796.75	218.94
797.07	218.92
797.39	218.84
797.71	218.62
798.04	218.59
798.36	218.54
798.68	218.49
799.00	218.45
799.32	218.32
799.64	218.34
799.96	218.31
800.28	218.34
800.60	218.30
800.92	218.29
801.24	218.23
801.56	218.19
801.89	218.13
802.21	218.12
802.53	218.06
802.85	218.07
803.17	218.15
803.49	218.08
803.81	218.00
804.13	217.95
804.45	217.93
804.77	217.90
805.09	217.90
805.41	217.81
805.73	217.75
806.05	217.66
806.37	217.60
806.69	217.52
807.01	217.46
807.33	217.44
807.65	217.33
807.97	217.38
808.28	217.37
808.60	217.32
808.92	217.29
809.24	217.37
809.56	217.34
809.88	217.24
810.20	217.21
810.52	217.25
810.84	217.22
811.16	217.20
811.48	217.14
811.80	217.16
812.12	217.13
812.43	217.14
812.75	217.13
813.07	217.07
813.39	217.08
813.71	217.04
814.03	217.02
814.35	217.03
814.67	216.92
814.98	216.87
815.30	216.86
815.62	216.81
815.94	216.67
816.26	216.68
816.58	216.63
816.89	216.67
817.21	216.59
817.53	216.57
817.85	216.55
818.17	216.54
818.48	216.46
818.80	216.53
819.12	216.47
819.44	216.43
819.76	216.41
820.07	216.37
820.39	216.31
820.71	216.30
821.03	216.29
821.34	216.26
821.66	216.27
821.98	216.27
822.30	216.23
822.61	216.32
822.93	216.24
823.25	216.23
823.57	216.15
823.88	216.19
824.20	216.16
824.52	216.17
824.83	216.14
825.15	216.12
825.47	216.07
825.79	216.11
826.10	216.08
826.42	216.08
826.74	216.09
827.05	216.11
827.37	216.10
827.69	216.09
828.00	216.07
828.32	216.04
828.64	215.99
828.95	216.11
829.27	216.04
829.58	216.03
829.90	216.03
830.22	216.03
830.53	215.93
830.85	215.90
831.17	215.86
831.48	215.84
831.80	215.84
832.11	215.81
832.43	215.78
832.75	215.76
833.06	215.84
833.38	215.77
833.69	215.74
834.01	215.73
834.32	215.70
834.64	215.70
834.96	215.68
835.27	215.68
835.59	215.57
835.90	215.54
836.22	215.54
836.53	215.50
836.85	215.49
837.16	215.71
837.48	215.75
837.79	215.81
838.11	215.82
838.42	215.76
838.74	215.78
839.05	215.71
839.37	215.72
839.68	215.61
840.00	215.65
840.31	215.67
840.63	215.63
840.94	215.61
841.26	215.56
841.57	215.54
841.88	215.57
842.20	215.55
842.51	215.52
842.83	215.55
843.14	215.75
843.46	215.75
843.77	215.61
844.08	215.58
844.40	215.50
844.71	215.47
845.03	215.49
845.34	215.46
845.65	215.46
845.97	215.44
846.28	215.44
846.60	215.41
846.91	215.36
847.22	215.38
847.54	215.39
847.85	215.42
848.16	215.41
848.48	215.35
848.79	215.42
849.10	215.45
849.42	215.41
849.73	215.21
850.04	215.17
850.36	215.10
850.67	215.10
850.98	215.08
851.30	215.09
851.61	215.05
851.92	215.07
852.23	215.17
852.55	215.18
852.86	215.18
853.17	215.18
853.49	215.25
853.80	215.29
854.11	215.31
854.42	215.31
854.74	215.30
855.05	215.31
855.36	215.21
855.67	215.20
855.99	215.22
856.30	215.45
856.61	215.47
856.92	215.45
857.23	215.47
857.55	215.43
857.86	215.42
858.17	215.42
858.48	215.39
858.79	215.33
859.11	215.34
859.42	215.35
859.73	215.34
860.04	215.30
860.35	215.20
860.66	215.12
860.98	215.13
861.29	215.17
861.60	215.12
861.91	215.15
862.22	215.11
862.53	215.07
862.84	214.80
863.16	214.84
863.47	214.82
863.78	214.78
864.09	214.80
864.40	214.83
864.71	214.86
865.02	214.89
865.33	214.87
865.64	214.80
865.95	214.78
866.27	214.95
866.58	214.92
866.89	214.97
867.20	214.99
867.51	214.93
867.82	214.92
868.13	215.00
868.44	214.95
868.75	214.99
869.06	214.99
869.37	215.01
869.68	214.94
869.99	215.00
870.30	215.01
870.61	215.03
870.92	214.99
871.23	215.01
871.54	215.03
871.85	215.06
872.16	215.10
872.47	215.09
872.78	214.93
873.09	214.95
873.40	214.94
873.71	214.94
874.02	214.97
874.33	214.93
874.64	214.89
874.95	214.92
875.26	214.88
875.56	214.86
875.87	214.86
876.18	214.86
876.49	215.02
876.80	215.02
877.11	214.96
877.42	214.99
877.73	214.95
878.04	214.92
878.35	214.87
878.66	214.88
878.96	214.84
879.27	214.81
879.58	214.80
879.89	214.78
880.20	214.83
880.51	214.83
880.82	214.82
881.12	214.82
881.43	214.81
881.74	214.80
882.05	214.80
882.36	214.81
882.67	214.76
882.97	214.55
883.28	214.53
883.59	214.58
883.90	214.57
884.21	214.61
884.51	214.60
884.82	214.59
885.13	214.57
885.44	214.60
885.74	214.60
886.05	214.57
886.36	214.56
886.67	214.48
886.98	214.55
887.28	214.58
887.59	214.57
887.90	214.53
888.20	214.53
888.51	214.58
888.82	214.53
889.13	214.60
889.43	214.78
889.74	214.77
890.05	214.73
890.35	214.69
890.66	214.64
890.97	214.64
891.28	214.64
891.58	214.66
891.89	214.64
892.20	214.63
892.50	214.63
892.81	214.65
893.12	214.66
893.42	214.57
893.73	214.58
894.04	214.60
894.34	214.66
894.65	214.63
894.95	214.57
895.26	214.59
895.57	214.65
895.87	214.48
896.18	214.51
896.48	214.54
896.79	214.56
897.10	214.61
897.40	214.60
897.71	214.62
898.01	214.59
898.32	214.63
898.63	214.65
898.93	214.65
899.24	214.64
899.54	214.62
899.85	214.65
900.15	214.64
900.46	214.63
900.76	214.62
901.07	214.65
901.38	214.68
901.68	214.71
901.99	214.60
902.29	214.60
902.60	214.56
902.90	214.56
903.21	214.54
903.51	214.50
903.82	214.56
904.12	214.58
904.43	214.56
904.73	214.56
905.03	214.55
905.34	214.74
905.64	214.71
905.95	214.73
906.25	214.70
906.56	214.70
906.86	214.69
907.17	214.67
907.47	214.69
907.77	214.69
908.08	214.64
908.38	214.71
908.69	214.71
908.99	214.77
909.30	214.78
909.60	214.81
909.90	214.85
910.21	214.78
910.51	214.73
910.81	214.75
911.12	214.76
911.42	214.76
911.73	214.54
912.03	214.58
912.33	214.63
912.64	214.62
912.94	214.59
913.24	214.55
913.55	214.53
913.85	214.51
914.15	214.53
914.46	214.57
914.76	214.52
915.06	214.51
915.37	214.46
915.67	214.42
915.97	214.41
916.27	214.36
916.58	214.38
916.88	214.37
917.18	214.39
917.49	214.50
917.79	214.52
918.09	214.57
918.39	214.62
918.70	214.58
919.00	214.61
919.30	214.72
919.60	214.70
919.91	214.68
920.21	214.71
920.51	214.66
920.81	214.65
921.12	214.70
921.42	214.73
921.72	214.74
922.02	214.78
922.32	214.82
922.63	214.81
922.93	214.91
923.23	214.94
923.53	214.89
923.83	214.77
924.13	214.77
924.44	214.77
924.74	214.80
925.04	214.83
925.34	214.81
925.64	214.70
925.94	214.69
926.24	214.81
926.55	214.79
926.85	214.84
927.15	214.84
927.45	214.80
927.75	214.77
928.05	214.75
928.35	214.75
928.65	214.81
928.95	214.85
929.26	214.78
929.56	214.82
929.86	214.84
930.16	214.82
930.46	214.82
930.76	214.85
931.06	214.74
931.36	214.71
931.66	214.78
931.96	214.83
932.26	214.88
932.56	214.81
932.86	214.80
933.16	214.77
933.46	214.73
933.76	214.75
934.06	214.83
934.36	214.92
934.66	214.89
934.96	214.80
935.26	214.82
935.56	214.80
935.86	214.76
936.16	214.75
936.46	214.73
936.76	214.73
937.06	214.68
937.36	214.72
937.66	214.75
937.96	214.71
938.26	214.66
938.56	214.62
938.86	214.62
939.16	214.68
939.46	214.70
939.76	214.75
940.06	214.71
940.35	214.63
940.65	214.52
940.95	214.56
941.25	214.52
941.55	214.46
941.85	214.48
942.15	214.51
942.45	214.54
942.75	214.55
943.04	214.57
943.34	214.60
943.64	214.54
943.94	214.50
944.24	214.50
944.54	214.54
944.84	214.54
945.13	214.53
945.43	214.48
945.73	214.47
946.03	214.45
946.33	214.46
946.62	214.45
946.92	214.44
947.22	214.42
947.52	214.45
947.82	214.49
948.11	214.46
948.41	214.43
948.71	214.39
949.01	214.40
949.31	214.35
949.60	214.33
949.90	214.38
950.20	214.36
950.50	214.35
950.79	214.34
951.09	214.35
951.39	214.33
951.69	214.29
951.98	214.36
952.28	214.37
952.58	214.34
952.87	214.36
953.17	214.40
953.47	214.38
953.76	214.39
954.06	214.32
954.36	214.31
954.66	214.27
954.95	214.32
955.25	214.33
955.55	214.36
955.84	214.32
956.14	214.32
956.44	214.33
956.73	214.28
957.03	214.28
957.32	214.29
957.62	214.29
957.92	214.35
958.21	214.29
958.51	214.51
958.81	214.54
959.10	214.55
959.40	214.60
959.69	214.62
959.99	214.65
960.29	214.71
960.58	214.69
960.88	214.81
961.17	214.79
961.47	214.77
961.76	214.72
962.06	214.78
962.36	214.79
962.65	214.81
962.95	214.82
963.24	214.82
963.54	214.85
963.83	214.86
964.13	214.82
964.42	214.76
964.72	214.59
965.01	214.59
965.31	214.55
965.60	214.48
965.90	214.59
966.19	214.55
966.49	214.56
966.78	214.55
967.08	214.51
967.37	214.52
967.67	214.50
967.96	214.55
968.26	214.51
968.55	214.53
968.85	214.54
969.14	214.60
969.43	214.58
969.73	214.56
970.02	214.57
970.32	214.59
970.61	214.58
970.91	214.52
971.20	214.49
971.49	214.51
971.79	214.57
972.08	214.42
972.38	214.42
972.67	214.39
972.96	214.47
973.26	214.40
973.55	214.48
973.85	214.47
974.14	214.47
974.43	214.49
974.73	214.43
975.02	214.38
975.31	214.35
975.61	214.35
975.90	214.34
976.19	214.30
976.49	214.31
976.78	214.35
977.07	214.35
977.37	214.36
977.66	214.37
977.95	214.32
978.24	214.34
978.54	214.40
978.83	214.38
979.12	214.33
979.42	214.37
979.71	214.28
980.00	214.29
980.29	214.32
980.59	214.29
980.88	214.34
981.17	214.32
981.46	214.33
981.76	214.30
982.05	214.38
982.34	214.41
982.63	214.42
982.93	214.40
983.22	214.45
983.51	214.48
983.80	214.51
984.09	214.57
984.39	214.56
984.68	214.52
984.97	214.52
985.26	214.50
985.55	214.48
985.85	214.45
986.14	214.47
986.43	214.46
986.72	214.42
987.01	214.35
987.30	214.38
987.59	214.34
987.89	214.33
988.18	214.23
988.47	214.22
988.76	214.19
989.05	214.17
989.34	214.13
989.63	214.16
989.92	214.09
990.22	214.05
990.51	214.04
990.80	214.04
991.09	214.06
991.38	214.09
991.67	214.11
991.96	214.14
992.25	214.13
992.54	214.12
992.83	214.15
993.12	214.14
993.41	214.19
993.70	214.28
993.99	214.34
994.28	214.37
994.58	214.37
994.87	214.37
995.16	214.36
995.45	214.38
995.74	214.30
996.03	214.34
996.32	214.36
996.61	214.42
996.90	214.42
997.19	214.40
997.48	214.41
997.77	214.34
998.06	214.32
998.34	214.28
998.63	214.28
998.92	214.28
999.21	214.33
999.50	214.31
999.79	214.24
1000.08	214.24
1000.37	214.24
1000.66	214.22
1000.95	214.29
1001.24	214.30
1001.53	214.32
1001.82	214.32
1002.11	214.30
1002.40	214.32
1002.68	214.34
1002.97	214.47
1003.26	214.47
1003.55	214.42
1003.84	214.49
1004.13	214.58
1004.42	214.61
1004.71	214.59
1004.99	214.59
1005.28	214.63
1005.57	214.63
1005.86	214.61
1006.15	214.57
1006.44	214.55
1006.72	214.61
1007.01	214.58
1007.30	214.59
1007.59	214.55
1007.88	214.55
1008.17	214.58
1008.45	214.53
1008.74	214.45
1009.03	214.34
1009.32	214.32
1009.60	214.34
1009.89	214.28
1010.18	214.18
1010.47	214.16
1010.76	214.18
1011.04	214.15
1011.33	214.15
1011.62	214.15
1011.91	214.18
1012.19	214.21
1012.48	214.21
1012.77	214.20
1013.05	214.26
1013.34	214.26
1013.63	214.28
1013.92	214.30
1014.20	214.28
1014.49	214.30
1014.78	214.31
1015.06	214.24
1015.35	214.26
1015.64	214.30
1015.92	214.32
1016.21	214.35
1016.50	214.37
1016.78	214.39
1017.07	214.45
1017.36	214.44
1017.64	214.39
1017.93	214.39
1018.22	214.38
1018.50	214.39
1018.79	214.35
1019.08	214.26
1019.36	214.26
1019.65	214.24
1019.93	214.32
1020.22	214.35
1020.51	214.45
1020.79	214.43
1021.08	214.03
1021.36	214.05
1021.65	214.19
1021.94	214.08
1022.22	214.19
1022.51	214.13
1022.79	215.86
1023.08	214.93
1023.36	216.58
1023.65	213.80
>>>>>End Processed Spectral Data<<<<<
