SpectraSuite Data File
++++++++++++++++++++++++++++++++++++
Date: Tue Jan 29 16:37:43 EST 2013
User: group
Dark Spectrum Present: No
Reference Spectrum Present: No
Number of Sampled Component Spectra: 1
Spectrometers: USB2E7196
Integration Time (usec): 65000 (USB2E7196)
Spectra Averaged: 100 (USB2E7196)
Boxcar Smoothing: 10 (USB2E7196)
Correct for Electrical Dark: No (USB2E7196)
Strobe/Lamp Enabled: No (USB2E7196)
Correct for Detector Non-linearity: No (USB2E7196)
Correct for Stray Light: No (USB2E7196)
Number of Pixels in Processed Spectrum: 2048
>>>>>Begin Processed Spectral Data<<<<<
339.09	0.00
339.48	202.01
339.86	203.77
340.24	204.23
340.63	206.43
341.01	211.25
341.39	209.53
341.78	211.08
342.16	212.55
342.54	211.65
342.93	201.31
343.31	211.48
343.69	212.00
344.07	212.45
344.46	212.91
344.84	213.32
345.22	213.48
345.60	213.71
345.99	213.89
346.37	214.01
346.75	214.15
347.13	214.23
347.52	214.29
347.90	214.42
348.28	214.45
348.66	214.50
349.05	214.47
349.43	214.50
349.81	214.54
350.19	214.63
350.57	214.70
350.96	214.78
351.34	214.86
351.72	214.95
352.10	215.05
352.48	215.13
352.87	215.16
353.25	215.21
353.63	215.26
354.01	215.28
354.39	215.33
354.77	215.40
355.15	215.52
355.54	215.53
355.92	215.52
356.30	215.58
356.68	215.78
357.06	215.85
357.44	215.86
357.82	215.91
358.20	215.96
358.58	216.03
358.97	216.08
359.35	216.18
359.73	216.30
360.11	216.35
360.49	216.42
360.87	216.45
361.25	216.54
361.63	216.65
362.01	216.73
362.39	216.79
362.77	216.81
363.15	216.83
363.53	216.88
363.91	216.91
364.29	216.95
364.67	216.79
365.05	216.79
365.43	216.88
365.81	216.95
366.19	217.07
366.57	217.12
366.95	217.18
367.33	217.13
367.71	217.12
368.09	217.13
368.47	217.11
368.85	217.13
369.23	217.14
369.61	217.08
369.99	217.13
370.37	217.06
370.75	217.16
371.13	217.09
371.51	217.06
371.89	217.07
372.27	217.05
372.65	217.04
373.03	217.06
373.41	216.98
373.78	216.93
374.16	216.78
374.54	216.71
374.92	216.66
375.30	216.63
375.68	216.59
376.06	216.60
376.44	216.52
376.82	216.49
377.19	216.47
377.57	216.41
377.95	216.29
378.33	216.29
378.71	216.15
379.09	216.15
379.47	216.13
379.84	216.06
380.22	216.00
380.60	215.89
380.98	215.85
381.36	215.78
381.73	215.72
382.11	215.72
382.49	215.67
382.87	215.60
383.25	215.57
383.62	215.75
384.00	215.68
384.38	215.67
384.76	215.64
385.13	215.66
385.51	215.64
385.89	215.58
386.27	215.58
386.64	215.56
387.02	215.51
387.40	215.44
387.78	215.46
388.15	215.45
388.53	215.46
388.91	215.40
389.29	215.39
389.66	215.40
390.04	215.36
390.42	215.37
390.79	215.36
391.17	215.32
391.55	215.08
391.92	215.07
392.30	215.08
392.68	215.06
393.05	215.03
393.43	215.02
393.81	215.05
394.18	215.00
394.56	215.00
394.94	215.04
395.31	215.07
395.69	215.14
396.06	215.17
396.44	215.18
396.82	215.19
397.19	215.33
397.57	215.27
397.95	215.33
398.32	215.29
398.70	215.34
399.07	215.43
399.45	215.48
399.82	215.52
400.20	215.52
400.58	215.56
400.95	215.54
401.33	215.66
401.70	215.87
402.08	215.95
402.45	216.05
402.83	216.19
403.20	216.31
403.58	216.39
403.95	216.54
404.33	216.73
404.71	216.89
405.08	217.16
405.46	217.36
405.83	217.57
406.21	217.81
406.58	218.03
406.96	218.22
407.33	218.47
407.70	218.77
408.08	219.27
408.45	219.62
408.83	220.03
409.20	220.33
409.58	220.60
409.95	221.07
410.33	221.53
410.70	221.95
411.08	222.46
411.45	223.02
411.82	223.59
412.20	224.26
412.57	225.11
412.95	225.67
413.32	226.55
413.69	227.36
414.07	228.28
414.44	229.28
414.82	230.32
415.19	231.49
415.56	232.70
415.94	233.90
416.31	235.32
416.68	236.74
417.06	238.36
417.43	239.92
417.81	241.65
418.18	243.44
418.55	245.41
418.93	247.47
419.30	249.56
419.67	251.81
420.04	254.11
420.42	256.49
420.79	259.35
421.16	262.09
421.54	265.02
421.91	268.00
422.28	271.11
422.66	274.46
423.03	277.72
423.40	281.04
423.77	284.58
424.15	288.26
424.52	292.11
424.89	296.28
425.26	300.36
425.64	304.27
426.01	308.59
426.38	313.06
426.75	317.63
427.13	322.43
427.50	327.42
427.87	332.65
428.24	337.86
428.61	342.85
428.99	348.36
429.36	354.37
429.73	360.29
430.10	366.16
430.47	372.16
430.85	378.52
431.22	385.30
431.59	392.45
431.96	399.26
432.33	406.75
432.70	414.07
433.08	422.64
433.45	430.66
433.82	438.64
434.19	447.54
434.56	456.22
434.93	464.57
435.30	472.84
435.68	481.95
436.05	490.95
436.42	499.86
436.79	508.06
437.16	516.85
437.53	526.13
437.90	535.33
438.27	544.33
438.64	553.52
439.01	562.06
439.38	569.65
439.75	577.02
440.13	585.48
440.50	593.42
440.87	599.84
441.24	606.56
441.61	613.96
441.98	619.36
442.35	625.71
442.72	632.04
443.09	638.12
443.46	641.83
443.83	644.39
444.20	646.61
444.57	649.83
444.94	651.35
445.31	652.83
445.68	654.15
446.05	654.84
446.42	654.07
446.79	653.12
447.16	652.07
447.53	651.35
447.90	648.03
448.27	644.79
448.64	640.13
449.01	636.79
449.37	630.86
449.74	625.19
450.11	618.35
450.48	610.97
450.85	603.45
451.22	596.98
451.59	590.83
451.96	584.94
452.33	577.06
452.70	569.88
453.07	561.32
453.43	552.74
453.80	544.37
454.17	536.38
454.54	528.79
454.91	520.55
455.28	512.48
455.65	505.03
456.02	497.46
456.38	491.10
456.75	483.22
457.12	476.67
457.49	470.13
457.86	463.87
458.23	458.45
458.59	452.55
458.96	446.54
459.33	441.15
459.70	435.78
460.07	431.46
460.43	426.58
460.80	422.04
461.17	418.03
461.54	413.83
461.91	409.78
462.27	405.65
462.64	402.27
463.01	398.49
463.38	394.75
463.74	391.02
464.11	387.76
464.48	384.89
464.85	381.78
465.21	379.33
465.58	376.69
465.95	373.55
466.32	370.95
466.68	368.34
467.05	365.74
467.42	363.17
467.78	360.50
468.15	357.93
468.52	356.00
468.88	353.50
469.25	351.29
469.62	349.51
469.98	347.53
470.35	345.72
470.72	344.05
471.08	342.23
471.45	340.74
471.82	339.21
472.18	337.55
472.55	336.34
472.92	334.94
473.28	333.72
473.65	332.53
474.02	331.42
474.38	330.53
474.75	329.80
475.11	329.01
475.48	328.38
475.85	327.87
476.21	327.35
476.58	326.98
476.94	326.70
477.31	326.33
477.67	326.08
478.04	325.94
478.41	325.88
478.77	326.05
479.14	326.04
479.50	326.16
479.87	326.47
480.23	326.73
480.60	326.99
480.96	327.27
481.33	327.89
481.69	328.38
482.06	328.90
482.42	329.38
482.79	330.00
483.15	330.79
483.52	331.76
483.88	332.66
484.25	333.61
484.61	334.65
484.98	335.72
485.34	337.01
485.71	338.31
486.07	339.74
486.44	341.04
486.80	342.62
487.17	344.26
487.53	346.08
487.90	348.00
488.26	350.06
488.62	352.21
488.99	354.21
489.35	356.41
489.72	358.73
490.08	361.25
490.44	363.80
490.81	366.52
491.17	369.16
491.54	372.16
491.90	375.19
492.26	378.42
492.63	381.89
492.99	385.41
493.36	389.12
493.72	392.98
494.08	397.02
494.45	401.25
494.81	405.66
495.17	410.11
495.54	414.75
495.90	419.61
496.26	424.56
496.63	429.78
496.99	435.18
497.35	440.86
497.72	446.68
498.08	452.63
498.44	458.76
498.80	465.28
499.17	471.78
499.53	478.53
499.89	485.49
500.26	492.46
500.62	499.53
500.98	506.97
501.34	514.49
501.71	522.30
502.07	530.14
502.43	538.15
502.79	546.33
503.16	554.82
503.52	563.40
503.88	572.14
504.24	581.09
504.60	590.21
504.97	599.41
505.33	608.74
505.69	618.60
506.05	628.54
506.41	638.44
506.78	648.54
507.14	658.82
507.50	669.25
507.86	680.01
508.22	690.80
508.59	701.51
508.95	712.55
509.31	723.85
509.67	735.29
510.03	746.71
510.39	758.42
510.75	770.17
511.12	782.08
511.48	794.19
511.84	806.56
512.20	818.89
512.56	831.61
512.92	844.46
513.28	857.15
513.64	869.95
514.00	882.85
514.37	895.83
514.73	909.02
515.09	922.07
515.45	935.01
515.81	948.10
516.17	961.51
516.53	974.80
516.89	987.97
517.25	1001.26
517.61	1014.94
517.97	1028.43
518.33	1041.74
518.69	1055.43
519.05	1069.31
519.41	1083.12
519.77	1097.10
520.13	1110.40
520.49	1123.66
520.85	1137.15
521.21	1150.53
521.57	1164.31
521.93	1177.52
522.29	1191.25
522.65	1204.98
523.01	1218.59
523.37	1231.95
523.73	1245.37
524.09	1258.82
524.45	1272.38
524.81	1285.94
525.17	1299.43
525.53	1312.72
525.89	1326.18
526.25	1339.37
526.61	1352.23
526.97	1365.33
527.33	1378.28
527.68	1392.01
528.04	1405.70
528.40	1418.96
528.76	1432.48
529.12	1445.35
529.48	1458.71
529.84	1471.11
530.20	1484.06
530.56	1496.89
530.91	1510.24
531.27	1523.18
531.63	1535.92
531.99	1548.76
532.35	1561.03
532.71	1573.47
533.07	1586.50
533.42	1598.92
533.78	1611.08
534.14	1623.32
534.50	1634.67
534.86	1646.44
535.21	1657.31
535.57	1668.88
535.93	1680.23
536.29	1691.38
536.65	1702.89
537.00	1713.94
537.36	1725.50
537.72	1736.58
538.08	1747.97
538.44	1759.14
538.79	1770.38
539.15	1781.47
539.51	1792.39
539.87	1803.83
540.22	1814.83
540.58	1825.93
540.94	1836.87
541.29	1847.31
541.65	1857.07
542.01	1867.70
542.37	1877.84
542.72	1888.01
543.08	1897.95
543.44	1908.52
543.79	1917.93
544.15	1927.49
544.51	1937.68
544.87	1947.65
545.22	1956.97
545.58	1965.87
545.94	1974.83
546.29	1983.45
546.65	1991.82
547.01	2000.07
547.36	2007.86
547.72	2015.53
548.07	2023.11
548.43	2030.93
548.79	2038.76
549.14	2047.08
549.50	2055.61
549.86	2063.74
550.21	2071.38
550.57	2078.95
550.92	2085.93
551.28	2093.42
551.64	2100.85
551.99	2108.38
552.35	2115.71
552.70	2122.64
553.06	2129.43
553.41	2135.64
553.77	2142.18
554.13	2148.64
554.48	2155.59
554.84	2162.92
555.19	2169.66
555.55	2176.03
555.90	2182.33
556.26	2189.45
556.61	2195.64
556.97	2200.39
557.32	2206.05
557.68	2212.45
558.03	2218.35
558.39	2223.65
558.74	2229.74
559.10	2235.19
559.45	2240.82
559.81	2246.26
560.16	2251.90
560.52	2257.85
560.87	2264.35
561.23	2270.28
561.58	2276.98
561.94	2282.21
562.29	2286.66
562.64	2292.75
563.00	2298.51
563.35	2304.26
563.71	2309.87
564.06	2315.53
564.42	2321.62
564.77	2326.62
565.12	2331.96
565.48	2337.01
565.83	2342.42
566.19	2347.71
566.54	2353.09
566.89	2357.70
567.25	2362.19
567.60	2367.76
567.96	2372.82
568.31	2377.18
568.66	2381.41
569.02	2385.14
569.37	2388.97
569.72	2393.36
570.08	2396.57
570.43	2399.66
570.78	2402.50
571.14	2405.01
571.49	2408.00
571.84	2411.55
572.20	2414.43
572.55	2417.35
572.90	2419.64
573.26	2422.50
573.61	2425.07
573.96	2427.12
574.31	2429.05
574.67	2430.80
575.02	2431.63
575.37	2433.09
575.72	2434.02
576.08	2435.52
576.43	2435.70
576.78	2436.10
577.13	2437.76
577.49	2439.10
577.84	2440.09
578.19	2441.40
578.54	2441.83
578.90	2442.45
579.25	2442.16
579.60	2442.05
579.95	2441.14
580.30	2441.07
580.66	2440.09
581.01	2438.32
581.36	2435.94
581.71	2434.37
582.06	2433.38
582.42	2432.20
582.77	2429.83
583.12	2427.97
583.47	2426.39
583.82	2425.65
584.17	2424.17
584.53	2421.91
584.88	2419.53
585.23	2417.44
585.58	2415.05
585.93	2412.95
586.28	2410.61
586.63	2407.99
586.98	2405.72
587.34	2403.68
587.69	2401.21
588.04	2399.15
588.39	2397.60
588.74	2395.05
589.09	2392.25
589.44	2388.67
589.79	2386.11
590.14	2384.10
590.49	2381.09
590.84	2377.07
591.19	2373.85
591.54	2370.61
591.89	2366.45
592.25	2363.13
592.60	2358.78
592.95	2354.52
593.30	2350.25
593.65	2345.82
594.00	2341.41
594.35	2338.28
594.70	2333.53
595.05	2328.94
595.40	2323.46
595.75	2317.59
596.10	2313.90
596.45	2308.86
596.80	2304.36
597.15	2299.12
597.50	2293.11
597.85	2288.22
598.19	2283.00
598.54	2277.13
598.89	2271.82
599.24	2267.25
599.59	2261.04
599.94	2255.33
600.29	2249.35
600.64	2243.45
600.99	2236.56
601.34	2230.99
601.69	2223.93
602.04	2217.48
602.39	2210.62
602.74	2204.35
603.08	2198.86
603.43	2192.21
603.78	2185.41
604.13	2178.36
604.48	2171.13
604.83	2164.93
605.18	2158.50
605.53	2151.56
605.87	2144.56
606.22	2137.74
606.57	2129.85
606.92	2121.99
607.27	2114.95
607.62	2108.19
607.96	2101.09
608.31	2094.73
608.66	2086.99
609.01	2079.38
609.36	2072.17
609.70	2064.56
610.05	2056.79
610.40	2048.39
610.75	2040.15
611.10	2032.43
611.44	2023.49
611.79	2014.67
612.14	2004.69
612.49	1994.05
612.83	1984.66
613.18	1975.18
613.53	1965.72
613.88	1956.02
614.22	1947.31
614.57	1937.46
614.92	1926.80
615.27	1916.49
615.61	1906.24
615.96	1896.47
616.31	1886.96
616.65	1877.60
617.00	1867.88
617.35	1858.26
617.70	1848.48
618.04	1838.39
618.39	1828.18
618.74	1818.59
619.08	1808.98
619.43	1800.22
619.78	1791.96
620.12	1783.37
620.47	1773.87
620.82	1763.65
621.16	1753.88
621.51	1744.00
621.85	1734.17
622.20	1723.98
622.55	1713.50
622.89	1703.59
623.24	1693.88
623.59	1683.99
623.93	1673.75
624.28	1664.01
624.62	1653.87
624.97	1643.59
625.32	1633.71
625.66	1624.76
626.01	1615.92
626.35	1606.54
626.70	1596.49
627.04	1586.46
627.39	1576.40
627.73	1567.22
628.08	1558.28
628.43	1548.70
628.77	1539.51
629.12	1530.67
629.46	1522.78
629.81	1514.48
630.15	1504.96
630.50	1495.22
630.84	1484.81
631.19	1475.06
631.53	1465.62
631.88	1455.53
632.22	1445.56
632.57	1436.18
632.91	1426.17
633.26	1416.33
633.60	1406.83
633.95	1397.60
634.29	1388.06
634.64	1378.67
634.98	1368.68
635.32	1359.39
635.67	1350.86
636.01	1341.59
636.36	1331.83
636.70	1322.36
637.05	1312.91
637.39	1304.02
637.73	1295.37
638.08	1287.67
638.42	1279.45
638.77	1270.71
639.11	1262.43
639.45	1254.62
639.80	1246.18
640.14	1237.45
640.49	1228.61
640.83	1219.76
641.17	1211.67
641.52	1203.56
641.86	1194.96
642.20	1187.18
642.55	1178.57
642.89	1169.74
643.23	1161.08
643.58	1152.88
643.92	1143.83
644.26	1135.12
644.61	1126.69
644.95	1117.82
645.29	1108.61
645.64	1099.36
645.98	1090.79
646.32	1082.84
646.66	1074.30
647.01	1066.01
647.35	1057.88
647.69	1049.48
648.04	1041.17
648.38	1032.12
648.72	1023.36
649.06	1014.94
649.41	1006.61
649.75	998.65
650.09	990.73
650.43	982.71
650.78	974.40
651.12	966.59
651.46	959.15
651.80	951.85
652.14	944.60
652.49	937.14
652.83	929.84
653.17	922.21
653.51	914.59
653.85	907.36
654.20	900.08
654.54	892.50
654.88	885.28
655.22	878.05
655.56	871.10
655.90	864.31
656.25	857.58
656.59	850.65
656.93	843.63
657.27	836.45
657.61	829.38
657.95	823.24
658.29	817.42
658.64	811.24
658.98	804.77
659.32	798.23
659.66	791.97
660.00	785.56
660.34	779.45
660.68	773.26
661.02	766.93
661.36	760.95
661.70	755.17
662.05	749.49
662.39	743.99
662.73	738.55
663.07	733.09
663.41	727.45
663.75	721.63
664.09	715.90
664.43	710.50
664.77	705.12
665.11	699.29
665.45	693.24
665.79	687.44
666.13	681.72
666.47	676.10
666.81	670.58
667.15	665.17
667.49	659.96
667.83	654.64
668.17	649.26
668.51	644.05
668.85	639.07
669.19	634.15
669.53	629.09
669.87	623.93
670.21	619.14
670.55	614.42
670.89	609.98
671.23	605.62
671.57	601.20
671.91	596.87
672.25	592.68
672.58	588.55
672.92	584.47
673.26	580.48
673.60	576.66
673.94	572.86
674.28	569.24
674.62	565.43
674.96	561.72
675.30	558.23
675.64	554.50
675.97	550.90
676.31	547.25
676.65	543.58
676.99	540.09
677.33	536.17
677.67	532.48
678.01	528.65
678.34	525.02
678.68	521.48
679.02	517.85
679.36	514.10
679.70	510.44
680.04	506.80
680.37	503.34
680.71	499.99
681.05	496.75
681.39	493.44
681.73	490.21
682.06	487.17
682.40	484.01
682.74	480.84
683.08	477.59
683.42	474.40
683.75	471.36
684.09	468.30
684.43	465.51
684.77	462.55
685.10	459.67
685.44	456.66
685.78	453.70
686.12	450.93
686.45	448.16
686.79	445.46
687.13	442.91
687.46	440.25
687.80	437.50
688.14	434.62
688.48	431.90
688.81	429.18
689.15	426.54
689.49	423.93
689.82	421.39
690.16	418.76
690.50	416.27
690.83	413.75
691.17	411.16
691.51	408.70
691.84	406.38
692.18	404.11
692.52	401.89
692.85	399.71
693.19	397.48
693.52	395.30
693.86	393.08
694.20	390.86
694.53	388.70
694.87	386.46
695.21	384.27
695.54	382.13
695.88	379.97
696.21	377.72
696.55	375.53
696.88	373.42
697.22	371.43
697.56	369.48
697.89	367.57
698.23	365.81
698.56	363.91
698.90	362.11
699.23	360.19
699.57	358.26
699.90	356.35
700.24	354.51
700.58	352.72
700.91	351.03
701.25	349.40
701.58	347.74
701.92	346.10
702.25	344.50
702.59	342.80
702.92	341.24
703.26	339.68
703.59	338.17
703.93	336.88
704.26	335.41
704.60	333.88
704.93	332.37
705.26	330.88
705.60	329.38
705.93	327.84
706.27	326.48
706.60	325.22
706.94	323.99
707.27	322.57
707.61	321.24
707.94	319.85
708.27	318.31
708.61	316.82
708.94	315.44
709.28	314.09
709.61	312.87
709.94	311.62
710.28	310.40
710.61	309.20
710.95	307.74
711.28	306.65
711.61	305.42
711.95	304.28
712.28	303.06
712.61	301.87
712.95	300.83
713.28	299.75
713.61	298.54
713.95	297.37
714.28	296.40
714.61	295.30
714.95	294.28
715.28	293.26
715.61	292.26
715.95	291.29
716.28	290.35
716.61	289.34
716.95	288.32
717.28	287.36
717.61	286.38
717.94	285.45
718.28	284.38
718.61	283.51
718.94	282.59
719.27	281.70
719.61	280.92
719.94	279.98
720.27	279.06
720.60	278.23
720.94	277.40
721.27	276.60
721.60	275.93
721.93	275.24
722.27	274.58
722.60	273.88
722.93	273.15
723.26	272.48
723.59	271.79
723.93	271.16
724.26	270.49
724.59	269.80
724.92	269.19
725.25	268.62
725.59	268.03
725.92	267.48
726.25	266.90
726.58	266.28
726.91	265.68
727.24	265.09
727.57	264.51
727.91	263.90
728.24	263.34
728.57	262.67
728.90	262.02
729.23	261.43
729.56	261.02
729.89	260.48
730.22	259.90
730.55	259.37
730.89	258.87
731.22	258.31
731.55	257.83
731.88	257.32
732.21	256.77
732.54	256.23
732.87	255.70
733.20	255.22
733.53	254.73
733.86	254.28
734.19	253.79
734.52	253.40
734.85	253.12
735.18	252.63
735.51	252.28
735.84	251.88
736.17	251.50
736.50	250.92
736.83	250.76
737.16	250.38
737.49	250.00
737.82	249.53
738.15	249.19
738.48	248.79
738.81	248.41
739.14	248.02
739.47	247.63
739.80	247.23
740.13	246.87
740.46	246.46
740.79	246.07
741.12	245.68
741.45	245.24
741.78	244.76
742.11	244.52
742.44	244.10
742.77	243.82
743.10	243.45
743.43	243.16
743.75	242.56
744.08	242.49
744.41	242.11
744.74	241.77
745.07	241.41
745.40	241.07
745.73	240.78
746.06	240.48
746.39	240.16
746.71	239.81
747.04	239.47
747.37	239.17
747.70	238.88
748.03	238.55
748.36	238.33
748.68	238.00
749.01	237.60
749.34	237.33
749.67	236.98
750.00	236.68
750.33	236.53
750.65	236.28
750.98	235.75
751.31	235.48
751.64	235.25
751.97	235.09
752.29	234.86
752.62	234.53
752.95	234.25
753.28	234.01
753.60	233.80
753.93	233.63
754.26	233.39
754.59	233.12
754.91	232.89
755.24	232.64
755.57	232.43
755.90	232.19
756.22	231.98
756.55	231.73
756.88	231.50
757.20	231.13
757.53	230.86
757.86	230.67
758.19	230.49
758.51	230.30
758.84	230.00
759.17	229.78
759.49	229.60
759.82	229.52
760.15	229.34
760.47	229.13
760.80	228.87
761.13	228.71
761.45	228.50
761.78	228.35
762.11	228.13
762.43	227.96
762.76	227.81
763.08	227.63
763.41	227.53
763.74	227.37
764.06	227.20
764.39	227.04
764.71	226.85
765.04	226.66
765.37	226.48
765.69	226.30
766.02	226.14
766.34	225.97
766.67	225.74
767.00	225.62
767.32	225.60
767.65	225.57
767.97	225.41
768.30	225.30
768.62	225.16
768.95	225.01
769.27	224.86
769.60	224.74
769.92	224.58
770.25	224.40
770.57	224.23
770.90	224.14
771.22	224.01
771.55	223.88
771.87	223.86
772.20	223.73
772.52	223.82
772.85	223.97
773.17	223.88
773.50	223.77
773.82	223.63
774.15	223.42
774.47	223.20
774.80	223.08
775.12	222.98
775.45	222.87
775.77	222.80
776.09	222.73
776.42	222.65
776.74	222.64
777.07	222.52
777.39	222.46
777.72	222.30
778.04	222.22
778.36	222.12
778.69	222.01
779.01	221.94
779.33	221.69
779.66	221.36
779.98	221.26
780.31	221.18
780.63	221.20
780.95	221.14
781.28	221.09
781.60	221.00
781.92	220.92
782.25	220.86
782.57	220.80
782.89	220.71
783.22	220.62
783.54	220.47
783.86	220.48
784.19	220.37
784.51	220.41
784.83	220.32
785.16	220.28
785.48	220.20
785.80	220.13
786.12	220.07
786.45	220.00
786.77	219.97
787.09	219.90
787.42	219.77
787.74	219.72
788.06	219.72
788.38	219.66
788.71	219.60
789.03	219.54
789.35	219.50
789.67	219.42
789.99	219.39
790.32	219.33
790.64	219.27
790.96	219.41
791.28	219.28
791.61	219.23
791.93	219.16
792.25	219.09
792.57	219.18
792.89	219.10
793.21	219.09
793.54	219.01
793.86	218.95
794.18	218.89
794.50	218.84
794.82	218.74
795.14	218.75
795.47	218.75
795.79	218.72
796.11	218.62
796.43	218.58
796.75	218.55
797.07	218.48
797.39	218.44
797.71	218.23
798.04	218.19
798.36	218.19
798.68	218.16
799.00	218.15
799.32	218.04
799.64	218.05
799.96	218.00
800.28	217.98
800.60	217.94
800.92	217.94
801.24	217.84
801.56	217.81
801.89	217.74
802.21	217.72
802.53	217.65
802.85	217.71
803.17	217.75
803.49	217.63
803.81	217.62
804.13	217.59
804.45	217.54
804.77	217.52
805.09	217.48
805.41	217.43
805.73	217.35
806.05	217.24
806.37	217.19
806.69	217.15
807.01	217.14
807.33	217.11
807.65	216.99
807.97	217.06
808.28	217.00
808.60	216.96
808.92	216.91
809.24	217.01
809.56	216.89
809.88	216.76
810.20	216.74
810.52	216.77
810.84	216.69
811.16	216.66
811.48	216.64
811.80	216.67
812.12	216.63
812.43	216.68
812.75	216.67
813.07	216.64
813.39	216.60
813.71	216.52
814.03	216.49
814.35	216.50
814.67	216.39
814.98	216.37
815.30	216.32
815.62	216.24
815.94	216.04
816.26	216.11
816.58	216.10
816.89	216.13
817.21	216.04
817.53	216.06
817.85	216.05
818.17	216.03
818.48	215.95
818.80	215.95
819.12	215.88
819.44	215.85
819.76	215.78
820.07	215.80
820.39	215.81
820.71	215.80
821.03	215.79
821.34	215.81
821.66	215.82
821.98	215.86
822.30	215.87
822.61	216.02
822.93	215.95
823.25	215.93
823.57	215.92
823.88	215.97
824.20	215.96
824.52	215.95
824.83	215.92
825.15	215.88
825.47	215.87
825.79	215.89
826.10	215.84
826.42	215.84
826.74	215.83
827.05	215.78
827.37	215.78
827.69	215.74
828.00	215.72
828.32	215.68
828.64	215.64
828.95	215.72
829.27	215.65
829.58	215.63
829.90	215.71
830.22	215.67
830.53	215.58
830.85	215.53
831.17	215.50
831.48	215.48
831.80	215.48
832.11	215.46
832.43	215.40
832.75	215.42
833.06	215.56
833.38	215.46
833.69	215.45
834.01	215.46
834.32	215.47
834.64	215.44
834.96	215.45
835.27	215.46
835.59	215.38
835.90	215.34
836.22	215.32
836.53	215.24
836.85	215.24
837.16	215.47
837.48	215.46
837.79	215.50
838.11	215.52
838.42	215.50
838.74	215.56
839.05	215.56
839.37	215.53
839.68	215.38
840.00	215.37
840.31	215.44
840.63	215.37
840.94	215.33
841.26	215.31
841.57	215.29
841.88	215.27
842.20	215.22
842.51	215.22
842.83	215.24
843.14	215.42
843.46	215.42
843.77	215.26
844.08	215.24
844.40	215.16
844.71	215.11
845.03	215.12
845.34	215.06
845.65	215.05
845.97	215.07
846.28	215.07
846.60	215.12
846.91	215.06
847.22	215.07
847.54	215.10
847.85	215.11
848.16	215.10
848.48	215.10
848.79	215.23
849.10	215.21
849.42	215.16
849.73	214.95
850.04	214.93
850.36	214.89
850.67	214.91
850.98	214.93
851.30	214.93
851.61	214.92
851.92	214.89
852.23	214.93
852.55	214.90
852.86	214.90
853.17	214.89
853.49	214.92
853.80	214.95
854.11	214.97
854.42	215.00
854.74	214.95
855.05	214.94
855.36	214.78
855.67	214.79
855.99	214.84
856.30	215.07
856.61	215.06
856.92	215.02
857.23	215.02
857.55	214.99
857.86	214.95
858.17	214.98
858.48	214.93
858.79	214.86
859.11	214.90
859.42	214.88
859.73	214.84
860.04	214.81
860.35	214.76
860.66	214.66
860.98	214.62
861.29	214.66
861.60	214.67
861.91	214.72
862.22	214.67
862.53	214.62
862.84	214.39
863.16	214.42
863.47	214.38
863.78	214.36
864.09	214.35
864.40	214.37
864.71	214.35
865.02	214.40
865.33	214.38
865.64	214.34
865.95	214.35
866.27	214.49
866.58	214.48
866.89	214.51
867.20	214.54
867.51	214.53
867.82	214.49
868.13	214.55
868.44	214.50
868.75	214.55
869.06	214.56
869.37	214.62
869.68	214.56
869.99	214.63
870.30	214.60
870.61	214.65
870.92	214.63
871.23	214.62
871.54	214.62
871.85	214.67
872.16	214.70
872.47	214.66
872.78	214.53
873.09	214.55
873.40	214.52
873.71	214.53
874.02	214.53
874.33	214.52
874.64	214.44
874.95	214.48
875.26	214.44
875.56	214.40
875.87	214.36
876.18	214.36
876.49	214.54
876.80	214.54
877.11	214.52
877.42	214.55
877.73	214.54
878.04	214.53
878.35	214.55
878.66	214.55
878.96	214.54
879.27	214.54
879.58	214.53
879.89	214.52
880.20	214.57
880.51	214.55
880.82	214.56
881.12	214.59
881.43	214.53
881.74	214.50
882.05	214.51
882.36	214.54
882.67	214.56
882.97	214.35
883.28	214.33
883.59	214.34
883.90	214.36
884.21	214.42
884.51	214.43
884.82	214.37
885.13	214.39
885.44	214.41
885.74	214.41
886.05	214.38
886.36	214.38
886.67	214.34
886.98	214.48
887.28	214.49
887.59	214.48
887.90	214.51
888.20	214.50
888.51	214.54
888.82	214.49
889.13	214.50
889.43	214.65
889.74	214.65
890.05	214.65
890.35	214.60
890.66	214.54
890.97	214.47
891.28	214.46
891.58	214.46
891.89	214.43
892.20	214.40
892.50	214.38
892.81	214.42
893.12	214.36
893.42	214.25
893.73	214.28
894.04	214.32
894.34	214.34
894.65	214.36
894.95	214.32
895.26	214.37
895.57	214.49
895.87	214.33
896.18	214.36
896.48	214.36
896.79	214.33
897.10	214.37
897.40	214.40
897.71	214.46
898.01	214.44
898.32	214.49
898.63	214.49
898.93	214.51
899.24	214.51
899.54	214.51
899.85	214.48
900.15	214.45
900.46	214.42
900.76	214.41
901.07	214.39
901.38	214.39
901.68	214.40
901.99	214.27
902.29	214.25
902.60	214.26
902.90	214.21
903.21	214.23
903.51	214.19
903.82	214.25
904.12	214.18
904.43	214.16
904.73	214.13
905.03	214.16
905.34	214.36
905.64	214.35
905.95	214.36
906.25	214.35
906.56	214.35
906.86	214.36
907.17	214.36
907.47	214.39
907.77	214.39
908.08	214.33
908.38	214.33
908.69	214.34
908.99	214.39
909.30	214.43
909.60	214.45
909.90	214.49
910.21	214.39
910.51	214.40
910.81	214.42
911.12	214.45
911.42	214.45
911.73	214.22
912.03	214.22
912.33	214.27
912.64	214.28
912.94	214.26
913.24	214.21
913.55	214.19
913.85	214.16
914.15	214.19
914.46	214.22
914.76	214.19
915.06	214.17
915.37	214.11
915.67	214.12
915.97	214.12
916.27	214.07
916.58	214.11
916.88	214.10
917.18	214.08
917.49	214.21
917.79	214.18
918.09	214.20
918.39	214.25
918.70	214.21
919.00	214.19
919.30	214.30
919.60	214.29
919.91	214.28
920.21	214.33
920.51	214.24
920.81	214.21
921.12	214.30
921.42	214.31
921.72	214.29
922.02	214.29
922.32	214.31
922.63	214.31
922.93	214.39
923.23	214.40
923.53	214.38
923.83	214.23
924.13	214.27
924.44	214.30
924.74	214.33
925.04	214.41
925.34	214.45
925.64	214.37
925.94	214.40
926.24	214.50
926.55	214.47
926.85	214.53
927.15	214.55
927.45	214.51
927.75	214.53
928.05	214.55
928.35	214.52
928.65	214.54
928.95	214.58
929.26	214.50
929.56	214.53
929.86	214.55
930.16	214.54
930.46	214.51
930.76	214.51
931.06	214.38
931.36	214.33
931.66	214.34
931.96	214.35
932.26	214.35
932.56	214.27
932.86	214.28
933.16	214.27
933.46	214.24
933.76	214.22
934.06	214.25
934.36	214.33
934.66	214.32
934.96	214.30
935.26	214.30
935.56	214.33
935.86	214.31
936.16	214.29
936.46	214.28
936.76	214.27
937.06	214.23
937.36	214.28
937.66	214.26
937.96	214.21
938.26	214.18
938.56	214.14
938.86	214.15
939.16	214.18
939.46	214.20
939.76	214.21
940.06	214.19
940.35	214.13
940.65	213.97
940.95	213.98
941.25	213.93
941.55	213.88
941.85	213.88
942.15	213.90
942.45	213.93
942.75	213.88
943.04	213.90
943.34	213.94
943.64	213.92
943.94	213.90
944.24	213.91
944.54	213.92
944.84	213.92
945.13	213.86
945.43	213.83
945.73	213.79
946.03	213.77
946.33	213.77
946.62	213.74
946.92	213.79
947.22	213.79
947.52	213.81
947.82	213.84
948.11	213.80
948.41	213.76
948.71	213.71
949.01	213.74
949.31	213.70
949.60	213.71
949.90	213.70
950.20	213.71
950.50	213.72
950.79	213.72
951.09	213.76
951.39	213.74
951.69	213.71
951.98	213.79
952.28	213.83
952.58	213.83
952.87	213.85
953.17	213.84
953.47	213.83
953.76	213.83
954.06	213.79
954.36	213.78
954.66	213.76
954.95	213.82
955.25	213.84
955.55	213.87
955.84	213.85
956.14	213.88
956.44	213.87
956.73	213.83
957.03	213.82
957.32	213.84
957.62	213.84
957.92	213.92
958.21	213.87
958.51	214.08
958.81	214.11
959.10	214.13
959.40	214.20
959.69	214.20
959.99	214.23
960.29	214.23
960.58	214.22
960.88	214.34
961.17	214.32
961.47	214.33
961.76	214.34
962.06	214.36
962.36	214.34
962.65	214.34
962.95	214.37
963.24	214.37
963.54	214.36
963.83	214.38
964.13	214.34
964.42	214.33
964.72	214.17
965.01	214.15
965.31	214.17
965.60	214.12
965.90	214.24
966.19	214.20
966.49	214.22
966.78	214.23
967.08	214.20
967.37	214.22
967.67	214.19
967.96	214.20
968.26	214.18
968.55	214.21
968.85	214.22
969.14	214.21
969.43	214.22
969.73	214.20
970.02	214.17
970.32	214.14
970.61	214.11
970.91	214.04
971.20	214.06
971.49	213.99
971.79	214.02
972.08	213.92
972.38	213.97
972.67	213.94
972.96	213.97
973.26	213.90
973.55	213.94
973.85	213.91
974.14	213.91
974.43	213.93
974.73	213.90
975.02	213.84
975.31	213.87
975.61	213.86
975.90	213.85
976.19	213.85
976.49	213.87
976.78	213.90
977.07	213.90
977.37	213.87
977.66	213.96
977.95	213.90
978.24	213.89
978.54	213.90
978.83	213.89
979.12	213.87
979.42	213.89
979.71	213.82
980.00	213.85
980.29	213.83
980.59	213.78
980.88	213.85
981.17	213.90
981.46	213.83
981.76	213.81
982.05	213.88
982.34	213.91
982.63	213.89
982.93	213.87
983.22	213.93
983.51	213.95
983.80	213.94
984.09	213.99
984.39	213.97
984.68	213.93
984.97	213.95
985.26	213.92
985.55	213.93
985.85	213.92
986.14	213.98
986.43	214.00
986.72	214.00
987.01	213.93
987.30	213.93
987.59	213.94
987.89	213.95
988.18	213.87
988.47	213.84
988.76	213.81
989.05	213.82
989.34	213.77
989.63	213.81
989.92	213.77
990.22	213.76
990.51	213.74
990.80	213.74
991.09	213.74
991.38	213.78
991.67	213.80
991.96	213.78
992.25	213.75
992.54	213.72
992.83	213.74
993.12	213.71
993.41	213.73
993.70	213.83
993.99	213.88
994.28	213.90
994.58	213.94
994.87	213.94
995.16	213.94
995.45	213.94
995.74	213.88
996.03	213.92
996.32	213.90
996.61	213.98
996.90	214.00
997.19	214.00
997.48	213.97
997.77	213.90
998.06	213.92
998.34	213.92
998.63	213.94
998.92	213.93
999.21	213.94
999.50	213.97
999.79	213.89
1000.08	213.88
1000.37	213.90
1000.66	213.86
1000.95	213.95
1001.24	213.91
1001.53	213.94
1001.82	213.90
1002.11	213.84
1002.40	213.87
1002.68	213.87
1002.97	214.00
1003.26	213.99
1003.55	213.98
1003.84	214.03
1004.13	214.11
1004.42	214.07
1004.71	214.03
1004.99	213.98
1005.28	214.07
1005.57	213.99
1005.86	213.96
1006.15	213.91
1006.44	213.87
1006.72	213.91
1007.01	213.85
1007.30	213.86
1007.59	213.83
1007.88	213.86
1008.17	213.89
1008.45	213.87
1008.74	213.81
1009.03	213.71
1009.32	213.70
1009.60	213.70
1009.89	213.64
1010.18	213.55
1010.47	213.57
1010.76	213.58
1011.04	213.61
1011.33	213.59
1011.62	213.63
1011.91	213.66
1012.19	213.68
1012.48	213.70
1012.77	213.70
1013.05	213.84
1013.34	213.85
1013.63	213.84
1013.92	213.83
1014.20	213.81
1014.49	213.78
1014.78	213.82
1015.06	213.73
1015.35	213.72
1015.64	213.75
1015.92	213.83
1016.21	213.84
1016.50	213.85
1016.78	213.87
1017.07	213.87
1017.36	213.85
1017.64	213.84
1017.93	213.87
1018.22	213.84
1018.50	213.82
1018.79	213.82
1019.08	213.68
1019.36	213.69
1019.65	213.67
1019.93	213.73
1020.22	213.77
1020.51	213.87
1020.79	213.81
1021.08	213.34
1021.36	213.17
1021.65	214.17
1021.94	213.41
1022.22	213.69
1022.51	213.38
1022.79	214.59
1023.08	214.24
1023.36	215.61
1023.65	213.19
>>>>>End Processed Spectral Data<<<<<
