SpectraSuite Data File
++++++++++++++++++++++++++++++++++++
Date: Tue Jan 29 16:03:48 EST 2013
User: group
Dark Spectrum Present: No
Reference Spectrum Present: No
Number of Sampled Component Spectra: 1
Spectrometers: USB2E7196
Integration Time (usec): 65000 (USB2E7196)
Spectra Averaged: 100 (USB2E7196)
Boxcar Smoothing: 10 (USB2E7196)
Correct for Electrical Dark: No (USB2E7196)
Strobe/Lamp Enabled: No (USB2E7196)
Correct for Detector Non-linearity: No (USB2E7196)
Correct for Stray Light: No (USB2E7196)
Number of Pixels in Processed Spectrum: 2048
>>>>>Begin Processed Spectral Data<<<<<
339.09	0.00
339.48	202.84
339.86	204.33
340.24	206.03
340.63	206.99
341.01	212.06
341.39	210.23
341.78	212.07
342.16	212.90
342.54	213.41
342.93	202.20
343.31	212.41
343.69	212.94
344.07	213.41
344.46	213.85
344.84	214.24
345.22	214.40
345.60	214.66
345.99	214.83
346.37	214.97
346.75	215.06
347.13	215.16
347.52	215.25
347.90	215.37
348.28	215.44
348.66	215.56
349.05	215.49
349.43	215.54
349.81	215.59
350.19	215.64
350.57	215.72
350.96	215.78
351.34	215.87
351.72	215.99
352.10	216.09
352.48	216.15
352.87	216.20
353.25	216.24
353.63	216.28
354.01	216.32
354.39	216.38
354.77	216.43
355.15	216.55
355.54	216.59
355.92	216.58
356.30	216.61
356.68	216.79
357.06	216.88
357.44	216.92
357.82	216.99
358.20	217.08
358.58	217.11
358.97	217.18
359.35	217.28
359.73	217.37
360.11	217.43
360.49	217.47
360.87	217.51
361.25	217.62
361.63	217.72
362.01	217.78
362.39	217.79
362.77	217.86
363.15	217.83
363.53	217.83
363.91	217.86
364.29	217.87
364.67	217.70
365.05	217.72
365.43	217.78
365.81	217.77
366.19	217.84
366.57	217.96
366.95	217.95
367.33	217.92
367.71	217.90
368.09	217.89
368.47	217.88
368.85	217.88
369.23	217.87
369.61	217.83
369.99	217.89
370.37	217.88
370.75	217.96
371.13	217.91
371.51	217.87
371.89	217.85
372.27	217.85
372.65	217.84
373.03	217.77
373.41	217.71
373.78	217.70
374.16	217.58
374.54	217.49
374.92	217.42
375.30	217.39
375.68	217.31
376.06	217.31
376.44	217.26
376.82	217.22
377.19	217.17
377.57	217.08
377.95	217.01
378.33	216.97
378.71	216.79
379.09	216.78
379.47	216.78
379.84	216.72
380.22	216.65
380.60	216.58
380.98	216.58
381.36	216.53
381.73	216.43
382.11	216.44
382.49	216.40
382.87	216.34
383.25	216.31
383.62	216.53
384.00	216.42
384.38	216.42
384.76	216.42
385.13	216.45
385.51	216.43
385.89	216.35
386.27	216.30
386.64	216.29
387.02	216.25
387.40	216.24
387.78	216.21
388.15	216.22
388.53	216.20
388.91	216.15
389.29	216.12
389.66	216.15
390.04	216.08
390.42	216.09
390.79	216.10
391.17	216.09
391.55	215.81
391.92	215.84
392.30	215.83
392.68	215.79
393.05	215.81
393.43	215.82
393.81	215.80
394.18	215.78
394.56	215.82
394.94	215.85
395.31	215.82
395.69	215.91
396.06	215.95
396.44	215.96
396.82	215.97
397.19	216.09
397.57	216.07
397.95	216.14
398.32	216.13
398.70	216.16
399.07	216.23
399.45	216.33
399.82	216.37
400.20	216.40
400.58	216.45
400.95	216.42
401.33	216.53
401.70	216.75
402.08	216.91
402.45	216.96
402.83	217.09
403.20	217.23
403.58	217.30
403.95	217.42
404.33	217.62
404.71	217.74
405.08	218.03
405.46	218.20
405.83	218.37
406.21	218.57
406.58	218.79
406.96	218.99
407.33	219.20
407.70	219.46
408.08	219.95
408.45	220.29
408.83	220.68
409.20	221.00
409.58	221.27
409.95	221.68
410.33	222.16
410.70	222.54
411.08	223.07
411.45	223.64
411.82	224.18
412.20	224.85
412.57	225.67
412.95	226.20
413.32	227.02
413.69	227.80
414.07	228.66
414.44	229.63
414.82	230.64
415.19	231.79
415.56	232.95
415.94	234.02
416.31	235.40
416.68	236.72
417.06	238.27
417.43	239.76
417.81	241.44
418.18	243.17
418.55	245.05
418.93	246.99
419.30	249.01
419.67	251.21
420.04	253.39
420.42	255.68
420.79	258.38
421.16	261.08
421.54	263.92
421.91	266.83
422.28	269.83
422.66	272.96
423.03	276.08
423.40	279.27
423.77	282.81
424.15	286.34
424.52	290.05
424.89	294.08
425.26	298.03
425.64	301.79
426.01	305.94
426.38	310.28
426.75	314.65
427.13	319.22
427.50	323.98
427.87	329.02
428.24	334.02
428.61	338.84
428.99	344.14
429.36	349.93
429.73	355.65
430.10	361.30
430.47	367.21
430.85	373.38
431.22	379.87
431.59	386.68
431.96	393.24
432.33	400.45
432.70	407.46
433.08	415.67
433.45	423.44
433.82	431.12
434.19	439.71
434.56	448.14
434.93	456.18
435.30	464.17
435.68	472.96
436.05	481.61
436.42	490.18
436.79	498.10
437.16	506.53
437.53	515.43
437.90	524.32
438.27	532.89
438.64	541.73
439.01	550.02
439.38	557.33
439.75	564.42
440.13	572.65
440.50	580.26
440.87	586.44
441.24	592.86
441.61	599.92
441.98	605.12
442.35	611.17
442.72	617.20
443.09	622.98
443.46	626.58
443.83	629.04
444.20	631.15
444.57	634.12
444.94	635.53
445.31	636.86
445.68	638.08
446.05	638.68
446.42	637.84
446.79	636.89
447.16	635.81
447.53	635.00
447.90	631.61
448.27	628.41
448.64	623.92
449.01	620.66
449.37	614.96
449.74	609.39
450.11	602.71
450.48	595.55
450.85	588.40
451.22	582.14
451.59	576.26
451.96	570.64
452.33	563.02
452.70	556.13
453.07	547.97
453.43	539.74
453.80	531.73
454.17	524.09
454.54	516.80
454.91	508.95
455.28	501.35
455.65	494.34
456.02	487.22
456.38	481.13
456.75	473.62
457.12	467.39
457.49	461.20
457.86	455.31
458.23	450.23
458.59	444.50
458.96	438.70
459.33	433.55
459.70	428.40
460.07	424.37
460.43	419.68
460.80	415.28
461.17	411.40
461.54	407.38
461.91	403.47
462.27	399.52
462.64	396.22
463.01	392.53
463.38	388.98
463.74	385.38
464.11	382.28
464.48	379.55
464.85	376.53
465.21	374.17
465.58	371.63
465.95	368.61
466.32	366.14
466.68	363.66
467.05	361.21
467.42	358.77
467.78	356.18
468.15	353.76
468.52	351.95
468.88	349.63
469.25	347.52
469.62	345.86
469.98	344.01
470.35	342.31
470.72	340.72
471.08	338.99
471.45	337.59
471.82	336.11
472.18	334.51
472.55	333.40
472.92	332.09
473.28	330.98
473.65	329.89
474.02	328.86
474.38	328.07
474.75	327.35
475.11	326.58
475.48	326.09
475.85	325.65
476.21	325.18
476.58	324.85
476.94	324.66
477.31	324.36
477.67	324.16
478.04	324.03
478.41	324.00
478.77	324.21
479.14	324.16
479.50	324.29
479.87	324.58
480.23	324.93
480.60	325.21
480.96	325.48
481.33	326.08
481.69	326.62
482.06	327.14
482.42	327.66
482.79	328.31
483.15	329.11
483.52	330.07
483.88	331.02
484.25	331.95
484.61	332.95
484.98	334.02
485.34	335.33
485.71	336.73
486.07	338.21
486.44	339.47
486.80	341.09
487.17	342.78
487.53	344.62
487.90	346.48
488.26	348.51
488.62	350.65
488.99	352.67
489.35	354.85
489.72	357.20
490.08	359.68
490.44	362.20
490.81	364.87
491.17	367.60
491.54	370.59
491.90	373.65
492.26	376.90
492.63	380.32
492.99	383.81
493.36	387.47
493.72	391.32
494.08	395.30
494.45	399.53
494.81	403.91
495.17	408.33
495.54	413.01
495.90	417.80
496.26	422.74
496.63	427.94
496.99	433.28
497.35	438.92
497.72	444.71
498.08	450.65
498.44	456.74
498.80	463.11
499.17	469.56
499.53	476.23
499.89	483.09
500.26	490.03
500.62	497.09
500.98	504.49
501.34	511.90
501.71	519.69
502.07	527.44
502.43	535.35
502.79	543.42
503.16	551.76
503.52	560.34
503.88	568.99
504.24	577.99
504.60	587.04
504.97	596.20
505.33	605.45
505.69	615.27
506.05	625.16
506.41	634.90
506.78	644.92
507.14	655.19
507.50	665.56
507.86	676.23
508.22	686.95
508.59	697.57
508.95	708.55
509.31	719.78
509.67	731.15
510.03	742.62
510.39	754.41
510.75	766.22
511.12	778.10
511.48	790.17
511.84	802.37
512.20	814.58
512.56	827.11
512.92	839.79
513.28	852.28
513.64	864.89
514.00	877.71
514.37	890.54
514.73	903.48
515.09	916.41
515.45	929.07
515.81	941.97
516.17	955.11
516.53	968.20
516.89	981.13
517.25	994.15
517.61	1007.43
517.97	1020.65
518.33	1033.63
518.69	1047.00
519.05	1060.49
519.41	1073.97
519.77	1087.72
520.13	1100.79
520.49	1113.78
520.85	1126.97
521.21	1140.03
521.57	1153.48
521.93	1166.32
522.29	1179.86
522.65	1193.32
523.01	1206.73
523.37	1219.69
523.73	1232.72
524.09	1245.72
524.45	1258.88
524.81	1272.14
525.17	1285.33
525.53	1298.22
525.89	1311.24
526.25	1324.02
526.61	1336.61
526.97	1349.25
527.33	1361.82
527.68	1375.07
528.04	1388.36
528.40	1401.37
528.76	1414.47
529.12	1426.99
529.48	1439.92
529.84	1451.96
530.20	1464.39
530.56	1476.79
530.91	1489.77
531.27	1502.48
531.63	1515.06
531.99	1527.65
532.35	1539.56
532.71	1551.67
533.07	1564.21
533.42	1576.11
533.78	1587.82
534.14	1599.68
534.50	1610.62
534.86	1621.97
535.21	1632.51
535.57	1643.59
535.93	1654.53
536.29	1665.50
536.65	1676.66
537.00	1687.51
537.36	1698.50
537.72	1709.20
538.08	1720.24
538.44	1730.87
538.79	1741.49
539.15	1751.85
539.51	1762.16
539.87	1773.17
540.22	1783.61
540.58	1794.28
540.94	1804.89
541.29	1814.98
541.65	1824.30
542.01	1834.67
542.37	1844.35
542.72	1854.25
543.08	1863.84
543.44	1873.91
543.79	1882.85
544.15	1892.18
544.51	1901.83
544.87	1911.42
545.22	1920.22
545.58	1928.82
545.94	1937.39
546.29	1945.75
546.65	1954.01
547.01	1961.96
547.36	1969.45
547.72	1977.07
548.07	1984.51
548.43	1992.11
548.79	1999.71
549.14	2007.78
549.50	2015.98
549.86	2023.68
550.21	2030.78
550.57	2038.11
550.92	2044.74
551.28	2052.04
551.64	2059.13
551.99	2066.44
552.35	2073.38
552.70	2080.19
553.06	2086.76
553.41	2092.89
553.77	2099.30
554.13	2105.49
554.48	2112.49
554.84	2119.36
555.19	2125.62
555.55	2132.00
555.90	2138.15
556.26	2144.83
556.61	2150.54
556.97	2155.23
557.32	2160.97
557.68	2167.35
558.03	2172.98
558.39	2178.05
558.74	2183.90
559.10	2189.42
559.45	2195.00
559.81	2200.53
560.16	2205.96
560.52	2211.73
560.87	2218.21
561.23	2224.09
561.58	2230.68
561.94	2235.75
562.29	2240.64
562.64	2246.77
563.00	2252.07
563.35	2257.60
563.71	2263.34
564.06	2269.02
564.42	2275.10
564.77	2280.25
565.12	2285.37
565.48	2290.79
565.83	2296.44
566.19	2301.98
566.54	2307.41
566.89	2311.97
567.25	2316.49
567.60	2322.26
567.96	2327.64
568.31	2332.20
568.66	2336.36
569.02	2340.22
569.37	2343.92
569.72	2348.33
570.08	2351.78
570.43	2355.10
570.78	2358.20
571.14	2361.02
571.49	2364.27
571.84	2367.89
572.20	2370.90
572.55	2374.24
572.90	2376.47
573.26	2379.56
573.61	2382.12
573.96	2384.32
574.31	2386.43
574.67	2388.61
575.02	2389.69
575.37	2391.09
575.72	2392.01
576.08	2393.76
576.43	2394.29
576.78	2395.33
577.13	2397.30
577.49	2398.81
577.84	2400.23
578.19	2401.81
578.54	2402.67
578.90	2403.94
579.25	2404.05
579.60	2404.24
579.95	2403.74
580.30	2404.32
580.66	2403.63
581.01	2402.11
581.36	2400.14
581.71	2398.96
582.06	2398.16
582.42	2397.43
582.77	2395.62
583.12	2394.24
583.47	2393.24
583.82	2392.82
584.17	2391.67
584.53	2389.52
584.88	2387.67
585.23	2385.84
585.58	2383.72
585.93	2381.77
586.28	2379.70
586.63	2377.44
586.98	2375.43
587.34	2373.83
587.69	2371.49
588.04	2369.83
588.39	2368.68
588.74	2366.21
589.09	2363.85
589.44	2360.94
589.79	2358.75
590.14	2356.97
590.49	2354.29
590.84	2350.60
591.19	2347.78
591.54	2344.57
591.89	2340.73
592.25	2337.58
592.60	2333.69
592.95	2329.78
593.30	2325.69
593.65	2321.31
594.00	2317.16
594.35	2314.22
594.70	2309.50
595.05	2305.12
595.40	2299.61
595.75	2294.10
596.10	2290.58
596.45	2285.90
596.80	2281.50
597.15	2276.22
597.50	2270.35
597.85	2265.56
598.19	2260.52
598.54	2254.77
598.89	2249.94
599.24	2245.59
599.59	2239.60
599.94	2234.01
600.29	2228.36
600.64	2222.65
600.99	2216.26
601.34	2210.86
601.69	2203.95
602.04	2197.77
602.39	2191.29
602.74	2185.60
603.08	2180.09
603.43	2173.81
603.78	2167.05
604.13	2159.84
604.48	2152.90
604.83	2146.96
605.18	2140.78
605.53	2133.85
605.87	2126.91
606.22	2120.11
606.57	2112.22
606.92	2104.49
607.27	2097.51
607.62	2090.86
607.96	2083.84
608.31	2077.32
608.66	2069.45
609.01	2061.95
609.36	2054.89
609.70	2047.09
610.05	2039.34
610.40	2031.10
610.75	2022.82
611.10	2015.27
611.44	2006.72
611.79	1998.01
612.14	1987.93
612.49	1977.42
612.83	1968.26
613.18	1959.05
613.53	1949.73
613.88	1940.34
614.22	1931.74
614.57	1921.86
614.92	1911.43
615.27	1901.31
615.61	1891.33
615.96	1881.76
616.31	1872.21
616.65	1862.71
617.00	1852.94
617.35	1843.25
617.70	1833.57
618.04	1823.45
618.39	1813.07
618.74	1803.37
619.08	1793.74
619.43	1785.21
619.78	1776.99
620.12	1768.22
620.47	1758.54
620.82	1748.25
621.16	1738.37
621.51	1728.41
621.85	1718.56
622.20	1708.05
622.55	1697.53
622.89	1687.67
623.24	1677.98
623.59	1668.21
623.93	1658.11
624.28	1648.45
624.62	1638.32
624.97	1627.99
625.32	1618.35
625.66	1609.65
626.01	1600.71
626.35	1591.22
626.70	1580.98
627.04	1570.80
627.39	1560.73
627.73	1551.50
628.08	1542.38
628.43	1532.66
628.77	1523.43
629.12	1514.56
629.46	1506.65
629.81	1498.15
630.15	1488.33
630.50	1478.39
630.84	1467.85
631.19	1457.92
631.53	1448.47
631.88	1438.18
632.22	1428.13
632.57	1418.71
632.91	1408.47
633.26	1398.63
633.60	1389.10
633.95	1379.73
634.29	1370.39
634.64	1360.97
634.98	1351.01
635.32	1341.81
635.67	1333.40
636.01	1324.01
636.36	1314.12
636.70	1304.61
637.05	1295.30
637.39	1286.50
637.73	1277.87
638.08	1270.33
638.42	1262.04
638.77	1253.24
639.11	1245.15
639.45	1237.34
639.80	1228.73
640.14	1220.09
640.49	1211.12
640.83	1202.28
641.17	1194.30
641.52	1185.89
641.86	1177.34
642.20	1169.45
642.55	1160.80
642.89	1151.85
643.23	1143.21
643.58	1135.17
643.92	1126.10
644.26	1117.49
644.61	1109.04
644.95	1100.39
645.29	1091.14
645.64	1082.06
645.98	1073.69
646.32	1065.70
646.66	1057.19
647.01	1048.73
647.35	1040.42
647.69	1032.10
648.04	1023.70
648.38	1014.68
648.72	1006.01
649.06	997.56
649.41	989.48
649.75	981.48
650.09	973.61
650.43	965.53
650.78	957.35
651.12	949.74
651.46	942.33
651.80	935.07
652.14	927.71
652.49	920.20
652.83	912.88
653.17	905.06
653.51	897.45
653.85	890.11
654.20	882.91
654.54	875.39
654.88	868.32
655.22	861.28
655.56	854.37
655.90	847.74
656.25	841.05
656.59	833.94
656.93	827.00
657.27	819.93
657.61	813.11
657.95	807.03
658.29	801.19
658.64	795.04
658.98	788.59
659.32	782.08
659.66	775.90
660.00	769.59
660.34	763.70
660.68	757.61
661.02	751.45
661.36	745.62
661.70	739.91
662.05	734.21
662.39	728.70
662.73	723.33
663.07	717.89
663.41	712.38
663.75	706.84
664.09	701.17
664.43	695.81
664.77	690.49
665.11	684.69
665.45	678.78
665.79	672.99
666.13	667.32
666.47	661.85
666.81	656.46
667.15	651.18
667.49	645.99
667.83	640.73
668.17	635.58
668.51	630.48
668.85	625.60
669.19	620.77
669.53	615.90
669.87	610.94
670.21	606.25
670.55	601.58
670.89	597.20
671.23	593.03
671.57	588.68
671.91	584.36
672.25	580.29
672.58	576.24
672.92	572.22
673.26	568.39
673.60	564.64
673.94	560.88
674.28	557.30
674.62	553.61
674.96	550.01
675.30	546.49
675.64	542.92
675.97	539.50
676.31	535.93
676.65	532.32
676.99	528.87
677.33	525.05
677.67	521.38
678.01	517.62
678.34	514.01
678.68	510.54
679.02	507.02
679.36	503.35
679.70	499.77
680.04	496.34
680.37	492.96
680.71	489.65
681.05	486.54
681.39	483.35
681.73	480.24
682.06	477.26
682.40	474.25
682.74	471.13
683.08	467.94
683.42	464.84
683.75	461.91
684.09	458.99
684.43	456.20
684.77	453.30
685.10	450.43
685.44	447.57
685.78	444.67
686.12	442.01
686.45	439.29
686.79	436.63
687.13	434.10
687.46	431.52
687.80	428.87
688.14	425.99
688.48	423.45
688.81	420.82
689.15	418.29
689.49	415.65
689.82	413.10
690.16	410.53
690.50	408.08
690.83	405.62
691.17	403.08
691.51	400.70
691.84	398.56
692.18	396.47
692.52	394.30
692.85	392.24
693.19	390.08
693.52	387.97
693.86	385.79
694.20	383.66
694.53	381.54
694.87	379.40
695.21	377.39
695.54	375.21
695.88	373.10
696.21	370.88
696.55	368.86
696.88	366.89
697.22	364.97
697.56	363.14
697.89	361.33
698.23	359.62
698.56	357.92
698.90	356.18
699.23	354.26
699.57	352.40
699.90	350.62
700.24	348.89
700.58	347.20
700.91	345.62
701.25	344.05
701.58	342.51
701.92	340.97
702.25	339.39
702.59	337.85
702.92	336.36
703.26	334.90
703.59	333.48
703.93	332.28
704.26	330.87
704.60	329.38
704.93	327.92
705.26	326.42
705.60	324.95
705.93	323.48
706.27	322.24
706.60	321.02
706.94	319.78
707.27	318.41
707.61	317.12
707.94	315.80
708.27	314.34
708.61	312.92
708.94	311.58
709.28	310.34
709.61	309.11
709.94	307.92
710.28	306.69
710.61	305.50
710.95	304.07
711.28	303.02
711.61	301.89
711.95	300.77
712.28	299.65
712.61	298.49
712.95	297.47
713.28	296.47
713.61	295.36
713.95	294.25
714.28	293.26
714.61	292.24
714.95	291.24
715.28	290.27
715.61	289.27
715.95	288.36
716.28	287.45
716.61	286.52
716.95	285.56
717.28	284.66
717.61	283.75
717.94	282.89
718.28	281.87
718.61	281.03
718.94	280.17
719.27	279.33
719.61	278.54
719.94	277.64
720.27	276.71
720.60	275.89
720.94	275.16
721.27	274.46
721.60	273.78
721.93	273.07
722.27	272.48
722.60	271.83
722.93	271.15
723.26	270.47
723.59	269.82
723.93	269.19
724.26	268.60
724.59	267.97
724.92	267.40
725.25	266.91
725.59	266.35
725.92	265.83
726.25	265.29
726.58	264.73
726.91	264.17
727.24	263.68
727.57	263.12
727.91	262.51
728.24	261.93
728.57	261.30
728.90	260.75
729.23	260.13
729.56	259.70
729.89	259.15
730.22	258.60
730.55	258.06
730.89	257.55
731.22	257.01
731.55	256.52
731.88	256.02
732.21	255.49
732.54	254.95
732.87	254.43
733.20	253.94
733.53	253.48
733.86	253.08
734.19	252.58
734.52	252.22
734.85	251.96
735.18	251.51
735.51	251.19
735.84	250.76
736.17	250.39
736.50	249.92
736.83	249.79
737.16	249.39
737.49	249.04
737.82	248.67
738.15	248.31
738.48	247.91
738.81	247.54
739.14	247.12
739.47	246.74
739.80	246.42
740.13	246.08
740.46	245.71
740.79	245.29
741.12	244.99
741.45	244.57
741.78	244.08
742.11	243.86
742.44	243.47
742.77	243.22
743.10	242.90
743.43	242.55
743.75	241.98
744.08	241.94
744.41	241.57
744.74	241.19
745.07	240.82
745.40	240.57
745.73	240.29
746.06	239.99
746.39	239.69
746.71	239.32
747.04	238.99
747.37	238.63
747.70	238.39
748.03	238.06
748.36	237.85
748.68	237.57
749.01	237.18
749.34	236.93
749.67	236.63
750.00	236.37
750.33	236.25
750.65	235.99
750.98	235.49
751.31	235.25
751.64	235.04
751.97	234.95
752.29	234.68
752.62	234.35
752.95	234.10
753.28	233.87
753.60	233.63
753.93	233.46
754.26	233.28
754.59	232.99
754.91	232.73
755.24	232.46
755.57	232.25
755.90	232.04
756.22	231.78
756.55	231.53
756.88	231.28
757.20	230.93
757.53	230.70
757.86	230.49
758.19	230.30
758.51	230.12
758.84	229.81
759.17	229.59
759.49	229.45
759.82	229.38
760.15	229.22
760.47	229.05
760.80	228.80
761.13	228.66
761.45	228.50
761.78	228.35
762.11	228.19
762.43	228.00
762.76	227.84
763.08	227.68
763.41	227.55
763.74	227.43
764.06	227.29
764.39	227.15
764.71	227.02
765.04	226.87
765.37	226.70
765.69	226.59
766.02	226.48
766.34	226.33
766.67	226.07
767.00	225.99
767.32	225.96
767.65	225.97
767.97	225.83
768.30	225.73
768.62	225.62
768.95	225.48
769.27	225.37
769.60	225.27
769.92	225.13
770.25	224.98
770.57	224.79
770.90	224.67
771.22	224.55
771.55	224.43
771.87	224.32
772.20	224.22
772.52	224.27
772.85	224.41
773.17	224.31
773.50	224.25
773.82	224.11
774.15	223.97
774.47	223.76
774.80	223.66
775.12	223.54
775.45	223.44
775.77	223.38
776.09	223.30
776.42	223.21
776.74	223.19
777.07	223.12
777.39	223.07
777.72	222.98
778.04	222.88
778.36	222.82
778.69	222.73
779.01	222.67
779.33	222.42
779.66	222.10
779.98	221.99
780.31	221.89
780.63	221.89
780.95	221.84
781.28	221.76
781.60	221.66
781.92	221.58
782.25	221.50
782.57	221.40
782.89	221.33
783.22	221.25
783.54	221.13
783.86	221.08
784.19	220.99
784.51	220.98
784.83	220.93
785.16	220.86
785.48	220.81
785.80	220.77
786.12	220.71
786.45	220.66
786.77	220.63
787.09	220.55
787.42	220.38
787.74	220.32
788.06	220.28
788.38	220.23
788.71	220.20
789.03	220.19
789.35	220.17
789.67	220.10
789.99	220.06
790.32	220.01
790.64	219.98
790.96	220.12
791.28	219.97
791.61	219.92
791.93	219.88
792.25	219.87
792.57	219.95
792.89	219.86
793.21	219.81
793.54	219.74
793.86	219.70
794.18	219.66
794.50	219.56
794.82	219.50
795.14	219.47
795.47	219.42
795.79	219.34
796.11	219.26
796.43	219.19
796.75	219.15
797.07	219.13
797.39	219.07
797.71	218.87
798.04	218.85
798.36	218.81
798.68	218.75
799.00	218.72
799.32	218.58
799.64	218.62
799.96	218.59
800.28	218.60
800.60	218.56
800.92	218.57
801.24	218.54
801.56	218.54
801.89	218.47
802.21	218.49
802.53	218.43
802.85	218.45
803.17	218.49
803.49	218.41
803.81	218.35
804.13	218.34
804.45	218.28
804.77	218.29
805.09	218.27
805.41	218.22
805.73	218.15
806.05	218.05
806.37	217.99
806.69	217.93
807.01	217.90
807.33	217.92
807.65	217.83
807.97	217.90
808.28	217.83
808.60	217.86
808.92	217.76
809.24	217.88
809.56	217.83
809.88	217.73
810.20	217.75
810.52	217.78
810.84	217.72
811.16	217.67
811.48	217.63
811.80	217.67
812.12	217.65
812.43	217.65
812.75	217.65
813.07	217.60
813.39	217.58
813.71	217.54
814.03	217.47
814.35	217.47
814.67	217.39
814.98	217.35
815.30	217.32
815.62	217.32
815.94	217.15
816.26	217.13
816.58	217.15
816.89	217.12
817.21	217.02
817.53	217.02
817.85	216.99
818.17	216.99
818.48	216.93
818.80	216.94
819.12	216.90
819.44	216.84
819.76	216.83
820.07	216.83
820.39	216.79
820.71	216.83
821.03	216.82
821.34	216.78
821.66	216.80
821.98	216.80
822.30	216.75
822.61	216.86
822.93	216.82
823.25	216.80
823.57	216.79
823.88	216.85
824.20	216.84
824.52	216.87
824.83	216.84
825.15	216.81
825.47	216.81
825.79	216.80
826.10	216.77
826.42	216.77
826.74	216.77
827.05	216.79
827.37	216.73
827.69	216.69
828.00	216.69
828.32	216.69
828.64	216.65
828.95	216.77
829.27	216.72
829.58	216.73
829.90	216.73
830.22	216.70
830.53	216.63
830.85	216.60
831.17	216.55
831.48	216.57
831.80	216.55
832.11	216.48
832.43	216.43
832.75	216.45
833.06	216.53
833.38	216.47
833.69	216.44
834.01	216.43
834.32	216.43
834.64	216.40
834.96	216.40
835.27	216.37
835.59	216.29
835.90	216.23
836.22	216.19
836.53	216.12
836.85	216.11
837.16	216.28
837.48	216.25
837.79	216.30
838.11	216.29
838.42	216.27
838.74	216.28
839.05	216.27
839.37	216.27
839.68	216.14
840.00	216.11
840.31	216.11
840.63	216.10
840.94	216.09
841.26	216.04
841.57	216.00
841.88	216.03
842.20	215.97
842.51	215.95
842.83	215.96
843.14	216.14
843.46	216.14
843.77	216.01
844.08	216.03
844.40	215.98
844.71	215.93
845.03	215.91
845.34	215.90
845.65	215.87
845.97	215.85
846.28	215.87
846.60	215.89
846.91	215.86
847.22	215.83
847.54	215.88
847.85	215.91
848.16	215.86
848.48	215.81
848.79	215.89
849.10	215.89
849.42	215.92
849.73	215.73
850.04	215.70
850.36	215.63
850.67	215.65
850.98	215.63
851.30	215.65
851.61	215.62
851.92	215.61
852.23	215.69
852.55	215.70
852.86	215.72
853.17	215.72
853.49	215.75
853.80	215.78
854.11	215.75
854.42	215.77
854.74	215.79
855.05	215.81
855.36	215.71
855.67	215.74
855.99	215.74
856.30	216.00
856.61	216.00
856.92	216.02
857.23	216.00
857.55	216.00
857.86	215.98
858.17	216.02
858.48	215.98
858.79	215.93
859.11	215.94
859.42	215.89
859.73	215.87
860.04	215.88
860.35	215.85
860.66	215.79
860.98	215.77
861.29	215.80
861.60	215.76
861.91	215.81
862.22	215.76
862.53	215.68
862.84	215.45
863.16	215.52
863.47	215.48
863.78	215.45
864.09	215.47
864.40	215.50
864.71	215.50
865.02	215.54
865.33	215.55
865.64	215.51
865.95	215.51
866.27	215.67
866.58	215.63
866.89	215.62
867.20	215.62
867.51	215.59
867.82	215.58
868.13	215.65
868.44	215.60
868.75	215.62
869.06	215.65
869.37	215.66
869.68	215.55
869.99	215.57
870.30	215.61
870.61	215.62
870.92	215.59
871.23	215.60
871.54	215.61
871.85	215.62
872.16	215.62
872.47	215.60
872.78	215.45
873.09	215.51
873.40	215.50
873.71	215.51
874.02	215.52
874.33	215.48
874.64	215.41
874.95	215.47
875.26	215.44
875.56	215.43
875.87	215.43
876.18	215.44
876.49	215.64
876.80	215.61
877.11	215.56
877.42	215.55
877.73	215.53
878.04	215.47
878.35	215.48
878.66	215.48
878.96	215.52
879.27	215.51
879.58	215.50
879.89	215.51
880.20	215.57
880.51	215.55
880.82	215.57
881.12	215.61
881.43	215.54
881.74	215.53
882.05	215.50
882.36	215.50
882.67	215.54
882.97	215.32
883.28	215.30
883.59	215.30
883.90	215.31
884.21	215.35
884.51	215.35
884.82	215.33
885.13	215.33
885.44	215.31
885.74	215.31
886.05	215.27
886.36	215.27
886.67	215.19
886.98	215.32
887.28	215.33
887.59	215.32
887.90	215.33
888.20	215.33
888.51	215.38
888.82	215.36
889.13	215.32
889.43	215.51
889.74	215.49
890.05	215.50
890.35	215.48
890.66	215.41
890.97	215.39
891.28	215.36
891.58	215.36
891.89	215.34
892.20	215.31
892.50	215.30
892.81	215.28
893.12	215.28
893.42	215.16
893.73	215.15
894.04	215.13
894.34	215.18
894.65	215.18
894.95	215.16
895.26	215.16
895.57	215.30
895.87	215.10
896.18	215.16
896.48	215.17
896.79	215.19
897.10	215.21
897.40	215.23
897.71	215.23
898.01	215.23
898.32	215.30
898.63	215.32
898.93	215.32
899.24	215.34
899.54	215.31
899.85	215.27
900.15	215.29
900.46	215.31
900.76	215.32
901.07	215.30
901.38	215.28
901.68	215.29
901.99	215.16
902.29	215.17
902.60	215.16
902.90	215.13
903.21	215.15
903.51	215.14
903.82	215.21
904.12	215.20
904.43	215.19
904.73	215.14
905.03	215.13
905.34	215.32
905.64	215.29
905.95	215.33
906.25	215.36
906.56	215.32
906.86	215.33
907.17	215.29
907.47	215.33
907.77	215.32
908.08	215.30
908.38	215.31
908.69	215.33
908.99	215.36
909.30	215.38
909.60	215.34
909.90	215.34
910.21	215.25
910.51	215.28
910.81	215.30
911.12	215.33
911.42	215.31
911.73	215.12
912.03	215.12
912.33	215.13
912.64	215.14
912.94	215.16
913.24	215.08
913.55	215.05
913.85	215.03
914.15	215.08
914.46	215.09
914.76	215.04
915.06	215.04
915.37	214.97
915.67	214.95
915.97	214.95
916.27	214.92
916.58	214.95
916.88	214.93
917.18	214.93
917.49	215.05
917.79	215.07
918.09	215.06
918.39	215.17
918.70	215.17
919.00	215.13
919.30	215.21
919.60	215.23
919.91	215.21
920.21	215.22
920.51	215.16
920.81	215.15
921.12	215.20
921.42	215.18
921.72	215.22
922.02	215.22
922.32	215.24
922.63	215.27
922.93	215.34
923.23	215.31
923.53	215.25
923.83	215.12
924.13	215.14
924.44	215.14
924.74	215.15
925.04	215.19
925.34	215.20
925.64	215.10
925.94	215.07
926.24	215.20
926.55	215.16
926.85	215.22
927.15	215.18
927.45	215.21
927.75	215.20
928.05	215.15
928.35	215.16
928.65	215.22
928.95	215.24
929.26	215.15
929.56	215.24
929.86	215.27
930.16	215.23
930.46	215.23
930.76	215.23
931.06	215.12
931.36	215.05
931.66	215.09
931.96	215.14
932.26	215.17
932.56	215.09
932.86	215.11
933.16	215.05
933.46	215.07
933.76	215.01
934.06	215.05
934.36	215.15
934.66	215.15
934.96	215.09
935.26	215.07
935.56	215.13
935.86	215.06
936.16	215.02
936.46	215.03
936.76	215.00
937.06	214.99
937.36	215.03
937.66	215.05
937.96	215.04
938.26	214.98
938.56	214.96
938.86	214.98
939.16	215.04
939.46	215.07
939.76	215.09
940.06	215.13
940.35	215.09
940.65	214.98
940.95	215.00
941.25	214.97
941.55	214.96
941.85	214.89
942.15	214.96
942.45	215.07
942.75	215.06
943.04	215.05
943.34	215.12
943.64	215.07
943.94	215.04
944.24	215.03
944.54	215.04
944.84	215.04
945.13	215.01
945.43	214.96
945.73	214.95
946.03	214.94
946.33	214.90
946.62	214.89
946.92	214.87
947.22	214.87
947.52	214.89
947.82	214.88
948.11	214.88
948.41	214.80
948.71	214.72
949.01	214.73
949.31	214.72
949.60	214.65
949.90	214.68
950.20	214.65
950.50	214.66
950.79	214.66
951.09	214.69
951.39	214.67
951.69	214.66
951.98	214.68
952.28	214.68
952.58	214.69
952.87	214.66
953.17	214.70
953.47	214.66
953.76	214.66
954.06	214.66
954.36	214.66
954.66	214.68
954.95	214.73
955.25	214.75
955.55	214.79
955.84	214.80
956.14	214.80
956.44	214.86
956.73	214.80
957.03	214.83
957.32	214.82
957.62	214.83
957.92	214.86
958.21	214.82
958.51	215.07
958.81	215.11
959.10	215.17
959.40	215.24
959.69	215.27
959.99	215.32
960.29	215.33
960.58	215.31
960.88	215.39
961.17	215.36
961.47	215.38
961.76	215.34
962.06	215.36
962.36	215.34
962.65	215.32
962.95	215.36
963.24	215.34
963.54	215.37
963.83	215.38
964.13	215.37
964.42	215.35
964.72	215.13
965.01	215.12
965.31	215.11
965.60	215.05
965.90	215.18
966.19	215.13
966.49	215.13
966.78	215.13
967.08	215.12
967.37	215.12
967.67	215.07
967.96	215.14
968.26	215.10
968.55	215.13
968.85	215.10
969.14	215.11
969.43	215.10
969.73	215.04
970.02	215.03
970.32	215.04
970.61	215.02
970.91	214.99
971.20	214.96
971.49	214.95
971.79	214.97
972.08	214.83
972.38	214.82
972.67	214.81
972.96	214.86
973.26	214.80
973.55	214.86
973.85	214.84
974.14	214.79
974.43	214.85
974.73	214.83
975.02	214.82
975.31	214.81
975.61	214.81
975.90	214.85
976.19	214.76
976.49	214.80
976.78	214.79
977.07	214.79
977.37	214.80
977.66	214.80
977.95	214.78
978.24	214.79
978.54	214.81
978.83	214.81
979.12	214.81
979.42	214.79
979.71	214.76
980.00	214.78
980.29	214.80
980.59	214.77
980.88	214.79
981.17	214.82
981.46	214.82
981.76	214.84
982.05	214.85
982.34	214.92
982.63	214.88
982.93	214.91
983.22	214.99
983.51	214.97
983.80	215.00
984.09	215.01
984.39	215.00
984.68	214.99
984.97	214.97
985.26	214.92
985.55	214.95
985.85	214.91
986.14	214.93
986.43	214.94
986.72	214.94
987.01	214.91
987.30	214.90
987.59	214.88
987.89	214.88
988.18	214.83
988.47	214.82
988.76	214.85
989.05	214.82
989.34	214.78
989.63	214.84
989.92	214.81
990.22	214.80
990.51	214.80
990.80	214.80
991.09	214.85
991.38	214.90
991.67	214.87
991.96	214.84
992.25	214.85
992.54	214.83
992.83	214.83
993.12	214.83
993.41	214.82
993.70	214.93
993.99	214.98
994.28	215.03
994.58	215.07
994.87	215.01
995.16	215.03
995.45	215.00
995.74	214.92
996.03	214.95
996.32	214.98
996.61	214.98
996.90	214.97
997.19	214.96
997.48	214.95
997.77	214.95
998.06	214.94
998.34	214.92
998.63	214.91
998.92	214.89
999.21	214.91
999.50	214.94
999.79	214.87
1000.08	214.84
1000.37	214.83
1000.66	214.81
1000.95	214.87
1001.24	214.88
1001.53	214.92
1001.82	214.95
1002.11	214.89
1002.40	214.91
1002.68	214.98
1002.97	215.11
1003.26	215.08
1003.55	215.06
1003.84	215.09
1004.13	215.21
1004.42	215.22
1004.71	215.22
1004.99	215.21
1005.28	215.26
1005.57	215.22
1005.86	215.15
1006.15	215.15
1006.44	215.12
1006.72	215.13
1007.01	215.10
1007.30	215.09
1007.59	215.06
1007.88	215.05
1008.17	215.05
1008.45	215.02
1008.74	214.95
1009.03	214.86
1009.32	214.87
1009.60	214.85
1009.89	214.84
1010.18	214.74
1010.47	214.72
1010.76	214.69
1011.04	214.70
1011.33	214.68
1011.62	214.70
1011.91	214.74
1012.19	214.74
1012.48	214.76
1012.77	214.70
1013.05	214.79
1013.34	214.77
1013.63	214.77
1013.92	214.78
1014.20	214.79
1014.49	214.78
1014.78	214.80
1015.06	214.73
1015.35	214.72
1015.64	214.77
1015.92	214.79
1016.21	214.78
1016.50	214.78
1016.78	214.82
1017.07	214.84
1017.36	214.82
1017.64	214.78
1017.93	214.84
1018.22	214.82
1018.50	214.78
1018.79	214.81
1019.08	214.73
1019.36	214.77
1019.65	214.75
1019.93	214.80
1020.22	214.83
1020.51	214.92
1020.79	214.89
1021.08	214.73
1021.36	213.94
1021.65	214.82
1021.94	214.85
1022.22	215.25
1022.51	214.25
1022.79	215.75
1023.08	215.18
1023.36	216.78
1023.65	214.35
>>>>>End Processed Spectral Data<<<<<
