SpectraSuite Data File
++++++++++++++++++++++++++++++++++++
Date: Tue Jan 29 16:35:49 EST 2013
User: group
Dark Spectrum Present: No
Reference Spectrum Present: No
Number of Sampled Component Spectra: 1
Spectrometers: USB2E7196
Integration Time (usec): 65000 (USB2E7196)
Spectra Averaged: 100 (USB2E7196)
Boxcar Smoothing: 10 (USB2E7196)
Correct for Electrical Dark: No (USB2E7196)
Strobe/Lamp Enabled: No (USB2E7196)
Correct for Detector Non-linearity: No (USB2E7196)
Correct for Stray Light: No (USB2E7196)
Number of Pixels in Processed Spectrum: 2048
>>>>>Begin Processed Spectral Data<<<<<
339.09	0.00
339.48	201.82
339.86	203.80
340.24	204.53
340.63	206.32
341.01	210.33
341.39	208.30
341.78	209.82
342.16	211.56
342.54	212.05
342.93	201.06
343.31	211.22
343.69	211.75
344.07	212.19
344.46	212.65
344.84	213.07
345.22	213.28
345.60	213.59
345.99	213.81
346.37	213.95
346.75	214.05
347.13	214.14
347.52	214.22
347.90	214.36
348.28	214.39
348.66	214.48
349.05	214.47
349.43	214.54
349.81	214.63
350.19	214.63
350.57	214.70
350.96	214.81
351.34	214.94
351.72	215.06
352.10	215.17
352.48	215.25
352.87	215.31
353.25	215.37
353.63	215.38
354.01	215.45
354.39	215.54
354.77	215.65
355.15	215.75
355.54	215.81
355.92	215.78
356.30	215.85
356.68	216.05
357.06	216.12
357.44	216.16
357.82	216.21
358.20	216.34
358.58	216.38
358.97	216.44
359.35	216.47
359.73	216.53
360.11	216.61
360.49	216.66
360.87	216.68
361.25	216.71
361.63	216.86
362.01	216.92
362.39	216.93
362.77	216.96
363.15	216.97
363.53	216.97
363.91	217.03
364.29	217.05
364.67	216.86
365.05	216.87
365.43	216.90
365.81	216.93
366.19	217.02
366.57	217.12
366.95	217.10
367.33	217.08
367.71	217.08
368.09	217.08
368.47	217.05
368.85	217.05
369.23	217.11
369.61	217.00
369.99	217.03
370.37	217.05
370.75	217.13
371.13	217.07
371.51	217.06
371.89	217.03
372.27	217.03
372.65	217.01
373.03	217.00
373.41	216.94
373.78	216.91
374.16	216.78
374.54	216.67
374.92	216.64
375.30	216.60
375.68	216.54
376.06	216.53
376.44	216.49
376.82	216.45
377.19	216.36
377.57	216.32
377.95	216.23
378.33	216.15
378.71	215.99
379.09	215.98
379.47	215.97
379.84	215.90
380.22	215.85
380.60	215.79
380.98	215.73
381.36	215.68
381.73	215.60
382.11	215.58
382.49	215.54
382.87	215.48
383.25	215.43
383.62	215.63
384.00	215.53
384.38	215.50
384.76	215.52
385.13	215.57
385.51	215.56
385.89	215.52
386.27	215.53
386.64	215.56
387.02	215.51
387.40	215.45
387.78	215.45
388.15	215.44
388.53	215.41
388.91	215.41
389.29	215.39
389.66	215.41
390.04	215.41
390.42	215.43
390.79	215.45
391.17	215.46
391.55	215.20
391.92	215.21
392.30	215.24
392.68	215.17
393.05	215.16
393.43	215.13
393.81	215.13
394.18	215.05
394.56	215.07
394.94	215.14
395.31	215.13
395.69	215.26
396.06	215.27
396.44	215.32
396.82	215.33
397.19	215.46
397.57	215.45
397.95	215.49
398.32	215.48
398.70	215.51
399.07	215.59
399.45	215.65
399.82	215.69
400.20	215.72
400.58	215.81
400.95	215.79
401.33	215.94
401.70	216.16
402.08	216.28
402.45	216.35
402.83	216.48
403.20	216.61
403.58	216.63
403.95	216.79
404.33	216.95
404.71	217.10
405.08	217.37
405.46	217.53
405.83	217.75
406.21	217.94
406.58	218.18
406.96	218.39
407.33	218.63
407.70	218.93
408.08	219.40
408.45	219.74
408.83	220.16
409.20	220.50
409.58	220.79
409.95	221.25
410.33	221.73
410.70	222.15
411.08	222.69
411.45	223.28
411.82	223.82
412.20	224.48
412.57	225.31
412.95	225.84
413.32	226.72
413.69	227.53
414.07	228.45
414.44	229.44
414.82	230.49
415.19	231.70
415.56	232.90
415.94	234.08
416.31	235.51
416.68	236.89
417.06	238.52
417.43	240.06
417.81	241.81
418.18	243.59
418.55	245.59
418.93	247.63
419.30	249.74
419.67	252.00
420.04	254.29
420.42	256.67
420.79	259.52
421.16	262.28
421.54	265.17
421.91	268.17
422.28	271.31
422.66	274.63
423.03	277.88
423.40	281.26
423.77	284.85
424.15	288.53
424.52	292.42
424.89	296.54
425.26	300.61
425.64	304.51
426.01	308.85
426.38	313.25
426.75	317.81
427.13	322.56
427.50	327.58
427.87	332.83
428.24	338.10
428.61	343.10
428.99	348.66
429.36	354.75
429.73	360.61
430.10	366.41
430.47	372.50
430.85	378.84
431.22	385.53
431.59	392.71
431.96	399.53
432.33	407.05
432.70	414.32
433.08	422.89
433.45	430.99
433.82	438.96
434.19	447.88
434.56	456.60
434.93	464.96
435.30	473.25
435.68	482.34
436.05	491.27
436.42	500.17
436.79	508.22
437.16	516.90
437.53	526.25
437.90	535.48
438.27	544.44
438.64	553.61
439.01	562.17
439.38	569.67
439.75	576.99
440.13	585.37
440.50	593.34
440.87	599.80
441.24	606.48
441.61	613.84
441.98	619.22
442.35	625.58
442.72	631.85
443.09	637.89
443.46	641.66
443.83	644.20
444.20	646.43
444.57	649.64
444.94	651.16
445.31	652.55
445.68	653.93
446.05	654.56
446.42	653.85
446.79	652.87
447.16	651.85
447.53	651.10
447.90	647.85
448.27	644.58
448.64	639.91
449.01	636.50
449.37	630.58
449.74	624.89
450.11	617.98
450.48	610.60
450.85	603.18
451.22	596.72
451.59	590.63
451.96	584.80
452.33	576.92
452.70	569.80
453.07	561.32
453.43	552.69
453.80	544.37
454.17	536.32
454.54	528.80
454.91	520.60
455.28	512.51
455.65	505.02
456.02	497.53
456.38	491.12
456.75	483.27
457.12	476.68
457.49	470.21
457.86	464.00
458.23	458.65
458.59	452.65
458.96	446.58
459.33	441.24
459.70	435.79
460.07	431.52
460.43	426.58
460.80	421.98
461.17	417.98
461.54	413.75
461.91	409.73
462.27	405.59
462.64	402.13
463.01	398.40
463.38	394.68
463.74	390.95
464.11	387.70
464.48	384.83
464.85	381.76
465.21	379.29
465.58	376.67
465.95	373.48
466.32	370.84
466.68	368.24
467.05	365.60
467.42	363.07
467.78	360.39
468.15	357.86
468.52	355.97
468.88	353.47
469.25	351.24
469.62	349.41
469.98	347.46
470.35	345.66
470.72	343.94
471.08	342.13
471.45	340.57
471.82	339.09
472.18	337.45
472.55	336.23
472.92	334.85
473.28	333.60
473.65	332.45
474.02	331.36
474.38	330.48
474.75	329.71
475.11	328.91
475.48	328.31
475.85	327.84
476.21	327.36
476.58	326.96
476.94	326.73
477.31	326.45
477.67	326.22
478.04	326.06
478.41	326.02
478.77	326.17
479.14	326.17
479.50	326.32
479.87	326.59
480.23	326.90
480.60	327.12
480.96	327.41
481.33	328.02
481.69	328.61
482.06	329.12
482.42	329.60
482.79	330.20
483.15	331.04
483.52	331.97
483.88	332.82
484.25	333.79
484.61	334.81
484.98	335.82
485.34	337.11
485.71	338.49
486.07	339.92
486.44	341.26
486.80	342.85
487.17	344.48
487.53	346.30
487.90	348.16
488.26	350.17
488.62	352.31
488.99	354.36
489.35	356.47
489.72	358.89
490.08	361.43
490.44	363.97
490.81	366.62
491.17	369.34
491.54	372.37
491.90	375.43
492.26	378.65
492.63	382.15
492.99	385.63
493.36	389.33
493.72	393.23
494.08	397.26
494.45	401.52
494.81	405.87
495.17	410.37
495.54	415.11
495.90	419.97
496.26	424.92
496.63	430.17
496.99	435.63
497.35	441.20
497.72	447.02
498.08	453.00
498.44	459.10
498.80	465.56
499.17	472.08
499.53	478.81
499.89	485.73
500.26	492.66
500.62	499.80
500.98	507.19
501.34	514.68
501.71	522.52
502.07	530.36
502.43	538.40
502.79	546.59
503.16	554.98
503.52	563.60
503.88	572.27
504.24	581.21
504.60	590.30
504.97	599.55
505.33	608.81
505.69	618.65
506.05	628.60
506.41	638.51
506.78	648.56
507.14	658.83
507.50	669.35
507.86	680.18
508.22	690.98
508.59	701.62
508.95	712.67
509.31	723.95
509.67	735.42
510.03	746.87
510.39	758.59
510.75	770.47
511.12	782.44
511.48	794.65
511.84	806.98
512.20	819.36
512.56	832.08
512.92	845.07
513.28	857.93
513.64	870.74
514.00	883.61
514.37	896.69
514.73	909.91
515.09	922.94
515.45	935.85
515.81	948.94
516.17	962.55
516.53	976.01
516.89	989.20
517.25	1002.48
517.61	1016.11
517.97	1029.59
518.33	1042.80
518.69	1056.42
519.05	1070.26
519.41	1084.01
519.77	1098.02
520.13	1111.36
520.49	1124.59
520.85	1137.94
521.21	1151.37
521.57	1165.13
521.93	1178.31
522.29	1192.10
522.65	1205.84
523.01	1219.61
523.37	1232.98
523.73	1246.39
524.09	1259.57
524.45	1273.03
524.81	1286.61
525.17	1300.08
525.53	1313.34
525.89	1326.87
526.25	1340.05
526.61	1352.98
526.97	1366.21
527.33	1379.26
527.68	1392.89
528.04	1406.50
528.40	1419.65
528.76	1433.16
529.12	1446.20
529.48	1459.57
529.84	1471.93
530.20	1484.83
530.56	1497.41
530.91	1510.66
531.27	1523.44
531.63	1536.33
531.99	1549.27
532.35	1561.61
532.71	1574.07
533.07	1586.99
533.42	1599.34
533.78	1611.69
534.14	1623.93
534.50	1635.10
534.86	1646.78
535.21	1657.68
535.57	1669.31
535.93	1680.87
536.29	1691.92
536.65	1703.48
537.00	1714.61
537.36	1726.24
537.72	1737.27
538.08	1748.84
538.44	1759.96
538.79	1771.41
539.15	1782.48
539.51	1793.36
539.87	1804.67
540.22	1815.51
540.58	1826.71
540.94	1837.81
541.29	1848.08
541.65	1857.94
542.01	1868.81
542.37	1878.92
542.72	1889.25
543.08	1899.09
543.44	1909.62
543.79	1919.16
544.15	1928.70
544.51	1938.69
544.87	1948.67
545.22	1958.06
545.58	1967.07
545.94	1976.08
546.29	1984.59
546.65	1992.96
547.01	2001.23
547.36	2009.16
547.72	2017.20
548.07	2024.77
548.43	2032.42
548.79	2040.39
549.14	2048.53
549.50	2057.00
549.86	2065.15
550.21	2072.61
550.57	2080.33
550.92	2087.15
551.28	2094.69
551.64	2102.04
551.99	2109.72
552.35	2116.86
552.70	2123.74
553.06	2130.38
553.41	2136.75
553.77	2143.33
554.13	2149.83
554.48	2156.82
554.84	2163.97
555.19	2170.54
555.55	2177.17
555.90	2183.60
556.26	2190.45
556.61	2196.63
556.97	2201.51
557.32	2207.19
557.68	2213.73
558.03	2219.62
558.39	2225.04
558.74	2231.05
559.10	2236.59
559.45	2242.13
559.81	2247.78
560.16	2253.48
560.52	2259.43
560.87	2265.83
561.23	2271.72
561.58	2278.40
561.94	2283.68
562.29	2288.37
562.64	2294.40
563.00	2300.00
563.35	2305.55
563.71	2311.33
564.06	2317.08
564.42	2323.05
564.77	2328.15
565.12	2333.40
565.48	2338.51
565.83	2343.96
566.19	2349.25
566.54	2354.73
566.89	2359.33
567.25	2363.79
567.60	2369.51
567.96	2374.58
568.31	2379.13
568.66	2383.63
569.02	2387.41
569.37	2391.15
569.72	2395.43
570.08	2399.01
570.43	2402.13
570.78	2405.16
571.14	2407.82
571.49	2410.88
571.84	2414.34
572.20	2417.19
572.55	2419.98
572.90	2422.13
573.26	2424.94
573.61	2427.54
573.96	2429.59
574.31	2431.52
574.67	2433.29
575.02	2433.79
575.37	2435.18
575.72	2435.68
576.08	2436.83
576.43	2436.99
576.78	2437.44
577.13	2439.02
577.49	2440.01
577.84	2441.08
578.19	2442.31
578.54	2442.57
578.90	2443.17
579.25	2442.82
579.60	2442.54
579.95	2441.67
580.30	2441.76
580.66	2441.04
581.01	2439.37
581.36	2436.88
581.71	2435.47
582.06	2434.34
582.42	2433.51
582.77	2431.10
583.12	2429.45
583.47	2428.07
583.82	2427.33
584.17	2425.98
584.53	2423.70
584.88	2421.51
585.23	2419.31
585.58	2416.94
585.93	2414.99
586.28	2412.68
586.63	2410.32
586.98	2408.08
587.34	2406.12
587.69	2403.42
588.04	2401.23
588.39	2399.72
588.74	2397.21
589.09	2394.34
589.44	2391.11
589.79	2388.58
590.14	2386.68
590.49	2383.85
590.84	2379.80
591.19	2376.70
591.54	2373.37
591.89	2369.29
592.25	2365.92
592.60	2361.67
592.95	2357.45
593.30	2353.05
593.65	2348.66
594.00	2344.02
594.35	2341.12
594.70	2336.42
595.05	2331.97
595.40	2326.45
595.75	2320.29
596.10	2316.49
596.45	2311.65
596.80	2306.93
597.15	2301.60
597.50	2295.75
597.85	2290.69
598.19	2285.53
598.54	2279.54
598.89	2274.31
599.24	2269.76
599.59	2263.56
599.94	2257.81
600.29	2251.87
600.64	2245.89
600.99	2239.05
601.34	2233.58
601.69	2226.46
602.04	2219.99
602.39	2213.23
602.74	2207.01
603.08	2201.61
603.43	2195.02
603.78	2188.14
604.13	2181.03
604.48	2173.70
604.83	2167.36
605.18	2161.13
605.53	2154.08
605.87	2147.01
606.22	2140.07
606.57	2131.95
606.92	2123.97
607.27	2116.86
607.62	2110.21
607.96	2103.14
608.31	2096.67
608.66	2088.79
609.01	2081.12
609.36	2073.99
609.70	2066.29
610.05	2058.49
610.40	2050.02
610.75	2041.71
611.10	2033.84
611.44	2024.99
611.79	2016.23
612.14	2006.31
612.49	1995.68
612.83	1986.45
613.18	1977.27
613.53	1968.00
613.88	1958.52
614.22	1949.81
614.57	1939.94
614.92	1929.15
615.27	1918.87
615.61	1908.72
615.96	1899.05
616.31	1889.41
616.65	1879.90
617.00	1870.04
617.35	1860.39
617.70	1850.74
618.04	1840.69
618.39	1830.58
618.74	1820.93
619.08	1811.14
619.43	1802.39
619.78	1793.95
620.12	1785.18
620.47	1775.49
620.82	1765.11
621.16	1755.33
621.51	1745.46
621.85	1735.66
622.20	1725.45
622.55	1715.00
622.89	1704.95
623.24	1695.27
623.59	1685.43
623.93	1675.32
624.28	1665.62
624.62	1655.53
624.97	1645.23
625.32	1635.46
625.66	1626.58
626.01	1617.76
626.35	1608.51
626.70	1598.36
627.04	1588.42
627.39	1578.27
627.73	1569.01
628.08	1560.00
628.43	1550.39
628.77	1541.21
629.12	1532.32
629.46	1524.40
629.81	1516.10
630.15	1506.64
630.50	1496.82
630.84	1486.33
631.19	1476.37
631.53	1467.06
631.88	1456.83
632.22	1446.90
632.57	1437.59
632.91	1427.46
633.26	1417.55
633.60	1407.97
633.95	1398.72
634.29	1389.15
634.64	1379.87
634.98	1369.92
635.32	1360.65
635.67	1352.20
636.01	1342.93
636.36	1333.15
636.70	1323.59
637.05	1314.14
637.39	1305.27
637.73	1296.57
638.08	1289.01
638.42	1281.01
638.77	1272.13
639.11	1263.98
639.45	1256.17
639.80	1247.54
640.14	1238.70
640.49	1229.81
640.83	1220.92
641.17	1212.79
641.52	1204.65
641.86	1196.04
642.20	1188.26
642.55	1179.61
642.89	1170.62
643.23	1161.86
643.58	1153.71
643.92	1144.71
644.26	1136.01
644.61	1127.54
644.95	1118.75
645.29	1109.51
645.64	1100.21
645.98	1091.72
646.32	1083.70
646.66	1075.04
647.01	1066.73
647.35	1058.62
647.69	1050.32
648.04	1042.05
648.38	1033.14
648.72	1024.28
649.06	1015.85
649.41	1007.45
649.75	999.54
650.09	991.77
650.43	983.80
650.78	975.50
651.12	967.74
651.46	960.28
651.80	952.97
652.14	945.73
652.49	938.20
652.83	930.91
653.17	923.21
653.51	915.54
653.85	908.36
654.20	901.05
654.54	893.57
654.88	886.24
655.22	878.91
655.56	871.80
655.90	865.00
656.25	858.25
656.59	851.30
656.93	844.18
657.27	836.95
657.61	829.90
657.95	823.68
658.29	817.70
658.64	811.53
658.98	805.00
659.32	798.39
659.66	792.12
660.00	785.67
660.34	779.62
660.68	773.42
661.02	766.95
661.36	760.91
661.70	755.07
662.05	749.46
662.39	744.10
662.73	738.69
663.07	733.31
663.41	727.64
663.75	721.93
664.09	716.19
664.43	710.71
664.77	705.33
665.11	699.46
665.45	693.58
665.79	687.69
666.13	681.94
666.47	676.44
666.81	670.94
667.15	665.55
667.49	660.28
667.83	655.04
668.17	649.80
668.51	644.67
668.85	639.71
669.19	634.73
669.53	629.63
669.87	624.49
670.21	619.60
670.55	614.87
670.89	610.39
671.23	606.08
671.57	601.67
671.91	597.28
672.25	593.15
672.58	588.94
672.92	584.93
673.26	580.98
673.60	577.02
673.94	573.18
674.28	569.46
674.62	565.68
674.96	561.84
675.30	558.31
675.64	554.65
675.97	550.99
676.31	547.36
676.65	543.67
676.99	540.17
677.33	536.35
677.67	532.69
678.01	528.83
678.34	525.16
678.68	521.57
679.02	517.98
679.36	514.25
679.70	510.57
680.04	506.95
680.37	503.43
680.71	500.03
681.05	496.80
681.39	493.51
681.73	490.30
682.06	487.27
682.40	484.13
682.74	480.88
683.08	477.64
683.42	474.40
683.75	471.39
684.09	468.30
684.43	465.44
684.77	462.52
685.10	459.57
685.44	456.63
685.78	453.67
686.12	450.88
686.45	448.11
686.79	445.41
687.13	442.79
687.46	440.12
687.80	437.44
688.14	434.55
688.48	431.91
688.81	429.19
689.15	426.58
689.49	423.95
689.82	421.34
690.16	418.75
690.50	416.24
690.83	413.66
691.17	411.12
691.51	408.63
691.84	406.27
692.18	404.11
692.52	401.87
692.85	399.69
693.19	397.50
693.52	395.33
693.86	393.05
694.20	390.85
694.53	388.70
694.87	386.48
695.21	384.32
695.54	382.13
695.88	379.93
696.21	377.68
696.55	375.51
696.88	373.45
697.22	371.40
697.56	369.45
697.89	367.59
698.23	365.78
698.56	363.96
698.90	362.17
699.23	360.19
699.57	358.26
699.90	356.38
700.24	354.51
700.58	352.69
700.91	351.01
701.25	349.44
701.58	347.81
701.92	346.21
702.25	344.59
702.59	342.96
702.92	341.38
703.26	339.84
703.59	338.37
703.93	337.05
704.26	335.59
704.60	334.08
704.93	332.57
705.26	331.08
705.60	329.56
705.93	328.01
706.27	326.72
706.60	325.47
706.94	324.22
707.27	322.86
707.61	321.46
707.94	320.13
708.27	318.59
708.61	317.15
708.94	315.76
709.28	314.48
709.61	313.18
709.94	312.00
710.28	310.75
710.61	309.53
710.95	308.11
711.28	307.04
711.61	305.84
711.95	304.69
712.28	303.44
712.61	302.26
712.95	301.19
713.28	300.08
713.61	298.89
713.95	297.69
714.28	296.68
714.61	295.67
714.95	294.63
715.28	293.58
715.61	292.55
715.95	291.56
716.28	290.56
716.61	289.59
716.95	288.55
717.28	287.63
717.61	286.66
717.94	285.74
718.28	284.70
718.61	283.81
718.94	282.88
719.27	282.05
719.61	281.18
719.94	280.31
720.27	279.35
720.60	278.48
720.94	277.72
721.27	276.89
721.60	276.11
721.93	275.38
722.27	274.76
722.60	274.04
722.93	273.30
723.26	272.61
723.59	271.91
723.93	271.26
724.26	270.53
724.59	269.89
724.92	269.28
725.25	268.71
725.59	268.10
725.92	267.53
726.25	266.95
726.58	266.37
726.91	265.78
727.24	265.21
727.57	264.65
727.91	264.00
728.24	263.42
728.57	262.85
728.90	262.27
729.23	261.60
729.56	261.18
729.89	260.65
730.22	260.08
730.55	259.54
730.89	258.97
731.22	258.49
731.55	257.94
731.88	257.41
732.21	256.86
732.54	256.36
732.87	255.84
733.20	255.32
733.53	254.86
733.86	254.40
734.19	253.93
734.52	253.48
734.85	253.17
735.18	252.74
735.51	252.35
735.84	251.90
736.17	251.53
736.50	250.98
736.83	250.82
737.16	250.44
737.49	250.03
737.82	249.64
738.15	249.26
738.48	248.88
738.81	248.45
739.14	248.04
739.47	247.62
739.80	247.26
740.13	246.93
740.46	246.51
740.79	246.09
741.12	245.74
741.45	245.38
741.78	244.91
742.11	244.65
742.44	244.28
742.77	243.98
743.10	243.59
743.43	243.24
743.75	242.67
744.08	242.57
744.41	242.18
744.74	241.86
745.07	241.46
745.40	241.15
745.73	240.88
746.06	240.54
746.39	240.24
746.71	239.91
747.04	239.54
747.37	239.22
747.70	238.93
748.03	238.60
748.36	238.31
748.68	238.02
749.01	237.62
749.34	237.31
749.67	237.03
750.00	236.78
750.33	236.66
750.65	236.41
750.98	235.89
751.31	235.66
751.64	235.40
751.97	235.28
752.29	235.00
752.62	234.67
752.95	234.44
753.28	234.14
753.60	233.90
753.93	233.71
754.26	233.51
754.59	233.26
754.91	233.00
755.24	232.75
755.57	232.51
755.90	232.27
756.22	232.03
756.55	231.72
756.88	231.48
757.20	231.12
757.53	230.85
757.86	230.61
758.19	230.43
758.51	230.18
758.84	229.83
759.17	229.62
759.49	229.45
759.82	229.33
760.15	229.19
760.47	228.98
760.80	228.73
761.13	228.58
761.45	228.34
761.78	228.17
762.11	227.99
762.43	227.79
762.76	227.63
763.08	227.52
763.41	227.37
763.74	227.20
764.06	227.03
764.39	226.86
764.71	226.73
765.04	226.56
765.37	226.42
765.69	226.30
766.02	226.17
766.34	225.98
766.67	225.78
767.00	225.70
767.32	225.64
767.65	225.67
767.97	225.48
768.30	225.42
768.62	225.28
768.95	225.15
769.27	225.04
769.60	224.99
769.92	224.79
770.25	224.63
770.57	224.48
770.90	224.36
771.22	224.24
771.55	224.09
771.87	223.97
772.20	223.88
772.52	223.94
772.85	224.07
773.17	224.02
773.50	223.87
773.82	223.73
774.15	223.55
774.47	223.27
774.80	223.18
775.12	223.05
775.45	222.96
775.77	222.87
776.09	222.83
776.42	222.71
776.74	222.72
777.07	222.65
777.39	222.58
777.72	222.48
778.04	222.44
778.36	222.39
778.69	222.32
779.01	222.25
779.33	221.99
779.66	221.69
779.98	221.58
780.31	221.53
780.63	221.52
780.95	221.51
781.28	221.47
781.60	221.39
781.92	221.31
782.25	221.25
782.57	221.16
782.89	221.03
783.22	220.93
783.54	220.79
783.86	220.77
784.19	220.70
784.51	220.71
784.83	220.62
785.16	220.53
785.48	220.46
785.80	220.39
786.12	220.33
786.45	220.22
786.77	220.19
787.09	220.13
787.42	219.97
787.74	219.89
788.06	219.83
788.38	219.76
788.71	219.69
789.03	219.65
789.35	219.67
789.67	219.61
789.99	219.59
790.32	219.51
790.64	219.45
790.96	219.55
791.28	219.41
791.61	219.31
791.93	219.28
792.25	219.23
792.57	219.31
792.89	219.23
793.21	219.19
793.54	219.14
793.86	219.05
794.18	219.02
794.50	218.94
794.82	218.91
795.14	218.89
795.47	218.88
795.79	218.83
796.11	218.71
796.43	218.63
796.75	218.57
797.07	218.57
797.39	218.50
797.71	218.29
798.04	218.27
798.36	218.28
798.68	218.22
799.00	218.21
799.32	218.12
799.64	218.14
799.96	218.13
800.28	218.10
800.60	218.07
800.92	218.07
801.24	218.01
801.56	217.98
801.89	217.91
802.21	217.87
802.53	217.80
802.85	217.82
803.17	217.94
803.49	217.88
803.81	217.84
804.13	217.79
804.45	217.75
804.77	217.73
805.09	217.68
805.41	217.63
805.73	217.54
806.05	217.41
806.37	217.36
806.69	217.29
807.01	217.27
807.33	217.25
807.65	217.15
807.97	217.23
808.28	217.18
808.60	217.17
808.92	217.15
809.24	217.23
809.56	217.15
809.88	216.98
810.20	216.95
810.52	216.93
810.84	216.93
811.16	216.86
811.48	216.84
811.80	216.90
812.12	216.87
812.43	216.88
812.75	216.88
813.07	216.87
813.39	216.89
813.71	216.81
814.03	216.78
814.35	216.77
814.67	216.63
814.98	216.57
815.30	216.52
815.62	216.45
815.94	216.33
816.26	216.34
816.58	216.31
816.89	216.32
817.21	216.24
817.53	216.23
817.85	216.24
818.17	216.20
818.48	216.11
818.80	216.13
819.12	216.08
819.44	216.04
819.76	215.95
820.07	215.92
820.39	215.92
820.71	215.94
821.03	215.92
821.34	215.93
821.66	215.97
821.98	215.98
822.30	215.98
822.61	216.10
822.93	216.04
823.25	216.00
823.57	215.96
823.88	216.01
824.20	215.98
824.52	215.96
824.83	215.94
825.15	215.89
825.47	215.85
825.79	215.86
826.10	215.84
826.42	215.85
826.74	215.88
827.05	215.85
827.37	215.85
827.69	215.85
828.00	215.79
828.32	215.78
828.64	215.75
828.95	215.82
829.27	215.71
829.58	215.71
829.90	215.76
830.22	215.79
830.53	215.69
830.85	215.68
831.17	215.65
831.48	215.65
831.80	215.64
832.11	215.62
832.43	215.58
832.75	215.55
833.06	215.66
833.38	215.56
833.69	215.53
834.01	215.48
834.32	215.43
834.64	215.42
834.96	215.39
835.27	215.34
835.59	215.31
835.90	215.28
836.22	215.26
836.53	215.21
836.85	215.16
837.16	215.38
837.48	215.36
837.79	215.43
838.11	215.42
838.42	215.46
838.74	215.47
839.05	215.44
839.37	215.47
839.68	215.33
840.00	215.32
840.31	215.37
840.63	215.37
840.94	215.36
841.26	215.37
841.57	215.37
841.88	215.43
842.20	215.36
842.51	215.35
842.83	215.35
843.14	215.53
843.46	215.54
843.77	215.43
844.08	215.39
844.40	215.33
844.71	215.27
845.03	215.24
845.34	215.22
845.65	215.25
845.97	215.20
846.28	215.21
846.60	215.21
846.91	215.15
847.22	215.13
847.54	215.14
847.85	215.10
848.16	215.09
848.48	215.03
848.79	215.11
849.10	215.12
849.42	215.11
849.73	214.90
850.04	214.89
850.36	214.79
850.67	214.89
850.98	214.84
851.30	214.87
851.61	214.87
851.92	214.85
852.23	214.87
852.55	214.92
852.86	214.92
853.17	214.97
853.49	215.00
853.80	215.01
854.11	215.06
854.42	215.12
854.74	215.06
855.05	215.07
855.36	214.94
855.67	214.93
855.99	214.95
856.30	215.20
856.61	215.20
856.92	215.20
857.23	215.13
857.55	215.13
857.86	215.14
858.17	215.16
858.48	215.14
858.79	215.12
859.11	215.11
859.42	215.10
859.73	215.06
860.04	215.06
860.35	215.02
860.66	214.95
860.98	214.92
861.29	214.95
861.60	214.92
861.91	214.97
862.22	214.91
862.53	214.86
862.84	214.62
863.16	214.64
863.47	214.60
863.78	214.60
864.09	214.62
864.40	214.62
864.71	214.59
865.02	214.60
865.33	214.55
865.64	214.52
865.95	214.53
866.27	214.69
866.58	214.67
866.89	214.71
867.20	214.70
867.51	214.66
867.82	214.66
868.13	214.76
868.44	214.73
868.75	214.80
869.06	214.82
869.37	214.82
869.68	214.76
869.99	214.79
870.30	214.81
870.61	214.83
870.92	214.79
871.23	214.77
871.54	214.79
871.85	214.86
872.16	214.87
872.47	214.82
872.78	214.64
873.09	214.63
873.40	214.63
873.71	214.62
874.02	214.62
874.33	214.59
874.64	214.51
874.95	214.53
875.26	214.49
875.56	214.50
875.87	214.49
876.18	214.49
876.49	214.68
876.80	214.66
877.11	214.62
877.42	214.64
877.73	214.65
878.04	214.62
878.35	214.62
878.66	214.65
878.96	214.66
879.27	214.66
879.58	214.64
879.89	214.59
880.20	214.65
880.51	214.68
880.82	214.66
881.12	214.68
881.43	214.65
881.74	214.63
882.05	214.59
882.36	214.61
882.67	214.63
882.97	214.40
883.28	214.37
883.59	214.37
883.90	214.37
884.21	214.40
884.51	214.40
884.82	214.36
885.13	214.34
885.44	214.30
885.74	214.32
886.05	214.33
886.36	214.32
886.67	214.26
886.98	214.36
887.28	214.39
887.59	214.41
887.90	214.38
888.20	214.34
888.51	214.41
888.82	214.38
889.13	214.39
889.43	214.57
889.74	214.54
890.05	214.54
890.35	214.53
890.66	214.52
890.97	214.51
891.28	214.50
891.58	214.47
891.89	214.48
892.20	214.45
892.50	214.42
892.81	214.43
893.12	214.43
893.42	214.34
893.73	214.36
894.04	214.31
894.34	214.37
894.65	214.39
894.95	214.33
895.26	214.30
895.57	214.42
895.87	214.21
896.18	214.27
896.48	214.29
896.79	214.25
897.10	214.27
897.40	214.26
897.71	214.28
898.01	214.30
898.32	214.34
898.63	214.31
898.93	214.36
899.24	214.34
899.54	214.31
899.85	214.28
900.15	214.26
900.46	214.28
900.76	214.29
901.07	214.30
901.38	214.31
901.68	214.37
901.99	214.20
902.29	214.25
902.60	214.20
902.90	214.22
903.21	214.24
903.51	214.23
903.82	214.29
904.12	214.25
904.43	214.27
904.73	214.25
905.03	214.25
905.34	214.42
905.64	214.42
905.95	214.43
906.25	214.44
906.56	214.43
906.86	214.41
907.17	214.37
907.47	214.37
907.77	214.36
908.08	214.32
908.38	214.38
908.69	214.38
908.99	214.43
909.30	214.40
909.60	214.39
909.90	214.42
910.21	214.34
910.51	214.36
910.81	214.37
911.12	214.37
911.42	214.41
911.73	214.18
912.03	214.18
912.33	214.24
912.64	214.24
912.94	214.21
913.24	214.21
913.55	214.19
913.85	214.19
914.15	214.23
914.46	214.24
914.76	214.23
915.06	214.23
915.37	214.19
915.67	214.19
915.97	214.19
916.27	214.14
916.58	214.13
916.88	214.13
917.18	214.09
917.49	214.22
917.79	214.19
918.09	214.25
918.39	214.35
918.70	214.32
919.00	214.30
919.30	214.42
919.60	214.40
919.91	214.39
920.21	214.40
920.51	214.38
920.81	214.37
921.12	214.38
921.42	214.35
921.72	214.36
922.02	214.36
922.32	214.38
922.63	214.35
922.93	214.48
923.23	214.50
923.53	214.49
923.83	214.38
924.13	214.39
924.44	214.40
924.74	214.36
925.04	214.40
925.34	214.40
925.64	214.30
925.94	214.31
926.24	214.45
926.55	214.43
926.85	214.44
927.15	214.45
927.45	214.47
927.75	214.48
928.05	214.52
928.35	214.50
928.65	214.53
928.95	214.57
929.26	214.48
929.56	214.49
929.86	214.50
930.16	214.48
930.46	214.48
930.76	214.48
931.06	214.41
931.36	214.36
931.66	214.40
931.96	214.45
932.26	214.48
932.56	214.35
932.86	214.38
933.16	214.40
933.46	214.37
933.76	214.32
934.06	214.36
934.36	214.45
934.66	214.46
934.96	214.43
935.26	214.42
935.56	214.47
935.86	214.43
936.16	214.43
936.46	214.43
936.76	214.39
937.06	214.32
937.36	214.34
937.66	214.34
937.96	214.32
938.26	214.26
938.56	214.21
938.86	214.23
939.16	214.26
939.46	214.24
939.76	214.24
940.06	214.23
940.35	214.17
940.65	214.03
940.95	214.04
941.25	214.01
941.55	214.00
941.85	213.97
942.15	213.98
942.45	213.99
942.75	214.00
943.04	214.02
943.34	214.09
943.64	214.10
943.94	214.04
944.24	214.06
944.54	214.06
944.84	214.07
945.13	214.03
945.43	213.98
945.73	213.99
946.03	214.00
946.33	214.01
946.62	214.01
946.92	214.00
947.22	214.03
947.52	214.04
947.82	214.10
948.11	214.08
948.41	214.04
948.71	214.04
949.01	214.03
949.31	214.03
949.60	214.02
949.90	214.02
950.20	214.03
950.50	214.00
950.79	214.00
951.09	214.03
951.39	214.03
951.69	214.03
951.98	214.03
952.28	214.04
952.58	214.03
952.87	214.04
953.17	214.07
953.47	214.02
953.76	214.00
954.06	213.94
954.36	213.89
954.66	213.89
954.95	213.96
955.25	213.98
955.55	214.00
955.84	213.98
956.14	214.00
956.44	214.01
956.73	213.97
957.03	213.97
957.32	214.00
957.62	214.01
957.92	214.02
958.21	214.02
958.51	214.27
958.81	214.29
959.10	214.31
959.40	214.35
959.69	214.39
959.99	214.43
960.29	214.43
960.58	214.45
960.88	214.55
961.17	214.52
961.47	214.53
961.76	214.53
962.06	214.56
962.36	214.53
962.65	214.55
962.95	214.61
963.24	214.62
963.54	214.63
963.83	214.63
964.13	214.62
964.42	214.60
964.72	214.42
965.01	214.41
965.31	214.40
965.60	214.36
965.90	214.45
966.19	214.40
966.49	214.44
966.78	214.44
967.08	214.40
967.37	214.36
967.67	214.32
967.96	214.32
968.26	214.30
968.55	214.32
968.85	214.34
969.14	214.31
969.43	214.34
969.73	214.29
970.02	214.27
970.32	214.28
970.61	214.26
970.91	214.18
971.20	214.16
971.49	214.14
971.79	214.16
972.08	214.06
972.38	214.08
972.67	214.03
972.96	214.06
973.26	214.00
973.55	214.09
973.85	214.07
974.14	214.09
974.43	214.12
974.73	214.09
975.02	214.05
975.31	214.05
975.61	213.99
975.90	213.99
976.19	213.99
976.49	213.99
976.78	213.98
977.07	213.98
977.37	214.03
977.66	214.06
977.95	214.02
978.24	213.99
978.54	214.03
978.83	214.01
979.12	213.99
979.42	214.01
979.71	213.93
980.00	213.92
980.29	213.91
980.59	213.87
980.88	213.92
981.17	213.93
981.46	213.91
981.76	213.90
982.05	213.95
982.34	213.95
982.63	213.97
982.93	213.96
983.22	214.00
983.51	213.98
983.80	213.99
984.09	214.01
984.39	214.01
984.68	214.00
984.97	214.04
985.26	214.02
985.55	214.03
985.85	214.00
986.14	214.04
986.43	214.06
986.72	214.04
987.01	213.97
987.30	213.95
987.59	213.95
987.89	213.99
988.18	213.93
988.47	213.94
988.76	213.91
989.05	213.91
989.34	213.90
989.63	213.96
989.92	213.95
990.22	213.91
990.51	213.91
990.80	213.88
991.09	213.88
991.38	213.92
991.67	213.89
991.96	213.89
992.25	213.90
992.54	213.89
992.83	213.91
993.12	213.92
993.41	213.96
993.70	214.02
993.99	214.06
994.28	214.05
994.58	214.06
994.87	214.04
995.16	214.05
995.45	214.00
995.74	213.92
996.03	213.95
996.32	214.02
996.61	214.10
996.90	214.10
997.19	214.11
997.48	214.14
997.77	214.13
998.06	214.15
998.34	214.14
998.63	214.11
998.92	214.09
999.21	214.11
999.50	214.10
999.79	214.06
1000.08	214.02
1000.37	214.07
1000.66	214.03
1000.95	214.11
1001.24	214.12
1001.53	214.20
1001.82	214.21
1002.11	214.12
1002.40	214.11
1002.68	214.12
1002.97	214.26
1003.26	214.24
1003.55	214.17
1003.84	214.18
1004.13	214.24
1004.42	214.23
1004.71	214.22
1004.99	214.19
1005.28	214.27
1005.57	214.28
1005.86	214.25
1006.15	214.26
1006.44	214.21
1006.72	214.24
1007.01	214.18
1007.30	214.20
1007.59	214.16
1007.88	214.12
1008.17	214.18
1008.45	214.15
1008.74	214.07
1009.03	213.96
1009.32	213.96
1009.60	213.97
1009.89	213.95
1010.18	213.86
1010.47	213.89
1010.76	213.91
1011.04	213.93
1011.33	213.91
1011.62	213.92
1011.91	213.98
1012.19	213.96
1012.48	213.98
1012.77	213.99
1013.05	214.09
1013.34	214.08
1013.63	214.08
1013.92	214.12
1014.20	214.09
1014.49	214.06
1014.78	214.08
1015.06	214.04
1015.35	214.03
1015.64	214.04
1015.92	214.05
1016.21	214.06
1016.50	214.02
1016.78	214.03
1017.07	214.06
1017.36	214.00
1017.64	213.94
1017.93	213.95
1018.22	213.94
1018.50	213.94
1018.79	213.90
1019.08	213.78
1019.36	213.77
1019.65	213.74
1019.93	213.77
1020.22	213.81
1020.51	213.91
1020.79	213.88
1021.08	213.34
1021.36	213.60
1021.65	213.49
1021.94	213.59
1022.22	213.77
1022.51	213.49
1022.79	214.63
1023.08	214.12
1023.36	215.91
1023.65	213.51
>>>>>End Processed Spectral Data<<<<<
