SpectraSuite Data File
++++++++++++++++++++++++++++++++++++
Date: Tue Jan 29 16:43:37 EST 2013
User: group
Dark Spectrum Present: No
Reference Spectrum Present: No
Number of Sampled Component Spectra: 1
Spectrometers: USB2E7196
Integration Time (usec): 65000 (USB2E7196)
Spectra Averaged: 100 (USB2E7196)
Boxcar Smoothing: 10 (USB2E7196)
Correct for Electrical Dark: No (USB2E7196)
Strobe/Lamp Enabled: No (USB2E7196)
Correct for Detector Non-linearity: No (USB2E7196)
Correct for Stray Light: No (USB2E7196)
Number of Pixels in Processed Spectrum: 2048
>>>>>Begin Processed Spectral Data<<<<<
339.09	0.00
339.48	202.24
339.86	202.70
340.24	204.74
340.63	205.68
341.01	209.89
341.39	209.02
341.78	210.50
342.16	212.31
342.54	211.54
342.93	201.02
343.31	211.14
343.69	211.66
344.07	212.17
344.46	212.62
344.84	213.05
345.22	213.27
345.60	213.53
345.99	213.70
346.37	213.79
346.75	213.91
347.13	214.00
347.52	214.06
347.90	214.18
348.28	214.25
348.66	214.34
349.05	214.30
349.43	214.35
349.81	214.40
350.19	214.47
350.57	214.54
350.96	214.63
351.34	214.74
351.72	214.83
352.10	214.92
352.48	214.97
352.87	215.00
353.25	215.08
353.63	215.14
354.01	215.23
354.39	215.33
354.77	215.43
355.15	215.53
355.54	215.61
355.92	215.58
356.30	215.65
356.68	215.86
357.06	215.97
357.44	215.98
357.82	216.06
358.20	216.11
358.58	216.19
358.97	216.25
359.35	216.37
359.73	216.47
360.11	216.52
360.49	216.59
360.87	216.66
361.25	216.69
361.63	216.82
362.01	216.85
362.39	216.83
362.77	216.88
363.15	216.93
363.53	216.96
363.91	217.00
364.29	217.01
364.67	216.80
365.05	216.78
365.43	216.86
365.81	216.92
366.19	217.02
366.57	217.09
366.95	217.10
367.33	217.03
367.71	217.07
368.09	217.09
368.47	217.06
368.85	217.05
369.23	217.07
369.61	217.00
369.99	217.04
370.37	217.09
370.75	217.17
371.13	217.09
371.51	217.07
371.89	217.07
372.27	217.05
372.65	217.07
373.03	217.06
373.41	217.02
373.78	216.97
374.16	216.83
374.54	216.74
374.92	216.67
375.30	216.67
375.68	216.56
376.06	216.57
376.44	216.60
376.82	216.53
377.19	216.50
377.57	216.45
377.95	216.36
378.33	216.27
378.71	216.12
379.09	216.09
379.47	216.06
379.84	215.96
380.22	215.91
380.60	215.83
380.98	215.79
381.36	215.72
381.73	215.65
382.11	215.68
382.49	215.63
382.87	215.59
383.25	215.53
383.62	215.70
384.00	215.61
384.38	215.56
384.76	215.60
385.13	215.63
385.51	215.55
385.89	215.51
386.27	215.50
386.64	215.52
387.02	215.45
387.40	215.41
387.78	215.42
388.15	215.40
388.53	215.38
388.91	215.35
389.29	215.33
389.66	215.32
390.04	215.24
390.42	215.26
390.79	215.25
391.17	215.28
391.55	215.04
391.92	215.04
392.30	215.03
392.68	214.98
393.05	214.97
393.43	214.99
393.81	214.97
394.18	214.93
394.56	214.90
394.94	214.96
395.31	214.95
395.69	215.00
396.06	215.07
396.44	215.08
396.82	215.10
397.19	215.23
397.57	215.24
397.95	215.30
398.32	215.27
398.70	215.32
399.07	215.34
399.45	215.38
399.82	215.38
400.20	215.39
400.58	215.42
400.95	215.40
401.33	215.54
401.70	215.76
402.08	215.87
402.45	215.96
402.83	216.09
403.20	216.20
403.58	216.28
403.95	216.42
404.33	216.58
404.71	216.70
405.08	216.95
405.46	217.11
405.83	217.32
406.21	217.55
406.58	217.79
406.96	218.06
407.33	218.34
407.70	218.67
408.08	219.17
408.45	219.52
408.83	219.90
409.20	220.22
409.58	220.48
409.95	220.92
410.33	221.39
410.70	221.84
411.08	222.41
411.45	222.96
411.82	223.51
412.20	224.19
412.57	225.05
412.95	225.62
413.32	226.45
413.69	227.28
414.07	228.19
414.44	229.17
414.82	230.17
415.19	231.40
415.56	232.58
415.94	233.77
416.31	235.19
416.68	236.59
417.06	238.23
417.43	239.79
417.81	241.57
418.18	243.37
418.55	245.30
418.93	247.35
419.30	249.50
419.67	251.75
420.04	254.02
420.42	256.41
420.79	259.27
421.16	262.08
421.54	264.98
421.91	268.01
422.28	271.13
422.66	274.44
423.03	277.65
423.40	281.08
423.77	284.68
424.15	288.38
424.52	292.24
424.89	296.42
425.26	300.52
425.64	304.37
426.01	308.71
426.38	313.21
426.75	317.76
427.13	322.52
427.50	327.50
427.87	332.73
428.24	337.93
428.61	342.92
428.99	348.47
429.36	354.53
429.73	360.45
430.10	366.35
430.47	372.43
430.85	378.85
431.22	385.55
431.59	392.67
431.96	399.51
432.33	407.08
432.70	414.34
433.08	422.88
433.45	430.98
433.82	439.01
434.19	447.93
434.56	456.64
434.93	464.98
435.30	473.28
435.68	482.43
436.05	491.42
436.42	500.38
436.79	508.52
437.16	517.33
437.53	526.60
437.90	535.80
438.27	544.81
438.64	554.05
439.01	562.63
439.38	570.21
439.75	577.54
440.13	585.99
440.50	593.95
440.87	600.42
441.24	607.17
441.61	614.58
441.98	619.96
442.35	626.31
442.72	632.69
443.09	638.81
443.46	642.59
443.83	645.18
444.20	647.39
444.57	650.63
444.94	652.11
445.31	653.53
445.68	654.93
446.05	655.56
446.42	654.75
446.79	653.76
447.16	652.69
447.53	651.99
447.90	648.68
448.27	645.44
448.64	640.80
449.01	637.41
449.37	631.45
449.74	625.82
450.11	618.93
450.48	611.52
450.85	604.05
451.22	597.58
451.59	591.45
451.96	585.62
452.33	577.69
452.70	570.54
453.07	562.04
453.43	553.38
453.80	545.00
454.17	536.97
454.54	529.41
454.91	521.24
455.28	513.21
455.65	505.73
456.02	498.16
456.38	491.78
456.75	483.90
457.12	477.30
457.49	470.78
457.86	464.59
458.23	459.15
458.59	453.15
458.96	447.12
459.33	441.81
459.70	436.39
460.07	432.11
460.43	427.20
460.80	422.63
461.17	418.59
461.54	414.39
461.91	410.37
462.27	406.26
462.64	402.81
463.01	398.98
463.38	395.29
463.74	391.59
464.11	388.33
464.48	385.45
464.85	382.31
465.21	379.82
465.58	377.15
465.95	373.98
466.32	371.38
466.68	368.75
467.05	366.12
467.42	363.54
467.78	360.83
468.15	358.26
468.52	356.34
468.88	353.87
469.25	351.65
469.62	349.80
469.98	347.83
470.35	345.98
470.72	344.29
471.08	342.46
471.45	340.93
471.82	339.43
472.18	337.82
472.55	336.59
472.92	335.18
473.28	333.93
473.65	332.80
474.02	331.65
474.38	330.74
474.75	329.97
475.11	329.15
475.48	328.57
475.85	328.06
476.21	327.57
476.58	327.17
476.94	326.91
477.31	326.57
477.67	326.34
478.04	326.24
478.41	326.17
478.77	326.34
479.14	326.26
479.50	326.39
479.87	326.62
480.23	326.96
480.60	327.20
480.96	327.50
481.33	328.12
481.69	328.68
482.06	329.20
482.42	329.68
482.79	330.27
483.15	331.02
483.52	332.03
483.88	332.86
484.25	333.84
484.61	334.85
484.98	335.93
485.34	337.24
485.71	338.57
486.07	340.02
486.44	341.33
486.80	342.93
487.17	344.59
487.53	346.47
487.90	348.34
488.26	350.35
488.62	352.52
488.99	354.50
489.35	356.66
489.72	359.04
490.08	361.55
490.44	364.09
490.81	366.83
491.17	369.54
491.54	372.54
491.90	375.58
492.26	378.80
492.63	382.24
492.99	385.69
493.36	389.34
493.72	393.21
494.08	397.22
494.45	401.44
494.81	405.77
495.17	410.16
495.54	414.84
495.90	419.70
496.26	424.59
496.63	429.84
496.99	435.23
497.35	440.77
497.72	446.57
498.08	452.54
498.44	458.63
498.80	465.08
499.17	471.63
499.53	478.31
499.89	485.29
500.26	492.26
500.62	499.38
500.98	506.77
501.34	514.25
501.71	522.02
502.07	529.87
502.43	537.87
502.79	546.02
503.16	554.49
503.52	563.10
503.88	571.82
504.24	580.83
504.60	589.98
504.97	599.20
505.33	608.49
505.69	618.40
506.05	628.27
506.41	638.07
506.78	648.04
507.14	658.32
507.50	668.79
507.86	679.52
508.22	690.26
508.59	700.95
508.95	711.98
509.31	723.19
509.67	734.59
510.03	746.07
510.39	757.79
510.75	769.62
511.12	781.56
511.48	793.62
511.84	805.81
512.20	818.14
512.56	830.86
512.92	843.73
513.28	856.35
513.64	869.07
514.00	881.91
514.37	894.95
514.73	908.02
515.09	921.02
515.45	933.90
515.81	947.01
516.17	960.44
516.53	973.79
516.89	987.00
517.25	1000.33
517.61	1013.89
517.97	1027.44
518.33	1040.64
518.69	1054.18
519.05	1068.00
519.41	1081.73
519.77	1095.60
520.13	1108.86
520.49	1121.99
520.85	1135.43
521.21	1148.91
521.57	1162.75
521.93	1175.89
522.29	1189.75
522.65	1203.46
523.01	1217.14
523.37	1230.39
523.73	1243.73
524.09	1256.86
524.45	1270.33
524.81	1283.84
525.17	1297.31
525.53	1310.49
525.89	1323.83
526.25	1337.03
526.61	1349.94
526.97	1363.13
527.33	1376.23
527.68	1389.85
528.04	1403.29
528.40	1416.53
528.76	1429.89
529.12	1442.80
529.48	1456.25
529.84	1468.54
530.20	1481.33
530.56	1494.04
530.91	1507.42
531.27	1520.34
531.63	1533.11
531.99	1545.87
532.35	1558.21
532.71	1570.55
533.07	1583.52
533.42	1595.86
533.78	1608.04
534.14	1620.14
534.50	1631.46
534.86	1642.98
535.21	1653.94
535.57	1665.70
535.93	1676.98
536.29	1688.19
536.65	1699.79
537.00	1710.91
537.36	1722.45
537.72	1733.49
538.08	1744.95
538.44	1755.95
538.79	1767.22
539.15	1778.34
539.51	1789.36
539.87	1800.75
540.22	1811.65
540.58	1822.66
540.94	1833.77
541.29	1844.25
541.65	1854.27
542.01	1864.84
542.37	1875.06
542.72	1885.26
543.08	1894.92
543.44	1905.56
543.79	1914.95
544.15	1924.37
544.51	1934.34
544.87	1944.28
545.22	1953.63
545.58	1962.64
545.94	1971.66
546.29	1980.23
546.65	1988.66
547.01	1996.72
547.36	2004.45
547.72	2012.35
548.07	2020.03
548.43	2027.71
548.79	2035.48
549.14	2043.74
549.50	2052.21
549.86	2060.28
550.21	2067.86
550.57	2075.86
550.92	2082.68
551.28	2090.27
551.64	2097.67
551.99	2105.15
552.35	2112.39
552.70	2119.21
553.06	2125.90
553.41	2132.16
553.77	2138.71
554.13	2145.16
554.48	2152.39
554.84	2159.58
555.19	2166.16
555.55	2172.60
555.90	2178.92
556.26	2185.89
556.61	2191.91
556.97	2196.89
557.32	2202.67
557.68	2209.11
558.03	2214.78
558.39	2220.15
558.74	2226.08
559.10	2231.55
559.45	2237.15
559.81	2242.60
560.16	2248.14
560.52	2254.07
560.87	2260.39
561.23	2266.23
561.58	2272.89
561.94	2278.16
562.29	2282.82
562.64	2288.80
563.00	2294.49
563.35	2300.01
563.71	2305.75
564.06	2311.47
564.42	2317.32
564.77	2322.20
565.12	2327.46
565.48	2332.56
565.83	2338.02
566.19	2343.29
566.54	2348.73
566.89	2353.28
567.25	2357.87
567.60	2363.62
567.96	2368.52
568.31	2373.11
568.66	2377.34
569.02	2381.12
569.37	2384.81
569.72	2389.00
570.08	2392.43
570.43	2395.53
570.78	2398.61
571.14	2400.86
571.49	2403.76
571.84	2407.05
572.20	2410.02
572.55	2412.86
572.90	2414.97
573.26	2417.54
573.61	2420.00
573.96	2422.09
574.31	2424.01
574.67	2425.82
575.02	2426.45
575.37	2427.81
575.72	2428.30
576.08	2429.76
576.43	2429.92
576.78	2430.15
577.13	2431.75
577.49	2432.84
577.84	2433.59
578.19	2434.78
578.54	2435.24
578.90	2435.79
579.25	2435.71
579.60	2435.46
579.95	2434.54
580.30	2434.66
580.66	2433.96
581.01	2432.19
581.36	2429.41
581.71	2427.99
582.06	2426.67
582.42	2425.60
582.77	2423.20
583.12	2421.44
583.47	2419.67
583.82	2418.84
584.17	2417.43
584.53	2415.14
584.88	2412.78
585.23	2410.84
585.58	2408.33
585.93	2406.34
586.28	2404.12
586.63	2401.48
586.98	2399.13
587.34	2397.04
587.69	2394.31
588.04	2392.07
588.39	2390.45
588.74	2388.07
589.09	2384.95
589.44	2381.57
589.79	2378.90
590.14	2376.84
590.49	2373.96
590.84	2370.06
591.19	2366.62
591.54	2363.30
591.89	2359.30
592.25	2355.98
592.60	2351.72
592.95	2347.44
593.30	2343.18
593.65	2338.58
594.00	2334.02
594.35	2330.81
594.70	2325.86
595.05	2321.28
595.40	2315.78
595.75	2309.88
596.10	2306.02
596.45	2301.33
596.80	2296.71
597.15	2291.48
597.50	2285.59
597.85	2280.48
598.19	2275.27
598.54	2269.57
598.89	2264.31
599.24	2259.55
599.59	2253.40
599.94	2247.31
600.29	2241.38
600.64	2235.36
600.99	2228.43
601.34	2222.95
601.69	2215.96
602.04	2209.62
602.39	2202.92
602.74	2196.78
603.08	2191.38
603.43	2184.90
603.78	2177.88
604.13	2170.83
604.48	2163.52
604.83	2157.32
605.18	2151.00
605.53	2144.10
605.87	2137.12
606.22	2130.26
606.57	2122.33
606.92	2114.32
607.27	2107.37
607.62	2100.79
607.96	2093.74
608.31	2087.35
608.66	2079.52
609.01	2071.92
609.36	2064.91
609.70	2057.22
610.05	2049.35
610.40	2041.01
610.75	2032.66
611.10	2024.94
611.44	2015.94
611.79	2007.21
612.14	1997.21
612.49	1986.74
612.83	1977.36
613.18	1968.06
613.53	1958.76
613.88	1949.11
614.22	1940.43
614.57	1930.62
614.92	1919.99
615.27	1909.70
615.61	1899.55
615.96	1889.93
616.31	1880.29
616.65	1870.74
617.00	1861.07
617.35	1851.50
617.70	1841.70
618.04	1831.69
618.39	1821.69
618.74	1812.10
619.08	1802.48
619.43	1793.86
619.78	1785.58
620.12	1776.98
620.47	1767.50
620.82	1757.10
621.16	1747.36
621.51	1737.53
621.85	1727.77
622.20	1717.44
622.55	1707.05
622.89	1697.19
623.24	1687.53
623.59	1677.87
623.93	1667.83
624.28	1657.91
624.62	1647.89
624.97	1637.68
625.32	1627.92
625.66	1618.84
626.01	1610.16
626.35	1600.94
626.70	1590.94
627.04	1580.92
627.39	1570.78
627.73	1561.49
628.08	1552.78
628.43	1543.30
628.77	1534.13
629.12	1525.29
629.46	1517.46
629.81	1509.13
630.15	1499.72
630.50	1490.00
630.84	1479.55
631.19	1469.70
631.53	1460.59
631.88	1450.40
632.22	1440.50
632.57	1431.21
632.91	1421.15
633.26	1411.37
633.60	1401.81
633.95	1392.50
634.29	1383.13
634.64	1373.93
634.98	1363.93
635.32	1354.55
635.67	1346.13
636.01	1336.92
636.36	1327.28
636.70	1317.86
637.05	1308.58
637.39	1299.65
637.73	1290.94
638.08	1283.44
638.42	1275.36
638.77	1266.67
639.11	1258.49
639.45	1250.71
639.80	1242.27
640.14	1233.73
640.49	1224.98
640.83	1216.18
641.17	1208.12
641.52	1199.95
641.86	1191.41
642.20	1183.64
642.55	1175.11
642.89	1166.31
643.23	1157.77
643.58	1149.74
643.92	1140.82
644.26	1132.10
644.61	1123.73
644.95	1115.04
645.29	1105.96
645.64	1096.85
645.98	1088.33
646.32	1080.51
646.66	1072.03
647.01	1063.67
647.35	1055.55
647.69	1047.23
648.04	1039.00
648.38	1030.20
648.72	1021.52
649.06	1013.10
649.41	1004.96
649.75	997.01
650.09	989.12
650.43	981.06
650.78	972.73
651.12	964.91
651.46	957.46
651.80	950.27
652.14	942.98
652.49	935.42
652.83	928.05
653.17	920.37
653.51	912.74
653.85	905.56
654.20	898.32
654.54	890.88
654.88	883.66
655.22	876.42
655.56	869.37
655.90	862.50
656.25	855.90
656.59	849.02
656.93	842.08
657.27	834.98
657.61	827.98
657.95	821.80
658.29	815.92
658.64	809.87
658.98	803.34
659.32	796.86
659.66	790.62
660.00	784.34
660.34	778.24
660.68	772.11
661.02	765.69
661.36	759.80
661.70	753.99
662.05	748.30
662.39	742.87
662.73	737.54
663.07	732.17
663.41	726.50
663.75	720.78
664.09	715.05
664.43	709.52
664.77	704.20
665.11	698.39
665.45	692.48
665.79	686.59
666.13	680.92
666.47	675.34
666.81	669.87
667.15	664.43
667.49	659.29
667.83	654.02
668.17	648.77
668.51	643.64
668.85	638.68
669.19	633.73
669.53	628.74
669.87	623.51
670.21	618.76
670.55	614.05
670.89	609.58
671.23	605.28
671.57	600.90
671.91	596.62
672.25	592.39
672.58	588.23
672.92	584.21
673.26	580.28
673.60	576.41
673.94	572.54
674.28	568.95
674.62	565.17
674.96	561.38
675.30	557.87
675.64	554.16
675.97	550.52
676.31	546.92
676.65	543.25
676.99	539.84
677.33	535.94
677.67	532.27
678.01	528.35
678.34	524.67
678.68	521.18
679.02	517.58
679.36	513.96
679.70	510.28
680.04	506.68
680.37	503.17
680.71	499.86
681.05	496.65
681.39	493.35
681.73	490.12
682.06	487.11
682.40	483.94
682.74	480.74
683.08	477.53
683.42	474.29
683.75	471.29
684.09	468.20
684.43	465.41
684.77	462.43
685.10	459.60
685.44	456.67
685.78	453.73
686.12	450.88
686.45	448.13
686.79	445.49
687.13	442.92
687.46	440.29
687.80	437.57
688.14	434.72
688.48	432.00
688.81	429.27
689.15	426.59
689.49	423.99
689.82	421.36
690.16	418.71
690.50	416.22
690.83	413.69
691.17	411.14
691.51	408.60
691.84	406.32
692.18	404.01
692.52	401.70
692.85	399.53
693.19	397.38
693.52	395.19
693.86	392.90
694.20	390.69
694.53	388.53
694.87	386.32
695.21	384.15
695.54	382.02
695.88	379.85
696.21	377.66
696.55	375.50
696.88	373.44
697.22	371.46
697.56	369.54
697.89	367.56
698.23	365.78
698.56	363.95
698.90	362.16
699.23	360.30
699.57	358.44
699.90	356.52
700.24	354.66
700.58	352.89
700.91	351.23
701.25	349.60
701.58	347.93
701.92	346.30
702.25	344.65
702.59	342.98
702.92	341.45
703.26	339.86
703.59	338.33
703.93	337.08
704.26	335.57
704.60	334.04
704.93	332.57
705.26	331.07
705.60	329.58
705.93	328.01
706.27	326.59
706.60	325.31
706.94	324.07
707.27	322.68
707.61	321.25
707.94	319.87
708.27	318.34
708.61	316.89
708.94	315.48
709.28	314.20
709.61	312.94
709.94	311.70
710.28	310.49
710.61	309.31
710.95	307.84
711.28	306.82
711.61	305.65
711.95	304.48
712.28	303.25
712.61	302.04
712.95	300.99
713.28	299.98
713.61	298.83
713.95	297.67
714.28	296.65
714.61	295.62
714.95	294.57
715.28	293.57
715.61	292.53
715.95	291.54
716.28	290.52
716.61	289.54
716.95	288.49
717.28	287.54
717.61	286.52
717.94	285.59
718.28	284.48
718.61	283.56
718.94	282.67
719.27	281.81
719.61	280.98
719.94	280.08
720.27	279.08
720.60	278.18
720.94	277.36
721.27	276.58
721.60	275.88
721.93	275.16
722.27	274.50
722.60	273.84
722.93	273.12
723.26	272.50
723.59	271.76
723.93	271.15
724.26	270.48
724.59	269.86
724.92	269.28
725.25	268.74
725.59	268.15
725.92	267.59
726.25	267.01
726.58	266.43
726.91	265.81
727.24	265.28
727.57	264.72
727.91	264.09
728.24	263.52
728.57	262.91
728.90	262.32
729.23	261.67
729.56	261.23
729.89	260.69
730.22	260.07
730.55	259.60
730.89	259.02
731.22	258.52
731.55	258.00
731.88	257.47
732.21	256.91
732.54	256.38
732.87	255.87
733.20	255.36
733.53	254.86
733.86	254.38
734.19	253.87
734.52	253.44
734.85	253.14
735.18	252.68
735.51	252.31
735.84	251.90
736.17	251.51
736.50	250.94
736.83	250.78
737.16	250.41
737.49	249.99
737.82	249.56
738.15	249.16
738.48	248.75
738.81	248.35
739.14	247.93
739.47	247.52
739.80	247.08
740.13	246.73
740.46	246.36
740.79	245.99
741.12	245.63
741.45	245.26
741.78	244.81
742.11	244.50
742.44	244.07
742.77	243.78
743.10	243.44
743.43	243.07
743.75	242.51
744.08	242.41
744.41	242.04
744.74	241.66
745.07	241.28
745.40	240.96
745.73	240.72
746.06	240.41
746.39	240.13
746.71	239.83
747.04	239.47
747.37	239.11
747.70	238.86
748.03	238.54
748.36	238.28
748.68	238.00
749.01	237.62
749.34	237.32
749.67	236.98
750.00	236.71
750.33	236.59
750.65	236.32
750.98	235.79
751.31	235.56
751.64	235.33
751.97	235.22
752.29	234.98
752.62	234.62
752.95	234.35
753.28	234.06
753.60	233.77
753.93	233.63
754.26	233.44
754.59	233.13
754.91	232.89
755.24	232.61
755.57	232.34
755.90	232.13
756.22	231.91
756.55	231.68
756.88	231.39
757.20	231.08
757.53	230.81
757.86	230.59
758.19	230.36
758.51	230.19
758.84	229.87
759.17	229.65
759.49	229.47
759.82	229.41
760.15	229.24
760.47	229.10
760.80	228.81
761.13	228.62
761.45	228.44
761.78	228.24
762.11	228.05
762.43	227.85
762.76	227.69
763.08	227.55
763.41	227.42
763.74	227.28
764.06	227.10
764.39	226.95
764.71	226.80
765.04	226.66
765.37	226.50
765.69	226.34
766.02	226.20
766.34	226.06
766.67	225.78
767.00	225.68
767.32	225.64
767.65	225.65
767.97	225.50
768.30	225.43
768.62	225.32
768.95	225.17
769.27	225.06
769.60	224.96
769.92	224.80
770.25	224.65
770.57	224.49
770.90	224.39
771.22	224.27
771.55	224.18
771.87	224.07
772.20	223.91
772.52	223.97
772.85	224.14
773.17	224.04
773.50	223.95
773.82	223.81
774.15	223.60
774.47	223.36
774.80	223.25
775.12	223.09
775.45	223.00
775.77	222.90
776.09	222.83
776.42	222.73
776.74	222.71
777.07	222.58
777.39	222.50
777.72	222.35
778.04	222.30
778.36	222.19
778.69	222.10
779.01	222.05
779.33	221.80
779.66	221.45
779.98	221.36
780.31	221.27
780.63	221.31
780.95	221.26
781.28	221.19
781.60	221.13
781.92	221.05
782.25	220.99
782.57	220.93
782.89	220.83
783.22	220.74
783.54	220.61
783.86	220.59
784.19	220.54
784.51	220.54
784.83	220.46
785.16	220.38
785.48	220.33
785.80	220.28
786.12	220.22
786.45	220.14
786.77	220.07
787.09	220.02
787.42	219.87
787.74	219.81
788.06	219.77
788.38	219.70
788.71	219.66
789.03	219.58
789.35	219.57
789.67	219.48
789.99	219.46
790.32	219.40
790.64	219.35
790.96	219.43
791.28	219.32
791.61	219.25
791.93	219.19
792.25	219.10
792.57	219.18
792.89	219.08
793.21	219.06
793.54	219.03
793.86	218.97
794.18	218.92
794.50	218.85
794.82	218.79
795.14	218.78
795.47	218.77
795.79	218.71
796.11	218.62
796.43	218.57
796.75	218.53
797.07	218.50
797.39	218.44
797.71	218.23
798.04	218.23
798.36	218.21
798.68	218.20
799.00	218.23
799.32	218.10
799.64	218.08
799.96	218.03
800.28	218.02
800.60	217.96
800.92	217.94
801.24	217.88
801.56	217.83
801.89	217.80
802.21	217.77
802.53	217.73
802.85	217.73
803.17	217.79
803.49	217.72
803.81	217.68
804.13	217.65
804.45	217.64
804.77	217.58
805.09	217.53
805.41	217.48
805.73	217.37
806.05	217.31
806.37	217.27
806.69	217.21
807.01	217.17
807.33	217.14
807.65	217.03
807.97	217.13
808.28	217.12
808.60	217.05
808.92	216.98
809.24	217.08
809.56	217.03
809.88	216.93
810.20	216.89
810.52	216.89
810.84	216.82
811.16	216.75
811.48	216.73
811.80	216.79
812.12	216.75
812.43	216.79
812.75	216.76
813.07	216.71
813.39	216.70
813.71	216.65
814.03	216.62
814.35	216.60
814.67	216.47
814.98	216.44
815.30	216.42
815.62	216.37
815.94	216.20
816.26	216.19
816.58	216.14
816.89	216.15
817.21	216.08
817.53	216.06
817.85	216.09
818.17	216.06
818.48	215.93
818.80	215.96
819.12	215.90
819.44	215.84
819.76	215.84
820.07	215.83
820.39	215.81
820.71	215.85
821.03	215.83
821.34	215.81
821.66	215.80
821.98	215.79
822.30	215.77
822.61	215.90
822.93	215.86
823.25	215.84
823.57	215.78
823.88	215.84
824.20	215.85
824.52	215.83
824.83	215.83
825.15	215.81
825.47	215.75
825.79	215.77
826.10	215.74
826.42	215.72
826.74	215.74
827.05	215.71
827.37	215.67
827.69	215.68
828.00	215.69
828.32	215.69
828.64	215.65
828.95	215.74
829.27	215.68
829.58	215.65
829.90	215.68
830.22	215.69
830.53	215.58
830.85	215.55
831.17	215.51
831.48	215.51
831.80	215.53
832.11	215.52
832.43	215.44
832.75	215.46
833.06	215.56
833.38	215.49
833.69	215.47
834.01	215.45
834.32	215.41
834.64	215.40
834.96	215.39
835.27	215.38
835.59	215.32
835.90	215.24
836.22	215.25
836.53	215.23
836.85	215.22
837.16	215.43
837.48	215.40
837.79	215.48
838.11	215.46
838.42	215.44
838.74	215.46
839.05	215.48
839.37	215.44
839.68	215.32
840.00	215.29
840.31	215.30
840.63	215.28
840.94	215.26
841.26	215.21
841.57	215.22
841.88	215.25
842.20	215.22
842.51	215.17
842.83	215.17
843.14	215.31
843.46	215.32
843.77	215.21
844.08	215.22
844.40	215.14
844.71	215.11
845.03	215.10
845.34	215.06
845.65	215.07
845.97	215.11
846.28	215.08
846.60	215.14
846.91	215.11
847.22	215.12
847.54	215.18
847.85	215.18
848.16	215.13
848.48	215.08
848.79	215.12
849.10	215.18
849.42	215.15
849.73	214.96
850.04	214.93
850.36	214.85
850.67	214.86
850.98	214.86
851.30	214.86
851.61	214.81
851.92	214.84
852.23	214.89
852.55	214.89
852.86	214.95
853.17	214.93
853.49	215.00
853.80	214.99
854.11	214.99
854.42	215.01
854.74	215.02
855.05	215.01
855.36	214.94
855.67	214.95
855.99	214.94
856.30	215.22
856.61	215.18
856.92	215.20
857.23	215.18
857.55	215.14
857.86	215.13
858.17	215.17
858.48	215.12
858.79	215.02
859.11	215.03
859.42	215.01
859.73	214.96
860.04	214.91
860.35	214.87
860.66	214.78
860.98	214.76
861.29	214.79
861.60	214.77
861.91	214.81
862.22	214.77
862.53	214.75
862.84	214.47
863.16	214.55
863.47	214.47
863.78	214.46
864.09	214.48
864.40	214.47
864.71	214.48
865.02	214.51
865.33	214.51
865.64	214.44
865.95	214.43
866.27	214.59
866.58	214.57
866.89	214.59
867.20	214.58
867.51	214.55
867.82	214.51
868.13	214.57
868.44	214.51
868.75	214.53
869.06	214.56
869.37	214.60
869.68	214.54
869.99	214.62
870.30	214.62
870.61	214.67
870.92	214.67
871.23	214.64
871.54	214.68
871.85	214.73
872.16	214.76
872.47	214.72
872.78	214.57
873.09	214.58
873.40	214.57
873.71	214.61
874.02	214.62
874.33	214.58
874.64	214.53
874.95	214.59
875.26	214.53
875.56	214.51
875.87	214.48
876.18	214.46
876.49	214.62
876.80	214.63
877.11	214.56
877.42	214.55
877.73	214.53
878.04	214.48
878.35	214.47
878.66	214.49
878.96	214.50
879.27	214.51
879.58	214.56
879.89	214.55
880.20	214.61
880.51	214.62
880.82	214.65
881.12	214.66
881.43	214.59
881.74	214.58
882.05	214.56
882.36	214.55
882.67	214.57
882.97	214.35
883.28	214.32
883.59	214.32
883.90	214.35
884.21	214.40
884.51	214.39
884.82	214.35
885.13	214.36
885.44	214.39
885.74	214.37
886.05	214.32
886.36	214.34
886.67	214.24
886.98	214.35
887.28	214.38
887.59	214.36
887.90	214.40
888.20	214.38
888.51	214.46
888.82	214.46
889.13	214.46
889.43	214.61
889.74	214.61
890.05	214.58
890.35	214.54
890.66	214.49
890.97	214.48
891.28	214.52
891.58	214.50
891.89	214.49
892.20	214.47
892.50	214.47
892.81	214.44
893.12	214.47
893.42	214.35
893.73	214.35
894.04	214.36
894.34	214.37
894.65	214.38
894.95	214.31
895.26	214.31
895.57	214.41
895.87	214.25
896.18	214.27
896.48	214.33
896.79	214.37
897.10	214.39
897.40	214.40
897.71	214.40
898.01	214.40
898.32	214.39
898.63	214.40
898.93	214.42
899.24	214.44
899.54	214.44
899.85	214.43
900.15	214.42
900.46	214.42
900.76	214.41
901.07	214.45
901.38	214.50
901.68	214.52
901.99	214.41
902.29	214.43
902.60	214.41
902.90	214.36
903.21	214.36
903.51	214.36
903.82	214.38
904.12	214.36
904.43	214.37
904.73	214.37
905.03	214.35
905.34	214.52
905.64	214.49
905.95	214.46
906.25	214.48
906.56	214.46
906.86	214.45
907.17	214.46
907.47	214.41
907.77	214.39
908.08	214.34
908.38	214.37
908.69	214.36
908.99	214.41
909.30	214.43
909.60	214.42
909.90	214.43
910.21	214.35
910.51	214.35
910.81	214.33
911.12	214.34
911.42	214.36
911.73	214.17
912.03	214.18
912.33	214.24
912.64	214.20
912.94	214.19
913.24	214.15
913.55	214.13
913.85	214.13
914.15	214.15
914.46	214.19
914.76	214.15
915.06	214.14
915.37	214.11
915.67	214.10
915.97	214.09
916.27	214.03
916.58	214.05
916.88	214.02
917.18	214.00
917.49	214.16
917.79	214.18
918.09	214.19
918.39	214.27
918.70	214.24
919.00	214.27
919.30	214.38
919.60	214.35
919.91	214.34
920.21	214.35
920.51	214.32
920.81	214.30
921.12	214.35
921.42	214.38
921.72	214.37
922.02	214.42
922.32	214.46
922.63	214.49
922.93	214.61
923.23	214.65
923.53	214.65
923.83	214.47
924.13	214.49
924.44	214.46
924.74	214.48
925.04	214.51
925.34	214.51
925.64	214.42
925.94	214.49
926.24	214.61
926.55	214.60
926.85	214.61
927.15	214.61
927.45	214.59
927.75	214.57
928.05	214.56
928.35	214.54
928.65	214.55
928.95	214.54
929.26	214.45
929.56	214.47
929.86	214.47
930.16	214.46
930.46	214.41
930.76	214.41
931.06	214.29
931.36	214.25
931.66	214.25
931.96	214.27
932.26	214.24
932.56	214.12
932.86	214.13
933.16	214.14
933.46	214.11
933.76	214.12
934.06	214.18
934.36	214.25
934.66	214.22
934.96	214.18
935.26	214.19
935.56	214.23
935.86	214.18
936.16	214.14
936.46	214.12
936.76	214.13
937.06	214.10
937.36	214.13
937.66	214.11
937.96	214.10
938.26	214.07
938.56	214.06
938.86	214.11
939.16	214.18
939.46	214.18
939.76	214.21
940.06	214.17
940.35	214.10
940.65	213.99
940.95	214.03
941.25	214.00
941.55	213.97
941.85	213.96
942.15	214.00
942.45	214.08
942.75	214.10
943.04	214.11
943.34	214.18
943.64	214.17
943.94	214.15
944.24	214.14
944.54	214.16
944.84	214.15
945.13	214.08
945.43	214.01
945.73	214.01
946.03	214.01
946.33	213.98
946.62	213.98
946.92	214.01
947.22	214.00
947.52	214.03
947.82	214.08
948.11	214.03
948.41	213.98
948.71	213.91
949.01	213.91
949.31	213.88
949.60	213.88
949.90	213.90
950.20	213.89
950.50	213.87
950.79	213.85
951.09	213.91
951.39	213.93
951.69	213.91
951.98	213.94
952.28	213.94
952.58	213.98
952.87	213.97
953.17	213.99
953.47	213.95
953.76	213.94
954.06	213.90
954.36	213.90
954.66	213.92
954.95	213.97
955.25	214.00
955.55	214.03
955.84	213.93
956.14	213.97
956.44	214.00
956.73	214.01
957.03	214.03
957.32	213.99
957.62	213.98
957.92	214.04
958.21	214.00
958.51	214.25
958.81	214.24
959.10	214.25
959.40	214.30
959.69	214.33
959.99	214.35
960.29	214.34
960.58	214.35
960.88	214.44
961.17	214.43
961.47	214.44
961.76	214.42
962.06	214.50
962.36	214.50
962.65	214.49
962.95	214.50
963.24	214.49
963.54	214.52
963.83	214.53
964.13	214.50
964.42	214.47
964.72	214.27
965.01	214.29
965.31	214.24
965.60	214.16
965.90	214.26
966.19	214.21
966.49	214.21
966.78	214.20
967.08	214.15
967.37	214.16
967.67	214.09
967.96	214.14
968.26	214.11
968.55	214.10
968.85	214.09
969.14	214.09
969.43	214.09
969.73	214.02
970.02	213.99
970.32	213.96
970.61	213.96
970.91	213.94
971.20	213.91
971.49	213.94
971.79	213.96
972.08	213.84
972.38	213.85
972.67	213.85
972.96	213.87
973.26	213.84
973.55	213.88
973.85	213.87
974.14	213.84
974.43	213.86
974.73	213.84
975.02	213.87
975.31	213.87
975.61	213.88
975.90	213.90
976.19	213.93
976.49	213.96
976.78	213.98
977.07	213.96
977.37	213.97
977.66	213.99
977.95	213.97
978.24	213.98
978.54	214.01
978.83	213.98
979.12	213.93
979.42	213.95
979.71	213.92
980.00	213.92
980.29	213.93
980.59	213.89
980.88	213.92
981.17	213.88
981.46	213.87
981.76	213.85
982.05	213.90
982.34	213.90
982.63	213.89
982.93	213.89
983.22	213.94
983.51	213.95
983.80	213.96
984.09	214.00
984.39	214.00
984.68	214.00
984.97	214.06
985.26	214.08
985.55	214.10
985.85	214.06
986.14	214.12
986.43	214.13
986.72	214.12
987.01	214.05
987.30	214.07
987.59	214.05
987.89	214.07
988.18	214.01
988.47	213.99
988.76	213.94
989.05	213.90
989.34	213.88
989.63	213.92
989.92	213.90
990.22	213.86
990.51	213.85
990.80	213.82
991.09	213.81
991.38	213.84
991.67	213.78
991.96	213.79
992.25	213.76
992.54	213.74
992.83	213.74
993.12	213.80
993.41	213.82
993.70	213.91
993.99	213.93
994.28	213.97
994.58	214.02
994.87	214.02
995.16	214.05
995.45	214.00
995.74	213.94
996.03	213.96
996.32	213.98
996.61	214.03
996.90	214.04
997.19	214.03
997.48	213.97
997.77	213.95
998.06	213.93
998.34	213.94
998.63	213.92
998.92	213.96
999.21	213.93
999.50	213.94
999.79	213.89
1000.08	213.87
1000.37	213.86
1000.66	213.82
1000.95	213.88
1001.24	213.89
1001.53	213.96
1001.82	213.94
1002.11	213.90
1002.40	213.90
1002.68	213.94
1002.97	214.09
1003.26	214.09
1003.55	214.11
1003.84	214.13
1004.13	214.21
1004.42	214.21
1004.71	214.22
1004.99	214.17
1005.28	214.21
1005.57	214.18
1005.86	214.15
1006.15	214.11
1006.44	214.11
1006.72	214.13
1007.01	214.09
1007.30	214.09
1007.59	214.05
1007.88	214.05
1008.17	214.06
1008.45	214.03
1008.74	213.95
1009.03	213.83
1009.32	213.82
1009.60	213.79
1009.89	213.77
1010.18	213.69
1010.47	213.66
1010.76	213.63
1011.04	213.63
1011.33	213.65
1011.62	213.67
1011.91	213.72
1012.19	213.74
1012.48	213.76
1012.77	213.76
1013.05	213.85
1013.34	213.87
1013.63	213.85
1013.92	213.88
1014.20	213.88
1014.49	213.88
1014.78	213.90
1015.06	213.87
1015.35	213.87
1015.64	213.94
1015.92	213.99
1016.21	213.98
1016.50	214.01
1016.78	214.05
1017.07	214.05
1017.36	213.98
1017.64	213.98
1017.93	213.97
1018.22	213.94
1018.50	213.92
1018.79	213.90
1019.08	213.79
1019.36	213.78
1019.65	213.74
1019.93	213.80
1020.22	213.83
1020.51	213.93
1020.79	213.92
1021.08	213.35
1021.36	213.66
1021.65	213.55
1021.94	213.48
1022.22	213.92
1022.51	212.96
1022.79	215.09
1023.08	214.23
1023.36	215.91
1023.65	213.52
>>>>>End Processed Spectral Data<<<<<
